time,x,y,z,vx,vy,vz,ax,ay,az,jx,jy,jz,sx,sy,sz,roll,pitch,yaw,p,q,r
0.000000,-2.699631,-0.360548,-1.463518,0.011115,-0.022795,-0.002465,0.014475,0.209708,0.030288,0.733862,9.523709,0.905008,9.569540,-88.664059,-53.873395,0.021440,-0.001480,0.000000,0.975355,-0.075159,0.000000
0.010000,-2.699519,-0.360776,-1.463543,0.011260,-0.020698,-0.002163,0.021813,0.304945,0.039338,0.829557,8.637068,0.366274,3.987982,-364.052189,-97.018212,0.031200,-0.002233,0.000000,0.884280,-0.084945,0.000000
0.020000,-2.699405,-0.360962,-1.463562,0.011551,-0.016696,-0.001679,0.031066,0.382450,0.037613,0.813621,2.242665,-1.035357,8.475733,-581.935782,-101.610422,0.039116,-0.003179,0.000000,0.224988,-0.082856,-0.000000
0.030000,-2.699288,-0.361110,-1.463577,0.011881,-0.013049,-0.001410,0.038086,0.349799,0.018631,0.999072,-3.001648,-1.665935,36.863105,-237.593841,-10.582748,0.035710,-0.003890,0.000000,-0.312252,-0.101308,0.000000
0.040000,-2.699168,-0.361223,-1.463590,0.012313,-0.009700,-0.001306,0.051047,0.322417,0.004295,1.550883,-2.509212,-1.247012,51.131772,45.949602,37.613449,0.032868,-0.005206,0.000000,-0.259817,-0.157410,-0.000000
0.050000,-2.699042,-0.361304,-1.463603,0.012902,-0.006601,-0.001324,0.069104,0.299615,-0.006309,2.021707,-2.082656,-0.913666,43.395602,39.658883,29.622246,0.030512,-0.007040,0.000000,-0.214842,-0.205193,0.000000
0.060000,-2.698910,-0.361355,-1.463616,0.013695,-0.003708,-0.001432,0.091482,0.280764,-0.013979,2.418795,-1.716034,-0.654567,36.366847,33.946972,22.727406,0.028570,-0.009312,0.000000,-0.176496,-0.245471,-0.000000
0.070000,-2.698768,-0.361378,-1.463631,0.014732,-0.000985,-0.001604,0.117479,0.265294,-0.019401,2.749044,-1.403716,-0.459118,30.009825,28.782659,16.855507,0.026981,-0.011951,0.000000,-0.144043,-0.278976,-0.000000
0.080000,-2.698615,-0.361375,-1.463648,0.016045,0.001598,-0.001820,0.146462,0.252689,-0.023161,3.018992,-1.140381,-0.317457,24.288826,24.134729,11.933132,0.025689,-0.014894,0.000000,-0.116830,-0.306372,-0.000000
0.090000,-2.698447,-0.361346,-1.463668,0.017661,0.004068,-0.002067,0.177859,0.242486,-0.025750,3.234821,-0.921022,-0.220455,19.168164,19.971973,7.886848,0.024645,-0.018081,0.000000,-0.094266,-0.328272,0.000000
0.100000,-2.698262,-0.361294,-1.463690,0.019602,0.006448,-0.002335,0.211159,0.234269,-0.027570,3.402355,-0.740942,-0.159720,14.612162,16.263182,4.643216,0.023804,-0.021461,0.000000,-0.075820,-0.345248,0.000000
0.110000,-2.698055,-0.361217,-1.463714,0.021884,0.008754,-0.002619,0.245906,0.227667,-0.028944,3.527064,-0.595758,-0.127591,10.585117,12.977143,2.128829,0.023128,-0.024988,0.000000,-0.061006,-0.357836,0.000000
0.120000,-2.697824,-0.361119,-1.463742,0.024520,0.011001,-0.002914,0.281700,0.222354,-0.030122,3.614058,-0.481399,-0.117143,7.051360,10.082646,0.270275,0.022584,-0.028620,0.000000,-0.049383,-0.366543,0.000000
0.130000,-2.697565,-0.360997,-1.463773,0.027518,0.013201,-0.003221,0.318188,0.218039,-0.031287,3.668091,-0.394105,-0.122185,3.975207,7.548482,-1.005890,0.022140,-0.032321,0.000000,-0.040547,-0.371843,-0.000000
0.140000,-2.697274,-0.360855,-1.463807,0.030884,0.015362,-0.003540,0.355062,0.214472,-0.032566,3.693562,-0.330429,-0.137261,1.320881,5.343430,-1.773113,0.021773,-0.036058,0.000000,-0.034131,-0.374185,-0.000000
0.150000,-2.696947,-0.360690,-1.463844,0.034619,0.017490,-0.003872,0.392059,0.211431,-0.034032,3.694509,-0.287236,-0.157648,-0.947245,3.436287,-2.104784,0.021458,-0.039806,0.000000,-0.029805,-0.373987,0.000000
0.160000,-2.696581,-0.360505,-1.463884,0.038725,0.019590,-0.004221,0.428952,0.208727,-0.035719,3.674617,-0.261704,-0.179357,-2.864754,1.795853,-2.074307,0.021177,-0.043540,0.000000,-0.027272,-0.371637,-0.000000
0.170000,-2.696173,-0.360298,-1.463928,0.043198,0.021665,-0.004587,0.465551,0.206197,-0.037620,3.637214,-0.251319,-0.199134,-4.470815,0.387293,-1.766267,0.020912,-0.047240,0.000000,-0.026267,-0.367492,0.000000
0.180000,-2.695717,-0.360071,-1.463976,0.048036,0.023714,-0.004973,0.501696,0.203701,-0.039701,3.585200,-0.253958,-0.214682,-5.859801,-0.883681,-1.448304,0.020651,-0.050891,0.000000,-0.026570,-0.361864,0.000000
0.190000,-2.695212,-0.359824,-1.464027,0.053232,0.025739,-0.005381,0.537255,0.201118,-0.041913,3.520018,-0.268993,-0.228100,-7.047029,-2.026460,-1.126657,0.020381,-0.054479,0.000000,-0.028118,-0.354901,-0.000000
0.200000,-2.694653,-0.359557,-1.464083,0.058781,0.027737,-0.005811,0.572097,0.198321,-0.044263,3.444260,-0.294487,-0.237215,-7.635501,-2.606832,0.558357,0.020089,-0.057991,0.000000,-0.030710,-0.346883,-0.000000
0.210000,-2.694036,-0.359269,-1.464144,0.064674,0.029705,-0.006266,0.606140,0.195228,-0.046657,3.367308,-0.321130,-0.216933,-7.707291,-2.705873,3.379775,0.019767,-0.061418,0.000000,-0.033353,-0.338926,0.000000
0.220000,-2.693359,-0.358963,-1.464209,0.070904,0.031641,-0.006744,0.639443,0.191898,-0.048602,3.290114,-0.348604,-0.169620,-8.539542,-3.689829,3.154784,0.019422,-0.064771,0.000000,-0.036024,-0.331158,-0.000000
0.230000,-2.692618,-0.358637,-1.464279,0.077463,0.033543,-0.007238,0.671943,0.188256,-0.050050,3.196517,-0.394926,-0.153837,-10.203926,-5.622679,-0.266537,0.019046,-0.068043,0.000000,-0.040660,-0.321573,0.000000
0.240000,-2.691810,-0.358292,-1.464353,0.084343,0.035406,-0.007745,0.703373,0.184000,-0.051679,3.086036,-0.461058,-0.174950,-11.008991,-6.679901,-1.251943,0.018609,-0.071203,0.000000,-0.047359,-0.310036,0.000000
0.250000,-2.690931,-0.357928,-1.464433,0.091530,0.037223,-0.008272,0.733663,0.179035,-0.053549,2.976337,-0.528524,-0.178876,-10.709910,-6.634680,0.739460,0.018099,-0.074245,0.000000,-0.054149,-0.298700,0.000000
0.260000,-2.689979,-0.357547,-1.464519,0.099016,0.038987,-0.008816,0.762900,0.173429,-0.055256,2.871837,-0.593752,-0.160161,-10.496648,-6.755105,1.844983,0.017526,-0.077178,0.000000,-0.060663,-0.288083,0.000000
0.270000,-2.688951,-0.357149,-1.464610,0.106788,0.040692,-0.009377,0.791100,0.167160,-0.056752,2.766404,-0.663626,-0.141976,-10.779227,-7.349571,1.655158,0.016886,-0.080007,0.000000,-0.067643,-0.277400,0.000000
0.280000,-2.687844,-0.356733,-1.464706,0.114838,0.042330,-0.009951,0.818228,0.160157,-0.058096,2.656253,-0.740743,-0.127058,-11.183319,-8.002228,1.495829,0.016173,-0.082727,0.000000,-0.075353,-0.266243,0.000000
0.290000,-2.686654,-0.356302,-1.464809,0.123153,0.043895,-0.010539,0.844225,0.152345,-0.059293,2.542738,-0.823671,-0.112060,-11.283544,-8.423444,1.559609,0.015379,-0.085333,0.000000,-0.083644,-0.254775,-0.000000
0.300000,-2.685381,-0.355855,-1.464917,0.131722,0.045377,-0.011137,0.869083,0.143683,-0.060337,2.430582,-0.909212,-0.095866,-11.044737,-8.614432,1.691854,0.014500,-0.087823,0.000000,-0.092193,-0.243483,0.000000
0.310000,-2.684020,-0.355395,-1.465032,0.140535,0.046769,-0.011745,0.892837,0.134160,-0.061211,2.321843,-0.995960,-0.078222,-10.763351,-8.768574,1.806476,0.013535,-0.090203,0.000000,-0.100859,-0.232573,0.000000
0.320000,-2.682570,-0.354920,-1.465152,0.149579,0.048060,-0.012361,0.915520,0.123764,-0.061901,2.215315,-1.084583,-0.059736,-10.649071,-9.015109,1.847032,0.012483,-0.092475,0.000000,-0.109712,-0.221919,0.000000
0.330000,-2.681028,-0.354433,-1.465279,0.158845,0.049244,-0.012983,0.937143,0.112469,-0.062405,2.108861,-1.176262,-0.041282,-10.623345,-9.301051,1.836179,0.011341,-0.094642,0.000000,-0.118873,-0.211297,-0.000000
0.340000,-2.679393,-0.353935,-1.465412,0.168322,0.050310,-0.013610,0.957697,0.100239,-0.062727,2.002848,-1.270604,-0.023013,-10.441741,-9.474466,1.845052,0.010105,-0.096702,0.000000,-0.128304,-0.200741,0.000000
0.350000,-2.677662,-0.353427,-1.465551,0.177999,0.051249,-0.014238,0.977200,0.087057,-0.062866,1.900027,-1.365751,-0.004381,-10.061516,-9.509730,1.888091,0.008775,-0.098657,0.000000,-0.137820,-0.190531,-0.000000
0.360000,-2.675833,-0.352910,-1.465697,0.187866,0.052051,-0.014867,0.995697,0.072924,-0.062815,1.801618,-1.460799,0.014749,-9.659254,-9.514803,1.917633,0.007349,-0.100513,0.000000,-0.147330,-0.180790,-0.000000
0.370000,-2.673905,-0.352386,-1.465848,0.197913,0.052707,-0.015494,1.013232,0.057841,-0.062571,1.706842,-1.556047,0.033972,-9.368219,-9.567382,1.898736,0.005828,-0.102273,0.000000,-0.156867,-0.171432,0.000000
0.380000,-2.671875,-0.351856,-1.466006,0.208131,0.053208,-0.016118,1.029834,0.041803,-0.062135,1.614253,-1.652147,0.052724,-9.142489,-9.637714,1.847163,0.004212,-0.103941,0.000000,-0.166497,-0.162306,0.000000
0.390000,-2.669742,-0.351322,-1.466171,0.218510,0.053543,-0.016737,1.045517,0.024798,-0.061516,1.523992,-1.748801,0.070915,-8.825861,-9.633590,1.808454,0.002498,-0.105519,0.000000,-0.176193,-0.153422,-0.000000
0.400000,-2.667505,-0.350785,-1.466341,0.229041,0.053704,-0.017349,1.060314,0.006827,-0.060717,1.437736,-1.844818,0.088893,-8.389627,-9.539814,1.789194,0.000688,-0.107010,0.000000,-0.185833,-0.144951,0.000000
0.410000,-2.665161,-0.350248,-1.466518,0.239716,0.053680,-0.017951,1.074272,-0.012099,-0.059738,1.356199,-1.939598,0.106699,-7.947029,-9.421721,1.760472,-0.001219,-0.108418,0.000000,-0.195361,-0.136964,0.000000
0.420000,-2.662710,-0.349712,-1.466700,0.250526,0.053462,-0.018543,1.087438,-0.031965,-0.058583,1.278796,-2.033253,0.124102,-7.585944,-9.323873,1.710318,-0.003220,-0.109749,0.000000,-0.204786,-0.129396,-0.000000
0.430000,-2.660151,-0.349179,-1.466889,0.261465,0.053040,-0.019123,1.099848,-0.052764,-0.057256,1.204480,-2.126075,0.140905,-7.277287,-9.227807,1.650252,-0.005314,-0.111006,0.000000,-0.214139,-0.122141,-0.000000
0.440000,-2.657481,-0.348651,-1.467083,0.272523,0.052406,-0.019689,1.111528,-0.074487,-0.055765,1.133250,-2.217809,0.157107,-6.917670,-9.080907,1.596732,-0.007502,-0.112192,0.000000,-0.223395,-0.115196,-0.000000
0.450000,-2.654700,-0.348130,-1.467282,0.283695,0.051551,-0.020238,1.122513,-0.097120,-0.054114,1.066127,-2.307693,0.172840,-6.487161,-8.875776,1.548328,-0.009782,-0.113310,0.000000,-0.232476,-0.108663,0.000000
0.460000,-2.651807,-0.347620,-1.467487,0.294974,0.050464,-0.020771,1.132850,-0.120641,-0.052308,1.003507,-2.395324,0.188074,-6.060789,-8.649507,1.496599,-0.012152,-0.114365,0.000000,-0.241343,-0.102581,0.000000
0.470000,-2.648801,-0.347121,-1.467698,0.306352,0.049138,-0.021284,1.142583,-0.145026,-0.050353,0.944911,-2.480683,0.202772,-5.698697,-8.424240,1.449941,-0.014609,-0.115362,0.000000,-0.249992,-0.096901,0.000000
0.480000,-2.645680,-0.346637,-1.467913,0.317825,0.047564,-0.021778,1.151748,-0.170254,-0.048253,0.889533,-2.563809,0.217073,-5.381728,-8.189093,1.414331,-0.017152,-0.116304,0.000000,-0.258429,-0.091542,0.000000
0.490000,-2.642444,-0.346170,-1.468133,0.329387,0.045733,-0.022250,1.160374,-0.196302,-0.046011,0.837277,-2.644465,0.231059,-5.038627,-7.918593,1.380086,-0.019778,-0.117193,0.000000,-0.266627,-0.086495,0.000000
0.500000,-2.639092,-0.345722,-1.468358,0.341033,0.043637,-0.022698,1.168494,-0.223144,-0.043631,0.788760,-2.722181,0.244675,-4.654865,-7.610924,1.339317,-0.022484,-0.118034,0.000000,-0.274541,-0.081821,0.000000
0.510000,-2.635624,-0.345297,-1.468587,0.352757,0.041270,-0.023122,1.176149,-0.250746,-0.041118,0.744179,-2.796684,0.257845,-4.281998,-7.284021,1.301399,-0.025269,-0.118830,0.000000,-0.282140,-0.077537,-0.000000
0.520000,-2.632037,-0.344897,-1.468821,0.364556,0.038623,-0.023520,1.183378,-0.279077,-0.038474,0.703120,-2.867862,0.270703,-3.962947,-6.944598,1.290169,-0.028127,-0.119585,0.000000,-0.289414,-0.073604,0.000000
0.530000,-2.628332,-0.344525,-1.469058,0.376425,0.035688,-0.023892,1.190211,-0.308103,-0.035704,0.664920,-2.935576,0.283648,-3.684586,-6.587153,1.306171,-0.031057,-0.120303,0.000000,-0.296349,-0.069960,-0.000000
0.540000,-2.624509,-0.344183,-1.469298,0.388360,0.032460,-0.024235,1.196676,-0.337789,-0.032802,0.629428,-2.999605,0.296826,-3.395410,-6.205196,1.319526,-0.034054,-0.120985,0.000000,-0.302923,-0.066591,-0.000000
0.550000,-2.620565,-0.343876,-1.469542,0.400358,0.028933,-0.024548,1.202800,-0.368095,-0.029767,0.597012,-3.059680,0.310039,-3.083634,-5.800330,1.317603,-0.037116,-0.121635,0.000000,-0.309108,-0.063531,0.000000
0.560000,-2.616502,-0.343605,-1.469789,0.412416,0.025099,-0.024830,1.208616,-0.398982,-0.026601,0.567756,-3.115611,0.323178,-2.786194,-5.377373,1.322995,-0.040237,-0.122257,0.000000,-0.314884,-0.060788,-0.000000
0.570000,-2.612317,-0.343374,-1.470039,0.424531,0.020953,-0.025080,1.214155,-0.430408,-0.023303,0.541288,-3.167227,0.336499,-2.536874,-4.934213,1.370112,-0.043413,-0.122852,0.000000,-0.320233,-0.058327,-0.000000
0.580000,-2.608011,-0.343186,-1.470291,0.436699,0.016490,-0.025296,1.219442,-0.462327,-0.019871,0.517018,-3.214295,0.350580,-2.326371,-4.469293,1.455007,-0.046641,-0.123424,0.000000,-0.325136,-0.056096,0.000000
0.590000,-2.603583,-0.343044,-1.470545,0.448919,0.011706,-0.025477,1.224496,-0.494694,-0.016292,0.494761,-3.256613,0.365599,-2.112930,-3.987013,1.533448,-0.049916,-0.123975,0.000000,-0.329574,-0.054079,0.000000
0.600000,-2.599033,-0.342951,-1.470800,0.461189,0.006597,-0.025622,1.229337,-0.527459,-0.012559,0.474760,-3.294036,0.381249,-1.885907,-3.490969,1.589764,-0.053233,-0.124507,0.000000,-0.333530,-0.052297,0.000000
0.610000,-2.594359,-0.342912,-1.471057,0.473506,0.001157,-0.025728,1.233991,-0.560574,-0.008667,0.457043,-3.326432,0.397394,-1.674835,-2.978639,1.655388,-0.056587,-0.125023,0.000000,-0.336992,-0.050751,0.000000
0.620000,-2.589562,-0.342928,-1.471315,0.485869,-0.004615,-0.025795,1.238478,-0.593988,-0.004611,0.441263,-3.353608,0.414357,-1.508201,-2.442803,1.770235,-0.059973,-0.125524,0.000000,-0.339941,-0.049410,-0.000000
0.630000,-2.584642,-0.343004,-1.471573,0.498276,-0.010723,-0.025821,1.242816,-0.627646,-0.000380,0.426879,-3.375288,0.432799,-1.378276,-1.884209,1.926747,-0.063385,-0.126013,0.000000,-0.342357,-0.048229,0.000000
0.640000,-2.579597,-0.343143,-1.471831,0.510725,-0.017168,-0.025803,1.247016,-0.661494,0.004045,0.413697,-3.391293,0.452892,-1.248787,-1.313813,2.072649,-0.066820,-0.126490,0.000000,-0.344224,-0.047191,0.000000
0.650000,-2.574427,-0.343347,-1.472089,0.523216,-0.023952,-0.025740,1.251090,-0.695472,0.008678,0.401903,-3.401565,0.474252,-1.109781,-0.736656,2.191294,-0.070270,-0.126958,0.000000,-0.345535,-0.046310,-0.000000
0.660000,-2.569133,-0.343622,-1.472346,0.535747,-0.031077,-0.025629,1.255054,-0.729525,0.013530,0.391502,-3.406026,0.496718,-0.986313,-0.145960,2.318434,-0.073731,-0.127419,0.000000,-0.346284,-0.045585,0.000000
0.670000,-2.563712,-0.343969,-1.472602,0.548317,-0.038543,-0.025469,1.258920,-0.763593,0.018612,0.382177,-3.404484,0.520621,-0.903239,0.468860,2.494216,-0.077196,-0.127873,0.000000,-0.346454,-0.044988,0.000000
0.680000,-2.558166,-0.344393,-1.472856,0.560925,-0.046349,-0.025257,1.262697,-0.797615,0.023943,0.373437,-3.396649,0.546602,-0.853490,1.105612,2.708508,-0.080660,-0.128321,0.000000,-0.346025,-0.044479,0.000000
0.690000,-2.552494,-0.344896,-1.473107,0.573571,-0.054495,-0.024990,1.266389,-0.831526,0.029545,0.365107,-3.382372,0.574791,-0.804532,1.748748,2.907620,-0.084116,-0.128765,0.000000,-0.344987,-0.044043,0.000000
0.700000,-2.546695,-0.345483,-1.473355,0.586253,-0.062980,-0.024666,1.269999,-0.865262,0.035438,0.357346,-3.361674,0.604755,-0.747365,2.392166,3.076221,-0.087560,-0.129205,0.000000,-0.343339,-0.043689,-0.000000
0.710000,-2.540769,-0.346156,-1.473600,0.598971,-0.071800,-0.024281,1.273536,-0.898759,0.041640,0.350160,-3.334528,0.636315,-0.703751,3.045480,3.249770,-0.090983,-0.129642,0.000000,-0.341081,-0.043418,-0.000000
0.720000,-2.534715,-0.346919,-1.473841,0.611724,-0.080955,-0.023833,1.277003,-0.931953,0.048165,0.343271,-3.300764,0.669750,-0.694616,3.721310,3.462525,-0.094381,-0.130077,0.000000,-0.338200,-0.043204,-0.000000
0.730000,-2.528534,-0.347775,-1.474077,0.624511,-0.090439,-0.023318,1.280401,-0.964775,0.055035,0.336267,-3.260102,0.705566,-0.713181,4.416508,3.702894,-0.097747,-0.130510,0.000000,-0.334675,-0.043014,-0.000000
0.740000,-2.522225,-0.348727,-1.474307,0.637332,-0.100250,-0.022732,1.283728,-0.997155,0.062276,0.329008,-3.212434,0.743808,-0.731212,5.112492,3.923999,-0.101075,-0.130942,0.000000,-0.330500,-0.042835,0.000000
0.750000,-2.515788,-0.349780,-1.474532,0.650186,-0.110383,-0.022073,1.286981,-1.029023,0.069911,0.321643,-3.157852,0.784046,-0.741054,5.801296,4.114465,-0.104357,-0.131371,0.000000,-0.325683,-0.042676,0.000000
0.760000,-2.509221,-0.350935,-1.474749,0.663071,-0.120831,-0.021334,1.290161,-1.060312,0.077957,0.314187,-3.096408,0.826097,-0.760859,6.494325,4.303852,-0.107589,-0.131800,0.000000,-0.320227,-0.042537,-0.000000
0.770000,-2.502526,-0.352196,-1.474958,0.675989,-0.131589,-0.020513,1.293265,-1.090951,0.086433,0.306426,-3.027966,0.870123,-0.806972,7.208578,4.514393,-0.110762,-0.132227,0.000000,-0.314122,-0.042400,-0.000000
0.780000,-2.495702,-0.353567,-1.475159,0.688937,-0.142650,-0.019606,1.296289,-1.120871,0.095359,0.298047,-2.952236,0.916385,-0.872829,7.940645,4.734963,-0.113871,-0.132653,0.000000,-0.307345,-0.042235,-0.000000
0.790000,-2.488747,-0.355049,-1.475350,0.701915,-0.154006,-0.018606,1.299226,-1.149996,0.104760,0.288969,-2.869153,0.964822,-0.935545,8.665387,4.933690,-0.116909,-0.133077,0.000000,-0.299889,-0.042035,0.000000
0.800000,-2.481663,-0.356647,-1.475531,0.714921,-0.165650,-0.017510,1.302069,-1.178254,0.114656,0.279336,-2.778929,1.015059,-0.990961,9.370286,5.103394,-0.119869,-0.133500,0.000000,-0.291771,-0.041810,-0.000000
0.810000,-2.474449,-0.358362,-1.475701,0.727956,-0.177571,-0.016313,1.304813,-1.205575,0.125062,0.269150,-2.681747,1.066890,-1.052892,10.071002,5.262518,-0.122745,-0.133920,0.000000,-0.283006,-0.041557,-0.000000
0.820000,-2.467104,-0.360198,-1.475857,0.741018,-0.189761,-0.015009,1.307452,-1.231889,0.135994,0.258278,-2.577509,1.120309,-1.127231,10.795441,5.422207,-0.125529,-0.134337,0.000000,-0.273584,-0.041263,-0.000000
0.830000,-2.459629,-0.362158,-1.476001,0.754105,-0.202209,-0.013593,1.309978,-1.257125,0.147468,0.246605,-2.465838,1.175334,-1.207797,11.538262,5.572848,-0.128216,-0.134751,0.000000,-0.263464,-0.040916,0.000000
0.840000,-2.452022,-0.364242,-1.476129,0.767217,-0.214904,-0.012060,1.312384,-1.281206,0.159500,0.234123,-2.346743,1.231766,-1.285381,12.258980,5.696496,-0.130799,-0.135162,0.000000,-0.252643,-0.040513,0.000000
0.850000,-2.444284,-0.366456,-1.476242,0.780353,-0.227833,-0.010403,1.314661,-1.304060,0.172103,0.220898,-2.220659,1.289264,-1.360021,12.946420,5.797853,-0.133269,-0.135569,0.000000,-0.241155,-0.040056,0.000000
0.860000,-2.436415,-0.368799,-1.476337,0.793510,-0.240985,-0.008618,1.316802,-1.325619,0.185286,0.206922,-2.087815,1.347723,-1.435741,13.625664,5.884746,-0.135622,-0.135970,0.000000,-0.229018,-0.039543,0.000000
0.870000,-2.428414,-0.371275,-1.476414,0.806689,-0.254346,-0.006698,1.318799,-1.345816,0.199058,0.192183,-1.948145,1.406959,-1.508170,14.316415,5.934667,-0.137850,-0.136367,0.000000,-0.216218,-0.038970,-0.000000
0.880000,-2.420281,-0.373886,-1.476471,0.819886,-0.267901,-0.004637,1.320645,-1.364582,0.213425,0.176759,-1.801487,1.466416,-1.573242,15.009508,5.939504,-0.139946,-0.136757,0.000000,-0.202721,-0.038336,-0.000000
0.890000,-2.412016,-0.376633,-1.476507,0.833102,-0.281637,-0.002429,1.322334,-1.381846,0.228386,0.160718,-1.647955,1.525749,-1.635121,15.675587,5.926933,-0.141904,-0.137141,0.000000,-0.188528,-0.037643,0.000000
0.900000,-2.403619,-0.379519,-1.476520,0.846333,-0.295538,-0.000069,1.323860,-1.397541,0.243940,0.144056,-1.487975,1.584955,-1.700877,16.302161,5.912137,-0.143717,-0.137518,0.000000,-0.173672,-0.036890,-0.000000
0.910000,-2.395090,-0.382544,-1.476508,0.859579,-0.309588,0.002450,1.325215,-1.411605,0.260085,0.126701,-1.321912,1.643992,-1.765128,16.906181,5.871950,-0.145378,-0.137887,0.000000,-0.158180,-0.036069,0.000000
0.920000,-2.386428,-0.385711,-1.476471,0.872837,-0.323770,0.005133,1.326394,-1.423979,0.276820,0.108754,-1.149851,1.702394,-1.805108,17.513502,5.763195,-0.146880,-0.138247,0.000000,-0.142043,-0.035183,0.000000
0.930000,-2.377633,-0.389019,-1.476406,0.886107,-0.338068,0.007986,1.327390,-1.434602,0.294133,0.090598,-0.971642,1.759256,-1.819275,18.115078,5.587848,-0.148218,-0.138598,0.000000,-0.125220,-0.034256,0.000000
0.940000,-2.368706,-0.392472,-1.476311,0.899385,-0.352462,0.011015,1.328206,-1.443412,0.312005,0.072368,-0.787550,1.814151,-1.836593,18.672091,5.400277,-0.149384,-0.138940,0.000000,-0.107717,-0.033296,-0.000000
0.950000,-2.359645,-0.396069,-1.476185,0.912671,-0.366936,0.014226,1.328838,-1.450353,0.330416,0.053867,-0.598200,1.867261,-1.868352,19.188508,5.221270,-0.150372,-0.139271,0.000000,-0.089588,-0.032284,0.000000
0.960000,-2.350452,-0.399811,-1.476027,0.925962,-0.381469,0.017624,1.329283,-1.455376,0.349350,0.035001,-0.403780,1.918576,-1.892825,19.685716,5.010640,-0.151176,-0.139593,0.000000,-0.070839,-0.031210,0.000000
0.970000,-2.341126,-0.403698,-1.475833,0.939256,-0.396043,0.021213,1.329538,-1.458429,0.368787,0.016010,-0.204486,1.967474,-1.880197,20.137544,4.712617,-0.151789,-0.139903,0.000000,-0.051464,-0.030089,-0.000000
0.980000,-2.331667,-0.407732,-1.475602,0.952553,-0.410638,0.025000,1.329603,-1.459466,0.388699,-0.002603,-0.001029,2.012829,-1.835037,20.532896,4.333392,-0.152205,-0.140201,0.000000,-0.031504,-0.028953,-0.000000
0.990000,-2.322075,-0.411911,-1.475333,0.965849,-0.425233,0.028987,1.329486,-1.458449,0.409044,-0.020691,0.206172,2.054142,-1.795371,20.904277,3.945404,-0.152419,-0.140489,0.000000,-0.010979,-0.027811,0.000000
1.000000,-2.312350,-0.416236,-1.475023,0.979142,-0.439807,0.033180,1.329189,-1.455342,0.429782,-0.038510,0.417057,2.091737,-1.771554,21.250390,3.587154,-0.152424,-0.140764,0.000000,0.010114,-0.026639,-0.000000
1.010000,-2.302492,-0.420707,-1.474669,0.992432,-0.454340,0.037583,1.328716,-1.450108,0.450879,-0.056122,0.631180,2.125885,-1.736761,21.545391,3.206589,-0.152216,-0.141028,0.000000,0.031739,-0.025435,0.000000
1.020000,-2.292501,-0.425323,-1.474271,1.005717,-0.468809,0.042198,1.328067,-1.442719,0.472300,-0.073245,0.847965,2.155869,-1.664816,21.795816,2.701686,-0.151789,-0.141279,0.000000,0.053862,-0.024216,-0.000000
1.030000,-2.282378,-0.430083,-1.473825,1.018994,-0.483194,0.047029,1.327251,-1.433149,0.493996,-0.089418,1.067096,2.179919,-1.555758,22.014927,2.084792,-0.151138,-0.141518,0.000000,0.076492,-0.023002,0.000000
1.040000,-2.272122,-0.434987,-1.473330,1.032262,-0.497472,0.052078,1.326279,-1.421377,0.515898,-0.104361,1.288263,2.197565,-1.445030,22.184474,1.493014,-0.150258,-0.141744,0.000000,0.099616,-0.021815,0.000000
1.050000,-2.261733,-0.440033,-1.472784,1.045519,-0.511621,0.057347,1.325163,-1.407384,0.537947,-0.118319,1.510786,2.209779,-1.394478,22.249311,0.954981,-0.149145,-0.141959,0.000000,0.123157,-0.020643,-0.000000
1.060000,-2.251211,-0.445219,-1.472184,1.058765,-0.525620,0.062837,1.323912,-1.391161,0.560094,-0.132250,1.733249,2.216664,-1.375877,22.222169,0.378617,-0.147795,-0.142162,0.000000,0.146972,-0.019387,0.000000
1.070000,-2.240557,-0.450545,-1.471527,1.071997,-0.539445,0.068549,1.322518,-1.372719,0.582281,-0.145836,1.955229,2.217351,-1.216014,22.244955,-0.291798,-0.146205,-0.142351,0.000000,0.171035,-0.018065,-0.000000
1.080000,-2.229771,-0.456008,-1.470813,1.085215,-0.553074,0.074482,1.320996,-1.352056,0.604441,-0.156570,2.178149,2.210828,-0.926209,22.292534,-1.027438,-0.144373,-0.142527,0.000000,0.195521,-0.016925,-0.000000
1.090000,-2.218853,-0.461607,-1.470038,1.098417,-0.566486,0.080638,1.319387,-1.329156,0.626497,-0.164360,2.401080,2.196802,-0.743394,22.169273,-1.755304,-0.142294,-0.142693,0.000000,0.220338,-0.015974,-0.000000
1.100000,-2.207803,-0.467338,-1.469200,1.111603,-0.579657,0.087012,1.317708,-1.304035,0.648377,-0.171438,2.621534,2.175722,-0.642202,22.015595,-2.446009,-0.139966,-0.142849,0.000000,0.245210,-0.014983,-0.000000
1.110000,-2.196621,-0.473200,-1.468297,1.124772,-0.592567,0.093605,1.315958,-1.276725,0.670012,-0.177204,2.841392,2.147882,-0.469610,21.945051,-3.146335,-0.137389,-0.142995,0.000000,0.270325,-0.014020,0.000000
1.120000,-2.185307,-0.479189,-1.467328,1.137922,-0.605192,0.100413,1.314164,-1.247207,0.691335,-0.180830,3.060435,2.112795,-0.355968,21.497254,-3.930130,-0.134558,-0.143133,0.000000,0.295665,-0.013165,-0.000000
1.130000,-2.173863,-0.485304,-1.466289,1.151055,-0.617511,0.107432,1.312342,-1.215516,0.712268,-0.184324,3.271337,2.069280,-0.368457,20.611126,-4.782212,-0.131475,-0.143261,0.000000,0.320447,-0.012187,-0.000000
1.140000,-2.162286,-0.491539,-1.465179,1.164169,-0.629502,0.114658,1.310478,-1.181780,0.732720,-0.188200,3.472658,2.017151,-0.316527,19.927710,-5.598396,-0.128149,-0.143378,0.000000,0.344493,-0.011026,0.000000
1.150000,-2.150579,-0.497894,-1.463996,1.177264,-0.641146,0.122086,1.308578,-1.146063,0.752611,-0.190654,3.669891,1.957312,-0.132470,19.523765,-6.354615,-0.124585,-0.143483,0.000000,0.368358,-0.009887,-0.000000
1.160000,-2.138741,-0.504362,-1.462737,1.190341,-0.652423,0.129710,1.306665,-1.108383,0.771866,-0.190849,3.863133,1.890059,0.046788,18.963534,-7.116579,-0.120781,-0.143578,0.000000,0.392028,-0.008865,-0.000000
1.170000,-2.126772,-0.510942,-1.461402,1.203398,-0.663314,0.137523,1.304761,-1.068801,0.790412,-0.189719,4.049162,1.814980,0.085719,18.189093,-7.925207,-0.116744,-0.143662,0.000000,0.415130,-0.007856,0.000000
1.180000,-2.114673,-0.517629,-1.459987,1.216436,-0.673799,0.145518,1.302870,-1.027399,0.808166,-0.189135,4.226915,1.731555,0.031985,17.361560,-8.751744,-0.112479,-0.143736,0.000000,0.437519,-0.006647,-0.000000
1.190000,-2.102444,-0.524418,-1.458491,1.229455,-0.683862,0.153687,1.300978,-0.984262,0.825043,-0.189079,4.396393,1.639945,0.057948,16.525156,-9.537989,-0.107993,-0.143796,0.000000,0.459154,-0.005243,0.000000
1.200000,-2.090084,-0.531306,-1.456913,1.242455,-0.693485,0.162019,1.299089,-0.939471,0.840965,-0.187976,4.557418,1.540795,0.137463,15.615373,-10.295987,-0.103295,-0.143841,0.000000,0.479972,-0.003823,0.000000
1.210000,-2.077594,-0.538288,-1.455251,1.255437,-0.702651,0.170506,1.297219,-0.893114,0.855859,-0.186330,4.708700,1.434025,0.159357,14.617512,-11.056105,-0.098394,-0.143873,0.000000,0.499790,-0.002332,0.000000
1.220000,-2.064975,-0.545359,-1.453503,1.268400,-0.711347,0.179136,1.295362,-0.845297,0.869645,-0.184789,4.849768,1.319673,0.220953,13.677922,-11.765342,-0.093300,-0.143888,0.000000,0.518510,-0.000700,-0.000000
1.230000,-2.052226,-0.552515,-1.451668,1.281344,-0.719557,0.187899,1.293523,-0.796119,0.882252,-0.181911,4.982259,1.198719,0.363567,12.796266,-12.405582,-0.088024,-0.143887,0.000000,0.536260,0.000899,-0.000000
1.240000,-2.039348,-0.559750,-1.449745,1.294270,-0.727269,0.196782,1.291724,-0.745652,0.893620,-0.177517,5.105693,1.071561,0.444872,11.780054,-13.043844,-0.082575,-0.143870,0.000000,0.552940,0.002439,-0.000000
1.250000,-2.026341,-0.567060,-1.447733,1.307179,-0.734470,0.205771,1.289972,-0.694005,0.903683,-0.173013,5.217860,0.937842,0.461486,10.718318,-13.687411,-0.076966,-0.143838,0.000000,0.568265,0.004076,-0.000000
1.260000,-2.013205,-0.574439,-1.445630,1.320070,-0.741149,0.214855,1.288264,-0.641295,0.912377,-0.168287,5.320060,0.797813,0.510519,9.737236,-14.283979,-0.071210,-0.143788,0.000000,0.582330,0.005795,-0.000000
1.270000,-1.999940,-0.581883,-1.443435,1.332944,-0.747296,0.224019,1.286607,-0.587603,0.919640,-0.162803,5.412604,0.652162,0.554880,8.543106,-14.818692,-0.065320,-0.143721,0.000000,0.595124,0.007522,0.000000
1.280000,-1.986546,-0.589385,-1.441149,1.345802,-0.752901,0.233248,1.285008,-0.533043,0.925420,-0.157190,5.490922,0.501439,0.560198,7.092709,-15.299436,-0.059309,-0.143637,0.000000,0.606095,0.009318,0.000000
1.290000,-1.973024,-0.596941,-1.438770,1.358644,-0.757957,0.242527,1.283463,-0.477785,0.929669,-0.151599,5.554459,0.346173,0.586335,5.807746,-15.735446,-0.053199,-0.143535,0.000000,0.615140,0.011187,0.000000
1.300000,-1.959373,-0.604545,-1.436299,1.371471,-0.762457,0.251841,1.281976,-0.421954,0.932343,-0.145463,5.607077,0.186730,0.635612,4.680152,-16.162120,-0.047007,-0.143413,0.000000,0.622654,0.013061,0.000000
1.310000,-1.945594,-0.612190,-1.433734,1.384284,-0.766396,0.261174,1.280554,-0.365644,0.933403,-0.138887,5.648062,0.022931,0.667133,3.434983,-16.565220,-0.040747,-0.143273,0.000000,0.628529,0.014950,-0.000000
1.320000,-1.931687,-0.619872,-1.431075,1.397082,-0.769770,0.270509,1.279198,-0.308993,0.932802,-0.132120,5.675776,-0.144574,0.701807,2.225156,-16.825502,-0.034438,-0.143114,0.000000,0.632556,0.016869,0.000000
1.330000,-1.917653,-0.627586,-1.428323,1.409867,-0.772576,0.279830,1.277911,-0.252128,0.930512,-0.124850,5.692565,-0.313579,0.755564,1.161130,-16.932289,-0.028097,-0.142936,0.000000,0.634969,0.018747,0.000000
1.340000,-1.903490,-0.635324,-1.425479,1.422640,-0.774813,0.289120,1.276701,-0.195141,0.926530,-0.117009,5.698999,-0.483220,0.796127,0.018186,-17.044710,-0.021740,-0.142739,0.000000,0.635822,0.020559,-0.000000
1.350000,-1.889200,-0.643082,-1.422541,1.435402,-0.776479,0.298361,1.275571,-0.138148,0.920847,-0.108928,5.692928,-0.654473,0.815108,-1.245067,-17.231775,-0.015382,-0.142525,0.000000,0.634875,0.022356,0.000000
1.360000,-1.874782,-0.650854,-1.419511,1.448152,-0.777576,0.307537,1.274522,-0.081283,0.913441,-0.100707,5.674098,-0.827855,0.835377,-2.464306,-17.378221,-0.009044,-0.142292,0.000000,0.632098,0.024154,0.000000
1.370000,-1.860237,-0.658633,-1.416390,1.460892,-0.778104,0.316630,1.273557,-0.024666,0.904290,-0.092220,5.643642,-1.002038,0.868385,-3.593504,-17.312519,-0.002742,-0.142041,0.000000,0.627622,0.025915,-0.000000
1.380000,-1.845564,-0.666416,-1.413179,1.473623,-0.778069,0.325622,1.272678,0.031590,0.893400,-0.083339,5.602228,-1.174106,0.906004,-4.684248,-17.067213,0.003507,-0.141774,0.000000,0.621533,0.027579,-0.000000
1.390000,-1.830764,-0.674195,-1.409878,1.486346,-0.777473,0.334498,1.271890,0.087378,0.880808,-0.074100,5.549957,-1.343382,0.934610,-5.776211,-16.867138,0.009688,-0.141490,0.000000,0.613866,0.029136,-0.000000
1.400000,-1.815837,-0.681965,-1.406489,1.499061,-0.776321,0.343239,1.271196,0.142589,0.866532,-0.064647,5.486703,-1.511449,0.957248,-6.859701,-16.733284,0.015783,-0.141191,0.000000,0.604633,0.030627,0.000000
1.410000,-1.800783,-0.689721,-1.403013,1.511769,-0.774621,0.351828,1.270597,0.197113,0.850579,-0.054955,5.412763,-1.678048,0.982422,-7.904481,-16.515256,0.021779,-0.140877,0.000000,0.593894,0.032043,-0.000000
1.420000,-1.785602,-0.697457,-1.399452,1.524473,-0.772379,0.360250,1.270097,0.250845,0.832972,-0.044999,5.328614,-1.841754,1.001144,-8.912527,-16.189146,0.027660,-0.140550,0.000000,0.581739,0.033359,0.000000
1.430000,-1.770294,-0.705169,-1.395808,1.537171,-0.769604,0.368488,1.269697,0.303685,0.813744,-0.034932,5.234513,-2.001830,1.012365,-9.887748,-15.805550,0.033413,-0.140210,0.000000,0.568235,0.034580,0.000000
1.440000,-1.754858,-0.712850,-1.392083,1.549867,-0.766305,0.376525,1.269398,0.355535,0.792935,-0.024751,5.130859,-2.157865,1.028444,-10.818032,-15.387503,0.039024,-0.139858,0.000000,0.553470,0.035699,0.000000
1.450000,-1.739296,-0.720495,-1.388278,1.562559,-0.762493,0.384346,1.269202,0.406302,0.770587,-0.014363,5.018152,-2.309580,1.033187,-11.715721,-14.952617,0.044482,-0.139496,0.000000,0.537541,0.036703,0.000000
1.460000,-1.723607,-0.728099,-1.384396,1.575251,-0.758179,0.391937,1.269111,0.455898,0.746743,-0.004088,4.896544,-2.456917,1.019228,-12.582620,-14.488375,0.049775,-0.139124,0.000000,0.520510,0.037625,0.000000
1.470000,-1.707791,-0.735658,-1.380439,1.587942,-0.753375,0.399281,1.269120,0.504233,0.721448,0.006021,4.766500,-2.599348,1.036612,-13.364340,-13.934161,0.054892,-0.138742,0.000000,0.502475,0.038466,-0.000000
1.480000,-1.691848,-0.743167,-1.376410,1.600633,-0.748095,0.406366,1.269231,0.551228,0.694756,0.016645,4.629258,-2.735600,1.087968,-14.042645,-13.293746,0.059824,-0.138353,0.000000,0.483623,0.039132,-0.000000
1.490000,-1.675779,-0.750620,-1.372312,1.613326,-0.742351,0.413176,1.269453,0.596818,0.666736,0.027780,4.485647,-2.865223,1.103455,-14.689119,-12.654570,0.064564,-0.137958,0.000000,0.464090,0.039622,0.000000
1.500000,-1.659582,-0.758014,-1.368146,1.626022,-0.736158,0.419700,1.269787,0.640941,0.637452,0.038714,4.335475,-2.988692,1.086211,-15.394193,-12.033258,0.069106,-0.137559,0.000000,0.443898,0.040021,-0.000000
1.510000,-1.643258,-0.765343,-1.363918,1.638722,-0.729532,0.425925,1.270228,0.683528,0.606962,0.049505,4.177763,-3.105888,1.081791,-16.098309,-11.374365,0.073442,-0.137156,0.000000,0.422982,0.040322,0.000000
1.520000,-1.626807,-0.772605,-1.359628,1.651427,-0.722488,0.431840,1.270777,0.724496,0.575334,0.060349,4.013509,-3.216179,1.062249,-16.548677,-10.656659,0.077566,-0.136751,0.000000,0.401497,0.040499,0.000000
1.530000,-1.610230,-0.779793,-1.355281,1.664137,-0.715042,0.437432,1.271435,0.763798,0.542639,0.070750,3.846789,-3.319021,1.008238,-16.761026,-9.901362,0.081472,-0.136344,0.000000,0.379918,0.040599,-0.000000
1.540000,-1.593525,-0.786905,-1.350879,1.676855,-0.707212,0.442692,1.272192,0.801432,0.508954,0.080514,3.678288,-3.414206,0.961361,-17.074448,-9.139479,0.085164,-0.135936,0.000000,0.358349,0.040641,0.000000
1.550000,-1.576693,-0.793937,-1.346427,1.689581,-0.699013,0.447611,1.273045,0.837363,0.474355,0.089977,3.505301,-3.501811,0.938279,-17.476237,-8.382098,0.088640,-0.135528,0.000000,0.336531,0.040594,-0.000000
1.560000,-1.559733,-0.800886,-1.341927,1.702316,-0.690464,0.452180,1.273992,0.871538,0.438917,0.099280,3.328764,-3.581848,0.908493,-17.741273,-7.613401,0.091896,-0.135121,0.000000,0.314592,0.040447,-0.000000
1.570000,-1.542646,-0.807747,-1.337383,1.715061,-0.681583,0.456390,1.275030,0.903939,0.402718,0.108147,3.150475,-3.654079,0.837915,-17.975931,-6.811579,0.094932,-0.134716,0.000000,0.292745,0.040226,-0.000000
1.580000,-1.525432,-0.814517,-1.332799,1.727817,-0.672386,0.460234,1.276155,0.934547,0.365836,0.116038,2.969245,-3.718080,0.736081,-18.263528,-5.987347,0.097751,-0.134313,0.000000,0.270889,0.039986,0.000000
1.590000,-1.508090,-0.821194,-1.328179,1.740584,-0.662892,0.463706,1.277351,0.963324,0.328356,0.122868,2.785205,-3.773826,0.646538,-18.438907,-5.176336,0.100351,-0.133912,0.000000,0.249058,0.039735,0.000000
1.600000,-1.490620,-0.827775,-1.323525,1.753364,-0.653119,0.466801,1.278612,0.990251,0.290359,0.128969,2.600467,-3.821606,0.568956,-18.480914,-4.371296,0.102733,-0.133514,0.000000,0.227481,0.039447,0.000000
1.610000,-1.473023,-0.834257,-1.318843,1.766156,-0.643087,0.469513,1.279931,1.015333,0.251924,0.134247,2.415586,-3.861252,0.474409,-18.504768,-3.555056,0.104901,-0.133119,0.000000,0.206226,0.039130,-0.000000
1.620000,-1.455297,-0.840637,-1.314135,1.778962,-0.632813,0.471840,1.281297,1.038563,0.213134,0.138457,2.230372,-3.892708,0.369254,-18.503718,-2.766634,0.106859,-0.132727,0.000000,0.185279,0.038810,-0.000000
1.630000,-1.437443,-0.846913,-1.309406,1.791782,-0.622315,0.473776,1.282700,1.059940,0.174070,0.141633,2.045512,-3.916584,0.262031,-18.426158,-2.022373,0.108608,-0.132338,0.000000,0.164709,0.038493,0.000000
1.640000,-1.419461,-0.853083,-1.304659,1.804616,-0.611614,0.475321,1.284129,1.079473,0.134803,0.143698,1.861848,-3.933155,0.142032,-18.295110,-1.273340,0.110154,-0.131953,0.000000,0.144596,0.038193,0.000000
1.650000,-1.401351,-0.859145,-1.299899,1.817465,-0.600726,0.476472,1.285574,1.097177,0.095407,0.144473,1.679610,-3.942051,0.021154,-18.198266,-0.483658,0.111501,-0.131570,0.000000,0.124966,0.037922,0.000000
1.660000,-1.383112,-0.865098,-1.295130,1.830328,-0.589670,0.477229,1.287019,1.113066,0.055962,0.144121,1.497883,-3.942828,-0.093901,-18.112515,0.305459,0.112654,-0.131189,0.000000,0.105727,0.037661,-0.000000
1.670000,-1.364744,-0.870939,-1.290355,1.843205,-0.578465,0.477591,1.288456,1.127135,0.016550,0.142595,1.317359,-3.935942,-0.243583,-17.807201,0.993100,0.113616,-0.130812,0.000000,0.086939,0.037420,0.000000
1.680000,-1.346248,-0.876667,-1.285578,1.856097,-0.567128,0.477560,1.289871,1.139413,-0.022757,0.139249,1.141739,-3.922966,-0.430576,-17.289699,1.586455,0.114393,-0.130436,0.000000,0.068945,0.037284,-0.000000
1.690000,-1.327623,-0.882281,-1.280804,1.869003,-0.555676,0.477136,1.291241,1.149970,-0.061909,0.133984,0.971565,-3.904213,-0.598022,-16.877257,2.215276,0.114996,-0.130061,0.000000,0.051781,0.037268,-0.000000
1.700000,-1.308868,-0.887781,-1.276035,1.881922,-0.544128,0.476322,1.292551,1.158844,-0.100841,0.127289,0.804194,-3.878661,-0.746164,-16.556058,2.889996,0.115430,-0.129686,0.000000,0.035181,0.037308,0.000000
1.710000,-1.289984,-0.893164,-1.271277,1.894854,-0.532500,0.475119,1.293787,1.166054,-0.139482,0.119060,0.640444,-3.846413,-0.912338,-16.119320,3.519929,0.115700,-0.129310,0.000000,0.019212,0.037416,0.000000
1.720000,-1.270971,-0.898431,-1.266533,1.907798,-0.520807,0.473532,1.294932,1.171653,-0.177770,0.109042,0.481808,-3.808262,-1.080362,-15.684551,4.091962,0.115814,-0.128933,0.000000,0.003999,0.037627,0.000000
1.730000,-1.251828,-0.903580,-1.261807,1.920752,-0.509066,0.471564,1.295968,1.175690,-0.215648,0.097453,0.326753,-3.764574,-1.235651,-15.331325,4.632834,0.115780,-0.128552,0.000000,-0.010630,0.037924,-0.000000
1.740000,-1.232556,-0.908612,-1.257102,1.933717,-0.497293,0.469219,1.296881,1.178188,-0.253061,0.084329,0.175181,-3.715605,-1.402565,-14.885757,5.149767,0.115602,-0.128169,0.000000,-0.024700,0.038307,0.000000
1.750000,-1.213154,-0.913526,-1.252422,1.946690,-0.485503,0.466503,1.297654,1.179194,-0.289960,0.069402,0.029038,-3.661578,-1.585540,-14.332425,5.657687,0.115287,-0.127781,0.000000,-0.038039,0.038803,0.000000
1.760000,-1.193622,-0.918322,-1.247772,1.959670,-0.473709,0.463420,1.298269,1.178769,-0.326293,0.052618,-0.111467,-3.602452,-1.766662,-13.795385,6.149253,0.114842,-0.127388,0.000000,-0.050643,0.039417,0.000000
1.770000,-1.173960,-0.923000,-1.243154,1.972655,-0.461927,0.459977,1.298707,1.176964,-0.362009,0.034069,-0.246870,-3.538593,-1.942000,-13.259804,6.565976,0.114274,-0.126988,0.000000,-0.062585,0.040143,-0.000000
1.780000,-1.154169,-0.927560,-1.238572,1.985644,-0.450170,0.456180,1.298950,1.173831,-0.397065,0.013778,-0.376663,-3.471132,-2.116931,-12.685231,6.905482,0.113591,-0.126580,0.000000,-0.073843,0.040994,0.000000
1.790000,-1.134248,-0.932003,-1.234030,1.998634,-0.438451,0.452036,1.298982,1.169431,-0.431431,-0.008270,-0.500574,-3.400484,-2.294264,-12.108200,7.246120,0.112798,-0.126162,0.000000,-0.084411,0.041973,0.000000
1.800000,-1.114196,-0.936330,-1.229531,2.011624,-0.426781,0.447551,1.298785,1.163820,-0.465074,-0.032107,-0.618827,-3.326210,-2.474472,-11.532751,7.605398,0.111903,-0.125735,0.000000,-0.094321,0.043079,-0.000000
1.810000,-1.094015,-0.940539,-1.225079,2.024610,-0.415174,0.442734,1.298340,1.157054,-0.497955,-0.057759,-0.731229,-3.248376,-2.655070,-10.936681,7.928532,0.110912,-0.125295,0.000000,-0.103568,0.044315,-0.000000
1.820000,-1.073704,-0.944633,-1.220677,2.037591,-0.403640,0.437592,1.297630,1.149195,-0.530042,-0.085209,-0.837561,-3.167639,-2.831384,-10.341512,8.179810,0.109832,-0.124843,0.000000,-0.112154,0.045685,0.000000
1.830000,-1.053263,-0.948612,-1.216327,2.050563,-0.392190,0.432133,1.296636,1.140303,-0.561308,-0.114387,-0.938060,-3.084780,-3.003157,-9.759753,8.375459,0.108669,-0.124376,0.000000,-0.120121,0.047193,0.000000
1.840000,-1.032693,-0.952477,-1.212034,2.063523,-0.380834,0.426366,1.295342,1.130434,-0.591737,-0.145272,-1.032756,-3.000130,-3.175878,-9.164148,8.559775,0.107429,-0.123893,0.000000,-0.127489,0.048839,-0.000000
1.850000,-1.011993,-0.956229,-1.207800,2.076470,-0.369582,0.420299,1.293730,1.119648,-0.621311,-0.177905,-1.121342,-2.913584,-3.352880,-8.545008,8.745156,0.106119,-0.123394,0.000000,-0.134237,0.050627,0.000000
1.860000,-0.991163,-0.959868,-1.203628,2.089398,-0.358441,0.413940,1.291784,1.108007,-0.650009,-0.212329,-1.203656,-2.825227,-3.529628,-7.925065,8.901678,0.104745,-0.122875,0.000000,-0.140362,0.052560,0.000000
1.870000,-0.970205,-0.963397,-1.199521,2.102305,-0.347422,0.407298,1.289484,1.095575,-0.677815,-0.248497,-1.279844,-2.735551,-3.696254,-7.329999,8.996394,0.103312,-0.122337,0.000000,-0.145894,0.054640,-0.000000
1.880000,-0.949117,-0.966817,-1.195482,2.115188,-0.336530,0.400384,1.286814,1.082410,-0.704720,-0.286254,-1.350256,-2.645299,-3.853476,-6.756677,9.038167,0.101827,-0.121777,0.000000,-0.150881,0.056861,-0.000000
1.890000,-0.927901,-0.970128,-1.191513,2.128041,-0.325773,0.393204,1.283759,1.068570,-0.730721,-0.325567,-1.414977,-2.554787,-4.013880,-6.175466,9.070967,0.100294,-0.121194,0.000000,-0.155342,0.059223,-0.000000
1.900000,-0.906556,-0.973332,-1.187618,2.140863,-0.315158,0.385769,1.280302,1.054111,-0.755816,-0.366532,-1.473766,-2.463880,-4.179284,-5.574692,9.104896,0.098720,-0.120586,0.000000,-0.159261,0.061734,-0.000000
1.910000,-0.885084,-0.976431,-1.183798,2.153648,-0.304691,0.378088,1.276428,1.039094,-0.779999,-0.409152,-1.526471,-2.372689,-4.340756,-4.977763,9.111159,0.097109,-0.119953,0.000000,-0.162630,0.064396,-0.000000
1.920000,-0.863483,-0.979426,-1.180056,2.166391,-0.294377,0.370169,1.272119,1.023581,-0.803270,-0.453347,-1.573321,-2.281656,-4.494570,-4.420639,9.068789,0.095467,-0.119292,0.000000,-0.165481,0.067206,0.000000
1.930000,-0.841756,-0.982319,-1.176395,2.179090,-0.284219,0.362022,1.267361,1.007628,-0.825632,-0.499044,-1.614884,-2.191313,-4.644020,-3.900206,8.988341,0.093799,-0.118603,0.000000,-0.167878,0.070163,-0.000000
1.940000,-0.819902,-0.985111,-1.172816,2.191739,-0.274224,0.353656,1.262139,0.991284,-0.847096,-0.546228,-1.651325,-2.101890,-4.792915,-3.371573,8.898223,0.092109,-0.117883,0.000000,-0.169839,0.073269,-0.000000
1.950000,-0.797921,-0.987803,-1.169322,2.204333,-0.264394,0.345080,1.256437,0.974602,-0.867670,-0.594902,-1.682315,-2.013349,-4.937279,-2.818274,8.800115,0.090402,-0.117131,0.000000,-0.171340,0.076524,0.000000
1.960000,-0.775815,-0.990398,-1.165914,2.216867,-0.254732,0.336303,1.250241,0.957637,-0.887363,-0.644973,-1.707690,-1.925887,-5.074715,-2.273442,8.676958,0.088682,-0.116346,0.000000,-0.172369,0.079923,0.000000
1.970000,-0.753584,-0.992898,-1.162596,2.229338,-0.245241,0.327333,1.243537,0.940448,-0.906188,-0.696396,-1.727784,-1.839810,-5.215823,-1.781574,8.530029,0.086955,-0.115526,0.000000,-0.172961,0.083464,-0.000000
1.980000,-0.731228,-0.995303,-1.159368,2.241738,-0.235923,0.318179,1.236313,0.923082,-0.924159,-0.749290,-1.743322,-1.755287,-5.361343,-1.333903,8.366341,0.085223,-0.114670,0.000000,-0.173187,0.087160,-0.000000
1.990000,-0.708749,-0.997616,-1.156232,2.254064,-0.226779,0.308850,1.228551,0.905581,-0.941293,-0.803623,-1.754462,-1.672483,-5.496100,-0.873763,8.185437,0.083491,-0.113777,0.000000,-0.173064,0.091012,0.000000
2.000000,-0.686147,-0.999839,-1.153191,2.266309,-0.217811,0.299353,1.220240,0.887993,-0.957609,-0.859212,-1.760797,-1.591578,-5.620206,-0.396525,7.991248,0.081762,-0.112844,0.000000,-0.172556,0.095004,0.000000
2.010000,-0.663423,-1.001973,-1.150245,2.278469,-0.209020,0.289698,1.211367,0.870365,-0.973125,-0.916027,-1.762393,-1.512658,-5.743425,0.058932,7.785978,0.080040,-0.111870,0.000000,-0.171670,0.099136,-0.000000
2.020000,-0.640578,-1.004019,-1.147397,2.290536,-0.200404,0.279891,1.201920,0.852745,-0.987862,-0.974080,-1.759619,-1.435858,-5.860867,0.485821,7.560048,0.078328,-0.110855,0.000000,-0.170441,0.103409,-0.000000
2.030000,-0.617612,-1.005981,-1.144647,2.302507,-0.191965,0.269941,1.191886,0.835173,-1.001842,-1.033245,-1.752676,-1.361457,-5.968158,0.896590,7.313775,0.076631,-0.109796,0.000000,-0.168889,0.107816,0.000000
2.040000,-0.594527,-1.007859,-1.141998,2.314374,-0.183701,0.259854,1.181255,0.817691,-1.015091,-1.093443,-1.741687,-1.289583,-6.072424,1.296568,7.063429,0.074950,-0.108692,0.000000,-0.167025,0.112352,-0.000000
2.050000,-0.571325,-1.009655,-1.139450,2.326132,-0.175611,0.249639,1.170017,0.800339,-1.027634,-1.154693,-1.726745,-1.220189,-6.177831,1.688322,6.812997,0.073290,-0.107542,0.000000,-0.164856,0.117017,0.000000
2.060000,-0.548005,-1.011371,-1.137005,2.337774,-0.167694,0.239301,1.158161,0.783156,-1.039495,-1.217000,-1.707920,-1.153323,-6.278822,2.068147,6.553549,0.071653,-0.106345,0.000000,-0.162388,0.121814,0.000000
2.070000,-0.524569,-1.013009,-1.134664,2.349295,-0.159948,0.228849,1.145677,0.766181,-1.050700,-1.280270,-1.685382,-1.089118,-6.365628,2.423788,6.282246,0.070042,-0.105100,0.000000,-0.159635,0.126734,0.000000
2.080000,-0.501019,-1.014570,-1.132428,2.360688,-0.152370,0.218287,1.132555,0.749449,-1.061277,-1.344312,-1.659445,-1.027678,-6.439627,2.754653,6.004751,0.068460,-0.103804,0.000000,-0.156625,0.131763,-0.000000
2.090000,-0.477355,-1.016056,-1.130298,2.371946,-0.144959,0.207623,1.118790,0.732992,-1.071254,-1.409062,-1.630289,-0.969023,-6.513316,3.077385,5.727032,0.066910,-0.102458,0.000000,-0.153373,0.136893,0.000000
2.100000,-0.453580,-1.017469,-1.128276,2.383064,-0.137710,0.196862,1.104374,0.716843,-1.080658,-1.474579,-1.597897,-0.913137,-6.587452,3.402727,5.444212,0.065393,-0.101060,0.000000,-0.149875,0.142132,0.000000
2.110000,-0.429694,-1.018810,-1.126361,2.394034,-0.130622,0.186010,1.089299,0.701034,-1.089517,-1.540811,-1.562234,-0.860138,-6.653487,3.718723,5.155208,0.063912,-0.099609,0.000000,-0.146127,0.147474,0.000000
2.120000,-0.405699,-1.020081,-1.124555,2.404850,-0.123690,0.175072,1.073558,0.685598,-1.097860,-1.607648,-1.523522,-0.810033,-6.710866,3.997660,4.879084,0.062470,-0.098105,0.000000,-0.142146,0.152910,-0.000000
2.130000,-0.381597,-1.021284,-1.122860,2.415505,-0.116910,0.164053,1.057146,0.670564,-1.105717,-1.675029,-1.482281,-0.762557,-6.762076,4.243417,4.619022,0.061069,-0.096545,0.000000,-0.137977,0.158432,-0.000000
2.140000,-0.357389,-1.022420,-1.121274,2.425993,-0.110278,0.152958,1.040057,0.655953,-1.113112,-1.742890,-1.438654,-0.717653,-6.807067,4.493402,4.351558,0.059710,-0.094930,0.000000,-0.133629,0.164033,-0.000000
2.150000,-0.333077,-1.023489,-1.119800,2.436306,-0.103791,0.141791,1.022288,0.641790,-1.120070,-1.811170,-1.392413,-0.675525,-6.848208,4.747203,4.072901,0.058396,-0.093259,0.000000,-0.129082,0.169709,-0.000000
2.160000,-0.308663,-1.024495,-1.118438,2.446438,-0.097443,0.130556,1.003834,0.628104,-1.126622,-1.879854,-1.343710,-0.636195,-6.885322,4.980493,3.801249,0.057129,-0.091530,0.000000,-0.124347,0.175458,-0.000000
2.170000,-0.284149,-1.025438,-1.117189,2.456383,-0.091229,0.119258,0.984691,0.614916,-1.132794,-1.948876,-1.292803,-0.599500,-6.910225,5.202506,3.546297,0.055909,-0.089744,0.000000,-0.119444,0.181273,0.000000
2.180000,-0.259535,-1.026320,-1.116053,2.466132,-0.085144,0.107900,0.964856,0.602248,-1.138612,-2.018059,-1.239660,-0.565269,-6.922425,5.422493,3.303627,0.054740,-0.087899,0.000000,-0.114369,0.187135,-0.000000
2.190000,-0.234826,-1.027141,-1.115031,2.475680,-0.079184,0.096486,0.944330,0.590123,-1.144100,-2.087325,-1.184354,-0.533428,-6.933233,5.626498,3.064037,0.053622,-0.085995,0.000000,-0.109125,0.193035,0.000000
2.200000,-0.210022,-1.027904,-1.114124,2.485019,-0.073342,0.085018,0.923110,0.578561,-1.149281,-2.156723,-1.127130,-0.503988,-6.945413,5.813494,2.827182,0.052557,-0.084033,0.000000,-0.103733,0.198979,-0.000000
2.210000,-0.185126,-1.028608,-1.113331,2.494142,-0.067613,0.073500,0.901195,0.567580,-1.154179,-2.226233,-1.068084,-0.476884,-6.951231,5.993815,2.600910,0.051547,-0.082010,0.000000,-0.098201,0.204962,-0.000000
2.220000,-0.160139,-1.029256,-1.112654,2.503043,-0.061990,0.061935,0.878585,0.557199,-1.158818,-2.295748,-1.007254,-0.451970,-6.945433,6.165276,2.390357,0.050593,-0.079928,0.000000,-0.092528,0.210973,-0.000000
2.230000,-0.135065,-1.029848,-1.112092,2.511714,-0.056469,0.050324,0.855280,0.547435,-1.163219,-2.365142,-0.944778,-0.429077,-6.930682,6.324596,2.194379,0.049697,-0.077785,0.000000,-0.086726,0.216997,0.000000
2.240000,-0.109905,-1.030385,-1.111647,2.520148,-0.051042,0.038670,0.831282,0.538304,-1.167400,-2.434362,-0.880762,-0.408082,-6.913743,6.476592,2.008819,0.048859,-0.075582,0.000000,-0.080803,0.223029,-0.000000
2.250000,-0.084662,-1.030869,-1.111319,2.528340,-0.045703,0.026976,0.806593,0.529820,-1.171380,-2.503417,-0.815246,-0.388901,-6.894831,6.622865,1.833683,0.048080,-0.073319,0.000000,-0.074760,0.229068,0.000000
2.260000,-0.059338,-1.031299,-1.111108,2.536280,-0.040445,0.015243,0.781214,0.521999,-1.175178,-2.572258,-0.748304,-0.371409,-6.869698,6.760629,1.673352,0.047363,-0.070996,0.000000,-0.068603,0.235107,-0.000000
2.270000,-0.033936,-1.031678,-1.111014,2.543964,-0.035263,0.003472,0.755148,0.514854,-1.178809,-2.640811,-0.680034,-0.355434,-6.838711,6.889183,1.531338,0.046708,-0.068612,0.000000,-0.062339,0.241138,0.000000
2.280000,-0.008459,-1.032005,-1.111038,2.551383,-0.030148,-0.008333,0.728398,0.508398,-1.182287,-2.709032,-0.610521,-0.340782,-6.803830,7.011012,1.408147,0.046117,-0.066168,0.000000,-0.055974,0.247153,0.000000
2.290000,0.017092,-1.032281,-1.111181,2.558532,-0.025095,-0.020173,0.700967,0.502644,-1.185624,-2.776887,-0.539813,-0.327271,-6.764461,7.127457,1.301251,0.045589,-0.063664,0.000000,-0.049512,0.253149,0.000000
2.300000,0.042712,-1.032506,-1.111442,2.565403,-0.020095,-0.032046,0.672860,0.497602,-1.188832,-2.844322,-0.467972,-0.314757,-6.718562,7.231322,1.206285,0.045126,-0.061099,0.000000,-0.042956,0.259118,-0.000000
2.310000,0.068400,-1.032682,-1.111821,2.571989,-0.015143,-0.043950,0.644081,0.493284,-1.191919,-2.911258,-0.395187,-0.303145,-6.666998,7.322974,1.126816,0.044730,-0.058476,0.000000,-0.036324,0.265052,0.000000
2.320000,0.094152,-1.032809,-1.112321,2.578284,-0.010230,-0.055884,0.614635,0.489698,-1.194895,-2.977662,-0.321512,-0.292221,-6.615555,7.424516,1.078695,0.044400,-0.055793,0.000000,-0.029618,0.270946,0.000000
2.330000,0.119965,-1.032887,-1.112939,2.584282,-0.005349,-0.067848,0.584528,0.486854,-1.197764,-3.043570,-0.246697,-0.281571,-6.564790,7.537745,1.063678,0.044137,-0.053052,0.000000,-0.022815,0.276800,0.000000
2.340000,0.145837,-1.032916,-1.113678,2.589975,-0.000492,-0.079839,0.553764,0.484764,-1.200526,-3.108957,-0.170757,-0.270947,-6.506976,7.632675,1.061734,0.043943,-0.050252,0.000000,-0.015915,0.282611,0.000000
2.350000,0.171765,-1.032897,-1.114536,2.595357,0.004347,-0.091858,0.522349,0.483439,-1.203183,-3.173709,-0.094043,-0.260337,-6.437994,7.701310,1.061776,0.043819,-0.047394,0.000000,-0.008949,0.288368,0.000000
2.360000,0.197745,-1.032829,-1.115515,2.600422,0.009176,-0.103903,0.490289,0.482883,-1.205733,-3.237717,-0.016731,-0.249711,-6.363484,7.764635,1.079298,0.043764,-0.044479,0.000000,-0.001933,0.294062,-0.000000
2.370000,0.223773,-1.032713,-1.116614,2.605163,0.014004,-0.115973,0.457594,0.483104,-1.208177,-3.300979,0.061250,-0.238751,-6.294086,7.839565,1.144831,0.043780,-0.041507,0.000000,0.005141,0.299689,-0.000000
2.380000,0.249848,-1.032549,-1.117834,2.609574,0.018838,-0.128067,0.424270,0.484108,-1.210508,-3.363599,0.140060,-0.226815,-6.228551,7.920232,1.256229,0.043867,-0.038479,0.000000,0.012289,0.305258,-0.000000
2.390000,0.275965,-1.032337,-1.119175,2.613648,0.023687,-0.140183,0.390322,0.485905,-1.212713,-3.425550,0.219654,-0.213626,-6.152634,7.984953,1.373518,0.044026,-0.035396,0.000000,0.019509,0.310767,-0.000000
2.400000,0.302121,-1.032075,-1.120638,2.617380,0.028557,-0.152321,0.355759,0.488502,-1.214781,-3.486652,0.299759,-0.199344,-6.063024,8.026134,1.483036,0.044257,-0.032258,0.000000,0.026774,0.316200,0.000000
2.410000,0.328312,-1.031765,-1.122222,2.620763,0.033457,-0.164479,0.320589,0.491901,-1.216700,-3.546810,0.380177,-0.183965,-5.969424,8.058457,1.613055,0.044562,-0.029066,0.000000,0.034069,0.321550,-0.000000
2.420000,0.354536,-1.031406,-1.123927,2.623792,0.038395,-0.176655,0.284823,0.496105,-1.218460,-3.606040,0.460928,-0.167083,-5.878837,8.101359,1.797195,0.044939,-0.025820,0.000000,0.041395,0.326819,-0.000000
2.430000,0.380788,-1.030998,-1.125755,2.626460,0.043379,-0.188848,0.248468,0.501119,-1.220042,-3.664387,0.542204,-0.148021,-5.788078,8.150806,2.027644,0.045389,-0.022523,0.000000,0.048774,0.332010,0.000000
2.440000,0.407065,-1.030539,-1.127704,2.628761,0.048417,-0.201056,0.211535,0.506949,-1.221420,-3.721802,0.623945,-0.126530,-5.687979,8.180412,2.260373,0.045914,-0.019173,0.000000,0.056202,0.337122,0.000000
2.450000,0.433363,-1.030029,-1.129776,2.630690,0.053518,-0.213276,0.174032,0.513598,-1.222572,-3.778147,0.705812,-0.102814,-5.577010,8.182360,2.486387,0.046514,-0.015773,0.000000,0.063647,0.342145,0.000000
2.460000,0.459679,-1.029468,-1.131970,2.632242,0.058689,-0.225507,0.135972,0.521065,-1.223477,-3.833342,0.787592,-0.076803,-5.461045,8.174028,2.735277,0.047187,-0.012323,0.000000,0.071092,0.347075,-0.000000
2.470000,0.486008,-1.028855,-1.134286,2.633410,0.063939,-0.237746,0.097365,0.529350,-1.224108,-3.887367,0.869293,-0.048108,-5.343121,8.172462,3.026149,0.047935,-0.008824,0.000000,0.078539,0.351911,-0.000000
2.480000,0.512347,-1.028190,-1.136725,2.634189,0.069276,-0.249989,0.058225,0.538451,-1.224439,-3.940204,0.951041,-0.016280,-5.221147,8.171968,3.349356,0.048758,-0.005277,0.000000,0.086002,0.356656,-0.000000
2.490000,0.538692,-1.027470,-1.139286,2.634574,0.074708,-0.262235,0.018561,0.548371,-1.224434,-3.991790,1.032732,0.018879,-5.090912,8.149072,3.680057,0.049655,-0.001682,0.000000,0.093476,0.361308,-0.000000
2.500000,0.565039,-1.026695,-1.141969,2.634560,0.080243,-0.274478,-0.021611,0.559106,-1.224061,-4.042023,1.114022,0.057321,-4.950962,8.097738,4.012549,0.050628,0.001959,0.000000,0.100930,0.365862,0.000000
2.510000,0.591383,-1.025865,-1.144775,2.634142,0.085890,-0.286716,-0.062279,0.570651,-1.223288,-4.090810,1.194687,0.099130,-4.803719,8.032722,4.362609,0.051674,0.005645,0.000000,0.108345,0.370314,0.000000
2.520000,0.617722,-1.024978,-1.147704,2.633315,0.091656,-0.298944,-0.103427,0.583000,-1.222079,-4.138097,1.274677,0.144574,-4.652388,7.965909,4.743064,0.052794,0.009375,0.000000,0.115721,0.374664,0.000000
2.530000,0.644050,-1.024032,-1.150754,2.632074,0.097550,-0.311157,-0.145041,0.596145,-1.220396,-4.183857,1.354005,0.193991,-4.496067,7.891606,5.148699,0.053988,0.013148,0.000000,0.123063,0.378915,0.000000
2.540000,0.670363,-1.023027,-1.153927,2.630414,0.103579,-0.323352,-0.187105,0.610080,-1.218199,-4.228018,1.432509,0.247548,-4.329855,7.792736,5.561341,0.055256,0.016964,0.000000,0.130359,0.383067,-0.000000
2.550000,0.696658,-1.021960,-1.157221,2.628332,0.109752,-0.335521,-0.229601,0.624795,-1.215445,-4.270455,1.509860,0.305218,-4.151621,7.666307,5.973436,0.056596,0.020822,0.000000,0.137583,0.387115,0.000000
2.560000,0.722930,-1.020832,-1.160637,2.625822,0.116075,-0.347661,-0.272514,0.640277,-1.212094,-4.311051,1.585835,0.367016,-3.964233,7.522181,6.396112,0.058007,0.024719,0.000000,0.144717,0.391053,0.000000
2.570000,0.749174,-1.019639,-1.164175,2.622881,0.122557,-0.359763,-0.315822,0.656512,-1.208105,-4.349739,1.660303,0.433140,-3.772014,7.363731,6.846303,0.059490,0.028656,0.000000,0.151755,0.394883,-0.000000
2.580000,0.775387,-1.018380,-1.167833,2.619506,0.129205,-0.371823,-0.359508,0.673483,-1.203432,-4.386491,1.733110,0.503942,-3.573746,7.185876,7.320733,0.061043,0.032631,0.000000,0.158687,0.398610,0.000000
2.590000,0.801564,-1.017055,-1.171611,2.615691,0.136027,-0.383832,-0.403552,0.691174,-1.198026,-4.421214,1.804021,0.579555,-3.362909,6.982604,7.794443,0.062664,0.036643,0.000000,0.165497,0.402233,-0.000000
2.600000,0.827701,-1.015660,-1.175509,2.611434,0.143029,-0.395783,-0.447933,0.709563,-1.191840,-4.453749,1.872762,0.659831,-3.138118,6.755781,8.255242,0.064353,0.040692,0.000000,0.172165,0.405745,-0.000000
2.610000,0.853793,-1.014194,-1.179527,2.606732,0.150218,-0.407669,-0.492627,0.728629,-1.184829,-4.483976,1.939137,0.744660,-2.903145,6.507313,8.718744,0.066107,0.044775,0.000000,0.178676,0.409142,0.000000
2.620000,0.879836,-1.012656,-1.183663,2.601582,0.157601,-0.419480,-0.537612,0.748346,-1.176947,-4.511812,2.002908,0.834206,-2.659581,6.228035,9.212132,0.067926,0.048893,0.000000,0.185014,0.412424,0.000000
2.630000,0.905825,-1.011042,-1.187916,2.595980,0.165185,-0.431208,-0.582863,0.768687,-1.168145,-4.537168,2.063697,0.928902,-2.405213,5.914491,9.731311,0.069808,0.053043,0.000000,0.191153,0.415594,0.000000
2.640000,0.931755,-1.009352,-1.192287,2.589925,0.172975,-0.442843,-0.628356,0.789620,-1.158369,-4.559916,2.121198,1.028832,-2.137338,5.577352,10.236591,0.071749,0.057225,0.000000,0.197071,0.418649,-0.000000
2.650000,0.957623,-1.007583,-1.196773,2.583413,0.180977,-0.454375,-0.674062,0.811111,-1.147569,-4.579915,2.175244,1.133634,-1.858607,5.224813,10.708152,0.073749,0.061438,0.000000,0.202756,0.421584,-0.000000
2.660000,0.983424,-1.005732,-1.201374,2.576443,0.189197,-0.465794,-0.719954,0.833125,-1.135697,-4.597089,2.225694,1.242995,-1.569883,4.847339,11.171320,0.075805,0.065680,0.000000,0.208199,0.424396,0.000000
2.670000,1.009152,-1.003799,-1.206089,2.569014,0.197640,-0.477089,-0.766004,0.855625,-1.122709,-4.611312,2.272191,1.357060,-1.261959,4.420429,11.671126,0.077913,0.069951,0.000000,0.213373,0.427085,0.000000
2.680000,1.034804,-1.001780,-1.210916,2.561123,0.206310,-0.488248,-0.812180,0.878569,-1.108555,-4.622328,2.314103,1.476418,-0.932723,3.943438,12.199678,0.080072,0.074249,0.000000,0.218231,0.429639,0.000000
2.690000,1.060375,-0.999673,-1.215854,2.552770,0.215211,-0.499260,-0.858450,0.901907,-1.093180,-4.629967,2.351060,1.601054,-0.594274,3.447820,12.692388,0.082278,0.078572,0.000000,0.222745,0.432051,0.000000
2.700000,1.085859,-0.997475,-1.220901,2.543954,0.224348,-0.510112,-0.904779,0.925590,-1.076534,-4.634213,2.383059,1.730266,-0.254545,2.949954,13.129471,0.084528,0.082919,0.000000,0.226916,0.434325,0.000000
2.710000,1.111254,-0.995186,-1.226056,2.534675,0.233723,-0.520791,-0.951134,0.949568,-1.058575,-4.635058,2.410059,1.863643,0.095761,2.426384,13.551675,0.086817,0.087290,0.000000,0.230741,0.436465,-0.000000
2.720000,1.136553,-0.992801,-1.231317,2.524932,0.243339,-0.531283,-0.997481,0.973791,-1.039261,-4.632298,2.431587,2.001299,0.477887,1.833122,13.997216,0.089143,0.091682,0.000000,0.234182,0.438460,-0.000000
2.730000,1.161752,-0.990319,-1.236682,2.514725,0.253199,-0.541576,-1.043780,0.998200,-1.018549,-4.625500,2.446721,2.143588,0.890934,1.173789,14.450144,0.091501,0.096095,0.000000,0.237165,0.440282,-0.000000
2.740000,1.186847,-0.987737,-1.242149,2.504056,0.263303,-0.551654,-1.089991,1.022726,-0.996390,-4.614479,2.455063,2.290302,1.306532,0.506710,14.855485,0.093886,0.100525,0.000000,0.239655,0.441921,0.000000
2.750000,1.211833,-0.985053,-1.247715,2.492925,0.273653,-0.561504,-1.136070,1.047301,-0.972743,-4.599369,2.456856,2.440697,1.712801,-0.145729,15.205382,0.096294,0.104973,0.000000,0.241672,0.443389,0.000000
2.760000,1.236706,-0.982264,-1.253379,2.481335,0.284249,-0.571109,-1.181978,1.071863,-0.947576,-4.580223,2.452148,2.594410,2.129682,-0.824288,15.531866,0.098720,0.109435,0.000000,0.243220,0.444695,-0.000000
2.770000,1.261460,-0.979368,-1.259137,2.469286,0.295091,-0.580455,-1.227674,1.096344,-0.920855,-4.556776,2.440370,2.751335,2.586517,-1.583991,15.840647,0.101159,0.113911,0.000000,0.244247,0.445819,0.000000
2.780000,1.286092,-0.976362,-1.264988,2.456781,0.306176,-0.589526,-1.273114,1.120670,-0.892549,-4.528493,2.420468,2.911223,3.078513,-2.415448,16.115111,0.103605,0.118398,0.000000,0.244658,0.446716,0.000000
2.790000,1.310596,-0.973244,-1.270928,2.443824,0.317504,-0.598306,-1.318244,1.144754,-0.862630,-4.495206,2.392061,3.073637,3.566247,-3.244756,16.343676,0.106052,0.122894,0.000000,0.244412,0.447370,0.000000
2.800000,1.334968,-0.970012,-1.276954,2.430416,0.329071,-0.606779,-1.363018,1.168511,-0.831076,-4.457168,2.355573,3.238096,4.036819,-4.041911,16.535799,0.108494,0.127396,0.000000,0.243543,0.447803,-0.000000
2.810000,1.359204,-0.966663,-1.283063,2.416563,0.340874,-0.614928,-1.407388,1.191865,-0.797868,-4.414469,2.311223,3.404353,4.516809,-4.857077,16.692667,0.110924,0.131904,0.000000,0.242066,0.448024,0.000000
2.820000,1.383299,-0.963194,-1.289253,2.402269,0.352909,-0.622736,-1.451307,1.214736,-0.762989,-4.366832,2.258432,3.571949,5.035917,-5.763157,16.777607,0.113335,0.136413,0.000000,0.239920,0.448003,0.000000
2.830000,1.407249,-0.959605,-1.295518,2.387537,0.365169,-0.630188,-1.494724,1.237034,-0.726429,-4.313751,2.195960,3.739905,5.586296,-6.746939,16.782071,0.115722,0.140922,0.000000,0.236976,0.447682,-0.000000
2.840000,1.431050,-0.955891,-1.301856,2.372374,0.377649,-0.637265,-1.537582,1.258655,-0.688191,-4.255106,2.123493,3.907591,6.127592,-7.708461,16.750562,0.118075,0.145428,0.000000,0.233189,0.447042,0.000000
2.850000,1.454697,-0.952052,-1.308263,2.356785,0.390342,-0.643951,-1.579826,1.279504,-0.648278,-4.191199,2.041790,4.074916,6.647632,-8.614087,16.705721,0.120386,0.149926,0.000000,0.228619,0.446106,0.000000
2.860000,1.478186,-0.948084,-1.314735,2.340778,0.403239,-0.650230,-1.621406,1.299491,-0.606693,-4.122153,1.951211,4.241705,7.172659,-9.529697,16.611005,0.122648,0.154415,0.000000,0.223288,0.444881,-0.000000
2.870000,1.501512,-0.943987,-1.321268,2.324357,0.416332,-0.656085,-1.662269,1.318528,-0.563443,-4.047746,1.851196,4.407136,7.729239,-10.530143,16.401293,0.124852,0.158892,0.000000,0.217122,0.443331,0.000000
2.880000,1.524673,-0.939758,-1.327857,2.307532,0.429610,-0.661499,-1.702361,1.336515,-0.518550,-3.967568,1.740608,4.569731,8.308764,-11.593912,16.079951,0.126990,0.163352,0.000000,0.209983,0.441388,0.000000
2.890000,1.547663,-0.935395,-1.334498,2.290310,0.443062,-0.666456,-1.741621,1.353340,-0.472049,-3.881571,1.619318,4.728735,8.874269,-12.617381,15.729060,0.129052,0.167792,0.000000,0.201831,0.439027,0.000000
2.900000,1.570479,-0.930896,-1.341186,2.272700,0.456677,-0.670940,-1.779992,1.368901,-0.423975,-3.790083,1.488261,4.884312,9.414564,-13.575974,15.381711,0.131027,0.172207,0.000000,0.192734,0.436270,-0.000000
2.910000,1.593117,-0.926261,-1.347917,2.254710,0.470440,-0.674936,-1.817422,1.383105,-0.374363,-3.693279,1.347799,5.036370,9.952586,-14.535059,14.977259,0.132907,0.176593,0.000000,0.182705,0.433121,0.000000
2.920000,1.615573,-0.921487,-1.354685,2.236351,0.484339,-0.678428,-1.853858,1.395857,-0.323248,-3.591031,1.197559,5.183857,10.510935,-15.540390,14.426796,0.134681,0.180947,0.000000,0.171673,0.429538,0.000000
2.930000,1.637844,-0.916574,-1.361485,2.217633,0.498357,-0.681401,-1.889243,1.407056,-0.270685,-3.483061,1.036991,5.324906,11.080981,-16.567419,13.741836,0.136340,0.185263,0.000000,0.159533,0.425447,-0.000000
2.940000,1.659926,-0.911520,-1.368313,2.198566,0.512480,-0.683841,-1.923519,1.416597,-0.216750,-3.369412,0.866211,5.458694,11.630195,-17.550279,13.037833,0.137871,0.189536,0.000000,0.146257,0.420815,-0.000000
2.950000,1.681815,-0.906325,-1.375162,2.179163,0.526689,-0.685736,-1.956631,1.424381,-0.161512,-3.250457,0.685985,5.585662,12.150802,-18.472304,12.357234,0.139265,0.193760,0.000000,0.131890,0.415666,-0.000000
2.960000,1.703509,-0.900987,-1.382028,2.159434,0.540968,-0.687071,-1.988528,1.430317,-0.105037,-3.126396,0.496765,5.705839,12.661854,-19.371315,11.618788,0.140509,0.197931,0.000000,0.116444,0.409997,0.000000
2.970000,1.725004,-0.895505,-1.388904,2.139392,0.555296,-0.687836,-2.019159,1.434316,-0.047395,-2.997220,0.298559,5.818038,13.175685,-20.275343,10.715321,0.141593,0.202042,0.000000,0.099868,0.403763,0.000000
2.980000,1.746297,-0.889881,-1.395784,2.119051,0.569654,-0.688019,-2.048473,1.436288,0.011324,-2.862882,0.091258,5.920145,13.683384,-21.165952,9.666525,0.142505,0.206088,0.000000,0.082086,0.396890,-0.000000
2.990000,1.767385,-0.884112,-1.402664,2.098423,0.584021,-0.687610,-2.076417,1.436141,0.071008,-2.723552,-0.124760,6.011369,14.165365,-21.998075,8.614711,0.143234,0.210061,0.000000,0.063084,0.389346,-0.000000
3.000000,1.788265,-0.878200,-1.409536,2.077522,0.598377,-0.686599,-2.102944,1.433793,0.131552,-2.579575,-0.348703,6.092440,14.620928,-22.769273,7.607358,0.143766,0.213955,0.000000,0.042907,0.381148,0.000000
3.010000,1.808936,-0.872145,-1.416396,2.056364,0.612697,-0.684979,-2.128008,1.429167,0.192857,-2.431133,-0.580146,6.163516,15.059584,-23.501518,6.547858,0.144091,0.217764,0.000000,0.021560,0.372286,0.000000
3.020000,1.829393,-0.865946,-1.423236,2.034962,0.626960,-0.682742,-2.151566,1.422190,0.254822,-2.278383,-0.818734,6.223397,15.474415,-24.180493,5.323507,0.144196,0.221479,0.000000,-0.000982,0.362715,-0.000000
3.030000,1.849635,-0.859606,-1.430051,2.013332,0.641141,-0.679883,-2.173576,1.412792,0.317325,-2.121645,-1.063755,6.269986,15.857666,-24.788072,3.960567,0.144070,0.225094,0.000000,-0.024718,0.352385,-0.000000
3.040000,1.869659,-0.853123,-1.436834,1.991491,0.655216,-0.676396,-2.193999,1.400915,0.380222,-1.961230,-1.314495,6.302608,16.215495,-25.336288,2.611807,0.143701,0.228600,0.000000,-0.049630,0.341270,0.000000
3.050000,1.889465,-0.846501,-1.443579,1.969452,0.669159,-0.672278,-2.212801,1.386502,0.443377,-1.797335,-1.570481,6.322222,16.558487,-25.851150,1.333050,0.143076,0.231990,0.000000,-0.075694,0.329372,-0.000000
3.060000,1.909048,-0.839740,-1.450279,1.947235,0.682946,-0.667528,-2.229946,1.369505,0.506666,-1.630060,-1.831518,6.329269,16.878107,-26.314245,0.023348,0.142185,0.235255,0.000000,-0.102923,0.316674,0.000000
3.070000,1.928409,-0.832842,-1.456929,1.924854,0.696550,-0.662145,-2.245402,1.349872,0.569962,-1.459773,-2.096766,6.322689,17.139369,-26.639824,-1.447242,0.141016,0.238387,0.000000,-0.131284,0.303146,0.000000
3.080000,1.947546,-0.825809,-1.463522,1.902327,0.709943,-0.656129,-2.259141,1.327570,0.633120,-1.287273,-2.364315,6.300324,17.339759,-26.820418,-3.046185,0.139558,0.241378,0.000000,-0.160644,0.288777,0.000000
3.090000,1.966456,-0.818643,-1.470052,1.879671,0.723101,-0.649482,-2.271147,1.302586,0.695969,-1.112978,-2.633174,6.261765,17.523074,-26.964423,-4.593663,0.137801,0.244218,0.000000,-0.190934,0.273556,-0.000000
3.100000,1.985139,-0.811347,-1.476512,1.856904,0.735995,-0.642209,-2.281401,1.274906,0.758355,-0.936811,-2.903603,6.208451,17.705112,-27.116692,-6.050698,0.135737,0.246900,0.000000,-0.222178,0.257472,0.000000
3.110000,2.003594,-0.803924,-1.482896,1.834043,0.748599,-0.634315,-2.289883,1.244514,0.820138,-0.758876,-3.175508,6.140751,17.852573,-27.194826,-7.531436,0.133355,0.249415,0.000000,-0.254380,0.240508,0.000000
3.120000,2.021820,-0.796375,-1.489198,1.811106,0.760885,-0.625807,-2.296578,1.211396,0.881170,-0.579760,-3.447500,6.057822,17.922827,-27.078364,-9.104457,0.130647,0.251752,0.000000,-0.287419,0.222665,-0.000000
3.130000,2.039816,-0.788706,-1.495412,1.788111,0.772827,-0.616692,-2.301479,1.175564,0.941294,-0.400419,-3.717075,5.958662,17.921912,-26.782021,-10.725117,0.127605,0.253905,0.000000,-0.321045,0.203983,0.000000
3.140000,2.057582,-0.780919,-1.501532,1.765076,0.784397,-0.606981,-2.304587,1.137054,1.000343,-0.221321,-3.983140,5.843320,17.903350,-26.459727,-12.296012,0.124224,0.255864,0.000000,-0.355127,0.184481,-0.000000
3.150000,2.075118,-0.773018,-1.507552,1.742019,0.795568,-0.596685,-2.305905,1.095901,1.058161,-0.042352,-4.246270,5.712742,17.887168,-26.164946,-13.805948,0.120500,0.257622,0.000000,-0.389696,0.164146,-0.000000
3.160000,2.092422,-0.765007,-1.513466,1.718958,0.806315,-0.585818,-2.305434,1.052129,1.114598,0.136422,-4.506439,5.567201,17.834501,-25.787714,-15.308972,0.116428,0.259170,0.000000,-0.424720,0.142968,-0.000000
3.170000,2.109497,-0.756892,-1.519268,1.695911,0.816611,-0.574393,-2.303177,1.005772,1.169505,0.314338,-4.762024,5.406562,17.691503,-25.190208,-16.808872,0.112004,0.260499,0.000000,-0.459988,0.120997,-0.000000
3.180000,2.126341,-0.748675,-1.524954,1.672895,0.826430,-0.562427,-2.299147,0.956889,1.222729,0.490252,-5.010243,5.231023,17.466006,-24.397916,-18.276527,0.107227,0.261603,0.000000,-0.495143,0.098347,0.000000
3.190000,2.142955,-0.740363,-1.530517,1.649928,0.835748,-0.549938,-2.293372,0.905567,1.274125,0.663658,-5.249983,5.041032,17.228333,-23.590896,-19.696815,0.102100,0.262476,0.000000,-0.529991,0.075081,0.000000
3.200000,2.159339,-0.731960,-1.535952,1.627027,0.844541,-0.536945,-2.285874,0.851889,1.323550,0.834819,-5.482061,4.837087,17.005568,-22.831204,-21.077365,0.096626,0.263111,0.000000,-0.564539,0.051185,0.000000
3.210000,2.175495,-0.723472,-1.541256,1.604210,0.852786,-0.523467,-2.276675,0.795926,1.370867,1.003769,-5.706607,4.619485,16.748516,-21.994650,-22.415336,0.090808,0.263503,0.000000,-0.598717,0.026671,-0.000000
3.220000,2.191423,-0.714904,-1.546422,1.581494,0.860460,-0.509528,-2.265799,0.737757,1.415940,1.169789,-5.921954,4.388780,16.388918,-20.928221,-23.668646,0.084651,0.263645,0.000000,-0.632237,0.001645,0.000000
3.230000,2.207125,-0.706263,-1.551446,1.558894,0.867541,-0.495149,-2.253279,0.677487,1.458643,1.331548,-6.125171,4.146112,15.939474,-19.665680,-24.822475,0.078163,0.263535,0.000000,-0.664649,-0.023689,0.000000
3.240000,2.222601,-0.697554,-1.556325,1.536428,0.874010,-0.480355,-2.239168,0.615253,1.498862,1.488578,-6.315268,3.892331,15.491378,-18.411751,-25.920873,0.071357,0.263169,0.000000,-0.695714,-0.049223,0.000000
3.250000,2.237854,-0.688783,-1.561053,1.514111,0.879846,-0.465171,-2.223508,0.551182,1.536489,1.641375,-6.493406,3.627694,15.069828,-17.225643,-27.003381,0.064249,0.262547,0.000000,-0.725436,-0.074969,-0.000000
3.260000,2.252883,-0.679957,-1.565628,1.491958,0.885033,-0.449625,-2.206340,0.485385,1.571416,1.789975,-6.659781,3.352263,14.613701,-15.971169,-28.026185,0.056849,0.261666,0.000000,-0.753710,-0.100887,-0.000000
3.270000,2.267693,-0.671082,-1.570046,1.469984,0.889554,-0.433743,-2.187708,0.417986,1.603534,1.933649,-6.812830,3.067171,14.067087,-14.515693,-28.861935,0.049175,0.260525,0.000000,-0.780214,-0.126813,0.000000
3.280000,2.282283,-0.662166,-1.574303,1.448204,0.893393,-0.417554,-2.167667,0.349129,1.632759,2.071317,-6.950094,2.775025,13.449500,-12.903027,-29.505889,0.041246,0.259126,0.000000,-0.804511,-0.152489,0.000000
3.290000,2.296657,-0.653214,-1.578397,1.426631,0.896537,-0.401088,-2.146282,0.278984,1.659035,2.202639,-7.070890,2.477053,12.836153,-11.313592,-30.118849,0.033087,0.257472,0.000000,-0.826382,-0.177779,-0.000000
3.300000,2.310816,-0.644235,-1.582325,1.405278,0.898973,-0.384374,-2.123614,0.207711,1.682300,2.328040,-7.176366,2.172648,12.244902,-9.791212,-30.768072,0.024721,0.255568,0.000000,-0.845837,-0.202686,0.000000
3.310000,2.324762,-0.635235,-1.586084,1.384159,0.900691,-0.367442,-2.099721,0.135457,1.702488,2.447537,-7.266714,1.861691,11.627731,-8.221290,-31.332442,0.016173,0.253417,0.000000,-0.862776,-0.227148,0.000000
3.320000,2.338499,-0.626221,-1.589674,1.363284,0.901682,-0.350324,-2.074664,0.062377,1.719534,2.560594,-7.340792,1.545999,10.948043,-6.516557,-31.630864,0.007468,0.251024,0.000000,-0.876945,-0.250982,0.000000
3.330000,2.352028,-0.617201,-1.593091,1.342665,0.901938,-0.333051,-2.048509,-0.011359,1.733408,2.666498,-7.397045,1.229074,10.223074,-4.721980,-31.685255,-0.001363,0.248397,0.000000,-0.888053,-0.273931,0.000000
3.340000,2.365352,-0.608182,-1.596335,1.322314,0.901455,-0.315656,-2.021334,-0.085564,1.744116,2.765056,-7.435232,0.912294,9.504388,-2.960751,-31.728806,-0.010290,0.245546,0.000000,-0.895994,-0.295867,0.000000
3.350000,2.378474,-0.599172,-1.599404,1.302239,0.900227,-0.298169,-1.993208,-0.160064,1.751654,2.856586,-7.456260,0.594498,8.804961,-1.241026,-31.843293,-0.019280,0.242480,0.000000,-0.900814,-0.316796,0.000000
3.360000,2.391397,-0.590178,-1.602298,1.282449,0.898253,-0.280623,-1.964202,-0.234690,1.756006,2.941155,-7.460052,0.275428,8.094122,0.507925,-31.863202,-0.028302,0.239210,0.000000,-0.902451,-0.336672,0.000000
3.370000,2.404123,-0.581207,-1.605016,1.262955,0.895533,-0.263049,-1.934385,-0.309265,1.757162,3.018469,-7.446102,-0.042766,7.348496,2.274569,-31.580457,-0.037325,0.235745,0.000000,-0.900815,-0.355343,0.000000
3.380000,2.416656,-0.572267,-1.607559,1.243762,0.892068,-0.245479,-1.903833,-0.383612,1.755150,3.088125,-7.414561,-0.356181,6.583198,4.023760,-31.036681,-0.046315,0.232099,0.000000,-0.895938,-0.372601,0.000000
3.390000,2.428999,-0.563366,-1.609926,1.224878,0.887861,-0.227946,-1.872623,-0.457556,1.750039,3.150132,-7.365627,-0.663500,5.833806,5.762406,-30.504727,-0.055240,0.228286,0.000000,-0.887875,-0.388373,0.000000
3.400000,2.441154,-0.554510,-1.612118,1.206309,0.882917,-0.210479,-1.840830,-0.530924,1.741880,3.204801,-7.299313,-0.966276,5.093251,7.495911,-30.060958,-0.064069,0.224321,0.000000,-0.876658,-0.402708,-0.000000
3.410000,2.453125,-0.545707,-1.614135,1.188061,0.877243,-0.193108,-1.808527,-0.603542,1.730713,3.251997,-7.215709,-1.264719,4.343699,9.206405,-29.519640,-0.072770,0.220217,0.000000,-0.862349,-0.415570,0.000000
3.420000,2.464915,-0.536965,-1.615980,1.170139,0.870846,-0.175864,-1.775790,-0.675238,1.716586,3.291675,-7.115185,-1.556669,3.619739,10.865028,-28.702433,-0.081312,0.215989,0.000000,-0.845078,-0.426878,-0.000000
3.430000,2.476527,-0.528290,-1.617653,1.152546,0.863738,-0.158776,-1.742693,-0.745846,1.699580,3.324392,-6.998408,-1.838768,2.933106,12.463483,-27.666497,-0.089668,0.211653,0.000000,-0.825051,-0.436606,0.000000
3.440000,2.487966,-0.519690,-1.619155,1.135285,0.855929,-0.141873,-1.709302,-0.815206,1.679811,3.350337,-6.865915,-2.109999,2.241293,14.025652,-26.648270,-0.097811,0.207223,0.000000,-0.802456,-0.444760,-0.000000
3.450000,2.499233,-0.511172,-1.620490,1.118359,0.847434,-0.125180,-1.675686,-0.883164,1.657380,3.369218,-6.717895,-2.371733,1.539313,15.581321,-25.698701,-0.105715,0.202716,0.000000,-0.777420,-0.451354,-0.000000
3.460000,2.510333,-0.502742,-1.621659,1.101771,0.838266,-0.108725,-1.641918,-0.949564,1.632376,3.381124,-6.554288,-2.623973,0.861052,17.100681,-24.663920,-0.113357,0.198147,0.000000,-0.750057,-0.456419,-0.000000
3.470000,2.521269,-0.494406,-1.622665,1.085521,0.828442,-0.092533,-1.608064,-1.014250,1.604900,3.386439,-6.375881,-2.865011,0.218812,18.476994,-23.438677,-0.120715,0.193531,0.000000,-0.720612,-0.459987,-0.000000
3.480000,2.532043,-0.486173,-1.623510,1.069610,0.817981,-0.076627,-1.574189,-1.077082,1.575076,3.385500,-6.184749,-3.092746,-0.392707,19.699424,-22.077052,-0.127768,0.188881,0.000000,-0.689495,-0.462086,0.000000
3.490000,2.542661,-0.478047,-1.624197,1.054037,0.806901,-0.061031,-1.540354,-1.137945,1.543045,3.378585,-5.981893,-3.306552,-0.982123,20.901149,-20.722826,-0.134504,0.184214,0.000000,-0.656968,-0.462780,0.000000
3.500000,2.553124,-0.470035,-1.624730,1.038803,0.795222,-0.045766,-1.506617,-1.196720,1.508945,3.365857,-5.766726,-3.507203,-1.566335,22.157626,-19.406836,-0.140907,0.179543,0.000000,-0.623081,-0.462154,0.000000
3.510000,2.563437,-0.462142,-1.625113,1.023905,0.782966,-0.030852,-1.473037,-1.253279,1.472901,3.347258,-5.538740,-3.694689,-2.134153,23.364596,-18.042338,-0.146965,0.174880,0.000000,-0.587899,-0.460250,0.000000
3.520000,2.573602,-0.454375,-1.625347,1.009342,0.770157,-0.016308,-1.439672,-1.307495,1.435051,3.323174,-5.299434,-3.868049,-2.624896,24.311470,-16.573021,-0.152666,0.170238,0.000000,-0.551734,-0.457147,0.000000
3.530000,2.583624,-0.446739,-1.625439,0.995112,0.756817,-0.002151,-1.406573,-1.359268,1.395540,3.294760,-5.052511,-4.026150,-3.030604,25.015806,-15.037057,-0.158001,0.165630,0.000000,-0.515143,-0.453011,0.000000
3.540000,2.593504,-0.439239,-1.625390,0.981211,0.742971,0.011603,-1.373777,-1.408545,1.354528,3.262562,-4.799118,-4.168791,-3.430758,25.751127,-13.519527,-0.162969,0.161065,0.000000,-0.478356,-0.447957,-0.000000
3.550000,2.603248,-0.431880,-1.625207,0.967636,0.728646,0.024939,-1.341322,-1.455251,1.312165,3.226145,-4.537488,-4.296540,-3.880430,26.579875,-12.022800,-0.167569,0.156551,0.000000,-0.441246,-0.442002,0.000000
3.560000,2.612857,-0.424666,-1.624892,0.954384,0.713866,0.037846,-1.309254,-1.499295,1.268597,3.184954,-4.267520,-4.409247,-4.319068,27.310287,-10.503224,-0.171796,0.152099,0.000000,-0.403879,-0.435134,-0.000000
3.570000,2.622336,-0.417602,-1.624450,0.941451,0.698660,0.050311,-1.277623,-1.540601,1.223980,3.139764,-3.991283,-4.506605,-4.597842,27.800672,-8.987142,-0.175648,0.147719,0.000000,-0.366562,-0.427492,0.000000
3.580000,2.631686,-0.410693,-1.623885,0.928832,0.683054,0.062325,-1.246459,-1.579120,1.178465,3.092997,-3.711507,-4.588989,-4.726514,28.108762,-7.506604,-0.179129,0.143416,0.000000,-0.329650,-0.419404,0.000000
3.590000,2.640912,-0.403941,-1.623203,0.916522,0.667077,0.073881,-1.215763,-1.614831,1.132200,3.045234,-3.429107,-4.656737,-4.904267,28.410813,-6.036704,-0.182243,0.139194,0.000000,-0.293273,-0.410981,-0.000000
3.600000,2.650017,-0.397351,-1.622408,0.904516,0.650757,0.084969,-1.185554,-1.647702,1.085330,2.994911,-3.143290,-4.709723,-5.182691,28.734470,-4.534524,-0.184996,0.135058,0.000000,-0.257366,-0.402089,-0.000000
3.610000,2.659003,-0.390926,-1.621504,0.892811,0.634123,0.095587,-1.155865,-1.677697,1.038005,2.941580,-2.854418,-4.747427,-5.425100,28.961166,-3.033364,-0.187392,0.131013,0.000000,-0.221996,-0.392713,-0.000000
3.620000,2.667873,-0.384669,-1.620496,0.881399,0.617204,0.105730,-1.126722,-1.704791,0.990382,2.886409,-2.564067,-4.770391,-5.519953,29.024239,-1.671512,-0.189438,0.127064,0.000000,-0.187338,-0.383028,-0.000000
3.630000,2.676631,-0.378582,-1.619389,0.870276,0.600027,0.115395,-1.098137,-1.728978,0.942598,2.831181,-2.273933,-4.780857,-5.511443,28.959847,-0.459898,-0.191141,0.123212,0.000000,-0.153529,-0.373292,-0.000000
3.640000,2.685278,-0.372668,-1.618188,0.859436,0.582624,0.124582,-1.070099,-1.750269,0.894765,2.776181,-1.984870,-4.779589,-5.544307,28.852239,0.776398,-0.192510,0.119459,0.000000,-0.120632,-0.363568,-0.000000
3.650000,2.693819,-0.366930,-1.616898,0.848874,0.565022,0.133290,-1.042613,-1.768676,0.847006,2.720295,-1.696888,-4.765329,-5.636415,28.733791,2.112121,-0.193555,0.115804,0.000000,-0.088655,-0.353740,0.000000
3.660000,2.702256,-0.361368,-1.615522,0.838584,0.547250,0.141522,-1.015693,-1.784207,0.799458,2.663452,-1.410194,-4.737346,-5.694236,28.549122,3.414411,-0.194285,0.112249,0.000000,-0.057610,-0.343813,-0.000000
3.670000,2.710591,-0.355985,-1.614067,0.828560,0.529338,0.149279,-0.989344,-1.796879,0.752259,2.606410,-1.125906,-4.697041,-5.687599,28.212372,4.482273,-0.194709,0.108795,0.000000,-0.027562,-0.333905,0.000000
3.680000,2.718827,-0.350781,-1.612537,0.818797,0.511313,0.156567,-0.963565,-1.806725,0.705517,2.549700,-0.845947,-4.647701,-5.654688,27.737566,5.342937,-0.194838,0.105442,0.000000,0.001386,-0.324124,0.000000
3.690000,2.726967,-0.345758,-1.610936,0.809289,0.493203,0.163390,-0.938350,-1.813798,0.659305,2.493316,-0.571155,-4.590183,-5.634138,27.244328,6.253445,-0.194683,0.102187,0.000000,0.029202,-0.314485,0.000000
3.700000,2.735013,-0.340917,-1.609269,0.800030,0.475037,0.169753,-0.913698,-1.818148,0.613714,2.437018,-0.301060,-4.522632,-5.605450,26.779759,7.275232,-0.194255,0.099030,0.000000,0.055936,-0.304948,-0.000000
3.710000,2.742968,-0.336258,-1.607541,0.791015,0.456840,0.175664,-0.889610,-1.819820,0.568852,2.381207,-0.035560,-4.444678,-5.550425,26.265369,8.227312,-0.193565,0.095970,0.000000,0.081629,-0.295559,-0.000000
3.720000,2.750833,-0.331780,-1.605756,0.782238,0.438641,0.181130,-0.866074,-1.818860,0.524820,2.326009,0.224247,-4.358086,-5.534806,25.594585,8.961941,-0.192624,0.093006,0.000000,0.106242,-0.286353,-0.000000
3.730000,2.758612,-0.327485,-1.603918,0.773694,0.420463,0.186160,-0.843089,-1.815335,0.481691,2.270511,0.476332,-4.265439,-5.577070,24.795538,9.532030,-0.191441,0.090135,0.000000,0.129661,-0.277260,0.000000
3.740000,2.766307,-0.323371,-1.602033,0.765376,0.402334,0.190764,-0.820664,-1.809333,0.439511,2.214468,0.720158,-4.167445,-5.589783,24.016480,10.122452,-0.190031,0.087357,0.000000,0.151886,-0.268261,0.000000
3.750000,2.773920,-0.319438,-1.600103,0.757280,0.384277,0.194950,-0.798800,-1.800932,0.398342,2.158715,0.956662,-4.062990,-5.521617,23.272683,10.764215,-0.188404,0.084671,0.000000,0.173028,-0.259430,-0.000000
3.760000,2.781453,-0.315686,-1.598134,0.749400,0.366315,0.198731,-0.777490,-1.790200,0.358251,2.104035,1.185611,-3.952161,-5.439614,22.472022,11.332017,-0.186571,0.082074,0.000000,0.193102,-0.250846,-0.000000
3.770000,2.788908,-0.312112,-1.596128,0.741731,0.348473,0.202115,-0.756719,-1.777219,0.319298,2.049923,1.406102,-3.836350,-5.478088,21.608921,11.752012,-0.184543,0.079564,0.000000,0.212081,-0.242466,-0.000000
3.780000,2.796287,-0.308716,-1.594091,0.734266,0.330771,0.205117,-0.736491,-1.762078,0.281524,1.994474,1.617790,-3.717121,-5.622520,20.727405,12.064694,-0.182330,0.077140,0.000000,0.229996,-0.234102,0.000000
3.790000,2.803593,-0.305497,-1.592026,0.727001,0.313231,0.207746,-0.716830,-1.744864,0.244956,1.937473,1.820650,-3.595056,-5.696775,19.836458,12.362274,-0.179943,0.074803,0.000000,0.246886,-0.225732,-0.000000
3.800000,2.810827,-0.302451,-1.589936,0.719929,0.295874,0.210016,-0.697742,-1.725665,0.209623,1.880538,2.014519,-3.469875,-5.673489,18.895752,12.658350,-0.177392,0.072551,0.000000,0.262757,-0.217515,0.000000
3.810000,2.817992,-0.299579,-1.587826,0.713046,0.278718,0.211938,-0.679219,-1.704573,0.175558,1.824003,2.198565,-3.341889,-5.673444,17.912031,12.893293,-0.174688,0.070383,0.000000,0.277559,-0.209480,0.000000
3.820000,2.825088,-0.296877,-1.585698,0.706345,0.261782,0.213527,-0.661262,-1.681693,0.142785,1.767069,2.372760,-3.212009,-5.747518,17.008613,13.035467,-0.171841,0.068296,0.000000,0.291333,-0.201547,-0.000000
3.830000,2.832119,-0.294343,-1.583555,0.699821,0.245084,0.214794,-0.643878,-1.657118,0.111318,1.709052,2.538738,-3.081179,-5.859325,16.198071,13.104128,-0.168861,0.066291,0.000000,0.304280,-0.193646,0.000000
3.840000,2.839085,-0.291975,-1.581402,0.693467,0.228640,0.215753,-0.627081,-1.630919,0.081162,1.649883,2.696721,-2.949927,-5.948377,15.319967,13.141972,-0.165755,0.064367,0.000000,0.316452,-0.185767,-0.000000
3.850000,2.845988,-0.289771,-1.579240,0.687279,0.212466,0.216417,-0.610880,-1.603184,0.052320,1.590085,2.845137,-2.818340,-5.983622,14.329204,13.170562,-0.162532,0.062523,0.000000,0.327709,-0.177956,0.000000
3.860000,2.852830,-0.287726,-1.577073,0.681250,0.196576,0.216800,-0.595279,-1.574016,0.024795,1.530210,2.983305,-2.686515,-6.005923,13.343332,13.163559,-0.159201,0.060760,0.000000,0.338000,-0.170263,-0.000000
3.870000,2.859613,-0.285839,-1.574904,0.675373,0.180985,0.216913,-0.580276,-1.543517,-0.001411,1.469966,3.112004,-2.555069,-6.105738,12.470199,13.067122,-0.155772,0.059074,0.000000,0.347428,-0.162655,0.000000
3.880000,2.866338,-0.284106,-1.572735,0.669644,0.165706,0.216771,-0.565880,-1.511776,-0.026306,1.408095,3.232709,-2.425173,-6.267707,11.678610,12.892640,-0.152252,0.057466,0.000000,0.356169,-0.155004,0.000000
3.890000,2.873006,-0.282525,-1.570569,0.664056,0.150750,0.216387,-0.552114,-1.478863,-0.049914,1.344612,3.345576,-2.297216,-6.368795,10.836214,12.717045,-0.148648,0.055937,0.000000,0.364253,-0.147308,-0.000000
3.900000,2.879619,-0.281091,-1.568407,0.658602,0.136128,0.215773,-0.538987,-1.444864,-0.072251,1.280720,3.449433,-2.170832,-6.419299,9.920257,12.540332,-0.144967,0.054487,0.000000,0.371562,-0.139678,-0.000000
3.910000,2.886178,-0.279802,-1.566253,0.653276,0.121852,0.214942,-0.526500,-1.409875,-0.093331,1.216226,3.543981,-2.046409,-6.497332,9.023651,12.315950,-0.141217,0.053114,0.000000,0.378080,-0.132090,-0.000000
3.920000,2.892684,-0.278654,-1.564108,0.648072,0.107931,0.213907,-0.514663,-1.373985,-0.113179,1.150773,3.629906,-1.924513,-6.544280,8.205312,12.067405,-0.137405,0.051818,0.000000,0.383886,-0.124504,-0.000000
3.930000,2.899139,-0.277644,-1.561975,0.642983,0.094373,0.212679,-0.503484,-1.337276,-0.131821,1.085341,3.708087,-1.805061,-6.522540,7.436120,11.817896,-0.133539,0.050600,0.000000,0.389067,-0.117010,0.000000
3.940000,2.905544,-0.276767,-1.559855,0.638002,0.081185,0.211270,-0.492956,-1.299823,-0.149280,1.020322,3.778629,-1.688155,-6.517409,6.646376,11.536556,-0.129623,0.049457,0.000000,0.393638,-0.109641,-0.000000
3.950000,2.911899,-0.276020,-1.557750,0.633124,0.068376,0.209693,-0.483078,-1.261704,-0.165584,0.954993,3.841015,-1.574330,-6.580549,5.838607,11.203614,-0.125665,0.048388,0.000000,0.397553,-0.102320,0.000000
3.960000,2.918206,-0.275399,-1.555661,0.628341,0.055951,0.207958,-0.473856,-1.223003,-0.180767,0.888711,3.895401,-1.464083,-6.647242,5.059999,10.846557,-0.121672,0.047394,0.000000,0.400833,-0.094981,-0.000000
3.970000,2.924466,-0.274901,-1.553590,0.623647,0.043916,0.206078,-0.465303,-1.183796,-0.194866,0.822048,3.942215,-1.357399,-6.593491,4.303369,10.518477,-0.117648,0.046474,0.000000,0.403518,-0.087673,-0.000000
3.980000,2.930679,-0.274521,-1.551539,0.619035,0.032275,0.204061,-0.457415,-1.144158,-0.207915,0.756841,3.981468,-1.253713,-6.439074,3.552562,10.214678,-0.113601,0.045628,0.000000,0.405597,-0.080571,-0.000000
3.990000,2.936847,-0.274256,-1.549509,0.614498,0.021033,0.201919,-0.450167,-1.104166,-0.219940,0.693266,4.013266,-1.153105,-6.346651,2.823360,9.870028,-0.109536,0.044852,0.000000,0.407080,-0.073686,0.000000
4.000000,2.942969,-0.274100,-1.547501,0.610031,0.010192,0.199662,-0.443550,-1.063893,-0.230977,0.629908,4.037936,-1.056313,-6.309353,2.122269,9.482578,-0.105459,0.044145,0.000000,0.408004,-0.066876,0.000000
4.010000,2.949047,-0.274052,-1.545516,0.605627,-0.000245,0.197300,-0.437568,-1.023408,-0.241066,0.567079,4.055711,-0.963454,-6.219327,1.438935,9.099555,-0.101376,0.043507,0.000000,0.408386,-0.060168,-0.000000
4.020000,2.955082,-0.274105,-1.543555,0.601280,-0.010276,0.194841,-0.432208,-0.982779,-0.250246,0.505522,4.066714,-0.874322,-6.124109,0.767188,8.723142,-0.097291,0.042936,0.000000,0.408231,-0.053629,-0.000000
4.030000,2.961073,-0.274257,-1.541619,0.596983,-0.019900,0.192295,-0.427458,-0.942073,-0.258553,0.444597,4.071055,-0.788991,-6.061844,0.113743,8.341524,-0.093211,0.042429,0.000000,0.407546,-0.047193,0.000000
4.040000,2.967022,-0.274503,-1.539709,0.592731,-0.029118,0.189670,-0.423316,-0.901358,-0.266026,0.384285,4.068989,-0.707491,-5.958260,-0.512811,7.959728,-0.089140,0.041988,0.000000,0.406348,-0.040853,-0.000000
4.050000,2.972928,-0.274840,-1.537826,0.588517,-0.037928,0.186974,-0.419772,-0.860694,-0.272702,0.325432,4.060799,-0.629796,-5.813926,-1.128569,7.566214,-0.085084,0.041609,0.000000,0.404661,-0.034690,0.000000
4.060000,2.978792,-0.275262,-1.535970,0.584335,-0.046331,0.184216,-0.416808,-0.820142,-0.278622,0.268006,4.046418,-0.556167,-5.679752,-1.736610,7.161295,-0.081047,0.041291,0.000000,0.402471,-0.028699,0.000000
4.070000,2.984614,-0.275766,-1.534141,0.580181,-0.054330,0.181402,-0.414412,-0.779765,-0.283826,0.211837,4.026067,-0.486571,-5.522797,-2.287398,6.792312,-0.077034,0.041033,0.000000,0.399795,-0.022859,0.000000
4.080000,2.990396,-0.276348,-1.532342,0.576047,-0.061927,0.178539,-0.412571,-0.739620,-0.288353,0.157550,4.000670,-0.420321,-5.323340,-2.777131,6.463842,-0.073050,0.040833,0.000000,0.396710,-0.017227,-0.000000
4.090000,2.996135,-0.277005,-1.530571,0.571929,-0.069123,0.175635,-0.411261,-0.699752,-0.292232,0.105370,3.970524,-0.357294,-5.131998,-3.273210,6.114095,-0.069100,0.040687,0.000000,0.393240,-0.011822,0.000000
4.100000,3.001834,-0.277731,-1.528829,0.567822,-0.075922,0.172695,-0.410464,-0.660210,-0.295499,0.054910,3.935206,-0.298039,-4.961374,-3.783205,5.732532,-0.065185,0.040596,0.000000,0.389340,-0.006607,0.000000
4.110000,3.007492,-0.278523,-1.527117,0.563720,-0.082327,0.169725,-0.410163,-0.621048,-0.298193,0.006142,3.894860,-0.242643,-4.776456,-4.260859,5.363648,-0.061313,0.040555,0.000000,0.385019,-0.001576,0.000000
4.120000,3.013108,-0.279377,-1.525434,0.559619,-0.088343,0.166731,-0.410341,-0.582313,-0.300352,-0.040619,3.849988,-0.190766,-4.560222,-4.699116,5.028452,-0.057485,0.040564,0.000000,0.380317,0.003241,-0.000000
4.130000,3.018684,-0.280290,-1.523782,0.555513,-0.093973,0.163718,-0.410975,-0.544048,-0.302008,-0.085062,3.800878,-0.142074,-4.324834,-5.113702,4.714735,-0.053706,0.040620,0.000000,0.375256,0.007817,-0.000000
4.140000,3.024219,-0.281257,-1.522160,0.551399,-0.099224,0.160691,-0.412042,-0.506295,-0.303193,-0.127115,3.747714,-0.096471,-4.091848,-5.510112,4.399727,-0.049980,0.040721,0.000000,0.369846,0.012145,0.000000
4.150000,3.029712,-0.282274,-1.520568,0.547272,-0.104099,0.157654,-0.413518,-0.469094,-0.303938,-0.166899,3.690675,-0.054080,-3.863157,-5.888133,4.075026,-0.046309,0.040863,0.000000,0.364102,0.016239,0.000000
4.160000,3.035164,-0.283339,-1.519007,0.543129,-0.108606,0.154612,-0.415380,-0.432482,-0.304275,-0.204379,3.629952,-0.014971,-3.625479,-6.244622,3.757632,-0.042698,0.041046,0.000000,0.358037,0.020094,0.000000
4.170000,3.040575,-0.284447,-1.517476,0.538965,-0.112749,0.151569,-0.417605,-0.396495,-0.304237,-0.239409,3.565783,0.021073,-3.375672,-6.575192,3.475941,-0.039148,0.041265,0.000000,0.351668,0.023698,-0.000000
4.180000,3.045943,-0.285594,-1.515976,0.534777,-0.116535,0.148527,-0.420168,-0.361166,-0.303853,-0.271892,3.498448,0.054548,-3.119156,-6.880631,3.226998,-0.035664,0.041520,0.000000,0.345017,0.027043,-0.000000
4.190000,3.051270,-0.286777,-1.514506,0.530561,-0.119972,0.145491,-0.423043,-0.326526,-0.303146,-0.301792,3.428170,0.085613,-2.860654,-7.167037,2.974368,-0.032248,0.041807,0.000000,0.338101,0.030127,0.000000
4.200000,3.056555,-0.287993,-1.513066,0.526316,-0.123066,0.142464,-0.426204,-0.292603,-0.302141,-0.329105,3.355107,0.114036,-2.600750,-7.436857,2.708221,-0.028902,0.042123,0.000000,0.330933,0.032949,0.000000
4.210000,3.061797,-0.289239,-1.511656,0.522037,-0.125824,0.139449,-0.429625,-0.259424,-0.300865,-0.353807,3.279433,0.139777,-2.337631,-7.686096,2.454418,-0.025629,0.042466,0.000000,0.323527,0.035504,0.000000
4.220000,3.066995,-0.290510,-1.510277,0.517723,-0.128254,0.136447,-0.433280,-0.227014,-0.299345,-0.375858,3.201385,0.163124,-2.071508,-7.909147,2.236984,-0.022431,0.042833,0.000000,0.315901,0.037792,-0.000000
4.230000,3.072151,-0.291804,-1.508927,0.513372,-0.130364,0.133462,-0.437142,-0.195396,-0.297603,-0.395237,3.121250,0.184517,-1.804073,-8.107091,2.048512,-0.019311,0.043222,0.000000,0.308080,0.039811,-0.000000
4.240000,3.077263,-0.293117,-1.507608,0.508980,-0.132162,0.130495,-0.441185,-0.164589,-0.295655,-0.411939,3.039243,0.204094,-1.536579,-8.287833,1.858648,-0.016270,0.043630,0.000000,0.300082,0.041560,-0.000000
4.250000,3.082331,-0.294447,-1.506317,0.504548,-0.133656,0.127549,-0.445381,-0.134611,-0.293521,-0.425968,2.955494,0.221690,-1.269408,-8.454751,1.662490,-0.013309,0.044053,0.000000,0.291919,0.043040,0.000000
4.260000,3.087354,-0.295790,-1.505057,0.500073,-0.134855,0.124625,-0.449704,-0.105479,-0.291221,-0.437327,2.870148,0.237344,-1.003058,-8.602727,1.480640,-0.010431,0.044490,0.000000,0.283602,0.044250,-0.000000
4.270000,3.092332,-0.297144,-1.503825,0.495554,-0.135766,0.121724,-0.454128,-0.077208,-0.288774,-0.446030,2.783439,0.251303,-0.739123,-8.724071,1.324220,-0.007637,0.044938,0.000000,0.275153,0.045193,-0.000000
4.280000,3.097265,-0.298506,-1.502622,0.490990,-0.136399,0.118849,-0.458625,-0.049810,-0.286195,-0.452110,2.695667,0.263828,-0.478841,-8.820440,1.186898,-0.004928,0.045394,0.000000,0.266598,0.045872,-0.000000
4.290000,3.102152,-0.299872,-1.501448,0.486381,-0.136762,0.116000,-0.463170,-0.023295,-0.283498,-0.455606,2.607030,0.275041,-0.221714,-8.902713,1.054856,-0.002305,0.045856,0.000000,0.257957,0.046291,0.000000
4.300000,3.106993,-0.301241,-1.500302,0.481727,-0.136865,0.113179,-0.467737,0.002330,-0.280694,-0.456544,2.517613,0.284926,0.034205,-8.973681,0.923498,0.000231,0.046320,0.000000,0.249237,0.046453,-0.000000
4.310000,3.111786,-0.302609,-1.499184,0.477027,-0.136715,0.110386,-0.472301,0.027058,-0.277799,-0.454922,2.427557,0.293511,0.287097,-9.026491,0.801952,0.002679,0.046785,0.000000,0.240450,0.046357,0.000000
4.320000,3.116533,-0.303975,-1.498094,0.472281,-0.136323,0.107623,-0.476835,0.050881,-0.274824,-0.450802,2.337083,0.300965,0.528747,-9.056057,0.702547,0.005040,0.047247,0.000000,0.231617,0.046009,-0.000000
4.330000,3.121232,-0.305336,-1.497032,0.467490,-0.135698,0.104890,-0.481317,0.073799,-0.271780,-0.444347,2.246435,0.307562,0.758362,-9.064593,0.622460,0.007312,0.047705,0.000000,0.222763,0.045426,0.000000
4.340000,3.125883,-0.306689,-1.495997,0.462655,-0.134847,0.102187,-0.485722,0.095810,-0.268673,-0.435635,2.155791,0.313414,0.985503,-9.059564,0.544789,0.009495,0.048156,0.000000,0.213904,0.044616,0.000000
4.350000,3.130485,-0.308033,-1.494988,0.457775,-0.133782,0.099516,-0.490030,0.116915,-0.265512,-0.424637,2.065244,0.318458,1.211879,-9.045655,0.466030,0.011590,0.048597,0.000000,0.205049,0.043577,0.000000
4.360000,3.135038,-0.309365,-1.494006,0.452854,-0.132509,0.096877,-0.494215,0.137115,-0.262304,-0.411397,1.974878,0.322734,1.429789,-9.018361,0.397049,0.013596,0.049027,0.000000,0.196206,0.042311,-0.000000
4.370000,3.139542,-0.310683,-1.493051,0.447891,-0.131039,0.094270,-0.498257,0.156413,-0.259057,-0.396041,1.884877,0.326399,1.633814,-8.966499,0.344068,0.015514,0.049444,0.000000,0.187393,0.040832,0.000000
4.380000,3.143996,-0.311985,-1.492121,0.442889,-0.129381,0.091696,-0.502136,0.174813,-0.255776,-0.378721,1.795548,0.329616,1.825022,-8.892080,0.302842,0.017344,0.049844,0.000000,0.178640,0.039155,-0.000000
4.390000,3.148400,-0.313271,-1.491217,0.437848,-0.127543,0.089155,-0.505832,0.192324,-0.252465,-0.359541,1.707035,0.332455,2.008938,-8.811293,0.264763,0.019087,0.050227,0.000000,0.169963,0.037291,-0.000000
4.400000,3.152753,-0.314536,-1.490338,0.432772,-0.125534,0.086647,-0.509327,0.208953,-0.249127,-0.338542,1.619322,0.334911,2.189811,-8.724811,0.229642,0.020743,0.050590,0.000000,0.161359,0.035243,0.000000
4.410000,3.157055,-0.315781,-1.489484,0.427662,-0.123364,0.084172,-0.512603,0.224710,-0.245766,-0.315745,1.532539,0.337048,2.362678,-8.622834,0.202268,0.022314,0.050932,0.000000,0.152841,0.033014,-0.000000
4.420000,3.161306,-0.317004,-1.488654,0.422520,-0.121040,0.081732,-0.515642,0.239604,-0.242386,-0.291289,1.446865,0.338956,2.513396,-8.508592,0.180969,0.023800,0.051251,0.000000,0.144427,0.030617,-0.000000
4.430000,3.165506,-0.318202,-1.487849,0.417349,-0.118572,0.079325,-0.518428,0.253647,-0.238987,-0.265477,1.362367,0.340668,2.642052,-8.386519,0.163247,0.025202,0.051544,0.000000,0.136124,0.028084,-0.000000
4.440000,3.169653,-0.319375,-1.487068,0.412152,-0.115967,0.076952,-0.520951,0.266851,-0.235572,-0.238448,1.279135,0.342221,2.766718,-8.252708,0.150638,0.026522,0.051812,0.000000,0.127941,0.025426,0.000000
4.450000,3.173749,-0.320521,-1.486310,0.406930,-0.113235,0.074613,-0.523197,0.279230,-0.232143,-0.210143,1.197313,0.343680,2.891931,-8.106604,0.143806,0.027761,0.052053,0.000000,0.119892,0.022639,0.000000
4.460000,3.177792,-0.321640,-1.485576,0.401688,-0.110383,0.072309,-0.525154,0.290798,-0.228699,-0.180609,1.117003,0.345097,3.004552,-7.952072,0.140726,0.028920,0.052265,0.000000,0.111989,0.019727,-0.000000
4.470000,3.181783,-0.322729,-1.484864,0.396427,-0.107419,0.070039,-0.526810,0.301570,-0.225241,-0.150051,1.038272,0.346495,3.093525,-7.790680,0.138553,0.030001,0.052448,0.000000,0.104236,0.016711,-0.000000
4.480000,3.185721,-0.323788,-1.484175,0.391151,-0.104351,0.067804,-0.528155,0.311563,-0.221769,-0.118739,0.961189,0.347868,3.162358,-7.621811,0.137023,0.031005,0.052600,0.000000,0.096642,0.013618,0.000000
4.490000,3.189606,-0.324816,-1.483508,0.385864,-0.101188,0.065604,-0.529184,0.320794,-0.218283,-0.086804,0.885836,0.349235,3.224495,-7.445111,0.138776,0.031934,0.052720,0.000000,0.089215,0.010459,-0.000000
4.500000,3.193438,-0.325812,-1.482863,0.380568,-0.097935,0.063438,-0.529891,0.329280,-0.214784,-0.054249,0.812287,0.350644,3.282725,-7.262161,0.144931,0.032789,0.052809,0.000000,0.081962,0.007236,-0.000000
4.510000,3.197217,-0.326775,-1.482239,0.375266,-0.094602,0.061308,-0.530269,0.337040,-0.211271,-0.021150,0.740592,0.352134,3.327576,-7.074115,0.152788,0.033573,0.052865,0.000000,0.074887,0.003957,-0.000000
4.520000,3.200943,-0.327704,-1.481637,0.369962,-0.091195,0.059213,-0.530314,0.344092,-0.207742,0.012303,0.670805,0.353700,3.351383,-6.879060,0.157692,0.034287,0.052888,0.000000,0.067998,0.000639,-0.000000
4.530000,3.204616,-0.328599,-1.481055,0.364660,-0.087720,0.057153,-0.530023,0.350456,-0.204197,0.045878,0.603011,0.355288,3.356405,-6.677825,0.159477,0.034933,0.052878,0.000000,0.061301,-0.002694,0.000000
4.540000,3.208236,-0.329458,-1.480494,0.359362,-0.084186,0.055129,-0.529397,0.356152,-0.200636,0.079431,0.537248,0.356889,3.352208,-6.474444,0.163345,0.035513,0.052834,0.000000,0.054802,-0.006029,-0.000000
4.550000,3.211804,-0.330282,-1.479952,0.354072,-0.080597,0.053141,-0.528435,0.361201,-0.197059,0.112922,0.473522,0.358555,3.343478,-6.266299,0.171703,0.036029,0.052757,0.000000,0.048499,-0.009360,-0.000000
4.560000,3.215318,-0.331070,-1.479431,0.348793,-0.076962,0.051188,-0.527138,0.365622,-0.193465,0.146301,0.411922,0.360323,3.323400,-6.051986,0.180139,0.036483,0.052647,0.000000,0.042404,-0.012683,-0.000000
4.570000,3.218779,-0.331822,-1.478928,0.343529,-0.073285,0.049271,-0.525509,0.369439,-0.189852,0.179390,0.352482,0.362158,3.279026,-5.842358,0.180992,0.036877,0.052503,0.000000,0.036518,-0.015981,0.000000
4.580000,3.222188,-0.332536,-1.478445,0.338283,-0.069573,0.047391,-0.523550,0.372672,-0.186222,0.211881,0.295075,0.363943,3.212007,-5.639304,0.174825,0.037213,0.052327,0.000000,0.030829,-0.019223,0.000000
4.590000,3.225545,-0.333213,-1.477981,0.333058,-0.065831,0.045547,-0.521271,0.375341,-0.182573,0.243630,0.239696,0.365654,3.139695,-5.429022,0.170988,0.037493,0.052119,0.000000,0.025336,-0.022395,-0.000000
4.600000,3.228850,-0.333853,-1.477534,0.327858,-0.062066,0.043739,-0.518678,0.377466,-0.178908,0.274675,0.186495,0.367363,3.065503,-5.209007,0.171266,0.037720,0.051879,0.000000,0.020054,-0.025501,-0.000000
4.610000,3.232102,-0.334454,-1.477106,0.322685,-0.058282,0.041969,-0.515778,0.379070,-0.175226,0.304940,0.135516,0.369079,2.977784,-4.989655,0.168707,0.037894,0.051608,0.000000,0.014989,-0.028533,-0.000000
4.620000,3.235303,-0.335018,-1.476695,0.317542,-0.054485,0.040235,-0.512579,0.380176,-0.171527,0.334231,0.086702,0.370737,2.870025,-4.776741,0.158496,0.038020,0.051308,0.000000,0.010134,-0.031472,0.000000
4.630000,3.238453,-0.335544,-1.476301,0.312433,-0.050678,0.038538,-0.509093,0.380805,-0.167811,0.362341,0.039981,0.372249,2.746031,-4.567892,0.142194,0.038097,0.050978,0.000000,0.005483,-0.034297,0.000000
4.640000,3.241552,-0.336032,-1.475924,0.307360,-0.046868,0.036879,-0.505332,0.380976,-0.164082,0.389151,-0.004656,0.373581,2.614231,-4.357042,0.125252,0.038129,0.050621,0.000000,0.001033,-0.036997,0.000000
4.650000,3.244600,-0.336481,-1.475564,0.302326,-0.043059,0.035256,-0.501310,0.380711,-0.160340,0.414625,-0.047159,0.374754,2.477109,-4.141126,0.110009,0.038118,0.050238,0.000000,-0.003210,-0.039567,0.000000
4.660000,3.247598,-0.336893,-1.475219,0.297334,-0.039254,0.033672,-0.497040,0.380033,-0.156587,0.438693,-0.087479,0.375781,2.329371,-3.925095,0.092257,0.038065,0.049829,0.000000,-0.007240,-0.042001,-0.000000
4.670000,3.250547,-0.337267,-1.474890,0.292385,-0.035458,0.032125,-0.492536,0.378962,-0.152824,0.461213,-0.125661,0.376599,2.164966,-3.719353,0.064673,0.037973,0.049397,0.000000,-0.011062,-0.044284,0.000000
4.680000,3.253446,-0.337602,-1.474577,0.287483,-0.031675,0.030615,-0.487815,0.377519,-0.149055,0.481993,-0.161866,0.377075,1.985634,-3.523600,0.028120,0.037844,0.048943,0.000000,-0.014693,-0.046398,0.000000
4.690000,3.256297,-0.337900,-1.474278,0.282629,-0.027908,0.029144,-0.482896,0.375725,-0.145283,0.500925,-0.196133,0.377162,1.800021,-3.324574,-0.008104,0.037679,0.048469,0.000000,-0.018136,-0.048332,0.000000
4.700000,3.259099,-0.338160,-1.473994,0.277825,-0.024160,0.027710,-0.477797,0.373597,-0.141512,0.517993,-0.228357,0.376913,1.610797,-3.117238,-0.042831,0.037481,0.047976,0.000000,-0.021380,-0.050083,-0.000000
4.710000,3.261853,-0.338383,-1.473724,0.273073,-0.020436,0.026313,-0.472536,0.371157,-0.137744,0.533141,-0.258478,0.376305,1.412598,-2.911319,-0.082608,0.037251,0.047466,0.000000,-0.024419,-0.051645,-0.000000
4.720000,3.264560,-0.338569,-1.473467,0.268375,-0.016737,0.024955,-0.467134,0.368427,-0.133985,0.546245,-0.286584,0.375260,1.200259,-2.720037,-0.129789,0.036993,0.046942,0.000000,-0.027262,-0.053006,0.000000
4.730000,3.267221,-0.338718,-1.473225,0.263731,-0.013067,0.023634,-0.461611,0.365426,-0.130239,0.557146,-0.312879,0.373709,0.975953,-2.541405,-0.182523,0.036706,0.046405,0.000000,-0.029929,-0.054150,-0.000000
4.740000,3.269835,-0.338830,-1.472995,0.259142,-0.009429,0.022350,-0.455991,0.362170,-0.126511,0.565764,-0.337412,0.371610,0.747232,-2.358289,-0.238345,0.036394,0.045858,0.000000,-0.032424,-0.055069,-0.000000
4.750000,3.272403,-0.338907,-1.472778,0.254611,-0.005824,0.021103,-0.450296,0.358677,-0.122807,0.572091,-0.360045,0.368943,0.515169,-2.164509,-0.295798,0.036058,0.045303,0.000000,-0.034734,-0.055761,0.000000
4.760000,3.274927,-0.338947,-1.472573,0.250136,-0.002255,0.019894,-0.444549,0.354969,-0.119132,0.576068,-0.380702,0.365694,0.275408,-1.972084,-0.356733,0.035699,0.044742,0.000000,-0.036851,-0.056220,-0.000000
4.770000,3.277406,-0.338952,-1.472380,0.245720,0.001275,0.018721,-0.438775,0.351063,-0.115493,0.577599,-0.399486,0.361808,0.027446,-1.796690,-0.425997,0.035321,0.044178,0.000000,-0.038785,-0.056436,0.000000
4.780000,3.279841,-0.338921,-1.472198,0.241361,0.004766,0.017584,-0.432997,0.346979,-0.111896,0.576616,-0.416636,0.357174,-0.226493,-1.636159,-0.502991,0.034924,0.043613,0.000000,-0.040558,-0.056403,0.000000
4.790000,3.282233,-0.338856,-1.472028,0.237060,0.008215,0.016483,-0.427242,0.342731,-0.108350,0.573069,-0.432209,0.351748,-0.485123,-1.469454,-0.581363,0.034509,0.043049,0.000000,-0.042178,-0.056113,-0.000000
4.800000,3.284583,-0.338757,-1.471869,0.232816,0.011621,0.015417,-0.421536,0.338335,-0.104861,0.566914,-0.446025,0.345547,-0.748785,-1.283876,-0.662141,0.034080,0.042490,0.000000,-0.043625,-0.055564,-0.000000
4.810000,3.286890,-0.338624,-1.471720,0.228629,0.014982,0.014386,-0.415904,0.333810,-0.101439,0.558094,-0.457887,0.338505,-1.017407,-1.094126,-0.749524,0.033637,0.041937,0.000000,-0.044880,-0.054747,-0.000000
4.820000,3.289155,-0.338457,-1.471581,0.224498,0.018297,0.013388,-0.410374,0.329177,-0.098091,0.546566,-0.467907,0.330556,-1.288616,-0.933144,-0.839448,0.033182,0.041394,0.000000,-0.045952,-0.053660,0.000000
4.830000,3.291380,-0.338258,-1.471452,0.220422,0.021565,0.012424,-0.404973,0.324452,-0.094828,0.532321,-0.476550,0.321716,-1.561744,-0.796520,-0.930321,0.032718,0.040864,0.000000,-0.046889,-0.052300,-0.000000
4.840000,3.293564,-0.338026,-1.471332,0.216399,0.024786,0.011492,-0.399728,0.319646,-0.091657,0.515331,-0.483838,0.311950,-1.839027,-0.639255,-1.028183,0.032245,0.040348,0.000000,-0.047693,-0.050664,-0.000000
4.850000,3.295708,-0.337762,-1.471222,0.212427,0.027958,0.010591,-0.394666,0.314775,-0.088589,0.495541,-0.489335,0.301153,-2.120295,-0.457168,-1.133861,0.031764,0.039850,0.000000,-0.048318,-0.048747,-0.000000
4.860000,3.297812,-0.337467,-1.471121,0.208505,0.031081,0.009720,-0.389817,0.309859,-0.085634,0.472925,-0.492981,0.289273,-2.403240,-0.279566,-1.243280,0.031278,0.039372,0.000000,-0.048760,-0.046545,-0.000000
4.870000,3.299878,-0.337141,-1.471028,0.204631,0.034155,0.008878,-0.385208,0.304916,-0.082803,0.447476,-0.494926,0.276287,-2.687252,-0.108216,-1.356154,0.030789,0.038919,0.000000,-0.049032,-0.044057,0.000000
4.880000,3.301905,-0.336784,-1.470943,0.200801,0.037180,0.008064,-0.380867,0.299961,-0.080108,0.419180,-0.495145,0.262150,-2.972528,0.068066,-1.473987,0.030298,0.038491,0.000000,-0.049131,-0.041283,-0.000000
4.890000,3.303894,-0.336397,-1.470866,0.197013,0.040155,0.007276,-0.376824,0.295013,-0.077560,0.388026,-0.493565,0.246807,-3.258666,0.250746,-1.596939,0.029806,0.038092,0.000000,-0.049050,-0.038220,0.000000
4.900000,3.305845,-0.335981,-1.470798,0.193265,0.043080,0.006513,-0.373107,0.290090,-0.075172,0.354007,-0.490130,0.230211,-3.545132,0.439211,-1.724880,0.029317,0.037726,0.000000,-0.048784,-0.034868,-0.000000
4.910000,3.307759,-0.335535,-1.470736,0.189551,0.045956,0.005772,-0.369744,0.285210,-0.072956,0.317123,-0.484781,0.212310,-3.831475,0.634185,-1.857868,0.028831,0.037395,0.000000,-0.048324,-0.031227,-0.000000
4.920000,3.309636,-0.335062,-1.470682,0.185870,0.048784,0.005054,-0.366764,0.280394,-0.070926,0.277377,-0.477447,0.193053,-4.117249,0.836472,-1.995972,0.028350,0.037101,0.000000,-0.047666,-0.027298,0.000000
4.930000,3.311476,-0.334560,-1.470635,0.182216,0.051564,0.004354,-0.364196,0.275661,-0.069095,0.234778,-0.468051,0.172390,-4.402003,1.046878,-2.139270,0.027877,0.036849,0.000000,-0.046799,-0.023081,-0.000000
4.940000,3.313280,-0.334030,-1.470595,0.178586,0.054297,0.003672,-0.362069,0.271033,-0.067478,0.189337,-0.456509,0.150268,-4.685294,1.266205,-2.287823,0.027414,0.036640,0.000000,-0.045716,-0.018579,0.000000
4.950000,3.315048,-0.333474,-1.470562,0.174975,0.056985,0.003004,-0.360410,0.266531,-0.066090,0.141072,-0.442727,0.126634,-4.966682,1.495256,-2.441684,0.026963,0.036477,0.000000,-0.044407,-0.013793,0.000000
4.960000,3.316780,-0.332891,-1.470535,0.171378,0.059628,0.002350,-0.359247,0.262178,-0.064945,0.090004,-0.426604,0.101434,-5.245709,1.734836,-2.600937,0.026526,0.036364,0.000000,-0.042861,-0.008726,-0.000000
4.970000,3.318476,-0.332281,-1.470515,0.167790,0.062228,0.001705,-0.358610,0.257999,-0.064061,0.036158,-0.408030,0.074615,219.453518,-152.193340,36.642318,0.026106,0.036302,0.000000,-0.041068,-0.003382,-0.000000
4.980000,3.320136,-0.331646,-1.470501,0.164205,0.064788,0.001069,-0.358524,0.254018,-0.063453,4.479074,-3.470471,0.834281,445.919247,-301.895197,76.075707,0.025705,0.036296,0.000000,-0.348441,-0.449838,-0.000000
4.990000,3.321760,-0.330985,-1.470493,0.160619,0.067309,0.000436,-0.269028,0.188590,-0.047375,8.954543,-6.445934,1.596129,224.020399,-143.928654,37.510506,0.019122,0.027285,0.000000,-0.649871,-0.903153,0.000000
5.000000,3.323348,-0.330300,-1.470492,0.158825,0.068560,0.000121,-0.179433,0.125099,-0.031530,8.959482,-6.349044,1.584491,0.493912,9.689046,-1.163843,0.012709,0.018230,0.000000,-0.642660,-0.907065,0.000000
