time,x,y,z,vx,vy,vz,ax,ay,az,jx,jy,jz,sx,sy,sz,roll,pitch,yaw,p,q,r
0.000000,-2.699631,-0.360548,-1.463518,0.010952,-0.025037,-0.002866,0.035652,0.464069,0.091096,-1.163451,-4.892022,-3.491503,89.273720,77.034852,81.034737,0.047712,-0.003668,0.000000,-0.519296,0.120889,0.000000
0.010000,-2.699519,-0.360776,-1.463543,0.011265,-0.020628,-0.002117,0.028296,0.418849,0.060009,-0.325932,-4.166759,-2.747655,78.374820,68.137604,67.972779,0.042932,-0.002902,0.000000,-0.438651,0.034215,-0.000000
0.020000,-2.699405,-0.360962,-1.463562,0.011545,-0.016637,-0.001643,0.028785,0.380449,0.035731,0.406879,-3.526924,-2.127414,68.326097,59.944009,56.300887,0.038904,-0.002945,0.000000,-0.368754,-0.040955,-0.000000
0.030000,-2.699288,-0.361110,-1.463577,0.011864,-0.012999,-0.001383,0.036113,0.348048,0.017094,1.043305,-2.965637,-1.617248,59.091879,52.422857,45.945645,0.035526,-0.003688,0.000000,-0.308327,-0.105860,-0.000000
0.040000,-2.699168,-0.361223,-1.463590,0.012286,-0.009659,-0.001286,0.049356,0.320896,0.003062,1.591313,-2.476330,-1.204357,50.636482,45.542947,36.833636,0.032709,-0.005033,0.000000,-0.256275,-0.161555,0.000000
0.050000,-2.699042,-0.361304,-1.463603,0.012868,-0.006566,-0.001310,0.067670,0.298303,-0.007277,2.058509,-2.052745,-0.876677,42.923997,39.273012,28.891335,0.030375,-0.006893,0.000000,-0.211652,-0.208960,-0.000000
0.060000,-2.698910,-0.361355,-1.463616,0.013654,-0.003680,-0.001422,0.090281,0.279642,-0.014718,2.452150,-1.688940,-0.622876,35.919039,33.581909,22.045448,0.028454,-0.009189,0.000000,-0.173629,-0.248885,-0.000000
0.070000,-2.698768,-0.361378,-1.463631,0.014685,-0.000962,-0.001597,0.116490,0.264344,-0.019946,2.779129,-1.379282,-0.432358,29.585799,28.438400,16.222508,0.026883,-0.011850,0.000000,-0.141475,-0.282058,-0.000000
0.080000,-2.698615,-0.361375,-1.463648,0.015994,0.001617,-0.001815,0.145664,0.251893,-0.023543,3.045986,-1.118451,-0.295261,23.888557,23.811275,11.349113,0.025607,-0.014812,0.000000,-0.114537,-0.309141,0.000000
0.090000,-2.698447,-0.361346,-1.463668,0.017607,0.004083,-0.002064,0.177230,0.241829,-0.025999,3.258901,-0.901439,-0.202456,18.791538,19.669324,7.351876,0.024577,-0.018017,0.000000,-0.092229,-0.330746,-0.000000
0.100000,-2.698262,-0.361294,-1.463690,0.019545,0.006460,-0.002333,0.210681,0.233734,-0.027712,3.423703,-0.723551,-0.145551,14.259521,15.981347,4.157056,0.023749,-0.021412,0.000000,-0.074018,-0.347444,-0.000000
0.110000,-2.698055,-0.361217,-1.463714,0.021825,0.008763,-0.002617,0.245562,0.227242,-0.029004,3.545856,-0.580403,-0.116885,10.256273,12.716115,1.691623,0.023085,-0.024953,0.000000,-0.059422,-0.359771,-0.000000
0.120000,-2.697824,-0.361119,-1.463742,0.024459,0.011009,-0.002912,0.281473,0.222024,-0.030121,3.630473,-0.467923,-0.109533,6.746294,9.842424,-0.117999,0.022550,-0.028597,0.000000,-0.047997,-0.368233,0.000000
0.130000,-2.697565,-0.360997,-1.463773,0.027457,0.013207,-0.003219,0.318063,0.217794,-0.031245,3.682307,-0.382353,-0.117303,3.693856,7.329059,-1.345220,0.022116,-0.032308,0.000000,-0.039343,-0.373304,0.000000
0.140000,-2.697274,-0.360855,-1.463807,0.030822,0.015367,-0.003538,0.355025,0.214299,-0.032499,3.705756,-0.320245,-0.134740,1.063172,5.144806,-2.063402,0.021755,-0.036055,0.000000,-0.033093,-0.375434,-0.000000
0.150000,-2.696947,-0.360690,-1.463844,0.034558,0.017495,-0.003870,0.392097,0.211321,-0.033956,3.704857,-0.278464,-0.157119,-1.181634,3.258452,-2.345810,0.021447,-0.039810,0.000000,-0.028915,-0.375041,-0.000000
0.160000,-2.696581,-0.360505,-1.463884,0.038663,0.019595,-0.004218,0.429053,0.208671,-0.035644,3.683308,-0.254186,-0.180457,-3.074643,1.638862,-2.266773,0.021171,-0.043550,0.000000,-0.026513,-0.372516,-0.000000
0.170000,-2.696173,-0.360298,-1.463928,0.043138,0.021669,-0.004583,0.465705,0.206187,-0.037557,3.644419,-0.244902,-0.201494,-4.653590,0.254718,-1.898668,0.020911,-0.047256,0.000000,-0.025623,-0.368212,-0.000000
0.180000,-2.695717,-0.360071,-1.463976,0.047976,0.023719,-0.004969,0.501894,0.203731,-0.039658,3.591167,-0.248411,-0.217712,-5.953397,-0.925144,-1.315266,0.020654,-0.050911,0.000000,-0.026015,-0.362453,-0.000000
0.190000,-2.695212,-0.359824,-1.464027,0.053173,0.025743,-0.005377,0.537489,0.201183,-0.041889,3.526163,-0.262828,-0.227326,-7.009733,-1.931926,-0.589929,0.020388,-0.054503,0.000000,-0.027493,-0.355526,-0.000000
0.200000,-2.694653,-0.359557,-1.464083,0.058723,0.027742,-0.005807,0.572385,0.198443,-0.044179,3.451664,-0.286577,-0.229286,-7.858347,-2.796908,0.203545,0.020101,-0.058020,0.000000,-0.029895,-0.347679,-0.000000
0.210000,-2.694036,-0.359269,-1.464144,0.064618,0.029711,-0.006261,0.606398,0.195318,-0.046777,3.346848,-0.342838,-0.298530,-8.984029,-4.034347,-0.495470,0.019776,-0.061443,0.000000,-0.035711,-0.336346,-0.000000
0.220000,-2.693359,-0.358963,-1.464209,0.070849,0.031647,-0.006742,0.639620,0.191904,-0.049071,3.310161,-0.326423,-0.114515,-2.300659,3.060752,24.139723,0.019421,-0.064786,0.000000,-0.033673,-0.333527,0.000000
0.230000,-2.692618,-0.358637,-1.464279,0.077409,0.033549,-0.007236,0.672387,0.188554,-0.049703,3.217901,-0.371030,-0.092037,-16.253738,-12.101734,-20.060172,0.019077,-0.068090,0.000000,-0.038130,-0.324166,-0.000000
0.240000,-2.691810,-0.358292,-1.464353,0.084291,0.035414,-0.007742,0.703748,0.184230,-0.051616,3.065852,-0.481758,-0.249684,-10.126695,-5.717848,1.806958,0.018632,-0.071242,0.000000,-0.049591,-0.307461,-0.000000
0.250000,-2.690931,-0.357928,-1.464433,0.091481,0.037232,-0.008269,0.734000,0.179230,-0.053670,2.981691,-0.521769,-0.168768,-10.685698,-6.572017,1.132310,0.018119,-0.074278,0.000000,-0.053448,-0.299310,0.000000
0.260000,-2.689979,-0.357547,-1.464519,0.098968,0.038997,-0.008814,0.763255,0.173659,-0.055305,2.868317,-0.593632,-0.158098,-10.996252,-7.151855,1.256937,0.017549,-0.077214,0.000000,-0.060648,-0.287741,-0.000000
0.270000,-2.688951,-0.357149,-1.464610,0.106742,0.040703,-0.009374,0.791437,0.167391,-0.056807,2.771061,-0.658722,-0.141307,-9.388066,-6.473903,1.849286,0.016909,-0.080041,0.000000,-0.067148,-0.277870,-0.000000
0.280000,-2.687844,-0.356733,-1.464706,0.114794,0.042343,-0.009949,0.818626,0.160440,-0.058139,2.660933,-0.735889,-0.126403,-12.653929,-8.968968,1.121315,0.016201,-0.082767,0.000000,-0.074863,-0.266716,-0.000000
0.290000,-2.686654,-0.356302,-1.464809,0.123111,0.043909,-0.010537,0.844603,0.152627,-0.059345,2.537401,-0.825403,-0.113875,-11.084225,-8.300519,1.634002,0.015407,-0.085370,0.000000,-0.083822,-0.254220,0.000000
0.300000,-2.685381,-0.355855,-1.464917,0.131682,0.045392,-0.011136,0.869449,0.143969,-0.060394,2.431341,-0.907026,-0.095912,-11.071352,-8.638021,1.704950,0.014529,-0.087860,0.000000,-0.091973,-0.243555,0.000000
0.310000,-2.684020,-0.355395,-1.465032,0.140496,0.046785,-0.011744,0.893197,0.134454,-0.061271,2.318025,-0.996687,-0.079412,-11.002520,-8.926765,1.758603,0.013564,-0.090239,0.000000,-0.100933,-0.232175,-0.000000
0.320000,-2.682570,-0.354920,-1.465152,0.149542,0.048078,-0.012361,0.915860,0.124056,-0.061967,2.216832,-1.082099,-0.059274,-9.793335,-8.497217,2.106886,0.012512,-0.092509,0.000000,-0.109460,-0.222072,0.000000
0.330000,-2.681028,-0.354433,-1.465279,0.158810,0.049263,-0.012983,0.937512,0.112788,-0.062463,2.110438,-1.173818,-0.040677,-11.496005,-9.850529,1.605371,0.011373,-0.094678,0.000000,-0.118626,-0.211458,0.000000
0.340000,-2.679393,-0.353935,-1.465412,0.168289,0.050331,-0.013609,0.958046,0.100556,-0.062789,1.998484,-1.271914,-0.023975,-10.317834,-9.409812,1.894361,0.010137,-0.096736,0.000000,-0.128436,-0.200291,-0.000000
0.350000,-2.677662,-0.353427,-1.465551,0.177967,0.051271,-0.014238,0.977535,0.087373,-0.062929,1.899339,-1.364881,-0.004199,-10.073952,-9.528816,1.897678,0.008807,-0.098690,0.000000,-0.137731,-0.190462,-0.000000
0.360000,-2.675833,-0.352910,-1.465697,0.187836,0.052075,-0.014867,0.996020,0.073242,-0.062879,1.798052,-1.461717,0.014220,-9.805433,-9.613939,1.888333,0.007381,-0.100544,0.000000,-0.147422,-0.180424,0.000000
0.370000,-2.673905,-0.352386,-1.465848,0.197885,0.052733,-0.015495,1.013535,0.058155,-0.062637,1.706749,-1.555036,0.034490,-8.813763,-9.256514,2.063080,0.005860,-0.102303,0.000000,-0.156763,-0.171426,-0.000000
0.380000,-2.671875,-0.351856,-1.466006,0.208104,0.053235,-0.016119,1.030149,0.042130,-0.062194,1.614241,-1.651192,0.053334,-9.695893,-9.975909,1.701110,0.004244,-0.103972,0.000000,-0.166400,-0.162309,0.000000
0.390000,-2.669742,-0.351322,-1.466171,0.218484,0.053572,-0.016738,1.045812,0.025120,-0.061576,1.520218,-1.750162,0.070526,-8.740319,-9.599035,1.838004,0.002530,-0.105548,0.000000,-0.176328,-0.153038,-0.000000
0.400000,-2.667505,-0.350785,-1.466341,0.229017,0.053734,-0.017350,1.060593,0.007145,-0.060777,1.436363,-1.844892,0.089201,-8.392176,-9.555636,1.794977,0.000720,-0.107037,0.000000,-0.185839,-0.144816,0.000000
0.410000,-2.665161,-0.350248,-1.466518,0.239693,0.053712,-0.017953,1.074537,-0.011784,-0.059797,1.352972,-1.940737,0.106750,-8.037287,-9.484095,1.749239,-0.001187,-0.108444,0.000000,-0.195474,-0.136640,0.000000
0.420000,-2.662710,-0.349712,-1.466700,0.250505,0.053496,-0.018545,1.087685,-0.031657,-0.058641,1.277916,-2.033337,0.124494,-7.212817,-9.152325,1.764862,-0.003189,-0.109773,0.000000,-0.204793,-0.129311,-0.000000
0.430000,-2.660151,-0.349179,-1.466889,0.261445,0.053076,-0.019125,1.100097,-0.052452,-0.057310,1.203698,-2.126232,0.141323,-7.637587,-9.426129,1.599475,-0.005283,-0.111031,0.000000,-0.214153,-0.122066,0.000000
0.440000,-2.657481,-0.348651,-1.467083,0.272505,0.052443,-0.019691,1.111758,-0.074183,-0.055818,1.130022,-2.219330,0.157167,-6.855287,-9.067101,1.603550,-0.007472,-0.112215,0.000000,-0.223546,-0.114872,0.000000
0.450000,-2.654700,-0.348130,-1.467282,0.283678,0.051589,-0.020241,1.122729,-0.096824,-0.054166,1.064540,-2.308527,0.173103,-6.483099,-8.889960,1.549241,-0.009752,-0.113331,0.000000,-0.232559,-0.108506,0.000000
0.460000,-2.651807,-0.347620,-1.467487,0.294957,0.050504,-0.020774,1.133052,-0.120352,-0.052358,1.000693,-2.396736,0.188482,-6.116534,-8.687457,1.501060,-0.012123,-0.114385,0.000000,-0.241484,-0.102304,-0.000000
0.470000,-2.648801,-0.347121,-1.467698,0.306337,0.049179,-0.021288,1.142769,-0.144747,-0.050400,0.943761,-2.481642,0.202894,-5.435696,-8.348287,1.406884,-0.014581,-0.115380,0.000000,-0.250087,-0.096787,0.000000
0.480000,-2.645680,-0.346637,-1.467913,0.317811,0.047606,-0.021781,1.151932,-0.169979,-0.048300,0.888495,-2.564855,0.217159,-5.623767,-8.292370,1.447685,-0.017124,-0.116321,0.000000,-0.258532,-0.091438,-0.000000
0.490000,-2.642444,-0.346170,-1.468133,0.329373,0.045777,-0.022253,1.160542,-0.196038,-0.046057,0.834602,-2.646228,0.231355,-4.989508,-7.919293,1.367088,-0.019751,-0.117209,0.000000,-0.266804,-0.086230,-0.000000
0.500000,-2.639092,-0.345722,-1.468358,0.341020,0.043683,-0.022702,1.168649,-0.222890,-0.043676,0.787259,-2.723669,0.244738,-4.646551,-7.624192,1.335665,-0.022459,-0.118049,0.000000,-0.274689,-0.081671,0.000000
0.510000,-2.635624,-0.345297,-1.468587,0.352745,0.041317,-0.023126,1.176292,-0.250503,-0.041161,0.741840,-2.798412,0.258360,-4.316359,-7.305194,1.317717,-0.025244,-0.118844,0.000000,-0.282315,-0.077309,-0.000000
0.520000,-2.632037,-0.344897,-1.468821,0.364544,0.038670,-0.023525,1.183506,-0.278846,-0.038515,0.702022,-2.869556,0.270454,-3.767942,-6.935238,1.172680,-0.028104,-0.119598,0.000000,-0.289583,-0.073491,0.000000
0.530000,-2.628332,-0.344525,-1.469058,0.376414,0.035737,-0.023896,1.190337,-0.307883,-0.035749,0.663944,-2.937368,0.283317,-3.853413,-6.624194,1.403538,-0.031035,-0.120315,0.000000,-0.296527,-0.069858,0.000000
0.540000,-2.624509,-0.344183,-1.469298,0.388350,0.032511,-0.024239,1.196789,-0.337582,-0.032845,0.627318,-3.001661,0.297138,-3.353989,-6.215624,1.291713,-0.034033,-0.120996,0.000000,-0.303131,-0.066384,0.000000
0.550000,-2.620565,-0.343876,-1.469542,0.400348,0.028984,-0.024553,1.202902,-0.367902,-0.029811,0.595785,-3.061744,0.309790,-3.072991,-5.812910,1.310708,-0.037096,-0.121645,0.000000,-0.309314,-0.063405,-0.000000
0.560000,-2.616502,-0.343605,-1.469789,0.412407,0.025151,-0.024835,1.208709,-0.398803,-0.026645,0.565894,-3.117719,0.323597,-2.809095,-5.388264,1.347995,-0.040218,-0.122265,0.000000,-0.315097,-0.060607,-0.000000
0.570000,-2.612317,-0.343374,-1.470039,0.424522,0.021006,-0.025085,1.214237,-0.430243,-0.023346,0.540458,-3.169531,0.335825,-2.376183,-4.961817,1.201106,-0.043396,-0.122860,0.000000,-0.320461,-0.058235,-0.000000
0.580000,-2.608011,-0.343186,-1.470291,0.436691,0.016544,-0.025302,1.219522,-0.462178,-0.019922,0.516314,-3.216699,0.349794,-2.458268,-4.468300,1.598014,-0.046626,-0.123432,0.000000,-0.325373,-0.056015,0.000000
0.590000,-2.603583,-0.343044,-1.470545,0.448911,0.011761,-0.025483,1.224566,-0.494560,-0.016343,0.493172,-3.259021,0.365770,-2.076389,-4.002297,1.496581,-0.049902,-0.123982,0.000000,-0.329816,-0.053922,0.000000
0.600000,-2.599033,-0.342951,-1.470800,0.461181,0.006652,-0.025628,1.229400,-0.527343,-0.012612,0.473913,-3.296605,0.380640,-1.874239,-3.502414,1.581903,-0.053221,-0.124513,0.000000,-0.333784,-0.052204,-0.000000
0.610000,-2.594359,-0.342912,-1.471057,0.473499,0.001213,-0.025735,1.234046,-0.560475,-0.008722,0.455670,-3.328923,0.397571,-1.691940,-2.982705,1.686017,-0.056576,-0.125027,0.000000,-0.337243,-0.050615,0.000000
0.620000,-2.589562,-0.342928,-1.471315,0.485861,-0.004559,-0.025802,1.238526,-0.593905,-0.004666,0.440799,-3.356427,0.413278,-1.367348,-2.491575,1.575540,-0.059964,-0.125528,0.000000,-0.340217,-0.049350,0.000000
0.630000,-2.584642,-0.343004,-1.471573,0.498269,-0.010666,-0.025828,1.242864,-0.627584,-0.000447,0.426537,-3.378201,0.431601,-1.490329,-1.859741,2.094715,-0.063379,-0.126016,0.000000,-0.342641,-0.048180,-0.000000
0.640000,-2.579597,-0.343143,-1.471831,0.510718,-0.017111,-0.025810,1.247057,-0.661450,0.003976,0.412603,-3.394049,0.452823,-1.216030,-1.331110,2.032372,-0.066815,-0.126494,0.000000,-0.344499,-0.047081,-0.000000
0.650000,-2.574427,-0.343347,-1.472089,0.523209,-0.023896,-0.025747,1.251127,-0.695448,0.008605,0.401464,-3.404567,0.473302,-1.098472,-0.746346,2.183804,-0.070267,-0.126961,0.000000,-0.345829,-0.046254,0.000000
0.660000,-2.569133,-0.343622,-1.472346,0.535740,-0.031020,-0.025637,1.255086,-0.729520,0.013453,0.390607,-3.408860,0.496591,-1.000562,-0.144475,2.351952,-0.073729,-0.127421,0.000000,-0.346566,-0.045493,0.000000
0.670000,-2.563712,-0.343969,-1.472602,0.548311,-0.038486,-0.025478,1.258948,-0.763607,0.018533,0.382091,-3.407729,0.519237,-0.778054,0.406567,2.298807,-0.077197,-0.127874,0.000000,-0.346768,-0.044961,-0.000000
0.680000,-2.558166,-0.344393,-1.472856,0.560919,-0.046292,-0.025266,1.262727,-0.797652,0.023849,0.373463,-3.399976,0.545116,-0.952412,1.147291,2.882252,-0.080663,-0.128323,0.000000,-0.346345,-0.044462,0.000000
0.690000,-2.552494,-0.344896,-1.473107,0.573565,-0.054439,-0.025000,1.266415,-0.831584,0.029448,0.364467,-3.385423,0.574481,-0.775724,1.731300,2.870804,-0.084121,-0.128767,0.000000,-0.345289,-0.043974,-0.000000
0.700000,-2.546695,-0.345483,-1.473355,0.586247,-0.062924,-0.024676,1.270024,-0.865342,0.035336,0.357285,-3.365022,0.603584,-0.737561,2.384871,3.071637,-0.087567,-0.129206,0.000000,-0.343662,-0.043667,0.000000
0.710000,-2.540769,-0.346156,-1.473600,0.598965,-0.071745,-0.024292,1.273559,-0.898861,0.041531,0.349706,-3.337641,0.635881,-0.716259,3.051877,3.282196,-0.090992,-0.129643,0.000000,-0.341387,-0.043366,-0.000000
0.720000,-2.534715,-0.346919,-1.473841,0.611718,-0.080900,-0.023844,1.277024,-0.932075,0.048052,0.343507,-3.304329,0.668264,-0.587974,3.651979,3.298199,-0.094392,-0.130078,0.000000,-0.338540,-0.043208,-0.000000
0.730000,-2.528534,-0.347775,-1.474077,0.624505,-0.090385,-0.023330,1.280426,-0.964923,0.054909,0.336594,-3.263731,0.704020,-0.798581,4.470348,3.856475,-0.097761,-0.130511,0.000000,-0.335021,-0.043026,0.000000
0.740000,-2.522225,-0.348727,-1.474307,0.637326,-0.100197,-0.022745,1.283752,-0.997325,0.062145,0.328759,-3.215704,0.743311,-0.707413,5.096096,3.897624,-0.101091,-0.130942,0.000000,-0.330821,-0.042803,-0.000000
0.750000,-2.515788,-0.349780,-1.474532,0.650180,-0.110330,-0.022086,1.287006,-1.029217,0.069774,0.321876,-3.161443,0.782854,-0.733862,5.797447,4.114720,-0.104375,-0.131372,0.000000,-0.326027,-0.042683,0.000000
0.760000,-2.509221,-0.350935,-1.474749,0.663066,-0.120779,-0.021348,1.290186,-1.060528,0.077813,0.314098,-3.099639,0.825434,-0.772046,6.508578,4.330753,-0.107609,-0.131800,0.000000,-0.320540,-0.042519,-0.000000
0.770000,-2.502526,-0.352196,-1.474958,0.675984,-0.131538,-0.020528,1.293290,-1.091190,0.086284,0.306877,-3.031768,0.868811,-0.723286,7.120453,4.411832,-0.110784,-0.132228,0.000000,-0.314485,-0.042427,-0.000000
0.780000,-2.495702,-0.353567,-1.475159,0.688932,-0.142601,-0.019621,1.296320,-1.121137,0.095200,0.298560,-2.956082,0.915076,-0.942975,8.018962,4.841968,-0.113896,-0.132654,0.000000,-0.307712,-0.042268,0.000000
0.790000,-2.488747,-0.355049,-1.475350,0.701910,-0.153958,-0.018622,1.299257,-1.150285,0.104596,0.289002,-2.872474,0.964250,-0.919372,8.648185,4.922955,-0.116936,-0.133078,0.000000,-0.300212,-0.042030,-0.000000
0.800000,-2.481663,-0.356647,-1.475531,0.714917,-0.165603,-0.017527,1.302101,-1.178567,0.114486,0.279726,-2.782650,1.014086,-0.986836,9.371197,5.110379,-0.119898,-0.133501,0.000000,-0.292129,-0.041835,0.000000
0.810000,-2.474449,-0.358362,-1.475701,0.727951,-0.177527,-0.016331,1.304848,-1.205910,0.124886,0.269411,-2.684832,1.066266,-1.057921,10.100640,5.285491,-0.122776,-0.133921,0.000000,-0.283305,-0.041574,0.000000
0.820000,-2.467104,-0.360198,-1.475857,0.741013,-0.189718,-0.015028,1.307489,-1.232246,0.135814,0.258730,-2.581486,1.119400,-1.097141,10.656915,5.375637,-0.125563,-0.134338,0.000000,-0.273969,-0.041295,0.000000
0.830000,-2.459629,-0.362158,-1.476001,0.754101,-0.202168,-0.013613,1.310019,-1.257512,0.147281,0.247074,-2.469838,1.174496,-1.235005,11.674704,5.641789,-0.128253,-0.134753,0.000000,-0.263853,-0.040951,0.000000
0.840000,-2.452022,-0.364242,-1.476129,0.767213,-0.214865,-0.012080,1.312427,-1.281615,0.159310,0.234398,-2.349808,1.231432,-1.281841,12.240501,5.704923,-0.130837,-0.135164,0.000000,-0.252945,-0.040535,0.000000
0.850000,-2.444284,-0.366456,-1.476242,0.780349,-0.227796,-0.010425,1.314706,-1.304491,0.171910,0.221278,-2.224289,1.288842,-1.360523,12.951412,5.810576,-0.133310,-0.135571,0.000000,-0.241513,-0.040088,-0.000000
0.860000,-2.436415,-0.368799,-1.476337,0.793507,-0.240950,-0.008640,1.316850,-1.326073,0.185089,0.207373,-2.090935,1.346971,-1.434417,13.654628,5.882564,-0.135665,-0.135973,0.000000,-0.229321,-0.039578,-0.000000
0.870000,-2.428414,-0.371275,-1.476414,0.806686,-0.254313,-0.006721,1.318850,-1.346292,0.198857,0.192490,-1.951815,1.407052,-1.529843,14.228705,6.061353,-0.137895,-0.136369,0.000000,-0.216588,-0.039001,0.000000
0.880000,-2.420281,-0.373886,-1.476471,0.819883,-0.267871,-0.004661,1.320698,-1.365084,0.213228,0.177039,-1.805117,1.466683,-1.559333,15.110560,5.858164,-0.139994,-0.136760,0.000000,-0.203092,-0.038367,-0.000000
0.890000,-2.412016,-0.376633,-1.476507,0.833099,-0.281610,-0.002454,1.322389,-1.382369,0.228188,0.161076,-1.650895,1.525495,-1.644485,15.669148,5.968142,-0.141954,-0.137144,0.000000,-0.188823,-0.037675,-0.000000
0.900000,-2.403619,-0.379519,-1.476520,0.846331,-0.295513,-0.000095,1.323916,-1.398085,0.243743,0.144268,-1.491264,1.585364,-1.703780,16.315558,5.931881,-0.143769,-0.137521,0.000000,-0.174014,-0.036917,0.000000
0.910000,-2.395090,-0.382544,-1.476508,0.859577,-0.309566,0.002422,1.325274,-1.412169,0.259889,0.127347,-1.324491,1.643668,-1.749445,16.948230,5.853819,-0.145432,-0.137890,0.000000,-0.158439,-0.036130,-0.000000
0.920000,-2.386428,-0.385711,-1.476471,0.872835,-0.323751,0.005104,1.326456,-1.424561,0.276623,0.108658,-1.153176,1.703531,-1.919022,17.395691,5.986706,-0.146936,-0.138251,0.000000,-0.142403,-0.035188,-0.000000
0.930000,-2.377633,-0.389019,-1.476406,0.886105,-0.338051,0.007957,1.327450,-1.435209,0.293949,0.090424,-0.974879,1.760630,-1.724113,18.262175,5.423459,-0.148277,-0.138601,0.000000,-0.125576,-0.034257,-0.000000
0.940000,-2.368706,-0.392472,-1.476311,0.899384,-0.352449,0.010985,1.328267,-1.444035,0.311824,0.072827,-0.789738,1.814443,-1.862718,18.675839,5.460876,-0.149445,-0.138943,0.000000,-0.107951,-0.033347,0.000000
0.950000,-2.359645,-0.396069,-1.476185,0.912670,-0.366926,0.014195,1.328900,-1.450992,0.330242,0.053790,-0.600733,1.868642,-1.874826,19.205162,5.245398,-0.150435,-0.139275,0.000000,-0.089877,-0.032296,0.000000
0.960000,-2.350452,-0.399811,-1.476027,0.925961,-0.381463,0.017592,1.329346,-1.456033,0.349182,0.035501,-0.406667,1.918966,-1.871318,19.687576,4.982200,-0.151240,-0.139597,0.000000,-0.071149,-0.031267,-0.000000
0.970000,-2.341126,-0.403698,-1.475833,0.939256,-0.396040,0.021180,1.329603,-1.459103,0.368625,0.015569,-0.206314,1.969716,-2.025804,20.294672,4.997509,-0.151855,-0.139907,0.000000,-0.051699,-0.030076,0.000000
0.980000,-2.331667,-0.407732,-1.475602,0.952553,-0.410638,0.024966,1.329662,-1.460149,0.388558,-0.003142,-0.002627,2.015346,-1.711918,20.433819,4.117003,-0.152273,-0.140206,0.000000,-0.031722,-0.028934,-0.000000
0.990000,-2.322075,-0.411911,-1.475333,0.965849,-0.425236,0.028953,1.329546,-1.459147,0.408912,-0.020402,0.203903,2.055247,-1.826382,20.948892,4.022475,-0.152488,-0.140493,0.000000,-0.011244,-0.027857,-0.000000
1.000000,-2.312350,-0.416236,-1.475023,0.979143,-0.439814,0.033146,1.329249,-1.456052,0.429663,-0.038882,0.415509,2.094262,-1.779793,21.282167,3.609035,-0.152495,-0.140769,0.000000,0.009898,-0.026638,-0.000000
1.010000,-2.302492,-0.420707,-1.474669,0.992433,-0.454350,0.037547,1.328774,-1.450827,0.450771,-0.056001,0.630035,2.126392,-1.718871,21.581794,3.132452,-0.152288,-0.141032,0.000000,0.031596,-0.025456,-0.000000
1.020000,-2.292501,-0.425323,-1.474271,1.005718,-0.468823,0.042162,1.328125,-1.443445,0.472201,-0.073928,0.846682,2.159750,-1.790062,21.772883,3.220830,-0.151862,-0.141283,0.000000,0.053649,-0.024203,0.000000
1.030000,-2.282378,-0.430083,-1.473825,1.018995,-0.483212,0.046992,1.327301,-1.433884,0.493934,-0.090201,1.066029,2.184130,-1.460369,22.089549,1.639643,-0.151213,-0.141522,0.000000,0.076294,-0.022983,0.000000
1.040000,-2.272122,-0.434987,-1.473330,1.032263,-0.497494,0.052041,1.326328,-1.422117,0.515848,-0.104605,1.287640,2.198748,-1.493711,22.190839,1.593724,-0.150334,-0.141749,0.000000,0.099511,-0.021808,0.000000
1.050000,-2.261733,-0.440033,-1.472784,1.045521,-0.511647,0.057310,1.325206,-1.408130,0.537914,-0.119404,1.509957,2.213217,-1.388855,22.296967,0.980481,-0.149222,-0.141963,0.000000,0.122993,-0.020581,0.000000
1.060000,-2.251211,-0.445219,-1.472184,1.058767,-0.525649,0.062800,1.323959,-1.391903,0.560081,-0.129599,1.735871,2.219026,-1.215670,22.399267,0.338673,-0.147872,-0.142166,0.000000,0.147194,-0.019701,0.000000
1.070000,-2.240557,-0.450545,-1.471527,1.072000,-0.539477,0.068512,1.322574,-1.373449,0.582286,-0.148908,1.953357,2.221389,-2.094818,21.550808,-0.028118,-0.146282,-0.142357,0.000000,0.170748,-0.017804,-0.000000
1.080000,-2.229771,-0.456008,-1.470813,1.085218,-0.553110,0.074446,1.321012,-1.352814,0.604479,-0.159925,2.176399,2.215069,-0.090831,23.061130,-1.245037,-0.144453,-0.142529,0.000000,0.195243,-0.016636,0.000000
1.090000,-2.218853,-0.461607,-1.470038,1.098420,-0.566526,0.080601,1.319410,-1.329898,0.626555,-0.161848,2.404987,2.199595,-0.849259,22.177339,-1.694504,-0.142373,-0.142696,0.000000,0.220692,-0.016282,0.000000
1.100000,-2.207803,-0.467338,-1.469200,1.111606,-0.579701,0.086976,1.317737,-1.304755,0.648459,-0.172199,2.623672,2.179757,-0.667425,22.013187,-2.434982,-0.140043,-0.142854,0.000000,0.245353,-0.014965,-0.000000
1.110000,-2.196621,-0.473200,-1.468297,1.124775,-0.592614,0.093569,1.315973,-1.277459,0.670116,-0.180735,2.833957,2.150354,-0.576656,21.572272,-3.210506,-0.137468,-0.142999,0.000000,0.269470,-0.013684,0.000000
1.120000,-2.185307,-0.479189,-1.467328,1.137925,-0.605243,0.100377,1.314163,-1.247967,0.691459,-0.179483,3.069044,2.117686,0.375702,23.937255,-3.556370,-0.134641,-0.143134,0.000000,0.296494,-0.013384,-0.000000
1.130000,-2.173863,-0.485304,-1.466289,1.151058,-0.617565,0.107397,1.312365,-1.216166,0.712433,-0.182699,3.281059,2.074336,-1.034194,18.406915,-5.122542,-0.131547,-0.143266,0.000000,0.321402,-0.012440,0.000000
1.140000,-2.162286,-0.491539,-1.465179,1.164172,-0.629560,0.114624,1.310488,-1.182443,0.732907,-0.191084,3.467201,2.019881,-0.189498,20.319913,-5.536415,-0.128223,-0.143382,0.000000,0.343849,-0.010760,0.000000
1.150000,-2.150579,-0.497894,-1.463996,1.177268,-0.641207,0.122053,1.308582,-1.146726,0.752822,-0.190381,3.674414,1.961609,-0.124159,19.606980,-6.350578,-0.124659,-0.143487,0.000000,0.368774,-0.009984,0.000000
1.160000,-2.138741,-0.504362,-1.462737,1.190344,-0.652488,0.129679,1.306663,-1.109014,0.772104,-0.193455,3.866697,1.893389,-0.083297,18.919569,-7.164812,-0.120853,-0.143581,0.000000,0.392353,-0.008638,0.000000
1.170000,-2.126772,-0.510942,-1.461402,1.203401,-0.663381,0.137493,1.304747,-1.069409,0.790673,-0.188312,4.053348,1.819506,0.714207,18.323842,-7.735565,-0.116813,-0.143665,0.000000,0.415520,-0.008079,-0.000000
1.180000,-2.114673,-0.517629,-1.459987,1.216439,-0.673870,0.145490,1.302880,-1.027977,0.808461,-0.187517,4.231367,1.736087,-0.568406,17.268987,-8.950538,-0.112545,-0.143741,0.000000,0.437945,-0.006894,-0.000000
1.190000,-2.102444,-0.524418,-1.458491,1.229458,-0.683935,0.153659,1.300977,-0.984813,0.825361,-0.191675,4.400128,1.643055,0.136287,16.553286,-9.527657,-0.108057,-0.143801,0.000000,0.459518,-0.005011,-0.000000
1.200000,-2.090084,-0.531306,-1.456913,1.242459,-0.693561,0.161994,1.299078,-0.939997,0.841306,-0.188201,4.561614,1.544519,0.159106,15.658697,-10.302017,-0.103357,-0.143845,0.000000,0.480389,-0.003858,-0.000000
1.210000,-2.077594,-0.538288,-1.455251,1.255440,-0.702730,0.170482,1.297214,-0.893602,0.856228,-0.184428,4.716237,1.438714,0.244761,14.779164,-11.028056,-0.098451,-0.143878,0.000000,0.500573,-0.002614,0.000000
1.220000,-2.064975,-0.545359,-1.453503,1.268403,-0.711428,0.179114,1.295364,-0.845741,0.870043,-0.186525,4.852649,1.322466,-0.325094,12.961913,-12.050971,-0.093353,-0.143895,0.000000,0.518805,-0.000556,0.000000
1.230000,-2.052226,-0.552515,-1.451668,1.281347,-0.719640,0.187879,1.293502,-0.796558,0.882662,-0.183811,4.985116,1.201279,0.878225,13.539693,-12.176266,-0.088076,-0.143891,0.000000,0.536559,0.001066,-0.000000
1.240000,-2.039348,-0.559750,-1.449745,1.294273,-0.727354,0.196764,1.291708,-0.746047,0.894055,-0.175831,5.113900,1.075680,0.374885,11.740982,-13.106195,-0.082623,-0.143875,0.000000,0.553826,0.002189,0.000000
1.250000,-2.026341,-0.567060,-1.447733,1.307181,-0.734557,0.205756,1.289961,-0.694351,0.904141,-0.173416,5.223803,0.940699,0.449602,10.701910,-13.716835,-0.077008,-0.143844,0.000000,0.568917,0.004075,0.000000
1.260000,-2.013205,-0.574439,-1.445630,1.320072,-0.741238,0.214842,1.288246,-0.641621,0.912853,-0.169496,5.319703,0.800706,0.483153,9.485618,-14.298052,-0.071250,-0.143794,0.000000,0.582290,0.005881,-0.000000
1.270000,-1.999940,-0.581883,-1.443435,1.332947,-0.747387,0.224008,1.286584,-0.587916,0.920135,-0.162388,5.422735,0.654662,0.793165,10.133274,-14.881378,-0.065358,-0.143727,0.000000,0.596256,0.007437,-0.000000
1.280000,-1.986546,-0.589385,-1.441149,1.345804,-0.752993,0.233240,1.284993,-0.533254,0.925930,-0.156686,5.501647,0.503695,0.342329,5.614705,-15.303707,-0.059336,-0.143644,0.000000,0.607302,0.009226,0.000000
1.290000,-1.973024,-0.596941,-1.438770,1.358647,-0.758050,0.242522,1.283444,-0.477977,0.930194,-0.152615,5.554857,0.348295,0.617835,6.017379,-15.790692,-0.053223,-0.143541,0.000000,0.615205,0.011266,0.000000
1.300000,-1.959373,-0.604545,-1.436299,1.371473,-0.762551,0.251838,1.281953,-0.422121,0.932880,-0.145585,5.613528,0.188242,0.642828,4.726438,-16.188761,-0.047029,-0.143419,0.000000,0.623399,0.013051,-0.000000
1.310000,-1.945594,-0.612190,-1.433734,1.384286,-0.766490,0.261174,1.280532,-0.365757,0.933956,-0.138548,5.657765,0.026686,0.684955,3.556979,-16.492615,-0.040762,-0.143280,0.000000,0.629631,0.014854,-0.000000
1.320000,-1.931687,-0.619872,-1.431075,1.397084,-0.769865,0.270512,1.279177,-0.309051,0.933374,-0.132622,5.679483,-0.144916,0.577261,1.334099,-17.450293,-0.034447,-0.143121,0.000000,0.633010,0.016931,0.000000
1.330000,-1.917653,-0.627586,-1.428323,1.409870,-0.772671,0.279835,1.277884,-0.252181,0.931068,-0.125387,5.695949,-0.314401,0.871938,1.977238,-16.425525,-0.028105,-0.142942,0.000000,0.635387,0.018821,-0.000000
1.340000,-1.903490,-0.635324,-1.425479,1.422642,-0.774908,0.289128,1.276674,-0.195142,0.927100,-0.116747,5.707989,-0.480679,0.777956,-0.119758,-17.191892,-0.021741,-0.142745,0.000000,0.636858,0.020492,0.000000
1.350000,-1.889200,-0.643082,-1.422541,1.435403,-0.776574,0.298372,1.275544,-0.138103,0.921421,-0.109174,5.698283,-0.654886,0.814521,-1.268686,-17.268890,-0.015378,-0.142531,0.000000,0.635512,0.022392,-0.000000
1.360000,-1.874782,-0.650854,-1.419511,1.448153,-0.777670,0.307550,1.274494,-0.081201,0.914021,-0.100700,5.680263,-0.824877,0.848472,-2.427369,-17.250738,-0.009035,-0.142298,0.000000,0.632822,0.024108,0.000000
1.370000,-1.860237,-0.658633,-1.416390,1.460893,-0.778199,0.316646,1.273529,-0.024544,0.904882,-0.092499,5.648924,-1.004591,0.822017,-3.745292,-18.166718,-0.002728,-0.142048,0.000000,0.628250,0.025989,-0.000000
1.380000,-1.845564,-0.666416,-1.413179,1.473624,-0.778162,0.325642,1.272647,0.031744,0.893957,-0.083623,5.607359,-1.177196,0.953891,-4.561032,-16.328712,0.003525,-0.141779,0.000000,0.622137,0.027661,0.000000
1.390000,-1.830764,-0.674195,-1.409878,1.486347,-0.777565,0.334520,1.271859,0.087571,0.881370,-0.074046,5.555923,-1.341404,0.930254,-5.814545,-17.024032,0.009710,-0.141495,0.000000,0.614564,0.029102,-0.000000
1.400000,-1.815837,-0.681965,-1.406489,1.499062,-0.776413,0.343264,1.271164,0.142819,0.867095,-0.064762,5.491947,-1.513077,0.956988,-6.883334,-16.782564,0.015810,-0.141196,0.000000,0.605243,0.030668,0.000000
1.410000,-1.800783,-0.689721,-1.403013,1.511770,-0.774711,0.351856,1.270564,0.197377,0.851130,-0.055255,5.417728,-1.679413,0.976016,-7.930350,-16.516922,0.021810,-0.140882,0.000000,0.594469,0.032100,0.000000
1.420000,-1.785602,-0.697457,-1.399452,1.524473,-0.772468,0.360281,1.270063,0.251142,0.833513,-0.044956,5.333681,-1.843622,1.052356,-8.897248,-16.276861,0.027695,-0.140555,0.000000,0.582319,0.033386,-0.000000
1.430000,-1.770294,-0.705169,-1.395808,1.537172,-0.769691,0.368521,1.269664,0.304016,0.814271,-0.034864,5.239398,-2.003954,0.964718,-9.953621,-15.780306,0.033451,-0.140215,0.000000,0.568788,0.034608,-0.000000
1.440000,-1.754858,-0.712850,-1.392083,1.549867,-0.766391,0.376561,1.269364,0.355896,0.793449,-0.025044,5.135231,-2.159872,1.030197,-10.848630,-15.435639,0.039066,-0.139862,0.000000,0.553960,0.035764,0.000000
1.450000,-1.739296,-0.720495,-1.388278,1.562560,-0.762577,0.384385,1.269166,0.406692,0.771085,-0.014532,5.022363,-2.312175,1.040669,-11.741674,-14.977522,0.044527,-0.139499,0.000000,0.538005,0.036763,0.000000
1.460000,-1.723607,-0.728099,-1.384396,1.575251,-0.758261,0.391978,1.269077,0.456318,0.747227,-0.003161,4.901621,-2.458370,1.068001,-12.567923,-14.456210,0.049823,-0.139127,0.000000,0.521067,0.037550,0.000000
1.470000,-1.707791,-0.735658,-1.380439,1.587941,-0.753455,0.399325,1.269090,0.504684,0.721919,0.005273,4.769617,-2.603023,0.780379,-13.660738,-14.271721,0.054943,-0.138746,0.000000,0.502801,0.038604,0.000000
1.480000,-1.691848,-0.743167,-1.376410,1.600633,-0.748172,0.406411,1.269191,0.551693,0.695195,0.015839,4.632016,-2.739558,1.337218,-13.845569,-13.022977,0.059877,-0.138355,0.000000,0.483901,0.039280,-0.000000
1.490000,-1.675779,-0.750620,-1.372312,1.613326,-0.742426,0.413224,1.269416,0.597309,0.667158,0.028720,4.489572,-2.867333,1.074359,-14.799180,-12.724279,0.064620,-0.137961,0.000000,0.464499,0.039555,0.000000
1.500000,-1.659582,-0.758014,-1.368146,1.626021,-0.736231,0.419750,1.269753,0.641450,0.637855,0.038696,4.337622,-2.992252,1.083248,-15.416457,-12.057121,0.069163,-0.137561,0.000000,0.444100,0.040077,0.000000
1.510000,-1.643258,-0.765343,-1.363918,1.638721,-0.729602,0.425977,1.270191,0.684065,0.607342,0.048925,4.185079,-3.109076,1.063772,-15.896500,-11.366117,0.073503,-0.137158,0.000000,0.423735,0.040433,0.000000
1.520000,-1.626807,-0.772605,-1.359628,1.651426,-0.722555,0.431893,1.270739,0.725070,0.575691,0.060888,4.012394,-3.220066,1.228360,-17.841318,-10.766479,0.077630,-0.136752,0.000000,0.401335,0.040500,0.000000
1.530000,-1.610230,-0.779793,-1.355281,1.664136,-0.715106,0.437488,1.271403,0.764337,0.542968,0.071382,3.845018,-3.323045,0.865929,-15.600178,-9.823777,0.081533,-0.136345,0.000000,0.379683,0.040592,-0.000000
1.540000,-1.593525,-0.786905,-1.350879,1.676854,-0.707273,0.442749,1.272160,0.802000,0.509259,0.080189,3.684594,-3.417710,0.994318,-17.273049,-9.167929,0.085227,-0.135937,0.000000,0.358970,0.040727,-0.000000
1.550000,-1.576693,-0.793937,-1.346427,1.689580,-0.699072,0.447670,1.273013,0.837956,0.474634,0.090388,3.506499,-3.505828,0.944266,-17.542898,-8.390991,0.088705,-0.135529,0.000000,0.336602,0.040610,0.000000
1.560000,-1.559733,-0.800886,-1.341927,1.702315,-0.690520,0.452239,1.273961,0.872129,0.439171,0.099003,3.327396,-3.585382,0.880665,-17.859677,-7.595480,0.091960,-0.135121,0.000000,0.314396,0.040527,-0.000000
1.570000,-1.542646,-0.807747,-1.337383,1.715059,-0.681635,0.456451,1.275000,0.904527,0.402947,0.108922,3.153239,-3.658419,1.001463,-17.361505,-6.935031,0.094996,-0.134716,0.000000,0.292968,0.040208,-0.000000
1.580000,-1.525432,-0.814517,-1.332799,1.727815,-0.672435,0.460296,1.276132,0.935167,0.366034,0.116903,2.971976,-3.722479,0.590181,-18.895377,-5.873783,0.097818,-0.134313,0.000000,0.271103,0.039959,-0.000000
1.590000,-1.508090,-0.821194,-1.328179,1.740582,-0.662938,0.463769,1.277330,0.963940,0.328528,0.122723,2.783540,-3.777409,0.673653,-18.382231,-5.188139,0.100417,-0.133912,0.000000,0.248825,0.039801,-0.000000
1.600000,-1.490620,-0.827775,-1.323525,1.753362,-0.653163,0.466865,1.278592,0.990865,0.290507,0.129491,2.601086,-3.825596,0.577837,-18.500785,-4.373956,0.102798,-0.133514,0.000000,0.227477,0.039449,-0.000000
1.610000,-1.473023,-0.834257,-1.318843,1.766154,-0.643127,0.469578,1.279915,1.015951,0.252042,0.134951,2.416110,-3.865984,0.483851,-18.538625,-3.582287,0.104966,-0.133119,0.000000,0.206202,0.039123,0.000000
1.620000,-1.455297,-0.840637,-1.314135,1.778960,-0.632850,0.471904,1.281285,1.039182,0.213223,0.138876,2.229996,-3.896140,0.328014,-18.624896,-2.569193,0.106923,-0.132727,0.000000,0.185177,0.038814,-0.000000
1.630000,-1.437443,-0.846913,-1.309406,1.791780,-0.622350,0.473841,1.282690,1.060555,0.174140,0.142077,2.044845,-3.919893,0.311709,-18.395590,-2.187004,0.108671,-0.132338,0.000000,0.164577,0.038493,0.000000
1.640000,-1.419461,-0.853083,-1.304659,1.804614,-0.611645,0.475387,1.284124,1.080085,0.134845,0.144516,1.861221,-3.937524,0.146594,-18.372382,-1.221818,0.110216,-0.131953,0.000000,0.144456,0.038169,0.000000
1.650000,-1.401351,-0.859145,-1.299899,1.817463,-0.600754,0.476538,1.285574,1.097780,0.095424,0.145220,1.677999,-3.945401,0.021760,-18.212603,-0.475819,0.111562,-0.131570,0.000000,0.124739,0.037892,0.000000
1.660000,-1.383112,-0.865098,-1.295130,1.830326,-0.589695,0.477295,1.287022,1.113671,0.055951,0.144019,1.501070,-3.948208,-0.127166,-17.923657,0.224488,0.112714,-0.131190,0.000000,0.105961,0.037742,-0.000000
1.670000,-1.364744,-0.870939,-1.290355,1.843203,-0.578487,0.477657,1.288460,1.127750,0.016508,0.143905,1.312703,-3.938095,-0.028652,-19.006712,1.490499,0.113677,-0.130812,0.000000,0.086422,0.037317,0.000000
1.680000,-1.346248,-0.876667,-1.285578,1.856095,-0.567146,0.477625,1.289889,1.139971,-0.022803,0.140654,1.136523,-3.924857,-0.626676,-16.199448,1.143820,0.114448,-0.130437,0.000000,0.068380,0.037169,0.000000
1.690000,-1.327623,-0.882281,-1.280804,1.869001,-0.555693,0.477201,1.291261,1.150531,-0.061983,0.134024,0.973957,-3.909143,-0.567046,-17.050506,2.302124,0.115050,-0.130062,0.000000,0.051940,0.037327,-0.000000
1.700000,-1.308868,-0.887781,-1.276035,1.881920,-0.544141,0.476387,1.292574,1.159405,-0.100940,0.128166,0.801934,-3.881503,-0.737960,-16.608482,2.915651,0.115484,-0.129687,0.000000,0.034902,0.037257,0.000000
1.710000,-1.289984,-0.893164,-1.271277,1.894852,-0.532510,0.475184,1.293817,1.166591,-0.139600,0.120294,0.635525,-3.849361,-0.897771,-16.232706,3.521683,0.115751,-0.129312,0.000000,0.018673,0.037332,0.000000
1.720000,-1.270971,-0.898431,-1.266533,1.907796,-0.520815,0.473596,1.294969,1.172164,-0.177907,0.109633,0.481373,-3.811036,-1.175471,-15.015893,4.126104,0.115863,-0.128934,0.000000,0.003906,0.037605,0.000000
1.730000,-1.251828,-0.903580,-1.261807,1.920751,-0.509072,0.471627,1.296007,1.176212,-0.215802,0.098026,0.326420,-3.767201,-1.144483,-15.983894,4.635675,0.115830,-0.128554,0.000000,-0.010711,0.037902,-0.000000
1.740000,-1.232556,-0.908612,-1.257102,1.933716,-0.497296,0.469281,1.296927,1.178685,-0.253234,0.085531,0.170318,-3.718159,-1.415055,-14.806492,5.180953,0.115649,-0.128171,0.000000,-0.025219,0.038222,-0.000000
1.750000,-1.213154,-0.913526,-1.252422,1.946689,-0.485503,0.466564,1.297707,1.179668,-0.290147,0.070225,0.026739,-3.663795,-1.586035,-14.330832,5.673964,0.115331,-0.127784,0.000000,-0.038302,0.038751,-0.000000
1.760000,-1.193622,-0.918322,-1.247772,1.959669,-0.473707,0.463480,1.298328,1.179229,-0.326498,0.053521,-0.113472,-3.605757,-1.761555,-13.798291,6.116031,0.114884,-0.127391,0.000000,-0.050888,0.039371,0.000000
1.770000,-1.173960,-0.923000,-1.243154,1.972655,-0.461923,0.460036,1.298771,1.177409,-0.362233,0.034929,-0.249994,-3.539853,-1.950642,-13.416068,6.877416,0.114315,-0.126991,0.000000,-0.062912,0.040076,-0.000000
1.780000,-1.154169,-0.927560,-1.238572,1.985644,-0.450164,0.456238,1.299021,1.174252,-0.397291,0.014639,-0.379910,-3.472139,-2.107159,-12.561842,6.654284,0.113629,-0.126584,0.000000,-0.074177,0.040924,0.000000
1.790000,-1.134248,-0.932003,-1.234030,1.998635,-0.438442,0.452092,1.299059,1.169834,-0.431673,-0.007345,-0.502952,-3.403190,-2.296277,-12.132566,7.313951,0.112834,-0.126167,0.000000,-0.084678,0.041918,0.000000
1.800000,-1.114196,-0.936330,-1.229531,2.011624,-0.426771,0.447607,1.298867,1.164206,-0.465329,-0.031232,-0.621778,-3.327529,-2.474514,-11.543037,7.629673,0.111937,-0.125740,0.000000,-0.094625,0.043012,-0.000000
1.810000,-1.094015,-0.940539,-1.225079,2.024611,-0.415162,0.442788,1.298429,1.157419,-0.498220,-0.056794,-0.734643,-3.250295,-2.651366,-10.957991,7.913493,0.110943,-0.125301,0.000000,-0.103920,0.044246,0.000000
1.820000,-1.073704,-0.944633,-1.220677,2.037592,-0.403626,0.437645,1.297724,1.149538,-0.530318,-0.084381,-0.840266,-3.168429,-2.852792,-10.234108,8.355604,0.109861,-0.124849,0.000000,-0.112425,0.045616,0.000000
1.830000,-1.053263,-0.948612,-1.216327,2.050565,-0.392175,0.432185,1.296736,1.140630,-0.561586,-0.113572,-0.940747,-3.085363,-2.984755,-9.863681,8.249220,0.108697,-0.124382,0.000000,-0.120386,0.047123,0.000000
1.840000,-1.032693,-0.952477,-1.212034,2.063526,-0.380817,0.426416,1.295448,1.130740,-0.592023,-0.144336,-1.036143,-3.001551,-3.181082,-9.146007,8.607685,0.107455,-0.123900,0.000000,-0.127826,0.048768,-0.000000
1.850000,-1.011993,-0.956229,-1.207800,2.076472,-0.369563,0.420347,1.293842,1.119933,-0.621603,-0.177080,-1.124251,-2.914161,-3.353745,-8.544460,8.765868,0.106143,-0.123401,0.000000,-0.134519,0.050556,0.000000
1.860000,-0.991163,-0.959868,-1.203628,2.089401,-0.358421,0.413987,1.291901,1.108271,-0.650306,-0.211308,-1.207071,-2.826371,-3.521795,-7.947135,8.888599,0.104766,-0.122883,0.000000,-0.140696,0.052478,0.000000
1.870000,-0.970205,-0.963397,-1.199521,2.102309,-0.347400,0.407344,1.289608,1.095817,-0.678118,-0.247789,-1.282533,-2.735555,-3.744486,-7.216286,9.171166,0.103331,-0.122345,0.000000,-0.146147,0.054574,-0.000000
1.880000,-0.949117,-0.966817,-1.195482,2.115192,-0.336507,0.400428,1.286942,1.082637,-0.705019,-0.285572,-1.352887,-2.645112,-3.810895,-6.857503,8.909688,0.101845,-0.121785,0.000000,-0.151125,0.056796,-0.000000
1.890000,-0.927901,-0.970128,-1.191513,2.128047,-0.325750,0.393247,1.283893,1.068775,-0.731024,-0.324594,-1.418276,-2.555464,-4.022846,-6.150049,9.114657,0.100310,-0.121203,0.000000,-0.155656,0.059141,-0.000000
1.900000,-0.906556,-0.973332,-1.187618,2.140869,-0.315134,0.385810,1.280442,1.054297,-0.756120,-0.365767,-1.476517,-2.463755,-4.181722,-5.570031,9.123703,0.098734,-0.120596,0.000000,-0.159514,0.061662,-0.000000
1.910000,-0.885084,-0.976431,-1.183798,2.153654,-0.304666,0.378127,1.276573,1.039260,-0.780303,-0.408325,-1.529924,-2.372906,-4.338768,-5.005306,9.105733,0.097121,-0.119963,0.000000,-0.162951,0.064322,-0.000000
1.920000,-0.863483,-0.979426,-1.180056,2.166399,-0.294350,0.370207,1.272270,1.023726,-0.803574,-0.452620,-1.575664,-2.281137,-4.510591,-4.248661,9.182000,0.095478,-0.119303,0.000000,-0.165692,0.067133,-0.000000
1.930000,-0.841756,-0.982319,-1.176395,2.179098,-0.284193,0.362059,1.267516,1.007760,-0.825931,-0.498335,-1.617121,-2.190647,-4.631671,-4.047765,8.910084,0.093809,-0.118614,0.000000,-0.168076,0.070090,0.000000
1.940000,-0.819902,-0.985111,-1.172816,2.191748,-0.274196,0.353691,1.262298,0.991396,-0.847393,-0.545428,-1.654546,-2.101757,-4.795656,-3.333734,8.926739,0.092117,-0.117894,0.000000,-0.170133,0.073194,0.000000
1.950000,-0.797921,-0.987803,-1.169322,2.204343,-0.264366,0.345114,1.256602,0.974695,-0.867964,-0.594159,-1.684730,-2.012716,-4.940922,-2.810130,8.815720,0.090408,-0.117143,0.000000,-0.171554,0.076449,0.000000
1.960000,-0.775815,-0.990398,-1.165914,2.216878,-0.254703,0.336335,1.250410,0.957713,-0.887652,-0.644481,-1.710986,-1.925153,-5.087088,-2.307655,8.688747,0.088687,-0.116358,0.000000,-0.172662,0.079869,0.000000
1.970000,-0.753584,-0.992898,-1.162596,2.229349,-0.245212,0.327364,1.243710,0.940503,-0.906472,-0.695554,-1.729684,-1.839054,-5.162226,-1.565261,8.533067,0.086957,-0.115539,0.000000,-0.173126,0.083378,-0.000000
1.980000,-0.731228,-0.995303,-1.159368,2.241751,-0.235894,0.318209,1.236492,0.923129,-0.924438,-0.748450,-1.745090,-1.754447,-5.417307,-1.522380,8.385623,0.085225,-0.114684,0.000000,-0.173339,0.087074,0.000000
1.990000,-0.708749,-0.997616,-1.156232,2.254077,-0.226750,0.308878,1.228735,0.905610,-0.941567,-0.803176,-1.757522,-1.671499,-5.491753,-0.833821,8.196135,0.083491,-0.113791,0.000000,-0.173333,0.090960,-0.000000
2.000000,-0.686147,-0.999839,-1.153191,2.266323,-0.217782,0.299380,1.220427,0.888005,-0.957875,-0.858572,-1.762940,-1.590531,-5.621876,-0.383730,7.999783,0.081761,-0.112858,0.000000,-0.172740,0.094934,-0.000000
2.010000,-0.663423,-1.001973,-1.150245,2.278484,-0.208990,0.289723,1.211559,0.870363,-0.973385,-0.915310,-1.764601,-1.511777,-5.742993,0.059909,7.784631,0.080037,-0.111885,0.000000,-0.171861,0.099060,-0.000000
2.020000,-0.640578,-1.004019,-1.147397,2.290553,-0.200375,0.279915,1.202116,0.852728,-0.988115,-0.973580,-1.761689,-1.434552,-5.892776,0.509814,7.623470,0.078325,-0.110870,0.000000,-0.170616,0.103349,-0.000000
2.030000,-0.617612,-1.005981,-1.144647,2.302524,-0.191935,0.269963,1.192084,0.835143,-1.002085,-1.032781,-1.754672,-1.360078,-5.945928,0.890786,7.268414,0.076626,-0.109811,0.000000,-0.169057,0.107759,-0.000000
2.040000,-0.594527,-1.007859,-1.141998,2.314392,-0.183672,0.259876,1.181457,0.817648,-1.015327,-1.092834,-1.743708,-1.288514,-6.081450,1.310150,7.077882,0.074945,-0.108708,0.000000,-0.167198,0.112285,-0.000000
2.050000,-0.571325,-1.009655,-1.139450,2.326151,-0.175582,0.249659,1.170223,0.800283,-1.027861,-1.154242,-1.728607,-1.218849,-6.181457,1.697128,6.818682,0.073283,-0.107559,0.000000,-0.165013,0.116962,-0.000000
2.060000,-0.548005,-1.011371,-1.137005,2.337795,-0.167665,0.239321,1.158370,0.783087,-1.039713,-1.216374,-1.709968,-1.152037,-6.273522,2.066336,6.553134,0.071645,-0.106362,0.000000,-0.162562,0.121743,-0.000000
2.070000,-0.524569,-1.013009,-1.134664,2.349317,-0.159920,0.228867,1.145890,0.766099,-1.050910,-1.279967,-1.686972,-1.087704,-6.415239,2.492960,6.301841,0.070033,-0.105117,0.000000,-0.159767,0.126692,-0.000000
2.080000,-0.501019,-1.014570,-1.132428,2.360710,-0.152343,0.218305,1.132769,0.749357,-1.061477,-1.344053,-1.660942,-1.026241,-6.400168,2.709348,5.989844,0.068450,-0.103822,0.000000,-0.156749,0.131724,0.000000
2.090000,-0.477355,-1.016056,-1.130298,2.371970,-0.144932,0.207639,1.119008,0.732889,-1.071445,-1.408534,-1.632076,-0.967702,-6.524031,3.099332,5.728125,0.066899,-0.102476,0.000000,-0.153525,0.136832,-0.000000
2.100000,-0.453580,-1.017469,-1.128276,2.383088,-0.137684,0.196878,1.104594,0.716730,-1.080840,-1.474266,-1.599323,-0.911774,-6.592374,3.411004,5.446409,0.065381,-0.101078,0.000000,-0.149994,0.142090,0.000000
2.110000,-0.429694,-1.018810,-1.126361,2.394060,-0.130596,0.186024,1.089521,0.700910,-1.089688,-1.540520,-1.564195,-0.858391,-6.656635,3.701029,5.171250,0.063899,-0.099628,0.000000,-0.146292,0.147431,0.000000
2.120000,-0.405699,-1.020081,-1.124555,2.404877,-0.123664,0.175085,1.073782,0.685462,-1.098021,-1.607371,-1.524533,-0.808889,-6.713305,4.142945,4.786445,0.062457,-0.098124,0.000000,-0.142229,0.152874,-0.000000
2.130000,-0.381597,-1.021284,-1.122860,2.415533,-0.116885,0.164066,1.057371,0.670424,-1.105873,-1.674781,-1.483185,-0.761453,-6.767789,4.121768,4.702963,0.061055,-0.096564,0.000000,-0.138050,0.158399,-0.000000
2.140000,-0.357389,-1.022420,-1.121274,2.426022,-0.110254,0.152970,1.040284,0.655803,-1.113257,-1.742690,-1.440402,-0.715978,-6.812212,4.519713,4.334825,0.059696,-0.094949,0.000000,-0.133776,0.163999,0.000000
2.150000,-0.333077,-1.023489,-1.119800,2.436336,-0.103768,0.141802,1.022516,0.641631,-1.120206,-1.811012,-1.393566,-0.674256,-6.851700,4.758469,4.068435,0.058381,-0.093278,0.000000,-0.129177,0.169682,-0.000000
2.160000,-0.308663,-1.024495,-1.118438,2.446470,-0.097420,0.130567,1.004064,0.627938,-1.126749,-1.879551,-1.344611,-0.634770,-6.881832,4.994878,3.806217,0.057113,-0.091550,0.000000,-0.124419,0.175417,0.000000
2.170000,-0.284149,-1.025438,-1.117189,2.456415,-0.091207,0.119268,0.984922,0.614744,-1.132912,-1.948874,-1.294037,-0.598328,-6.955839,5.152893,3.506100,0.055893,-0.089764,0.000000,-0.119548,0.181262,-0.000000
2.180000,-0.259535,-1.026320,-1.116053,2.466166,-0.085124,0.107910,0.965087,0.602066,-1.138723,-2.018100,-1.240858,-0.564145,-6.887550,5.482091,3.332440,0.054723,-0.087919,0.000000,-0.114470,0.187128,-0.000000
2.190000,-0.234826,-1.027141,-1.115031,2.475715,-0.079164,0.096495,0.944561,0.589935,-1.144202,-2.087131,-1.185135,-0.532114,-6.943900,5.625654,3.052143,0.053604,-0.086015,0.000000,-0.109188,0.193006,-0.000000
2.200000,-0.210022,-1.027904,-1.114124,2.485055,-0.073323,0.085027,0.923342,0.578368,-1.149375,-2.156735,-1.128077,-0.502874,-6.949707,5.818817,2.820132,0.052539,-0.084053,0.000000,-0.103812,0.198970,0.000000
2.210000,-0.185126,-1.028608,-1.113331,2.494179,-0.067595,0.073508,0.901427,0.567380,-1.154266,-2.226159,-1.069039,-0.475734,-6.949578,5.998393,2.597888,0.051528,-0.082031,0.000000,-0.098280,0.204945,-0.000000
2.220000,-0.160139,-1.029256,-1.112654,2.503081,-0.061973,0.061942,0.878817,0.556993,-1.158897,-2.295850,-1.008039,-0.450989,-6.972612,6.189241,2.364549,0.050574,-0.079948,0.000000,-0.092593,0.210973,-0.000000
2.230000,-0.135065,-1.029848,-1.112092,2.511753,-0.056453,0.050331,0.855511,0.547225,-1.163292,-2.365278,-0.945512,-0.428163,-6.911632,6.314244,2.202956,0.049677,-0.077806,0.000000,-0.086787,0.217002,0.000000
2.240000,-0.109905,-1.030385,-1.111647,2.520189,-0.051027,0.038677,0.831513,0.538088,-1.167467,-2.434368,-0.881564,-0.407118,-6.920611,6.484855,1.996670,0.048839,-0.075603,0.000000,-0.080870,0.223022,-0.000000
2.250000,-0.084662,-1.030869,-1.111319,2.528381,-0.045689,0.026983,0.806823,0.529599,-1.171441,-2.503545,-0.815937,-0.388085,-6.898687,6.628458,1.823769,0.048060,-0.073340,0.000000,-0.074818,0.229073,-0.000000
2.260000,-0.059338,-1.031299,-1.111108,2.536323,-0.040433,0.015249,0.781443,0.521773,-1.175233,-2.572416,-0.748980,-0.370614,-6.872878,6.764440,1.665579,0.047343,-0.071016,0.000000,-0.068660,0.235115,-0.000000
2.270000,-0.033936,-1.031678,-1.111014,2.544008,-0.035251,0.003478,0.755376,0.514624,-1.178859,-2.640969,-0.680646,-0.354790,-6.838704,6.898235,1.508984,0.046687,-0.068632,0.000000,-0.062391,0.241147,0.000000
2.280000,-0.008459,-1.032005,-1.111038,2.551428,-0.030138,-0.008328,0.728625,0.508165,-1.182333,-2.709212,-0.611099,-0.340227,-6.809254,7.010045,1.406681,0.046095,-0.066188,0.000000,-0.056023,0.247165,-0.000000
2.290000,0.017092,-1.032281,-1.111181,2.558578,-0.025086,-0.020168,0.701193,0.502406,-1.185667,-2.777102,-0.540411,-0.326746,-6.766174,7.129175,1.285262,0.045567,-0.063684,0.000000,-0.049563,0.253165,-0.000000
2.300000,0.042712,-1.032506,-1.111442,2.565450,-0.020087,-0.032041,0.673084,0.497360,-1.188872,-2.844537,-0.468558,-0.314397,-6.721820,7.237289,1.194626,0.045104,-0.061120,0.000000,-0.043007,0.259135,-0.000000
2.310000,0.068400,-1.032682,-1.111821,2.572037,-0.015136,-0.043945,0.644303,0.493040,-1.191956,-2.911617,-0.395271,-0.302558,-6.675095,7.347345,1.127839,0.044707,-0.058496,0.000000,-0.036328,0.265081,0.000000
2.320000,0.094152,-1.032809,-1.112321,2.578334,-0.010224,-0.055879,0.614855,0.489453,-1.194929,-2.977856,-0.322290,-0.292221,-6.589889,7.317416,0.990092,0.044377,-0.055813,0.000000,-0.029688,0.270963,0.000000
2.330000,0.119965,-1.032887,-1.112939,2.584332,-0.005344,-0.067843,0.584747,0.486601,-1.197800,-3.043775,-0.247482,-0.281700,-6.593726,7.645552,1.118951,0.044114,-0.053071,0.000000,-0.022886,0.276819,-0.000000
2.340000,0.145837,-1.032916,-1.113678,2.590027,-0.000490,-0.079835,0.553981,0.484510,-1.200561,-3.109357,-0.170807,-0.270724,-6.504078,7.618260,1.032316,0.043920,-0.050271,0.000000,-0.015918,0.282646,-0.000000
2.350000,0.171765,-1.032897,-1.114536,2.595410,0.004348,-0.091854,0.522563,0.483182,-1.203218,-3.173997,-0.094537,-0.260576,-6.440963,7.704456,1.048049,0.043796,-0.047413,0.000000,-0.008994,0.288395,-0.000000
2.360000,0.197745,-1.032829,-1.115515,2.600476,0.009177,-0.103899,0.490502,0.482625,-1.205769,-3.238254,-0.016832,-0.249416,-6.376419,7.785709,1.093288,0.043741,-0.044498,0.000000,-0.001940,0.294108,0.000000
2.370000,0.223773,-1.032713,-1.116614,2.605218,0.014003,-0.115969,0.457803,0.482844,-1.208212,-3.301205,0.060699,-0.239505,-6.245529,7.767760,0.984344,0.043757,-0.041526,0.000000,0.005088,0.299712,-0.000000
2.380000,0.249848,-1.032549,-1.117834,2.609630,0.018836,-0.128063,0.424478,0.483843,-1.210552,-3.363830,0.139518,-0.227729,-6.279701,7.996418,1.377387,0.043843,-0.038498,0.000000,0.012237,0.305281,0.000000
2.390000,0.275965,-1.032337,-1.119175,2.613705,0.023683,-0.140180,0.390527,0.485639,-1.212759,-3.426131,0.219628,-0.213735,-6.147155,7.975760,1.332699,0.044002,-0.035414,0.000000,0.019506,0.310819,0.000000
2.400000,0.302121,-1.032075,-1.120638,2.617438,0.028552,-0.152318,0.355961,0.488234,-1.214830,-3.487036,0.299425,-0.200213,-6.065626,8.031264,1.467726,0.044233,-0.032276,0.000000,0.026741,0.316236,-0.000000
2.410000,0.328312,-1.031765,-1.122222,2.620822,0.033450,-0.164476,0.320788,0.491632,-1.216753,-3.547374,0.380303,-0.184221,-5.979891,8.082827,1.631199,0.044537,-0.029084,0.000000,0.034080,0.321600,0.000000
2.420000,0.354536,-1.031406,-1.123927,2.623852,0.038387,-0.176652,0.285018,0.495837,-1.218517,-3.606424,0.460496,-0.168461,-5.849892,8.013489,1.624496,0.044914,-0.025838,0.000000,0.041351,0.326855,-0.000000
2.430000,0.380788,-1.030998,-1.125755,2.626521,0.043370,-0.188845,0.248662,0.500846,-1.220111,-3.664786,0.541784,-0.149558,-5.822256,8.244541,2.162827,0.045364,-0.022540,0.000000,0.048730,0.332048,0.000000
2.440000,0.407065,-1.030539,-1.127704,2.628823,0.048407,-0.201054,0.211725,0.506676,-1.221495,-3.722437,0.624165,-0.127154,-5.686431,8.170699,2.220642,0.045889,-0.019190,0.000000,0.056219,0.337179,-0.000000
2.450000,0.433363,-1.030029,-1.129776,2.630753,0.053506,-0.213275,0.174218,0.513325,-1.222655,-3.778673,0.705672,-0.104216,-5.580386,8.188555,2.471028,0.046488,-0.015790,0.000000,0.063629,0.342193,-0.000000
2.460000,0.459679,-1.029468,-1.131970,2.632306,0.058676,-0.225506,0.136154,0.520793,-1.223567,-3.833967,0.787882,-0.077888,-5.468367,8.198675,2.741894,0.047162,-0.012339,0.000000,0.071113,0.347130,-0.000000
2.470000,0.486008,-1.028855,-1.134286,2.633475,0.063924,-0.237745,0.097543,0.529079,-1.224207,-3.887938,0.869122,-0.049826,-5.333529,8.098898,2.928119,0.047910,-0.008840,0.000000,0.078515,0.351961,0.000000
2.480000,0.512347,-1.028190,-1.136725,2.634255,0.069260,-0.249989,0.058399,0.538177,-1.224551,-3.940802,0.950904,-0.018119,-5.238488,8.257209,3.418192,0.048733,-0.005292,0.000000,0.085982,0.356708,0.000000
2.490000,0.538692,-1.027470,-1.139286,2.634641,0.074691,-0.262235,0.018731,0.548099,-1.224556,-3.992508,1.033183,0.017500,-5.092881,8.144475,3.653840,0.049630,-0.001698,0.000000,0.093510,0.361369,0.000000
2.500000,0.565039,-1.026695,-1.141969,2.634628,0.080225,-0.274479,-0.021446,0.558836,-1.224194,-4.042713,1.114188,0.055483,-4.955642,8.106544,4.000499,0.050602,0.001944,0.000000,0.100935,0.365920,-0.000000
2.510000,0.591383,-1.025865,-1.144775,2.634210,0.085870,-0.286717,-0.062119,0.570383,-1.223433,-4.091611,1.195199,0.097498,-4.812006,8.055590,4.365350,0.051649,0.005630,0.000000,0.108383,0.370381,-0.000000
2.520000,0.617722,-1.024978,-1.147704,2.633384,0.091635,-0.298946,-0.103272,0.582735,-1.222235,-4.138830,1.274903,0.142476,-4.640972,7.919191,4.671720,0.052770,0.009361,0.000000,0.115730,0.374724,0.000000
2.530000,0.644050,-1.024032,-1.150754,2.632143,0.097528,-0.311161,-0.144891,0.595880,-1.220568,-4.184624,1.354297,0.191800,-4.516807,7.957907,5.196602,0.053964,0.013135,0.000000,0.123077,0.378977,0.000000
2.540000,0.670363,-1.023027,-1.153927,2.630484,0.103555,-0.323356,-0.186960,0.609820,-1.218384,-4.228929,1.433266,0.245671,-4.332300,7.795985,5.540848,0.055231,0.016951,0.000000,0.130416,0.383141,0.000000
2.550000,0.696658,-1.021960,-1.157221,2.628403,0.109726,-0.335526,-0.229463,0.624539,-1.215644,-4.271333,1.510468,0.302997,-4.157452,7.678333,5.965338,0.056572,0.020809,0.000000,0.137624,0.387183,-0.000000
2.560000,0.722930,-1.020832,-1.160637,2.625894,0.116049,-0.347667,-0.272381,0.640026,-1.212307,-4.312074,1.586636,0.365121,-3.974816,7.540494,6.405933,0.057984,0.024707,0.000000,0.144777,0.391134,-0.000000
2.570000,0.749174,-1.019639,-1.164175,2.622954,0.122530,-0.359770,-0.315697,0.656266,-1.208331,-4.350666,1.661103,0.430643,-3.756004,7.360670,6.754245,0.059467,0.028644,0.000000,0.151810,0.394953,0.000000
2.580000,0.775387,-1.018380,-1.167833,2.619579,0.129176,-0.371831,-0.359389,0.673243,-1.203677,-4.387459,1.734015,0.501370,-3.601439,7.218284,7.394359,0.061020,0.032620,0.000000,0.158751,0.398681,0.000000
2.590000,0.801564,-1.017055,-1.171611,2.615765,0.135997,-0.383842,-0.403440,0.690941,-1.198286,-4.422377,1.805166,0.577472,-3.366328,6.996826,7.773136,0.062641,0.036632,0.000000,0.165585,0.402322,-0.000000
2.600000,0.827701,-1.015660,-1.175509,2.611509,0.142998,-0.395794,-0.447828,0.709338,-1.192116,-4.454871,1.873971,0.657318,-3.144959,6.771197,8.251643,0.064331,0.040681,0.000000,0.172255,0.405827,0.000000
2.610000,0.853793,-1.014194,-1.179527,2.606807,0.150186,-0.407681,-0.492530,0.728412,-1.185120,-4.485196,1.940296,0.742731,-2.912672,6.517038,8.743087,0.066086,0.044765,0.000000,0.178764,0.409234,0.000000
2.620000,0.879836,-1.012656,-1.183663,2.601657,0.157568,-0.419494,-0.537523,0.748137,-1.177252,-4.513037,2.004478,0.831379,-2.659041,6.288382,9.073328,0.067905,0.048883,0.000000,0.185133,0.412511,0.000000
2.630000,0.905825,-1.011042,-1.187916,2.596056,0.165151,-0.431223,-0.582783,0.768490,-1.168472,-4.538449,2.065417,0.926018,-2.421666,5.894105,9.857662,0.069788,0.053034,0.000000,0.191284,0.415684,0.000000
2.640000,0.931755,-1.009352,-1.192287,2.590001,0.172940,-0.442860,-0.628284,0.789434,-1.158710,-4.561323,2.122805,1.026793,-2.145660,5.605647,10.210504,0.071730,0.057217,0.000000,0.197196,0.418754,-0.000000
2.650000,0.957623,-1.007583,-1.196773,2.583489,0.180941,-0.454394,-0.674000,0.810937,-1.147926,-4.581367,2.177207,1.130967,-1.866443,5.243106,10.710689,0.073731,0.061431,0.000000,0.202909,0.421687,-0.000000
2.660000,0.983424,-1.005732,-1.201374,2.576520,0.189160,-0.465815,-0.719901,0.832963,-1.136069,-4.598417,2.227300,1.241356,-1.570563,4.844875,11.219685,0.075788,0.065673,0.000000,0.208325,0.424493,0.000000
2.670000,1.009152,-1.003799,-1.206089,2.569091,0.197602,-0.477112,-0.765960,0.855475,-1.123094,-4.613000,2.274695,1.353996,-1.315765,4.556399,11.449787,0.077897,0.069945,0.000000,0.213569,0.427204,0.000000
2.680000,1.034804,-1.001780,-1.210916,2.561200,0.206271,-0.488273,-0.812149,0.878439,-1.108966,-4.624098,2.316800,1.473321,-0.900727,3.857071,12.418327,0.080058,0.074243,0.000000,0.218443,0.429762,-0.000000
2.690000,1.060375,-0.999673,-1.215854,2.552848,0.215172,-0.499287,-0.858430,0.901792,-1.093604,-4.631537,2.353203,1.599450,-0.612978,3.491601,12.661922,0.082265,0.078567,0.000000,0.222918,0.432166,0.000000
2.700000,1.085859,-0.997475,-1.220901,2.544032,0.224308,-0.510141,-0.904771,0.925492,-1.076972,-4.636070,2.385904,1.727745,-0.263130,2.970018,13.137978,0.084515,0.082915,0.000000,0.227144,0.434458,0.000000
2.710000,1.111254,-0.995186,-1.226056,2.534752,0.233683,-0.520822,-0.951137,0.949487,-1.059027,-4.636532,2.412125,1.862080,0.106474,2.405746,13.603945,0.086806,0.087287,0.000000,0.230905,0.436568,0.000000
2.720000,1.136553,-0.992801,-1.231317,2.525009,0.243299,-0.531317,-0.997495,0.973726,-1.039725,-4.634506,2.435170,1.998640,0.365831,2.065125,13.823722,0.089133,0.091680,0.000000,0.234475,0.438620,0.000000
2.730000,1.161752,-0.990319,-1.236682,2.514802,0.253158,-0.541612,-1.043811,0.998164,-1.019034,-4.627812,2.450533,2.140981,0.977293,0.997890,14.644438,0.091493,0.096093,0.000000,0.237478,0.440450,0.000000
2.740000,1.186847,-0.987737,-1.242149,2.504133,0.263262,-0.551693,-1.090034,1.022708,-0.996885,-4.616220,2.457707,2.289048,1.278283,0.565763,14.844908,0.093880,0.100525,0.000000,0.239873,0.442048,0.000000
2.750000,1.211833,-0.985053,-1.247715,2.493002,0.273612,-0.561544,-1.136127,1.047306,-0.973250,-4.601644,2.460604,2.438811,1.704019,-0.125323,15.222258,0.096290,0.104973,0.000000,0.241984,0.443558,0.000000
2.760000,1.236706,-0.982264,-1.253379,2.481411,0.284209,-0.571152,-1.182049,1.071890,-0.948094,-4.581931,2.454860,2.592868,2.149515,-0.858106,15.564231,0.098718,0.109436,0.000000,0.243440,0.444815,-0.000000
2.770000,1.261460,-0.979368,-1.259137,2.469362,0.295050,-0.580501,-1.227758,1.096392,-0.921383,-4.559451,2.444909,2.749805,2.437473,-1.302583,15.836472,0.101158,0.113913,0.000000,0.244634,0.446027,0.000000
2.780000,1.286092,-0.976362,-1.264988,2.456857,0.306136,-0.589575,-1.273218,1.120754,-0.893087,-4.531276,2.425237,2.909876,3.202395,-2.641943,16.172033,0.103608,0.118402,0.000000,0.245067,0.446935,0.000000
2.790000,1.310596,-0.973244,-1.270928,2.443899,0.317464,-0.598358,-1.318363,1.144861,-0.863176,-4.497157,2.395322,3.072729,3.533867,-3.178570,16.372413,0.106057,0.122899,0.000000,0.244689,0.447517,-0.000000
2.800000,1.334968,-0.970012,-1.276954,2.430491,0.329032,-0.606833,-1.363152,1.168646,-0.831627,-4.459796,2.360156,3.237348,4.029189,-4.025664,16.562907,0.108501,0.127402,0.000000,0.243943,0.448014,-0.000000
2.810000,1.359204,-0.966663,-1.283063,2.416637,0.340836,-0.614985,-1.407538,1.192027,-0.798426,-4.416498,2.314332,3.403115,4.540005,-4.913523,16.693911,0.110933,0.131911,0.000000,0.242326,0.448173,-0.000000
2.820000,1.383299,-0.963194,-1.289253,2.402341,0.352871,-0.622796,-1.451472,1.214921,-0.763552,-4.369811,2.263920,3.572089,4.888509,-5.395778,16.984578,0.113346,0.136421,0.000000,0.240414,0.448257,0.000000
2.830000,1.407249,-0.959605,-1.295518,2.387609,0.365132,-0.630250,-1.494913,1.237264,-0.726987,-4.316818,2.201664,3.740365,5.714318,-7.065851,16.658538,0.115737,0.140932,0.000000,0.237495,0.447950,0.000000
2.840000,1.431050,-0.955891,-1.301856,2.372445,0.377614,-0.637330,-1.537786,1.258912,-0.688750,-4.257308,2.127047,3.907267,6.098472,-7.635377,16.821626,0.118093,0.145439,0.000000,0.233503,0.447220,-0.000000
2.850000,1.454697,-0.952052,-1.308263,2.356855,0.390308,-0.644019,-1.580048,1.279791,-0.648835,-4.194054,2.046984,4.075682,6.643224,-8.603907,16.743121,0.120406,0.149939,0.000000,0.229099,0.446360,-0.000000
2.860000,1.478186,-0.948084,-1.314735,2.340846,0.403207,-0.650301,-1.621645,1.299808,-0.607248,-4.124437,1.954804,4.241420,7.197200,-9.598578,16.590903,0.122671,0.154430,0.000000,0.223610,0.445068,0.000000
2.870000,1.501512,-0.943987,-1.321268,2.324425,0.416301,-0.656159,-1.662525,1.318872,-0.563997,-4.050865,1.857143,4.409106,7.599111,-10.163880,16.745382,0.124878,0.158908,0.000000,0.217691,0.443630,0.000000
2.880000,1.524673,-0.939758,-1.327857,2.307598,0.429581,-0.661576,-1.702640,1.336907,-0.519082,-3.970738,1.746699,4.572115,8.429213,-11.933215,15.839851,0.127020,0.163370,0.000000,0.210574,0.441702,0.000000
2.890000,1.547663,-0.935395,-1.334498,2.290375,0.443035,-0.666535,-1.741917,1.353761,-0.472574,-3.883919,1.623091,4.729547,8.852858,-12.557945,15.828351,0.129085,0.167812,0.000000,0.202190,0.439241,-0.000000
2.900000,1.570479,-0.930896,-1.341186,2.272763,0.456652,-0.671022,-1.780306,1.369353,-0.424489,-3.792982,1.493577,4.886828,9.416230,-13.574734,15.424721,0.131063,0.172228,0.000000,0.193263,0.436566,-0.000000
2.910000,1.593117,-0.926261,-1.347917,2.254772,0.470418,-0.675020,-1.817754,1.383590,-0.374863,-3.695668,1.352028,5.037337,9.978505,-14.590098,14.936812,0.132946,0.176616,0.000000,0.183117,0.433347,-0.000000
2.920000,1.615573,-0.921487,-1.354685,2.236411,0.484319,-0.678514,-1.854207,1.396372,-0.323737,-3.594092,1.203118,5.187837,10.405352,-15.329575,14.888630,0.134723,0.180972,0.000000,0.172252,0.429882,-0.000000
2.930000,1.637844,-0.916574,-1.361485,2.217691,0.498340,-0.681490,-1.889614,1.407612,-0.271138,-3.486124,1.042549,5.329357,11.189310,-16.786335,13.395944,0.136386,0.185291,0.000000,0.160124,0.425805,0.000000
2.940000,1.659926,-0.911520,-1.368313,2.198623,0.512466,-0.683932,-1.923907,1.417182,-0.217186,-3.371730,0.870262,5.460855,11.618204,-17.527571,13.158037,0.137921,0.189565,0.000000,0.146681,0.421065,-0.000000
2.950000,1.681815,-0.906325,-1.375162,2.179217,0.526678,-0.685829,-1.957036,1.424996,-0.161924,-3.253193,0.690873,5.590033,12.157043,-18.486992,12.401506,0.139317,0.193792,0.000000,0.132428,0.416002,-0.000000
2.960000,1.703509,-0.900987,-1.382028,2.159486,0.540959,-0.687167,-1.988951,1.430963,-0.105425,-3.128766,0.500821,5.708233,12.685015,-19.423617,11.557877,0.140565,0.197964,0.000000,0.116881,0.410265,0.000000
2.970000,1.725004,-0.895505,-1.388904,2.139442,0.555291,-0.687934,-2.019598,1.434990,-0.047762,-2.999915,0.303374,5.824009,13.122999,-20.152978,11.265653,0.141652,0.202078,0.000000,0.100433,0.404137,0.000000
2.980000,1.746297,-0.889881,-1.395784,2.119098,0.569652,-0.688118,-2.048930,1.436996,0.011009,-2.865516,0.095935,5.926598,13.755389,-21.331718,9.231487,0.142569,0.206126,0.000000,0.082651,0.397275,0.000000
2.990000,1.767385,-0.884112,-1.402664,2.098468,0.584024,-0.687710,-2.076889,1.436875,0.070720,-2.725674,-0.121262,6.014913,14.169658,-22.007475,8.744675,0.143301,0.210102,0.000000,0.063500,0.389628,-0.000000
3.000000,1.788265,-0.878200,-1.409536,2.077565,0.598383,-0.686701,-2.103431,1.434551,0.131297,-2.581843,-0.344862,6.098538,14.633388,-22.797822,7.647502,0.143836,0.213998,0.000000,0.043399,0.381504,-0.000000
3.010000,1.808936,-0.872145,-1.416396,2.056404,0.612707,-0.685082,-2.128511,1.429951,0.192638,-2.433396,-0.576350,6.167440,15.071225,-23.529596,6.472638,0.144164,0.217809,0.000000,0.022023,0.372601,0.000000
3.020000,1.829393,-0.865946,-1.423236,2.035000,0.626974,-0.682846,-2.152083,1.422998,0.254634,-2.280321,-0.815630,6.231018,15.521357,-24.279937,5.894674,0.144273,0.221526,0.000000,-0.000529,0.363087,-0.000000
3.030000,1.849635,-0.859606,-1.430051,2.013368,0.641159,-0.679987,-2.174105,1.413619,0.317200,-2.123440,-1.060976,6.278036,15.849906,-24.778097,3.489604,0.144150,0.225144,0.000000,-0.024285,0.352761,-0.000000
3.040000,1.869659,-0.853123,-1.436834,1.991523,0.655238,-0.676501,-2.194540,1.401761,0.380134,-1.963041,-1.311736,6.307504,16.243837,-25.400774,2.738400,0.143783,0.228652,0.000000,-0.049238,0.341583,0.000000
3.050000,1.889465,-0.846501,-1.443579,1.969482,0.669186,-0.672384,-2.213352,1.387364,0.443332,-1.798820,-1.568449,6.329744,16.576964,-25.892915,1.360608,0.143161,0.232044,0.000000,-0.075333,0.329721,0.000000
3.060000,1.909048,-0.839740,-1.450279,1.947262,0.682976,-0.667634,-2.230509,1.370384,0.506665,-1.632102,-1.828092,6.334106,16.868453,-26.287066,-0.083297,0.142273,0.235312,0.000000,-0.102455,0.317022,-0.000000
3.070000,1.928409,-0.832842,-1.456929,1.924878,0.696584,-0.662250,-2.245977,1.350768,0.569999,-1.460575,-2.096367,6.331740,17.327514,-27.099442,-0.795025,0.141107,0.238447,0.000000,-0.131059,0.303479,-0.000000
3.080000,1.947546,-0.825809,-1.463522,1.902348,0.709983,-0.656234,-2.259717,1.328459,0.633231,-1.287846,-2.364448,6.309717,17.209103,-26.495367,-3.626897,0.139649,0.241440,0.000000,-0.160468,0.289104,-0.000000
3.090000,1.966456,-0.818643,-1.470052,1.879689,0.723145,-0.649587,-2.271732,1.303486,0.696122,-1.114410,-2.631179,6.267191,17.577131,-27.095456,-4.479097,0.137895,0.244283,0.000000,-0.190593,0.273877,-0.000000
3.100000,1.985139,-0.811347,-1.476512,1.856919,0.736044,-0.642313,-2.281992,1.275811,0.758555,-0.937320,-2.903880,6.216647,17.730320,-27.172952,-6.034839,0.135833,0.246967,0.000000,-0.222033,0.257776,0.000000
3.110000,2.003594,-0.803924,-1.482896,1.834055,0.748652,-0.634418,-2.290479,1.245422,0.820389,-0.760080,-3.173692,6.147409,17.838091,-27.139442,-7.602829,0.133453,0.249483,0.000000,-0.254038,0.240850,0.000000
3.120000,2.021820,-0.796375,-1.489198,1.811116,0.760943,-0.625908,-2.297180,1.212310,0.881468,-0.579520,-3.449727,6.066512,18.144187,-27.698760,-8.782661,0.130747,0.251824,0.000000,-0.287475,0.222917,-0.000000
3.130000,2.039816,-0.788706,-1.495412,1.788118,0.772889,-0.616791,-2.302074,1.176449,0.941657,-0.399915,-3.719937,5.967438,17.766134,-26.317036,-11.038352,0.127703,0.253978,0.000000,-0.321173,0.204216,0.000000
3.140000,2.057582,-0.780919,-1.501532,1.765080,0.784463,-0.607078,-2.305184,1.137938,1.000754,-0.221841,-3.982919,5.849921,17.966375,-26.621176,-12.256160,0.124323,0.255939,0.000000,-0.354961,0.184767,-0.000000
3.150000,2.075118,-0.773018,-1.507552,1.742020,0.795639,-0.596780,-2.306502,1.096774,1.058620,-0.041781,-4.249017,5.720594,17.914582,-26.226850,-13.813287,0.120599,0.257698,0.000000,-0.389838,0.164354,-0.000000
3.160000,2.092422,-0.765007,-1.513466,1.718956,0.806390,-0.585910,-2.306029,1.052990,1.115109,0.136053,-4.506708,5.574719,17.810355,-25.715362,-15.339812,0.116527,0.259248,0.000000,-0.424605,0.143271,-0.000000
3.170000,2.109497,-0.756892,-1.519268,1.695905,0.816690,-0.574483,-2.303771,1.006624,1.170065,0.315800,-4.766878,5.414052,17.972269,-25.895816,-16.806256,0.112103,0.260580,0.000000,-0.460381,0.121105,-0.000000
3.180000,2.126341,-0.748675,-1.524954,1.672887,0.826514,-0.562515,-2.299726,0.957693,1.223340,0.492004,-5.015761,5.238335,17.256664,-23.852819,-18.331754,0.107322,0.261684,0.000000,-0.495627,0.098420,0.000000
3.190000,2.142955,-0.740363,-1.530517,1.649917,0.835836,-0.550023,-2.293947,0.906355,1.274783,0.664026,-5.251871,5.047906,17.301990,-23.765287,-19.728906,0.102194,0.262558,0.000000,-0.530091,0.075292,-0.000000
3.200000,2.159339,-0.731960,-1.535952,1.627013,0.844633,-0.537026,-2.286441,0.852651,1.324253,0.836534,-5.487274,4.843761,17.032232,-22.890142,-21.109490,0.096718,0.263194,0.000000,-0.565025,0.051243,0.000000
3.210000,2.175495,-0.723472,-1.541256,1.604194,0.852881,-0.523545,-2.277234,0.796661,1.371615,1.004210,-5.708932,4.626637,16.708192,-21.900053,-22.422535,0.090897,0.263587,0.000000,-0.598890,0.026881,0.000000
3.220000,2.191423,-0.714904,-1.546422,1.581474,0.860559,-0.509601,-2.266351,0.738468,1.416733,1.172515,-5.929342,4.394436,16.740365,-21.708883,-23.893820,0.084738,0.263731,0.000000,-0.633011,0.001557,-0.000000
3.230000,2.207125,-0.706263,-1.551446,1.558872,0.867644,-0.495218,-2.253806,0.678132,1.459469,1.334569,-6.133193,4.151358,15.657582,-19.033403,-24.706789,0.078243,0.263618,0.000000,-0.665520,-0.023827,0.000000
3.240000,2.222601,-0.697554,-1.556325,1.536403,0.874115,-0.480420,-2.239685,0.615868,1.499728,1.489702,-6.319035,3.898252,15.570451,-18.585543,-26.016119,0.071434,0.263253,0.000000,-0.696112,-0.049134,-0.000000
3.250000,2.237854,-0.688783,-1.561053,1.514084,0.879955,-0.465232,-2.224011,0.551757,1.537389,1.644092,-6.500716,3.632269,15.094758,-17.276240,-27.052965,0.064321,0.262631,0.000000,-0.726270,-0.075104,0.000000
3.260000,2.252883,-0.679957,-1.565628,1.491928,0.885144,-0.449681,-2.206828,0.485919,1.572352,1.791630,-6.664501,3.359028,14.578412,-15.879522,-27.969703,0.056917,0.261749,0.000000,-0.754249,-0.100842,-0.000000
3.270000,2.267693,-0.671082,-1.570046,1.469952,0.889668,-0.433794,-2.188182,0.418482,1.604509,1.937127,-6.821861,3.069596,14.349416,-15.183663,-29.524216,0.049238,0.260608,0.000000,-0.781301,-0.127112,-0.000000
3.280000,2.282283,-0.662166,-1.574303,1.448169,0.893509,-0.417601,-2.168112,0.349550,1.633735,2.075025,-6.959612,2.776776,13.220068,-12.344415,-29.012002,0.041300,0.259206,0.000000,-0.805676,-0.152843,0.000000
3.290000,2.296657,-0.653214,-1.578397,1.426594,0.896655,-0.401129,-2.146710,0.279362,1.660041,2.204795,-7.076619,2.482050,12.897201,-11.450125,-30.297452,0.033135,0.257551,0.000000,-0.827104,-0.177865,0.000000
3.300000,2.310816,-0.644235,-1.582325,1.405239,0.899093,-0.384410,-2.124023,0.208039,1.683327,2.331451,-7.185036,2.174404,12.262980,-9.824824,-30.835119,0.024762,0.255646,0.000000,-0.846935,-0.203022,-0.000000
3.310000,2.324762,-0.635235,-1.586084,1.384118,0.900812,-0.367473,-2.100109,0.135731,1.703534,2.450230,-7.273582,1.866739,11.602826,-8.151418,-31.231035,0.016207,0.253493,0.000000,-0.863669,-0.227311,0.000000
3.320000,2.338499,-0.626221,-1.589674,1.363241,0.901804,-0.350350,-2.075032,0.062601,1.720605,2.564485,-7.350460,1.545073,11.134181,-6.953151,-32.549723,0.007496,0.251099,0.000000,-0.878194,-0.251470,-0.000000
3.330000,2.352028,-0.617201,-1.593091,1.342621,0.902062,-0.333072,-2.048848,-0.011208,1.734453,2.670529,-7.406969,1.227330,10.068384,-4.336067,-30.963865,-0.001345,0.248467,0.000000,-0.889339,-0.274467,-0.000000
3.340000,2.365352,-0.608182,-1.596335,1.322267,0.901579,-0.315671,-2.021651,-0.085466,1.745175,2.768035,-7.442478,0.915350,9.541930,-3.030649,-31.953334,-0.010279,0.245614,0.000000,-0.896971,-0.296146,-0.000000
3.350000,2.378474,-0.599172,-1.599404,1.302191,0.900352,-0.298179,-1.993502,-0.160020,1.752716,2.860378,-7.465255,0.593215,8.813141,-1.255278,-31.916918,-0.019277,0.242545,0.000000,-0.902001,-0.317303,0.000000
3.360000,2.391397,-0.590178,-1.602298,1.282400,0.898378,-0.280627,-1.964472,-0.234707,1.757070,2.944427,-7.469181,0.278057,8.072431,0.507265,-31.732898,-0.028308,0.239272,0.000000,-0.903669,-0.337013,-0.000000
3.370000,2.404123,-0.581207,-1.605016,1.262904,0.895658,-0.263048,-1.934632,-0.309342,1.758234,3.022513,-7.454771,-0.046933,7.468870,2.339087,-32.629156,-0.037339,0.235804,0.000000,-0.901955,-0.355972,-0.000000
3.380000,2.416656,-0.572267,-1.607559,1.243710,0.892192,-0.245473,-1.904050,-0.383745,1.756171,3.092217,-7.423160,-0.361194,6.469175,3.980351,-30.185764,-0.046336,0.232153,0.000000,-0.897055,-0.373260,0.000000
3.390000,2.428999,-0.563366,-1.609926,1.224825,0.887984,-0.227935,-1.872817,-0.457748,1.751057,3.153410,-7.374491,-0.662791,5.845133,5.786544,-30.739872,-0.055269,0.228337,0.000000,-0.889053,-0.388783,-0.000000
3.400000,2.441154,-0.554510,-1.612118,1.206256,0.883039,-0.210462,-1.841001,-0.531174,1.742885,3.208485,-7.307797,-0.970348,5.095198,7.512759,-30.132655,-0.064106,0.224368,0.000000,-0.877751,-0.403297,-0.000000
3.410000,2.453125,-0.545707,-1.614135,1.188007,0.877363,-0.193087,-1.808671,-0.603850,1.731699,3.256325,-7.224519,-1.265388,4.366573,9.207208,-29.403608,-0.072815,0.220260,0.000000,-0.863500,-0.416144,-0.000000
3.420000,2.464915,-0.536965,-1.615980,1.170084,0.870965,-0.175838,-1.775907,-0.675603,1.717559,3.294835,-7.123130,-1.563099,3.442729,10.997656,-29.595073,-0.081365,0.216028,0.000000,-0.846059,-0.427464,0.000000
3.430000,2.476527,-0.528290,-1.617653,1.152490,0.863855,-0.158746,-1.742793,-0.746261,1.700490,3.327437,-7.006101,-1.845903,3.083138,12.398841,-26.934415,-0.089727,0.211688,0.000000,-0.825974,-0.437192,-0.000000
3.440000,2.487966,-0.519690,-1.619155,1.135229,0.856044,-0.141838,-1.709377,-0.815675,1.680700,3.354401,-6.873954,-2.112172,2.205256,14.089947,-26.838048,-0.097877,0.207254,0.000000,-0.803462,-0.445338,-0.000000
3.450000,2.499233,-0.511172,-1.620490,1.118303,0.847546,-0.125141,-1.675737,-0.883683,1.658239,3.372503,-6.725051,-2.377869,1.524490,15.614092,-25.756768,-0.105787,0.202743,0.000000,-0.778256,-0.451933,0.000000
3.460000,2.510333,-0.502742,-1.621659,1.101715,0.838375,-0.108681,-1.641946,-0.950136,1.633199,3.384513,-6.563306,-2.628104,0.857861,17.048032,-24.597839,-0.113436,0.198170,0.000000,-0.751121,-0.456957,-0.000000
3.470000,2.521269,-0.494406,-1.622665,1.085465,0.828549,-0.092485,-1.608070,-1.014876,1.605691,3.389520,-6.381329,-2.872533,0.169500,19.022540,-23.966718,-0.120800,0.193549,0.000000,-0.721188,-0.460560,0.000000
3.480000,2.532043,-0.486173,-1.623510,1.069553,0.818084,-0.076575,-1.574176,-1.077732,1.575805,3.388445,-6.189673,-3.100717,-0.379762,19.286942,-21.650295,-0.127856,0.188896,0.000000,-0.689983,-0.462644,-0.000000
3.490000,2.542661,-0.478047,-1.624197,1.053981,0.807001,-0.060976,-1.540321,-1.138643,1.543737,3.381563,-5.989489,-3.311624,-1.014429,21.053820,-20.835342,-0.134596,0.184225,0.000000,-0.657794,-0.463270,-0.000000
3.500000,2.553124,-0.470035,-1.624730,1.038747,0.795318,-0.045708,-1.506566,-1.197457,1.509593,3.368445,-5.771548,-3.514598,-1.582526,22.205100,-19.439753,-0.141004,0.179550,0.000000,-0.623527,-0.462639,-0.000000
3.510000,2.563437,-0.462142,-1.625113,1.023849,0.783059,-0.030791,-1.472965,-1.254060,1.473503,3.350947,-5.547603,-3.700923,-2.100714,23.221855,-18.001213,-0.147066,0.174884,0.000000,-0.588818,-0.460828,-0.000000
3.520000,2.573602,-0.454375,-1.625347,1.009287,0.770245,-0.016244,-1.439579,-1.308324,1.435609,3.324800,-5.301397,-3.876183,-2.939827,25.372643,-16.868551,-0.152771,0.170239,0.000000,-0.551801,-0.457516,-0.000000
3.530000,2.583624,-0.446739,-1.625439,0.995057,0.756901,-0.002084,-1.406476,-1.360088,1.396037,3.296113,-5.053720,-4.034485,-2.786053,24.128291,-14.782270,-0.158104,0.165628,0.000000,-0.515108,-0.453343,0.000000
3.540000,2.593504,-0.439239,-1.625390,0.981156,0.743051,0.011672,-1.373662,-1.409404,1.354978,3.265488,-4.806328,-4.175343,-3.518206,25.973947,-13.565401,-0.163076,0.161060,0.000000,-0.479028,-0.448425,0.000000
3.550000,2.603248,-0.431880,-1.625207,0.967582,0.728721,0.025011,-1.341194,-1.456140,1.312567,3.227454,-4.539962,-4.304232,-3.898895,26.647744,-12.033038,-0.167678,0.156544,0.000000,-0.441342,-0.442297,-0.000000
3.560000,2.612857,-0.424666,-1.624892,0.954331,0.713937,0.037920,-1.309109,-1.500206,1.268947,3.189269,-4.272564,-4.417353,-4.202001,27.227114,-10.515834,-0.171905,0.152089,0.000000,-0.404254,-0.435766,0.000000
3.570000,2.622336,-0.417602,-1.624450,0.941399,0.698726,0.050386,-1.277457,-1.541540,1.224277,3.139213,-3.991944,-4.513867,-5.346767,28.484152,-8.860980,-0.175759,0.147705,0.000000,-0.366439,-0.427553,-0.000000
3.580000,2.631686,-0.410693,-1.623885,0.928780,0.683116,0.062402,-1.246312,-1.580049,1.178717,3.092034,-3.711534,-4.596137,-4.068612,27.570499,-7.597550,-0.179237,0.143404,0.000000,-0.329453,-0.419410,0.000000
3.590000,2.640912,-0.403941,-1.623203,0.916471,0.667135,0.073958,-1.215599,-1.615779,1.132400,3.048730,-3.432775,-4.664401,-5.046900,28.568643,-5.985286,-0.182352,0.139179,0.000000,-0.293475,-0.411484,-0.000000
3.600000,2.650017,-0.397351,-1.622408,0.904467,0.650810,0.085048,-1.185380,-1.648663,1.085484,2.995127,-3.143864,-4.716549,-5.209487,28.798512,-4.522366,-0.185105,0.135041,0.000000,-0.257231,-0.402207,0.000000
3.610000,2.659003,-0.390926,-1.621504,0.892762,0.634171,0.095666,-1.155684,-1.678663,1.038106,2.944061,-2.856009,-4.756921,-5.331748,28.947258,-3.133222,-0.187500,0.130994,0.000000,-0.221922,-0.393112,-0.000000
3.620000,2.667873,-0.384669,-1.620496,0.881351,0.617246,0.105809,-1.126529,-1.705765,0.990425,2.885526,-2.563461,-4.775431,-6.046776,29.365211,-0.987251,-0.189545,0.127043,0.000000,-0.187105,-0.382987,0.000000
3.630000,2.676631,-0.378582,-1.619389,0.870229,0.600065,0.115474,-1.097961,-1.729940,0.942622,2.830009,-2.272830,-4.785459,-5.042137,28.741654,-1.038694,-0.191246,0.123193,0.000000,-0.153253,-0.373212,0.000000
3.640000,2.685278,-0.372668,-1.618188,0.859390,0.582657,0.124661,-1.069914,-1.751233,0.894738,2.778224,-1.985187,-4.788028,-5.637588,28.958706,0.932539,-0.192614,0.119438,0.000000,-0.120439,-0.363882,-0.000000
3.650000,2.693819,-0.366930,-1.616898,0.848829,0.565050,0.133370,-1.042423,-1.769634,0.846936,2.720103,-1.695490,-4.770514,-5.657600,28.783141,2.146394,-0.193657,0.115782,0.000000,-0.088342,-0.353765,-0.000000
3.660000,2.702256,-0.361368,-1.615522,0.838540,0.547274,0.141601,-1.015503,-1.785160,0.799343,2.663889,-1.410314,-4.746484,-5.668232,28.512646,3.262140,-0.194384,0.112227,0.000000,-0.057381,-0.343949,0.000000
3.670000,2.710591,-0.355985,-1.614067,0.828517,0.529357,0.149358,-0.989152,-1.797828,0.752092,2.606036,-1.122969,-4.699845,-5.819250,28.679250,5.462445,-0.194806,0.108772,0.000000,-0.027143,-0.333875,-0.000000
3.680000,2.718827,-0.350781,-1.612537,0.818755,0.511327,0.156644,-0.963378,-1.807644,0.705353,2.549238,-0.842531,-4.649897,-5.535982,27.388694,4.498147,-0.194932,0.105419,0.000000,0.001838,-0.324078,-0.000000
3.690000,2.726967,-0.345758,-1.610936,0.809248,0.493213,0.163466,-0.938162,-1.814708,0.659096,2.493718,-0.570057,-4.598088,-5.648128,27.362644,6.452011,-0.194774,0.102164,0.000000,0.029521,-0.314591,0.000000
3.700000,2.735013,-0.340917,-1.609269,0.799990,0.475042,0.169828,-0.913509,-1.819042,0.613469,2.436995,-0.297763,-4.526165,-5.615472,26.818948,7.325280,-0.194344,0.099007,0.000000,0.056390,-0.304960,-0.000000
3.710000,2.742968,-0.336258,-1.607541,0.790975,0.456841,0.175738,-0.889425,-1.820696,0.568577,2.379815,-0.034350,-4.451026,-5.608468,26.194337,8.123579,-0.193651,0.095948,0.000000,0.081920,-0.295454,0.000000
3.720000,2.750833,-0.331780,-1.605756,0.782199,0.438637,0.181203,-0.865896,-1.819723,0.524509,2.326777,0.229071,-4.359937,-5.204662,26.150641,9.664088,-0.192707,0.092984,0.000000,0.106807,-0.286428,0.000000
3.730000,2.758612,-0.327485,-1.603918,0.773656,0.420455,0.186231,-0.842899,-1.816154,0.481382,2.271402,0.481557,-4.266763,-5.877161,24.328370,8.946808,-0.191520,0.090112,0.000000,0.130251,-0.277343,-0.000000
3.740000,2.766307,-0.323371,-1.602033,0.765339,0.402322,0.190833,-0.820478,-1.810134,0.439173,2.213379,0.722168,-4.172737,-5.520679,24.120033,10.270733,-0.190107,0.087334,0.000000,0.152221,-0.268173,0.000000
3.750000,2.773920,-0.319438,-1.600103,0.757244,0.384261,0.195018,-0.798615,-1.801710,0.397980,2.159207,0.960990,-4.065154,-5.521604,23.305699,10.813225,-0.188477,0.084648,0.000000,0.173531,-0.259478,-0.000000
3.760000,2.781453,-0.315686,-1.598134,0.749365,0.366295,0.198797,-0.777309,-1.790949,0.357873,2.101697,1.189884,-3.955607,-5.562759,22.476382,11.296155,-0.186640,0.082052,0.000000,0.193623,-0.250613,0.000000
3.770000,2.788908,-0.312112,-1.596128,0.741696,0.348449,0.202179,-0.756548,-1.777940,0.318900,2.051780,1.410499,-3.837500,-4.828340,21.633548,12.110831,-0.184609,0.079543,0.000000,0.212559,-0.242646,-0.000000
3.780000,2.796287,-0.308716,-1.594091,0.734233,0.330744,0.205179,-0.736294,-1.762769,0.281126,1.996570,1.622291,-3.717878,-6.227613,20.720896,11.797434,-0.182393,0.077117,0.000000,0.230472,-0.234302,0.000000
3.790000,2.803593,-0.305497,-1.592026,0.726968,0.313201,0.207806,-0.716640,-1.745525,0.244543,1.935424,1.825024,-3.597616,-5.592608,19.831508,12.451373,-0.180002,0.074780,0.000000,0.247384,-0.225522,0.000000
3.800000,2.810827,-0.302451,-1.589936,0.719898,0.295840,0.210074,-0.697555,-1.726298,0.209200,1.881212,2.018799,-3.470794,-5.660371,18.912712,12.698662,-0.177449,0.072528,0.000000,0.263208,-0.217571,0.000000
3.810000,2.817992,-0.299579,-1.587826,0.713016,0.278681,0.211994,-0.679030,-1.705170,0.175128,1.823627,2.205457,-3.343248,-5.723888,18.027636,12.894009,-0.174741,0.070360,0.000000,0.278277,-0.209434,0.000000
3.820000,2.825088,-0.296877,-1.585698,0.706315,0.261742,0.213580,-0.661074,-1.682250,0.142348,1.767945,2.375744,-3.212240,-5.543246,16.407266,13.209149,-0.171890,0.068274,0.000000,0.291633,-0.201620,-0.000000
3.830000,2.832119,-0.294343,-1.583555,0.699792,0.245042,0.214845,-0.643679,-1.657667,0.110883,1.710017,2.541535,-3.081117,-6.047305,16.762638,13.004457,-0.168909,0.066268,0.000000,0.304555,-0.193726,-0.000000
3.840000,2.839085,-0.291975,-1.581402,0.693440,0.228595,0.215802,-0.626883,-1.631430,0.080723,1.649612,2.703343,-2.950500,-5.903278,15.217342,13.201470,-0.165799,0.064344,0.000000,0.317118,-0.185727,-0.000000
3.850000,2.845988,-0.289771,-1.579240,0.687253,0.212418,0.216464,-0.610679,-1.603661,0.051881,1.590821,2.849135,-2.818014,-5.985626,14.322521,13.198165,-0.162573,0.062500,0.000000,0.328094,-0.178013,0.000000
3.860000,2.852830,-0.287726,-1.577073,0.681224,0.196526,0.216844,-0.595079,-1.574461,0.024356,1.528968,2.989531,-2.687191,-6.094138,13.443597,13.136795,-0.159239,0.060737,0.000000,0.338623,-0.170128,-0.000000
3.870000,2.859613,-0.285839,-1.574904,0.675349,0.180933,0.216956,-0.580080,-1.543925,-0.001852,1.471615,3.115142,-2.553783,-5.658857,11.984627,13.365814,-0.155806,0.059052,0.000000,0.347708,-0.162799,-0.000000
3.880000,2.866338,-0.284106,-1.572735,0.669621,0.165652,0.216812,-0.565663,-1.512173,-0.026732,1.409864,3.235651,-2.423620,-6.699608,12.128447,12.655373,-0.152285,0.057442,0.000000,0.356426,-0.155159,0.000000
3.890000,2.873006,-0.282525,-1.570569,0.664033,0.150694,0.216425,-0.551901,-1.479225,-0.050338,1.343350,3.351579,-2.297310,-6.317111,10.751297,12.774740,-0.148678,0.055913,0.000000,0.364838,-0.147170,0.000000
3.900000,2.879619,-0.281091,-1.568407,0.658581,0.136071,0.215809,-0.538777,-1.445194,-0.072671,1.281121,3.453328,-2.169710,-6.411715,9.907188,12.566806,-0.144994,0.054463,0.000000,0.371919,-0.139701,0.000000
3.910000,2.886178,-0.279802,-1.566253,0.653256,0.121793,0.214976,-0.526282,-1.410175,-0.093741,1.217823,3.549048,-2.044691,-6.455862,9.074218,12.350104,-0.141241,0.053090,0.000000,0.378543,-0.132230,0.000000
3.920000,2.892684,-0.278654,-1.564108,0.648053,0.107870,0.213939,-0.514439,-1.374254,-0.113579,1.150126,3.633341,-1.923544,-6.879399,7.946469,11.954258,-0.137426,0.051794,0.000000,0.384199,-0.124425,-0.000000
3.930000,2.899139,-0.277644,-1.561975,0.642965,0.094311,0.212709,-0.503271,-1.337528,-0.132217,1.084519,3.711378,-1.804024,-6.233512,7.668196,11.948355,-0.133558,0.050576,0.000000,0.389366,-0.116914,0.000000
3.940000,2.905544,-0.276767,-1.559855,0.637985,0.081122,0.211298,-0.492739,-1.300045,-0.149665,1.021410,3.783520,-1.686247,-6.590260,6.601404,11.523996,-0.129640,0.049433,0.000000,0.394081,-0.109731,-0.000000
3.950000,2.911899,-0.276020,-1.557750,0.633108,0.068312,0.209719,-0.482860,-1.261897,-0.165958,0.954496,3.844825,-1.572931,-6.586574,5.822808,11.216171,-0.125680,0.048365,0.000000,0.397898,-0.102257,-0.000000
3.960000,2.918206,-0.275399,-1.555661,0.628326,0.055886,0.207983,-0.473634,-1.223171,-0.181128,0.890805,3.898958,-1.461513,-6.537727,5.044823,10.904978,-0.121684,0.047370,0.000000,0.401138,-0.095170,-0.000000
3.970000,2.924466,-0.274901,-1.553590,0.623633,0.043850,0.206100,-0.465073,-1.183940,-0.195212,0.820215,3.946128,-1.356351,-7.200747,4.354600,10.280531,-0.117659,0.046450,0.000000,0.403879,-0.087481,-0.000000
3.980000,2.930679,-0.274521,-1.551539,0.619022,0.032209,0.204082,-0.457210,-1.144276,-0.208259,0.754757,3.985320,-1.252684,-5.876754,3.485297,10.455739,-0.113609,0.045606,0.000000,0.405953,-0.080355,0.000000
3.990000,2.936847,-0.274256,-1.549509,0.614487,0.020966,0.201939,-0.449956,-1.104260,-0.220269,0.695095,4.016648,-1.150411,-6.434160,2.820922,9.840568,-0.109542,0.044830,0.000000,0.407370,-0.073850,0.000000
4.000000,2.942969,-0.274100,-1.547501,0.610021,0.010125,0.199680,-0.443335,-1.063964,-0.231292,0.629352,4.041477,-1.054570,-6.333112,2.110441,9.482401,-0.105463,0.044123,0.000000,0.408322,-0.066809,-0.000000
4.010000,2.949047,-0.274052,-1.545516,0.605618,-0.000312,0.197316,-0.437361,-1.023455,-0.241370,0.565422,4.059007,-0.961683,-6.265239,1.418753,9.105846,-0.101377,0.043485,0.000000,0.408681,-0.059993,-0.000000
4.020000,2.955082,-0.274105,-1.543555,0.601272,-0.010344,0.194856,-0.432009,-0.982805,-0.250537,0.505795,4.070102,-0.872362,-5.838528,0.784002,8.746270,-0.097291,0.042915,0.000000,0.408534,-0.053644,-0.000000
4.030000,2.961073,-0.274257,-1.541619,0.596976,-0.019968,0.192308,-0.427251,-0.942076,-0.258830,0.444907,4.074346,-0.787012,-6.342762,0.067643,8.322824,-0.093209,0.042408,0.000000,0.407840,-0.047212,-0.000000
4.040000,2.967022,-0.274503,-1.539709,0.592724,-0.029185,0.189682,-0.423117,-0.901340,-0.266291,0.382626,4.071919,-0.705676,-5.929405,-0.529844,7.955907,-0.089136,0.041967,0.000000,0.406611,-0.040680,0.000000
4.050000,2.972928,-0.274840,-1.537826,0.588511,-0.037995,0.186985,-0.419581,-0.860657,-0.272956,0.324800,4.063654,-0.627996,-5.813604,-1.138839,7.569157,-0.085078,0.041589,0.000000,0.404917,-0.034619,-0.000000
4.060000,2.978792,-0.275262,-1.535970,0.584331,-0.046399,0.184225,-0.416618,-0.820083,-0.278860,0.268035,4.050222,-0.553387,-5.659776,-1.706047,7.201961,-0.081039,0.041271,0.000000,0.402814,-0.028689,0.000000
4.070000,2.984614,-0.275766,-1.534141,0.580177,-0.054398,0.181410,-0.414225,-0.779684,-0.284048,0.210516,4.028116,-0.485335,-5.723125,-2.553949,6.555645,-0.077024,0.041014,0.000000,0.399979,-0.022723,-0.000000
4.080000,2.990396,-0.276348,-1.532342,0.576045,-0.061993,0.178546,-0.412396,-0.739531,-0.288572,0.156109,4.002526,-0.419183,-5.152763,-2.555303,6.680143,-0.073040,0.040814,0.000000,0.396877,-0.017079,0.000000
4.090000,2.996135,-0.277005,-1.530571,0.571927,-0.069189,0.175641,-0.411090,-0.699643,-0.292436,0.105091,3.973900,-0.354678,-5.169070,-3.325083,6.073945,-0.069087,0.040670,0.000000,0.393547,-0.011783,0.000000
4.100000,3.001834,-0.277731,-1.528829,0.567821,-0.075987,0.172700,-0.410298,-0.660082,-0.295689,0.053781,3.937450,-0.296426,-4.971815,-3.802594,5.725135,-0.065172,0.040578,0.000000,0.389544,-0.006488,0.000000
4.110000,3.007492,-0.278523,-1.527117,0.563720,-0.082392,0.169729,-0.410004,-0.620906,-0.298372,0.005356,3.897138,-0.240652,-4.764093,-4.266554,5.379299,-0.061298,0.040539,0.000000,0.385225,-0.001490,0.000000
4.120000,3.013108,-0.279377,-1.525434,0.559619,-0.088407,0.166734,-0.410187,-0.582155,-0.300518,-0.041905,3.852098,-0.189306,-4.639315,-4.727546,4.942806,-0.057469,0.040548,0.000000,0.380512,0.003374,-0.000000
4.130000,3.018684,-0.280290,-1.523782,0.555515,-0.094037,0.163720,-0.410832,-0.543877,-0.302167,-0.086412,3.802873,-0.140685,-4.259142,-5.113419,4.784570,-0.053688,0.040605,0.000000,0.375440,0.007955,0.000000
4.140000,3.024219,-0.281257,-1.522160,0.551401,-0.099286,0.160692,-0.411906,-0.506111,-0.303340,-0.128014,3.749700,-0.094624,-4.107677,-5.527776,4.377330,-0.049961,0.040706,0.000000,0.370028,0.012241,0.000000
4.150000,3.029712,-0.282274,-1.520568,0.547275,-0.104161,0.157655,-0.413389,-0.468897,-0.304074,-0.168142,3.692478,-0.052665,-3.868685,-5.902745,4.068386,-0.046289,0.040850,0.000000,0.364269,0.016367,0.000000
4.160000,3.035164,-0.283339,-1.519007,0.543132,-0.108666,0.154612,-0.415259,-0.432273,-0.304400,-0.205572,3.631741,-0.013014,-3.624939,-6.254809,3.776906,-0.042676,0.041033,0.000000,0.358201,0.020219,-0.000000
4.170000,3.040575,-0.284447,-1.517476,0.538969,-0.112808,0.151568,-0.417492,-0.396275,-0.304350,-0.240702,3.567327,0.022114,-3.391747,-6.611005,3.334706,-0.039126,0.041254,0.000000,0.351813,0.023829,0.000000
4.180000,3.045943,-0.285594,-1.515976,0.534781,-0.116594,0.148526,-0.420064,-0.360937,-0.303963,-0.273212,3.499877,0.055487,-3.109122,-6.874962,3.344610,-0.035641,0.041509,0.000000,0.345152,0.027177,-0.000000
4.190000,3.051270,-0.286777,-1.514506,0.530566,-0.120029,0.145490,-0.422948,-0.326286,-0.303245,-0.303042,3.429626,0.087344,-2.864736,-7.185165,2.943883,-0.032224,0.041797,0.000000,0.338237,0.030257,0.000000
4.200000,3.056555,-0.287993,-1.513066,0.526321,-0.123122,0.142462,-0.426117,-0.292354,-0.302231,-0.330428,3.356361,0.115122,-2.602784,-7.450898,2.699196,-0.028877,0.042114,0.000000,0.331052,0.033083,-0.000000
4.210000,3.061797,-0.289239,-1.511656,0.522043,-0.125879,0.139446,-0.429547,-0.259167,-0.300947,-0.355130,3.280706,0.141313,-2.338273,-7.694379,2.469793,-0.025604,0.042458,0.000000,0.323647,0.035641,-0.000000
4.220000,3.066995,-0.290510,-1.510277,0.517730,-0.128308,0.136444,-0.433211,-0.226749,-0.299418,-0.377197,3.202378,0.163905,-2.073846,-7.950385,2.119827,-0.022405,0.042826,0.000000,0.315996,0.037927,0.000000
4.230000,3.072151,-0.291804,-1.508927,0.513378,-0.130416,0.133459,-0.437082,-0.195126,-0.297673,-0.396581,3.122132,0.185202,-1.802786,-8.094949,2.143801,-0.019284,0.043216,0.000000,0.308164,0.039946,-0.000000
4.240000,3.077263,-0.293117,-1.507608,0.508987,-0.132213,0.130492,-0.441134,-0.164312,-0.295717,-0.413273,3.040196,0.205425,-1.536824,-8.306294,1.833055,-0.016242,0.043624,0.000000,0.300173,0.041697,-0.000000
4.250000,3.082331,-0.294447,-1.506317,0.504555,-0.133706,0.127545,-0.445339,-0.134329,-0.293576,-0.427302,2.956221,0.222499,-1.268762,-8.467843,1.653104,-0.013282,0.044049,0.000000,0.291989,0.043175,0.000000
4.260000,3.087354,-0.295790,-1.505057,0.500080,-0.134902,0.124621,-0.449671,-0.105192,-0.291271,-0.438671,2.870950,0.238331,-1.002549,-8.607916,1.484302,-0.010403,0.044487,0.000000,0.283680,0.044387,0.000000
4.270000,3.092332,-0.297144,-1.503825,0.495561,-0.135812,0.121720,-0.454103,-0.076916,-0.288817,-0.447334,2.783900,0.251938,-0.733129,-8.774834,1.269304,-0.007609,0.044936,0.000000,0.275197,0.045325,0.000000
4.280000,3.097265,-0.298506,-1.502622,0.490998,-0.136444,0.118845,-0.458609,-0.049517,-0.286235,-0.453398,2.696022,0.264391,-0.480214,-8.796948,1.224146,-0.004899,0.045393,0.000000,0.266633,0.046002,0.000000
4.290000,3.102152,-0.299872,-1.501448,0.486389,-0.136805,0.115996,-0.463163,-0.022998,-0.283533,-0.456897,2.607537,0.275849,-0.217567,-8.921117,1.038891,-0.002276,0.045855,0.000000,0.258007,0.046422,-0.000000
4.300000,3.106993,-0.301241,-1.500302,0.481734,-0.136907,0.113174,-0.467738,0.002630,-0.280725,-0.457780,2.517866,0.285461,0.036901,-8.985884,0.916273,0.000260,0.046320,0.000000,0.249262,0.046578,-0.000000
4.310000,3.111786,-0.302609,-1.499184,0.477034,-0.136756,0.110381,-0.472310,0.027359,-0.277826,-0.456294,2.427839,0.294264,0.283703,-9.032548,0.807234,0.002709,0.046786,0.000000,0.240478,0.046496,0.000000
4.320000,3.116533,-0.303975,-1.498094,0.472288,-0.136362,0.107618,-0.476854,0.051184,-0.274846,-0.451900,2.337126,0.301283,0.570482,-9.091742,0.636053,0.005070,0.047249,0.000000,0.231622,0.046119,-0.000000
4.330000,3.121232,-0.305336,-1.497032,0.467497,-0.135735,0.104885,-0.481342,0.074101,-0.271801,-0.445401,2.246387,0.307812,0.727544,-9.052785,0.672555,0.007342,0.047707,0.000000,0.222759,0.045531,0.000000
4.340000,3.125883,-0.306689,-1.495997,0.462662,-0.134883,0.102182,-0.485755,0.096112,-0.268691,-0.436895,2.155811,0.314003,0.996379,-9.075432,0.529142,0.009525,0.048159,0.000000,0.213907,0.044744,0.000000
4.350000,3.130485,-0.308033,-1.494988,0.457783,-0.133816,0.099511,-0.490070,0.117217,-0.265527,-0.425699,2.065066,0.318748,1.217562,-9.055445,0.459540,0.011620,0.048601,0.000000,0.205032,0.043683,-0.000000
4.360000,3.135038,-0.309365,-1.494006,0.452861,-0.132542,0.096872,-0.494263,0.137416,-0.262317,-0.412520,1.974877,0.323126,1.430631,-9.016951,0.398453,0.013626,0.049032,0.000000,0.196207,0.042424,0.000000
4.370000,3.139542,-0.310683,-1.493051,0.447898,-0.131071,0.094265,-0.498312,0.156713,-0.259068,-0.396988,1.884434,0.326571,1.660852,-9.033250,0.310322,0.015543,0.049449,0.000000,0.187349,0.040926,0.000000
4.380000,3.143996,-0.311985,-1.492121,0.442895,-0.129411,0.091691,-0.502197,0.175108,-0.255786,-0.379614,1.795018,0.329742,1.812098,-8.846448,0.325752,0.017373,0.049850,0.000000,0.178588,0.039244,0.000000
4.390000,3.148400,-0.313271,-1.491217,0.437854,-0.127571,0.089149,-0.505899,0.192617,-0.252473,-0.360509,1.706819,0.332739,2.020714,-8.827650,0.256263,0.019116,0.050234,0.000000,0.169942,0.037388,0.000000
4.400000,3.152753,-0.314536,-1.490338,0.432778,-0.125561,0.086641,-0.509400,0.209245,-0.249134,-0.339348,1.618817,0.335049,2.196242,-8.734238,0.224911,0.020772,0.050597,0.000000,0.161309,0.035324,-0.000000
4.410000,3.157055,-0.315781,-1.489484,0.427667,-0.123390,0.084167,-0.512682,0.224998,-0.245773,-0.316791,1.531918,0.337131,2.357056,-8.632304,0.197810,0.022342,0.050940,0.000000,0.152780,0.033118,-0.000000
4.420000,3.161306,-0.317004,-1.488654,0.422525,-0.121064,0.081726,-0.515727,0.239888,-0.242392,-0.291842,1.446314,0.339071,2.588389,-8.497578,0.185995,0.023828,0.051259,0.000000,0.144373,0.030673,-0.000000
4.430000,3.165506,-0.318202,-1.487849,0.417354,-0.118595,0.079319,-0.518516,0.253927,-0.238992,-0.265951,1.361770,0.340762,2.586554,-8.409954,0.152864,0.025230,0.051553,0.000000,0.136065,0.028131,-0.000000
4.440000,3.169653,-0.319375,-1.487068,0.412156,-0.115989,0.076946,-0.521044,0.267127,-0.235577,-0.239294,1.278373,0.342246,2.785683,-8.256501,0.149670,0.026550,0.051822,0.000000,0.127866,0.025510,-0.000000
4.450000,3.173749,-0.320521,-1.486310,0.406934,-0.113255,0.074607,-0.523294,0.279500,-0.232147,-0.210636,1.196578,0.343720,2.900603,-8.112329,0.141447,0.027788,0.052063,0.000000,0.119820,0.022688,0.000000
4.460000,3.177792,-0.321640,-1.485576,0.401691,-0.110401,0.072303,-0.525254,0.291063,-0.228703,-0.181271,1.116204,0.345071,3.002111,-7.958746,0.136459,0.028946,0.052275,0.000000,0.111910,0.019793,-0.000000
4.470000,3.181783,-0.322729,-1.484864,0.396429,-0.107436,0.070033,-0.526914,0.301830,-0.225246,-0.150343,1.037451,0.346527,3.150612,-7.792595,0.148063,0.030027,0.052458,0.000000,0.104155,0.016741,0.000000
4.480000,3.185721,-0.323788,-1.484175,0.391153,-0.104367,0.067798,-0.528260,0.311817,-0.221773,-0.118950,0.960332,0.347892,3.124800,-7.630021,0.125255,0.031030,0.052610,0.000000,0.096558,0.013639,-0.000000
4.490000,3.189606,-0.324816,-1.483508,0.385865,-0.101202,0.065598,-0.529292,0.321042,-0.218288,-0.087265,0.884919,0.349181,3.241372,-7.449382,0.139885,0.031958,0.052731,0.000000,0.089124,0.010505,0.000000
4.500000,3.193438,-0.325812,-1.482863,0.380569,-0.097949,0.063433,-0.530001,0.329522,-0.214789,-0.054434,0.811348,0.350636,3.291823,-7.265847,0.144078,0.032813,0.052820,0.000000,0.081869,0.007255,0.000000
4.510000,3.197217,-0.326775,-1.482239,0.375266,-0.094614,0.061302,-0.530380,0.337275,-0.211276,-0.021431,0.739681,0.352031,3.328805,-7.075288,0.148309,0.033596,0.052876,0.000000,0.074797,0.003984,0.000000
4.520000,3.200943,-0.327704,-1.481637,0.369962,-0.091206,0.059207,-0.530427,0.344321,-0.207747,0.012302,0.669781,0.353725,3.394017,-6.895465,0.177742,0.034310,0.052899,0.000000,0.067897,0.000639,-0.000000
4.530000,3.204616,-0.328599,-1.481055,0.364659,-0.087730,0.057147,-0.530135,0.350678,-0.204202,0.045954,0.601962,0.355319,3.333549,-6.667381,0.140797,0.034955,0.052889,0.000000,0.061198,-0.002701,0.000000
4.540000,3.208236,-0.329458,-1.480494,0.359361,-0.084194,0.055123,-0.529509,0.356368,-0.200641,0.079363,0.536279,0.356798,3.367761,-6.477141,0.167759,0.035534,0.052845,0.000000,0.054705,-0.006022,0.000000
4.550000,3.211804,-0.330282,-1.479952,0.354070,-0.080605,0.053135,-0.528546,0.361410,-0.197064,0.113081,0.472502,0.358561,3.351921,-6.269261,0.172131,0.036050,0.052768,0.000000,0.048398,-0.009375,-0.000000
4.560000,3.215318,-0.331070,-1.479431,0.348791,-0.076968,0.051182,-0.527249,0.365824,-0.193471,0.146246,0.410667,0.360178,3.319640,-6.062968,0.173942,0.036503,0.052658,0.000000,0.042279,-0.012678,0.000000
4.570000,3.218779,-0.331822,-1.478928,0.343526,-0.073291,0.049265,-0.525619,0.369633,-0.189859,0.179805,0.351566,0.362246,3.350452,-5.790310,0.217172,0.036896,0.052514,0.000000,0.036427,-0.016021,-0.000000
4.580000,3.222188,-0.332536,-1.478445,0.338279,-0.069578,0.047385,-0.523657,0.372861,-0.186227,0.212380,0.294168,0.364051,3.161262,-5.690045,0.142897,0.037232,0.052338,0.000000,0.030739,-0.019272,0.000000
4.590000,3.225545,-0.333213,-1.477981,0.333054,-0.065835,0.045541,-0.521376,0.375522,-0.182579,0.243788,0.238442,0.365546,3.158082,-5.421283,0.178115,0.037511,0.052129,0.000000,0.025211,-0.022411,-0.000000
4.600000,3.228850,-0.333853,-1.477534,0.327853,-0.062069,0.043733,-0.518780,0.377639,-0.178914,0.275160,0.185460,0.367416,3.074461,-5.208650,0.173199,0.037737,0.051889,0.000000,0.019952,-0.025549,-0.000000
4.610000,3.232102,-0.334454,-1.477106,0.322679,-0.058284,0.041963,-0.515877,0.379237,-0.175232,0.305343,0.134368,0.369048,2.978933,-4.995159,0.165859,0.037911,0.051618,0.000000,0.014875,-0.028573,-0.000000
4.620000,3.235303,-0.335018,-1.476695,0.317536,-0.054486,0.040229,-0.512675,0.380335,-0.171533,0.334871,0.085692,0.370844,2.906366,-4.754297,0.180226,0.038035,0.051317,0.000000,0.010035,-0.031535,-0.000000
4.630000,3.238453,-0.335544,-1.476301,0.312427,-0.050679,0.038532,-0.509184,0.380957,-0.167816,0.363048,0.038982,0.372378,2.726610,-4.588254,0.125553,0.038112,0.050987,0.000000,0.005384,-0.034366,0.000000
4.640000,3.241552,-0.336032,-1.475924,0.307354,-0.046868,0.036872,-0.505420,0.381121,-0.164086,0.389732,-0.005788,0.373601,2.626666,-4.351586,0.131269,0.038144,0.050630,0.000000,0.000920,-0.037054,0.000000
4.650000,3.244600,-0.336481,-1.475564,0.302319,-0.043058,0.035250,-0.501393,0.380850,-0.160344,0.415390,-0.048176,0.374885,2.484487,-4.140483,0.112148,0.038132,0.050246,0.000000,-0.003310,-0.039643,-0.000000
4.660000,3.247598,-0.336893,-1.475219,0.297327,-0.039253,0.033666,-0.497117,0.380163,-0.156590,0.439376,-0.088704,0.375776,2.330199,-3.933539,0.087774,0.038078,0.049837,0.000000,-0.007362,-0.042069,0.000000
4.670000,3.250547,-0.337267,-1.474890,0.292378,-0.035456,0.032118,-0.492609,0.379085,-0.152827,0.462137,-0.126561,0.376834,2.201428,-3.669046,0.101557,0.037985,0.049404,0.000000,-0.011151,-0.044375,0.000000
4.680000,3.253446,-0.337602,-1.474577,0.287475,-0.031672,0.030609,-0.487881,0.377638,-0.149055,0.482976,-0.162738,0.377339,1.964090,-3.567820,-0.001889,0.037856,0.048950,0.000000,-0.014779,-0.046495,0.000000
4.690000,3.256297,-0.337900,-1.474278,0.282621,-0.027905,0.029137,-0.482956,0.375835,-0.145283,0.501764,-0.197301,0.377222,1.810948,-3.314055,-0.000154,0.037690,0.048475,0.000000,-0.018252,-0.048415,-0.000000
4.700000,3.259099,-0.338160,-1.473994,0.277817,-0.024157,0.027703,-0.477851,0.373701,-0.141510,0.519012,-0.229292,0.377135,1.616983,-3.115580,-0.039641,0.037491,0.047981,0.000000,-0.021472,-0.050183,0.000000
4.710000,3.261853,-0.338383,-1.473724,0.273064,-0.020432,0.026307,-0.472584,0.371254,-0.137742,0.534085,-0.259680,0.376501,1.412812,-2.922238,-0.082331,0.037261,0.047471,0.000000,-0.024538,-0.051738,0.000000
4.720000,3.264560,-0.338569,-1.473467,0.268365,-0.016733,0.024949,-0.467175,0.368517,-0.133981,0.547393,-0.287377,0.375527,1.231209,-2.656465,-0.118664,0.037002,0.046946,0.000000,-0.027340,-0.053120,0.000000
4.730000,3.267221,-0.338718,-1.473225,0.263721,-0.013062,0.023627,-0.461644,0.365511,-0.130233,0.558341,-0.313638,0.374000,0.956615,-2.597524,-0.187597,0.036715,0.046409,0.000000,-0.030003,-0.054269,-0.000000
4.740000,3.269835,-0.338830,-1.472995,0.259133,-0.009423,0.022344,-0.456016,0.362248,-0.126503,0.566827,-0.338547,0.371870,0.755527,-2.345361,-0.233453,0.036402,0.045861,0.000000,-0.032537,-0.055175,0.000000
4.750000,3.272403,-0.338907,-1.472778,0.254601,-0.005818,0.021097,-0.450314,0.358750,-0.122797,0.573297,-0.360889,0.369267,0.520096,-2.162783,-0.293106,0.036065,0.045305,0.000000,-0.034818,-0.055881,0.000000
4.760000,3.274927,-0.338947,-1.472573,0.250127,-0.002249,0.019888,-0.444559,0.355034,-0.119121,0.577285,-0.381870,0.365937,0.278389,-1.985742,-0.358409,0.035706,0.044743,0.000000,-0.036967,-0.056342,0.000000
4.770000,3.277406,-0.338952,-1.472380,0.245710,0.001282,0.018715,-0.438776,0.351122,-0.115479,0.578861,-0.400170,0.362226,0.033981,-1.721202,-0.399399,0.035327,0.044178,0.000000,-0.038851,-0.056561,-0.000000
4.780000,3.279841,-0.338921,-1.472198,0.241351,0.004773,0.017578,-0.432990,0.347035,-0.111879,0.577906,-0.417283,0.357621,-0.225919,-1.703403,-0.522765,0.034929,0.043612,0.000000,-0.040622,-0.056530,-0.000000
4.790000,3.282233,-0.338856,-1.472028,0.237050,0.008222,0.016477,-0.427226,0.342780,-0.108330,0.574362,-0.433299,0.352057,-0.481983,-1.452917,-0.575673,0.034514,0.043048,0.000000,-0.042287,-0.056242,0.000000
4.800000,3.284583,-0.338757,-1.471869,0.232807,0.011628,0.015411,-0.421511,0.338378,-0.104840,0.568233,-0.446748,0.345965,-0.746555,-1.284231,-0.658520,0.034084,0.042488,0.000000,-0.043697,-0.055695,0.000000
4.810000,3.286890,-0.338624,-1.471720,0.228620,0.014989,0.014380,-0.415870,0.333847,-0.101414,0.559483,-0.459326,0.339036,-1.012988,-1.125739,-0.742983,0.033641,0.041934,0.000000,-0.045023,-0.054885,0.000000
4.820000,3.289155,-0.338457,-1.471581,0.224489,0.018305,0.013383,-0.410331,0.329205,-0.098063,0.547905,-0.468294,0.330957,-1.296652,-0.770417,-0.859283,0.033185,0.041390,0.000000,-0.045990,-0.053794,0.000000
4.830000,3.291380,-0.338258,-1.471452,0.220413,0.021573,0.012419,-0.404921,0.324481,-0.094797,0.533674,-0.476888,0.322133,-1.550064,-0.951515,-0.905962,0.032721,0.040859,0.000000,-0.046922,-0.052435,-0.000000
4.840000,3.293564,-0.338026,-1.471332,0.216390,0.024794,0.011486,-0.399666,0.319668,-0.091623,0.516764,-0.485247,0.312536,-1.838842,-0.616654,-1.028393,0.032247,0.040342,0.000000,-0.047833,-0.050807,0.000000
4.850000,3.295708,-0.337762,-1.471222,0.212419,0.027966,0.010586,-0.394596,0.314790,-0.088551,0.496944,-0.490095,0.301671,-2.119082,-0.455779,-1.131145,0.031766,0.039843,0.000000,-0.048393,-0.048886,-0.000000
4.860000,3.297812,-0.337467,-1.471121,0.208497,0.031090,0.009715,-0.389737,0.309869,-0.085592,0.474341,-0.493806,0.289822,-2.401880,-0.285840,-1.239534,0.031279,0.039365,0.000000,-0.048841,-0.046686,0.000000
4.870000,3.299878,-0.337141,-1.471028,0.204623,0.034164,0.008873,-0.385118,0.304919,-0.082758,0.448901,-0.495801,0.276865,-2.686338,-0.112608,-1.352698,0.030789,0.038910,0.000000,-0.049118,-0.044199,0.000000
4.880000,3.301905,-0.336784,-1.470943,0.200794,0.037188,0.008059,-0.380768,0.299959,-0.080059,0.420610,-0.496044,0.262752,-2.971997,0.064727,-1.470691,0.030298,0.038481,0.000000,-0.049220,-0.041425,0.000000
4.890000,3.303894,-0.336397,-1.470866,0.197007,0.040163,0.007272,-0.376716,0.295005,-0.077507,0.389459,-0.494490,0.247435,-3.258377,0.246985,-1.593539,0.029806,0.038082,0.000000,-0.049142,-0.038363,0.000000
4.900000,3.305845,-0.335981,-1.470798,0.193259,0.043088,0.006509,-0.372989,0.290075,-0.075115,0.355440,-0.491087,0.230863,-3.545215,0.434872,-1.721514,0.029315,0.037714,0.000000,-0.048878,-0.035011,0.000000
4.910000,3.307759,-0.335535,-1.470736,0.189546,0.045964,0.005769,-0.369616,0.285189,-0.072894,0.318555,-0.485771,0.212987,-3.831854,0.629311,-1.854459,0.028829,0.037382,0.000000,-0.048423,-0.031370,0.000000
4.920000,3.309636,-0.335062,-1.470682,0.185865,0.048792,0.005050,-0.366627,0.280366,-0.070859,0.278805,-0.478476,0.193757,-4.117921,0.831063,-1.992528,0.028348,0.037088,0.000000,-0.047768,-0.027440,-0.000000
4.930000,3.311476,-0.334560,-1.470635,0.182212,0.051572,0.004351,-0.364050,0.275627,-0.069024,0.236199,-0.469123,0.173119,-4.402982,1.040934,-2.135800,0.027874,0.036834,0.000000,-0.046906,-0.023223,0.000000
4.940000,3.313280,-0.334030,-1.470595,0.178583,0.054305,0.003669,-0.361913,0.270991,-0.067402,0.190750,-0.457628,0.151023,-4.686633,1.259720,-2.284359,0.027410,0.036624,0.000000,-0.045827,-0.018719,-0.000000
4.950000,3.315048,-0.333474,-1.470562,0.174972,0.056992,0.003002,-0.360244,0.266481,-0.066008,0.142474,-0.443896,0.127417,-4.968252,1.488236,-2.438091,0.026958,0.036461,0.000000,-0.044523,-0.013932,0.000000
4.960000,3.316780,-0.332891,-1.470535,0.171376,0.059635,0.002348,-0.359072,0.262121,-0.064859,0.091393,-0.427828,0.102244,-5.247581,1.727282,-2.597305,0.026521,0.036346,0.000000,-0.042983,-0.008864,-0.000000
4.970000,3.318476,-0.332281,-1.470515,0.167789,0.062235,0.001704,-0.358426,0.257933,-0.063969,0.037532,-0.409313,0.075452,-5.524107,1.977661,-2.761974,0.026099,0.036284,0.000000,-0.041196,-0.003518,-0.000000
4.980000,3.320136,-0.331646,-1.470501,0.164206,0.064794,0.001068,-0.358331,0.253943,-0.063355,-0.019078,-0.388234,0.046986,-5.797345,2.240172,-2.932160,0.025697,0.036277,0.000000,-0.039149,0.002102,0.000000
4.990000,3.321760,-0.330985,-1.470493,0.160620,0.067315,0.000436,-0.358816,0.250177,-0.063035,-0.078402,-0.364466,0.016790,-6.066722,2.515615,-3.107942,0.025317,0.036327,0.000000,-0.036832,0.007990,0.000000
5.000000,3.323348,-0.330300,-1.470492,0.157027,0.069799,-0.000194,-0.359908,0.246663,-0.063025,-0.140397,-0.337876,-0.015192,-6.331512,2.804791,-3.289444,0.024962,0.036438,0.000000,-0.034229,0.014141,0.000000
