time,x,y,z,vx,vy,vz,ax,ay,az,jx,jy,jz,sx,sy,sz,roll,pitch,yaw,p,q,r
0.000000,-3.006048,-0.880783,-1.278198,0.010747,-0.024707,-0.004772,0.054003,0.432563,0.126652,-1.727587,-3.904565,-4.552058,106.881102,37.249114,100.534330,0.044640,-0.005577,0.000000,-0.423328,0.180844,0.000000
0.010000,-3.005938,-0.881009,-1.278241,0.011218,-0.020570,-0.003717,0.041833,0.395338,0.085873,-0.729884,-3.544576,-3.631622,92.855043,34.770094,83.859015,0.040633,-0.004302,0.000000,-0.379053,0.076601,-0.000000
0.020000,-3.005824,-0.881195,-1.278274,0.011615,-0.016788,-0.003026,0.038957,0.361591,0.053494,0.133340,-3.208741,-2.868910,79.976965,32.417735,68.973953,0.037044,-0.003993,0.000000,-0.339313,-0.012484,-0.000000
0.030000,-3.005706,-0.881346,-1.278302,0.012024,-0.013327,-0.002624,0.044089,0.331087,0.028027,0.873314,-2.895813,-2.246492,68.196686,30.187850,55.784254,0.033833,-0.004507,0.000000,-0.303472,-0.088191,0.000000
0.040000,-3.005583,-0.881463,-1.278327,0.012520,-0.010156,-0.002447,0.056049,0.303602,0.008151,1.500766,-2.604589,-1.747890,57.464165,28.076268,44.195016,0.030964,-0.005718,0.000000,-0.271010,-0.152013,0.000000
0.050000,-3.005455,-0.881550,-1.278352,0.013164,-0.007246,-0.002446,0.073763,0.278926,-0.007292,2.025910,-2.333908,-1.357570,47.727856,26.078717,34.111611,0.028403,-0.007513,0.000000,-0.241505,-0.205228,0.000000
0.060000,-3.005320,-0.881609,-1.278377,0.014011,-0.004569,-0.002582,0.096258,0.256859,-0.019312,2.458476,-2.082649,-1.060954,38.939008,24.191091,25.438846,0.026125,-0.009793,0.000000,-0.214609,-0.248951,-0.000000
0.070000,-3.005174,-0.881642,-1.278404,0.015102,-0.002101,-0.002824,0.122655,0.237212,-0.028778,2.807679,-1.849734,-0.844407,31.046791,22.409166,18.081969,0.024103,-0.012466,0.000000,-0.190034,-0.284172,0.000000
0.080000,-3.005017,-0.881651,-1.278433,0.016474,0.000183,-0.003151,0.152163,0.219807,-0.036425,3.082233,-1.634127,-0.695245,24.000862,20.728741,11.946108,0.022317,-0.015452,0.000000,-0.167542,-0.311787,0.000000
0.090000,-3.004844,-0.881639,-1.278467,0.018154,0.002302,-0.003548,0.184078,0.204475,-0.042868,3.290349,-1.434835,-0.601731,17.750776,19.145601,6.936384,0.020746,-0.018681,0.000000,-0.146934,-0.332620,0.000000
0.100000,-3.004652,-0.881606,-1.278505,0.020162,0.004278,-0.004006,0.217774,0.191059,-0.048609,3.439747,-1.250903,-0.553081,12.247545,17.655712,2.957843,0.019373,-0.022086,0.000000,-0.128041,-0.347434,-0.000000
0.110000,-3.004439,-0.881554,-1.278547,0.022513,0.006129,-0.004520,0.252701,0.179409,-0.054046,3.537623,-1.081424,-0.539453,7.439346,16.254691,-0.084271,0.018180,-0.025613,0.000000,-0.110721,-0.356944,0.000000
0.120000,-3.004201,-0.881483,-1.278595,0.025218,0.007872,-0.005087,0.288378,0.169385,-0.059485,3.590685,-0.925527,-0.551961,3.276506,14.938418,-2.284882,0.017154,-0.029211,0.000000,-0.094850,-0.361821,-0.000000
0.130000,-3.003934,-0.881396,-1.278649,0.028282,0.009522,-0.005710,0.324386,0.160856,-0.065146,3.605137,-0.782387,-0.582662,-0.291185,13.702712,-3.738860,0.016279,-0.032837,0.000000,-0.080318,-0.362694,-0.000000
0.140000,-3.003634,-0.881293,-1.278709,0.031706,0.011094,-0.006391,0.360371,0.153698,-0.071175,3.586678,-0.651218,-0.624566,-3.313865,12.543410,-4.541059,0.015543,-0.036454,0.000000,-0.067032,-0.360153,-0.000000
0.150000,-3.003298,-0.881175,-1.278777,0.035488,0.012600,-0.007135,0.396028,0.147794,-0.077654,3.540509,-0.531278,-0.671627,-5.841581,11.456379,-4.786295,0.014934,-0.040031,0.000000,-0.054903,-0.354744,0.000000
0.160000,-3.002923,-0.881041,-1.278852,0.039624,0.014053,-0.007946,0.431104,0.143037,-0.084608,3.471303,-0.421869,-0.718755,-7.926794,10.436948,-4.569815,0.014441,-0.043542,0.000000,-0.043854,-0.346968,-0.000000
0.170000,-3.002505,-0.880894,-1.278936,0.044108,0.015464,-0.008829,0.465391,0.139324,-0.092016,3.383277,-0.322328,-0.761801,-9.616896,9.481530,-3.986053,0.014054,-0.046965,0.000000,-0.033813,-0.337281,-0.000000
0.180000,-3.002040,-0.880732,-1.279029,0.048929,0.016843,-0.009788,0.498719,0.136560,-0.099820,3.280111,-0.232040,-0.797569,-10.963227,8.585703,-3.130056,0.013762,-0.050283,0.000000,-0.024714,-0.326089,-0.000000
0.190000,-3.001525,-0.880557,-1.279132,0.054078,0.018199,-0.010826,0.530953,0.134654,-0.107935,3.164991,-0.150429,-0.823811,-12.016007,7.745264,-2.096721,0.013557,-0.053484,0.000000,-0.016497,-0.313743,0.000000
0.200000,-3.000957,-0.880368,-1.279246,0.059544,0.019539,-0.011947,0.561988,0.133524,-0.116260,3.040601,-0.076963,-0.839226,-12.825631,6.956097,-0.980770,0.013429,-0.056556,0.000000,-0.009103,-0.300542,0.000000
0.210000,-3.000333,-0.880166,-1.279371,0.065313,0.020871,-0.013153,0.591583,0.133088,-0.125113,2.872742,-0.011595,-0.941889,-14.161386,6.205123,-1.822840,0.013371,-0.059474,0.000000,-0.002657,-0.282478,0.000000
0.220000,-2.999650,-0.879951,-1.279509,0.071371,0.022203,-0.014449,0.619934,0.133274,-0.133685,2.818247,0.048021,-0.712639,-3.069663,5.647229,30.463025,0.013376,-0.062264,0.000000,0.003629,-0.277848,-0.000000
0.230000,-2.998905,-0.879722,-1.279661,0.077710,0.023539,-0.015818,0.647616,0.134022,-0.140195,2.678334,0.099848,-0.693993,-25.087766,4.721885,-27.278599,0.013440,-0.064994,0.000000,0.008844,-0.263494,-0.000000
0.240000,-2.998095,-0.879480,-1.279826,0.084316,0.024885,-0.017260,0.673141,0.135246,-0.148484,2.445600,0.144151,-0.910292,-15.017261,4.222935,1.381311,0.013549,-0.067492,0.000000,0.012983,-0.238290,-0.000000
0.250000,-2.997218,-0.879224,-1.280006,0.091168,0.026245,-0.018789,0.697010,0.136890,-0.157056,2.323881,0.183746,-0.813989,-15.707280,3.622753,0.559130,0.013700,-0.069818,0.000000,0.017051,-0.226317,0.000000
0.260000,-2.996271,-0.878955,-1.280202,0.098251,0.027624,-0.020400,0.719432,0.138892,-0.165169,2.159319,0.215555,-0.808506,-16.005388,3.024839,0.791112,0.013887,-0.071998,0.000000,0.020214,-0.209514,-0.000000
0.270000,-2.995252,-0.878672,-1.280414,0.105551,0.029024,-0.022092,0.740284,0.141205,-0.173197,2.014992,0.246917,-0.795864,-13.989594,2.978759,1.485645,0.014105,-0.074018,0.000000,0.023333,-0.194836,0.000000
0.280000,-2.994159,-0.878375,-1.280644,0.113052,0.030449,-0.023863,0.759673,0.143799,-0.181091,1.855778,0.269475,-0.784075,-17.874066,1.527897,0.861568,0.014350,-0.075889,0.000000,0.025567,-0.178724,-0.000000
0.290000,-2.992990,-0.878063,-1.280892,0.120739,0.031900,-0.025713,0.777339,0.146562,-0.188885,1.680985,0.283069,-0.773653,-15.913693,1.469805,1.471402,0.014613,-0.077586,0.000000,0.026905,-0.161111,-0.000000
0.300000,-2.991744,-0.877736,-1.281159,0.128594,0.033380,-0.027640,0.793386,0.149465,-0.196539,1.527934,0.296593,-0.756835,-15.838013,0.963359,1.639027,0.014889,-0.079121,0.000000,0.028243,-0.145764,0.000000
0.310000,-2.990418,-0.877395,-1.281445,0.136601,0.034890,-0.029643,0.807860,0.152465,-0.204024,1.366924,0.302469,-0.740089,-15.694036,0.463388,1.797994,0.015175,-0.080499,0.000000,0.028820,-0.129680,0.000000
0.320000,-2.989011,-0.877039,-1.281752,0.144746,0.036430,-0.031720,0.820783,0.155519,-0.211328,1.220287,0.308194,-0.720079,-14.260036,0.443352,2.112984,0.015466,-0.081721,0.000000,0.029387,-0.115098,-0.000000
0.330000,-2.987523,-0.876666,-1.282080,0.153012,0.038001,-0.033869,0.832244,0.158602,-0.218425,1.068546,0.306329,-0.699739,-16.099120,-0.821413,1.950096,0.015760,-0.082799,0.000000,0.029204,-0.100060,-0.000000
0.340000,-2.985951,-0.876278,-1.282429,0.161385,0.039602,-0.036088,0.842131,0.161617,-0.225323,0.911348,0.296681,-0.679325,-14.689914,-0.862906,2.220194,0.016047,-0.083721,0.000000,0.028253,-0.084527,0.000000
0.350000,-2.984295,-0.875874,-1.282802,0.169850,0.041233,-0.038375,0.850534,0.164540,-0.232001,0.769443,0.287047,-0.656134,-14.325196,-1.303984,2.326535,0.016325,-0.084496,0.000000,0.027311,-0.070573,0.000000
0.360000,-2.982553,-0.875454,-1.283197,0.178391,0.042892,-0.040727,0.857509,0.167334,-0.238445,0.626171,0.270995,-0.632532,-13.924078,-1.736045,2.424023,0.016591,-0.085131,0.000000,0.025740,-0.056524,-0.000000
0.370000,-2.980727,-0.875016,-1.283616,0.186995,0.044579,-0.043143,0.863103,0.169960,-0.244646,0.494749,0.253914,-0.607394,-12.741744,-1.841517,2.571066,0.016840,-0.085631,0.000000,0.024073,-0.043692,0.000000
0.380000,-2.978813,-0.874562,-1.284060,0.195649,0.046291,-0.045619,0.867401,0.172391,-0.250592,0.363318,0.230774,-0.581789,-13.551523,-2.789777,2.547577,0.017070,-0.086005,0.000000,0.021815,-0.030893,0.000000
0.390000,-2.976813,-0.874091,-1.284529,0.204339,0.048026,-0.048154,0.870366,0.174553,-0.256281,0.231639,0.201462,-0.555844,-12.389315,-2.905692,2.671400,0.017274,-0.086249,0.000000,0.018953,-0.018099,-0.000000
0.400000,-2.974726,-0.873601,-1.285023,0.213052,0.049781,-0.050744,0.872082,0.176421,-0.261704,0.112292,0.171295,-0.528649,-11.865284,-3.289877,2.735456,0.017449,-0.086372,0.000000,0.016013,-0.006554,-0.000000
0.410000,-2.972552,-0.873095,-1.285544,0.221777,0.051553,-0.053387,0.872615,0.177961,-0.266852,-0.004880,0.136073,-0.500883,-11.322074,-3.661834,2.797786,0.017593,-0.086381,0.000000,0.012582,0.004752,0.000000
0.420000,-2.970291,-0.872570,-1.286091,0.230501,0.053339,-0.056080,0.872023,0.179137,-0.271721,-0.111845,0.098934,-0.472885,-10.304610,-3.852096,2.819653,0.017701,-0.086281,0.000000,0.008967,0.015036,0.000000
0.430000,-2.967942,-0.872028,-1.286666,0.239214,0.055134,-0.058821,0.870386,0.179924,-0.276307,-0.215886,0.057223,-0.444115,-10.508484,-4.490675,2.934322,0.017770,-0.086081,0.000000,0.004907,0.025013,-0.000000
0.440000,-2.965507,-0.871468,-1.287268,0.247905,0.056936,-0.061605,0.867712,0.180266,-0.280601,-0.317185,0.010944,-0.414582,-9.510503,-4.673997,2.953217,0.017797,-0.085781,0.000000,0.000402,0.034705,0.000000
0.450000,-2.962984,-0.870889,-1.287898,0.256565,0.058738,-0.064432,0.864081,0.180139,-0.284599,-0.408086,-0.036969,-0.384901,-8.906200,-4.994990,3.001519,0.017778,-0.085390,0.000000,-0.004260,0.043365,-0.000000
0.460000,-2.960376,-0.870293,-1.288557,0.265184,0.060537,-0.067296,0.859562,0.179513,-0.288295,-0.494832,-0.088606,-0.354355,-8.294069,-5.299908,3.053564,0.017711,-0.084915,0.000000,-0.009284,0.051606,-0.000000
0.470000,-2.957681,-0.869679,-1.289244,0.273753,0.062327,-0.070197,0.854217,0.178359,-0.291688,-0.572586,-0.142644,-0.324329,-7.398934,-5.534456,3.004151,0.017592,-0.084361,0.000000,-0.014543,0.058966,-0.000000
0.480000,-2.954901,-0.869046,-1.289961,0.282265,0.064102,-0.073129,0.848124,0.176650,-0.294778,-0.645797,-0.199857,-0.293171,-7.246926,-5.906602,3.229156,0.017419,-0.083737,0.000000,-0.020112,0.065871,0.000000
0.490000,-2.952036,-0.868397,-1.290707,0.290713,0.065858,-0.076091,0.841315,0.174351,-0.297547,-0.714616,-0.260135,-0.260803,-6.371933,-6.117015,3.191589,0.017188,-0.083045,0.000000,-0.025980,0.072337,-0.000000
0.500000,-2.949087,-0.867729,-1.291483,0.299090,0.067587,-0.079079,0.833865,0.171441,-0.299996,-0.774458,-0.322395,-0.228880,-5.739931,-6.361445,3.245632,0.016899,-0.082293,0.000000,-0.032046,0.077929,-0.000000
0.510000,-2.946054,-0.867045,-1.292288,0.307389,0.069284,-0.082090,0.825842,0.167895,-0.302120,-0.829124,-0.387094,-0.195779,-5.107317,-6.586273,3.305837,0.016547,-0.081488,0.000000,-0.038351,0.083009,0.000000
0.520000,-2.942939,-0.866344,-1.293125,0.315605,0.070943,-0.085120,0.817310,0.163691,-0.303915,-0.875817,-0.454162,-0.163390,-4.314685,-6.814061,3.239355,0.016131,-0.080635,0.000000,-0.044894,0.087319,-0.000000
0.530000,-2.939742,-0.865626,-1.293991,0.323733,0.072556,-0.088167,0.808342,0.158806,-0.305383,-0.917172,-0.523099,-0.129575,-3.959424,-6.969978,3.526227,0.015648,-0.079743,0.000000,-0.051623,0.091102,-0.000000
0.540000,-2.936465,-0.864893,-1.294888,0.331770,0.074117,-0.091227,0.798983,0.153223,-0.306501,-0.953329,-0.593711,-0.094211,-3.188441,-7.159929,3.479447,0.015098,-0.078815,0.000000,-0.058520,0.094371,-0.000000
0.550000,-2.933107,-0.864144,-1.295815,0.339712,0.075618,-0.094296,0.789303,0.146925,-0.307270,-0.981675,-0.666149,-0.059400,-2.564638,-7.313698,3.550741,0.014477,-0.077858,0.000000,-0.065605,0.096888,0.000000
0.560000,-2.929671,-0.863381,-1.296774,0.347556,0.077053,-0.097371,0.779367,0.139897,-0.307684,-1.004497,-0.739796,-0.023155,-1.946345,-7.445360,3.628983,0.013785,-0.076878,0.000000,-0.072816,0.098862,-0.000000
0.570000,-2.926157,-0.862603,-1.297763,0.355299,0.078413,-0.100448,0.769238,0.132123,-0.307736,-1.020124,-0.815293,0.012547,-1.232834,-7.618877,3.579789,0.013020,-0.075883,0.000000,-0.080220,0.100144,0.000000
0.580000,-2.922565,-0.861813,-1.298783,0.362940,0.079693,-0.103525,0.758983,0.123589,-0.307427,-1.030281,-0.891440,0.049880,-0.801504,-7.606218,3.889523,0.012181,-0.074877,0.000000,-0.087697,0.100887,0.000000
0.590000,-2.918898,-0.861010,-1.299833,0.370478,0.080883,-0.106596,0.748650,0.114293,-0.306732,-1.035117,-0.967993,0.088974,-0.113903,-7.733211,3.861205,0.011266,-0.073867,0.000000,-0.095226,0.101106,-0.000000
0.600000,-2.915156,-0.860195,-1.300915,0.377913,0.081976,-0.109658,0.738304,0.104224,-0.305650,-1.033039,-1.045763,0.127697,0.474920,-7.785219,3.952458,0.010276,-0.072857,0.000000,-0.102890,0.100660,-0.000000
0.610000,-2.911340,-0.859371,-1.302027,0.385244,0.082965,-0.112707,0.728007,0.093378,-0.304172,-1.025567,-1.123581,0.167996,1.053549,-7.814356,4.049024,0.009208,-0.071855,0.000000,-0.110575,0.099683,-0.000000
0.620000,-2.907452,-0.858536,-1.303169,0.392473,0.083841,-0.115740,0.717815,0.081749,-0.302291,-1.011666,-1.202346,0.208148,1.689589,-7.896729,4.038635,0.008064,-0.070866,0.000000,-0.118371,0.098085,-0.000000
0.630000,-2.903491,-0.857694,-1.304341,0.399601,0.084597,-0.118752,0.707791,0.069333,-0.300003,-0.992553,-1.280636,0.249972,2.130060,-7.756406,4.328337,0.006841,-0.069895,0.000000,-0.126140,0.095972,-0.000000
0.640000,-2.899460,-0.856845,-1.305544,0.406630,0.085225,-0.121739,0.697981,0.056139,-0.297286,-0.968392,-1.358184,0.293570,2.735664,-7.788602,4.334119,0.005541,-0.068948,0.000000,-0.133857,0.093359,-0.000000
0.650000,-2.895359,-0.855990,-1.306776,0.413562,0.085717,-0.124696,0.688444,0.042167,-0.294133,-0.938179,-1.436004,0.337147,3.268806,-7.733348,4.438887,0.004164,-0.068030,0.000000,-0.141625,0.090158,0.000000
0.660000,-2.891189,-0.855131,-1.308038,0.420400,0.086066,-0.127620,0.679233,0.027423,-0.290537,-0.903009,-1.512782,0.382273,3.788027,-7.655212,4.545638,0.002709,-0.067146,0.000000,-0.149316,0.086466,-0.000000
0.670000,-2.886951,-0.854269,-1.309328,0.427148,0.086263,-0.130505,0.670402,0.011912,-0.286487,-0.862234,-1.589374,0.427687,4.340233,-7.624199,4.576803,0.001177,-0.066302,0.000000,-0.157016,0.082224,-0.000000
0.680000,-2.882646,-0.853406,-1.310648,0.433809,0.086301,-0.133348,0.662004,-0.004359,-0.281978,-0.816761,-1.664448,0.474638,4.751106,-7.385937,4.814622,-0.000431,-0.065503,0.000000,-0.164597,0.077513,0.000000
0.690000,-2.878275,-0.852544,-1.311995,0.440389,0.086173,-0.136143,0.654082,-0.021371,-0.276989,-0.766771,-1.737741,0.523178,5.269078,-7.304957,4.853298,-0.002114,-0.064753,0.000000,-0.172033,0.072348,0.000000
0.700000,-2.873839,-0.851684,-1.313370,0.446893,0.085871,-0.138886,0.646686,-0.039112,-0.271514,-0.711643,-1.810174,0.572038,5.729723,-7.142081,4.958254,-0.003872,-0.064058,0.000000,-0.179419,0.066674,-0.000000
0.710000,-2.869338,-0.850827,-1.314773,0.453325,0.085389,-0.141572,0.639863,-0.057567,-0.265543,-0.652198,-1.880552,0.622239,6.174070,-6.957337,5.061048,-0.005702,-0.063421,0.000000,-0.186638,0.060564,0.000000
0.720000,-2.864772,-0.849976,-1.316201,0.459692,0.084718,-0.144195,0.633658,-0.076719,-0.259067,-0.588056,-1.949502,0.673062,6.634568,-6.802693,5.123001,-0.007604,-0.062848,0.000000,-0.193754,0.053980,-0.000000
0.730000,-2.860144,-0.849133,-1.317656,0.466000,0.083852,-0.146752,0.628115,-0.096549,-0.252078,-0.519920,-2.015981,0.725104,6.989179,-6.488933,5.285285,-0.009576,-0.062343,0.000000,-0.200665,0.046987,-0.000000
0.740000,-2.855453,-0.848300,-1.319136,0.472257,0.082785,-0.149235,0.623272,-0.117029,-0.244561,-0.447987,-2.079747,0.778353,7.411517,-6.287589,5.343879,-0.011617,-0.061910,0.000000,-0.207350,0.039602,0.000000
0.750000,-2.850699,-0.847478,-1.320641,0.478468,0.081509,-0.151641,0.619170,-0.138137,-0.236509,-0.371893,-2.141441,0.832138,7.786973,-6.020859,5.431785,-0.013723,-0.061553,0.000000,-0.213872,0.031789,0.000000
0.760000,-2.845883,-0.846671,-1.322169,0.484643,0.080020,-0.153964,0.615846,-0.159848,-0.227915,-0.292298,-2.200097,0.886882,8.143343,-5.732867,5.513127,-0.015893,-0.061275,0.000000,-0.220139,0.023607,-0.000000
0.770000,-2.841006,-0.845879,-1.323720,0.490788,0.078311,-0.156197,0.613337,-0.182131,-0.218769,-0.208956,-2.256270,0.942351,8.507883,-5.473445,5.582490,-0.018125,-0.061082,0.000000,-0.226206,0.015030,-0.000000
0.780000,-2.836068,-0.845105,-1.325292,0.496912,0.076375,-0.158337,0.611677,-0.204961,-0.209065,-0.122499,-2.308975,0.998571,8.779732,-5.063673,5.660390,-0.020416,-0.060976,0.000000,-0.231976,0.006118,0.000000
0.790000,-2.831068,-0.844352,-1.326886,0.503024,0.074210,-0.160377,0.610896,-0.228298,-0.198796,-0.033142,-2.357987,1.055473,9.102445,-4.760758,5.715651,-0.022763,-0.060960,0.000000,-0.237427,-0.003113,0.000000
0.800000,-2.826007,-0.843622,-1.328500,0.509133,0.071808,-0.162311,0.611025,-0.252111,-0.187954,0.059360,-2.403912,1.112880,9.380835,-4.396176,5.767451,-0.025164,-0.061039,0.000000,-0.242621,-0.012689,-0.000000
0.810000,-2.820885,-0.842917,-1.330132,0.515248,0.069166,-0.164134,0.612092,-0.276363,-0.176536,0.154533,-2.445810,1.170748,9.640805,-4.011576,5.809363,-0.027615,-0.061215,0.000000,-0.247463,-0.022566,0.000000
0.820000,-2.815702,-0.842239,-1.331782,0.521378,0.066279,-0.165840,0.614123,-0.301017,-0.164538,0.252018,-2.484370,1.229079,9.861855,-3.667311,5.850341,-0.030112,-0.061491,0.000000,-0.252023,-0.032714,-0.000000
0.830000,-2.810458,-0.841592,-1.333448,0.527534,0.063144,-0.167423,0.617141,-0.326035,-0.151954,0.351895,-2.518465,1.287622,10.110299,-3.147972,5.856286,-0.032654,-0.061871,0.000000,-0.256186,-0.043142,0.000000
0.840000,-2.805151,-0.840977,-1.335130,0.533724,0.059758,-0.168877,0.621169,-0.351370,-0.138785,0.453962,-2.547884,1.346261,10.290049,-2.763465,5.874376,-0.035235,-0.062356,0.000000,-0.259931,-0.053835,0.000000
0.850000,-2.799783,-0.840398,-1.336825,0.539961,0.056116,-0.170197,0.626225,-0.376981,-0.125028,0.557702,-2.573422,1.405030,10.463582,-2.311200,5.872565,-0.037851,-0.062949,0.000000,-0.263335,-0.064745,-0.000000
0.860000,-2.794352,-0.839856,-1.338533,0.546252,0.052217,-0.171376,0.632328,-0.402822,-0.110686,0.663111,-2.594105,1.463514,10.613637,-1.842505,5.854297,-0.040500,-0.063652,0.000000,-0.266299,-0.075873,0.000000
0.870000,-2.788858,-0.839354,-1.340252,0.552611,0.048059,-0.172408,0.639492,-0.428848,-0.095756,0.769890,-2.610393,1.522357,10.738973,-1.394341,5.881565,-0.043176,-0.064468,0.000000,-0.268870,-0.087198,-0.000000
0.880000,-2.783300,-0.838895,-1.341981,0.559046,0.043640,-0.173289,0.647730,-0.455013,-0.080241,0.877829,-2.621558,1.580461,10.844996,-0.835754,5.736050,-0.045876,-0.065398,0.000000,-0.270966,-0.098695,-0.000000
0.890000,-2.777677,-0.838482,-1.343718,0.565569,0.038958,-0.174011,0.657052,-0.481262,-0.064151,0.986693,-2.627433,1.637644,10.922795,-0.355381,5.728806,-0.048594,-0.066445,0.000000,-0.272568,-0.110343,0.000000
0.900000,-2.771988,-0.838117,-1.345461,0.572191,0.034014,-0.174570,0.667466,-0.507546,-0.047488,1.096207,-2.628464,1.694723,10.977117,0.169711,5.654282,-0.051326,-0.067608,0.000000,-0.273721,-0.122125,-0.000000
0.910000,-2.766232,-0.837803,-1.347208,0.578922,0.028808,-0.174959,0.678978,-0.533812,-0.030261,1.206282,-2.623842,1.750604,11.009199,0.711263,5.561704,-0.054066,-0.068891,0.000000,-0.274334,-0.134027,0.000000
0.920000,-2.760409,-0.837542,-1.348959,0.585774,0.023338,-0.175173,0.691590,-0.560008,-0.012476,1.316079,-2.614617,1.806296,10.969674,1.179700,5.532793,-0.056811,-0.070293,0.000000,-0.274515,-0.145974,-0.000000
0.930000,-2.754516,-0.837337,-1.350711,0.592757,0.017608,-0.175207,0.705300,-0.586083,0.005860,1.426090,-2.599286,1.860339,11.028906,1.889755,5.271845,-0.059555,-0.071815,0.000000,-0.274098,-0.158009,0.000000
0.940000,-2.748553,-0.837190,-1.352463,0.599883,0.011617,-0.175054,0.720112,-0.611972,0.024724,1.536086,-2.577680,1.912512,10.941751,2.388400,5.201695,-0.062291,-0.073459,0.000000,-0.273060,-0.170109,0.000000
0.950000,-2.742518,-0.837105,-1.354212,0.607163,0.005369,-0.174711,0.736018,-0.637621,0.044108,1.645024,-2.551107,1.963963,10.866936,2.971986,5.044102,-0.065014,-0.075224,0.000000,-0.271534,-0.182180,0.000000
0.960000,-2.736410,-0.837084,-1.355956,0.614607,-0.001134,-0.174170,0.753009,-0.662974,0.063997,1.752834,-2.518383,2.013402,10.756026,3.562352,4.868953,-0.067719,-0.077110,0.000000,-0.269386,-0.194205,0.000000
0.970000,-2.730226,-0.837129,-1.357695,0.622227,-0.007889,-0.173429,0.771076,-0.687970,0.084372,1.860655,-2.479943,2.061543,10.739591,4.138272,4.729063,-0.070400,-0.079117,0.000000,-0.266658,-0.206308,-0.000000
0.980000,-2.723964,-0.837243,-1.359424,0.630033,-0.014892,-0.172481,0.790214,-0.712552,0.105219,1.966193,-2.435356,2.107353,10.361330,4.780358,4.429060,-0.073050,-0.081246,0.000000,-0.263293,-0.218247,0.000000
0.990000,-2.717624,-0.837427,-1.361143,0.638035,-0.022139,-0.171323,0.810391,-0.736656,0.126511,2.069074,-2.384547,2.150617,10.274348,5.370929,4.248399,-0.075664,-0.083493,0.000000,-0.259274,-0.229981,0.000000
1.000000,-2.711203,-0.837686,-1.362850,0.646244,-0.029623,-0.169950,0.831593,-0.760223,0.148226,2.171037,-2.327826,2.192027,10.049289,5.985649,4.003220,-0.078234,-0.085859,0.000000,-0.254629,-0.241694,0.000000
1.010000,-2.704699,-0.838021,-1.364542,0.654670,-0.037341,-0.168357,0.853798,-0.783187,0.170341,2.269491,-2.263735,2.230479,9.783009,6.626214,3.736141,-0.080754,-0.088341,0.000000,-0.249193,-0.253107,0.000000
1.020000,-2.698109,-0.838434,-1.366216,0.663323,-0.045285,-0.166542,0.876986,-0.805493,0.192831,2.367949,-2.197197,2.267168,9.761691,6.882176,3.548317,-0.083217,-0.090938,0.000000,-0.243472,-0.264591,0.000000
1.030000,-2.691431,-0.838927,-1.367872,0.672213,-0.053449,-0.164500,0.901140,-0.827100,0.215672,2.461648,-2.121879,2.300327,8.968992,8.187485,3.079020,-0.085620,-0.093650,0.000000,-0.236794,-0.275638,-0.000000
1.040000,-2.684664,-0.839503,-1.369506,0.681349,-0.061824,-0.162227,0.926200,-0.847899,0.238824,2.550110,-2.037512,2.329709,8.862267,8.482984,2.845351,-0.087949,-0.096469,0.000000,-0.229120,-0.286190,-0.000000
1.050000,-2.677804,-0.840164,-1.371116,0.690740,-0.070404,-0.159722,0.952142,-0.867845,0.262259,2.637583,-1.950513,2.356740,8.485041,9.117856,2.507531,-0.090201,-0.099396,0.000000,-0.221112,-0.296694,-0.000000
1.060000,-2.670848,-0.840912,-1.372699,0.700395,-0.079178,-0.156981,0.978947,-0.886874,0.285940,2.723219,-1.853995,2.378697,8.144507,9.778230,2.128490,-0.092368,-0.102427,0.000000,-0.212024,-0.307030,-0.000000
1.070000,-2.663795,-0.841749,-1.374254,0.710321,-0.088138,-0.154003,1.006554,-0.904936,0.309841,2.795843,-1.758717,2.401532,6.853773,9.669329,2.195904,-0.094443,-0.105557,0.000000,-0.203032,-0.316098,0.000000
1.080000,-2.656641,-0.842675,-1.375779,0.720528,-0.097274,-0.150784,1.034874,-0.922009,0.333946,2.870239,-1.652383,2.417524,8.035366,11.607110,0.992548,-0.096424,-0.108778,0.000000,-0.192764,-0.325339,-0.000000
1.090000,-2.649383,-0.843695,-1.377269,0.731022,-0.106574,-0.147323,1.063970,-0.937943,0.358165,2.946765,-1.534605,2.426195,6.781151,11.547381,0.981965,-0.098293,-0.112096,0.000000,-0.181158,-0.334775,-0.000000
1.100000,-2.642019,-0.844807,-1.378724,0.741810,-0.116029,-0.143620,1.093756,-0.952712,0.382475,3.009850,-1.418135,2.435065,6.311432,12.139374,0.548391,-0.100048,-0.115501,0.000000,-0.169628,-0.342867,-0.000000
1.110000,-2.634546,-0.846016,-1.380141,0.752899,-0.125625,-0.139674,1.124138,-0.966294,0.406848,3.065078,-1.297868,2.438794,5.670787,12.603145,0.127290,-0.101684,-0.118984,0.000000,-0.157579,-0.350121,0.000000
1.120000,-2.626960,-0.847320,-1.381517,0.764294,-0.135350,-0.135483,1.155112,-0.978598,0.431231,3.131821,-1.159783,2.436950,6.757763,14.335963,-0.431142,-0.103192,-0.122545,0.000000,-0.143505,-0.358543,-0.000000
1.130000,-2.619259,-0.848723,-1.382850,0.776003,-0.145192,-0.131049,1.186709,-0.989507,0.455575,3.180923,-1.025377,2.431539,3.028873,12.519298,-0.650173,-0.104556,-0.126187,0.000000,-0.129704,-0.365107,0.000000
1.140000,-2.611439,-0.850225,-1.384137,0.788030,-0.155136,-0.126372,1.218659,-0.999127,0.479851,3.210801,-0.895879,2.422578,3.865339,14.054955,-1.210154,-0.105788,-0.129880,0.000000,-0.116315,-0.369627,0.000000
1.150000,-2.603497,-0.851826,-1.385376,0.800377,-0.165170,-0.121452,1.250973,-1.007359,0.504007,3.250303,-0.750148,2.407884,3.110371,14.408875,-1.662623,-0.106875,-0.133626,0.000000,-0.101046,-0.375083,0.000000
1.160000,-2.595431,-0.853528,-1.386565,0.813050,-0.175278,-0.116292,1.283612,-1.014132,0.527997,3.275925,-0.603818,2.389475,2.353748,14.783853,-2.114081,-0.107808,-0.137419,0.000000,-0.085592,-0.379029,-0.000000
1.170000,-2.587235,-0.855332,-1.387701,0.826050,-0.185447,-0.110893,1.316494,-1.019429,0.551773,3.300475,-0.455200,2.364723,2.220758,15.000999,-2.745780,-0.108585,-0.141250,0.000000,-0.069724,-0.382758,0.000000
1.180000,-2.578908,-0.857237,-1.388782,0.839381,-0.195662,-0.105258,1.349580,-1.023222,0.575280,3.313306,-0.302512,2.336461,0.333076,15.533370,-2.904318,-0.109201,-0.145115,0.000000,-0.053304,-0.385179,0.000000
1.190000,-2.570447,-0.859245,-1.389806,0.853042,-0.205907,-0.099389,1.382717,-1.025466,0.598492,3.313842,-0.145978,2.304781,0.109300,15.701185,-3.524381,-0.109649,-0.148995,0.000000,-0.036356,-0.386220,-0.000000
1.200000,-2.561847,-0.861355,-1.390769,0.867035,-0.216166,-0.093289,1.415856,-1.026138,0.621353,3.312624,0.011970,2.266746,-0.688216,15.949510,-3.991151,-0.109927,-0.152885,0.000000,-0.019087,-0.386932,-0.000000
1.210000,-2.553105,-0.863568,-1.391671,0.881359,-0.226424,-0.086963,1.448948,-1.025207,0.643807,3.304835,0.174930,2.223101,-1.403954,16.207176,-4.493140,-0.110029,-0.156778,0.000000,-0.001134,-0.386807,-0.000000
1.220000,-2.544218,-0.865884,-1.392508,0.896014,-0.236665,-0.080414,1.481886,-1.022666,0.665818,3.279654,0.332045,2.179127,-3.113979,15.625886,-4.538661,-0.109952,-0.160661,0.000000,0.016264,-0.384775,-0.000000
1.230000,-2.535183,-0.868302,-1.393278,0.910996,-0.246872,-0.073648,1.514542,-1.018540,0.687362,3.253443,0.496059,2.127352,-2.110835,17.183036,-5.823572,-0.109700,-0.164520,0.000000,0.034574,-0.382432,-0.000000
1.240000,-2.525997,-0.870821,-1.393980,0.926304,-0.257030,-0.066669,1.546958,-1.012718,0.708337,3.226992,0.667142,2.067463,-3.700473,16.605858,-5.914152,-0.109257,-0.168355,0.000000,0.053822,-0.379840,0.000000
1.250000,-2.516656,-0.873442,-1.394611,0.941934,-0.267121,-0.059483,1.579017,-1.005226,0.728714,3.183899,0.831592,2.007052,-4.394982,16.695467,-6.405831,-0.108627,-0.172155,0.000000,0.072415,-0.375386,0.000000
1.260000,-2.507157,-0.876163,-1.395169,0.957882,-0.277129,-0.052097,1.610617,-0.996091,0.748455,3.134608,0.995061,1.940427,-5.146178,16.638140,-6.879656,-0.107809,-0.175905,0.000000,0.091035,-0.370065,0.000000
1.270000,-2.497498,-0.878984,-1.395652,0.974145,-0.287037,-0.044517,1.641710,-0.985275,0.767510,3.083922,1.170152,1.869839,-5.294007,17.743048,-7.273349,-0.106800,-0.179599,0.000000,0.111013,-0.364421,-0.000000
1.280000,-2.487674,-0.881904,-1.396059,0.990715,-0.296829,-0.036749,1.672257,-0.972721,0.785835,3.022366,1.336554,1.794221,-7.023542,15.509564,-7.849406,-0.105592,-0.183230,0.000000,0.130154,-0.357419,-0.000000
1.290000,-2.477682,-0.884920,-1.396387,1.007587,-0.306486,-0.028802,1.702118,-0.958583,0.803377,2.949707,1.492899,1.713642,-7.195815,16.385979,-8.226683,-0.104201,-0.186782,0.000000,0.148289,-0.349024,-0.000000
1.300000,-2.467521,-0.888033,-1.396634,1.024755,-0.315995,-0.020684,1.731252,-0.942821,0.820096,2.875911,1.658722,1.629417,-7.866617,16.137548,-8.652474,-0.102622,-0.190248,0.000000,0.167523,-0.340321,0.000000
1.310000,-2.457186,-0.891240,-1.396800,1.042210,-0.325337,-0.012403,1.759618,-0.925434,0.835958,2.796567,1.818061,1.542511,-8.440533,15.865788,-9.025702,-0.100853,-0.193622,0.000000,0.186104,-0.330857,-0.000000
1.320000,-2.446676,-0.894539,-1.396882,1.059944,-0.334498,-0.003968,1.787129,-0.906458,0.850910,2.703121,1.977201,1.446203,-9.813271,15.815359,-9.941884,-0.098899,-0.196892,0.000000,0.204752,-0.319571,0.000000
1.330000,-2.435986,-0.897929,-1.396879,1.077949,-0.343461,0.004612,1.813683,-0.885908,0.864884,2.609441,2.131294,1.349845,-8.904034,14.991498,-9.317510,-0.096760,-0.200045,0.000000,0.222858,-0.308138,0.000000
1.340000,-2.425116,-0.901408,-1.396789,1.096215,-0.352211,0.013326,1.839324,-0.863852,0.877911,2.516447,2.279696,1.254029,-10.123425,14.821971,-10.136219,-0.094444,-0.203084,0.000000,0.240338,-0.296677,-0.000000
1.350000,-2.414061,-0.904972,-1.396612,1.114732,-0.360733,0.022166,1.863962,-0.840317,0.889931,2.410777,2.426393,1.149677,-10.572191,14.370498,-10.437771,-0.091953,-0.205999,0.000000,0.257675,-0.283560,0.000000
1.360000,-2.402820,-0.908621,-1.396345,1.133491,-0.369013,0.031121,1.887539,-0.815347,0.900905,2.303867,2.566680,1.044662,-10.993008,13.865345,-10.720923,-0.089293,-0.208779,0.000000,0.274289,-0.270183,-0.000000
1.370000,-2.391391,-0.912352,-1.395989,1.152479,-0.377036,0.040181,1.910011,-0.788986,0.910802,2.189294,2.705269,0.933860,-11.732217,13.666104,-11.282154,-0.086468,-0.211420,0.000000,0.290717,-0.255748,0.000000
1.380000,-2.379770,-0.916161,-1.395542,1.171687,-0.384788,0.049334,1.931321,-0.761269,0.919581,2.073194,2.836100,0.822321,-11.476181,12.488168,-11.017676,-0.083482,-0.213913,0.000000,0.306248,-0.241031,-0.000000
1.390000,-2.367956,-0.920047,-1.395002,1.191102,-0.392257,0.058569,1.951473,-0.732294,0.927249,1.956178,2.958547,0.710448,-12.106167,12.176794,-11.509678,-0.080346,-0.216257,0.000000,0.320801,-0.226113,-0.000000
1.400000,-2.355947,-0.924005,-1.394370,1.210712,-0.399430,0.067875,1.970420,-0.702105,0.933770,1.832760,3.077982,0.593510,-12.386456,11.523570,-11.719628,-0.077067,-0.218446,0.000000,0.334981,-0.210302,-0.000000
1.410000,-2.343741,-0.928034,-1.393644,1.230506,-0.406295,0.077240,1.988123,-0.670762,0.939107,1.707572,3.189506,0.473369,-12.642654,10.842347,-11.959813,-0.073650,-0.220474,0.000000,0.348230,-0.194145,-0.000000
1.420000,-2.331337,-0.932130,-1.392825,1.250471,-0.412842,0.086653,2.004563,-0.638333,0.943258,1.580051,3.295340,0.357557,-12.857999,10.255343,-11.534839,-0.070105,-0.222339,0.000000,0.360722,-0.177770,-0.000000
1.430000,-2.318732,-0.936290,-1.391911,1.270593,-0.419058,0.096102,2.019718,-0.604882,0.946236,1.450482,3.393171,0.235695,-13.049622,9.304424,-12.844461,-0.066439,-0.224037,0.000000,0.372275,-0.160969,-0.000000
1.440000,-2.305924,-0.940510,-1.390903,1.290861,-0.424936,0.105574,2.033567,-0.570498,0.947948,1.319229,3.482647,0.107525,-13.192459,8.651774,-12.447219,-0.062662,-0.225564,0.000000,0.382835,-0.143778,0.000000
1.450000,-2.292914,-0.944788,-1.389800,1.311260,-0.430466,0.115056,2.046098,-0.535250,0.948408,1.186735,3.565580,-0.016048,-13.302709,7.866487,-12.600990,-0.058785,-0.226918,0.000000,0.392518,-0.126525,-0.000000
1.460000,-2.279699,-0.949118,-1.388602,1.331778,-0.435639,0.124538,2.057306,-0.499217,0.947617,1.054846,3.639542,-0.142266,-13.344964,7.051005,-12.702047,-0.054816,-0.228099,0.000000,0.401103,-0.109239,-0.000000
1.470000,-2.266278,-0.953499,-1.387309,1.352402,-0.440448,0.134004,2.067172,-0.462476,0.945554,0.917425,3.707718,-0.270597,-13.866132,6.457501,-12.897211,-0.050765,-0.229104,0.000000,0.408918,-0.091288,-0.000000
1.480000,-2.252650,-0.957926,-1.385922,1.373117,-0.444886,0.143444,2.075667,-0.425097,0.942206,0.783248,3.766041,-0.398809,-12.955117,5.201212,-12.738516,-0.046642,-0.229929,0.000000,0.415511,-0.073677,0.000000
1.490000,-2.238815,-0.962396,-1.384440,1.393911,-0.448948,0.152844,2.082852,-0.387190,0.937580,0.653032,3.814214,-0.526537,-13.352413,4.557007,-12.865429,-0.042459,-0.230581,0.000000,0.420844,-0.056503,-0.000000
1.500000,-2.224772,-0.966904,-1.382865,1.414770,-0.452628,0.162192,2.088709,-0.348831,0.931670,0.518602,3.856091,-0.655487,-13.259675,3.692551,-12.856341,-0.038227,-0.231058,0.000000,0.425335,-0.038862,-0.000000
1.510000,-2.210520,-0.971447,-1.381197,1.435681,-0.455923,0.171473,2.093237,-0.310093,0.924475,0.387236,3.890282,-0.783358,-13.138849,2.862362,-12.810129,-0.033956,-0.231360,0.000000,0.428830,-0.021600,-0.000000
1.520000,-2.196058,-0.976021,-1.379436,1.456630,-0.458829,0.180677,2.096448,-0.271076,0.915997,0.254725,3.910729,-0.912480,-13.232269,1.500934,-12.914712,-0.029657,-0.231489,0.000000,0.430669,-0.004220,0.000000
1.530000,-2.181387,-0.980622,-1.377583,1.477605,-0.461344,0.189789,2.098343,-0.231894,0.906233,0.125334,3.926053,-1.039567,-12.637435,1.572406,-12.494240,-0.025345,-0.231446,0.000000,0.431792,0.012728,0.000000
1.540000,-2.166506,-0.985247,-1.375640,1.498593,-0.463466,0.198797,2.098967,-0.192569,0.895214,-0.000495,3.936632,-1.164166,-12.651851,0.266914,-12.515516,-0.021023,-0.231236,0.000000,0.432242,0.029178,-0.000000
1.550000,-2.151415,-0.989890,-1.373608,1.519580,-0.465195,0.207689,2.098330,-0.153211,0.882947,-0.126543,3.933745,-1.288957,-12.426666,-0.567653,-12.342422,-0.016706,-0.230862,0.000000,0.431077,0.045589,-0.000000
1.560000,-2.136115,-0.994549,-1.371487,1.540555,-0.466531,0.216452,2.096444,-0.113927,0.869453,-0.250179,3.921297,-1.409373,-12.198740,-1.466279,-12.101877,-0.012406,-0.230326,0.000000,0.428725,0.061557,-0.000000
1.570000,-2.120604,-0.999219,-1.369279,1.561505,-0.467474,0.225074,2.093342,-0.074778,0.854738,-0.369547,3.908627,-1.534262,-11.767060,-1.507697,-12.514819,-0.008131,-0.229632,0.000000,0.426223,0.077099,-0.000000
1.580000,-2.104885,-1.003897,-1.366986,1.582418,-0.468027,0.233543,2.089058,-0.035804,0.838793,-0.487460,3.881914,-1.652094,-11.815558,-3.846543,-11.035524,-0.003887,-0.228785,0.000000,0.422059,0.092218,0.000000
1.590000,-2.088956,-1.008579,-1.364609,1.603282,-0.468192,0.241846,2.083597,0.002809,0.821726,-0.603873,3.840671,-1.762071,-11.367986,-3.953752,-11.314320,0.000304,-0.227789,0.000000,0.416208,0.106886,-0.000000
1.600000,-2.072819,-1.013260,-1.362150,1.624086,-0.467972,0.249974,2.076998,0.041016,0.803535,-0.715579,3.799117,-1.875232,-11.067263,-4.797619,-10.955543,0.004438,-0.226649,0.000000,0.410225,0.121029,-0.000000
1.610000,-2.056475,-1.017937,-1.359610,1.644819,-0.467373,0.257913,2.069295,0.078756,0.784245,-0.824385,3.747585,-1.982136,-10.740796,-5.581595,-10.576069,0.008505,-0.225371,0.000000,0.403076,0.134605,0.000000
1.620000,-2.039923,-1.022606,-1.356992,1.665468,-0.466399,0.265655,2.060517,0.115936,0.763893,-0.930804,3.686865,-2.088100,-10.493286,-6.482831,-10.462205,0.012495,-0.223958,0.000000,0.394860,0.147793,0.000000
1.630000,-2.023165,-1.027264,-1.354298,1.686025,-0.465056,0.273188,2.050693,0.152472,0.742504,-1.033211,3.619600,-2.188144,-9.985037,-6.962542,-9.538486,0.016400,-0.222417,0.000000,0.385884,0.160301,-0.000000
1.640000,-2.006203,-1.031906,-1.351529,1.706479,-0.463352,0.280502,2.039867,0.188308,0.720152,-1.131437,3.546216,-2.281847,-9.706732,-7.783828,-9.350943,0.020211,-0.220754,0.000000,0.376215,0.172103,-0.000000
1.650000,-1.989036,-1.036530,-1.348688,1.726820,-0.461293,0.287588,2.028072,0.223368,0.696870,-1.226911,3.464688,-2.373810,-9.338808,-8.439666,-8.887522,0.023921,-0.218976,0.000000,0.365643,0.183459,0.000000
1.660000,-1.971667,-1.041131,-1.345778,1.747037,-0.458887,0.294436,2.015341,0.257600,0.672691,-1.318762,3.381211,-2.461212,-8.973839,-8.979029,-8.435123,0.027523,-0.217086,0.000000,0.354854,0.194212,-0.000000
1.670000,-1.954096,-1.045706,-1.342801,1.767123,-0.456144,0.301039,2.001714,0.290915,0.647674,-1.405850,3.278530,-2.541038,-8.497968,-10.841927,-7.678365,0.031010,-0.215093,0.000000,0.342034,0.204180,0.000000
1.680000,-1.936325,-1.050252,-1.339758,1.787069,-0.453072,0.307387,1.987234,0.323187,0.621879,-1.489865,3.179382,-2.617897,-8.306175,-8.958684,-7.696202,0.034366,-0.213002,0.000000,0.329616,0.213649,0.000000
1.690000,-1.918355,-1.054767,-1.336654,1.806865,-0.449683,0.313474,1.971926,0.354525,0.595324,-1.570853,3.085165,-2.691878,-7.835736,-10.592794,-6.946207,0.037604,-0.210819,0.000000,0.317751,0.222628,-0.000000
1.700000,-1.900188,-1.059245,-1.333490,1.826505,-0.445985,0.319291,1.955834,0.384821,0.568070,-1.647047,2.973734,-2.758078,-7.458218,-10.973956,-6.443726,0.040714,-0.208549,0.000000,0.304124,0.230832,0.000000
1.710000,-1.881826,-1.063685,-1.330269,1.845979,-0.441990,0.324833,1.938995,0.413999,0.540180,-1.719957,2.861213,-2.818946,-7.083304,-11.376577,-5.903489,0.043687,-0.206200,0.000000,0.290454,0.238481,0.000000
1.720000,-1.863269,-1.068084,-1.326994,1.865282,-0.437709,0.330093,1.921450,0.442044,0.511695,-1.788375,2.747694,-2.877739,-6.637773,-11.463580,-5.684041,0.046523,-0.203777,0.000000,0.276747,0.245526,0.000000
1.730000,-1.844520,-1.072439,-1.323668,1.884406,-0.433153,0.335065,1.903239,0.468935,0.482652,-1.853499,2.629073,-2.929041,-6.388622,-12.258499,-4.570554,0.049220,-0.201286,0.000000,0.262606,0.251984,-0.000000
1.740000,-1.825582,-1.076746,-1.320294,1.903345,-0.428335,0.339744,1.884390,0.494608,0.453142,-1.915412,2.505556,-2.972582,-5.957424,-12.293586,-4.309025,0.051774,-0.198733,0.000000,0.248073,0.257868,0.000000
1.750000,-1.806454,-1.081004,-1.316874,1.922092,-0.423265,0.344127,1.864946,0.519049,0.423205,-1.972983,2.382114,-3.013763,-5.594771,-12.531945,-3.756347,0.054183,-0.196124,0.000000,0.233648,0.263185,0.000000
1.760000,-1.787140,-1.085211,-1.313412,1.940642,-0.417958,0.348207,1.844941,0.542247,0.392886,-2.027404,2.257328,-3.049252,-5.241248,-12.689286,-3.229325,0.056447,-0.193463,0.000000,0.219208,0.267996,0.000000
1.770000,-1.767642,-1.089363,-1.309911,1.958989,-0.412425,0.351983,1.824413,0.564169,0.362247,-2.077379,2.125972,-3.077327,-4.802848,-13.311998,-2.495933,0.058564,-0.190758,0.000000,0.204229,0.272146,0.000000
1.780000,-1.747961,-1.093458,-1.306373,1.977129,-0.406679,0.355451,1.803402,0.584775,0.331352,-2.124490,1.996746,-3.101484,-4.622108,-12.518406,-2.339890,0.060533,-0.188012,0.000000,0.189604,0.275878,0.000000
1.790000,-1.728100,-1.097496,-1.302803,1.995056,-0.400733,0.358609,1.781932,0.604116,0.300228,-2.168886,1.870416,-3.121940,-4.210491,-13.006451,-1.642521,0.062358,-0.185231,0.000000,0.175410,0.279217,-0.000000
1.800000,-1.708061,-1.101472,-1.299202,2.012766,-0.394601,0.361455,1.760039,0.622162,0.268938,-2.209142,1.739001,-3.135303,-3.890350,-13.005627,-1.141462,0.064039,-0.182419,0.000000,0.160849,0.281965,-0.000000
1.810000,-1.687846,-1.105387,-1.295575,2.030255,-0.388294,0.363988,1.737757,0.638905,0.237534,-2.246900,1.609694,-3.144781,-3.586197,-12.970813,-0.655244,0.065577,-0.179581,0.000000,0.146645,0.284361,0.000000
1.820000,-1.667457,-1.109238,-1.291924,2.047520,-0.381827,0.366206,1.715118,0.654348,0.206067,-2.280195,1.478589,-3.147520,-3.149312,-13.126627,0.007570,0.066972,-0.176722,0.000000,0.132417,0.286161,-0.000000
1.830000,-1.646896,-1.113023,-1.288252,2.064556,-0.375212,0.368109,1.692159,0.668485,0.174595,-2.311493,1.349746,-3.146729,-3.114591,-12.632804,0.145162,0.068226,-0.173846,0.000000,0.118561,0.287685,0.000000
1.840000,-1.626166,-1.116742,-1.284562,2.081362,-0.368462,0.369698,1.668893,0.681353,0.143142,-2.341017,1.223663,-3.142684,-2.716894,-12.697054,0.760102,0.069345,-0.170956,0.000000,0.105124,0.288965,-0.000000
1.850000,-1.605270,-1.120392,-1.280859,2.097933,-0.361589,0.370972,1.645353,0.692954,0.111764,-2.366515,1.096921,-3.132416,-2.459726,-12.528378,1.192218,0.070329,-0.168055,0.000000,0.091775,0.289733,-0.000000
1.860000,-1.584208,-1.123973,-1.277144,2.114268,-0.354607,0.371933,1.621568,0.703301,0.080502,-2.390153,0.972879,-3.119233,-2.216572,-12.331590,1.596891,0.071181,-0.165147,0.000000,0.078831,0.290272,-0.000000
1.870000,-1.562985,-1.127484,-1.273421,2.130364,-0.347527,0.372583,1.597563,0.712414,0.049405,-2.410398,0.849862,-3.099104,-1.886669,-12.212537,2.275226,0.071906,-0.162236,0.000000,0.066146,0.290369,-0.000000
1.880000,-1.541602,-1.130923,-1.269693,2.146219,-0.340362,0.372922,1.573365,0.720309,0.018526,-2.429021,0.729865,-3.076953,-1.841690,-11.781159,2.147343,0.072506,-0.159325,0.000000,0.053885,0.290291,0.000000
1.890000,-1.520061,-1.134291,-1.265964,2.161831,-0.333125,0.372954,1.548986,0.727023,-0.012130,-2.446228,0.613212,-3.053165,-1.549801,-11.600808,2.759485,0.072985,-0.156415,0.000000,0.042071,0.290067,0.000000
1.900000,-1.498366,-1.137586,-1.262235,2.177198,-0.325826,0.372681,1.524451,0.732578,-0.042514,-2.460503,0.498391,-3.023117,-1.360179,-11.304614,3.095501,0.073348,-0.153510,0.000000,0.030579,0.289480,0.000000
1.910000,-1.476518,-1.140807,-1.258511,2.192319,-0.318477,0.372105,1.499780,0.737001,-0.072588,-2.473548,0.386705,-2.991146,-1.188319,-10.995401,3.410432,0.073598,-0.150611,0.000000,0.019505,0.288774,-0.000000
1.920000,-1.454520,-1.143955,-1.254794,2.207193,-0.311090,0.371230,1.474991,0.740326,-0.102317,-2.483739,0.278858,-2.953912,-0.913163,-10.604172,3.921983,0.073740,-0.147720,0.000000,0.008934,0.287742,-0.000000
1.930000,-1.432375,-1.147029,-1.251088,2.221819,-0.303674,0.370060,1.450107,0.742588,-0.131661,-2.493134,0.173986,-2.915103,-0.969899,-10.368576,3.833428,0.073778,-0.144840,0.000000,-0.001250,0.286649,-0.000000
1.940000,-1.410085,-1.150028,-1.247394,2.236195,-0.296241,0.368598,1.425130,0.743816,-0.160616,-2.501953,0.072203,-2.875049,-0.734715,-9.952360,4.286870,0.073716,-0.141971,0.000000,-0.011044,0.285521,-0.000000
1.950000,-1.387652,-1.152954,-1.243717,2.250321,-0.288801,0.366849,1.400077,0.744047,-0.189145,-2.508394,-0.025300,-2.830377,-0.616991,-9.579317,4.532718,0.073559,-0.139115,0.000000,-0.020315,0.284139,-0.000000
1.960000,-1.365079,-1.155804,-1.240058,2.264196,-0.281363,0.364817,1.374962,0.743320,-0.217217,-2.514556,-0.119643,-2.783573,-0.519736,-9.201346,4.774342,0.073311,-0.136273,0.000000,-0.029196,0.282746,-0.000000
1.970000,-1.342369,-1.158581,-1.236421,2.277820,-0.273938,0.362506,1.349797,0.741674,-0.244813,-2.517937,-0.208487,-2.735416,-0.252946,-8.650396,4.903885,0.072977,-0.133446,0.000000,-0.037473,0.281112,0.000000
1.980000,-1.319524,-1.161283,-1.232809,2.291192,-0.266533,0.359922,1.324601,0.739159,-0.271916,-2.521639,-0.294396,-2.684510,-0.492406,-8.532505,5.276128,0.072563,-0.130636,0.000000,-0.045390,0.279523,-0.000000
1.990000,-1.296546,-1.163912,-1.229224,2.304312,-0.259157,0.357070,1.299362,0.735795,-0.298494,-2.525912,-0.377400,-2.630952,-0.268681,-7.981876,5.382675,0.072071,-0.127841,0.000000,-0.052958,0.278007,-0.000000
2.000000,-1.273438,-1.166467,-1.225668,2.317179,-0.251820,0.353954,1.274093,0.731631,-0.324533,-2.527860,-0.454736,-2.576487,-0.217573,-7.569337,5.557492,0.071506,-0.125062,0.000000,-0.059928,0.276305,-0.000000
2.010000,-1.250203,-1.168948,-1.222145,2.329794,-0.244527,0.350581,1.248804,0.726712,-0.350019,-2.529845,-0.528353,-2.520523,-0.171438,-7.146513,5.704575,0.070874,-0.122300,0.000000,-0.066489,0.274642,0.000000
2.020000,-1.226843,-1.171357,-1.218657,2.342155,-0.237288,0.346955,1.223498,0.721079,-0.374933,-2.531232,-0.597591,-2.461786,-0.116819,-6.706978,5.970280,0.070178,-0.119555,0.000000,-0.072577,0.272941,-0.000000
2.030000,-1.203361,-1.173694,-1.215207,2.354264,-0.230108,0.343084,1.198180,0.714775,-0.399254,-2.532404,-0.662617,-2.402641,-0.119236,-6.297839,5.853826,0.069423,-0.116828,0.000000,-0.078228,0.271269,-0.000000
2.040000,-1.179759,-1.175960,-1.211797,2.366119,-0.222994,0.338972,1.172850,0.707841,-0.422985,-2.533456,-0.723412,-2.343344,-0.083069,-5.854526,6.073608,0.068615,-0.114117,0.000000,-0.083449,0.269638,-0.000000
2.050000,-1.156040,-1.178154,-1.208428,2.377721,-0.215953,0.334626,1.147512,0.700321,-0.446112,-2.534169,-0.779759,-2.281819,-0.069846,-5.421395,6.158507,0.067756,-0.111422,0.000000,-0.088209,0.268002,0.000000
2.060000,-1.132205,-1.180279,-1.205105,2.389069,-0.208990,0.330052,1.122167,0.692259,-0.468622,-2.534746,-0.832027,-2.220120,-0.061377,-4.992679,6.227728,0.066852,-0.108744,0.000000,-0.092564,0.266406,-0.000000
2.070000,-1.108259,-1.182334,-1.201828,2.400164,-0.202110,0.325256,1.096816,0.683698,-0.490508,-2.535562,-0.879253,-2.156862,-0.087576,-4.491343,6.374188,0.065906,-0.106082,0.000000,-0.096415,0.264869,-0.000000
2.080000,-1.084203,-1.184321,-1.198600,2.411005,-0.195317,0.320244,1.071457,0.674686,-0.511760,-2.536198,-0.922669,-2.093675,-0.040124,-4.193505,6.259655,0.064925,-0.103435,0.000000,-0.099897,0.263370,-0.000000
2.090000,-1.060040,-1.186241,-1.195424,2.421593,-0.188617,0.315023,1.046092,0.665257,-0.532383,-2.536685,-0.962357,-2.030755,-0.073152,-3.705931,6.370126,0.063910,-0.100803,0.000000,-0.103023,0.261910,0.000000
2.100000,-1.035772,-1.188094,-1.192301,2.431927,-0.182013,0.309599,1.020721,0.655456,-0.552370,-2.537546,-0.997135,-1.966717,-0.084390,-3.288847,6.387652,0.062866,-0.098186,0.000000,-0.105673,0.260528,0.000000
2.110000,-1.011402,-1.189882,-1.189233,2.442008,-0.175509,0.303978,0.995341,0.645325,-0.571716,-2.538502,-1.028454,-1.902448,-0.100745,-2.884580,6.403408,0.061797,-0.095582,0.000000,-0.107996,0.259203,-0.000000
2.120000,-0.986933,-1.191605,-1.186222,2.451834,-0.169108,0.298166,0.969951,0.634908,-0.590424,-2.539509,-1.054006,-1.839244,-0.107499,-2.315507,6.294562,0.060708,-0.092992,0.000000,-0.109783,0.257942,0.000000
2.130000,-0.962366,-1.193264,-1.183270,2.461407,-0.162812,0.292171,0.944550,0.624254,-0.608499,-2.540794,-1.076647,-1.775354,-0.149984,-2.216535,6.483487,0.059602,-0.090414,0.000000,-0.111299,0.256751,0.000000
2.140000,-0.937705,-1.194861,-1.180379,2.470725,-0.156624,0.285999,0.919134,0.613383,-0.625928,-2.542384,-1.096568,-1.710801,-0.161638,-1.679411,6.366017,0.058483,-0.087847,0.000000,-0.112563,0.255633,-0.000000
2.150000,-0.912953,-1.196397,-1.177550,2.479789,-0.150545,0.279655,0.893702,0.602342,-0.642720,-2.544086,-1.111017,-1.647566,-0.185227,-1.301242,6.339128,0.057353,-0.085292,0.000000,-0.113328,0.254583,0.000000
2.160000,-0.888110,-1.197873,-1.174786,2.488599,-0.144577,0.273146,0.868253,0.591174,-0.658881,-2.545812,-1.122136,-1.584651,-0.203684,-0.925345,6.293370,0.056217,-0.082747,0.000000,-0.113794,0.253585,-0.000000
2.170000,-0.863181,-1.199289,-1.172088,2.497154,-0.138722,0.266479,0.842782,0.579912,-0.674411,-2.548562,-1.129563,-1.521261,-0.303782,-0.560276,6.333720,0.055078,-0.080212,0.000000,-0.113923,0.252725,-0.000000
2.180000,-0.838168,-1.200647,-1.169457,2.505454,-0.132979,0.259660,0.817283,0.568594,-0.689310,-2.550992,-1.133346,-1.459043,-0.180733,-0.197727,6.106961,0.053940,-0.077685,0.000000,-0.113731,0.251890,-0.000000
2.190000,-0.813073,-1.201949,-1.166895,2.513500,-0.127350,0.252695,0.791764,0.557257,-0.703596,-2.553033,-1.133575,-1.398148,-0.270163,0.149113,6.120546,0.052805,-0.075167,0.000000,-0.113227,0.251070,-0.000000
2.200000,-0.787899,-1.203195,-1.164404,2.521290,-0.121834,0.245590,0.766218,0.545934,-0.717272,-2.556026,-1.130384,-1.337079,-0.285230,0.488236,6.042240,0.051676,-0.072656,0.000000,-0.112418,0.250382,0.000000
2.210000,-0.762648,-1.204386,-1.161984,2.528824,-0.116431,0.238352,0.740644,0.534659,-0.730342,-2.558743,-1.124137,-1.277183,-0.296784,0.811023,5.957950,0.050557,-0.070152,0.000000,-0.111346,0.249717,-0.000000
2.220000,-0.737323,-1.205524,-1.159637,2.536102,-0.111140,0.230985,0.715040,0.523466,-0.742816,-2.562312,-1.113725,-1.217737,-0.378918,1.219522,5.908916,0.049451,-0.067655,0.000000,-0.109902,0.249177,-0.000000
2.230000,-0.711927,-1.206609,-1.157365,2.543125,-0.105961,0.223497,0.689400,0.512393,-0.754701,-2.565520,-1.100835,-1.159472,-0.261033,1.355047,5.742648,0.048360,-0.065163,0.000000,-0.108250,0.248650,0.000000
2.240000,-0.686462,-1.207643,-1.155168,2.549890,-0.100892,0.215893,0.663731,0.501457,-0.766010,-2.568288,-1.085649,-1.102467,-0.330228,1.730848,5.679314,0.047286,-0.062676,0.000000,-0.106407,0.248127,0.000000
2.250000,-0.660930,-1.208627,-1.153047,2.556399,-0.095931,0.208179,0.638031,0.490693,-0.776752,-2.571794,-1.066684,-1.046081,-0.332073,2.009513,5.575594,0.046233,-0.060194,0.000000,-0.104231,0.247715,-0.000000
2.260000,-0.635335,-1.209562,-1.151004,2.562651,-0.091078,0.200360,0.612297,0.480130,-0.786936,-2.574948,-1.045538,-0.990974,-0.329739,2.273503,5.467673,0.045202,-0.057716,0.000000,-0.101874,0.247314,-0.000000
2.270000,-0.609678,-1.210449,-1.149040,2.568645,-0.086328,0.192442,0.586529,0.469795,-0.796573,-2.578667,-1.020740,-0.936531,-0.383102,2.630060,5.398943,0.044196,-0.055242,0.000000,-0.099196,0.247005,0.000000
2.280000,-0.583963,-1.211289,-1.147156,2.574381,-0.081681,0.184430,0.560725,0.459721,-0.805672,-2.581959,-0.994112,-0.883451,-0.273652,2.691946,5.216197,0.043219,-0.052771,0.000000,-0.096370,0.246698,-0.000000
2.290000,-0.558191,-1.212083,-1.145352,2.579859,-0.077133,0.176330,0.534892,0.449918,-0.814247,-2.584747,-0.965846,-0.831774,-0.314310,3.014015,5.140914,0.042269,-0.050304,0.000000,-0.093414,0.246384,-0.000000
2.300000,-0.532366,-1.212832,-1.143630,2.585079,-0.072681,0.168147,0.509028,0.440416,-0.822309,-2.587973,-0.934333,-0.780815,-0.299485,3.232055,5.029195,0.041351,-0.047839,0.000000,-0.090172,0.246147,0.000000
2.310000,-0.506490,-1.213537,-1.141989,2.590040,-0.068323,0.159886,0.483134,0.431238,-0.829867,-2.590765,-0.900896,-0.730981,-0.280828,3.443173,4.921627,0.040467,-0.045377,0.000000,-0.086772,0.245907,-0.000000
2.320000,-0.480566,-1.214199,-1.140432,2.594742,-0.064056,0.151552,0.457212,0.422404,-0.836934,-2.593785,-0.865601,-0.682525,-0.300992,3.623810,4.785682,0.039616,-0.042917,0.000000,-0.083217,0.245725,0.000000
2.330000,-0.454596,-1.214819,-1.138959,2.599184,-0.059874,0.143149,0.431260,0.413933,-0.843521,-2.596316,-0.828250,-0.634929,-0.203809,3.844772,4.734454,0.038803,-0.040458,0.000000,-0.079488,0.245530,-0.000000
2.340000,-0.428584,-1.215397,-1.137569,2.603367,-0.055776,0.134683,0.405288,0.405845,-0.849635,-2.598293,-0.788944,-0.588142,-0.213180,4.004639,4.607751,0.038027,-0.038002,0.000000,-0.075593,0.245316,0.000000
2.350000,-0.402530,-1.215934,-1.136265,2.607290,-0.051756,0.126158,0.379294,0.398159,-0.855288,-2.600383,-0.748111,-0.542627,-0.182180,4.169973,4.511974,0.037291,-0.035548,0.000000,-0.071573,0.245146,-0.000000
2.360000,-0.376439,-1.216432,-1.135046,2.610953,-0.047811,0.117578,0.353282,0.390888,-0.860488,-2.601997,-0.705696,-0.497523,-0.148676,4.322084,4.428939,0.036596,-0.033096,0.000000,-0.067419,0.244961,-0.000000
2.370000,-0.350312,-1.216891,-1.133914,2.614355,-0.043937,0.108949,0.327254,0.384051,-0.865248,-2.603425,-0.661608,-0.454773,-0.128175,4.483104,4.200300,0.035943,-0.030646,0.000000,-0.063127,0.244792,0.000000
2.380000,-0.324152,-1.217311,-1.132868,2.617498,-0.040129,0.100275,0.301215,0.377660,-0.869582,-2.604379,-0.616292,-0.411855,-0.061933,4.577743,4.386686,0.035334,-0.028197,0.000000,-0.058730,0.244605,0.000000
2.390000,-0.297963,-1.217694,-1.131908,2.620380,-0.036382,0.091559,0.275169,0.371728,-0.873483,-2.604821,-0.569877,-0.368603,-0.034386,4.713996,4.185710,0.034769,-0.025751,0.000000,-0.054240,0.244396,0.000000
2.400000,-0.271746,-1.218039,-1.131036,2.623001,-0.032692,0.082807,0.249119,0.366267,-0.876963,-2.604987,-0.522140,-0.327449,0.009734,4.820994,4.124890,0.034250,-0.023306,0.000000,-0.049641,0.244192,-0.000000
2.410000,-0.245504,-1.218348,-1.130252,2.625362,-0.029055,0.074021,0.223071,0.361289,-0.880030,-2.604564,-0.473418,-0.286089,0.057608,4.917993,4.073890,0.033777,-0.020864,0.000000,-0.044957,0.243957,-0.000000
2.420000,-0.219239,-1.218620,-1.129556,2.627462,-0.025465,0.065207,0.197028,0.356802,-0.882692,-2.603995,-0.423850,-0.246627,0.074090,4.997226,3.891171,0.033351,-0.018424,0.000000,-0.040207,0.243737,0.000000
2.430000,-0.192955,-1.218857,-1.128948,2.629303,-0.021917,0.056369,0.170994,0.352815,-0.884961,-2.602709,-0.373438,-0.206740,0.183840,5.083450,4.089540,0.032973,-0.015987,0.000000,-0.035383,0.243473,-0.000000
2.440000,-0.166654,-1.219059,-1.128429,2.630882,-0.018407,0.047510,0.144977,0.349335,-0.886825,-2.600665,-0.322287,-0.166265,0.207668,5.141459,3.934343,0.032643,-0.013552,0.000000,-0.030494,0.243161,-0.000000
2.450000,-0.140338,-1.219225,-1.127998,2.632202,-0.014929,0.038634,0.118981,0.346370,-0.888293,-2.598402,-0.270619,-0.127416,0.262911,5.194090,3.908226,0.032363,-0.011121,0.000000,-0.025565,0.242855,0.000000
2.460000,-0.114011,-1.219357,-1.127656,2.633262,-0.011478,0.029745,0.093011,0.343925,-0.889372,-2.595372,-0.218435,-0.088374,0.320848,5.236238,3.885322,0.032132,-0.008693,0.000000,-0.020591,0.242501,-0.000000
2.470000,-0.087674,-1.219455,-1.127403,2.634062,-0.008049,0.020848,0.067073,0.342003,-0.890062,-2.592187,-0.165974,-0.049836,0.337880,5.258765,3.838600,0.031951,-0.006268,0.000000,-0.015596,0.242155,0.000000
2.480000,-0.061330,-1.219518,-1.127239,2.634604,-0.004636,0.011945,0.041171,0.340606,-0.890368,-2.588155,-0.113201,-0.011257,0.469420,5.293999,3.878730,0.031820,-0.003848,0.000000,-0.010572,0.241753,-0.000000
2.490000,-0.034983,-1.219548,-1.127164,2.634886,-0.001235,0.003041,0.015313,0.339739,-0.890287,-2.583238,-0.060221,0.027444,0.492013,5.295637,3.846861,0.031740,-0.001431,0.000000,-0.005530,0.241292,0.000000
2.500000,-0.008634,-1.219543,-1.127178,2.634910,0.002161,-0.005859,-0.010494,0.339402,-0.889821,-2.578128,-0.007285,0.065829,0.551876,5.294187,3.846869,0.031710,0.000981,0.000000,-0.000493,0.240835,0.000000
2.510000,0.017715,-1.219504,-1.127281,2.634676,0.005555,-0.014754,-0.036246,0.339594,-0.888970,-2.572268,0.045623,0.104252,0.611053,5.281962,3.850114,0.031730,0.003388,0.000000,0.004543,0.240331,-0.000000
2.520000,0.044059,-1.219432,-1.127473,2.634185,0.008954,-0.023638,-0.061938,0.340313,-0.887734,-2.565993,0.098283,0.142956,0.652570,5.251879,3.880297,0.031800,0.005790,0.000000,0.009558,0.239811,-0.000000
2.530000,0.070397,-1.219325,-1.127754,2.633438,0.012363,-0.032507,-0.087564,0.341558,-0.886111,-2.559035,0.150700,0.181639,0.739145,5.229888,3.856955,0.031921,0.008186,0.000000,0.014554,0.239250,-0.000000
2.540000,0.096727,-1.219185,-1.128124,2.632434,0.015787,-0.041358,-0.113116,0.343326,-0.884102,-2.551393,0.202771,0.220339,0.780005,5.178784,3.895152,0.032091,0.010577,0.000000,0.019520,0.238648,0.000000
2.550000,0.123045,-1.219009,-1.128581,2.631176,0.019231,-0.050188,-0.138591,0.345612,-0.881703,-2.543366,0.254272,0.259462,0.834122,5.123062,3.919093,0.032311,0.012962,0.000000,0.024439,0.238032,0.000000
2.560000,0.149350,-1.218800,-1.129127,2.629663,0.022701,-0.058991,-0.163982,0.348410,-0.878912,-2.534828,0.305183,0.298749,0.884274,5.056298,3.947791,0.032580,0.015340,0.000000,0.029309,0.237392,0.000000
2.570000,0.175638,-1.218555,-1.129761,2.627896,0.026201,-0.067765,-0.189285,0.351713,-0.875726,-2.525585,0.355352,0.338514,0.953032,4.976693,3.997511,0.032897,0.017712,0.000000,0.034117,0.236710,0.000000
2.580000,0.201907,-1.218276,-1.130482,2.625877,0.029737,-0.076504,-0.214493,0.355514,-0.872141,-2.516007,0.404701,0.378540,0.961637,4.891442,4.008352,0.033262,0.020077,0.000000,0.038856,0.236020,-0.000000
2.590000,0.228154,-1.217960,-1.131291,2.623607,0.033313,-0.085206,-0.239604,0.359804,-0.868154,-2.506141,0.453124,0.418866,1.022130,4.790220,4.066092,0.033674,0.022435,0.000000,0.043518,0.235326,0.000000
2.600000,0.254378,-1.217609,-1.132186,2.621086,0.036935,-0.093866,-0.264613,0.364573,-0.863761,-2.495670,0.500478,0.459803,1.060411,4.679779,4.114043,0.034132,0.024786,0.000000,0.048090,0.234601,0.000000
2.610000,0.280575,-1.217222,-1.133168,2.618315,0.040606,-0.102480,-0.289517,0.369810,-0.858956,-2.485028,0.546659,0.501317,1.092842,4.557962,4.169585,0.034636,0.027130,0.000000,0.052564,0.233884,-0.000000
2.620000,0.306743,-1.216797,-1.134236,2.615296,0.044332,-0.111044,-0.314311,0.375502,-0.853735,-2.473593,0.591632,0.543026,1.168792,4.431512,4.192364,0.035183,0.029466,0.000000,0.056936,0.233117,-0.000000
2.630000,0.332880,-1.216335,-1.135389,2.612029,0.048118,-0.119553,-0.338989,0.381637,-0.848093,-2.462183,0.635184,0.585586,1.111700,4.276932,4.320985,0.035774,0.031795,0.000000,0.061190,0.232379,-0.000000
2.640000,0.358983,-1.215834,-1.136627,2.608516,0.051966,-0.128004,-0.363555,0.388201,-0.842020,-2.450875,0.677200,0.629068,1.174066,4.127792,4.356494,0.036407,0.034117,0.000000,0.065314,0.231677,-0.000000
2.650000,0.385050,-1.215295,-1.137949,2.604758,0.055883,-0.136392,-0.388004,0.395176,-0.835511,-2.438928,0.717674,0.672896,1.189758,3.961905,4.429266,0.037080,0.036432,0.000000,0.069308,0.230942,-0.000000
2.660000,0.411078,-1.214717,-1.139354,2.600757,0.059871,-0.144713,-0.412334,0.402548,-0.828557,-2.427079,0.756392,0.717960,1.199987,3.785501,4.512793,0.037792,0.038739,0.000000,0.073155,0.230245,0.000000
2.670000,0.437064,-1.214098,-1.140843,2.596512,0.063935,-0.152962,-0.436544,0.410299,-0.821154,-2.414759,0.793423,0.762513,1.243572,3.611724,4.467126,0.038542,0.041040,0.000000,0.076857,0.229527,0.000000
2.680000,0.463007,-1.213438,-1.142413,2.592026,0.068079,-0.161135,-0.460630,0.418410,-0.813301,-2.402638,0.828436,0.808756,1.179096,3.388851,4.784268,0.039329,0.043333,0.000000,0.080390,0.228860,0.000000
2.690000,0.488904,-1.212736,-1.144065,2.587300,0.072305,-0.169226,-0.484598,0.426860,-0.804973,-2.390794,0.861313,0.856814,1.208858,3.192050,4.758261,0.040150,0.045621,0.000000,0.083745,0.228253,0.000000
2.700000,0.514752,-1.211991,-1.145798,2.582335,0.076617,-0.177233,-0.508445,0.435630,-0.796167,-2.378648,0.892176,0.904520,1.199750,2.971767,4.852095,0.041003,0.047902,0.000000,0.086927,0.227644,0.000000
2.710000,0.540550,-1.211203,-1.147610,2.577131,0.081018,-0.185148,-0.532172,0.444696,-0.786876,-2.366811,0.920651,0.953861,1.184936,2.739438,4.950061,0.041887,0.050178,0.000000,0.089906,0.227098,0.000000
2.720000,0.566294,-1.210371,-1.149500,2.571692,0.085512,-0.192968,-0.555780,0.454036,-0.777092,-2.354800,0.947095,1.002914,1.198966,2.530209,4.924807,0.042801,0.052448,0.000000,0.092712,0.226562,-0.000000
2.730000,0.591983,-1.209493,-1.151469,2.566016,0.090100,-0.200688,-0.579269,0.463629,-0.766812,-2.343218,0.970854,1.053704,1.116023,2.219242,5.235128,0.043741,0.054713,0.000000,0.095289,0.226104,-0.000000
2.740000,0.617614,-1.208568,-1.153514,2.560107,0.094785,-0.208303,-0.602646,0.473444,-0.756011,-2.332140,0.991799,1.106314,1.116406,1.985746,5.221637,0.044706,0.056975,0.000000,0.097627,0.225732,0.000000
2.750000,0.643184,-1.207596,-1.155634,2.553964,0.099569,-0.215807,-0.625912,0.483457,-0.744687,-2.321058,1.010386,1.158681,1.081654,1.712250,5.315970,0.045693,0.059232,0.000000,0.099760,0.225389,0.000000
2.760000,0.668692,-1.206576,-1.157829,2.547589,0.104455,-0.223195,-0.649070,0.493642,-0.732833,-2.310556,1.026043,1.212287,1.040659,1.428682,5.403331,0.046700,0.061487,0.000000,0.101641,0.225138,0.000000
2.770000,0.694135,-1.205507,-1.160098,2.540983,0.109443,-0.230462,-0.672123,0.503969,-0.720439,-2.300053,1.039029,1.266722,1.037114,1.156125,5.484218,0.047725,0.063740,0.000000,0.103292,0.224924,-0.000000
2.780000,0.719511,-1.204387,-1.162438,2.534147,0.114534,-0.237602,-0.695073,0.514412,-0.707496,-2.290289,1.048907,1.321983,0.914197,0.817561,5.567293,0.048765,0.065991,0.000000,0.104672,0.224816,0.000000
2.790000,0.744817,-1.203216,-1.164849,2.527081,0.119731,-0.244610,-0.717931,0.524936,-0.693996,-2.281341,1.055567,1.378022,0.896924,0.523733,5.638016,0.049817,0.068242,0.000000,0.105769,0.224824,0.000000
2.800000,0.770052,-1.201992,-1.167330,2.519788,0.125033,-0.251480,-0.740700,0.535513,-0.679933,-2.272555,1.059262,1.434733,0.837639,0.202557,5.704440,0.050879,0.070494,0.000000,0.106607,0.224885,0.000000
2.810000,0.795212,-1.200715,-1.169878,2.512268,0.130441,-0.258206,-0.763386,0.546110,-0.665301,-2.264711,1.059398,1.491802,0.771117,-0.131962,5.757895,0.051948,0.072746,0.000000,0.107127,0.225073,-0.000000
2.820000,0.820296,-1.199383,-1.172494,2.504521,0.135955,-0.264784,-0.785993,0.556694,-0.650091,-2.256771,1.057007,1.550322,0.776861,-0.391124,5.896337,0.053021,0.075001,0.000000,0.107431,0.225297,-0.000000
2.830000,0.845302,-1.197996,-1.175174,2.496548,0.141575,-0.271206,-0.808526,0.567236,-0.634295,-2.250016,1.050634,1.608686,0.572319,-0.886133,5.773400,0.054096,0.077259,0.000000,0.107372,0.225669,0.000000
2.840000,0.870227,-1.196551,-1.177917,2.488350,0.147300,-0.277468,-0.830998,0.577692,-0.617919,-2.244535,1.040140,1.666736,0.563160,-1.170091,5.883752,0.055168,0.079522,0.000000,0.106934,0.226197,-0.000000
2.850000,0.895068,-1.195049,-1.180722,2.479928,0.153129,-0.283563,-0.853416,0.588030,-0.600956,-2.239102,1.026834,1.725914,0.483415,-1.535857,5.901514,0.056234,0.081790,0.000000,0.106248,0.226776,0.000000
2.860000,0.919824,-1.193488,-1.183588,2.471282,0.159060,-0.289485,-0.875785,0.598214,-0.583403,-2.234933,1.009326,1.784772,0.398506,-1.911618,5.907507,0.057291,0.084065,0.000000,0.105171,0.227512,-0.000000
2.870000,0.944493,-1.191868,-1.186512,2.462413,0.165092,-0.295229,-0.898113,0.608209,-0.565257,-2.230693,0.989089,1.844388,0.402274,-2.190240,5.975846,0.058336,0.086348,0.000000,0.103848,0.228287,-0.000000
2.880000,0.969072,-1.190186,-1.189492,2.453320,0.171223,-0.300788,-0.920404,0.617981,-0.546517,-2.227878,0.964379,1.903452,0.159013,-2.754332,5.833761,0.059367,0.088639,0.000000,0.102103,0.229234,-0.000000
2.890000,0.993559,-1.188443,-1.192527,2.444005,0.177451,-0.306157,-0.942676,0.627481,-0.527191,-2.226565,0.935071,1.961794,0.151124,-3.053974,5.871013,0.060377,0.090941,0.000000,0.099918,0.230360,-0.000000
2.900000,1.017951,-1.186637,-1.195614,2.434467,0.183772,-0.311330,-0.964935,0.636673,-0.507279,-2.225259,0.902828,2.020505,0.062748,-3.449129,5.830921,0.061364,0.093255,0.000000,0.097458,0.231533,0.000000
2.910000,1.042247,-1.184767,-1.198753,2.424706,0.190183,-0.316301,-0.987186,0.645522,-0.486784,-2.225247,0.866313,2.078335,-0.025671,-3.845116,5.775992,0.062325,0.095581,0.000000,0.094582,0.232865,0.000000
2.920000,1.066445,-1.182833,-1.201940,2.414723,0.196681,-0.321064,-1.009440,0.653987,-0.465711,-2.225450,0.825997,2.136380,-0.048174,-4.226854,5.788959,0.063255,0.097921,0.000000,0.091340,0.234263,-0.000000
2.930000,1.090541,-1.180833,-1.205173,2.404517,0.203262,-0.325613,-1.031700,0.662029,-0.444061,-2.226907,0.781591,2.193191,-0.243781,-4.654802,5.569798,0.064150,0.100276,0.000000,0.087690,0.235815,0.000000
2.940000,1.114534,-1.178767,-1.208451,2.394089,0.209920,-0.329943,-1.053982,0.669605,-0.421852,-2.229638,0.733072,2.248580,-0.268051,-5.040582,5.548000,0.065007,0.102648,0.000000,0.083625,0.237521,-0.000000
2.950000,1.138422,-1.176635,-1.211771,2.383438,0.216652,-0.334048,-1.076292,0.676677,-0.399090,-2.232543,0.680705,2.303745,-0.345918,-5.441085,5.440911,0.065821,0.105037,0.000000,0.079173,0.239287,-0.000000
2.960000,1.162202,-1.174434,-1.215131,2.372563,0.223452,-0.337923,-1.098637,0.683204,-0.375782,-2.236409,0.623986,2.357505,-0.417950,-5.846347,5.321710,0.066589,0.107444,0.000000,0.074273,0.241178,-0.000000
2.970000,1.185873,-1.172165,-1.218529,2.361465,0.230314,-0.341562,-1.121022,0.689148,-0.351943,-2.240805,0.564300,2.410252,-0.468578,-6.144904,5.212937,0.067306,0.109871,0.000000,0.069058,0.243157,0.000000
2.980000,1.209431,-1.169828,-1.221962,2.350142,0.237233,-0.344960,-1.143455,0.694474,-0.327582,-2.245933,0.499955,2.461456,-0.556196,-6.725324,5.025134,0.067968,0.112319,0.000000,0.063354,0.245237,-0.000000
2.990000,1.232875,-1.167421,-1.225427,2.338595,0.244201,-0.348112,-1.165943,0.699131,-0.302719,-2.251738,0.430908,2.510961,-0.595062,-7.028409,4.886185,0.068571,0.114788,0.000000,0.057150,0.247412,0.000000
3.000000,1.256202,-1.164943,-1.228923,2.326823,0.251213,-0.351013,-1.188491,0.703084,-0.277368,-2.257881,0.358941,2.559025,-0.640306,-7.419337,4.711850,0.069110,0.117279,0.000000,0.050616,0.249651,-0.000000
3.010000,1.279410,-1.162396,-1.232447,2.314825,0.258261,-0.353658,-1.211102,0.706294,-0.251544,-2.264349,0.282419,2.605421,-0.673681,-7.808995,4.528284,0.069582,0.119793,0.000000,0.043585,0.251949,-0.000000
3.020000,1.302498,-1.159778,-1.235995,2.302601,0.265336,-0.356042,-1.233781,0.708725,-0.225269,-2.271525,0.203474,2.649206,-0.738462,-8.051227,4.261890,0.069981,0.122331,0.000000,0.036254,0.254332,0.000000
3.030000,1.325462,-1.157089,-1.239567,2.290149,0.272432,-0.358162,-1.256532,0.710348,-0.198565,-2.278638,0.119901,2.691356,-0.681701,-8.664024,4.166711,0.070305,0.124892,0.000000,0.028407,0.256736,0.000000
3.040000,1.348300,-1.154329,-1.243158,2.277470,0.279540,-0.360012,-1.279353,0.711107,-0.171447,-2.285552,0.031697,2.731772,-0.720718,-8.901759,3.878086,0.070548,0.127478,0.000000,0.020037,0.259145,0.000000
3.050000,1.371010,-1.151499,-1.246766,2.264562,0.286652,-0.361590,-1.302245,0.710975,-0.143941,-2.292833,-0.058716,2.769170,-0.711758,-9.251691,3.634902,0.070705,0.130088,0.000000,0.011367,0.261596,0.000000
3.060000,1.393591,-1.148596,-1.250389,2.251425,0.293757,-0.362890,-1.325208,0.709920,-0.116074,-2.299758,-0.152832,2.803678,-0.689564,-9.582068,3.363038,0.070773,0.132723,0.000000,0.002246,0.264018,0.000000
3.070000,1.416038,-1.145623,-1.254023,2.238058,0.300847,-0.363910,-1.348240,0.707907,-0.087868,-2.306751,-0.250426,2.837289,-0.688955,-9.921590,3.260549,0.070748,0.135382,0.000000,-0.007297,0.266477,0.000000
3.080000,1.438351,-1.142580,-1.257666,2.224460,0.307912,-0.364646,-1.371341,0.704902,-0.059342,-2.313113,-0.350947,2.866824,-0.580432,-10.179391,2.640973,0.070626,0.138066,0.000000,-0.017235,0.268860,0.000000
3.090000,1.460527,-1.139465,-1.261315,2.210631,0.314942,-0.365096,-1.394500,0.700879,-0.030547,-2.318676,-0.454207,2.891998,-0.547910,-10.482123,2.488207,0.070402,0.140772,0.000000,-0.027555,0.271139,-0.000000
3.100000,1.482563,-1.136281,-1.264967,2.196570,0.321926,-0.365256,-1.417713,0.695808,-0.001505,-2.323871,-0.560422,2.915718,-0.469915,-10.744586,2.156540,0.070074,0.143502,0.000000,-0.038265,0.273397,-0.000000
3.110000,1.504457,-1.133027,-1.268619,2.182276,0.328854,-0.365125,-1.440972,0.689662,0.027753,-2.327669,-0.669153,2.935265,-0.368363,-10.988261,1.809853,0.069636,0.146253,0.000000,-0.049343,0.275487,-0.000000
3.120000,1.526207,-1.129704,-1.272268,2.167750,0.335715,-0.364701,-1.464270,0.682418,0.057193,-2.331934,-0.780022,2.952415,-0.403099,-11.191326,1.560179,0.069086,0.149025,0.000000,-0.060746,0.277618,0.000000
3.130000,1.547811,-1.126313,-1.275912,2.152991,0.342499,-0.363981,-1.487603,0.674054,0.086786,-2.334020,-0.893105,2.965213,-0.008833,-11.421509,0.995493,0.068420,0.151818,0.000000,-0.072495,0.279491,-0.000000
3.140000,1.569267,-1.122854,-1.279547,2.137998,0.349193,-0.362965,-1.510941,0.664549,0.116481,-2.333654,-1.008174,2.973447,0.004997,-11.578272,0.707417,0.067635,0.154627,0.000000,-0.084572,0.281068,-0.000000
3.150000,1.590571,-1.119329,-1.283170,2.122772,0.355786,-0.361651,-1.534277,0.653886,0.146246,-2.333189,-1.124665,2.978826,0.170203,-11.725323,0.308376,0.066728,0.157452,0.000000,-0.096913,0.282607,-0.000000
3.160000,1.611721,-1.115739,-1.286779,2.107313,0.362267,-0.360040,-1.557595,0.642051,0.176042,-2.330088,-1.242519,2.979553,0.357935,-11.843408,-0.105899,0.065696,0.160291,0.000000,-0.109524,0.283816,0.000000
3.170000,1.632716,-1.112085,-1.290370,2.091620,0.368623,-0.358130,-1.580880,0.629032,0.205828,-2.326836,-1.361458,2.977202,0.386130,-11.937025,-0.422490,0.064536,0.163141,0.000000,-0.122368,0.284967,0.000000
3.180000,1.653553,-1.108367,-1.293941,2.075695,0.374843,-0.355923,-1.604121,0.614820,0.235569,-2.320399,-1.481107,2.969888,0.906752,-11.987346,-1.043595,0.063248,0.166000,0.000000,-0.135417,0.285715,0.000000
3.190000,1.674229,-1.104588,-1.297488,2.059538,0.380915,-0.353419,-1.627276,0.599409,0.265208,-2.310491,-1.601147,2.957436,0.985707,-12.017627,-1.391547,0.061827,0.168865,0.000000,-0.148638,0.286017,0.000000
3.200000,1.694743,-1.100749,-1.301008,2.043150,0.386827,-0.350620,-1.650330,0.582796,0.294707,-2.299856,-1.721326,2.941546,1.235763,-12.010147,-1.844418,0.060274,0.171731,0.000000,-0.161995,0.286173,0.000000
3.210000,1.715091,-1.096852,-1.304499,2.026532,0.392567,-0.347526,-1.673261,0.564986,0.324019,-2.285928,-1.840585,2.920014,1.500857,-11.954766,-2.317383,0.058587,0.174597,0.000000,-0.175386,0.285876,0.000000
3.220000,1.735273,-1.092899,-1.307958,2.009685,0.398123,-0.344140,-1.696043,0.545977,0.353103,-2.270264,-1.961397,2.896518,1.684245,-12.086080,-2.524072,0.056766,0.177458,0.000000,-0.189044,0.285342,-0.000000
3.230000,1.755284,-1.088890,-1.311381,1.992612,0.403483,-0.340465,-1.718654,0.525767,0.381927,-2.251148,-2.079758,2.866548,2.142880,-11.576317,-3.475122,0.054807,0.180311,0.000000,-0.202573,0.284306,0.000000
3.240000,1.775124,-1.084830,-1.314766,1.975313,0.408635,-0.336503,-1.741054,0.504393,0.410411,-2.228372,-2.195135,2.829866,2.364105,-11.609288,-3.718862,0.052715,0.183151,0.000000,-0.215910,0.282729,-0.000000
3.250000,1.794790,-1.080718,-1.318110,1.957791,0.413567,-0.332258,-1.763215,0.481861,0.438519,-2.203398,-2.310827,2.790957,2.683353,-11.406309,-4.205787,0.050488,0.185973,0.000000,-0.229368,0.280838,0.000000
3.260000,1.814279,-1.076559,-1.321410,1.940050,0.418268,-0.327734,-1.785108,0.458191,0.466210,-2.174532,-2.422782,2.746282,3.019692,-11.152401,-4.688009,0.048129,0.188773,0.000000,-0.242532,0.278381,-0.000000
3.270000,1.833590,-1.072354,-1.324664,1.922090,0.422727,-0.322935,-1.806700,0.433401,0.493432,-2.143630,-2.535349,2.697580,3.232529,-11.185359,-5.091593,0.045637,0.191546,0.000000,-0.255843,0.275576,-0.000000
3.280000,1.852720,-1.068105,-1.327868,1.903917,0.426932,-0.317867,-1.827966,0.407502,0.520143,-2.108378,-2.642807,2.643630,3.821671,-10.294456,-5.699025,0.043013,0.194288,0.000000,-0.268692,0.272151,-0.000000
3.290000,1.871668,-1.063816,-1.331020,1.885532,0.430873,-0.312534,-1.848852,0.380565,0.546287,-2.068580,-2.744530,2.584422,4.068822,-10.214487,-6.101259,0.040265,0.196992,0.000000,-0.280999,0.268075,-0.000000
3.300000,1.890430,-1.059489,-1.334118,1.866941,0.434540,-0.306943,-1.869330,0.352611,0.571820,-2.026375,-2.845516,2.521294,4.444036,-9.806073,-6.563522,0.037393,0.199653,0.000000,-0.293274,0.263588,-0.000000
3.310000,1.909006,-1.055126,-1.337158,1.848147,0.437922,-0.301100,-1.889364,0.323679,0.596696,-1.979765,-2.940062,2.453261,4.827922,-9.342989,-7.016728,0.034402,0.202265,0.000000,-0.304905,0.258457,0.000000
3.320000,1.927393,-1.050731,-1.340139,1.829155,0.441011,-0.295011,-1.908917,0.293806,0.620872,-1.930269,-3.034515,2.381225,5.122065,-9.302707,-7.412345,0.031295,0.204823,0.000000,-0.316549,0.252851,0.000000
3.330000,1.945588,-1.046307,-1.343058,1.809970,0.443795,-0.288685,-1.927954,0.263017,0.644305,-1.876261,-3.120983,2.304555,5.681805,-7.977560,-7.920053,0.028074,0.207322,0.000000,-0.327354,0.246581,0.000000
3.340000,1.963591,-1.041856,-1.345912,1.790598,0.446268,-0.282128,-1.946426,0.231417,0.666948,-1.817627,-3.198781,2.223360,5.995129,-7.817361,-8.292021,0.024751,0.209755,0.000000,-0.337228,0.239630,-0.000000
3.350000,1.981400,-1.037383,-1.348699,1.771044,0.448421,-0.275349,-1.964298,0.199042,0.688761,-1.755924,-3.275174,2.138567,6.396184,-7.215432,-8.687699,0.021329,0.212115,0.000000,-0.346931,0.232178,0.000000
3.360000,1.999012,-1.032889,-1.351418,1.751314,0.450247,-0.268355,-1.981529,0.165940,0.709710,-1.689686,-3.344018,2.050893,6.800972,-6.592428,-9.041024,0.017815,0.214397,0.000000,-0.355791,0.224084,-0.000000
3.370000,2.016425,-1.028379,-1.354066,1.731416,0.451738,-0.261157,-1.998082,0.132179,0.729751,-1.620370,-3.407329,1.956000,7.110991,-6.022107,-9.742863,0.014216,0.216595,0.000000,-0.364016,0.215398,0.000000
3.380000,2.033639,-1.023855,-1.356641,1.711355,0.452888,-0.253764,-2.013921,0.097818,0.748829,-1.546440,-3.463467,1.860126,7.676226,-5.199579,-9.422332,0.010538,0.218703,0.000000,-0.371405,0.206100,0.000000
3.390000,2.050652,-1.019322,-1.359141,1.691140,0.453692,-0.246184,-2.028995,0.062935,0.766953,-1.467850,-3.512098,1.763756,7.991654,-4.565644,-10.041079,0.006791,0.220715,0.000000,-0.377911,0.196198,0.000000
3.400000,2.067462,-1.014783,-1.361564,1.670778,0.454145,-0.238428,-2.043268,0.027597,0.784079,-1.386202,-3.554330,1.661022,8.386462,-3.833510,-10.309069,0.002982,0.222625,0.000000,-0.383646,0.185721,-0.000000
3.410000,2.084067,-1.010241,-1.363909,1.650277,0.454243,-0.230506,-2.056703,-0.008118,0.800171,-1.300120,-3.587064,1.556882,8.777542,-3.044159,-10.560832,-0.000878,0.224428,0.000000,-0.388260,0.174645,-0.000000
3.420000,2.100467,-1.005699,-1.366173,1.629647,0.453982,-0.222428,-2.069262,-0.044145,0.815205,-1.211152,-3.618220,1.449456,9.064574,-2.859603,-10.875083,-0.004783,0.226117,0.000000,-0.392600,0.163088,-0.000000
3.430000,2.116660,-1.001162,-1.368357,1.608895,0.453359,-0.214205,-2.080912,-0.080440,0.829155,-1.117813,-3.637393,1.340415,9.603136,-0.962369,-10.927282,-0.008725,0.227688,0.000000,-0.395531,0.150939,0.000000
3.440000,2.132644,-0.996633,-1.370457,1.588032,0.452373,-0.205849,-2.091604,-0.116849,0.842009,-1.020138,-3.643981,1.230080,9.879433,-0.680739,-11.181028,-0.012688,0.229134,0.000000,-0.396979,0.138214,-0.000000
3.450000,2.148420,-0.992116,-1.372473,1.567066,0.451022,-0.197369,-2.101306,-0.153317,0.853747,-0.919841,-3.648194,1.117267,10.227941,0.165814,-11.331140,-0.016664,0.230451,0.000000,-0.398046,0.125069,0.000000
3.460000,2.163985,-0.987614,-1.374404,1.546009,0.449307,-0.188777,-2.109990,-0.189775,0.864353,-0.816337,-3.641836,1.003774,10.549596,1.008482,-11.447545,-0.020645,0.231634,0.000000,-0.397838,0.111494,-0.000000
3.470000,2.179340,-0.983131,-1.376248,1.524870,0.447227,-0.180086,-2.117616,-0.226134,0.873812,-0.708174,-3.628918,0.887629,11.003053,1.670170,-11.694789,-0.024619,0.232679,0.000000,-0.396787,0.097292,-0.000000
3.480000,2.194483,-0.978671,-1.378005,1.503660,0.444784,-0.171305,-2.124147,-0.262321,0.882107,-0.597950,-3.606441,0.771694,11.036393,2.827642,-11.484884,-0.028576,0.233580,0.000000,-0.394567,0.082817,0.000000
3.490000,2.209413,-0.974236,-1.379674,1.482391,0.441981,-0.162447,-2.129570,-0.298230,0.889249,-0.485955,-3.574308,0.656363,11.436924,3.501814,-11.659553,-0.032506,0.234335,0.000000,-0.391172,0.068119,-0.000000
3.500000,2.224130,-0.969832,-1.381254,1.461073,0.438821,-0.153524,-2.133851,-0.333787,0.895227,-0.369937,-3.535623,0.539298,11.685517,4.329134,-11.665878,-0.036397,0.234941,0.000000,-0.386936,0.052909,-0.000000
3.510000,2.238634,-0.965461,-1.382745,1.439717,0.435307,-0.144547,-2.136961,-0.368922,0.900044,-0.251610,-3.490423,0.424292,11.923012,5.094515,-11.617630,-0.040242,0.235393,0.000000,-0.381877,0.037473,-0.000000
3.520000,2.252924,-0.961127,-1.384145,1.418337,0.431444,-0.135527,-2.138880,-0.403538,0.903692,-0.132043,-3.430232,0.304395,12.037876,6.566149,-12.078920,-0.044028,0.235690,0.000000,-0.375046,0.021757,-0.000000
3.530000,2.267001,-0.956833,-1.385455,1.396944,0.427239,-0.126477,-2.139593,-0.437520,0.906148,-0.009854,-3.367026,0.188648,12.397319,6.060302,-11.057660,-0.047742,0.235828,0.000000,-0.367792,0.005853,0.000000
3.540000,2.280863,-0.952584,-1.386674,1.375550,0.422696,-0.117408,-2.139069,-0.470874,0.907483,0.114772,-3.301513,0.077691,12.471334,7.417076,-11.410887,-0.051383,0.235807,0.000000,-0.360211,-0.010193,-0.000000
3.550000,2.294512,-0.948381,-1.387803,1.354167,0.417823,-0.108331,-2.137297,-0.503496,0.907684,0.239920,-3.221969,-0.037105,12.605313,8.110994,-11.264215,-0.054940,0.235624,0.000000,-0.350983,-0.026388,-0.000000
3.560000,2.307947,-0.944228,-1.388841,1.332808,0.412629,-0.099258,-2.134267,-0.535298,0.906754,0.366115,-3.137098,-0.148601,12.698456,8.811180,-11.105526,-0.058401,0.235278,0.000000,-0.341103,-0.042598,-0.000000
3.570000,2.321168,-0.940129,-1.389788,1.311486,0.407120,-0.090200,-2.129966,-0.566219,0.904711,0.494428,-3.046273,-0.259831,12.891053,9.396150,-11.065350,-0.061760,0.234769,0.000000,-0.330497,-0.059005,0.000000
3.580000,2.334177,-0.936087,-1.390645,1.290213,0.401308,-0.081167,-2.124380,-0.596199,0.901567,0.622404,-2.948284,-0.368337,12.696499,10.198397,-10.630766,-0.065008,0.234096,0.000000,-0.319055,-0.075278,-0.000000
3.590000,2.346973,-0.932104,-1.391412,1.269002,0.395200,-0.072172,-2.117521,-0.625162,0.897355,0.749617,-2.843349,-0.473845,12.808813,10.736335,-10.540717,-0.068138,0.233261,0.000000,-0.306812,-0.091357,-0.000000
3.600000,2.359557,-0.928184,-1.392089,1.247867,0.388808,-0.063224,-2.109383,-0.653050,0.892091,0.877884,-2.733261,-0.578485,12.770197,11.322826,-10.312617,-0.071142,0.232265,0.000000,-0.293962,-0.107483,0.000000
3.610000,2.371930,-0.924329,-1.392676,1.226819,0.382143,-0.054333,-2.099975,-0.679805,0.885791,1.003485,-2.616846,-0.681325,12.664499,11.880608,-10.093483,-0.074015,0.231108,0.000000,-0.280387,-0.123230,-0.000000
3.620000,2.384094,-0.920542,-1.393176,1.205871,0.375216,-0.045511,-2.089291,-0.705374,0.878485,1.134003,-2.496446,-0.778843,13.122081,12.264566,-9.563245,-0.076749,0.229792,0.000000,-0.266395,-0.139308,0.000000
3.630000,2.396048,-0.916825,-1.393587,1.185037,0.368039,-0.036767,-2.077314,-0.729714,0.870215,1.259278,-2.370185,-0.875809,11.917369,12.983245,-9.832983,-0.079340,0.228316,0.000000,-0.251735,-0.154756,0.000000
3.640000,2.407795,-0.913182,-1.393911,1.164329,0.360626,-0.028110,-2.064128,-0.752759,0.860970,1.378523,-2.238363,-0.972330,12.239807,13.301898,-9.313035,-0.081781,0.226689,0.000000,-0.236445,-0.169487,0.000000
3.650000,2.419335,-0.909613,-1.394149,1.143759,0.352989,-0.019551,-2.049727,-0.774473,0.850789,1.501293,-2.103681,-1.063367,11.995344,13.698852,-9.048920,-0.084068,0.224913,0.000000,-0.220890,-0.184385,-0.000000
3.660000,2.430670,-0.906123,-1.394303,1.123339,0.345141,-0.011097,-2.034123,-0.794825,0.839701,1.618839,-1.966307,-1.154111,11.713962,14.017703,-8.798807,-0.086198,0.222991,0.000000,-0.205033,-0.198649,0.000000
3.670000,2.441802,-0.902711,-1.394372,1.103080,0.337097,-0.002760,-2.017343,-0.813769,0.827740,1.737352,-1.821184,-1.236557,11.784115,14.756202,-7.979446,-0.088166,0.220926,0.000000,-0.188424,-0.212737,-0.000000
3.680000,2.452733,-0.899381,-1.394358,1.082996,0.328870,0.005455,-1.999396,-0.831251,0.814965,1.850233,-1.676443,-1.319765,10.780776,14.176131,-8.669476,-0.089967,0.218722,0.000000,-0.171853,-0.226170,0.000000
3.690000,2.463463,-0.896134,-1.394263,1.063096,0.320476,0.013537,-1.980361,-0.847304,0.801339,1.956900,-1.532919,-1.404034,10.748956,14.765020,-7.889227,-0.091604,0.216387,0.000000,-0.155408,-0.238887,0.000000
3.700000,2.473995,-0.892972,-1.394088,1.043392,0.311929,0.021479,-1.960255,-0.861886,0.786917,2.063409,-1.383396,-1.480003,10.347898,14.886868,-7.594725,-0.093073,0.213925,0.000000,-0.138424,-0.251310,-0.000000
3.710000,2.484331,-0.889896,-1.393834,1.023894,0.303244,0.029273,-1.939110,-0.874989,0.771751,2.165007,-1.237516,-1.552319,9.936639,14.903450,-7.229163,-0.094374,0.211341,0.000000,-0.121890,-0.263049,-0.000000
3.720000,2.494474,-0.886908,-1.393503,1.004613,0.294434,0.036911,-1.916972,-0.886586,0.755853,2.261776,-1.079766,-1.627885,9.442965,16.033909,-7.530224,-0.095505,0.208642,0.000000,-0.104080,-0.274266,-0.000000
3.730000,2.504425,-0.884008,-1.393096,0.985558,0.285517,0.044387,-1.893888,-0.896614,0.739223,2.354414,-0.929693,-1.695497,9.081597,13.953800,-5.979366,-0.096460,0.205833,0.000000,-0.087207,-0.284784,0.000000
3.740000,2.514186,-0.881198,-1.392616,0.966738,0.276507,0.051694,-1.869898,-0.905214,0.721975,2.442731,-0.788619,-1.754561,8.548191,14.863362,-6.187450,-0.097254,0.202922,0.000000,-0.071421,-0.294580,-0.000000
3.750000,2.523760,-0.878478,-1.392063,0.948163,0.267418,0.058825,-1.845052,-0.912343,0.704117,2.525566,-0.637757,-1.816203,8.045118,14.693623,-5.785006,-0.097883,0.199915,0.000000,-0.054604,-0.303776,0.000000
3.760000,2.533150,-0.875850,-1.391440,0.929840,0.258265,0.065774,-1.819409,-0.917993,0.685677,2.602047,-0.492590,-1.870924,7.493570,14.501901,-5.374525,-0.098349,0.196821,0.000000,-0.038508,-0.312080,0.000000
3.770000,2.542358,-0.873313,-1.390748,0.911777,0.249063,0.072536,-1.793010,-0.922188,0.666694,2.677638,-0.346294,-1.925667,7.383946,14.587038,-5.363670,-0.098653,0.193644,0.000000,-0.022348,-0.320214,0.000000
3.780000,2.551386,-0.870869,-1.389990,0.893982,0.239826,0.079106,-1.765886,-0.924935,0.647187,2.744677,-0.204414,-1.973787,6.014104,13.777995,-4.253547,-0.098798,0.190389,0.000000,-0.006770,-0.327243,0.000000
3.790000,2.560238,-0.868517,-1.389167,0.876462,0.230569,0.085479,-1.738148,-0.926295,0.627243,2.802699,-0.067527,-2.014981,5.829010,13.759650,-4.197149,-0.098791,0.187071,0.000000,0.008163,-0.333122,0.000000
3.800000,2.568916,-0.866257,-1.388281,0.859221,0.221305,0.091650,-1.709833,-0.926283,0.606885,2.859180,0.069271,-2.055939,5.226861,13.430232,-3.784114,-0.098634,0.183694,0.000000,0.023022,-0.338774,-0.000000
3.810000,2.577424,-0.864090,-1.387334,0.842267,0.212048,0.097615,-1.680987,-0.924925,0.586135,2.909260,0.201545,-2.093518,4.649157,13.077864,-3.423417,-0.098332,0.180265,0.000000,0.037316,-0.343633,-0.000000
3.820000,2.585763,-0.862016,-1.386329,0.825603,0.202811,0.103371,-1.651679,-0.922259,0.565051,2.950870,0.331278,-2.121582,3.807311,12.809122,-2.490398,-0.097889,0.176792,0.000000,0.051193,-0.347375,-0.000000
3.830000,2.593937,-0.860034,-1.385268,0.809234,0.193607,0.108915,-1.621982,-0.918315,0.543701,2.988231,0.456487,-2.149648,3.668888,12.227842,-3.133467,-0.097310,0.173285,0.000000,0.064537,-0.350630,0.000000
3.840000,2.601948,-0.858144,-1.384152,0.793165,0.184448,0.114244,-1.591927,-0.913146,0.522054,3.021518,0.576905,-2.178206,2.852439,11.909541,-2.276458,-0.096601,0.169748,0.000000,0.077323,-0.353425,0.000000
3.850000,2.609801,-0.856345,-1.382984,0.777397,0.175348,0.119356,-1.561582,-0.906787,0.500172,3.046442,0.694153,-2.197780,2.268498,11.481732,-1.941272,-0.095765,0.166188,0.000000,0.089635,-0.355153,-0.000000
3.860000,2.617497,-0.854637,-1.381765,0.761934,0.166316,0.124247,-1.531021,-0.899268,0.478099,3.064618,0.809136,-2.216522,1.648559,11.092851,-1.616290,-0.094809,0.162614,0.000000,0.101649,-0.356135,-0.000000
3.870000,2.625041,-0.853018,-1.380499,0.746777,0.157366,0.128917,-1.500288,-0.890651,0.455868,3.082019,0.912112,-2.228364,1.560398,9.908700,-0.940029,-0.093738,0.159033,0.000000,0.112277,-0.356895,0.000000
3.880000,2.632434,-0.851489,-1.379188,0.731928,0.148507,0.133364,-1.469414,-0.881021,0.433533,3.090138,1.015847,-2.239266,0.056818,10.849743,-1.247599,-0.092563,0.155449,0.000000,0.122933,-0.356659,-0.000000
3.890000,2.639680,-0.850048,-1.377833,0.717389,0.139749,0.137587,-1.438519,-0.870327,0.411084,3.088712,1.120833,-2.249567,-0.064254,9.734760,-0.625510,-0.091278,0.151873,0.000000,0.133667,-0.355410,-0.000000
3.900000,2.646783,-0.848694,-1.376437,0.703158,0.131104,0.141586,-1.407637,-0.858650,0.388567,3.086573,1.214019,-2.253400,-0.634890,9.311832,-0.329998,-0.089895,0.148311,0.000000,0.143053,-0.353978,-0.000000
3.910000,2.653745,-0.847425,-1.375002,0.689236,0.122579,0.145359,-1.376805,-0.846048,0.366023,3.079046,1.305791,-2.254894,-1.138351,8.875453,-0.023653,-0.088418,0.144767,0.000000,0.152224,-0.351952,-0.000000
3.920000,2.660569,-0.846242,-1.373530,0.675621,0.114186,0.148906,-1.346095,-0.832563,0.343475,3.061361,1.389973,-2.254394,-2.129625,8.122056,0.175093,-0.086853,0.141248,0.000000,0.160551,-0.348851,0.000000
3.930000,2.667258,-0.845141,-1.372024,0.662313,0.105931,0.152228,-1.315582,-0.818256,0.320947,3.042104,1.471616,-2.250314,-1.709247,8.210920,0.641373,-0.085208,0.137764,0.000000,0.168536,-0.345545,-0.000000
3.940000,2.673816,-0.844123,-1.370487,0.649309,0.097823,0.155325,-1.285254,-0.803137,0.298481,3.021901,1.550900,-2.242649,-2.594366,7.481457,0.837615,-0.083483,0.134312,0.000000,0.176201,-0.342106,-0.000000
3.950000,2.680245,-0.843184,-1.368919,0.636607,0.089871,0.158198,-1.255179,-0.787266,0.276099,2.992587,1.622618,-2.233132,-2.996803,7.024575,1.117195,-0.081687,0.130901,0.000000,0.183036,-0.337723,0.000000
3.960000,2.686549,-0.842325,-1.367323,0.624205,0.082080,0.160848,-1.225394,-0.770706,0.253830,2.964197,1.688313,-2.220125,-3.315806,6.509439,1.396246,-0.079825,0.127535,0.000000,0.189181,-0.333413,-0.000000
3.970000,2.692730,-0.841542,-1.365703,0.612098,0.074459,0.163275,-1.195957,-0.753485,0.231699,2.920486,1.756439,-2.206028,-4.801046,6.731599,1.506102,-0.077902,0.124218,0.000000,0.195549,-0.327545,-0.000000
3.980000,2.698792,-0.840835,-1.364059,0.600284,0.067013,0.165482,-1.166964,-0.735612,0.209723,2.881298,1.814882,-2.188260,-3.012644,4.945106,2.049059,-0.075918,0.120962,0.000000,0.200852,-0.322129,0.000000
3.990000,2.704737,-0.840201,-1.362394,0.588758,0.059748,0.167470,-1.138307,-0.717224,0.187947,2.847772,1.863113,-2.166776,-4.314485,5.089317,2.161322,-0.073889,0.117755,0.000000,0.205048,-0.317283,-0.000000
4.000000,2.710568,-0.839639,-1.360710,0.577516,0.052670,0.169242,-1.110066,-0.698337,0.166389,2.800407,1.913390,-2.144341,-4.529442,4.580518,2.409285,-0.071816,0.114605,0.000000,0.209439,-0.311049,0.000000
4.010000,2.716288,-0.839147,-1.359009,0.566555,0.045783,0.170799,-1.082300,-0.678975,0.145068,2.752206,1.958352,-2.119528,-4.794818,4.133762,2.634263,-0.069702,0.111518,0.000000,0.213249,-0.304747,-0.000000
4.020000,2.721900,-0.838723,-1.357295,0.555869,0.039092,0.172144,-1.055005,-0.659207,0.124012,2.707458,1.993520,-2.090927,-4.453627,3.172311,3.004592,-0.067555,0.108493,0.000000,0.216014,-0.298800,0.000000
4.030000,2.727406,-0.838365,-1.355567,0.545453,0.032600,0.173280,-1.028172,-0.639106,0.103253,2.656856,2.027521,-2.061145,-5.672398,3.637899,2.947820,-0.065382,0.105530,0.000000,0.218650,-0.292292,0.000000
4.040000,2.732810,-0.838070,-1.353830,0.535304,0.026311,0.174210,-1.001890,-0.618657,0.082792,2.600212,2.060825,-2.030383,-5.346733,2.750769,3.283894,-0.063182,0.102637,0.000000,0.221205,-0.285211,0.000000
4.050000,2.738113,-0.837838,-1.352084,0.525414,0.020228,0.174937,-0.976150,-0.597925,0.062658,2.547401,2.084895,-1.996174,-5.515621,2.337963,3.474984,-0.060961,0.099812,0.000000,0.222793,-0.278535,-0.000000
4.060000,2.743319,-0.837665,-1.350332,0.515779,0.014353,0.175464,-0.950950,-0.576964,0.042874,2.492583,2.106804,-1.960356,-5.621157,1.931197,3.664714,-0.058726,0.097056,0.000000,0.224156,-0.271694,0.000000
4.070000,2.748430,-0.837550,-1.348575,0.506393,0.008689,0.175796,-0.926316,-0.555812,0.023455,2.433429,2.122503,-1.923117,-6.033950,1.321601,3.803430,-0.056481,0.094371,0.000000,0.224889,-0.264455,0.000000
4.080000,2.753448,-0.837491,-1.346816,0.497250,0.003237,0.175935,-0.902275,-0.534522,0.004418,2.375588,2.135604,-1.883855,-5.524955,1.303889,4.048278,-0.054229,0.091758,0.000000,0.225356,-0.257386,-0.000000
4.090000,2.758376,-0.837485,-1.345057,0.488346,-0.002001,0.175885,-0.878797,-0.513107,-0.014215,2.319529,2.146374,-1.842625,-5.856790,0.740049,4.173998,-0.051974,0.089215,0.000000,0.225588,-0.250535,-0.000000
4.100000,2.763215,-0.837530,-1.343299,0.479673,-0.007025,0.175652,-0.855899,-0.491615,-0.032431,2.259997,2.151396,-1.800216,-5.873241,0.377899,4.328596,-0.049720,0.086742,0.000000,0.225251,-0.243379,0.000000
4.110000,2.767970,-0.837624,-1.341545,0.471226,-0.011833,0.175238,-0.833592,-0.470089,-0.050215,2.201596,2.153345,-1.756302,-5.870994,0.019516,4.469871,-0.047470,0.084340,0.000000,0.224615,-0.236381,0.000000
4.120000,2.772641,-0.837766,-1.339795,0.462999,-0.016426,0.174649,-0.811872,-0.448560,-0.067551,2.142056,2.151870,-1.710710,-5.970932,-0.317333,4.631844,-0.045229,0.082009,0.000000,0.223649,-0.229311,0.000000
4.130000,2.777230,-0.837952,-1.338052,0.454986,-0.020805,0.173889,-0.790747,-0.427063,-0.084425,2.083559,2.146936,-1.664014,-5.723389,-0.667640,4.705395,-0.042998,0.079749,0.000000,0.222354,-0.222392,-0.000000
4.140000,2.781741,-0.838181,-1.336318,0.447182,-0.024968,0.172962,-0.770196,-0.405632,-0.100828,2.026377,2.138657,-1.616326,-5.773512,-0.981095,4.845987,-0.040783,0.077557,0.000000,0.220744,-0.215652,0.000000
4.150000,2.786175,-0.838451,-1.334594,0.439580,-0.028917,0.171874,-0.750222,-0.384300,-0.116747,1.968679,2.127317,-1.567260,-5.699718,-1.290132,4.951060,-0.038584,0.075432,0.000000,0.218851,-0.208903,0.000000
4.160000,2.790533,-0.838759,-1.332881,0.432176,-0.032654,0.170629,-0.730819,-0.363095,-0.132171,1.912052,2.113109,-1.517346,-5.614994,-1.582555,5.046305,-0.036406,0.073375,0.000000,0.216697,-0.202308,-0.000000
4.170000,2.794819,-0.839103,-1.331181,0.424962,-0.036180,0.169232,-0.711977,-0.342050,-0.147089,1.856503,2.095403,-1.466215,-5.500373,-1.924283,5.162586,-0.034251,0.071383,0.000000,0.214221,-0.195863,0.000000
4.180000,2.799033,-0.839482,-1.329497,0.417934,-0.039496,0.167689,-0.693686,-0.321195,-0.161493,1.801924,2.075343,-1.414454,-5.413536,-2.084480,5.187731,-0.032123,0.069455,0.000000,0.211542,-0.189560,0.000000
4.190000,2.803178,-0.839892,-1.327828,0.411087,-0.042605,0.166004,-0.675935,-0.300550,-0.175377,1.748435,2.053103,-1.362174,-5.274293,-2.393851,5.282594,-0.030021,0.067589,0.000000,0.208677,-0.183410,0.000000
4.200000,2.807256,-0.840333,-1.326177,0.404414,-0.045508,0.164183,-0.658712,-0.280143,-0.188733,1.696408,2.027790,-1.308966,-5.137040,-2.634716,5.341671,-0.027950,0.065784,0.000000,0.205538,-0.177447,-0.000000
4.210000,2.811267,-0.840802,-1.324545,0.397911,-0.048208,0.162231,-0.642002,-0.260001,-0.201555,1.645728,2.000356,-1.255360,-4.989475,-2.863401,5.391354,-0.025911,0.064038,0.000000,0.202224,-0.171660,0.000000
4.220000,2.815214,-0.841297,-1.322933,0.391572,-0.050709,0.160154,-0.625792,-0.240145,-0.213838,1.596722,1.970442,-1.201045,-4.817713,-3.104277,5.457283,-0.023906,0.062349,0.000000,0.198697,-0.166078,0.000000
4.230000,2.819099,-0.841815,-1.321342,0.385393,-0.053012,0.157956,-0.610063,-0.220598,-0.225575,1.549244,1.938587,-1.146516,-4.676754,-3.264046,5.446635,-0.021938,0.060715,0.000000,0.195014,-0.160688,0.000000
4.240000,2.822923,-0.842356,-1.319774,0.379369,-0.055122,0.155644,-0.594802,-0.201379,-0.236768,1.503365,1.904939,-1.091878,-4.490161,-3.476552,5.492687,-0.020006,0.059134,0.000000,0.191190,-0.155495,-0.000000
4.250000,2.826687,-0.842917,-1.318230,0.373496,-0.057041,0.153223,-0.579989,-0.182507,-0.247411,1.459400,1.869214,-1.036801,-4.309665,-3.653605,5.508215,-0.018114,0.057604,0.000000,0.187195,-0.150526,0.000000
4.260000,2.830393,-0.843496,-1.316710,0.367768,-0.058773,0.150698,-0.565608,-0.164000,-0.257504,1.417175,1.831947,-0.981752,-4.124052,-3.816755,5.514707,-0.016263,0.056123,0.000000,0.183084,-0.145766,-0.000000
4.270000,2.834043,-0.844092,-1.315216,0.362182,-0.060322,0.148074,-0.551639,-0.145875,-0.267045,1.377030,1.792745,-0.926399,-3.914179,-4.002981,5.540439,-0.014453,0.054688,0.000000,0.178818,-0.141245,0.000000
4.280000,2.837637,-0.844702,-1.313749,0.356734,-0.061692,0.145359,-0.538061,-0.128149,-0.276033,1.338693,1.752319,-0.871267,-3.752949,-4.079571,5.484335,-0.012687,0.053297,0.000000,0.174466,-0.136935,0.000000
4.290000,2.841178,-0.845325,-1.312309,0.351420,-0.062887,0.142556,-0.524859,-0.110832,-0.284471,1.302185,1.710820,-0.816452,-3.538212,-4.236880,5.491715,-0.010964,0.051948,0.000000,0.170043,-0.132838,-0.000000
4.300000,2.844666,-0.845959,-1.310898,0.346236,-0.063910,0.139671,-0.512010,-0.093938,-0.292361,1.267854,1.667778,-0.761577,-3.338236,-4.350447,5.467544,-0.009286,0.050639,0.000000,0.165501,-0.128985,0.000000
4.310000,2.848103,-0.846603,-1.309516,0.341178,-0.064767,0.136710,-0.499496,-0.077479,-0.299704,1.235292,1.623868,-0.707062,-3.140205,-4.450610,5.436810,-0.007654,0.049367,0.000000,0.160907,-0.125335,-0.000000
4.320000,2.851490,-0.847254,-1.308164,0.336245,-0.065461,0.133679,-0.487295,-0.061465,-0.306504,1.205360,1.578612,-0.652841,-2.878792,-4.578129,5.403787,-0.006069,0.048131,0.000000,0.156213,-0.121971,0.000000
4.330000,2.854828,-0.847912,-1.306843,0.331431,-0.065998,0.130582,-0.475384,-0.045908,-0.312763,1.177031,1.532772,-0.599059,-2.788331,-4.587493,5.351473,-0.004530,0.046927,0.000000,0.151491,-0.118792,0.000000
4.340000,2.858119,-0.848574,-1.305553,0.326736,-0.066381,0.127425,-0.463749,-0.030811,-0.318486,1.150250,1.486488,-0.545785,-2.535020,-4.687805,5.304812,-0.003039,0.045755,0.000000,0.146756,-0.115790,0.000000
4.350000,2.861363,-0.849239,-1.304294,0.322156,-0.066615,0.124214,-0.452369,-0.016182,-0.323680,1.126050,1.439229,-0.493006,-2.338823,-4.741970,5.247630,-0.001595,0.044611,0.000000,0.141952,-0.113066,0.000000
4.360000,2.864563,-0.849906,-1.303069,0.317688,-0.066706,0.120953,-0.441223,-0.002027,-0.328349,1.103637,1.391656,-0.440826,-2.143279,-4.785063,5.184929,-0.000200,0.043493,0.000000,0.137144,-0.110541,0.000000
4.370000,2.867718,-0.850572,-1.301875,0.313330,-0.066658,0.117649,-0.430290,0.011649,-0.332499,1.083184,1.343432,-0.389350,-1.948886,-4.844215,5.111816,0.001147,0.042399,0.000000,0.132298,-0.108230,0.000000
4.380000,2.870830,-0.851238,-1.300716,0.309081,-0.066475,0.114305,-0.419553,0.024841,-0.336138,1.064625,1.295096,-0.338559,-1.763615,-4.820769,5.045594,0.002446,0.041327,0.000000,0.127464,-0.106127,-0.000000
4.390000,2.873900,-0.851902,-1.299589,0.304939,-0.066162,0.110928,-0.408991,0.037551,-0.339272,1.047917,1.246770,-0.288504,-1.577823,-4.856734,4.962027,0.003697,0.040276,0.000000,0.122652,-0.104226,0.000000
4.400000,2.876929,-0.852561,-1.298497,0.300901,-0.065725,0.107521,-0.398588,0.049775,-0.341911,1.033041,1.198108,-0.239316,-1.399069,-4.859745,4.877296,0.004899,0.039242,0.000000,0.117829,-0.102525,-0.000000
4.410000,2.879918,-0.853216,-1.297439,0.296967,-0.065168,0.104091,-0.388326,0.061513,-0.344062,1.019656,1.149550,-0.191020,-1.231449,-4.853812,4.786846,0.006053,0.038225,0.000000,0.113033,-0.100988,0.000000
4.420000,2.882868,-0.853864,-1.296415,0.293134,-0.064497,0.100642,-0.378186,0.072766,-0.345734,1.008828,1.101031,-0.143540,-0.981444,-4.845250,4.702700,0.007160,0.037221,0.000000,0.108259,-0.099721,0.000000
4.430000,2.885781,-0.854505,-1.295426,0.289403,-0.063715,0.097178,-0.368146,0.083535,-0.346936,0.999036,1.052742,-0.097101,-0.979698,-4.810989,4.584203,0.008219,0.036230,0.000000,0.103523,-0.098574,0.000000
4.440000,2.888657,-0.855138,-1.294472,0.285771,-0.062828,0.093704,-0.358202,0.093822,-0.347680,0.990143,1.004772,-0.051754,-0.753512,-4.784970,4.490298,0.009231,0.035250,0.000000,0.098832,-0.097532,-0.000000
4.450000,2.891497,-0.855761,-1.293552,0.282238,-0.061840,0.090226,-0.348335,0.103631,-0.347974,0.983539,0.957100,-0.007362,-0.614654,-4.745232,4.382273,0.010196,0.034278,0.000000,0.094183,-0.096730,-0.000000
4.460000,2.894302,-0.856374,-1.292667,0.278804,-0.060756,0.086746,-0.338529,0.112966,-0.347831,0.977923,0.909883,0.035933,-0.483849,-4.698105,4.271561,0.011114,0.033315,0.000000,0.089589,-0.096042,-0.000000
4.470000,2.897073,-0.856976,-1.291817,0.275468,-0.059582,0.083271,-0.328770,0.121830,-0.347260,0.974073,0.863150,0.078017,-0.312898,-4.646009,4.149011,0.011988,0.032357,0.000000,0.085051,-0.095544,0.000000
4.480000,2.899811,-0.857566,-1.291002,0.272228,-0.058321,0.079803,-0.319045,0.130231,-0.346274,0.971102,0.817010,0.118993,-0.283676,-4.580875,4.045778,0.012816,0.031403,0.000000,0.080579,-0.095146,0.000000
4.490000,2.902518,-0.858142,-1.290221,0.269087,-0.056979,0.076346,-0.309346,0.138173,-0.344884,0.968881,0.771531,0.158835,-0.136415,-4.515073,3.917782,0.013599,0.030453,0.000000,0.076179,-0.094837,0.000000
4.500000,2.905194,-0.858705,-1.289475,0.266042,-0.055559,0.072906,-0.299662,0.145663,-0.343102,0.968124,0.726738,0.197375,-0.042293,-4.441158,3.794255,0.014339,0.029506,0.000000,0.071851,-0.094687,0.000000
4.510000,2.907839,-0.859253,-1.288763,0.263093,-0.054067,0.069486,-0.289981,0.152710,-0.340940,0.968073,0.682746,0.234761,0.042115,-4.360928,3.669318,0.015037,0.028559,0.000000,0.067605,-0.094619,-0.000000
4.520000,2.910456,-0.859786,-1.288085,0.260242,-0.052507,0.066089,-0.280297,0.159321,-0.338412,0.969040,0.639497,0.270631,0.138124,-4.283647,3.517110,0.015692,0.027613,0.000000,0.063434,-0.094666,0.000000
4.530000,2.913044,-0.860303,-1.287441,0.257487,-0.050882,0.062719,-0.270599,0.165503,-0.335531,0.970561,0.597182,0.305366,0.164012,-4.178371,3.429924,0.016306,0.026665,0.000000,0.059357,-0.094781,0.000000
4.540000,2.915606,-0.860804,-1.286831,0.254830,-0.049198,0.059379,-0.260884,0.171268,-0.332308,0.972514,0.555857,0.338962,0.236167,-4.090318,3.275951,0.016879,0.025717,0.000000,0.055377,-0.094951,0.000000
4.550000,2.918141,-0.861287,-1.286253,0.252270,-0.047458,0.056074,-0.251146,0.176623,-0.328757,0.975152,0.515427,0.370986,0.277829,-3.990455,3.141817,0.017414,0.024766,0.000000,0.051484,-0.095201,-0.000000
4.560000,2.920651,-0.861753,-1.285709,0.249807,-0.045667,0.052805,-0.241381,0.181580,-0.324892,0.977815,0.475995,0.401732,0.303237,-3.887685,3.005265,0.017909,0.023812,0.000000,0.047688,-0.095467,-0.000000
4.570000,2.923138,-0.862200,-1.285197,0.247442,-0.043828,0.049577,-0.231585,0.186147,-0.320727,0.981640,0.437755,0.431070,0.411089,-3.767023,2.863811,0.018368,0.022856,0.000000,0.044006,-0.095858,-0.000000
4.580000,2.925601,-0.862629,-1.284717,0.245176,-0.041945,0.046391,-0.221750,0.190338,-0.316276,0.984976,0.400511,0.459037,0.252569,-3.681638,2.729329,0.018790,0.021895,0.000000,0.040419,-0.096213,0.000000
4.590000,2.928041,-0.863039,-1.284269,0.243007,-0.040022,0.043252,-0.211888,0.194161,-0.311551,0.987638,0.364282,0.485619,0.327183,-3.556107,2.585123,0.019176,0.020931,0.000000,0.036928,-0.096513,-0.000000
4.600000,2.930461,-0.863429,-1.283852,0.240938,-0.038063,0.040161,-0.201994,0.197628,-0.306568,0.991069,0.329332,0.510750,0.307452,-3.440733,2.442506,0.019529,0.019964,0.000000,0.033558,-0.096900,-0.000000
4.610000,2.932861,-0.863800,-1.283466,0.238968,-0.036071,0.037122,-0.192069,0.200751,-0.301341,0.993899,0.295467,0.534537,0.276875,-3.323375,2.300156,0.019848,0.018993,0.000000,0.030290,-0.097237,-0.000000
4.620000,2.935241,-0.864151,-1.283110,0.237097,-0.034049,0.034135,-0.182116,0.203542,-0.295883,0.996757,0.262950,0.556615,0.273098,-3.187951,2.129420,0.020135,0.018019,0.000000,0.027149,-0.097587,-0.000000
4.630000,2.937603,-0.864481,-1.282783,0.235325,-0.032001,0.031205,-0.172136,0.206014,-0.290212,0.998907,0.231539,0.577420,0.154453,-3.094222,2.031695,0.020391,0.017041,0.000000,0.024111,-0.097877,-0.000000
4.640000,2.939948,-0.864791,-1.282485,0.233654,-0.029930,0.028332,-0.162141,0.208176,-0.284339,1.000209,0.201238,0.596960,0.123983,-2.957277,1.861869,0.020617,0.016061,0.000000,0.021176,-0.098090,-0.000000
4.650000,2.942276,-0.865080,-1.282216,0.232083,-0.027839,0.025518,-0.152133,0.210043,-0.278279,1.001187,0.172326,0.614777,0.049094,-2.833340,1.715451,0.020815,0.015079,0.000000,0.018371,-0.098280,-0.000000
4.660000,2.944590,-0.865347,-1.281975,0.230611,-0.025730,0.022767,-0.142121,0.211626,-0.272048,1.001093,0.144517,0.631236,-0.039100,-2.709968,1.568115,0.020985,0.014095,0.000000,0.015669,-0.098371,0.000000
4.670000,2.946889,-0.865594,-1.281761,0.229240,-0.023607,0.020078,-0.132112,0.212939,-0.265660,1.000650,0.118298,0.646061,-0.080823,-2.551592,1.404784,0.021129,0.013111,0.000000,0.013116,-0.098434,0.000000
4.680000,2.949175,-0.865820,-1.281573,0.227969,-0.021472,0.017454,-0.122113,0.213996,-0.259131,0.998818,0.093114,0.659494,-0.288166,-2.485711,1.281812,0.021248,0.012127,0.000000,0.010659,-0.098365,0.000000
4.690000,2.951449,-0.866024,-1.281411,0.226798,-0.019328,0.014896,-0.112141,0.214805,-0.252475,0.995453,0.068945,0.671536,-0.356703,-2.330042,1.118535,0.021343,0.011144,0.000000,0.008295,-0.098149,0.000000
4.700000,2.953711,-0.866206,-1.281275,0.225726,-0.017177,0.012405,-0.102205,0.215380,-0.245706,0.991401,0.046358,0.681930,-0.485633,-2.204922,0.967983,0.021414,0.010164,0.000000,0.006081,-0.097869,-0.000000
4.710000,2.955963,-0.866367,-1.281163,0.224754,-0.015021,0.009982,-0.092319,0.215735,-0.238841,0.985659,0.024825,0.690956,-0.626574,-2.080816,0.818232,0.021464,0.009187,0.000000,0.003964,-0.097424,0.000000
4.720000,2.958206,-0.866506,-1.281075,0.223880,-0.012863,0.007628,-0.082494,0.215882,-0.231894,0.979186,0.004933,0.698119,-0.706178,-1.917947,0.632498,0.021494,0.008215,0.000000,0.002002,-0.096910,0.000000
4.730000,2.960441,-0.866624,-1.281010,0.223103,-0.010704,0.005344,-0.072742,0.215837,-0.224882,0.970738,-0.013958,0.703986,-0.985937,-1.860774,0.541349,0.021505,0.007249,0.000000,0.000133,-0.096201,0.000000
4.740000,2.962669,-0.866721,-1.280968,0.222424,-0.008547,0.003131,-0.063086,0.215606,-0.217818,0.960179,-0.031876,0.708573,-1.090332,-1.702525,0.357512,0.021497,0.006291,0.000000,-0.001646,-0.095281,-0.000000
4.750000,2.964890,-0.866795,-1.280947,0.221841,-0.006393,0.000988,-0.053541,0.215205,-0.210717,0.948599,-0.048183,0.711290,-1.264543,-1.579186,0.203959,0.021472,0.005343,0.000000,-0.003272,-0.094260,-0.000000
4.760000,2.967106,-0.866848,-1.280948,0.221353,-0.004243,-0.001083,-0.044122,0.214645,-0.203596,0.934917,-0.063558,0.712659,-1.446890,-1.458994,0.050191,0.021432,0.004406,0.000000,-0.004811,-0.093028,0.000000
4.770000,2.969317,-0.866880,-1.280969,0.220958,-0.002100,-0.003084,-0.034847,0.213941,-0.196471,0.919878,-0.077024,0.712111,-1.587173,-1.269973,-0.141212,0.021377,0.003482,0.000000,-0.006166,-0.091658,0.000000
4.780000,2.971525,-0.866890,-1.281009,0.220656,0.000035,-0.005013,-0.025732,0.213107,-0.189359,0.902622,-0.089712,0.710226,-1.865950,-1.268827,-0.235421,0.021309,0.002573,0.000000,-0.007450,-0.090064,-0.000000
4.790000,2.973731,-0.866879,-1.281069,0.220443,0.002162,-0.006871,-0.016802,0.212149,-0.182271,0.883053,-0.101675,0.707016,-2.023122,-1.087483,-0.425984,0.021228,0.001682,0.000000,-0.008666,-0.088234,0.000000
4.800000,2.975935,-0.866847,-1.281146,0.220319,0.004278,-0.008658,-0.008075,0.211081,-0.175225,0.861926,-0.111769,0.701862,-2.228580,-0.967418,-0.586025,0.021136,0.000809,0.000000,-0.009702,-0.086244,0.000000
4.810000,2.978138,-0.866794,-1.281242,0.220281,0.006383,-0.010376,0.000428,0.209915,-0.168237,0.838414,-0.121321,0.695482,-2.440214,-0.854804,-0.743812,0.021034,-0.000043,0.000000,-0.010688,-0.084009,-0.000000
4.820000,2.980341,-0.866720,-1.281354,0.220327,0.008476,-0.012023,0.008688,0.208665,-0.161325,0.813429,-0.128056,0.686474,-2.590990,-0.577256,-1.005556,0.020923,-0.000871,0.000000,-0.011398,-0.081619,0.000000
4.830000,2.982544,-0.866624,-1.281482,0.220454,0.010556,-0.013603,0.016688,0.207353,-0.154511,0.785882,-0.134649,0.676471,-2.919831,-0.743739,-0.993901,0.020806,-0.001675,0.000000,-0.012098,-0.078964,0.000000
4.840000,2.984750,-0.866509,-1.281626,0.220660,0.012623,-0.015114,0.024397,0.205972,-0.147798,0.755702,-0.141203,0.665516,-3.082576,-0.480657,-1.250983,0.020681,-0.002450,0.000000,-0.012796,-0.076038,0.000000
4.850000,2.986958,-0.866372,-1.281784,0.220941,0.014675,-0.016559,0.031797,0.204540,-0.141210,0.723950,-0.144985,0.651889,-3.302988,-0.360935,-1.421654,0.020551,-0.003195,0.000000,-0.013222,-0.072943,-0.000000
4.860000,2.989169,-0.866215,-1.281957,0.221294,0.016713,-0.017939,0.038868,0.203074,-0.134765,0.689824,-0.147956,0.636785,-3.522100,-0.232621,-1.600008,0.020417,-0.003908,0.000000,-0.013570,-0.069600,-0.000000
4.870000,2.991384,-0.866038,-1.282143,0.221717,0.018737,-0.019255,0.045586,0.201585,-0.128481,0.653509,-0.149625,0.619873,-3.740777,-0.100619,-1.783218,0.020280,-0.004587,0.000000,-0.013790,-0.066027,-0.000000
4.880000,2.993603,-0.865840,-1.282341,0.222205,0.020745,-0.020509,0.051931,0.200086,-0.122374,0.615013,-0.149954,0.601103,-3.958201,0.035644,-1.971747,0.020142,-0.005228,0.000000,-0.013879,-0.062222,-0.000000
4.890000,2.995828,-0.865623,-1.282553,0.222754,0.022738,-0.021703,0.057880,0.198591,-0.116465,0.574352,-0.148896,0.580419,-4.173488,0.176711,-2.166061,0.020003,-0.005831,0.000000,-0.013831,-0.058188,0.000000
4.900000,2.998059,-0.865386,-1.282775,0.223361,0.024717,-0.022839,0.063411,0.197113,-0.110772,0.531548,-0.146400,0.557760,-4.386390,0.323347,-2.366708,0.019866,-0.006392,0.000000,-0.013641,-0.053926,-0.000000
4.910000,3.000296,-0.865129,-1.283009,0.224021,0.026681,-0.023919,0.068503,0.195668,-0.105316,0.486635,-0.142409,0.533062,-4.595501,0.475932,-2.574049,0.019731,-0.006909,0.000000,-0.013303,-0.049439,0.000000
4.920000,3.002539,-0.864852,-1.283254,0.224730,0.028630,-0.024946,0.073137,0.194270,-0.100118,0.439652,-0.136860,0.506255,-4.800262,0.635116,-2.788601,0.019600,-0.007380,0.000000,-0.012810,-0.044730,-0.000000
4.930000,3.004790,-0.864556,-1.283508,0.225482,0.030566,-0.025922,0.077290,0.192936,-0.095199,0.390647,-0.129683,0.477264,-4.999875,0.801464,-3.010850,0.019475,-0.007803,0.000000,-0.012155,-0.039805,-0.000000
4.940000,3.007049,-0.864241,-1.283772,0.226274,0.032489,-0.026851,0.080943,0.191682,-0.090580,0.339675,-0.120805,0.446010,-5.193449,0.975508,-3.241306,0.019358,-0.008175,0.000000,-0.011330,-0.034668,-0.000000
4.950000,3.009316,-0.863906,-1.284045,0.227099,0.034400,-0.027735,0.084077,0.190526,-0.086286,0.286798,-0.110142,0.412412,-5.380567,1.158138,-3.480167,0.019249,-0.008496,0.000000,-0.010328,-0.029327,0.000000
4.960000,3.011591,-0.863553,-1.284326,0.227953,0.036300,-0.028578,0.086673,0.189485,-0.082340,0.232088,-0.097611,0.376377,-5.560066,1.349571,-3.728232,0.019152,-0.008761,0.000000,-0.009139,-0.023789,-0.000000
4.970000,3.013875,-0.863180,-1.284616,0.228831,0.038190,-0.029383,0.088713,0.188580,-0.078767,0.175624,-0.083119,0.337815,-5.731291,1.550524,-3.985852,0.019067,-0.008971,0.000000,-0.007754,-0.018062,0.000000
4.980000,3.016168,-0.862789,-1.284914,0.229726,0.040072,-0.030155,0.090180,0.187830,-0.075593,0.117492,-0.066567,0.296627,-5.893487,1.761581,-4.253506,0.018997,-0.009122,0.000000,-0.006163,-0.012156,-0.000000
4.990000,3.018470,-0.862379,-1.285219,0.230632,0.041948,-0.030896,0.091057,0.187256,-0.072844,0.057787,-0.047852,0.252710,-6.046008,1.983335,-4.531697,0.018945,-0.009213,0.000000,-0.004357,-0.006081,0.000000
5.000000,3.020781,-0.861950,-1.285532,0.231545,0.043818,-0.031613,0.091331,0.186880,-0.070548,-0.003394,-0.026863,0.205956,-6.188450,2.216383,-4.820987,0.018911,-0.009243,0.000000,-0.002324,0.000151,0.000000
