time,x,y,z,vx,vy,vz,ax,ay,az,jx,jy,jz,sx,sy,sz,roll,pitch,yaw,p,q,r
0.000000,-3.303066,-0.354052,-1.461118,0.010964,-0.024366,-0.003128,0.034003,0.400085,0.022677,-1.158770,-2.939747,-1.331589,109.443198,23.277046,20.488172,0.040855,-0.003474,0.000000,-0.305395,0.118767,0.000000
0.010000,-3.302954,-0.354276,-1.461148,0.011264,-0.020509,-0.002965,0.027655,0.371854,0.010314,-0.133430,-2.706213,-1.147989,95.800851,23.397436,16.320629,0.037927,-0.002822,0.000000,-0.280192,0.013936,0.000000
0.020000,-3.302840,-0.354463,-1.461178,0.011549,-0.016921,-0.002916,0.030897,0.345961,-0.000413,0.760695,-2.472423,-1.003451,83.193118,23.330464,12.670787,0.035250,-0.003149,0.000000,-0.255317,-0.077169,0.000000
0.030000,-3.302723,-0.354616,-1.461207,0.011909,-0.013582,-0.002969,0.042466,0.322400,-0.009869,1.533740,-2.240183,-0.892945,71.577588,23.089670,9.509358,0.032819,-0.004324,0.000000,-0.230884,-0.155707,-0.000000
0.040000,-3.302602,-0.354736,-1.461237,0.012422,-0.010466,-0.003111,0.061200,0.301147,-0.018370,2.195413,-2.011164,-0.811733,60.911899,22.688598,6.807062,0.030630,-0.006227,0.000000,-0.207003,-0.222748,-0.000000
0.050000,-3.302474,-0.354826,-1.461269,0.013154,-0.007551,-0.003334,0.086034,0.282161,-0.026186,2.755001,-1.786901,-0.755370,51.153459,22.140709,4.534635,0.028677,-0.008746,0.000000,-0.183781,-0.279280,0.000000
0.060000,-3.302338,-0.354887,-1.461304,0.014160,-0.004815,-0.003633,0.115990,0.265388,-0.033546,3.221365,-1.568794,-0.719705,42.260011,21.459626,2.662755,0.026952,-0.011783,0.000000,-0.161319,-0.326231,0.000000
0.070000,-3.302190,-0.354922,-1.461342,0.015488,-0.002236,-0.004004,0.150178,0.250761,-0.040637,3.602943,-1.358108,-0.700878,34.189087,20.658851,1.162151,0.025448,-0.015244,0.000000,-0.139716,-0.364470,0.000000
0.080000,-3.302027,-0.354932,-1.461384,0.017175,0.000207,-0.004445,0.187793,0.238198,-0.047608,3.907748,-1.155971,-0.695322,26.898240,19.751922,0.003540,0.024155,-0.019048,0.000000,-0.119062,-0.394817,-0.000000
0.090000,-3.301845,-0.354919,-1.461431,0.019252,0.002534,-0.004956,0.228103,0.227609,-0.054576,4.143367,-0.963378,-0.699764,20.344949,18.752384,-0.842349,0.023063,-0.023119,0.000000,-0.099441,-0.418050,0.000000
0.100000,-3.301640,-0.354882,-1.461484,0.021744,0.004765,-0.005537,0.270453,0.218895,-0.061627,4.316967,-0.781188,-0.711225,14.487233,17.673698,-1.404848,0.022162,-0.027390,0.000000,-0.080926,-0.434903,-0.000000
0.110000,-3.301409,-0.354824,-1.461542,0.024666,0.006918,-0.006189,0.314258,0.211948,-0.068815,4.435288,-0.610123,-0.727014,9.282196,16.529487,-1.713193,0.021441,-0.031801,0.000000,-0.063583,-0.446074,0.000000
0.120000,-3.301145,-0.354744,-1.461608,0.028032,0.009010,-0.006914,0.358996,0.206654,-0.076173,4.504646,-0.450771,-0.744739,4.687594,15.333250,-1.796681,0.020887,-0.036297,0.000000,-0.047462,-0.452221,0.000000
0.130000,-3.300846,-0.354644,-1.461681,0.031848,0.011056,-0.007713,0.404207,0.202892,-0.083709,4.530934,-0.303586,-0.762296,0.661082,14.098518,-1.684572,0.020487,-0.040832,0.000000,-0.032604,-0.453960,0.000000
0.140000,-3.300507,-0.354523,-1.461762,0.036116,0.013072,-0.008589,0.449489,0.200541,-0.091413,4.519620,-0.168884,-0.777876,-2.839582,12.838810,-1.406109,0.020230,-0.045365,0.000000,-0.019036,-0.451872,-0.000000
0.150000,-3.300123,-0.354382,-1.461853,0.040837,0.015071,-0.009542,0.494491,0.199473,-0.099255,4.475754,-0.046848,-0.789961,-5.856497,11.567639,-0.990511,0.020102,-0.049861,0.000000,-0.006770,-0.446494,-0.000000
0.160000,-3.299689,-0.354221,-1.461953,0.046004,0.017066,-0.010574,0.538911,0.199561,-0.107196,4.403928,0.062478,-0.797336,-8.435025,10.298744,-0.467858,0.020090,-0.054288,0.000000,0.004195,-0.438318,0.000000
0.170000,-3.299201,-0.354041,-1.462065,0.051612,0.019066,-0.011686,0.582491,0.200680,-0.115183,4.308370,0.159180,-0.799061,-10.613833,9.045395,0.133616,0.020182,-0.058621,0.000000,0.013873,-0.427799,-0.000000
0.180000,-3.298655,-0.353840,-1.462187,0.057651,0.021082,-0.012878,0.625012,0.202704,-0.123156,4.192838,0.243483,-0.794500,-12.436796,7.821224,0.784181,0.020364,-0.062839,0.000000,0.022293,-0.415342,0.000000
0.190000,-3.298047,-0.353619,-1.462323,0.064108,0.023123,-0.014149,0.666292,0.205510,-0.131051,4.060678,0.315747,-0.783311,-13.946416,6.639767,1.454453,0.020624,-0.066924,0.000000,0.029498,-0.401306,-0.000000
0.200000,-3.297372,-0.353378,-1.462471,0.070972,0.025195,-0.015498,0.706180,0.208980,-0.138800,3.914820,0.376466,-0.765437,-15.184404,5.514556,2.115786,0.020950,-0.070863,0.000000,0.035543,-0.386006,-0.000000
0.210000,-3.296626,-0.353115,-1.462633,0.078226,0.027304,-0.016924,0.744441,0.213087,-0.146472,3.732539,0.445610,-0.771768,-16.692543,4.841425,2.132342,0.021339,-0.074631,0.000000,0.042372,-0.366954,-0.000000
0.220000,-3.295806,-0.352831,-1.462809,0.085855,0.029458,-0.018427,0.781153,0.217588,-0.153787,3.623455,0.441464,-0.672139,-9.499405,-2.279022,12.429149,0.021768,-0.078239,0.000000,0.042075,-0.356100,0.000000
0.230000,-3.294908,-0.352526,-1.463002,0.093846,0.031656,-0.019997,0.816665,0.222054,-0.160166,3.450619,0.471227,-0.635815,-25.176163,8.347827,-5.339702,0.022194,-0.081728,0.000000,0.045053,-0.338516,-0.000000
0.240000,-3.293928,-0.352198,-1.463210,0.102181,0.033901,-0.021631,0.849904,0.227170,-0.166783,3.209662,0.540229,-0.670717,-18.538880,2.049016,3.759800,0.022684,-0.084983,0.000000,0.051795,-0.313629,0.000000
0.250000,-3.292863,-0.351848,-1.463434,0.110837,0.036200,-0.023331,0.881182,0.232573,-0.173156,3.042548,0.541372,-0.606700,-19.295893,1.590283,3.645502,0.023202,-0.088039,0.000000,0.051972,-0.297009,0.000000
0.260000,-3.291710,-0.351474,-1.463676,0.119798,0.038553,-0.025093,0.910604,0.238050,-0.179042,2.840292,0.552814,-0.570250,-19.782460,0.935441,3.815319,0.023728,-0.090909,0.000000,0.053130,-0.276758,0.000000
0.270000,-3.290466,-0.351076,-1.463936,0.129043,0.040961,-0.026911,0.938084,0.243627,-0.184541,2.659744,0.562334,-0.528889,-17.618221,0.751935,4.278551,0.024265,-0.093585,0.000000,0.054112,-0.258796,-0.000000
0.280000,-3.289128,-0.350654,-1.464215,0.138554,0.043426,-0.028782,0.963728,0.249267,-0.189624,2.460779,0.563293,-0.488417,-22.198016,-0.561250,3.804244,0.024808,-0.096080,0.000000,0.054254,-0.239085,0.000000
0.290000,-3.287694,-0.350208,-1.464512,0.148310,0.045947,-0.030702,0.987225,0.254863,-0.194316,2.242641,0.555736,-0.449445,-20.090064,-0.719487,4.157911,0.025347,-0.098361,0.000000,0.053563,-0.217545,-0.000000
0.300000,-3.286161,-0.349735,-1.464829,0.158291,0.048523,-0.032667,1.008682,0.260382,-0.198597,2.048041,0.547090,-0.406854,-20.134983,-1.229441,4.181244,0.025879,-0.100442,0.000000,0.052781,-0.198449,0.000000
0.310000,-3.284528,-0.349237,-1.465166,0.168477,0.051154,-0.034673,1.028137,0.265776,-0.202460,1.842648,0.530822,-0.365845,-20.106396,-1.730407,4.165376,0.026400,-0.102327,0.000000,0.051254,-0.178340,0.000000
0.320000,-3.282791,-0.348712,-1.465523,0.178848,0.053838,-0.036715,1.045604,0.271005,-0.205903,1.653733,0.515225,-0.322250,-18.464087,-1.665897,4.400547,0.026905,-0.104018,0.000000,0.049811,-0.159950,-0.000000
0.330000,-3.280950,-0.348160,-1.465900,0.189383,0.056573,-0.038789,1.061179,0.276052,-0.208914,1.456807,0.491682,-0.281039,-20.935589,-3.047928,3.832101,0.027393,-0.105524,0.000000,0.047589,-0.140802,-0.000000
0.340000,-3.279003,-0.347580,-1.466298,0.200064,0.059358,-0.040892,1.074706,0.280810,-0.211535,1.251385,0.460012,-0.242720,-19.332843,-2.999541,3.975981,0.027854,-0.106831,0.000000,0.044570,-0.120835,-0.000000
0.350000,-3.276948,-0.346973,-1.466718,0.210871,0.062189,-0.043019,1.086279,0.285261,-0.213761,1.063472,0.429343,-0.202880,-19.045506,-3.414012,3.839080,0.028285,-0.107949,0.000000,0.041662,-0.102655,-0.000000
0.360000,-3.274785,-0.346337,-1.467159,0.221783,0.065062,-0.045166,1.095956,0.289372,-0.215603,0.872067,0.392048,-0.165775,-18.716523,-3.819151,3.675056,0.028684,-0.108883,0.000000,0.038103,-0.084136,0.000000
0.370000,-3.272512,-0.345671,-1.467621,0.232784,0.067975,-0.047329,1.103774,0.293106,-0.217075,0.693987,0.355062,-0.128564,-17.389032,-3.792299,3.668928,0.029048,-0.109638,0.000000,0.034582,-0.066960,-0.000000
0.380000,-3.270129,-0.344977,-1.468106,0.243853,0.070923,-0.049506,1.109825,0.296450,-0.218185,0.513990,0.311701,-0.094449,-18.619987,-4.884469,3.147820,0.029374,-0.110222,0.000000,0.030430,-0.049583,-0.000000
0.390000,-3.267635,-0.344253,-1.468611,0.254974,0.073902,-0.051692,1.114042,0.299317,-0.218976,0.331740,0.261795,-0.063765,-17.323837,-4.876082,3.081209,0.029654,-0.110629,0.000000,0.025628,-0.031963,-0.000000
0.400000,-3.265030,-0.343499,-1.469139,0.266128,0.076908,-0.053884,1.116515,0.301691,-0.219461,0.163360,0.212361,-0.033696,-16.847447,-5.226676,2.835466,0.029887,-0.110867,0.000000,0.020872,-0.015712,-0.000000
0.410000,-3.262313,-0.342715,-1.469689,0.277299,0.079934,-0.056080,1.117308,0.303544,-0.219661,-0.004161,0.157626,-0.006742,-16.347104,-5.568914,2.578296,0.030070,-0.110943,0.000000,0.015587,0.000484,-0.000000
0.420000,-3.259484,-0.341900,-1.470261,0.288469,0.082977,-0.058277,1.116474,0.304845,-0.219602,-0.160694,0.102396,0.018060,-15.252301,-5.620496,2.355717,0.030199,-0.110861,0.000000,0.010244,0.015621,0.000000
0.430000,-3.256543,-0.341055,-1.470855,0.299623,0.086029,-0.060472,1.114098,0.305575,-0.219310,-0.315364,0.042199,0.039823,-15.687741,-6.421802,1.994704,0.030273,-0.110631,0.000000,0.004401,0.030611,-0.000000
0.440000,-3.253491,-0.340179,-1.471470,0.310746,0.089086,-0.062662,1.110170,0.305671,-0.218817,-0.468392,-0.023066,0.058423,-14.615839,-6.482852,1.748768,0.030285,-0.110249,0.000000,-0.001955,0.045481,-0.000000
0.450000,-3.250328,-0.339273,-1.472108,0.321822,0.092140,-0.064847,1.104773,0.305115,-0.218149,-0.610166,-0.088671,0.074572,-14.035490,-6.782650,1.455504,0.030234,-0.109725,0.000000,-0.008359,0.059279,-0.000000
0.460000,-3.247055,-0.338337,-1.472767,0.332836,0.095186,-0.067025,1.097975,0.303882,-0.217335,-0.748411,-0.158390,0.087863,-13.441710,-7.072697,1.164618,0.030116,-0.109064,0.000000,-0.015184,0.072772,0.000000
0.470000,-3.243672,-0.337370,-1.473448,0.343777,0.098216,-0.069194,1.089838,0.301945,-0.216405,-0.877400,-0.229293,0.097515,-12.518934,-7.190328,0.802379,0.029930,-0.108272,0.000000,-0.022146,0.085404,0.000000
0.480000,-3.240180,-0.336372,-1.474151,0.354629,0.101222,-0.071353,1.080440,0.299283,-0.215392,-1.002216,-0.303930,0.104680,-12.447926,-7.737954,0.632129,0.029672,-0.107356,0.000000,-0.029493,0.097665,0.000000
0.490000,-3.236580,-0.335345,-1.474875,0.365381,0.104199,-0.073501,1.069806,0.295853,-0.214319,-1.122999,-0.382313,0.109430,-11.541206,-7.851926,0.281781,0.029338,-0.106319,0.000000,-0.037227,0.109567,-0.000000
0.500000,-3.232873,-0.334289,-1.475621,0.376021,0.107137,-0.075639,1.058014,0.291635,-0.213216,-1.234426,-0.461653,0.110648,-10.909402,-8.099037,-0.000603,0.028927,-0.105167,0.000000,-0.045078,0.120597,0.000000
0.510000,-3.229060,-0.333203,-1.476388,0.386538,0.110029,-0.077766,1.045133,0.286609,-0.212112,-1.340752,-0.544028,0.109696,-10.271245,-8.333875,-0.269003,0.028436,-0.103907,0.000000,-0.053246,0.131158,-0.000000
0.520000,-3.225142,-0.332088,-1.477176,0.396921,0.112866,-0.079881,1.031227,0.280750,-0.211038,-1.439067,-0.627923,0.104557,-9.472378,-8.482011,-0.678760,0.027862,-0.102545,0.000000,-0.061588,0.140983,0.000000
0.530000,-3.221122,-0.330946,-1.477986,0.407159,0.115641,-0.081987,1.016370,0.274041,-0.210026,-1.531898,-0.714444,0.097799,-9.096136,-8.821381,-0.668558,0.027203,-0.101088,0.000000,-0.070205,0.150291,0.000000
0.540000,-3.217000,-0.329776,-1.478816,0.417245,0.118344,-0.084082,1.000607,0.266453,-0.209086,-1.619339,-0.803521,0.089647,-8.309699,-8.952668,-1.038454,0.026457,-0.099540,0.000000,-0.079089,0.159089,-0.000000
0.550000,-3.212777,-0.328579,-1.479667,0.427169,0.120967,-0.086169,0.984011,0.257968,-0.208247,-1.698789,-0.893786,0.077752,-7.662066,-9.137297,-1.259741,0.025621,-0.097908,0.000000,-0.088111,0.167139,0.000000
0.560000,-3.208457,-0.327357,-1.480539,0.436923,0.123501,-0.088247,0.966650,0.248570,-0.207534,-1.772370,-0.986039,0.064658,-7.014274,-9.306280,-1.458821,0.024694,-0.096198,0.000000,-0.097341,0.174624,-0.000000
0.570000,-3.204040,-0.326109,-1.481432,0.446499,0.125935,-0.090320,0.948588,0.238242,-0.206968,-1.838710,-1.079822,0.047689,-6.292919,-9.452378,-1.832346,0.023673,-0.094417,0.000000,-0.106740,0.181430,0.000000
0.580000,-3.199527,-0.324838,-1.482346,0.455892,0.128262,-0.092387,0.929895,0.226968,-0.206581,-1.899056,-1.175132,0.030163,-5.778148,-9.607347,-1.666645,0.022558,-0.092570,0.000000,-0.116296,0.187646,0.000000
0.590000,-3.194922,-0.323544,-1.483280,0.465095,0.130472,-0.094452,0.910627,0.214735,-0.206365,-1.953495,-1.271827,0.012409,-5.070753,-9.724471,-1.981320,0.021347,-0.090665,0.000000,-0.125994,0.193276,0.000000
0.600000,-3.190226,-0.322229,-1.484235,0.474103,0.132554,-0.096515,0.890850,0.201528,-0.206345,-2.000820,-1.369608,-0.008541,-4.434328,-9.833611,-2.104806,0.020038,-0.088706,0.000000,-0.135809,0.198223,0.000000
0.610000,-3.185441,-0.320894,-1.485210,0.482911,0.134499,-0.098580,0.870630,0.187339,-0.206535,-2.042149,-1.468331,-0.029542,-3.805357,-9.924439,-2.200285,0.018631,-0.086701,0.000000,-0.145716,0.202568,-0.000000
0.620000,-3.180569,-0.319540,-1.486206,0.491514,0.136297,-0.100647,0.850029,0.172158,-0.206947,-2.076747,-1.568190,-0.053455,-3.137905,-10.028929,-2.474190,0.017123,-0.084656,0.000000,-0.155739,0.206260,-0.000000
0.630000,-3.175611,-0.318168,-1.487223,0.499910,0.137939,-0.102719,0.829114,0.155974,-0.207601,-2.105406,-1.668522,-0.076761,-2.595865,-10.034112,-2.179841,0.015516,-0.082578,0.000000,-0.165802,0.209345,0.000000
0.640000,-3.170571,-0.316781,-1.488261,0.508096,0.139413,-0.104800,0.807941,0.138786,-0.208479,-2.128233,-1.769132,-0.099079,-1.948131,-10.100804,-2.384938,0.013807,-0.080471,0.000000,-0.175883,0.211830,-0.000000
0.650000,-3.165450,-0.315381,-1.489319,0.516068,0.140711,-0.106890,0.786572,0.120589,-0.209592,-2.144595,-1.870344,-0.123483,-1.348266,-10.122640,-2.387058,0.011998,-0.078343,0.000000,-0.186016,0.213675,0.000000
0.660000,-3.160251,-0.313968,-1.490399,0.523827,0.141822,-0.108992,0.765068,0.101380,-0.210943,-2.155236,-1.971473,-0.146738,-0.758902,-10.124511,-2.359865,0.010087,-0.076199,0.000000,-0.196127,0.214927,-0.000000
0.670000,-3.154974,-0.312545,-1.491499,0.531370,0.142735,-0.111109,0.743488,0.081158,-0.212533,-2.159601,-2.072997,-0.171518,-0.137852,-10.153457,-2.494822,0.008075,-0.074046,0.000000,-0.206262,0.215551,0.000000
0.680000,-3.149624,-0.311114,-1.492621,0.538696,0.143441,-0.113244,0.721894,0.059922,-0.214367,-2.158488,-2.173981,-0.194508,0.357802,-10.039455,-2.095901,0.005962,-0.071890,0.000000,-0.216325,0.215600,0.000000
0.690000,-3.144201,-0.309677,-1.493764,0.545808,0.143930,-0.115397,0.700336,0.037681,-0.216415,-2.152043,-2.274201,-0.215318,0.951246,-10.025359,-2.160042,0.003749,-0.069736,0.000000,-0.226291,0.215086,0.000000
0.700000,-3.138708,-0.308236,-1.494929,0.552704,0.144192,-0.117573,0.678873,0.014438,-0.218677,-2.139689,-2.374220,-0.236791,1.495044,-9.951244,-2.032319,0.001436,-0.067590,0.000000,-0.236215,0.213975,-0.000000
0.710000,-3.133148,-0.306794,-1.496116,0.559386,0.144216,-0.119772,0.657559,-0.009799,-0.221142,-2.122231,-2.473158,-0.255910,2.023594,-9.856304,-1.875662,-0.000975,-0.065458,0.000000,-0.246008,0.212324,-0.000000
0.720000,-3.127521,-0.305353,-1.497325,0.565855,0.143992,-0.121996,0.636448,-0.035023,-0.223797,-2.098993,-2.571494,-0.275034,2.593125,-9.784971,-1.859155,-0.003484,-0.063346,0.000000,-0.255717,0.210084,-0.000000
0.730000,-3.121831,-0.303915,-1.498556,0.572115,0.143512,-0.124248,0.615595,-0.061224,-0.226632,-2.071014,-2.668316,-0.291210,2.999394,-9.575322,-1.369281,-0.006089,-0.061258,0.000000,-0.265250,0.207341,-0.000000
0.740000,-3.116080,-0.302483,-1.499810,0.578168,0.142765,-0.126529,0.595043,-0.088384,-0.229609,-2.038480,-2.763390,-0.304073,3.533593,-9.458910,-1.285843,-0.008788,-0.059200,0.000000,-0.274586,0.204114,0.000000
0.750000,-3.110269,-0.301060,-1.501086,0.584017,0.141741,-0.128841,0.574843,-0.116488,-0.232713,-2.000636,-2.857233,-0.316113,4.003685,-9.283441,-1.031806,-0.011580,-0.057177,0.000000,-0.283773,0.200345,-0.000000
0.760000,-3.104400,-0.299649,-1.502386,0.589666,0.140432,-0.131184,0.555044,-0.145521,-0.235919,-1.958528,-2.948973,-0.324650,4.455064,-9.086067,-0.750984,-0.014463,-0.055195,0.000000,-0.292730,0.196124,-0.000000
0.770000,-3.098476,-0.298253,-1.503710,0.595120,0.138828,-0.133559,0.535691,-0.175463,-0.239202,-1.911223,-3.039115,-0.331786,4.964499,-8.914637,-0.595510,-0.017434,-0.053256,0.000000,-0.301505,0.191374,0.000000
0.780000,-3.092498,-0.296874,-1.505058,0.600382,0.136920,-0.135968,0.516832,-0.206295,-0.242541,-1.860106,-3.126690,-0.334874,5.254893,-8.596101,-0.016112,-0.020492,-0.051368,0.000000,-0.310008,0.186220,0.000000
0.790000,-3.086469,-0.295515,-1.506430,0.605458,0.134699,-0.138410,0.498500,-0.237987,-0.245885,-1.805400,-3.211457,-0.333592,5.722425,-8.378281,0.198316,-0.023633,-0.049532,0.000000,-0.318219,0.180687,0.000000
0.800000,-3.080390,-0.294181,-1.507826,0.610354,0.132157,-0.140886,0.480740,-0.270517,-0.249207,-1.746051,-3.293979,-0.330180,6.105966,-8.098374,0.564681,-0.026855,-0.047755,0.000000,-0.326193,0.174684,0.000000
0.810000,-3.074262,-0.292873,-1.509247,0.615075,0.129286,-0.143394,0.463590,-0.303856,-0.252473,-1.683334,-3.373440,-0.322301,6.470358,-7.798358,0.952333,-0.030156,-0.046039,0.000000,-0.333858,0.168330,-0.000000
0.820000,-3.068089,-0.291596,-1.510694,0.619628,0.126077,-0.145935,0.447088,-0.337976,-0.255645,-1.616373,-3.449952,-0.311642,6.883917,-7.492807,1.242548,-0.033532,-0.044388,0.000000,-0.341226,0.161549,-0.000000
0.830000,-3.061870,-0.290353,-1.512166,0.624019,0.122524,-0.148507,0.431272,-0.372844,-0.258689,-1.546449,-3.523061,-0.296131,7.096768,-7.125230,1.864233,-0.036979,-0.042807,0.000000,-0.348262,0.154460,-0.000000
0.840000,-3.055609,-0.289147,-1.513664,0.628256,0.118618,-0.151108,0.416168,-0.408425,-0.261550,-1.473795,-3.592547,-0.275519,7.466212,-6.776582,2.200135,-0.040496,-0.041298,0.000000,-0.354954,0.147091,0.000000
0.850000,-3.049306,-0.287982,-1.515189,0.632345,0.114353,-0.153737,0.401809,-0.444683,-0.264189,-1.397488,-3.658456,-0.251564,7.756767,-6.393705,2.653741,-0.044077,-0.039864,0.000000,-0.361304,0.139358,-0.000000
0.860000,-3.042963,-0.286861,-1.516739,0.636294,0.109722,-0.156391,0.388226,-0.481581,-0.266563,-1.318714,-3.720381,-0.222357,8.029138,-5.990358,3.124746,-0.047720,-0.038509,0.000000,-0.367288,0.131375,-0.000000
0.870000,-3.036580,-0.285789,-1.518316,0.640112,0.104720,-0.159067,0.375447,-0.519077,-0.268625,-1.236609,-3.778217,-0.189616,8.352139,-5.571011,3.487709,-0.051422,-0.037235,0.000000,-0.372895,0.123063,0.000000
0.880000,-3.030161,-0.284768,-1.519921,0.643806,0.099339,-0.161762,0.363500,-0.557130,-0.270336,-1.152503,-3.831681,-0.151258,8.464751,-5.118312,4.187503,-0.055177,-0.036045,0.000000,-0.378114,0.114549,-0.000000
0.890000,-3.023705,-0.283803,-1.521552,0.647385,0.093575,-0.164472,0.352402,-0.595695,-0.271631,-1.066634,-3.880564,-0.107095,8.743150,-4.657191,4.583657,-0.058983,-0.034941,0.000000,-0.382936,0.105857,-0.000000
0.900000,-3.017213,-0.282898,-1.523210,0.650857,0.087424,-0.167193,0.342177,-0.634726,-0.272466,-0.978023,-3.924735,-0.059025,8.939729,-4.171253,5.094270,-0.062834,-0.033925,0.000000,-0.387345,0.096898,-0.000000
0.910000,-3.010688,-0.282056,-1.524896,0.654231,0.080879,-0.169920,0.332847,-0.674174,-0.272792,-0.887829,-3.963963,-0.005277,9.118054,-3.665501,5.612172,-0.066728,-0.032999,0.000000,-0.391339,0.087780,-0.000000
0.920000,-3.004129,-0.281282,-1.526608,0.657517,0.073939,-0.172647,0.324428,-0.713988,-0.272558,-0.795520,-3.997927,0.052827,9.319353,-3.129130,6.052116,-0.070660,-0.032166,0.000000,-0.394886,0.078454,-0.000000
0.930000,-2.997538,-0.280578,-1.528349,0.660723,0.066599,-0.175369,0.316940,-0.754115,-0.271716,-0.701952,-4.026586,0.116676,9.390524,-2.599408,6.719309,-0.074624,-0.031427,0.000000,-0.398001,0.069001,0.000000
0.940000,-2.990915,-0.279951,-1.530116,0.663859,0.058856,-0.178079,0.310392,-0.794501,-0.270204,-0.607335,-4.049741,0.186350,9.551659,-2.022952,7.172184,-0.078618,-0.030783,0.000000,-0.400676,0.059440,0.000000
0.950000,-2.984261,-0.279403,-1.531910,0.666934,0.050708,-0.180771,0.304799,-0.835090,-0.267975,-0.511177,-4.067020,0.260491,9.657045,-1.434738,7.698499,-0.082636,-0.030235,0.000000,-0.402873,0.049725,-0.000000
0.960000,-2.977576,-0.278938,-1.533731,0.669958,0.042153,-0.183436,0.300170,-0.875821,-0.264975,-0.414467,-4.078196,0.340374,9.740390,-0.822789,8.225320,-0.086674,-0.029785,0.000000,-0.404590,0.039946,-0.000000
0.970000,-2.970862,-0.278561,-1.535579,0.672941,0.033191,-0.186068,0.296517,-0.916635,-0.261154,-0.315890,-4.083644,0.424505,9.915469,-0.238494,8.650641,-0.090727,-0.029434,0.000000,-0.405860,0.029975,-0.000000
0.980000,-2.964118,-0.278276,-1.537452,0.675892,0.023821,-0.188656,0.293852,-0.957471,-0.256465,-0.217402,-4.082373,0.514427,9.777716,0.496895,9.334084,-0.094790,-0.029183,0.000000,-0.406608,0.019998,-0.000000
0.990000,-2.957344,-0.278086,-1.539352,0.678821,0.014042,-0.191194,0.292167,-0.998259,-0.250846,-0.119246,-4.074145,0.610138,9.907704,1.126981,9.755601,-0.098857,-0.029032,0.000000,-0.406822,0.010034,-0.000000
1.000000,-2.950541,-0.277996,-1.541276,0.681738,0.003856,-0.193670,0.291472,-1.038933,-0.244249,-0.019780,-4.059552,0.709940,9.925398,1.819972,10.253604,-0.102924,-0.028982,0.000000,-0.406551,-0.000079,0.000000
1.010000,-2.943709,-0.278010,-1.543225,0.684654,-0.006736,-0.196075,0.291767,-1.079422,-0.236625,0.078667,-4.036801,0.815773,9.914291,2.551304,10.753451,-0.106986,-0.029033,0.000000,-0.405647,-0.010121,-0.000000
1.020000,-2.936848,-0.278132,-1.545197,0.687577,-0.017732,-0.198399,0.293057,-1.119659,-0.227930,0.179865,-4.010139,0.923511,10.174744,2.961046,10.944106,-0.111037,-0.029187,0.000000,-0.404491,-0.020460,-0.000000
1.030000,-2.929958,-0.278366,-1.547192,0.690518,-0.029128,-0.200630,0.295356,-1.159591,-0.218132,0.279005,-3.973809,1.037804,9.646531,4.313247,11.916147,-0.115073,-0.029444,0.000000,-0.402573,-0.030639,-0.000000
1.040000,-2.923038,-0.278716,-1.549209,0.693487,-0.040922,-0.202758,0.298628,-1.199101,-0.207151,0.375756,-3.927393,1.158676,9.851654,4.794378,12.100370,-0.119085,-0.029803,0.000000,-0.399862,-0.040633,-0.000000
1.050000,-2.916088,-0.279186,-1.551247,0.696494,-0.053109,-0.204769,0.302882,-1.238126,-0.194956,0.474727,-3.876354,1.281044,9.792235,5.593783,12.522775,-0.123070,-0.030264,0.000000,-0.396840,-0.050891,0.000000
1.060000,-2.909108,-0.279780,-1.553304,0.699548,-0.065683,-0.206653,0.308124,-1.276596,-0.181518,0.573894,-3.816219,1.407212,9.763711,6.400254,12.889124,-0.127020,-0.030829,0.000000,-0.393097,-0.061225,0.000000
1.070000,-2.902097,-0.280501,-1.555380,0.702660,-0.078638,-0.208395,0.314336,-1.314427,-0.166786,0.667434,-3.748630,1.540414,9.210356,7.153863,13.569003,-0.130930,-0.031496,0.000000,-0.388841,-0.071078,0.000000
1.080000,-2.895054,-0.281354,-1.557472,0.705838,-0.091969,-0.209984,0.321484,-1.351540,-0.150707,0.763691,-3.672381,1.674768,10.048043,8.098825,13.291060,-0.134794,-0.032264,0.000000,-0.383878,-0.081268,-0.000000
1.090000,-2.887980,-0.282341,-1.559579,0.709093,-0.105667,-0.211405,0.329622,-1.387845,-0.133290,0.862949,-3.587312,1.809716,9.531677,8.882183,13.872057,-0.138605,-0.033138,0.000000,-0.378180,-0.091829,0.000000
1.100000,-2.880872,-0.283468,-1.561699,0.712434,-0.119723,-0.212645,0.338719,-1.423260,-0.114490,0.956587,-3.494413,1.950577,9.463905,9.733568,14.115827,-0.142356,-0.034116,0.000000,-0.371921,-0.101933,0.000000
1.110000,-2.873731,-0.284737,-1.563831,0.715870,-0.134129,-0.213690,0.348747,-1.457704,-0.094273,1.048402,-3.392816,2.093287,9.322465,10.590498,14.343711,-0.146041,-0.035197,0.000000,-0.364954,-0.111951,0.000000
1.120000,-2.866554,-0.286152,-1.565972,0.719412,-0.148873,-0.214526,0.359717,-1.491088,-0.072623,1.146919,-3.282550,2.236624,9.967444,11.460478,14.391193,-0.149653,-0.036383,0.000000,-0.357255,-0.122740,-0.000000
1.130000,-2.859342,-0.287716,-1.568121,0.723068,-0.163946,-0.215138,0.371661,-1.523326,-0.049531,1.239072,-3.163656,2.382533,8.449289,12.319027,14.786071,-0.153184,-0.037678,0.000000,-0.348855,-0.133014,0.000000
1.140000,-2.852093,-0.289432,-1.570274,0.726848,-0.179336,-0.215511,0.384472,-1.554332,-0.024964,1.324233,-3.036089,2.530707,8.998697,13.198117,14.766809,-0.156627,-0.039072,0.000000,-0.339739,-0.142715,-0.000000
1.150000,-2.844805,-0.291303,-1.572430,0.730760,-0.195029,-0.215632,0.398173,-1.584018,0.001080,1.415495,-2.899710,2.678354,8.839515,14.074731,14.829693,-0.159976,-0.040571,0.000000,-0.329831,-0.153154,-0.000000
1.160000,-2.837477,-0.293333,-1.574586,0.734814,-0.211012,-0.215485,0.412767,-1.612292,0.028609,1.503060,-2.753377,2.827491,8.704097,14.976872,14.855803,-0.163221,-0.042174,0.000000,-0.319043,-0.163368,0.000000
1.170000,-2.830108,-0.295525,-1.576739,0.739019,-0.227270,-0.215055,0.428232,-1.639073,0.057619,1.589863,-2.602154,2.974074,8.627813,15.476123,14.582067,-0.166355,-0.043882,0.000000,-0.307795,-0.173644,0.000000
1.180000,-2.822696,-0.297880,-1.578886,0.743382,-0.243788,-0.214328,0.444558,-1.664295,0.088095,1.675015,-2.439479,3.121683,8.402632,17.064783,14.934820,-0.169373,-0.045696,0.000000,-0.295475,-0.183916,0.000000
1.190000,-2.815240,-0.300401,-1.581025,0.747913,-0.260550,-0.213288,0.461727,-1.687822,0.120056,1.758533,-2.265100,3.269959,8.331885,17.599153,14.579712,-0.172261,-0.047614,0.000000,-0.282034,-0.194195,-0.000000
1.200000,-2.807737,-0.303091,-1.583151,0.752619,-0.277538,-0.211922,0.479728,-1.709584,0.153478,1.841431,-2.085731,3.414195,8.219888,18.483280,14.388113,-0.175012,-0.049638,0.000000,-0.268038,-0.204572,-0.000000
1.210000,-2.800187,-0.305953,-1.585262,0.757510,-0.294735,-0.210214,0.498565,-1.729495,0.188327,1.926268,-1.894735,3.554981,8.183909,19.380356,14.090762,-0.177617,-0.051771,0.000000,-0.252803,-0.215317,0.000000
1.220000,-2.792586,-0.308987,-1.587354,0.762593,-0.312122,-0.208150,0.518206,-1.747476,0.224594,1.999961,-1.701240,3.698868,7.103732,19.639637,14.352765,-0.180068,-0.054009,0.000000,-0.237352,-0.225139,-0.000000
1.230000,-2.784934,-0.312196,-1.589424,0.767877,-0.329678,-0.205717,0.538589,-1.763475,0.262277,2.079872,-1.495209,3.835035,8.897344,21.573354,12.859706,-0.182359,-0.056350,0.000000,-0.220436,-0.235760,-0.000000
1.240000,-2.777228,-0.315581,-1.591467,0.773368,-0.347384,-0.202901,0.559831,-1.777335,0.301263,2.166867,-1.276394,3.962382,7.950742,21.858853,12.924860,-0.184472,-0.058808,0.000000,-0.201962,-0.247276,-0.000000
1.250000,-2.769466,-0.319144,-1.593480,0.779076,-0.365218,-0.199688,0.581882,-1.789002,0.341533,2.243607,-1.055345,4.090540,7.949821,22.671662,12.370115,-0.186398,-0.061378,0.000000,-0.183165,-0.257967,-0.000000
1.260000,-2.761646,-0.322885,-1.595459,0.785008,-0.383157,-0.196066,0.604719,-1.798407,0.383040,2.323824,-0.824470,4.209805,7.938776,23.439083,11.739022,-0.188130,-0.064060,0.000000,-0.163042,-0.269192,0.000000
1.270000,-2.753765,-0.326807,-1.597400,0.791173,-0.401178,-0.192023,0.628346,-1.805471,0.425728,2.400968,-0.587223,4.327554,7.642174,24.060946,11.540022,-0.189656,-0.066858,0.000000,-0.142056,-0.280329,-0.000000
1.280000,-2.745822,-0.330909,-1.599298,0.797578,-0.419258,-0.187547,0.652746,-1.810125,0.469555,2.479861,-0.342186,4.434936,8.141933,24.941315,9.917117,-0.190967,-0.069770,0.000000,-0.119843,-0.291824,0.000000
1.290000,-2.737813,-0.335192,-1.601150,0.804230,-0.437372,-0.182629,0.677951,-1.812289,0.514387,2.560754,-0.089700,4.530917,7.884101,25.490417,9.529680,-0.192049,-0.072803,0.000000,-0.096371,-0.303695,-0.000000
1.300000,-2.729736,-0.339657,-1.602950,0.811139,-0.455495,-0.177257,0.703949,-1.811903,0.560165,2.638851,0.167949,4.623084,7.887198,26.088255,8.631444,-0.192892,-0.075958,0.000000,-0.071992,-0.315500,0.000000
1.310000,-2.721589,-0.344302,-1.604693,0.818312,-0.473602,-0.171422,0.730744,-1.808914,0.606804,2.720570,0.430556,4.702988,7.937008,26.608614,7.649069,-0.193485,-0.079235,0.000000,-0.046507,-0.327847,-0.000000
1.320000,-2.713369,-0.349129,-1.606376,0.825757,-0.491665,-0.165118,0.758320,-1.803261,0.654216,2.792802,0.701629,4.778708,7.011984,27.417015,7.182791,-0.193817,-0.082635,0.000000,-0.019693,-0.339411,0.000000
1.330000,-2.705073,-0.354135,-1.607994,0.833481,-0.509658,-0.158336,0.786625,-1.794876,0.702329,2.871356,0.974933,4.840102,8.712986,27.227597,5.076157,-0.193876,-0.086156,0.000000,0.008074,-0.351777,-0.000000
1.340000,-2.696698,-0.359321,-1.609542,0.841492,-0.527553,-0.151070,0.815774,-1.783759,0.750965,2.956830,1.249591,4.886126,7.870859,27.873967,4.422987,-0.193653,-0.089809,0.000000,0.036762,-0.364997,-0.000000
1.350000,-2.688242,-0.364686,-1.611014,0.849799,-0.545324,-0.143315,0.845722,-1.769859,0.800035,3.033034,1.530650,4.925780,7.873622,28.145900,3.194407,-0.193136,-0.093591,0.000000,0.066727,-0.377409,0.000000
1.360000,-2.679701,-0.370227,-1.612406,0.858409,-0.562941,-0.135068,0.876443,-1.753147,0.849420,3.111016,1.811931,4.948639,7.811954,28.332556,1.872448,-0.192315,-0.097501,0.000000,0.097581,-0.390079,0.000000
1.370000,-2.671073,-0.375944,-1.613714,0.867330,-0.580377,-0.126326,0.907947,-1.733597,0.899004,3.190044,2.099210,4.967689,7.898523,28.883554,1.439924,-0.191180,-0.101540,0.000000,0.129703,-0.403050,-0.000000
1.380000,-2.662354,-0.381834,-1.614931,0.876571,-0.597603,-0.117087,0.940236,-1.711171,0.948704,3.266989,2.384579,4.967005,7.482325,28.170221,-1.599848,-0.189719,-0.105710,0.000000,0.162592,-0.415793,0.000000
1.390000,-2.653540,-0.387895,-1.616054,0.886138,-0.614591,-0.107352,0.973278,-1.685917,0.998271,3.341406,2.666950,4.945439,7.486342,28.520274,-2.226647,-0.187926,-0.110007,0.000000,0.196161,-0.428198,-0.000000
1.400000,-2.644630,-0.394125,-1.617076,0.896039,-0.631312,-0.097123,1.007066,-1.657817,1.047602,3.415826,2.952768,4.918151,7.299008,28.401068,-3.729943,-0.185792,-0.114428,0.000000,0.230813,-0.440696,-0.000000
1.410000,-2.635618,-0.400521,-1.617994,0.906281,-0.647738,-0.086401,1.041569,-1.626877,1.096559,3.484037,3.234700,4.870373,7.002563,28.190009,-5.295529,-0.183308,-0.118971,0.000000,0.266036,-0.452378,-0.000000
1.420000,-2.626503,-0.407079,-1.618803,0.916873,-0.663840,-0.075193,1.076790,-1.593113,1.145001,3.561868,3.518301,4.817072,7.909987,28.304021,-5.888001,-0.180468,-0.123635,0.000000,0.302169,-0.465167,0.000000
1.430000,-2.617280,-0.413796,-1.619497,0.927820,-0.679591,-0.063503,1.112765,-1.556532,1.192823,3.628518,3.796044,4.741640,5.392732,27.223737,-9.217449,-0.177264,-0.128423,0.000000,0.338648,-0.476479,-0.000000
1.440000,-2.607945,-0.420669,-1.620071,0.939130,-0.694962,-0.051340,1.149314,-1.517218,1.239753,3.682658,4.066779,4.643185,6.080690,27.123067,-9.950916,-0.173694,-0.133310,0.000000,0.375308,-0.486058,0.000000
1.450000,-2.598496,-0.427694,-1.620522,0.950808,-0.709926,-0.038712,1.186455,-1.475197,1.285674,3.744444,4.336396,4.538150,5.618455,26.572245,-11.579004,-0.169755,-0.138296,0.000000,0.412495,-0.496369,0.000000
1.460000,-2.588928,-0.434866,-1.620844,0.962861,-0.724457,-0.025630,1.224165,-1.430525,1.330446,3.796625,4.596463,4.413480,5.121656,25.895814,-13.189682,-0.165446,-0.143376,0.000000,0.449413,-0.505210,0.000000
1.470000,-2.579238,-0.442182,-1.621033,0.975293,-0.738528,-0.012107,1.262395,-1.383253,1.373904,3.849625,4.858346,4.275904,5.167771,26.010556,-14.482736,-0.160763,-0.148540,0.000000,0.487184,-0.513807,-0.000000
1.480000,-2.569421,-0.449635,-1.621085,0.988110,-0.752113,0.001843,1.301125,-1.333407,1.415904,3.893466,5.106819,4.120538,3.584220,23.655754,-16.591618,-0.155705,-0.153781,0.000000,0.524061,-0.520877,0.000000
1.490000,-2.559474,-0.457222,-1.620995,1.001317,-0.765188,0.016205,1.340229,-1.281170,1.456254,3.927325,5.340399,3.947387,3.487785,23.506299,-17.872506,-0.150287,-0.159079,0.000000,0.559751,-0.526239,0.000000
1.500000,-2.549393,-0.464937,-1.620759,1.014916,-0.777729,0.030962,1.379674,-1.226595,1.494813,3.960491,5.572762,3.761838,2.833576,22.493902,-19.391350,-0.144509,-0.164424,0.000000,0.595658,-0.530995,-0.000000
1.510000,-2.539174,-0.472775,-1.620374,1.028911,-0.789713,0.046095,1.419403,-1.169767,1.531441,3.984035,5.790759,3.561546,2.133622,21.396267,-20.837151,-0.138379,-0.169804,0.000000,0.630165,-0.534006,0.000000
1.520000,-2.528814,-0.480730,-1.619836,1.043305,-0.801117,0.061584,1.459353,-1.110793,1.565982,4.005483,6.003223,3.343626,1.894182,20.788723,-22.565068,-0.131906,-0.175205,0.000000,0.664239,-0.536020,0.000000
1.530000,-2.518307,-0.488795,-1.619142,1.058099,-0.811922,0.077407,1.499476,-1.049757,1.598276,4.016431,6.200090,3.114066,0.282592,18.563112,-23.331271,-0.125100,-0.180612,0.000000,0.696452,-0.536117,-0.000000
1.540000,-2.507650,-0.496966,-1.618287,1.073294,-0.822106,0.093542,1.539642,-0.986849,1.628229,4.016228,6.380210,2.873724,-0.068944,17.746865,-24.899976,-0.117985,-0.186004,0.000000,0.726514,-0.534182,-0.000000
1.550000,-2.496840,-0.505235,-1.617270,1.088892,-0.831653,0.109964,1.579794,-0.922174,1.655696,4.012765,6.552266,2.617792,-0.885123,16.356374,-26.100128,-0.110573,-0.191367,0.000000,0.755403,-0.530985,-0.000000
1.560000,-2.485871,-0.513597,-1.616087,1.104890,-0.840544,0.126647,1.619861,-0.855875,1.680561,3.999018,6.704722,2.353559,-1.723064,14.840164,-27.182290,-0.102887,-0.196683,0.000000,0.781497,-0.525822,0.000000
1.570000,-2.474741,-0.522044,-1.614736,1.121288,-0.848765,0.143566,1.659758,-0.788073,1.702696,3.979571,6.855455,2.070295,-2.309553,14.602516,-29.019806,-0.094944,-0.201934,0.000000,0.806935,-0.518945,-0.000000
1.580000,-2.463444,-0.530570,-1.613215,1.138084,-0.856301,0.160691,1.699417,-0.718852,1.721955,3.949828,6.982012,1.782620,-3.645903,10.678718,-28.485989,-0.086761,-0.207102,0.000000,0.828722,-0.510131,-0.000000
1.590000,-2.451978,-0.539168,-1.611522,1.155275,-0.863139,0.177995,1.738718,-0.648524,1.738342,3.909453,7.082924,1.492070,-4.289131,10.197668,-30.048127,-0.078383,-0.212168,0.000000,0.846562,-0.499381,0.000000
1.600000,-2.440337,-0.547830,-1.609655,1.172857,-0.869268,0.195448,1.777587,-0.577194,1.751736,3.862813,7.179878,1.185729,-5.181204,8.488182,-30.764001,-0.069832,-0.217115,0.000000,0.863094,-0.486880,0.000000
1.610000,-2.428519,-0.556551,-1.607612,1.190825,-0.874680,0.213020,1.815943,-0.505005,1.762057,3.806766,7.255014,0.877738,-6.065213,6.765549,-31.345310,-0.061134,-0.221924,0.000000,0.875948,-0.472627,0.000000
1.620000,-2.416519,-0.565322,-1.605394,1.209174,-0.879366,0.230679,1.853690,-0.432133,1.769230,3.741167,7.317236,0.554314,-7.019184,5.451101,-32.808326,-0.052321,-0.226578,0.000000,0.886233,-0.456260,-0.000000
1.630000,-2.404334,-0.574136,-1.602999,1.227897,-0.883320,0.248393,1.890738,-0.358729,1.773153,3.667133,7.359269,0.232707,-7.785811,2.946250,-31.478786,-0.043422,-0.231057,0.000000,0.892898,-0.438401,0.000000
1.640000,-2.391960,-0.582985,-1.600426,1.246986,-0.886539,0.266131,1.927005,-0.285018,1.773900,3.584750,7.380674,-0.085268,-8.725590,1.560609,-32.615236,-0.034476,-0.235350,0.000000,0.895890,-0.419170,-0.000000
1.650000,-2.379393,-0.591864,-1.597676,1.266434,-0.889020,0.283861,1.962401,-0.211156,1.771400,3.492951,7.388555,-0.414824,-9.596455,-0.209607,-32.760414,-0.025513,-0.239439,0.000000,0.896127,-0.398064,0.000000
1.660000,-2.366630,-0.600763,-1.594749,1.286231,-0.890762,0.301548,1.996835,-0.137301,1.765626,3.392331,7.379888,-0.739583,-10.464537,-1.914521,-32.759011,-0.016564,-0.243310,0.000000,0.893199,-0.375678,0.000000
1.670000,-2.353668,-0.609677,-1.591645,1.306367,-0.891767,0.319162,2.030224,-0.063647,1.756563,3.284272,7.346700,-1.075020,-11.203529,-4.339306,-33.740215,-0.007663,-0.246949,0.000000,0.886220,-0.351791,-0.000000
1.680000,-2.340502,-0.618596,-1.588366,1.326832,-0.892037,0.336669,2.062489,0.009595,1.744158,3.167082,7.301166,-1.402056,-12.232723,-4.751703,-31.630225,0.001152,-0.250342,0.000000,0.876681,-0.326835,-0.000000
1.690000,-2.327130,-0.627515,-1.584912,1.347613,-0.891577,0.354035,2.093535,0.082340,1.728560,3.040888,7.244048,-1.718764,-12.942553,-7.051497,-32.267459,0.009863,-0.253482,0.000000,0.864786,-0.300971,-0.000000
1.700000,-2.313549,-0.636425,-1.581286,1.368698,-0.890392,0.371229,2.123285,0.154391,1.709751,2.907812,7.163508,-2.042152,-13.727377,-8.667393,-31.818626,0.018435,-0.256358,0.000000,0.849194,-0.274016,0.000000
1.710000,-2.299755,-0.645320,-1.577488,1.390074,-0.888492,0.388219,2.151669,0.225565,1.687761,2.767914,7.068584,-2.354490,-14.455963,-10.274199,-31.231097,0.026839,-0.258962,0.000000,0.831122,-0.246589,0.000000
1.720000,-2.285746,-0.654193,-1.573522,1.411727,-0.885884,0.404974,2.178603,0.295713,1.662633,2.616868,6.958505,-2.671958,-15.544055,-11.769199,-31.661516,0.035049,-0.261287,0.000000,0.810552,-0.217782,-0.000000
1.730000,-2.271520,-0.663036,-1.569390,1.433641,-0.882581,0.421461,2.203993,0.364682,1.634374,2.461424,6.832623,-2.975125,-15.532382,-13.399530,-28.936900,0.043042,-0.263321,0.000000,0.787593,-0.189041,0.000000
1.740000,-2.257073,-0.671842,-1.565094,1.455802,-0.878595,0.437652,2.227820,0.432314,1.603189,2.302229,6.691416,-3.262175,-16.505588,-14.796297,-29.046310,0.050794,-0.265072,0.000000,0.762475,-0.160567,0.000000
1.750000,-2.242403,-0.680605,-1.560638,1.478192,-0.873940,0.453515,2.250002,0.498465,1.569115,2.133188,6.536599,-3.550737,-17.090530,-16.191725,-28.063096,0.058285,-0.266533,0.000000,0.735444,-0.131195,0.000000
1.760000,-2.227508,-0.689319,-1.556025,1.500796,-0.868631,0.469024,2.270475,0.563010,1.532231,1.960624,6.370505,-3.824001,-17.623102,-17.467188,-26.983323,0.065498,-0.267702,0.000000,0.706994,-0.102219,-0.000000
1.770000,-2.212386,-0.697976,-1.551259,1.523596,-0.862686,0.484151,2.289180,0.625797,1.492639,1.778958,6.183340,-4.093879,-18.500746,-19.515178,-26.583172,0.072416,-0.268579,0.000000,0.676054,-0.072702,0.000000
1.780000,-2.197036,-0.706571,-1.546343,1.546573,-0.856122,0.498868,2.306048,0.686659,1.450412,1.595001,5.989659,-4.347099,-18.276764,-19.194290,-24.036231,0.079018,-0.269162,0.000000,0.644525,-0.043864,-0.000000
1.790000,-2.181454,-0.715096,-1.541283,1.569710,-0.848959,0.513151,2.321077,0.745577,1.405760,1.409495,5.790853,-4.582374,-19.020216,-20.995765,-23.407058,0.085306,-0.269462,0.000000,0.612693,-0.015855,0.000000
1.800000,-2.165641,-0.723548,-1.536082,1.592989,-0.841217,0.526976,2.334209,0.802407,1.358778,1.216486,5.573779,-4.811632,-19.369906,-21.963599,-22.036338,0.091265,-0.269479,0.000000,0.579078,0.012314,-0.000000
1.810000,-2.149594,-0.731919,-1.530745,1.616388,-0.832918,0.540319,2.345406,0.857043,1.309587,1.022470,5.352162,-5.023973,-19.657374,-22.820504,-20.612808,0.096888,-0.269218,0.000000,0.545427,0.039576,0.000000
1.820000,-2.133313,-0.740204,-1.525277,1.639890,-0.824084,0.553161,2.354631,0.909385,1.258331,0.821367,5.113290,-5.225470,-20.329485,-24.477886,-19.494443,0.102168,-0.268684,0.000000,0.510359,0.066761,0.000000
1.830000,-2.116796,-0.748399,-1.519683,1.663474,-0.814739,0.565480,2.361836,0.959306,1.205136,0.620783,4.872588,-5.409848,-19.771965,-23.633077,-17.368865,0.107097,-0.267880,0.000000,0.475731,0.092849,0.000000
1.840000,-2.100043,-0.756498,-1.513969,1.687120,-0.804906,0.577258,2.367053,1.006839,1.150195,0.421534,4.631602,-5.576458,-20.296969,-25.014472,-16.134061,0.111685,-0.266820,0.000000,0.441769,0.117747,-0.000000
1.850000,-2.083054,-0.764495,-1.508140,1.710808,-0.794610,0.588478,2.370245,1.051883,1.093645,0.216947,4.376559,-5.730855,-20.385362,-25.514472,-14.555600,0.115928,-0.265511,0.000000,0.406969,0.142342,-0.000000
1.860000,-2.065827,-0.772388,-1.502202,1.734518,-0.783877,0.599126,2.371400,1.094376,1.035633,0.014079,4.121690,-5.868915,-20.412260,-25.900946,-12.976744,0.119828,-0.263958,0.000000,0.372964,0.165774,0.000000
1.870000,-2.048363,-0.780172,-1.496159,1.758230,-0.772731,0.609186,2.370508,1.134268,0.976325,-0.193271,3.854640,-5.989638,-20.824045,-27.050240,-11.240717,0.123385,-0.262172,0.000000,0.338481,0.188694,-0.000000
1.880000,-2.030662,-0.787842,-1.490020,1.781922,-0.761200,0.618648,2.367547,1.171481,0.915890,-0.397506,3.590302,-6.095272,-20.007787,-25.788544,-9.887933,0.126601,-0.260160,0.000000,0.305103,0.210393,0.000000
1.890000,-2.012725,-0.795394,-1.483789,1.805574,-0.749310,0.627501,2.362573,1.206092,0.854469,-0.597829,3.330196,-6.185891,-20.276742,-26.665563,-8.161248,0.129492,-0.257935,0.000000,0.272978,0.230830,0.000000
1.900000,-1.994551,-0.802827,-1.477472,1.829166,-0.737087,0.635735,2.355577,1.238047,0.792231,-0.800950,3.061087,-6.259153,-20.113031,-26.695031,-6.568795,0.132060,-0.255506,0.000000,0.240759,0.250670,-0.000000
1.910000,-1.976142,-0.810135,-1.471076,1.852679,-0.724558,0.643343,2.346569,1.267332,0.729331,-1.000190,2.796138,-6.318422,-19.899663,-26.627953,-5.015884,0.134311,-0.252882,0.000000,0.209768,0.269354,-0.000000
1.920000,-1.957498,-0.817317,-1.464607,1.876091,-0.711750,0.650320,2.335567,1.293946,0.665936,-1.200381,2.525612,-6.357035,-19.964544,-27.126493,-2.974262,0.136255,-0.250072,0.000000,0.179081,0.287242,-0.000000
1.930000,-1.938620,-0.824369,-1.458072,1.899383,-0.698688,0.656661,2.322578,1.317866,0.602229,-1.395837,2.260956,-6.383533,-19.114648,-25.780821,-2.338472,0.137898,-0.247087,0.000000,0.149740,0.304023,-0.000000
1.940000,-1.919511,-0.831290,-1.451476,1.922536,-0.685401,0.662364,2.307669,1.339191,0.538302,-1.585920,2.003437,-6.398569,-19.064002,-26.050607,-0.407876,0.139255,-0.243937,0.000000,0.121823,0.319693,0.000000
1.950000,-1.900170,-0.838077,-1.444827,1.945530,-0.671913,0.667427,2.290858,1.357920,0.474327,-1.775562,1.743084,-6.394075,-18.690318,-25.668426,1.034462,0.140335,-0.240633,0.000000,0.094409,0.334590,-0.000000
1.960000,-1.880601,-0.844728,-1.438130,1.968347,-0.658251,0.671851,2.272176,1.374079,0.410455,-1.960130,1.489672,-6.378106,-18.283420,-25.213490,2.422927,0.141148,-0.237183,0.000000,0.068339,0.348494,-0.000000
1.970000,-1.860804,-0.851241,-1.431392,1.990968,-0.644440,0.675637,2.251665,1.387712,0.346833,-2.141700,1.237090,-6.343264,-17.963271,-25.086595,4.273584,0.141705,-0.233596,0.000000,0.043067,0.361481,-0.000000
1.980000,-1.840782,-0.857616,-1.424619,2.013374,-0.630505,0.678789,2.229360,1.398849,0.283622,-2.317992,0.992464,-6.298342,-17.288331,-23.822033,4.693894,0.142014,-0.229883,0.000000,0.019147,0.373579,-0.000000
1.990000,-1.820537,-0.863851,-1.417818,2.035549,-0.616471,0.681311,2.205324,1.407593,0.220894,-2.488622,0.756693,-6.244228,-16.895469,-23.529986,6.385905,0.142092,-0.226052,0.000000,-0.003393,0.384808,-0.000000
2.000000,-1.800072,-0.869945,-1.410995,2.057475,-0.602361,0.683209,2.179600,1.413989,0.158799,-2.655289,0.523806,-6.173082,-16.370647,-22.831612,7.567912,0.141949,-0.222111,0.000000,-0.025071,0.395199,0.000000
2.010000,-1.779389,-0.875898,-1.404156,2.079136,-0.588199,0.684489,2.152238,1.418100,0.097455,-2.816109,0.299770,-6.094156,-15.821903,-22.082942,8.655704,0.141595,-0.218070,0.000000,-0.045469,0.404814,0.000000
2.020000,-1.758490,-0.881709,-1.397307,2.100515,-0.574006,0.685161,2.123294,1.420001,0.036987,-2.971951,0.081239,-5.996051,-15.311823,-21.504058,10.518992,0.141043,-0.213936,0.000000,-0.064799,0.413531,0.000000
2.030000,-1.737379,-0.887378,-1.390455,2.121597,-0.559806,0.685233,2.092820,1.419757,-0.022454,-3.121624,-0.127823,-5.893143,-14.618814,-20.298417,10.037892,0.140303,-0.209719,0.000000,-0.082911,0.421581,0.000000
2.040000,-1.716059,-0.892905,-1.383604,2.142366,-0.545618,0.684715,2.060883,1.417478,-0.080867,-3.264905,-0.326873,-5.786706,-14.066362,-19.618807,11.677758,0.139389,-0.205423,0.000000,-0.099808,0.428988,-0.000000
2.050000,-1.694533,-0.898291,-1.376762,2.162810,-0.531463,0.683619,2.027540,1.413241,-0.138124,-3.402636,-0.519135,-5.663553,-13.446180,-18.716050,12.502762,0.138311,-0.201058,0.000000,-0.115662,0.435601,-0.000000
2.060000,-1.672804,-0.903535,-1.369934,2.182913,-0.517360,0.681957,1.992851,1.407127,-0.194131,-3.534149,-0.702027,-5.536746,-12.819674,-17.799865,13.242372,0.137079,-0.196629,0.000000,-0.130433,0.441644,0.000000
2.070000,-1.650876,-0.908638,-1.363125,2.202662,-0.503326,0.679741,1.956881,1.399236,-0.248804,-3.658670,-0.874514,-5.395289,-12.117653,-16.751347,14.652707,0.135706,-0.192144,0.000000,-0.143916,0.446861,-0.000000
2.080000,-1.628752,-0.913601,-1.356341,2.222046,-0.489380,0.676986,1.919697,1.389666,-0.302033,-3.777200,-1.038197,-5.252002,-11.588279,-15.984549,13.980932,0.134204,-0.187610,0.000000,-0.156460,0.451614,0.000000
2.090000,-1.606436,-0.918426,-1.349587,2.241052,-0.475538,0.673705,1.881357,1.378501,-0.353845,-3.889724,-1.193003,-5.108120,-10.881316,-14.916958,15.172319,0.132580,-0.183031,0.000000,-0.168097,0.455934,0.000000
2.100000,-1.583932,-0.923113,-1.342868,2.259670,-0.461815,0.669914,1.841927,1.365843,-0.404149,-3.995110,-1.336996,-4.952087,-10.230325,-13.938382,15.635983,0.130846,-0.178413,0.000000,-0.178530,0.459530,-0.000000
2.110000,-1.561244,-0.927663,-1.336190,2.277887,-0.448226,0.665627,1.801473,1.351788,-0.452885,-4.094781,-1.472566,-4.794676,-9.589390,-12.973957,16.034246,0.129012,-0.173763,0.000000,-0.188141,0.462741,0.000000
2.120000,-1.538376,-0.932078,-1.329558,2.295696,-0.434784,0.660861,1.760062,1.336440,-0.500014,-4.185847,-1.594620,-4.629793,-8.735355,-11.632246,16.738003,0.127088,-0.169084,0.000000,-0.196404,0.465208,0.000000
2.130000,-1.515332,-0.936359,-1.322975,2.313086,-0.421501,0.655633,1.717772,1.319918,-0.545480,-4.271835,-1.709322,-4.464192,-8.466295,-11.315031,16.365294,0.125086,-0.164384,0.000000,-0.203995,0.467387,-0.000000
2.140000,-1.492116,-0.940508,-1.316446,2.330049,-0.408389,0.649957,1.674641,1.302276,-0.589300,-4.352938,-1.816989,-4.298791,-7.642862,-10.022397,16.899439,0.123010,-0.159663,0.000000,-0.210967,0.469311,-0.000000
2.150000,-1.468732,-0.944527,-1.309977,2.346576,-0.395459,0.643852,1.630743,1.283626,-0.631435,-4.425671,-1.911476,-4.128068,-7.016501,-9.073581,17.040307,0.120871,-0.154928,0.000000,-0.216705,0.470582,0.000000
2.160000,-1.445186,-0.948418,-1.303571,2.362661,-0.382720,0.637334,1.586143,1.264069,-0.671867,-4.493274,-1.998442,-3.958317,-6.402100,-8.144389,17.109574,0.118678,-0.150183,0.000000,-0.221816,0.471600,-0.000000
2.170000,-1.421480,-0.952182,-1.297232,2.378297,-0.370180,0.630421,1.540906,1.243702,-0.710583,-4.552791,-2.072782,-3.784143,-5.603193,-6.898520,17.512279,0.116439,-0.145432,0.000000,-0.225783,0.472020,-0.000000
2.180000,-1.397621,-0.955822,-1.290964,2.393477,-0.357848,0.623128,1.495103,1.222636,-0.747560,-4.607482,-2.140088,-3.612528,-5.339971,-6.571314,16.795189,0.114164,-0.140679,0.000000,-0.229207,0.472245,-0.000000
2.190000,-1.373612,-0.959340,-1.284770,2.408197,-0.345730,0.615475,1.448771,1.200921,-0.782846,-4.657596,-2.200791,-3.444303,-4.583423,-5.399005,17.046443,0.111856,-0.135925,0.000000,-0.232138,0.472303,0.000000
2.200000,-1.349459,-0.962738,-1.278655,2.422451,-0.333832,0.607477,1.401978,1.178662,-0.816434,-4.700054,-2.249621,-3.273512,-4.011314,-4.544233,16.898882,0.109525,-0.131176,0.000000,-0.234040,0.471834,0.000000
2.210000,-1.325165,-0.966017,-1.272622,2.436235,-0.322158,0.599152,1.354784,1.155948,-0.848329,-4.737908,-2.292121,-3.105922,-3.457639,-3.728745,16.705909,0.107177,-0.126432,0.000000,-0.235483,0.471191,-0.000000
2.220000,-1.300736,-0.969182,-1.266673,2.449546,-0.310714,0.590516,1.307247,1.132866,-0.878552,-4.768296,-2.322156,-2.938674,-2.723445,-2.507106,16.644663,0.104819,-0.121699,0.000000,-0.235882,0.470074,0.000000
2.230000,-1.276176,-0.972232,-1.260812,2.462379,-0.299502,0.581586,1.259431,1.109520,-0.907115,-4.794546,-2.347068,-2.775093,-2.532232,-2.487175,16.061849,0.102460,-0.116979,0.000000,-0.235940,0.468822,-0.000000
2.240000,-1.251490,-0.975172,-1.255042,2.474734,-0.288524,0.572379,1.211368,1.085937,-0.934068,-4.816948,-2.367455,-2.615711,-1.848866,-1.368582,15.900955,0.100101,-0.112273,0.000000,-0.235717,0.467461,0.000000
2.250000,-1.226683,-0.978004,-1.249366,2.486606,-0.277783,0.562910,1.163117,1.062213,-0.959433,-4.832444,-2.376463,-2.457983,-1.354360,-0.664181,15.547084,0.097749,-0.107585,0.000000,-0.234562,0.465677,-0.000000
2.260000,-1.201759,-0.980729,-1.243785,2.497995,-0.267280,0.553196,1.114731,1.038421,-0.983243,-4.844059,-2.380840,-2.304504,-0.879646,-0.000349,15.164343,0.095411,-0.102916,0.000000,-0.233113,0.463768,0.000000
2.270000,-1.176724,-0.983350,-1.238303,2.508900,-0.257015,0.543251,1.066259,1.014635,-1.005535,-4.849249,-2.374587,-2.154602,-0.250029,1.036029,14.791174,0.093090,-0.098268,0.000000,-0.230815,0.461488,-0.000000
2.280000,-1.151583,-0.985870,-1.232921,2.519321,-0.246987,0.533090,1.017757,0.990940,-1.026350,-4.850982,-2.364626,-2.009193,-0.102044,0.944401,14.285930,0.090795,-0.093646,0.000000,-0.228303,0.459107,-0.000000
2.290000,-1.126340,-0.988291,-1.227641,2.529256,-0.237196,0.522728,0.969249,0.967351,-1.045735,-4.849547,-2.351565,-1.868551,0.476022,1.874228,13.859247,0.088525,-0.089048,0.000000,-0.225628,0.456645,-0.000000
2.300000,-1.100999,-0.990615,-1.222467,2.538706,-0.227640,0.512180,0.920787,0.943944,-1.063735,-4.842281,-2.329045,-1.732245,0.885103,2.413480,13.378278,0.086285,-0.084478,0.000000,-0.222207,0.453848,-0.000000
2.310000,-1.075567,-0.992844,-1.217398,2.547672,-0.218316,0.501458,0.872413,0.920780,-1.080395,-4.831807,-2.302906,-1.600583,1.275680,2.922153,12.888764,0.084081,-0.079938,0.000000,-0.218566,0.450947,0.000000
2.320000,-1.050047,-0.994982,-1.212438,2.556154,-0.209223,0.490576,0.824169,0.897912,-1.095768,-4.816189,-2.269667,-1.475094,1.778557,3.610883,12.268013,0.081916,-0.075428,0.000000,-0.214396,0.447768,0.000000
2.330000,-1.024446,-0.997029,-1.207587,2.564156,-0.200357,0.479547,0.776099,0.875397,-1.109911,-4.797693,-2.233092,-1.353979,1.915762,3.695494,11.955354,0.079794,-0.070953,0.000000,-0.210020,0.444494,-0.000000
2.340000,-0.998766,-0.998990,-1.202848,2.571677,-0.191714,0.468382,0.728223,0.853258,-1.122862,-4.776575,-2.193640,-1.237247,2.372759,4.300653,11.328261,0.077716,-0.066510,0.000000,-0.205474,0.441140,0.000000
2.350000,-0.973014,-1.000864,-1.198220,2.578721,-0.183290,0.457093,0.680584,0.831547,-1.134679,-4.750865,-2.148120,-1.126904,2.699616,4.688347,10.800742,0.075686,-0.062104,0.000000,-0.200478,0.437530,-0.000000
2.360000,-0.947193,-1.002656,-1.193706,2.585290,-0.175081,0.445692,0.633214,0.810304,-1.145412,-4.722529,-2.099856,-1.020661,3.010590,5.044696,10.284690,0.073707,-0.057735,0.000000,-0.195311,0.433819,0.000000
2.370000,-0.921309,-1.004367,-1.189307,2.591386,-0.167082,0.434189,0.586147,0.789568,-1.155122,-4.690285,-2.046538,-0.922710,3.391703,5.531826,9.463757,0.071781,-0.053405,0.000000,-0.189787,0.429903,-0.000000
2.380000,-0.895367,-1.005998,-1.185023,2.597014,-0.159288,0.422593,0.539416,0.769380,-1.163876,-4.655667,-1.991043,-0.828060,3.528096,5.560123,9.471668,0.069911,-0.049115,0.000000,-0.184128,0.425885,-0.000000
2.390000,-0.869371,-1.007553,-1.180855,2.602176,-0.151693,0.410914,0.493040,0.749752,-1.171692,-4.618877,-1.933754,-0.736462,3.872168,5.976563,8.689116,0.068099,-0.044866,0.000000,-0.178361,0.421777,0.000000
2.400000,-0.843325,-1.009033,-1.176805,2.606876,-0.144291,0.399162,0.447051,0.730720,-1.178635,-4.578645,-1.872303,-0.652903,4.127744,6.226420,8.183004,0.066345,-0.040661,0.000000,-0.172301,0.417475,0.000000
2.410000,-0.817235,-1.010440,-1.172872,2.611118,-0.137076,0.387344,0.401475,0.712312,-1.184760,-4.536159,-1.809007,-0.572790,4.372478,6.454511,7.690861,0.064653,-0.036499,0.000000,-0.166122,0.413060,-0.000000
2.420000,-0.791104,-1.011775,-1.169058,2.614907,-0.130043,0.375469,0.356336,0.694549,-1.190120,-4.491204,-1.743049,-0.500438,4.612733,6.708050,6.926866,0.063023,-0.032382,0.000000,-0.159772,0.408518,-0.000000
2.430000,-0.764938,-1.013041,-1.165363,2.618246,-0.123183,0.363544,0.311658,0.677456,-1.194778,-4.444021,-1.675452,-0.431158,4.821790,6.806970,6.935466,0.061458,-0.028313,0.000000,-0.153312,0.403848,0.000000
2.440000,-0.738741,-1.014239,-1.161787,2.621141,-0.116491,0.351576,0.267462,0.661045,-1.198751,-4.394729,-1.606468,-0.364639,5.038794,7.012054,6.223256,0.059958,-0.024291,0.000000,-0.146760,0.399054,0.000000
2.450000,-0.712517,-1.015371,-1.158331,2.623597,-0.109960,0.339571,0.223771,0.645334,-1.202098,-4.343316,-1.535495,-0.305402,5.238641,7.153800,5.773101,0.058523,-0.020318,0.000000,-0.140082,0.394138,-0.000000
2.460000,-0.686270,-1.016439,-1.154996,2.625619,-0.103582,0.327536,0.180603,0.630339,-1.204869,-4.289828,-1.463256,-0.249483,5.431780,7.279552,5.335776,0.057156,-0.016395,0.000000,-0.133320,0.389088,-0.000000
2.470000,-0.660006,-1.017444,-1.151781,2.627211,-0.097351,0.315476,0.137978,0.616072,-1.207108,-4.234947,-1.390067,-0.199348,5.567612,7.366383,4.768614,0.055857,-0.012523,0.000000,-0.126511,0.383964,-0.000000
2.480000,-0.633727,-1.018387,-1.148686,2.628380,-0.091258,0.303395,0.095911,0.602542,-1.208866,-4.177985,-1.315755,-0.152487,5.824216,7.493714,4.608595,0.054626,-0.008704,0.000000,-0.119623,0.378693,0.000000
2.490000,-0.607440,-1.019269,-1.145713,2.629131,-0.085297,0.291300,0.054425,0.589760,-1.210167,-4.118994,-1.240467,-0.108638,5.947504,7.550252,4.088334,0.053465,-0.004939,0.000000,-0.112668,0.373274,0.000000
2.500000,-0.581146,-1.020093,-1.142860,2.629470,-0.079461,0.279193,0.013535,0.577734,-1.211057,-4.058851,-1.164704,-0.070021,6.104894,7.610889,3.713254,0.052373,-0.001228,0.000000,-0.105699,0.367784,0.000000
2.510000,-0.554851,-1.020859,-1.140129,2.629404,-0.073740,0.267080,-0.026745,0.566469,-1.211577,-3.996890,-1.088157,-0.034508,6.256209,7.660973,3.355068,0.051351,0.002427,0.000000,-0.098675,0.362155,0.000000
2.520000,-0.528559,-1.021568,-1.137519,2.628938,-0.068129,0.254963,-0.066401,0.555969,-1.211762,-3.934028,-1.011852,-0.003202,6.343939,7.632151,2.945443,0.050399,0.006024,0.000000,-0.091693,0.356465,-0.000000
2.530000,-0.502274,-1.022222,-1.135030,2.628078,-0.062618,0.242846,-0.105420,0.546234,-1.211651,-3.869425,-0.934834,0.025223,6.576349,7.770733,2.743810,0.049517,0.009565,0.000000,-0.084659,0.350634,0.000000
2.540000,-0.475999,-1.022821,-1.132662,2.626831,-0.057201,0.230731,-0.143783,0.537275,-1.211266,-3.803113,-0.857169,0.051008,6.655665,7.725893,2.379973,0.048706,0.013045,0.000000,-0.077577,0.344663,0.000000
2.550000,-0.449739,-1.023366,-1.130415,2.625205,-0.051870,0.218621,-0.181480,0.529089,-1.210643,-3.736085,-0.780055,0.073199,6.777922,7.729545,2.098050,0.047966,0.016466,0.000000,-0.070558,0.338635,0.000000
2.560000,-0.423496,-1.023858,-1.128290,2.623204,-0.046617,0.206519,-0.218500,0.521676,-1.209810,-3.667611,-0.702523,0.093002,6.894115,7.726826,1.837541,0.047295,0.019825,0.000000,-0.063509,0.332484,-0.000000
2.570000,-0.397276,-1.024299,-1.126285,2.620837,-0.041434,0.194425,-0.254830,0.515034,-1.208794,-3.598426,-0.625995,0.109758,6.962996,7.624497,1.544856,0.046695,0.023123,0.000000,-0.056560,0.326271,0.000000
2.580000,-0.371081,-1.024687,-1.124401,2.618110,-0.036314,0.182343,-0.290464,0.509157,-1.207621,-3.527926,-0.549071,0.124551,7.136501,7.760338,1.418215,0.046164,0.026357,0.000000,-0.049580,0.319942,-0.000000
2.590000,-0.344915,-1.025025,-1.122638,2.615030,-0.031248,0.170274,-0.325384,0.504054,-1.206308,-3.456145,-0.471766,0.137637,7.197291,7.651948,1.174794,0.045703,0.029528,0.000000,-0.042569,0.313497,0.000000
2.600000,-0.318781,-1.025312,-1.120995,2.611605,-0.026230,0.158218,-0.359585,0.499717,-1.204877,-3.383820,-0.395654,0.148356,7.288310,7.616936,1.000887,0.045312,0.032634,0.000000,-0.035672,0.307001,-0.000000
2.610000,-0.292684,-1.025550,-1.119474,2.607841,-0.021251,0.146176,-0.393057,0.496142,-1.203345,-3.310425,-0.319402,0.157877,7.373815,7.578414,0.853966,0.044990,0.035674,0.000000,-0.028762,0.300407,-0.000000
2.620000,-0.266626,-1.025738,-1.118072,2.603746,-0.016305,0.134151,-0.425792,0.493323,-1.201728,-3.236508,-0.244603,0.165023,7.423913,7.432815,0.630596,0.044736,0.038648,0.000000,-0.021990,0.293760,-0.000000
2.630000,-0.240610,-1.025876,-1.116790,2.599327,-0.011383,0.122142,-0.457784,0.491251,-1.200045,-3.161644,-0.169666,0.171651,7.548418,7.555222,0.700459,0.044550,0.041555,0.000000,-0.015204,0.287026,-0.000000
2.640000,-0.214640,-1.025965,-1.115629,2.594593,-0.006477,0.110150,-0.489022,0.489931,-1.198295,-3.085869,-0.094576,0.178066,7.590110,7.409019,0.534439,0.044433,0.044394,0.000000,-0.008401,0.280210,0.000000
2.650000,-0.188719,-1.026006,-1.114587,2.589549,-0.001581,0.098176,-0.519500,0.489353,-1.196490,-3.009730,-0.021055,0.182861,7.652298,7.347150,0.480515,0.044382,0.047164,0.000000,-0.001743,0.273356,0.000000
2.660000,-0.162850,-1.025997,-1.113665,2.584205,0.003312,0.086221,-0.549214,0.489510,-1.194636,-2.932790,0.052372,0.188010,7.710651,7.282980,0.456792,0.044398,0.049866,0.000000,0.004911,0.266431,0.000000
2.670000,-0.137036,-1.025939,-1.112863,2.578568,0.008211,0.074284,-0.578156,0.490394,-1.192739,-2.855755,0.124092,0.191172,7.718526,7.112787,0.274297,0.044479,0.052498,0.000000,0.011406,0.259488,-0.000000
2.680000,-0.111280,-1.025833,-1.112180,2.572645,0.013123,0.062366,-0.606326,0.491992,-1.190808,-2.777952,0.195711,0.195562,7.841858,7.211808,0.610533,0.044626,0.055061,0.000000,0.017900,0.252483,-0.000000
2.690000,-0.085584,-1.025677,-1.111616,2.566444,0.018053,0.050468,-0.633713,0.494308,-1.188821,-2.699406,0.267252,0.201541,7.842879,7.042638,0.493308,0.044837,0.057553,0.000000,0.024396,0.245420,-0.000000
2.700000,-0.059952,-1.025471,-1.111170,2.559973,0.023011,0.038590,-0.660315,0.497330,-1.186783,-2.620916,0.336997,0.206316,7.877627,6.958287,0.560637,0.045113,0.059974,0.000000,0.030728,0.238358,0.000000
2.710000,-0.034385,-1.025216,-1.110844,2.553240,0.028002,0.026732,-0.686129,0.501048,-1.184688,-2.541848,0.406383,0.212845,7.907844,6.870846,0.654127,0.045452,0.062325,0.000000,0.037037,0.231256,0.000000
2.720000,-0.008888,-1.024911,-1.110636,2.546253,0.033034,0.014896,-0.711153,0.505451,-1.182530,-2.463028,0.473962,0.218598,7.881345,6.689903,0.591783,0.045853,0.064604,0.000000,0.043182,0.224175,0.000000
2.730000,0.016539,-1.024556,-1.110546,2.539020,0.038114,0.003082,-0.735387,0.510526,-1.180308,-2.383693,0.541127,0.226675,7.985467,6.743520,1.029896,0.046316,0.066813,0.000000,0.049303,0.217065,-0.000000
2.740000,0.041892,-1.024149,-1.110574,2.531548,0.043247,-0.008710,-0.758825,0.516273,-1.177987,-2.303871,0.607886,0.237404,7.951299,6.561150,1.026259,0.046839,0.068950,0.000000,0.055402,0.209931,-0.000000
2.750000,0.067169,-1.023690,-1.110720,2.523846,0.048441,-0.020478,-0.781467,0.522676,-1.175561,-2.224466,0.672723,0.248047,7.955075,6.451461,1.198072,0.047423,0.071016,0.000000,0.061331,0.202840,0.000000
2.760000,0.092368,-1.023180,-1.110983,2.515921,0.053703,-0.032221,-0.803313,0.529725,-1.173017,-2.144844,0.736911,0.261113,7.951866,6.337916,1.385301,0.048066,0.073011,0.000000,0.067215,0.195751,-0.000000
2.770000,0.117487,-1.022616,-1.111364,2.507782,0.059038,-0.043937,-0.824365,0.537407,-1.170335,-2.065602,0.799027,0.275507,7.910949,6.129887,1.527913,0.048767,0.074936,0.000000,0.072923,0.188712,-0.000000
2.780000,0.142523,-1.021999,-1.111862,2.499437,0.064453,-0.055627,-0.844625,0.545704,-1.167499,-1.986320,0.860443,0.292390,7.944586,6.153561,1.852170,0.049524,0.076790,0.000000,0.078585,0.181694,0.000000
2.790000,0.167475,-1.021327,-1.112477,2.490892,0.069954,-0.067287,-0.864092,0.554614,-1.164478,-1.907055,0.921150,0.311957,7.891210,5.940478,2.031403,0.050338,0.078574,0.000000,0.084201,0.174704,-0.000000
2.800000,0.192340,-1.020599,-1.113208,2.482157,0.075547,-0.078916,-0.882768,0.564119,-1.161254,-1.828390,0.979618,0.333336,7.856407,5.797536,2.278508,0.051207,0.080289,0.000000,0.089631,0.167789,0.000000
2.810000,0.217117,-1.019816,-1.114055,2.473240,0.081238,-0.090511,-0.900661,0.574202,-1.157802,-1.750098,1.036843,0.357417,7.810848,5.643457,2.536383,0.052131,0.081935,0.000000,0.094969,0.160937,0.000000
2.820000,0.241804,-1.018974,-1.115018,2.464147,0.087033,-0.102071,-0.917771,0.584850,-1.154097,-1.672106,1.092433,0.384069,7.775969,5.475443,2.799142,0.053106,0.083512,0.000000,0.100182,0.154140,0.000000
2.830000,0.266400,-1.018075,-1.116096,2.454887,0.092937,-0.113592,-0.934105,0.596045,-1.150112,-1.594823,1.146374,0.413506,7.678845,5.311323,3.089879,0.054134,0.085022,0.000000,0.105271,0.147438,-0.000000
2.840000,0.290902,-1.017115,-1.117289,2.445467,0.098956,-0.125072,-0.949671,0.607772,-1.145817,-1.518355,1.198574,0.445829,7.623337,5.124331,3.372928,0.055211,0.086466,0.000000,0.110229,0.140842,0.000000
2.850000,0.315308,-1.016095,-1.118597,2.435896,0.105094,-0.136507,-0.964474,0.620010,-1.141186,-1.442476,1.248848,0.481021,7.540813,4.931288,3.670074,0.056338,0.087844,0.000000,0.115041,0.134330,-0.000000
2.860000,0.339619,-1.015013,-1.120019,2.426180,0.111358,-0.147895,-0.978524,0.632742,-1.136186,-1.367688,1.297019,0.519347,7.445725,4.724491,3.976319,0.057512,0.089157,0.000000,0.119695,0.127952,0.000000
2.870000,0.363832,-1.013867,-1.121555,2.416328,0.117751,-0.159230,-0.991829,0.645946,-1.130790,-1.293313,1.343516,0.560386,7.397855,4.550134,4.251716,0.058731,0.090407,0.000000,0.124230,0.121642,-0.000000
2.880000,0.387945,-1.012657,-1.123204,2.406346,0.124278,-0.170509,-1.004395,0.659603,-1.124967,-1.220387,1.387505,0.604799,7.184661,4.245069,4.632216,0.059996,0.091595,0.000000,0.128575,0.115500,0.000000
2.890000,0.411958,-1.011381,-1.124965,2.396242,0.130944,-0.181728,-1.016242,0.673687,-1.118682,-1.149053,1.428837,0.652656,7.110381,4.042108,4.920351,0.061302,0.092722,0.000000,0.132719,0.109539,-0.000000
2.900000,0.435870,-1.010038,-1.126838,2.386024,0.137753,-0.192881,-1.027378,0.688174,-1.111905,-1.078468,1.468111,0.703380,6.974968,3.787725,5.244132,0.062650,0.093790,0.000000,0.136717,0.103679,-0.000000
2.910000,0.459678,-1.008626,-1.128822,2.375697,0.144709,-0.203964,-1.037817,0.703040,-1.104603,-1.009609,1.504698,0.757556,6.827832,3.522526,5.569724,0.064036,0.094800,0.000000,0.140516,0.098011,0.000000
2.920000,0.483383,-1.007143,-1.130917,2.365270,0.151815,-0.214971,-1.047573,0.718258,-1.096745,-0.941642,1.538474,0.814562,6.731883,3.235145,5.853491,0.065459,0.095754,0.000000,0.144104,0.092456,0.000000
2.930000,0.506983,-1.005589,-1.133122,2.354748,0.159075,-0.225897,-1.056657,0.733800,-1.088300,-0.875676,1.569452,0.875086,6.458647,2.958264,6.251565,0.066917,0.096654,0.000000,0.147488,0.087119,0.000000
2.940000,0.530478,-1.003961,-1.135435,2.344139,0.166492,-0.236735,-1.065094,0.749637,-1.079231,-0.811856,1.597499,0.939139,6.335895,2.644152,6.536409,0.068408,0.097502,0.000000,0.150659,0.082013,-0.000000
2.950000,0.553866,-1.002259,-1.137856,2.333448,0.174069,-0.247479,-1.072898,0.765739,-1.069508,-0.749267,1.622327,1.005992,6.148395,2.323527,6.855458,0.069930,0.098299,0.000000,0.153587,0.077048,-0.000000
2.960000,0.577147,-1.000479,-1.140384,2.322683,0.181808,-0.258123,-1.080087,0.782072,-1.059099,-0.688898,1.643563,1.076308,5.950229,1.981177,7.171963,0.071479,0.099047,0.000000,0.156246,0.072321,-0.000000
2.970000,0.600319,-0.998622,-1.143018,2.311848,0.189711,-0.268659,-1.086680,0.798604,-1.047974,-0.630050,1.662452,1.149088,5.792020,1.735953,7.416693,0.073054,0.099749,0.000000,0.158745,0.067756,-0.000000
2.980000,0.623383,-0.996685,-1.145757,2.300951,0.197780,-0.279080,-1.092696,0.815306,-1.036106,-0.573629,1.677010,1.225329,5.489769,1.171405,7.831220,0.074653,0.100407,0.000000,0.160910,0.063447,-0.000000
2.990000,0.646338,-0.994666,-1.148599,2.289996,0.206017,-0.289378,-1.098162,0.832128,-1.023456,-0.519765,1.687006,1.304995,5.307630,0.883884,8.065990,0.076271,0.101023,0.000000,0.162722,0.059403,0.000000
3.000000,0.669183,-0.992564,-1.151544,2.278990,0.214423,-0.299546,-1.103097,0.849038,-1.009999,-0.467728,1.694140,1.386901,5.072428,0.481719,8.347884,0.077907,0.101599,0.000000,0.164329,0.055548,-0.000000
3.010000,0.691918,-0.990377,-1.154590,2.267936,0.222998,-0.309576,-1.107525,0.865994,-0.995708,-0.418339,1.696334,1.471869,4.827606,0.056755,8.618311,0.079556,0.102138,0.000000,0.165548,0.051963,0.000000
3.020000,0.714542,-0.988103,-1.157735,2.256841,0.231743,-0.319458,-1.111470,0.882958,-0.980555,-0.370986,1.696165,1.558989,4.618673,-0.192104,8.827727,0.081217,0.102642,0.000000,0.166610,0.048585,-0.000000
3.030000,0.737054,-0.985741,-1.160978,2.245708,0.240657,-0.329184,-1.114955,0.899898,-0.964518,-0.326475,1.690364,1.648887,4.281606,-0.973712,9.149944,0.082887,0.103114,0.000000,0.167219,0.045491,0.000000
3.040000,0.759456,-0.983289,-1.164318,2.234543,0.249741,-0.338745,-1.118010,0.916745,-0.947568,-0.284915,1.678649,1.741436,4.052256,-1.271403,9.332124,0.084560,0.103556,0.000000,0.167349,0.042693,-0.000000
3.050000,0.781745,-0.980746,-1.167753,2.223349,0.258992,-0.348132,-1.120660,0.933463,-0.929684,-0.245652,1.664039,1.835677,3.776204,-1.752335,9.537598,0.086233,0.103971,0.000000,0.167269,0.040121,-0.000000
3.060000,0.803923,-0.978109,-1.171280,2.212131,0.268409,-0.357335,-1.122934,0.950007,-0.910849,-0.209523,1.644000,1.931676,3.490186,-2.241569,9.715194,0.087904,0.104362,0.000000,0.166745,0.037852,0.000000
3.070000,0.825988,-0.975377,-1.174899,2.200892,0.277991,-0.366346,-1.124857,0.966327,-0.891041,-0.175488,1.619315,2.030427,3.275470,-2.712982,9.976601,0.089567,0.104732,0.000000,0.165857,0.035803,-0.000000
3.080000,0.847940,-0.972549,-1.178606,2.189635,0.287735,-0.375153,-1.126455,0.982376,-0.870238,-0.144879,1.589371,2.129985,2.844051,-3.278275,9.929305,0.091219,0.105082,0.000000,0.164529,0.034077,0.000000
3.090000,0.869780,-0.969622,-1.182401,2.178364,0.297638,-0.383747,-1.127767,0.998097,-0.848440,-0.117809,1.554029,2.230038,2.609925,-3.776075,10.132503,0.092856,0.105417,0.000000,0.162743,0.032682,0.000000
3.100000,0.891508,-0.966595,-1.186281,2.167081,0.307696,-0.392118,-1.128818,1.013440,-0.825630,-0.093042,1.513678,2.332080,2.302078,-4.311570,10.216658,0.094473,0.105740,0.000000,0.160544,0.031523,-0.000000
3.110000,0.913122,-0.963468,-1.190243,2.155788,0.317905,-0.400256,-1.129639,1.028350,-0.801798,-0.071636,1.467329,2.434381,1.991378,-4.866461,10.273879,0.096065,0.106052,0.000000,0.157821,0.030679,0.000000
3.120000,0.934623,-0.960237,-1.194285,2.144489,0.328261,-0.408151,-1.130260,1.042775,-0.776938,-0.053109,1.417177,2.537787,1.701117,-5.256006,10.368643,0.097628,0.106357,0.000000,0.154780,0.030119,-0.000000
3.130000,0.956012,-0.956902,-1.198405,2.133184,0.338759,-0.415792,-1.130712,1.056670,-0.751043,-0.037883,1.360280,2.640946,1.343315,-6.127657,10.257197,0.099159,0.106658,0.000000,0.151132,0.029869,-0.000000
3.140000,0.977287,-0.953461,-1.202600,2.121875,0.349392,-0.423168,-1.131029,1.069957,-0.724121,-0.025999,1.296433,2.743517,1.045591,-6.551380,10.286054,0.100649,0.106958,0.000000,0.146845,0.029932,0.000000
3.150000,0.998449,-0.949914,-1.206867,2.110563,0.360156,-0.430271,-1.131242,1.082586,-0.696172,-0.017082,1.228455,2.846273,0.725210,-7.136370,10.225816,0.102095,0.107261,0.000000,0.142182,0.030285,-0.000000
3.160000,1.019498,-0.946258,-1.211204,2.099250,0.371042,-0.437088,-1.131382,1.094501,-0.667200,-0.011566,1.153352,2.947820,0.401957,-7.736628,10.129824,0.103490,0.107568,0.000000,0.136843,0.030957,0.000000
3.170000,1.040434,-0.942492,-1.215608,2.087936,0.382043,-0.443611,-1.131482,1.105646,-0.637215,-0.008828,1.075079,3.049233,0.122841,-8.062492,10.097080,0.104831,0.107884,0.000000,0.131199,0.031904,0.000000
3.180000,1.061257,-0.938616,-1.220076,2.076621,0.393152,-0.449829,-1.131571,1.115976,-0.606223,-0.009588,0.989070,3.148600,-0.275290,-9.144012,9.769137,0.106112,0.108211,0.000000,0.124794,0.033177,-0.000000
3.190000,1.081967,-0.934629,-1.224604,2.065304,0.404360,-0.455732,-1.131686,1.125399,-0.574251,-0.013866,0.895116,3.245510,-0.557102,-9.500974,9.657446,0.107324,0.108553,0.000000,0.117589,0.034780,-0.000000
3.200000,1.102563,-0.930529,-1.229189,2.053987,0.415657,-0.461311,-1.131857,1.133869,-0.541316,-0.020917,0.797824,3.341201,-0.875764,-10.102313,9.424586,0.108462,0.108912,0.000000,0.110022,0.036657,-0.000000
3.210000,1.123046,-0.926316,-1.233829,2.042667,0.427034,-0.466556,-1.132117,1.141331,-0.507440,-0.031563,0.693482,3.433368,-1.196236,-10.697828,9.143180,0.109522,0.109291,0.000000,0.101704,0.038869,0.000000
3.220000,1.143416,-0.921988,-1.238519,2.031344,0.438480,-0.471457,-1.132494,1.147725,-0.472647,-0.044309,0.584509,3.525236,-1.406993,-11.161019,9.088047,0.110495,0.109694,0.000000,0.092888,0.041310,-0.000000
3.230000,1.163673,-0.917546,-1.243257,2.020016,0.449984,-0.476006,-1.133016,1.152999,-0.436953,-0.060838,0.468916,3.612142,-1.899606,-11.957948,8.282793,0.111377,0.110124,0.000000,0.083318,0.044097,-0.000000
3.240000,1.183817,-0.912988,-1.248038,2.008683,0.461536,-0.480193,-1.133724,1.157080,-0.400424,-0.081171,0.346708,3.693528,-2.110525,-12.415655,8.125959,0.112159,0.110583,0.000000,0.072972,0.047231,0.000000
3.250000,1.203847,-0.908315,-1.252859,1.997341,0.473122,-0.484011,-1.134645,1.159919,-0.363085,-0.103495,0.220086,3.773369,-2.408142,-12.972428,7.698827,0.112834,0.111075,0.000000,0.062091,0.050586,0.000000
3.260000,1.223764,-0.903526,-1.257717,1.985989,0.484730,-0.487452,-1.135806,1.161461,-0.324978,-0.129125,0.087412,3.847317,-2.696139,-13.514922,7.227865,0.113398,0.111602,0.000000,0.050452,0.054246,-0.000000
3.270000,1.243567,-0.898620,-1.262607,1.974624,0.496347,-0.490509,-1.137235,1.161653,-0.286144,-0.157200,-0.049743,3.919124,-2.936900,-13.956285,6.988517,0.113842,0.112168,0.000000,0.038233,0.058173,0.000000
3.280000,1.263256,-0.893599,-1.267526,1.963244,0.507958,-0.493173,-1.138960,1.160447,-0.246619,-0.188239,-0.192560,3.984050,-3.269539,-14.604974,5.986447,0.114160,0.112774,0.000000,0.025250,0.062371,0.000000
3.290000,1.282831,-0.888461,-1.272469,1.951844,0.519551,-0.495439,-1.141010,1.157783,-0.206488,-0.222155,-0.340890,4.041548,-3.491963,-15.013272,5.647781,0.114344,0.113424,0.000000,0.011493,0.066830,-0.000000
3.300000,1.302293,-0.883208,-1.277433,1.940422,0.531109,-0.497301,-1.143409,1.153617,-0.165797,-0.258200,-0.493113,4.095698,-3.734755,-15.471001,5.036801,0.114388,0.114120,0.000000,-0.002850,0.071524,-0.000000
3.310000,1.321640,-0.877839,-1.282414,1.928975,0.542618,-0.498753,-1.146182,1.147907,-0.124604,-0.296631,-0.649618,4.141711,-3.960884,-15.891634,4.377464,0.114285,0.114865,0.000000,-0.017888,0.076431,-0.000000
3.320000,1.340872,-0.872356,-1.287407,1.917497,0.554062,-0.499791,-1.149350,1.140606,-0.082967,-0.337478,-0.811457,4.185138,-4.194286,-16.406785,4.092156,0.114028,0.115660,0.000000,-0.033678,0.081619,0.000000
3.330000,1.359990,-0.866758,-1.292408,1.905986,0.565425,-0.500411,-1.152937,1.131668,-0.040934,-0.380215,-0.976300,4.219032,-4.349964,-16.554465,2.675055,0.113609,0.116508,0.000000,-0.050084,0.086960,-0.000000
3.340000,1.378992,-0.861048,-1.297414,1.894437,0.576690,-0.500609,-1.156960,1.121072,0.001378,-0.424656,-1.143734,4.242805,-4.546949,-16.991411,2.287734,0.113024,0.117411,0.000000,-0.067085,0.092428,-0.000000
3.350000,1.397878,-0.855225,-1.302419,1.882845,0.587840,-0.500383,-1.161437,1.108778,0.043913,-0.470993,-1.315462,4.262897,-4.705366,-17.283090,1.513804,0.112265,0.118370,0.000000,-0.084790,0.098120,0.000000
3.360000,1.416649,-0.849291,-1.307420,1.871207,0.598859,-0.499730,-1.166384,1.094751,0.086603,-0.518683,-1.490494,4.273635,-4.843183,-17.558587,0.718988,0.111326,0.119386,0.000000,-0.103178,0.103915,0.000000
3.370000,1.435302,-0.843248,-1.312412,1.859516,0.609730,-0.498651,-1.171816,1.078973,0.129366,-0.567917,-1.665044,4.278021,-4.986446,-17.497906,0.068331,0.110201,0.120461,0.000000,-0.121842,0.109868,0.000000
3.380000,1.453839,-0.837097,-1.317392,1.847769,0.620433,-0.497143,-1.177746,1.061436,0.172132,-0.618053,-1.843532,4.273123,-5.036645,-18.197147,-1.053727,0.108886,0.121597,0.000000,-0.141268,0.115876,0.000000
3.390000,1.472257,-0.830840,-1.322354,1.835960,0.630952,-0.495208,-1.184179,1.042088,0.214796,-0.668849,-2.025727,4.258634,-5.132286,-18.078994,-1.759745,0.107373,0.122793,0.000000,-0.161445,0.121908,-0.000000
3.400000,1.490558,-0.824479,-1.327294,1.824083,0.641269,-0.492848,-1.191126,1.020930,0.257282,-0.720502,-2.206265,4.237137,-5.180513,-18.174700,-2.628780,0.105657,0.124049,0.000000,-0.181800,0.128011,-0.000000
3.410000,1.508739,-0.818015,-1.332209,1.812135,0.651365,-0.490063,-1.198586,0.997968,0.299503,-0.771500,-2.385896,4.205357,-5.186619,-18.162303,-3.527555,0.103736,0.125367,0.000000,-0.202439,0.133984,-0.000000
3.420000,1.526800,-0.811452,-1.337094,1.800110,0.661222,-0.486859,-1.206570,0.973179,0.341376,-0.825749,-2.573193,4.168405,-5.490925,-18.881259,-4.059464,0.101604,0.126745,0.000000,-0.224198,0.140290,-0.000000
3.430000,1.544741,-0.804792,-1.341945,1.788002,0.670822,-0.483237,-1.215092,0.946526,0.382832,-0.877705,-2.754795,4.120044,-4.890715,-17.417417,-5.619753,0.099253,0.128186,0.000000,-0.245750,0.146269,0.000000
3.440000,1.562560,-0.798037,-1.346758,1.775806,0.680147,-0.479204,-1.224113,0.918109,0.423736,-0.926879,-2.929593,4.059952,-5.109669,-17.943789,-6.201543,0.096690,0.129683,0.000000,-0.266959,0.151851,-0.000000
3.450000,1.580257,-0.791190,-1.351528,1.763518,0.689178,-0.474765,-1.233641,0.887908,0.464016,-0.978367,-3.109996,3.994336,-5.014925,-17.718158,-7.117703,0.093910,0.131238,0.000000,-0.289051,0.157640,-0.000000
3.460000,1.597830,-0.784254,-1.356251,1.751132,0.697899,-0.469926,-1.243671,0.855934,0.503584,-1.027587,-3.284263,3.917720,-4.897676,-17.429792,-8.035933,0.090911,0.132849,0.000000,-0.310829,0.163073,-0.000000
3.470000,1.615279,-0.777233,-1.360925,1.738643,0.706291,-0.464696,-1.254194,0.822209,0.542353,-1.076906,-3.461203,3.835195,-4.891320,-17.654361,-8.630921,0.087691,0.134513,0.000000,-0.333153,0.168457,0.000000
3.480000,1.632602,-0.770130,-1.365544,1.726047,0.714337,-0.459082,-1.265201,0.786736,0.580250,-1.123846,-3.630984,3.741706,-4.490276,-16.283835,-10.069680,0.084249,0.136230,0.000000,-0.355003,0.173446,0.000000
3.490000,1.649799,-0.762948,-1.370105,1.713338,0.722020,-0.453094,-1.276661,0.749618,0.617149,-1.168059,-3.792662,3.637166,-4.419498,-16.340353,-10.670100,0.080594,0.137993,0.000000,-0.376237,0.177984,-0.000000
3.500000,1.666869,-0.755690,-1.374605,1.700512,0.729324,-0.446742,-1.288561,0.710875,0.652978,-1.211549,-3.955094,3.526973,-4.203271,-15.840628,-11.529684,0.076723,0.139800,0.000000,-0.397724,0.182349,-0.000000
3.510000,1.683809,-0.748362,-1.379039,1.687565,0.736233,-0.440038,-1.300879,0.670536,0.687659,-1.251526,-4.111811,3.408058,-3.949686,-15.327089,-12.343532,0.072641,0.141649,0.000000,-0.418760,0.186181,0.000000
3.520000,1.700620,-0.740967,-1.383404,1.674493,0.742730,-0.432993,-1.313596,0.628670,0.721104,-1.291950,-4.259927,3.279329,-3.974634,-14.450032,-13.305336,0.068351,0.143534,0.000000,-0.439002,0.189873,-0.000000
3.530000,1.717299,-0.733509,-1.387698,1.661292,0.748801,-0.425621,-1.326701,0.585350,0.753224,-1.327658,-4.404051,3.143986,-3.158611,-14.371347,-13.754511,0.063862,0.145453,0.000000,-0.458872,0.192903,0.000000
3.540000,1.733845,-0.725993,-1.391916,1.647958,0.754432,-0.417934,-1.340131,0.540602,0.783964,-1.358219,-4.543902,3.002504,-3.108186,-13.426642,-14.628240,0.059175,0.147397,0.000000,-0.478297,0.195214,-0.000000
3.550000,1.750257,-0.718422,-1.396055,1.634488,0.759609,-0.409946,-1.353867,0.494508,0.813244,-1.388412,-4.673805,2.852341,-2.769841,-12.709015,-15.304873,0.054300,0.149363,0.000000,-0.496631,0.197268,0.000000
3.560000,1.766534,-0.710802,-1.400114,1.620880,0.764318,-0.401674,-1.367880,0.447159,0.840998,-1.413456,-4.794246,2.697605,-2.404530,-11.875053,-15.913007,0.049246,0.151346,0.000000,-0.513847,0.198598,0.000000
3.570000,1.782674,-0.703137,-1.404088,1.607130,0.768548,-0.393132,-1.382137,0.398611,0.867154,-1.437998,-4.915783,2.531675,-2.337689,-11.935316,-16.995121,0.044022,0.153339,0.000000,-0.531098,0.199586,-0.000000
3.580000,1.798676,-0.695433,-1.407976,1.593236,0.772286,-0.384336,-1.396619,0.348897,0.891626,-1.456727,-5.022529,2.363533,-1.400774,-9.391078,-16.616531,0.038631,0.155339,0.000000,-0.546536,0.199790,-0.000000
3.590000,1.814539,-0.687693,-1.411774,1.579197,0.775523,-0.375305,-1.411250,0.298217,0.914422,-1.469279,-5.113356,2.194053,-1.272780,-9.261179,-17.543419,0.033098,0.157335,0.000000,-0.559986,0.199174,-0.000000
3.600000,1.830260,-0.679924,-1.415481,1.565011,0.778248,-0.366054,-1.426004,0.246623,0.935471,-1.480744,-5.203423,2.015162,-0.854143,-8.253572,-17.954673,0.027431,0.159323,0.000000,-0.573118,0.198148,-0.000000
3.610000,1.845838,-0.672130,-1.419094,1.550676,0.780452,-0.356601,-1.440852,0.194200,0.954726,-1.488191,-5.279369,1.835342,-0.456926,-7.209375,-18.295813,0.021642,0.161298,0.000000,-0.584377,0.196530,0.000000
3.620000,1.861273,-0.664317,-1.422612,1.536193,0.782129,-0.346965,-1.455740,0.141049,0.972143,-1.488232,-5.350071,1.646712,0.278171,-6.654600,-19.133884,0.015746,0.163251,0.000000,-0.594731,0.193801,0.000000
3.630000,1.876562,-0.656489,-1.426033,1.521562,0.783271,-0.337165,-1.470611,0.087248,0.987665,-1.486209,-5.406670,1.458880,0.121993,-4.652014,-18.413969,0.009754,0.165173,0.000000,-0.603138,0.190716,0.000000
3.640000,1.891704,-0.648653,-1.429355,1.506781,0.783873,-0.327218,-1.485459,0.032967,1.001329,-1.482305,-5.448515,1.272819,0.832831,-3.987096,-19.078174,0.003690,0.167064,0.000000,-0.609503,0.187317,0.000000
3.650000,1.906697,-0.640814,-1.432577,1.491853,0.783929,-0.317144,-1.500229,-0.021706,1.013093,-1.471010,-5.484017,1.079971,1.254077,-2.837290,-19.192842,-0.002432,0.168915,0.000000,-0.614750,0.182838,-0.000000
3.660000,1.921540,-0.632976,-1.435698,1.476777,0.783437,-0.306963,-1.514870,-0.076668,1.022931,-1.456450,-5.506354,0.887414,1.686041,-1.682289,-19.271471,-0.008598,0.170720,0.000000,-0.618092,0.177867,-0.000000
3.670000,1.936232,-0.625147,-1.438716,1.461556,0.782395,-0.296692,-1.529341,-0.131799,1.030843,-1.437035,-5.518122,0.695078,2.170940,-0.617057,-19.221415,-0.014789,0.172471,0.000000,-0.619814,0.172233,0.000000
3.680000,1.950771,-0.617330,-1.441631,1.446191,0.780801,-0.286352,-1.543597,-0.186989,1.036831,-1.413578,-5.517565,0.502436,2.519697,0.730953,-19.298059,-0.020988,0.174163,0.000000,-0.619715,0.166024,0.000000
3.690000,1.965155,-0.609532,-1.444443,1.430685,0.778656,-0.275962,-1.557600,-0.242108,1.040892,-1.386110,-5.504558,0.310046,3.000534,1.817379,-19.133459,-0.027177,0.175790,0.000000,-0.617783,0.159262,-0.000000
3.700000,1.979384,-0.601759,-1.447150,1.415040,0.775960,-0.265541,-1.571303,-0.297045,1.043040,-1.353794,-5.480770,0.119664,3.435859,2.992400,-18.968177,-0.033339,0.177347,0.000000,-0.614220,0.151900,-0.000000
3.710000,1.993456,-0.594015,-1.449754,1.399260,0.772716,-0.255108,-1.584655,-0.351687,1.043303,-1.315765,-5.445700,-0.066225,3.900697,4.144359,-18.684008,-0.039456,0.178828,0.000000,-0.608999,0.143904,-0.000000
3.720000,2.007369,-0.586306,-1.452253,1.383348,0.768927,-0.244681,-1.597625,-0.405911,1.041686,-1.278265,-5.396776,-0.258272,3.859334,5.518176,-19.244768,-0.045512,0.180227,0.000000,-0.601800,0.135763,-0.000000
3.730000,2.021122,-0.578638,-1.454647,1.367309,0.764599,-0.234280,-1.610193,-0.459590,1.038172,-1.233124,-5.337909,-0.441038,5.175801,6.248835,-17.283702,-0.051487,0.181543,0.000000,-0.593160,0.126898,0.000000
3.740000,2.034715,-0.571016,-1.456938,1.351146,0.759738,-0.223923,-1.622259,-0.512638,1.032904,-1.180051,-5.269424,-0.613270,5.174023,7.566243,-17.628122,-0.057371,0.182766,0.000000,-0.583177,0.117324,0.000000
3.750000,2.048145,-0.563445,-1.459126,1.334865,0.754349,-0.213628,-1.633800,-0.564932,1.025886,-1.127446,-5.187686,-0.789373,5.607591,8.656333,-17.109851,-0.063144,0.183894,0.000000,-0.571383,0.107689,0.000000
3.760000,2.061412,-0.555931,-1.461211,1.318472,0.748442,-0.203411,-1.644788,-0.616354,1.017157,-1.069401,-5.094688,-0.955046,6.009997,9.749671,-16.512440,-0.068793,0.184923,0.000000,-0.558139,0.097648,-0.000000
3.770000,2.074514,-0.548478,-1.463195,1.301972,0.742025,-0.193290,-1.655174,-0.666805,1.006765,-1.007197,-4.994532,-1.124019,6.417320,10.459597,-16.792366,-0.074304,0.185849,0.000000,-0.543841,0.087078,0.000000
3.780000,2.087451,-0.541092,-1.465077,1.285371,0.735109,-0.183282,-1.664920,-0.716201,0.994722,-0.941340,-4.881758,-1.280623,6.750637,12.094703,-14.505794,-0.079665,0.186669,0.000000,-0.528045,0.076372,-0.000000
3.790000,2.100221,-0.533778,-1.466861,1.268675,0.727705,-0.173401,-1.673990,-0.764397,0.981201,-0.872036,-4.756481,-1.423738,7.117264,12.768607,-14.596873,-0.084860,0.187381,0.000000,-0.510840,0.065592,-0.000000
3.800000,2.112824,-0.526540,-1.468546,1.251893,0.719826,-0.163662,-1.682348,-0.811313,0.966234,-0.799157,-4.624961,-1.568300,7.443395,13.712301,-13.825012,-0.089879,0.187984,0.000000,-0.492828,0.054431,0.000000
3.810000,2.125259,-0.519383,-1.470134,1.235031,0.711484,-0.154081,-1.689967,-0.856878,0.949870,-0.724147,-4.487030,-1.703226,7.726233,14.522916,-13.060986,-0.094715,0.188475,0.000000,-0.474132,0.043288,0.000000
3.820000,2.137524,-0.512311,-1.471628,1.218096,0.702693,-0.144669,-1.696808,-0.900974,0.932203,-0.643139,-4.328624,-1.828558,8.304069,16.511733,-12.091848,-0.099354,0.188852,0.000000,-0.453266,0.031754,-0.000000
3.830000,2.149620,-0.505330,-1.473028,1.201097,0.693470,-0.135441,-1.702829,-0.943456,0.913321,-0.561660,-4.170365,-1.946890,7.981633,15.111248,-11.573603,-0.103781,0.189113,0.000000,-0.432505,0.020385,-0.000000
3.840000,2.161546,-0.498443,-1.474337,1.184042,0.683829,-0.126407,-1.708043,-0.984391,0.893288,-0.480230,-4.013675,-2.058113,8.467793,16.861595,-10.575660,-0.108005,0.189263,0.000000,-0.412028,0.009248,-0.000000
3.850000,2.173301,-0.491655,-1.475557,1.166939,0.673787,-0.117578,-1.712414,-1.023657,0.872195,-0.393835,-3.838787,-2.159126,8.638032,17.464810,-9.715693,-0.112014,0.189298,0.000000,-0.389769,-0.002127,0.000000
3.860000,2.184885,-0.484969,-1.476690,1.149797,0.663362,-0.108966,-1.715931,-1.061160,0.850135,-0.309640,-3.660760,-2.251298,8.728545,18.060652,-8.823689,-0.115800,0.189222,0.000000,-0.367374,-0.012994,-0.000000
3.870000,2.196297,-0.478389,-1.477737,1.132624,0.652570,-0.100579,-1.718561,-1.096859,0.827190,-0.214464,-3.478415,-2.336550,9.784553,18.467077,-8.121561,-0.119361,0.189032,0.000000,-0.344751,-0.024797,-0.000000
3.880000,2.207537,-0.471919,-1.478702,1.115429,0.641431,-0.092425,-1.720243,-1.130708,0.803439,-0.124903,-3.290179,-2.411531,8.106642,19.172143,-6.870764,-0.122694,0.188726,0.000000,-0.321759,-0.035690,0.000000
3.890000,2.218605,-0.465562,-1.479587,1.098222,0.629962,-0.084512,-1.721086,-1.162644,0.778995,-0.041967,-3.096559,-2.476060,8.997939,19.472524,-6.139896,-0.125795,0.188317,0.000000,-0.298480,-0.045572,0.000000
3.900000,2.229501,-0.459321,-1.480393,1.081010,0.618184,-0.076847,-1.721041,-1.192632,0.753940,0.050533,-2.900351,-2.533448,8.977450,19.827375,-5.234166,-0.128664,0.187803,0.000000,-0.275228,-0.056229,-0.000000
3.910000,2.240226,-0.453199,-1.481124,1.063804,0.606116,-0.069435,-1.720087,-1.220645,0.728356,0.140223,-2.701983,-2.581887,8.965104,20.085792,-4.354023,-0.131300,0.187185,0.000000,-0.252057,-0.066312,-0.000000
3.920000,2.250778,-0.447199,-1.481783,1.046611,0.593778,-0.062281,-1.718237,-1.246644,0.702339,0.229854,-2.496552,-2.619646,8.947793,20.746924,-3.297364,-0.133703,0.186467,0.000000,-0.228490,-0.076084,-0.000000
3.930000,2.261158,-0.441324,-1.482371,1.029442,0.581190,-0.055390,-1.715492,-1.270582,0.675987,0.318902,-2.292359,-2.649928,8.857898,20.073218,-2.764871,-0.135872,0.185651,0.000000,-0.205373,-0.085560,-0.000000
3.940000,2.271367,-0.435576,-1.482891,1.012305,0.568373,-0.048763,-1.711862,-1.292500,0.649364,0.407142,-2.090398,-2.673038,8.796682,20.552828,-1.762395,-0.137813,0.184741,0.000000,-0.182803,-0.094727,0.000000
3.950000,2.281404,-0.429957,-1.483347,0.995208,0.555347,-0.042403,-1.707352,-1.312370,0.622562,0.494687,-1.883605,-2.686091,8.699908,20.550740,-0.949748,-0.139527,0.183739,0.000000,-0.160081,-0.103548,-0.000000
3.960000,2.291271,-0.424470,-1.483740,0.978160,0.542133,-0.036312,-1.701965,-1.330204,0.595659,0.582521,-1.683978,-2.693388,8.614028,20.385714,-0.192520,-0.141019,0.182650,0.000000,-0.138403,-0.112218,0.000000
3.970000,2.300967,-0.419115,-1.484074,0.961171,0.528750,-0.030490,-1.695725,-1.345973,0.568745,0.664612,-1.466696,-2.687079,8.043929,22.069308,1.137263,-0.142288,0.181476,0.000000,-0.115271,-0.119967,-0.000000
3.980000,2.310494,-0.413895,-1.484351,0.944249,0.515220,-0.024936,-1.688666,-1.359592,0.541926,0.748436,-1.263603,-2.677301,8.725641,18.509009,0.803126,-0.143331,0.180225,0.000000,-0.093880,-0.127778,-0.000000
3.990000,2.319853,-0.408811,-1.484574,0.927401,0.501564,-0.019651,-1.680748,-1.371306,0.515205,0.834165,-1.076633,-2.664813,8.172548,19.877695,2.003830,-0.144173,0.178894,0.000000,-0.074391,-0.135683,0.000000
4.000000,2.329043,-0.403864,-1.484745,0.910636,0.487801,-0.014632,-1.672007,-1.381058,0.488677,0.913912,-0.874707,-2.640018,8.018174,19.502039,2.634891,-0.144813,0.177487,0.000000,-0.053692,-0.142699,0.000000
4.010000,2.338066,-0.399055,-1.484867,0.893963,0.473950,-0.009876,-1.662476,-1.388824,0.462412,0.991741,-0.678929,-2.612119,7.803495,19.197754,3.217987,-0.145250,0.176010,0.000000,-0.033837,-0.149428,0.000000
4.020000,2.346922,-0.394386,-1.484943,0.877390,0.460031,-0.005382,-1.652158,-1.394683,0.436476,1.072309,-0.495012,-2.573215,8.057005,18.015380,4.285382,-0.145496,0.174466,0.000000,-0.015527,-0.156211,-0.000000
4.030000,2.355614,-0.389855,-1.484976,0.860923,0.446062,-0.001146,-1.641049,-1.398716,0.410953,1.147569,-0.309589,-2.532233,6.984932,19.077183,3.895931,-0.145560,0.172855,0.000000,0.002787,-0.162394,-0.000000
4.040000,2.364141,-0.385464,-1.484967,0.844571,0.432063,0.002838,-1.629228,-1.400866,0.385833,1.217040,-0.122394,-2.489944,7.160611,17.916692,4.828826,-0.145439,0.171186,0.000000,0.021150,-0.167951,-0.000000
4.050000,2.372506,-0.381214,-1.484920,0.828341,0.418051,0.006573,-1.616697,-1.401213,0.361190,1.288601,0.052380,-2.438111,6.896886,17.471907,5.257919,-0.145143,0.169460,0.000000,0.037983,-0.173548,-0.000000
4.060000,2.380708,-0.377103,-1.484836,0.812239,0.404044,0.010064,-1.603468,-1.399823,0.337072,1.356791,0.224846,-2.385031,6.649981,16.975806,5.632791,-0.144680,0.167679,0.000000,0.054474,-0.178781,-0.000000
4.070000,2.388751,-0.373133,-1.484719,0.796274,0.390060,0.013316,-1.589577,-1.396737,0.313524,1.420750,0.391434,-2.322998,6.227704,16.377401,6.494193,-0.144057,0.165848,0.000000,0.070161,-0.183440,-0.000000
4.080000,2.396634,-0.369302,-1.484571,0.780450,0.376115,0.016336,-1.575058,-1.392010,0.290610,1.483150,0.553154,-2.261013,6.254075,15.964302,5.887687,-0.143279,0.163972,0.000000,0.085287,-0.187957,0.000000
4.090000,2.404360,-0.365610,-1.484393,0.764774,0.362225,0.019130,-1.559918,-1.385690,0.268299,1.544053,0.709845,-2.199846,5.837758,15.330406,6.615231,-0.142353,0.162051,0.000000,0.099858,-0.192354,-0.000000
4.100000,2.411930,-0.362057,-1.484189,0.749253,0.348406,0.021704,-1.544193,-1.377836,0.246643,1.600637,0.860043,-2.131175,5.566108,14.746496,6.837872,-0.141285,0.160088,0.000000,0.113627,-0.196213,-0.000000
4.110000,2.419346,-0.358642,-1.483960,0.733892,0.334673,0.024065,-1.527912,-1.368508,0.225674,1.655138,1.004600,-2.062340,5.289677,14.145938,7.029935,-0.140082,0.158087,0.000000,0.126793,-0.199888,0.000000
4.120000,2.426609,-0.355363,-1.483708,0.718697,0.321041,0.026220,-1.511103,-1.357765,0.205411,1.706010,1.142762,-1.989712,4.927643,13.500597,7.386443,-0.138751,0.156052,0.000000,0.139242,-0.203168,0.000000
4.130000,2.433721,-0.352221,-1.483436,0.703672,0.307523,0.028176,-1.493799,-1.345672,0.185880,1.754592,1.274917,-1.916895,4.789832,12.929261,7.168160,-0.137299,0.153985,0.000000,0.151074,-0.206251,0.000000
4.140000,2.440683,-0.349213,-1.483146,0.688823,0.294132,0.029940,-1.476018,-1.332287,0.167071,1.800929,1.400989,-1.844363,4.433844,12.267359,7.437445,-0.135732,0.151888,0.000000,0.162295,-0.209151,-0.000000
4.150000,2.447498,-0.346338,-1.482838,0.674153,0.280881,0.031520,-1.457793,-1.317675,0.149003,1.843640,1.520382,-1.769133,4.151779,11.626864,7.499070,-0.134056,0.149765,0.000000,0.172818,-0.211685,-0.000000
4.160000,2.454167,-0.343594,-1.482516,0.659668,0.267782,0.032923,-1.439153,-1.301898,0.131686,1.883879,1.634085,-1.694287,3.870302,10.994255,7.530785,-0.132277,0.147617,0.000000,0.182788,-0.214021,0.000000
4.170000,2.460692,-0.340981,-1.482180,0.645371,0.254847,0.034156,-1.420127,-1.285024,0.115123,1.920812,1.739165,-1.618009,3.541702,10.136963,7.656929,-0.130403,0.145448,0.000000,0.191897,-0.216048,0.000000
4.180000,2.467075,-0.338497,-1.481833,0.631267,0.242085,0.035228,-1.400745,-1.267130,0.099323,1.955247,1.839245,-1.542563,3.346431,9.882676,7.426181,-0.128441,0.143260,0.000000,0.200542,-0.217883,0.000000
4.190000,2.473318,-0.336139,-1.481476,0.617358,0.229507,0.036145,-1.381030,-1.248254,0.084268,1.987242,1.934488,-1.468286,3.027566,9.049820,7.489346,-0.126393,0.141055,0.000000,0.208749,-0.219538,-0.000000
4.200000,2.479422,-0.333906,-1.481111,0.603647,0.217123,0.036916,-1.361011,-1.228471,0.069960,2.016029,2.021240,-1.393394,2.755314,8.417303,7.421844,-0.124269,0.138835,0.000000,0.216133,-0.220910,0.000000
4.210000,2.485391,-0.331796,-1.480738,0.590138,0.204941,0.037547,-1.340717,-1.207846,0.056396,2.042422,2.102685,-1.319586,2.489116,7.790825,7.337762,-0.122072,0.136603,0.000000,0.223039,-0.222105,0.000000
4.220000,2.491226,-0.329807,-1.480360,0.576834,0.192969,0.038046,-1.320175,-1.186445,0.043565,2.065505,2.176324,-1.246689,2.162256,7.017336,7.237460,-0.119810,0.134360,0.000000,0.229218,-0.223030,-0.000000
4.230000,2.496929,-0.327936,-1.479978,0.563736,0.181214,0.038420,-1.299414,-1.164337,0.031458,2.086394,2.244720,-1.174921,2.017392,6.665679,7.113356,-0.117489,0.132110,0.000000,0.234930,-0.223798,0.000000
4.240000,2.502501,-0.326182,-1.479592,0.550846,0.169684,0.038677,-1.278453,-1.141566,0.020063,2.105187,2.308062,-1.104446,1.708149,5.924054,6.980605,-0.115113,0.129854,0.000000,0.240195,-0.224420,0.000000
4.250000,2.507946,-0.324541,-1.479205,0.538167,0.158385,0.038824,-1.257321,-1.118202,0.009365,2.120865,2.363913,-1.035366,1.462682,5.327746,6.832087,-0.112688,0.127593,0.000000,0.244775,-0.224795,-0.000000
4.260000,2.513265,-0.323013,-1.478816,0.525700,0.147322,0.038867,-1.236042,-1.094304,-0.000648,2.134525,2.414672,-0.967433,1.226454,4.746007,6.679955,-0.110219,0.125330,0.000000,0.248905,-0.225029,0.000000
4.270000,2.518461,-0.321594,-1.478428,0.513447,0.136500,0.038813,-1.214642,-1.069934,-0.009995,2.145012,2.458137,-0.902469,0.914826,4.026536,6.381811,-0.107712,0.123066,0.000000,0.252386,-0.225026,-0.000000
4.280000,2.523535,-0.320282,-1.478040,0.501408,0.125924,0.038669,-1.193148,-1.045157,-0.018700,2.153740,2.496874,-0.838348,0.833346,3.725473,6.443255,-0.105173,0.120803,0.000000,0.255447,-0.224900,0.000000
4.290000,2.528490,-0.319075,-1.477655,0.489584,0.115598,0.038441,-1.171572,-1.020011,-0.026764,2.160841,2.531122,-0.775053,0.544885,3.048174,6.143376,-0.102604,0.118543,0.000000,0.258113,-0.224663,0.000000
4.300000,2.533327,-0.317970,-1.477272,0.477976,0.105525,0.038136,-1.149941,-0.994558,-0.034213,2.165030,2.558550,-0.714899,0.337126,2.518011,5.957718,-0.100013,0.116287,0.000000,0.260175,-0.224212,-0.000000
4.310000,2.538050,-0.316964,-1.476892,0.466585,0.095708,0.037759,-1.128277,-0.968854,-0.041065,2.167553,2.581569,-0.655897,0.137787,2.006933,5.770662,-0.097402,0.114037,0.000000,0.261849,-0.223645,-0.000000
4.320000,2.542660,-0.316055,-1.476517,0.455411,0.086149,0.037317,-1.106599,-0.942950,-0.047343,2.167528,2.597992,-0.600155,-0.111390,1.359349,5.446510,-0.094778,0.111793,0.000000,0.262936,-0.222898,-0.000000
4.330000,2.547159,-0.315240,-1.476146,0.444453,0.076849,0.036814,-1.084931,-0.916906,-0.053072,2.165981,2.610467,-0.545524,-0.195792,1.140723,5.481444,-0.092145,0.109559,0.000000,0.263677,-0.222045,0.000000
4.340000,2.551550,-0.314517,-1.475781,0.433712,0.067811,0.036257,-1.063284,-0.890753,-0.058256,2.163033,2.619265,-0.491931,-0.422755,0.541997,5.167070,-0.089505,0.107334,0.000000,0.264096,-0.221096,-0.000000
4.350000,2.555834,-0.313883,-1.475421,0.423187,0.059035,0.035651,-1.041678,-0.864543,-0.062922,2.157817,2.622041,-0.441592,-0.589653,0.095338,4.970297,-0.086865,0.105120,0.000000,0.263977,-0.219987,-0.000000
4.360000,2.560014,-0.313335,-1.475068,0.412878,0.050520,0.035000,-1.020131,-0.838324,-0.067091,2.151361,2.621003,-0.392468,-0.745473,-0.335268,4.777700,-0.084227,0.102918,0.000000,0.263519,-0.218797,-0.000000
4.370000,2.564092,-0.312871,-1.474721,0.402785,0.042268,0.034311,-0.998660,-0.812139,-0.070784,2.142518,2.615069,-0.346743,-0.977854,-0.814382,4.442059,-0.081596,0.100729,0.000000,0.262631,-0.217429,0.000000
4.380000,2.568070,-0.312489,-1.474382,0.392905,0.034277,0.033586,-0.977284,-0.786034,-0.074029,2.132755,2.605494,-0.302055,-0.972056,-1.096517,4.498248,-0.078975,0.098555,0.000000,0.261413,-0.216006,-0.000000
4.390000,2.571951,-0.312185,-1.474049,0.383239,0.026547,0.032831,-0.956007,-0.760041,-0.076828,2.122213,2.592505,-0.258281,-1.179331,-1.532794,4.181482,-0.076368,0.096395,0.000000,0.259886,-0.214538,-0.000000
4.400000,2.575736,-0.311957,-1.473725,0.373784,0.019076,0.032051,-0.934847,-0.734199,-0.079207,2.109573,2.575193,-0.217778,-1.303367,-1.892119,3.994955,-0.073779,0.094252,0.000000,0.257975,-0.212914,0.000000
4.410000,2.579427,-0.311803,-1.473409,0.364541,0.011862,0.031249,-0.913818,-0.708546,-0.081186,2.096017,2.554834,-0.178420,-1.421066,-2.229443,3.813745,-0.071210,0.092126,0.000000,0.255788,-0.211230,0.000000
4.420000,2.583027,-0.311719,-1.473100,0.355508,0.004904,0.030428,-0.892932,-0.683118,-0.082786,2.081043,2.530181,-0.142074,-1.558572,-2.646847,3.517430,-0.068664,0.090017,0.000000,0.253212,-0.209451,-0.000000
4.430000,2.586538,-0.311704,-1.472800,0.346682,-0.001801,0.029594,-0.872200,-0.657951,-0.084031,2.065167,2.503032,-0.106768,-1.614979,-2.778406,3.546383,-0.066146,0.087927,0.000000,0.250408,-0.207608,-0.000000
4.440000,2.589962,-0.311754,-1.472508,0.338063,-0.008256,0.028749,-0.851631,-0.633064,-0.084924,2.048480,2.473640,-0.072378,-1.735478,-3.148456,3.270321,-0.063657,0.085856,0.000000,0.247400,-0.205708,0.000000
4.450000,2.593300,-0.311868,-1.472225,0.329649,-0.014463,0.027897,-0.831235,-0.608491,-0.085489,2.030604,2.440563,-0.040819,-1.824728,-3.412584,3.103783,-0.061199,0.083805,0.000000,0.244054,-0.203729,0.000000
4.460000,2.596555,-0.312043,-1.471950,0.321438,-0.020427,0.027040,-0.811021,-0.584260,-0.085744,2.012049,2.405356,-0.010374,-1.906180,-3.658221,2.942370,-0.058776,0.081774,0.000000,0.240512,-0.201705,-0.000000
4.470000,2.599730,-0.312276,-1.471684,0.313428,-0.026150,0.026183,-0.790998,-0.560395,-0.085705,1.992308,2.367161,0.017643,-2.020623,-3.946413,2.703983,-0.056390,0.079764,0.000000,0.236693,-0.199593,0.000000
4.480000,2.602825,-0.312565,-1.471427,0.305617,-0.031636,0.025327,-0.771176,-0.536922,-0.085394,1.972084,2.327148,0.044607,-2.022594,-4.052223,2.690925,-0.054043,0.077776,0.000000,0.232705,-0.197452,0.000000
4.490000,2.605843,-0.312908,-1.471178,0.298004,-0.036889,0.024476,-0.751558,-0.513857,-0.084816,1.951463,2.285539,0.070622,-2.121206,-4.298415,2.470120,-0.051737,0.075809,0.000000,0.228568,-0.195289,-0.000000
4.500000,2.608785,-0.313302,-1.470937,0.290585,-0.041914,0.023632,-0.732151,-0.491220,-0.083990,1.929848,2.241507,0.094388,-2.179988,-4.473316,2.326232,-0.049473,0.073865,0.000000,0.224204,-0.193052,0.000000
4.510000,2.611655,-0.313745,-1.470705,0.283360,-0.046715,0.022797,-0.712962,-0.469031,-0.082931,1.907891,2.196095,0.117124,-2.232573,-4.630421,2.187763,-0.047253,0.071943,0.000000,0.219710,-0.190796,0.000000
4.520000,2.614453,-0.314235,-1.470481,0.276325,-0.051297,0.021974,-0.693996,-0.447305,-0.081655,1.885010,2.148734,0.137845,-2.321696,-4.815537,1.990005,-0.045079,0.070045,0.000000,0.215031,-0.188468,0.000000
4.530000,2.617182,-0.314770,-1.470265,0.269479,-0.055663,0.021164,-0.675262,-0.426059,-0.080177,1.861918,2.100328,0.157632,-2.295438,-4.862328,1.969139,-0.042953,0.068170,0.000000,0.210252,-0.186131,-0.000000
4.540000,2.619843,-0.315348,-1.470058,0.262819,-0.059819,0.020371,-0.656758,-0.405301,-0.078505,1.838682,2.051071,0.176573,-2.372620,-5.009944,1.786390,-0.040874,0.066319,0.000000,0.205390,-0.183790,0.000000
4.550000,2.622439,-0.315966,-1.469858,0.256343,-0.063771,0.019595,-0.638491,-0.385043,-0.076653,1.814662,2.000383,0.193656,-2.409890,-5.101723,1.664083,-0.038845,0.064492,0.000000,0.200391,-0.181388,-0.000000
4.560000,2.624971,-0.316623,-1.469666,0.250049,-0.067522,0.018838,-0.620466,-0.365295,-0.074635,1.790339,1.949190,0.209745,-2.446805,-5.175099,1.544411,-0.036867,0.062689,0.000000,0.195344,-0.178964,-0.000000
4.570000,2.627441,-0.317316,-1.469481,0.243933,-0.071078,0.018103,-0.602685,-0.346065,-0.072462,1.765802,1.896556,0.224464,-2.467565,-5.309735,1.409599,-0.034939,0.060910,0.000000,0.190153,-0.176530,-0.000000
4.580000,2.629850,-0.318044,-1.469304,0.237994,-0.074445,0.017390,-0.585152,-0.327364,-0.070149,1.740844,1.843874,0.238151,-2.524010,-5.223034,1.328626,-0.033063,0.059156,0.000000,0.184957,-0.174062,-0.000000
4.590000,2.632201,-0.318804,-1.469133,0.232229,-0.077627,0.016700,-0.567870,-0.309187,-0.067703,1.715473,1.791341,0.250852,-2.542670,-5.321196,1.202222,-0.031240,0.057427,0.000000,0.179776,-0.171560,0.000000
4.600000,2.634495,-0.319596,-1.468970,0.226636,-0.080631,0.016036,-0.550843,-0.291541,-0.065136,1.689927,1.737834,0.262285,-2.573050,-5.338324,1.094982,-0.029468,0.055723,0.000000,0.174495,-0.169048,-0.000000
4.610000,2.636734,-0.320416,-1.468812,0.221211,-0.083460,0.015398,-0.534072,-0.274429,-0.062460,1.664068,1.684515,0.272697,-2.601683,-5.343110,0.989681,-0.027750,0.054045,0.000000,0.169231,-0.166511,0.000000
4.620000,2.638920,-0.321264,-1.468662,0.215953,-0.086121,0.014787,-0.517562,-0.257852,-0.059685,1.637866,1.630831,0.282104,-2.635713,-5.372632,0.890226,-0.026084,0.052392,0.000000,0.163928,-0.163944,0.000000
4.630000,2.641054,-0.322138,-1.468517,0.210859,-0.088619,0.014204,-0.501316,-0.241811,-0.056822,1.611414,1.577501,0.290472,-2.654545,-5.290809,0.783709,-0.024471,0.050765,0.000000,0.158657,-0.161356,0.000000
4.640000,2.643138,-0.323036,-1.468377,0.205926,-0.090959,0.013651,-0.485335,-0.226300,-0.053879,1.584714,1.524664,0.297820,-2.688740,-5.294182,0.688148,-0.022911,0.049164,0.000000,0.153432,-0.158747,-0.000000
4.650000,2.645173,-0.323957,-1.468244,0.201152,-0.093147,0.013127,-0.469623,-0.211318,-0.050868,1.557663,1.471815,0.304225,-2.718783,-5.254798,0.591339,-0.021402,0.047589,0.000000,0.148202,-0.156105,-0.000000
4.660000,2.647161,-0.324899,-1.468115,0.196533,-0.095187,0.012634,-0.454183,-0.196861,-0.047798,1.530270,1.419609,0.309606,-2.751453,-5.204981,0.495172,-0.019946,0.046041,0.000000,0.143032,-0.153431,0.000000
4.670000,2.649104,-0.325860,-1.467991,0.192067,-0.097086,0.012171,-0.439018,-0.182926,-0.044679,1.502708,1.367559,0.314227,-2.769609,-5.184125,0.419400,-0.018542,0.044520,0.000000,0.137872,-0.150741,0.000000
4.680000,2.651003,-0.326840,-1.467871,0.187752,-0.098847,0.011740,-0.424130,-0.169507,-0.041517,1.474692,1.316363,0.317792,-2.834193,-5.053214,0.293634,-0.017189,0.043026,0.000000,0.132793,-0.148007,-0.000000
4.690000,2.652860,-0.327836,-1.467756,0.183584,-0.100477,0.011341,-0.409526,-0.156595,-0.038326,1.446187,1.266123,0.320302,-2.858783,-5.013271,0.218504,-0.015886,0.041559,0.000000,0.127806,-0.145224,-0.000000
4.700000,2.654675,-0.328849,-1.467644,0.179560,-0.101981,0.010974,-0.395207,-0.144184,-0.035114,1.417433,1.216287,0.322076,-2.900859,-4.933485,0.127160,-0.014632,0.040121,0.000000,0.122854,-0.142415,-0.000000
4.710000,2.656451,-0.329876,-1.467536,0.175678,-0.103363,0.010639,-0.381179,-0.132266,-0.031888,1.388113,1.167534,0.322800,-2.947429,-4.846086,0.035604,-0.013428,0.038711,0.000000,0.118006,-0.139549,-0.000000
4.720000,2.658189,-0.330916,-1.467431,0.171936,-0.104628,0.010336,-0.367445,-0.120833,-0.028659,1.358624,1.119105,0.322957,-2.966908,-4.810082,-0.021489,-0.012272,0.037330,0.000000,0.113184,-0.136663,0.000000
4.730000,2.659891,-0.331968,-1.467329,0.168329,-0.105781,0.010066,-0.354009,-0.109879,-0.025433,1.328427,1.071957,0.322006,-3.073552,-4.618051,-0.169077,-0.011164,0.035978,0.000000,0.108486,-0.133706,-0.000000
4.740000,2.661556,-0.333031,-1.467230,0.164854,-0.106827,0.009827,-0.340879,-0.099389,-0.022223,1.297461,1.026164,0.319931,-3.104457,-4.569384,-0.228208,-0.010102,0.034656,0.000000,0.103920,-0.130668,0.000000
4.750000,2.663188,-0.334104,-1.467133,0.161510,-0.107770,0.009621,-0.328061,-0.089355,-0.019036,1.266190,0.980824,0.317291,-3.166825,-4.469005,-0.316803,-0.009086,0.033364,0.000000,0.099393,-0.127597,-0.000000
4.760000,2.664787,-0.335186,-1.467037,0.158292,-0.108615,0.009446,-0.315558,-0.079768,-0.015881,1.234133,0.936730,0.313628,-3.234230,-4.367545,-0.404712,-0.008114,0.032104,0.000000,0.094986,-0.124443,0.000000
4.770000,2.666354,-0.336276,-1.466944,0.155198,-0.109367,0.009303,-0.303379,-0.070618,-0.012766,1.201590,0.893310,0.309300,-3.285968,-4.299347,-0.471375,-0.007186,0.030876,0.000000,0.090642,-0.121236,-0.000000
4.780000,2.667891,-0.337373,-1.466851,0.152223,-0.110029,0.009191,-0.291530,-0.061897,-0.009698,1.168172,0.851102,0.303978,-3.398839,-4.141987,-0.593383,-0.006301,0.029680,0.000000,0.086414,-0.117937,0.000000
4.790000,2.669399,-0.338476,-1.466760,0.149366,-0.110606,0.009109,-0.280019,-0.053592,-0.006689,1.133812,0.810115,0.297651,-3.463350,-4.073305,-0.660995,-0.005457,0.028517,0.000000,0.082305,-0.114539,-0.000000
4.800000,2.670879,-0.339585,-1.466669,0.146622,-0.111102,0.009057,-0.268855,-0.045693,-0.003747,1.098795,0.769773,0.290668,-3.551766,-3.978158,-0.746275,-0.004654,0.027389,0.000000,0.078255,-0.111069,-0.000000
4.810000,2.672332,-0.340698,-1.466579,0.143988,-0.111522,0.009034,-0.258047,-0.038193,-0.000880,1.062743,0.730425,0.282657,-3.646936,-3.888764,-0.832731,-0.003892,0.026296,0.000000,0.074301,-0.107490,0.000000
4.820000,2.673759,-0.341815,-1.466488,0.141460,-0.111868,0.009039,-0.247603,-0.031082,0.001905,1.025946,0.692009,0.274230,-3.725300,-3.798468,-0.875081,-0.003168,0.025239,0.000000,0.070435,-0.103829,-0.000000
4.830000,2.675162,-0.342935,-1.466398,0.139034,-0.112144,0.009072,-0.237532,-0.024350,0.004601,0.987970,0.654371,0.264686,-3.871347,-3.730344,-1.034168,-0.002483,0.024220,0.000000,0.066643,-0.100045,-0.000000
4.840000,2.676540,-0.344058,-1.466307,0.136708,-0.112356,0.009131,-0.227848,-0.017992,0.007195,0.948736,0.617440,0.254005,-3.964524,-3.653917,-1.079172,-0.001835,0.023239,0.000000,0.062917,-0.096128,0.000000
4.850000,2.677896,-0.345182,-1.466215,0.134476,-0.112506,0.009215,-0.218560,-0.011999,0.009680,0.908551,0.581239,0.242911,-4.084821,-3.590930,-1.161716,-0.001224,0.022298,0.000000,0.059260,-0.092108,-0.000000
4.860000,2.679230,-0.346308,-1.466122,0.132335,-0.112597,0.009324,-0.209681,-0.006365,0.012050,0.867078,0.545608,0.230895,-4.210779,-3.536847,-1.241398,-0.000649,0.021397,0.000000,0.055657,-0.087951,-0.000000
4.870000,2.680543,-0.347434,-1.466028,0.130281,-0.112634,0.009456,-0.201223,-0.001085,0.014295,0.824312,0.510468,0.218088,-4.343576,-3.492898,-1.319645,-0.000111,0.020539,0.000000,0.052098,-0.083658,0.000000
4.880000,2.681836,-0.348560,-1.465933,0.128309,-0.112620,0.009609,-0.193199,0.003845,0.016409,0.780184,0.475713,0.204507,-4.483395,-3.460088,-1.396320,0.000393,0.019725,0.000000,0.048573,-0.079220,0.000000
4.890000,2.683109,-0.349686,-1.465836,0.126416,-0.112558,0.009784,-0.185624,0.008430,0.018383,0.734620,0.441226,0.190168,-4.630476,-3.439422,-1.471270,0.000861,0.018955,0.000000,0.045071,-0.074630,-0.000000
4.900000,2.684364,-0.350811,-1.465737,0.124595,-0.112452,0.009977,-0.178512,0.012670,0.020210,0.687552,0.406881,0.175087,-4.784689,-3.431865,-1.544450,0.001294,0.018232,0.000000,0.041580,-0.069882,-0.000000
4.910000,2.685602,-0.351935,-1.465637,0.122844,-0.112306,0.010187,-0.171878,0.016568,0.021882,0.638902,0.372541,0.159285,-4.946504,-3.438466,-1.615648,0.001692,0.017558,0.000000,0.038084,-0.064967,0.000000
4.920000,2.686822,-0.353057,-1.465534,0.121156,-0.112122,0.010414,-0.165739,0.020121,0.023393,0.588596,0.338061,0.142781,-5.115985,-3.460211,-1.684764,0.002056,0.016934,0.000000,0.034570,-0.059879,0.000000
4.930000,2.688025,-0.354177,-1.465428,0.119527,-0.111905,0.010655,-0.160112,0.023328,0.024736,0.536556,0.303283,0.125597,-5.293324,-3.498105,-1.751676,0.002384,0.016361,0.000000,0.031022,-0.054608,-0.000000
4.940000,2.689212,-0.355295,-1.465321,0.117952,-0.111657,0.010908,-0.155014,0.026185,0.025903,0.482702,0.268042,0.107756,-5.478776,-3.553164,-1.816251,0.002676,0.015842,0.000000,0.027424,-0.049148,-0.000000
4.950000,2.690384,-0.356411,-1.465210,0.116425,-0.111382,0.011172,-0.150464,0.028687,0.026889,0.426957,0.232160,0.089281,-5.672043,-3.626317,-1.878288,0.002932,0.015379,0.000000,0.023756,-0.043491,0.000000
4.960000,2.691541,-0.357523,-1.465097,0.114941,-0.111084,0.011445,-0.146482,0.030825,0.027687,0.369235,0.195452,0.070199,-5.873817,-3.718650,-1.937765,0.003151,0.014973,0.000000,0.020002,-0.037629,-0.000000
4.970000,2.692683,-0.358632,-1.464981,0.113494,-0.110767,0.011725,-0.143087,0.032592,0.028291,0.309453,0.157720,0.050535,-6.084071,-3.831134,-1.994509,0.003332,0.014627,0.000000,0.016141,-0.031553,-0.000000
4.980000,2.693811,-0.359738,-1.464863,0.112077,-0.110434,0.012010,-0.140300,0.033976,0.028695,0.247525,0.118758,0.030318,-6.302943,-3.964769,-2.048378,0.003473,0.014343,0.000000,0.012152,-0.025256,0.000000
4.990000,2.694925,-0.360841,-1.464741,0.110685,-0.110089,0.012298,-0.138143,0.034962,0.028895,0.183365,0.078351,0.009578,-6.530524,-4.120547,-2.099203,0.003574,0.014123,0.000000,0.008014,-0.018729,0.000000
5.000000,2.696025,-0.361940,-1.464617,0.109312,-0.109736,0.012587,-0.136640,0.035537,0.028885,0.116885,0.036270,-0.011655,-6.766825,-4.299455,-2.146752,0.003633,0.013969,0.000000,0.003704,-0.011964,-0.000000
