time,x,y,z,vx,vy,vz,ax,ay,az,jx,jy,jz,sx,sy,sz,roll,pitch,yaw,p,q,r
0.000000,-2.998349,0.767371,-1.328782,0.011498,-0.022611,0.001647,-0.007531,0.197401,-0.059692,-0.036248,9.005065,-2.276067,39.109872,-83.677932,62.027426,0.019998,0.000763,0.000000,0.907420,0.003496,-0.000000
0.010000,-2.998234,0.767145,-1.328765,0.011423,-0.020637,0.001050,-0.007894,0.287452,-0.082452,0.354850,8.168286,-1.655793,64.353700,-347.939665,141.829591,0.029050,0.000798,0.000000,0.820153,-0.035989,0.000000
0.020000,-2.998121,0.766958,-1.328761,0.011340,-0.016862,-0.000002,-0.000434,0.360767,-0.092807,1.250826,2.046272,0.560525,79.030642,-565.182875,175.732237,0.036415,0.000044,0.000000,0.208421,-0.126224,-0.000000
0.030000,-2.998007,0.766808,-1.328765,0.011414,-0.013422,-0.000806,0.017123,0.328377,-0.071242,1.935463,-3.135372,1.858852,51.082045,-249.163004,37.669916,0.033220,-0.001733,0.000000,-0.310721,-0.196090,-0.000000
0.040000,-2.997892,0.766690,-1.328777,0.011683,-0.010294,-0.001427,0.038275,0.298060,-0.055630,2.272466,-2.936988,1.313923,31.505469,18.990600,-49.745438,0.030203,-0.003880,0.000000,-0.293432,-0.230750,-0.000000
0.050000,-2.997774,0.766602,-1.328794,0.012180,-0.007460,-0.001919,0.062572,0.269638,-0.044963,2.565573,-2.755560,0.863943,27.228986,17.358071,-40.837574,0.027353,-0.006349,0.000000,-0.277045,-0.260782,0.000000
0.060000,-2.997649,0.766541,-1.328815,0.012934,-0.004902,-0.002326,0.089586,0.242948,-0.038352,2.817046,-2.589827,0.497171,23.177513,15.848849,-33.066281,0.024663,-0.009096,0.000000,-0.261619,-0.286391,-0.000000
0.070000,-2.997515,0.766504,-1.328840,0.013971,-0.002601,-0.002686,0.118913,0.217841,-0.035020,3.029123,-2.438583,0.202617,19.348139,14.457701,-26.356589,0.022122,-0.012078,0.000000,-0.247185,-0.307809,0.000000
0.080000,-2.997369,0.766489,-1.328869,0.015312,-0.000545,-0.003027,0.150169,0.194177,-0.034299,3.204009,-2.300673,-0.029960,15.737984,13.179386,-20.633542,0.019720,-0.015253,0.000000,-0.233746,-0.325283,0.000000
0.090000,-2.997209,0.766493,-1.328901,0.016975,0.001282,-0.003372,0.182993,0.171828,-0.035619,3.343882,-2.174995,-0.210053,12.344165,12.008676,-15.822160,0.017447,-0.018584,0.000000,-0.221287,-0.339066,0.000000
0.100000,-2.997030,0.766514,-1.328936,0.018972,0.002892,-0.003739,0.217047,0.150677,-0.038500,3.450892,-2.060499,-0.346403,9.163805,10.940348,-11.847453,0.015295,-0.022035,0.000000,-0.209776,-0.349412,0.000000
0.110000,-2.996829,0.766551,-1.328976,0.021316,0.004296,-0.004142,0.252011,0.130618,-0.042547,3.527159,-1.956188,-0.447002,6.193984,9.969156,-8.634472,0.013252,-0.025573,0.000000,-0.199169,-0.356570,0.000000
0.120000,-2.996604,0.766600,-1.329019,0.024013,0.005504,-0.004590,0.287590,0.111553,-0.047440,3.574772,-1.861116,-0.519093,3.431799,9.089870,-6.108246,0.011311,-0.029167,0.000000,-0.189413,-0.360781,0.000000
0.130000,-2.996349,0.766661,-1.329067,0.027068,0.006527,-0.005091,0.323507,0.093395,-0.052929,3.595795,-1.774391,-0.569167,0.874377,8.297264,-4.193792,0.009464,-0.032788,0.000000,-0.180451,-0.362278,0.000000
0.140000,-2.996062,0.766731,-1.329121,0.030483,0.007372,-0.005649,0.359506,0.076065,-0.058824,3.592259,-1.695171,-0.602969,-1.481188,7.586083,-2.816166,0.007702,-0.036412,0.000000,-0.172218,-0.361285,-0.000000
0.150000,-2.995740,0.766808,-1.329180,0.034258,0.008048,-0.006267,0.395352,0.059492,-0.064988,3.566171,-1.622669,-0.625491,-3.637785,6.951107,-1.900377,0.006020,-0.040014,0.000000,-0.164651,-0.358015,-0.000000
0.160000,-2.995377,0.766892,-1.329246,0.038390,0.008562,-0.006949,0.430829,0.043612,-0.071333,3.519504,-1.556149,-0.640976,-5.598293,6.387131,-1.371423,0.004409,-0.043573,0.000000,-0.157685,-0.352675,-0.000000
0.170000,-2.994972,0.766980,-1.329319,0.042874,0.008920,-0.007694,0.465742,0.028369,-0.077808,3.454205,-1.494926,-0.652919,-7.363899,5.888435,-1.142724,0.002866,-0.047068,0.000000,-0.151256,-0.345462,-0.000000
0.180000,-2.994520,0.767070,-1.329400,0.047705,0.009129,-0.008505,0.499913,0.013713,-0.084392,3.372226,-1.438380,-0.663831,-8.907342,5.441788,-0.935769,0.001384,-0.050482,0.000000,-0.145304,-0.336573,-0.000000
0.190000,-2.994018,0.767162,-1.329489,0.052872,0.009195,-0.009382,0.533186,-0.000399,-0.091085,3.276058,-1.386091,-0.671635,-10.241930,5.044743,-0.745942,-0.000040,-0.053799,0.000000,-0.139788,-0.326280,-0.000000
0.200000,-2.993462,0.767254,-1.329588,0.058368,0.009121,-0.010326,0.565434,-0.014008,-0.097825,3.167387,-1.337485,-0.678750,-11.593120,4.750971,-2.000309,-0.001412,-0.057008,0.000000,-0.134651,-0.314750,-0.000000
0.210000,-2.992850,0.767345,-1.329696,0.064181,0.008914,-0.011338,0.596534,-0.027148,-0.104660,3.044196,-1.291071,-0.711641,-12.939963,4.548912,-4.462990,-0.002733,-0.060094,0.000000,-0.129737,-0.301628,-0.000000
0.220000,-2.992179,0.767432,-1.329815,0.070299,0.008578,-0.012420,0.626318,-0.039830,-0.112057,2.908588,-1.246507,-0.768009,-13.647980,4.264351,-3.752300,-0.004006,-0.063040,0.000000,-0.124996,-0.287111,0.000000
0.230000,-2.991444,0.767516,-1.329944,0.076708,0.008118,-0.013579,0.654706,-0.052079,-0.120020,2.771236,-1.205784,-0.786687,-13.722398,3.887228,0.281824,-0.005233,-0.065837,0.000000,-0.120653,-0.272664,-0.000000
0.240000,-2.990644,0.767595,-1.330086,0.083393,0.007537,-0.014820,0.681743,-0.063946,-0.127791,2.634140,-1.168762,-0.762373,-14.047276,3.647378,1.736068,-0.006419,-0.068494,0.000000,-0.116721,-0.258578,0.000000
0.250000,-2.989776,0.767667,-1.330241,0.090342,0.006839,-0.016135,0.707389,-0.075454,-0.135267,2.490291,-1.132837,-0.751965,-14.616130,3.577309,0.079035,-0.007568,-0.071009,0.000000,-0.112910,-0.243781,0.000000
0.260000,-2.988838,0.767732,-1.330409,0.097541,0.006028,-0.017525,0.731549,-0.086602,-0.142830,2.341817,-1.097216,-0.760792,-14.854629,3.514726,-0.646839,-0.008678,-0.073370,0.000000,-0.109128,-0.228430,0.000000
0.270000,-2.987826,0.767788,-1.330591,0.104973,0.005107,-0.018992,0.754225,-0.097398,-0.150483,2.193198,-1.062542,-0.764902,-15.014422,3.404740,-0.122122,-0.009750,-0.075577,0.000000,-0.105455,-0.213143,-0.000000
0.280000,-2.986738,0.767834,-1.330789,0.112625,0.004080,-0.020535,0.775413,-0.107853,-0.158128,2.041529,-1.029121,-0.763235,-15.330439,3.298808,0.255744,-0.010787,-0.077633,0.000000,-0.101927,-0.197642,0.000000
0.290000,-2.985573,0.767869,-1.331002,0.120482,0.002950,-0.022154,0.795056,-0.117981,-0.165748,1.886589,-0.996566,-0.759787,-15.426564,3.252432,0.433610,-0.011789,-0.079531,0.000000,-0.098501,-0.181879,0.000000
0.300000,-2.984329,0.767893,-1.331232,0.128526,0.001720,-0.023850,0.813145,-0.127784,-0.173324,1.732998,-0.964073,-0.754562,-15.180645,3.263460,0.616065,-0.012757,-0.081271,0.000000,-0.095097,-0.166316,0.000000
0.310000,-2.983003,0.767904,-1.331479,0.136745,0.000394,-0.025621,0.829715,-0.137262,-0.180839,1.582976,-0.931297,-0.747466,-14.877949,3.292992,0.789009,-0.013691,-0.082857,0.000000,-0.091682,-0.151173,-0.000000
0.320000,-2.981594,0.767901,-1.331744,0.145121,-0.001025,-0.027467,0.844804,-0.146410,-0.188274,1.435439,-0.898213,-0.738782,-14.742608,3.330550,0.919072,-0.014591,-0.084295,0.000000,-0.088253,-0.136337,0.000000
0.330000,-2.980100,0.767883,-1.332028,0.153641,-0.002534,-0.029386,0.858424,-0.155226,-0.195615,1.288124,-0.864686,-0.729084,-14.699278,3.387087,1.013660,-0.015456,-0.085585,0.000000,-0.084796,-0.121579,0.000000
0.340000,-2.978521,0.767850,-1.332332,0.162289,-0.004130,-0.031379,0.870567,-0.163704,-0.202855,1.141453,-0.830471,-0.718509,-14.482882,3.469767,1.117383,-0.016287,-0.086727,0.000000,-0.081287,-0.106937,0.000000
0.350000,-2.976854,0.767800,-1.332656,0.171052,-0.005808,-0.033444,0.881253,-0.171836,-0.209985,0.998467,-0.795290,-0.706737,-14.045834,3.576029,1.238056,-0.017082,-0.087724,0.000000,-0.077698,-0.092713,-0.000000
0.360000,-2.975100,0.767734,-1.333001,0.179914,-0.007566,-0.035579,0.890536,-0.179610,-0.216990,0.860536,-0.758951,-0.693748,-13.579069,3.698903,1.346287,-0.017841,-0.088581,0.000000,-0.074011,-0.079041,-0.000000
0.370000,-2.973256,0.767649,-1.333367,0.188863,-0.009400,-0.037783,0.898464,-0.187015,-0.223860,0.726885,-0.721312,-0.679811,-13.224058,3.836563,1.427996,-0.018562,-0.089305,0.000000,-0.070210,-0.065837,-0.000000
0.380000,-2.971323,0.767546,-1.333756,0.197884,-0.011307,-0.040056,0.905074,-0.194036,-0.230586,0.596055,-0.682219,-0.665188,-12.929954,3.989208,1.494047,-0.019245,-0.089899,0.000000,-0.066280,-0.052953,0.000000
0.390000,-2.969298,0.767423,-1.334168,0.206964,-0.013281,-0.042395,0.910385,-0.200659,-0.237163,0.468286,-0.641528,-0.649930,-12.530350,4.155317,1.562804,-0.019888,-0.090364,0.000000,-0.062207,-0.040408,0.000000
0.400000,-2.967183,0.767280,-1.334604,0.216091,-0.015320,-0.044799,0.914439,-0.206867,-0.243585,0.345448,-0.599113,-0.633932,-11.996338,4.334261,1.634172,-0.020489,-0.090707,0.000000,-0.057978,-0.028385,0.000000
0.410000,-2.964977,0.767117,-1.335064,0.225253,-0.017418,-0.047267,0.917294,-0.212641,-0.249842,0.228359,-0.554843,-0.617247,-11.447598,4.524533,1.697599,-0.021047,-0.090932,0.000000,-0.053578,-0.016960,-0.000000
0.420000,-2.962678,0.766932,-1.335550,0.234437,-0.019573,-0.049796,0.919006,-0.217964,-0.255930,0.116496,-0.508622,-0.599980,-10.971641,4.721342,1.756449,-0.021561,-0.091046,0.000000,-0.049000,-0.006079,-0.000000
0.430000,-2.960288,0.766725,-1.336060,0.243633,-0.021778,-0.052385,0.919624,-0.222814,-0.261842,0.008926,-0.460416,-0.582118,-10.536524,4.922677,1.816344,-0.022027,-0.091054,0.000000,-0.044238,0.004354,0.000000
0.440000,-2.957806,0.766496,-1.336597,0.252830,-0.024029,-0.055033,0.919185,-0.227172,-0.267572,-0.094234,-0.410169,-0.563653,-10.039578,5.131727,1.873559,-0.022445,-0.090959,0.000000,-0.039287,0.014330,0.000000
0.450000,-2.955231,0.766245,-1.337161,0.262017,-0.026321,-0.057737,0.917739,-0.231017,-0.273115,-0.191865,-0.357782,-0.544647,-9.463454,5.350388,1.923164,-0.022813,-0.090767,0.000000,-0.034136,0.023742,-0.000000
0.460000,-2.952565,0.765970,-1.337752,0.271184,-0.028649,-0.060495,0.915348,-0.234328,-0.278465,-0.283503,-0.303161,-0.525190,-8.882056,5.573810,1.969679,-0.023128,-0.090484,0.000000,-0.028776,0.032548,0.000000
0.470000,-2.949808,0.765672,-1.338371,0.280324,-0.031008,-0.063306,0.912069,-0.237080,-0.283619,-0.369506,-0.246305,-0.505253,-8.348442,5.791900,2.028196,-0.023389,-0.090116,0.000000,-0.023206,0.040787,0.000000
0.480000,-2.946959,0.765350,-1.339018,0.289426,-0.033391,-0.066168,0.907958,-0.239254,-0.288570,-0.450472,-0.187323,-0.484626,-7.842911,6.003572,2.099700,-0.023592,-0.089668,0.000000,-0.017436,0.048516,-0.000000
0.490000,-2.944019,0.765004,-1.339694,0.298483,-0.035793,-0.069077,0.903060,-0.240827,-0.293311,-0.526364,-0.126234,-0.463259,-7.303586,6.219232,2.165371,-0.023737,-0.089146,0.000000,-0.011468,0.055735,0.000000
0.500000,-2.940989,0.764634,-1.340400,0.307487,-0.038207,-0.072034,0.897430,-0.241778,-0.297835,-0.596544,-0.062938,-0.441319,-6.720181,6.442665,2.217293,-0.023822,-0.088553,0.000000,-0.005291,0.062385,-0.000000
0.510000,-2.937869,0.764240,-1.341135,0.316431,-0.040628,-0.075034,0.891129,-0.242086,-0.302137,-0.660768,0.002619,-0.418913,-6.137421,6.664283,2.269917,-0.023843,-0.087898,0.000000,0.001101,0.068444,-0.000000
0.520000,-2.934660,0.763821,-1.341900,0.325310,-0.043049,-0.078076,0.884215,-0.241726,-0.306213,-0.719292,0.070347,-0.395920,-5.587432,6.870063,2.344926,-0.023800,-0.087184,0.000000,0.007701,0.073938,0.000000
0.530000,-2.931363,0.763379,-1.342697,0.334116,-0.045463,-0.081158,0.876743,-0.240679,-0.310056,-0.772517,0.140021,-0.372015,-5.058410,7.060565,2.439721,-0.023689,-0.086418,0.000000,0.014485,0.078905,0.000000
0.540000,-2.927978,0.762912,-1.343524,0.342844,-0.047863,-0.084278,0.868765,-0.238926,-0.313654,-0.820460,0.211559,-0.347126,-4.513150,7.251560,2.526729,-0.023510,-0.085606,0.000000,0.021447,0.083349,0.000000
0.550000,-2.924506,0.762421,-1.344382,0.351491,-0.050241,-0.087432,0.860334,-0.236447,-0.316998,-0.862780,0.285052,-0.321480,-3.945676,7.447778,2.597488,-0.023260,-0.084751,0.000000,0.028597,0.087239,0.000000
0.560000,-2.920948,0.761907,-1.345272,0.360051,-0.052592,-0.090618,0.851509,-0.233224,-0.320083,-0.899374,0.360514,-0.295176,-3.383058,7.636331,2.671718,-0.022938,-0.083860,0.000000,0.035938,0.090568,-0.000000
0.570000,-2.917305,0.761370,-1.346194,0.368521,-0.054906,-0.093833,0.842346,-0.229237,-0.322902,-0.930441,0.437778,-0.268046,-2.844501,7.801695,2.771046,-0.022541,-0.082939,0.000000,0.043454,0.093354,0.000000
0.580000,-2.913578,0.760809,-1.347149,0.376898,-0.057176,-0.097076,0.832900,-0.224469,-0.325444,-0.956264,0.516548,-0.239755,-2.323009,7.945824,2.890413,-0.022069,-0.081993,0.000000,0.051117,0.095623,0.000000
0.590000,-2.909767,0.760226,-1.348136,0.385179,-0.059395,-0.100342,0.823221,-0.218906,-0.327697,-0.976901,0.596695,-0.210237,-1.796618,8.086739,3.002035,-0.021519,-0.081026,0.000000,0.058915,0.097382,0.000000
0.600000,-2.905874,0.759621,-1.349156,0.393363,-0.061555,-0.103630,0.813362,-0.212535,-0.329649,-0.992196,0.678283,-0.179714,-1.261868,8.229226,3.098721,-0.020891,-0.080045,0.000000,0.066856,0.098619,-0.000000
0.610000,-2.901900,0.758995,-1.350209,0.401446,-0.063646,-0.106935,0.803377,-0.205341,-0.331291,-1.002138,0.761279,-0.148263,-0.734990,8.359310,3.199638,-0.020182,-0.079053,0.000000,0.074939,0.099332,0.000000
0.620000,-2.897845,0.758348,-1.351294,0.409430,-0.065661,-0.110255,0.793319,-0.197309,-0.332614,-1.006896,0.845469,-0.115722,-0.227701,8.462160,3.322281,-0.019392,-0.078058,0.000000,0.083143,0.099538,-0.000000
0.630000,-2.893711,0.757682,-1.352414,0.417313,-0.067592,-0.113587,0.783239,-0.188431,-0.333606,-1.006692,0.930523,-0.081817,0.264005,8.540521,3.460946,-0.018519,-0.077062,0.000000,0.091439,0.099258,0.000000
0.640000,-2.889499,0.756996,-1.353566,0.425095,-0.069430,-0.116927,0.773186,-0.178699,-0.334251,-1.001616,1.016279,-0.046503,0.753334,8.611859,3.592789,-0.017563,-0.076072,0.000000,0.099811,0.098499,-0.000000
0.650000,-2.885209,0.756293,-1.354752,0.432777,-0.071166,-0.120272,0.763207,-0.168106,-0.334536,-0.991626,1.102760,-0.009962,1.242401,8.680403,3.712671,-0.016523,-0.075092,0.000000,0.108264,0.097260,-0.000000
0.660000,-2.880844,0.755573,-1.355972,0.440359,-0.072792,-0.123618,0.753353,-0.156644,-0.334450,-0.976768,1.189887,0.027751,1.721232,8.732989,3.835739,-0.015398,-0.074127,0.000000,0.116793,0.095544,-0.000000
0.670000,-2.876402,0.754837,-1.357225,0.447844,-0.074299,-0.126961,0.743672,-0.144308,-0.333981,-0.957201,1.277420,0.066753,2.182333,8.756947,3.973429,-0.014187,-0.073181,0.000000,0.125376,0.093368,0.000000
0.680000,-2.871887,0.754087,-1.358511,0.455232,-0.075678,-0.130298,0.734209,-0.131095,-0.333115,-0.933121,1.365026,0.107219,2.628053,8.755194,4.120589,-0.012890,-0.072259,0.000000,0.133982,0.090747,0.000000
0.690000,-2.867298,0.753324,-1.359831,0.462528,-0.076921,-0.133624,0.725009,-0.117007,-0.331836,-0.904640,1.452523,0.149165,3.066626,8.742756,4.261931,-0.011507,-0.071366,0.000000,0.142596,0.087693,0.000000
0.700000,-2.862636,0.752549,-1.361183,0.469733,-0.078018,-0.136935,0.716116,-0.102045,-0.330132,-0.871789,1.539881,0.192458,3.498936,8.723220,4.394929,-0.010038,-0.070505,0.000000,0.151217,0.084209,-0.000000
0.710000,-2.857903,0.751763,-1.362569,0.476850,-0.078962,-0.140226,0.707573,-0.086210,-0.327987,-0.834661,1.626988,0.237064,3.918614,8.685468,4.529095,-0.008483,-0.069681,0.000000,0.159837,0.080304,0.000000
0.720000,-2.853099,0.750969,-1.363988,0.483884,-0.079743,-0.143494,0.699423,-0.069505,-0.325390,-0.793417,1.713591,0.283040,4.321927,8.618922,4.668726,-0.006841,-0.068899,0.000000,0.168434,0.075991,0.000000
0.730000,-2.848225,0.750168,-1.365439,0.490839,-0.080352,-0.146734,0.691705,-0.051938,-0.322326,-0.748223,1.799366,0.330438,4.710379,8.526253,4.809919,-0.005114,-0.068161,0.000000,0.176978,0.071286,0.000000
0.740000,-2.843282,0.749362,-1.366923,0.497718,-0.080781,-0.149941,0.684459,-0.033518,-0.318781,-0.699209,1.884116,0.379238,5.087514,8.420178,4.946427,-0.003302,-0.067473,0.000000,0.185452,0.066199,-0.000000
0.750000,-2.838271,0.748553,-1.368438,0.504528,-0.081022,-0.153110,0.677721,-0.014256,-0.314742,-0.646473,1.967770,0.429367,5.453033,8.303179,5.077984,-0.001405,-0.066837,0.000000,0.193853,0.060740,0.000000
0.760000,-2.833192,0.747742,-1.369985,0.511273,-0.081066,-0.156236,0.671529,0.005838,-0.310194,-0.590148,2.050179,0.480798,5.803905,8.166048,5.207721,0.000576,-0.066258,0.000000,0.202168,0.054920,-0.000000
0.770000,-2.828045,0.746931,-1.371563,0.517958,-0.080906,-0.159314,0.665918,0.026748,-0.305126,-0.530394,2.131091,0.533521,6.139438,8.001789,5.334319,0.002639,-0.065739,0.000000,0.210375,0.048752,-0.000000
0.780000,-2.822833,0.746124,-1.373171,0.524591,-0.080531,-0.162338,0.660921,0.048459,-0.299524,-0.467360,2.210215,0.587484,6.459924,7.812838,5.455782,0.004783,-0.065283,0.000000,0.218447,0.042249,0.000000
0.790000,-2.817554,0.745321,-1.374809,0.531177,-0.079936,-0.165304,0.656571,0.070952,-0.293376,-0.401196,2.287348,0.642637,6.765176,7.607454,5.572911,0.007008,-0.064894,0.000000,0.226369,0.035425,0.000000
0.800000,-2.812209,0.744525,-1.376477,0.537722,-0.079112,-0.168206,0.652897,0.094206,-0.286671,-0.332056,2.362364,0.698942,7.056152,7.387113,5.686134,0.009311,-0.064575,0.000000,0.234128,0.028292,0.000000
0.810000,-2.806799,0.743739,-1.378173,0.544235,-0.078052,-0.171037,0.649930,0.118200,-0.279397,-0.260073,2.435090,0.756359,7.332208,7.145875,5.793836,0.011690,-0.064328,0.000000,0.241711,0.020860,0.000000
0.820000,-2.801324,0.742964,-1.379898,0.550721,-0.076748,-0.173794,0.647696,0.142908,-0.271544,-0.185412,2.505282,0.814819,7.588811,6.879310,5.893329,0.014145,-0.064158,0.000000,0.249096,0.013143,-0.000000
0.830000,-2.795785,0.742204,-1.381649,0.557189,-0.075194,-0.176468,0.646221,0.168305,-0.263101,-0.108297,2.572676,0.874226,7.825775,6.588562,5.984010,0.016673,-0.064065,0.000000,0.256258,0.005161,-0.000000
0.840000,-2.790181,0.741460,-1.383427,0.563645,-0.073382,-0.179056,0.645530,0.194362,-0.254059,-0.028896,2.637053,0.934499,8.048338,6.278975,6.068274,0.019270,-0.064054,0.000000,0.263177,-0.003071,-0.000000
0.850000,-2.784512,0.740736,-1.385230,0.570099,-0.071307,-0.181550,0.645643,0.221046,-0.244411,0.052670,2.698256,0.995591,8.254894,5.954740,6.148202,0.021936,-0.064127,0.000000,0.269840,-0.011547,0.000000
0.860000,-2.778779,0.740034,-1.387058,0.576558,-0.068961,-0.183944,0.646583,0.248327,-0.234147,0.136202,2.756148,1.057463,8.441453,5.611773,6.221036,0.024667,-0.064285,0.000000,0.276234,-0.020248,0.000000
0.870000,-2.772981,0.739357,-1.388909,0.583031,-0.066340,-0.186232,0.648368,0.276169,-0.223262,0.221499,2.810491,1.120012,8.612511,5.237889,6.279064,0.027461,-0.064532,0.000000,0.282336,-0.029157,-0.000000
0.880000,-2.767118,0.738707,-1.390783,0.589526,-0.063438,-0.188409,0.651013,0.304537,-0.211747,0.308452,2.860906,1.183045,8.768984,4.833336,6.322044,0.030314,-0.064869,0.000000,0.288109,-0.038267,0.000000
0.890000,-2.761190,0.738088,-1.392678,0.596051,-0.060250,-0.190467,0.654537,0.333387,-0.199601,0.396879,2.907158,1.246453,8.903504,4.414616,6.359358,0.033224,-0.065298,0.000000,0.293529,-0.047563,0.000000
0.900000,-2.755197,0.737502,-1.394592,0.602616,-0.056770,-0.192401,0.658951,0.362680,-0.186818,0.486522,2.949198,1.310232,9.016119,3.987965,6.393171,0.036185,-0.065821,0.000000,0.298592,-0.057022,0.000000
0.910000,-2.749138,0.736953,-1.396526,0.609230,-0.052996,-0.194204,0.664267,0.392371,-0.173396,0.577201,2.986917,1.374316,9.111131,3.541928,6.416204,0.039196,-0.066439,0.000000,0.303286,-0.066629,0.000000
0.920000,-2.743012,0.736442,-1.398476,0.615902,-0.048923,-0.195869,0.670495,0.422418,-0.159332,0.668744,3.020036,1.438556,9.184880,3.061692,6.422417,0.042251,-0.067155,0.000000,0.307583,-0.076371,-0.000000
0.930000,-2.736820,0.735974,-1.400443,0.622640,-0.044548,-0.197390,0.677642,0.452772,-0.144625,0.760899,3.048151,1.502765,9.236119,2.548989,6.413370,0.045347,-0.067968,0.000000,0.311440,-0.086224,-0.000000
0.940000,-2.730560,0.735551,-1.402424,0.629455,-0.039867,-0.198762,0.685713,0.483381,-0.129277,0.853467,3.071016,1.566823,9.269166,2.024064,6.395860,0.048480,-0.068881,0.000000,0.314830,-0.096172,-0.000000
0.950000,-2.724231,0.735177,-1.404418,0.636354,-0.034880,-0.199976,0.694711,0.514192,-0.113288,0.946282,3.088632,1.630682,9.277551,1.502693,6.371688,0.051644,-0.069894,0.000000,0.317751,-0.106201,0.000000
0.960000,-2.717833,0.734854,-1.406424,0.643349,-0.029584,-0.201027,0.704638,0.545154,-0.096663,1.039018,3.101070,1.694257,9.258166,0.970651,6.335587,0.054835,-0.071008,0.000000,0.320208,-0.116281,-0.000000
0.970000,-2.711364,0.734585,-1.408439,0.650447,-0.023977,-0.201909,0.715492,0.576214,-0.079403,1.131445,3.108045,1.757394,9.229840,0.386396,6.281600,0.058049,-0.072223,0.000000,0.322168,-0.126391,0.000000
0.980000,-2.704824,0.734374,-1.410462,0.657659,-0.018059,-0.202615,0.727267,0.607315,-0.061515,1.223615,3.108798,1.819889,9.192273,-0.246110,6.210367,0.061279,-0.073540,0.000000,0.323550,-0.136537,0.000000
0.990000,-2.698211,0.734224,-1.412491,0.664992,-0.011831,-0.203140,0.739964,0.638390,-0.043006,1.315291,3.103123,1.881601,9.118540,-0.869605,6.129072,0.064520,-0.074960,0.000000,0.324328,-0.146698,0.000000
1.000000,-2.691524,0.734138,-1.414525,0.672458,-0.005291,-0.203475,0.753573,0.669377,-0.023883,1.405985,3.091406,1.942471,9.016477,-1.477423,6.042106,0.067766,-0.076481,0.000000,0.324537,-0.156826,-0.000000
1.010000,-2.684761,0.734118,-1.416561,0.680064,0.001557,-0.203617,0.768084,0.700218,-0.004156,1.495620,3.073575,2.002443,8.902550,-2.106928,5.943888,0.071011,-0.078104,0.000000,0.324164,-0.166916,-0.000000
1.020000,-2.677922,0.734169,-1.418597,0.687820,0.008713,-0.203559,0.783486,0.730849,0.016166,1.584036,3.049267,2.061348,8.745412,-2.763418,5.821816,0.074249,-0.079828,0.000000,0.323166,-0.176951,-0.000000
1.030000,-2.671005,0.734292,-1.420632,0.695734,0.016174,-0.203294,0.799764,0.761203,0.037071,1.670529,3.018306,2.118879,8.532964,-3.430359,5.678691,0.077474,-0.081653,0.000000,0.321517,-0.186860,-0.000000
1.040000,-2.664008,0.734492,-1.422663,0.703815,0.023937,-0.202817,0.816896,0.791215,0.058543,1.754696,2.980660,2.174922,8.310016,-4.102197,5.530553,0.080679,-0.083577,0.000000,0.319207,-0.196600,0.000000
1.050000,-2.656929,0.734771,-1.424688,0.712072,0.031998,-0.202123,0.834858,0.820816,0.080569,1.836729,2.936262,2.229491,8.114795,-4.796496,5.367095,0.083858,-0.085598,0.000000,0.316221,-0.206193,-0.000000
1.060000,-2.649766,0.735132,-1.426705,0.720512,0.040353,-0.201206,0.853631,0.849940,0.103133,1.916992,2.884730,2.282264,7.913684,-5.513424,5.178214,0.087004,-0.087715,0.000000,0.312512,-0.215672,0.000000
1.070000,-2.642519,0.735578,-1.428712,0.729144,0.048997,-0.200060,0.873198,0.878511,0.126215,1.995003,2.825994,2.333055,7.608102,-6.203173,4.995864,0.090109,-0.089928,0.000000,0.308061,-0.224986,0.000000
1.080000,-2.635183,0.736112,-1.430706,0.737976,0.057923,-0.198682,0.893531,0.906460,0.149794,2.069154,2.760667,2.382181,7.211557,-6.873071,4.821281,0.093165,-0.092234,0.000000,0.302928,-0.233973,0.000000
1.090000,-2.627759,0.736737,-1.432686,0.747015,0.067126,-0.197064,0.914581,0.933724,0.173858,2.139234,2.688532,2.429480,6.856381,-7.587149,4.609806,0.096167,-0.094628,0.000000,0.297082,-0.242609,-0.000000
1.100000,-2.620243,0.737455,-1.434648,0.756268,0.076598,-0.195204,0.936315,0.960230,0.198384,2.206281,2.608924,2.474377,6.517461,-8.275087,4.379960,0.099107,-0.097109,0.000000,0.290439,-0.250990,-0.000000
1.110000,-2.612634,0.738269,-1.436590,0.765741,0.086331,-0.193097,0.958707,0.985903,0.223346,2.269583,2.523031,2.517080,6.109911,-8.898320,4.159669,0.101976,-0.099673,0.000000,0.283114,-0.259044,0.000000
1.120000,-2.604928,0.739181,-1.438510,0.775442,0.096316,-0.190737,0.981707,1.010691,0.248726,2.328480,2.430957,2.557571,5.734082,-9.671654,3.882740,0.104769,-0.102317,0.000000,0.275111,-0.266700,-0.000000
1.130000,-2.597125,0.740195,-1.440405,0.785375,0.106545,-0.188122,1.005276,1.034522,0.274497,2.384265,2.329597,2.594734,5.415140,-10.612757,3.537480,0.107478,-0.105037,0.000000,0.266087,-0.274074,-0.000000
1.140000,-2.589221,0.741312,-1.442272,0.795547,0.117006,-0.185247,1.029392,1.057283,0.300620,2.436782,2.218702,2.628320,5.011241,-11.418904,3.217115,0.110090,-0.107830,0.000000,0.256001,-0.281143,-0.000000
1.150000,-2.581214,0.742535,-1.444110,0.805963,0.127690,-0.182110,1.054012,1.078896,0.327064,2.484490,2.101219,2.659077,4.574288,-12.071223,2.925863,0.112598,-0.110694,0.000000,0.245156,-0.287751,0.000000
1.160000,-2.573102,0.743866,-1.445914,0.816627,0.138584,-0.178706,1.079082,1.099307,0.353802,2.528268,1.977278,2.686838,4.196778,-12.769663,2.600952,0.114993,-0.113622,0.000000,0.233552,-0.293982,-0.000000
1.170000,-2.564881,0.745307,-1.447684,0.827545,0.149676,-0.175034,1.104577,1.118442,0.380800,2.568425,1.845826,2.711096,3.686246,-13.484868,2.255916,0.117269,-0.116613,0.000000,0.221065,-0.299855,0.000000
1.180000,-2.556551,0.746859,-1.449415,0.838719,0.160953,-0.171090,1.130451,1.136224,0.408024,2.601993,1.707581,2.731956,3.000352,-14.136794,1.914989,0.119414,-0.119661,0.000000,0.207762,-0.305057,-0.000000
1.190000,-2.548107,0.748526,-1.451106,0.850154,0.172401,-0.166873,1.156617,1.152593,0.435439,2.628432,1.563090,2.749396,2.416218,-14.777491,1.554265,0.121424,-0.122758,0.000000,0.193692,-0.309522,0.000000
1.200000,-2.539548,0.750307,-1.452752,0.861851,0.184005,-0.162381,1.183019,1.167486,0.463012,2.650317,1.412031,2.763041,1.994607,-15.449868,1.159887,0.123288,-0.125897,0.000000,0.178803,-0.313504,0.000000
1.210000,-2.530870,0.752206,-1.454353,0.873814,0.195751,-0.157613,1.209624,1.180834,0.490700,2.668324,1.254093,2.772593,1.547753,-16.107754,0.750134,0.124999,-0.129076,0.000000,0.163047,-0.317062,-0.000000
1.220000,-2.522071,0.754222,-1.455905,0.886044,0.207622,-0.152567,1.236386,1.192568,0.518463,2.681272,1.089876,2.778044,0.984009,-16.655107,0.351784,0.126549,-0.132289,0.000000,0.146479,-0.320063,0.000000
1.230000,-2.513149,0.756358,-1.457404,0.898542,0.219602,-0.147244,1.263249,1.202631,0.546261,2.688004,0.920991,2.779629,0.382389,-17.105143,-0.044336,0.127928,-0.135529,0.000000,0.129263,-0.322381,-0.000000
1.240000,-2.504100,0.758615,-1.458850,0.911309,0.231674,-0.141642,1.290146,1.210987,0.574056,2.688920,0.747773,2.777157,-0.143738,-17.578282,-0.472070,0.129133,-0.138789,0.000000,0.111425,-0.324042,0.000000
1.250000,-2.494923,0.760992,-1.460237,0.924345,0.243822,-0.135763,1.317027,1.217587,0.601804,2.685130,0.569425,2.770188,-0.679577,-18.050318,-0.904836,0.130157,-0.142064,0.000000,0.092864,-0.325149,0.000000
1.260000,-2.485614,0.763491,-1.461565,0.937649,0.256026,-0.129606,1.343849,1.222376,0.629460,2.675329,0.386766,2.759061,-1.285965,-18.438650,-1.322126,0.130990,-0.145348,0.000000,0.073667,-0.325556,-0.000000
1.270000,-2.476170,0.766112,-1.462829,0.951222,0.268269,-0.123174,1.370534,1.225322,0.656986,2.659410,0.200652,2.743745,-1.704038,-18.824957,-1.805428,0.131629,-0.148632,0.000000,0.053918,-0.325242,0.000000
1.280000,-2.466589,0.768856,-1.464028,0.965060,0.280533,-0.116466,1.397037,1.226389,0.684335,2.641248,0.010267,2.722952,-1.898510,-19.227960,-2.361295,0.132068,-0.151909,0.000000,0.033500,-0.324585,-0.000000
1.290000,-2.456869,0.771723,-1.465159,0.979162,0.292797,-0.109487,1.423359,1.225527,0.711445,2.621440,-0.183907,2.696519,-2.225150,-19.524634,-2.875599,0.132299,-0.155180,0.000000,0.012452,-0.323636,-0.000000
1.300000,-2.447006,0.774712,-1.466218,0.993527,0.305043,-0.102237,1.449466,1.222711,0.738265,2.596745,-0.380225,2.665440,-2.722620,-19.771296,-3.359894,0.132317,-0.158439,0.000000,-0.009032,-0.322057,-0.000000
1.310000,-2.436998,0.777824,-1.467204,1.008152,0.317251,-0.094722,1.475294,1.217923,0.764753,2.566988,-0.579333,2.629321,-3.146101,-20.041967,-3.888655,0.132118,-0.161678,0.000000,-0.031028,-0.319811,0.000000
1.320000,-2.426843,0.781057,-1.468112,1.023033,0.329402,-0.086942,1.500805,1.211124,0.790852,2.533823,-0.781065,2.587667,-3.467499,-20.125265,-4.397301,0.131696,-0.164891,0.000000,-0.053532,-0.317055,0.000000
1.330000,-2.416537,0.784412,-1.468942,1.038168,0.341474,-0.078904,1.525970,1.202302,0.816507,2.497638,-0.981838,2.541375,-3.769386,-19.982970,-4.857726,0.131047,-0.168074,0.000000,-0.076146,-0.313835,-0.000000
1.340000,-2.406080,0.787887,-1.469691,1.053552,0.353448,-0.070612,1.550758,1.191487,0.841679,2.458435,-1.180724,2.490512,-4.067561,-19.909184,-5.363695,0.130172,-0.171222,0.000000,-0.098763,-0.310144,-0.000000
1.350000,-2.395466,0.791481,-1.470355,1.069183,0.365303,-0.062071,1.575139,1.178687,0.866317,2.416287,-1.380022,2.434101,-4.364341,-19.946349,-5.916668,0.129071,-0.174330,0.000000,-0.121642,-0.305963,-0.000000
1.360000,-2.384696,0.795193,-1.470932,1.085055,0.377021,-0.053286,1.599084,1.163887,0.890361,2.371148,-1.579651,2.372179,-4.651150,-19.891809,-6.452184,0.127739,-0.177392,0.000000,-0.144767,-0.301276,-0.000000
1.370000,-2.373765,0.799021,-1.471420,1.101165,0.388581,-0.044264,1.622562,1.147094,0.913761,2.323264,-1.777858,2.305058,-4.890687,-19.697247,-6.996259,0.126175,-0.180404,0.000000,-0.167937,-0.296107,-0.000000
1.380000,-2.362673,0.802964,-1.471817,1.117507,0.399963,-0.035011,1.645549,1.128330,0.936462,2.273335,-1.973596,2.232254,-5.084119,-19.434069,-7.577199,0.124380,-0.183362,0.000000,-0.191035,-0.290513,0.000000
1.390000,-2.351415,0.807021,-1.472121,1.134076,0.411148,-0.025534,1.668029,1.107622,0.958406,2.221581,-2.166540,2.153514,-5.283000,-19.150314,-8.151043,0.122354,-0.186260,0.000000,-0.214018,-0.284505,-0.000000
1.400000,-2.339991,0.811187,-1.472328,1.150867,0.422116,-0.015843,1.689981,1.084999,0.979532,2.167675,-2.356602,2.069233,-5.496795,-18.827935,-8.672308,0.120099,-0.189094,0.000000,-0.236855,-0.278048,0.000000
1.410000,-2.328398,0.815463,-1.472437,1.167875,0.432848,-0.005944,1.711382,1.060490,0.999790,2.111645,-2.543098,1.980068,-5.691227,-18.439140,-9.173711,0.117617,-0.191861,0.000000,-0.259445,-0.271150,-0.000000
1.420000,-2.316634,0.819844,-1.472447,1.185095,0.443325,0.004153,1.732214,1.034137,1.019134,2.053850,-2.725385,1.885759,-5.851319,-18.020831,-9.765931,0.114910,-0.194555,0.000000,-0.281705,-0.263840,-0.000000
1.430000,-2.304696,0.824329,-1.472354,1.202520,0.453531,0.014439,1.752459,1.005982,1.037505,1.994619,-2.903515,1.784749,-5.987818,-17.583041,-10.443331,0.111982,-0.197172,0.000000,-0.303638,-0.256115,-0.000000
1.440000,-2.292583,0.828915,-1.472158,1.220144,0.463445,0.024903,1.772106,0.976067,1.054829,1.934094,-3.077046,1.676892,-6.120451,-17.074435,-11.052767,0.108837,-0.199709,0.000000,-0.325176,-0.247980,0.000000
1.450000,-2.280293,0.833598,-1.471856,1.237962,0.473052,0.035535,1.791141,0.944442,1.071043,1.872210,-3.245004,1.563694,-6.262624,-16.502607,-11.555908,0.105479,-0.202161,0.000000,-0.346165,-0.239458,0.000000
1.460000,-2.267824,0.838376,-1.471447,1.255967,0.482334,0.046324,1.809550,0.911167,1.086103,1.808841,-3.407098,1.445774,-6.401953,-15.902563,-12.054860,0.101914,-0.204524,0.000000,-0.366542,-0.230545,0.000000
1.470000,-2.255174,0.843245,-1.470930,1.274153,0.491275,0.057258,1.827318,0.876300,1.099959,1.744171,-3.563055,1.322596,-6.503010,-15.238319,-12.623181,0.098148,-0.206795,0.000000,-0.386255,-0.221250,0.000000
1.480000,-2.242341,0.848202,-1.470302,1.292513,0.499860,0.068323,1.844434,0.839906,1.112555,1.678781,-3.711865,1.193310,-6.576172,-14.487448,-13.218717,0.094189,-0.208970,0.000000,-0.405173,-0.211615,0.000000
1.490000,-2.229323,0.853242,-1.469563,1.311041,0.508073,0.079509,1.860893,0.802062,1.123825,1.612647,-3.852804,1.058222,-6.670224,-13.706585,-13.744678,0.090045,-0.211046,0.000000,-0.423181,-0.201644,0.000000
1.500000,-2.216120,0.858363,-1.468712,1.329731,0.515901,0.090800,1.876687,0.762850,1.133719,1.545377,-3.985996,0.918417,-6.747119,-12.973432,-14.235410,0.085726,-0.213019,0.000000,-0.440250,-0.191322,-0.000000
1.510000,-2.202729,0.863560,-1.467747,1.348575,0.523330,0.102183,1.891801,0.722342,1.142193,1.477705,-4.112272,0.773514,-6.779568,-12.245113,-14.746619,0.081240,-0.214886,0.000000,-0.456449,-0.180724,-0.000000
1.520000,-2.189149,0.868830,-1.466668,1.367567,0.530348,0.113644,1.906241,0.680604,1.149189,1.409785,-4.230898,0.623484,-6.891034,-11.318504,-15.160370,0.076597,-0.216645,0.000000,-0.471666,-0.169869,-0.000000
1.530000,-2.175378,0.874167,-1.465474,1.386700,0.536942,0.125167,1.919997,0.637724,1.154663,1.339884,-4.338642,0.470306,-7.094318,-10.207659,-15.448783,0.071808,-0.218293,0.000000,-0.485489,-0.158622,0.000000
1.540000,-2.161415,0.879568,-1.464165,1.405967,0.543103,0.136737,1.933038,0.593831,1.158595,1.267899,-4.435052,0.314509,-7.219315,-9.192249,-15.772941,0.066888,-0.219826,0.000000,-0.497839,-0.146992,-0.000000
1.550000,-2.147258,0.885029,-1.462740,1.425361,0.548819,0.148339,1.945355,0.549023,1.160953,1.195498,-4.522487,0.154848,-7.267100,-8.269986,-16.150244,0.061852,-0.221240,0.000000,-0.508969,-0.135141,0.000000
1.560000,-2.132907,0.890545,-1.461198,1.444874,0.554083,0.159956,1.956948,0.503381,1.161692,1.122557,-4.600451,-0.008496,-7.352197,-7.259557,-16.466815,0.056710,-0.222533,0.000000,-0.518798,-0.123069,-0.000000
1.570000,-2.118361,0.896111,-1.459541,1.464500,0.558887,0.171573,1.967806,0.457014,1.160783,1.048454,-4.667679,-0.174489,-7.429850,-6.236192,-16.708494,0.051477,-0.223705,0.000000,-0.527158,-0.110743,0.000000
1.580000,-2.103617,0.901723,-1.457767,1.484230,0.563223,0.183172,1.977917,0.410028,1.158203,0.973960,-4.725175,-0.342666,-7.456737,-5.271552,-16.911322,0.046167,-0.224751,0.000000,-0.534142,-0.098272,-0.000000
1.590000,-2.088676,0.907375,-1.455877,1.504058,0.567087,0.194737,1.987285,0.362511,1.153930,0.899319,-4.773110,-0.512715,-7.505272,-4.253519,-17.080580,0.040795,-0.225672,0.000000,-0.539758,-0.085704,-0.000000
1.600000,-2.073536,0.913064,-1.453872,1.523976,0.570474,0.206250,1.995904,0.314566,1.147948,0.823854,-4.810246,-0.684278,-7.598013,-3.161926,-17.217637,0.035373,-0.226467,0.000000,-0.543854,-0.072985,-0.000000
1.610000,-2.058197,0.918785,-1.451752,1.543976,0.573379,0.217696,2.003762,0.266306,1.140244,0.747359,-4.836348,-0.857068,-7.683776,-2.081130,-17.317057,0.029919,-0.227133,0.000000,-0.546399,-0.060116,-0.000000
1.620000,-2.042657,0.924532,-1.449518,1.564051,0.575800,0.229055,2.010851,0.217839,1.130807,0.670179,-4.851868,-1.030619,-7.730569,-1.030296,-17.354216,0.024446,-0.227669,0.000000,-0.547441,-0.047159,0.000000
1.630000,-2.026916,0.930301,-1.447171,1.584193,0.577735,0.240312,2.017166,0.169269,1.119632,0.592748,-4.856954,-1.204152,-7.761473,0.021774,-17.321002,0.018971,-0.228076,0.000000,-0.546999,-0.034196,-0.000000
1.640000,-2.010973,0.936087,-1.444712,1.604394,0.579185,0.251448,2.022706,0.120700,1.106724,0.514949,-4.851433,-1.377039,-7.815353,1.085099,-17.249524,0.013507,-0.228354,0.000000,-0.545060,-0.021246,0.000000
1.650000,-1.994828,0.941884,-1.442142,1.624647,0.580149,0.262446,2.027465,0.072240,1.092091,0.436441,-4.835252,-1.549143,-7.852226,2.108593,-17.193847,0.008071,-0.228501,0.000000,-0.541632,-0.008288,0.000000
1.660000,-1.978480,0.947690,-1.439463,1.644944,0.580630,0.273290,2.031435,0.023995,1.075741,0.357905,-4.809261,-1.720916,-7.850687,3.085126,-17.126115,0.002676,-0.228520,0.000000,-0.536826,0.004600,0.000000
1.670000,-1.961929,0.953497,-1.436676,1.665276,0.580629,0.283961,2.034623,-0.023945,1.057673,0.279427,-4.773550,-1.891665,-7.929624,4.141620,-16.892730,-0.002665,-0.228410,0.000000,-0.530669,0.017378,-0.000000
1.680000,-1.945174,0.959302,-1.433784,1.685636,0.580151,0.294443,2.037023,-0.071476,1.037908,0.199312,-4.726428,-2.058770,-8.098053,5.272973,-16.496717,-0.007937,-0.228172,0.000000,-0.522998,0.030152,-0.000000
1.690000,-1.928216,0.965100,-1.430787,1.706016,0.579200,0.304719,2.038609,-0.118474,1.016498,0.117466,-4.668090,-2.221599,-8.191228,6.297521,-16.146566,-0.013124,-0.227807,0.000000,-0.513868,0.042902,0.000000
1.700000,-1.911054,0.970886,-1.427689,1.726408,0.577781,0.314773,2.039373,-0.164838,0.993476,0.035488,-4.600478,-2.381702,-8.214952,7.250459,-15.864778,-0.018214,-0.227315,0.000000,-0.503524,0.055483,0.000000
1.710000,-1.893688,0.976656,-1.424492,1.746804,0.575903,0.324589,2.039319,-0.210483,0.968863,-0.046833,-4.523081,-2.538895,-8.278573,8.243491,-15.511098,-0.023194,-0.226698,0.000000,-0.491942,0.067904,0.000000
1.720000,-1.876118,0.982404,-1.421198,1.767195,0.573572,0.334150,2.038436,-0.255300,0.942698,-0.130084,-4.435608,-2.691924,-8.323453,9.118149,-15.065884,-0.028052,-0.225957,0.000000,-0.479127,0.080187,0.000000
1.730000,-1.858344,0.988127,-1.417809,1.787573,0.570797,0.343443,2.036717,-0.299196,0.915025,-0.213302,-4.340718,-2.840213,-8.308732,9.822041,-14.576508,-0.032776,-0.225094,0.000000,-0.465409,0.092206,-0.000000
1.740000,-1.840366,0.993820,-1.414329,1.807929,0.567588,0.352451,2.034170,-0.342114,0.885894,-0.296258,-4.239167,-2.983454,-8.323564,10.575442,-14.060744,-0.037360,-0.224112,0.000000,-0.450905,0.103925,0.000000
1.750000,-1.822185,0.999479,-1.410760,1.828256,0.563955,0.361161,2.030792,-0.383979,0.855356,-0.379774,-4.129209,-3.121427,-8.376892,11.417148,-13.534719,-0.041794,-0.223014,0.000000,-0.435462,0.115422,-0.000000
1.760000,-1.803801,1.005099,-1.407106,1.848545,0.559908,0.369558,2.026574,-0.424698,0.823465,-0.463796,-4.010824,-3.254148,-8.406480,12.189918,-12.989281,-0.046069,-0.221802,0.000000,-0.419115,0.126687,0.000000
1.770000,-1.785215,1.010677,-1.403369,1.868787,0.555461,0.377630,2.021516,-0.464195,0.790273,-0.547903,-3.885411,-3.381213,-8.420420,12.836105,-12.367784,-0.050177,-0.220478,0.000000,-0.402053,0.137664,0.000000
1.780000,-1.766426,1.016208,-1.399553,1.888975,0.550624,0.385363,2.015616,-0.502407,0.755841,-0.632205,-3.754102,-3.501504,-8.440224,13.402397,-11.672963,-0.054110,-0.219046,0.000000,-0.384437,0.148338,0.000000
1.790000,-1.747435,1.021690,-1.395662,1.909100,0.545413,0.392747,2.008872,-0.539277,0.720243,-0.716708,-3.617363,-3.614672,-8.448503,13.949579,-10.986749,-0.057865,-0.217508,0.000000,-0.366353,0.158703,0.000000
1.800000,-1.728244,1.027117,-1.391698,1.929153,0.539839,0.399768,2.001282,-0.574754,0.683547,-0.801175,-3.475111,-3.721239,-8.443125,14.499432,-10.323890,-0.061438,-0.215867,0.000000,-0.347818,0.168749,0.000000
1.810000,-1.708852,1.032486,-1.387666,1.949125,0.533917,0.406418,1.992848,-0.608780,0.645818,-0.885570,-3.327374,-3.821150,-8.436038,15.007825,-9.632416,-0.064822,-0.214127,0.000000,-0.328865,0.178474,0.000000
1.820000,-1.689261,1.037795,-1.383570,1.969010,0.527663,0.412685,1.983571,-0.641301,0.607124,-0.969895,-3.174954,-3.913887,-8.419843,15.397428,-8.895214,-0.068015,-0.212290,0.000000,-0.309608,0.187873,-0.000000
1.830000,-1.669472,1.043040,-1.379412,1.988797,0.521091,0.418560,1.973451,-0.672279,0.567540,-1.053967,-3.019426,-3.999054,-8.389209,15.676202,-8.133918,-0.071015,-0.210361,0.000000,-0.290240,0.196924,0.000000
1.840000,-1.649485,1.048217,-1.375198,2.008479,0.514218,0.424035,1.962491,-0.701690,0.527143,-1.137680,-2.861430,-4.076565,-8.355025,15.944914,-7.373198,-0.073821,-0.208343,0.000000,-0.270848,0.205621,0.000000
1.850000,-1.629302,1.053324,-1.370932,2.028047,0.507058,0.429103,1.950697,-0.729507,0.486009,-1.221067,-2.700527,-4.146518,-8.322238,16.232140,-6.610607,-0.076433,-0.206238,0.000000,-0.251401,0.213980,-0.000000
1.860000,-1.608924,1.058358,-1.366616,2.047493,0.499627,0.433756,1.938070,-0.755700,0.444213,-1.304124,-2.536787,-4.208778,-8.282672,16.467369,-5.835147,-0.078850,-0.204051,0.000000,-0.231924,0.222006,-0.000000
1.870000,-1.588352,1.063317,-1.362257,2.066808,0.491944,0.437987,1.924614,-0.780243,0.401834,-1.386721,-2.371180,-4.263221,-8.225506,16.582516,-5.062112,-0.081072,-0.201784,0.000000,-0.212530,0.229693,-0.000000
1.880000,-1.567588,1.068197,-1.357857,2.085985,0.484023,0.441792,1.910336,-0.803124,0.358949,-1.468634,-2.205137,-4.310020,-8.152529,16.597219,-4.301058,-0.083101,-0.199442,0.000000,-0.193375,0.237033,0.000000
1.890000,-1.546633,1.072997,-1.353421,2.105015,0.475881,0.445166,1.895242,-0.824346,0.315633,-1.549771,-2.039236,-4.349242,-8.077757,16.599585,-3.535904,-0.084940,-0.197028,0.000000,-0.174522,0.244031,-0.000000
1.900000,-1.525488,1.077715,-1.348953,2.123890,0.467536,0.448105,1.879340,-0.843909,0.271964,-1.630190,-1.873145,-4.380738,-8.005806,16.613184,-2.755902,-0.086592,-0.194544,0.000000,-0.155941,0.250699,0.000000
1.910000,-1.504155,1.082348,-1.344459,2.142602,0.459003,0.450605,1.862638,-0.861809,0.228018,-1.709888,-1.706972,-4.404360,-7.926870,16.578600,-1.977567,-0.088060,-0.191995,0.000000,-0.137645,0.257049,-0.000000
1.920000,-1.482636,1.086895,-1.339941,2.161142,0.450300,0.452665,1.845142,-0.878048,0.183876,-1.788727,-1.541573,-4.420289,-7.829559,16.439653,-1.236401,-0.089346,-0.189384,0.000000,-0.119719,0.263081,-0.000000
1.930000,-1.460932,1.091354,-1.335405,2.179504,0.441442,0.454283,1.826863,-0.892640,0.139613,-1.866479,-1.378179,-4.429088,-7.716561,16.214656,-0.533207,-0.090455,-0.186713,0.000000,-0.102280,0.268797,-0.000000
1.940000,-1.439046,1.095723,-1.330856,2.197680,0.432447,0.455458,1.807813,-0.905612,0.095295,-1.943058,-1.217280,-4.430953,-7.602816,15.978502,0.174198,-0.091392,-0.183986,0.000000,-0.085366,0.274205,0.000000
1.950000,-1.416978,1.100003,-1.326296,2.215661,0.423330,0.456189,1.788002,-0.916986,0.050994,-2.018535,-1.058609,-4.425605,-7.492220,15.749251,0.901599,-0.092163,-0.181206,0.000000,-0.068947,0.279318,0.000000
1.960000,-1.394732,1.104190,-1.321732,2.233440,0.414107,0.456477,1.767442,-0.926784,0.006783,-2.092903,-0.902295,-4.412921,-7.374825,15.478373,1.615642,-0.092772,-0.178376,0.000000,-0.053027,0.284147,0.000000
1.970000,-1.372310,1.108285,-1.317167,2.251010,0.404794,0.456325,1.746144,-0.935032,-0.037265,-2.166032,-0.749041,-4.393292,-7.241975,15.127632,2.269977,-0.093224,-0.175499,0.000000,-0.037663,0.288698,-0.000000
1.980000,-1.349712,1.112286,-1.312605,2.268363,0.395406,0.455732,1.724122,-0.941765,-0.081083,-2.237742,-0.599743,-4.367522,-7.096889,14.715378,2.870295,-0.093526,-0.172577,0.000000,-0.022925,0.292980,0.000000
1.990000,-1.326942,1.116193,-1.308052,2.285492,0.385959,0.454703,1.701389,-0.947027,-0.124615,-2.307969,-0.454734,-4.335886,-6.951022,14.294119,3.473425,-0.093683,-0.169613,0.000000,-0.008831,0.297003,0.000000
2.000000,-1.304002,1.120005,-1.303511,2.302390,0.376466,0.453240,1.677962,-0.950859,-0.167801,-2.376763,-0.313860,-4.298053,-6.806789,13.865655,4.094320,-0.093703,-0.166611,0.000000,0.004646,0.300777,0.000000
2.010000,-1.280895,1.123722,-1.298987,2.319051,0.366942,0.451347,1.653854,-0.953304,-0.210576,-2.444105,-0.177421,-4.253999,-6.656939,13.398864,4.691184,-0.093591,-0.163571,0.000000,0.017490,0.304311,-0.000000
2.020000,-1.257621,1.127344,-1.294484,2.335467,0.357400,0.449028,1.629080,-0.954408,-0.252881,-2.509901,-0.045883,-4.204230,-6.496645,12.901371,5.223193,-0.093353,-0.160498,0.000000,0.029672,0.307616,0.000000
2.030000,-1.234185,1.130870,-1.290007,2.351633,0.347853,0.446289,1.603656,-0.954221,-0.294661,-2.574038,0.080607,-4.149536,-6.328580,12.387829,5.699612,-0.092998,-0.157392,0.000000,0.041202,0.310703,0.000000
2.040000,-1.210589,1.134301,-1.285559,2.367541,0.338315,0.443135,1.577599,-0.952796,-0.335872,-2.636473,0.201874,-4.090237,-6.159537,11.849958,6.170636,-0.092530,-0.154256,0.000000,0.052078,0.313581,0.000000
2.050000,-1.186834,1.137636,-1.281144,2.383185,0.328798,0.439572,1.550927,-0.950184,-0.376466,-2.697229,0.317606,-4.026123,-5.990954,11.283899,6.654075,-0.091956,-0.151093,0.000000,0.062283,0.316258,0.000000
2.060000,-1.162925,1.140877,-1.276767,2.398559,0.319312,0.435606,1.523655,-0.946443,-0.416394,-2.756292,0.427552,-3.957156,-5.818916,10.699843,7.113556,-0.091284,-0.147904,0.000000,0.071806,0.318743,-0.000000
2.070000,-1.138863,1.144023,-1.272432,2.413658,0.309869,0.431244,1.495801,-0.941633,-0.455609,-2.813607,0.531603,-3.883852,-5.641201,10.110847,7.499779,-0.090520,-0.144692,0.000000,0.080657,0.321044,-0.000000
2.080000,-1.114652,1.147074,-1.268142,2.428475,0.300479,0.426494,1.467383,-0.935811,-0.494071,-2.869116,0.629769,-3.807160,-5.459850,9.516882,7.821114,-0.089671,-0.141457,0.000000,0.088856,0.323178,0.000000
2.090000,-1.090294,1.150032,-1.263902,2.443006,0.291152,0.421362,1.438418,-0.929038,-0.531752,-2.922804,0.721940,-3.727429,-5.278425,8.905840,8.141400,-0.088743,-0.138202,0.000000,0.096409,0.325153,0.000000
2.100000,-1.065792,1.152897,-1.259715,2.457244,0.281898,0.415859,1.408927,-0.921373,-0.568620,-2.974684,0.807885,-3.644332,-5.095640,8.277652,8.477607,-0.087743,-0.134928,0.000000,0.103304,0.326973,-0.000000
2.110000,-1.041149,1.155670,-1.255585,2.471184,0.272725,0.409990,1.378925,-0.912880,-0.604639,-3.024717,0.887493,-3.557877,-4.909986,7.644146,8.785536,-0.086677,-0.131637,0.000000,0.109542,0.328640,0.000000
2.120000,-1.016368,1.158352,-1.251515,2.484822,0.263641,0.403766,1.348432,-0.903623,-0.639777,-3.072884,0.960768,-3.468622,-4.727018,7.011788,9.024792,-0.085553,-0.128330,0.000000,0.115139,0.330165,-0.000000
2.130000,-0.991452,1.160943,-1.247510,2.498153,0.254653,0.397195,1.317467,-0.893665,-0.674011,-3.119257,1.027729,-3.377381,-4.548313,6.381101,9.208754,-0.084375,-0.125009,0.000000,0.120113,0.331569,0.000000
2.140000,-0.966405,1.163445,-1.243571,2.511171,0.245767,0.390286,1.286047,-0.883068,-0.707325,-3.163850,1.088390,-3.284447,-4.366931,5.748563,9.389675,-0.083150,-0.121675,0.000000,0.124479,0.332861,0.000000
2.150000,-0.941229,1.165858,-1.239704,2.523874,0.236991,0.383048,1.254190,-0.871897,-0.739700,-3.206596,1.142700,-3.189588,-4.180253,5.103679,9.576426,-0.081885,-0.118329,0.000000,0.128237,0.334035,0.000000
2.160000,-0.915928,1.168185,-1.235910,2.536255,0.228329,0.375492,1.221915,-0.860214,-0.771117,-3.247456,1.190464,-3.092918,-3.993802,4.453096,9.734465,-0.080585,-0.114971,0.000000,0.131380,0.335092,0.000000
2.170000,-0.890504,1.170425,-1.232194,2.548312,0.219787,0.367626,1.189241,-0.848087,-0.801558,-3.286472,1.231762,-2.994899,-3.814735,3.835076,9.845455,-0.079258,-0.111605,0.000000,0.133926,0.336044,-0.000000
2.180000,-0.864961,1.172580,-1.228558,2.560040,0.211368,0.359460,1.156186,-0.835579,-0.831015,-3.323750,1.267165,-2.896009,-3.641978,3.252090,9.920594,-0.077907,-0.108229,0.000000,0.135937,0.336909,0.000000
2.190000,-0.839303,1.174652,-1.225005,2.571436,0.203075,0.351005,1.122766,-0.822744,-0.859479,-3.359311,1.296804,-2.796487,-3.466866,2.655912,9.983919,-0.076539,-0.104846,0.000000,0.137435,0.337692,0.000000
2.200000,-0.813533,1.176642,-1.221538,2.582495,0.194913,0.342271,1.088999,-0.809643,-0.886944,-3.393088,1.320284,-2.696331,-3.287881,2.036638,10.045023,-0.075158,-0.101455,0.000000,0.138386,0.338388,0.000000
2.210000,-0.787653,1.178551,-1.218159,2.593216,0.186882,0.333267,1.054904,-0.796338,-0.913405,-3.425069,1.337537,-2.595586,-3.111385,1.430128,10.088872,-0.073771,-0.098058,0.000000,0.138791,0.338998,0.000000
2.220000,-0.761668,1.180380,-1.214872,2.603593,0.178986,0.324003,1.020498,-0.782892,-0.938856,-3.455315,1.348886,-2.494553,-2.941585,0.860612,10.091435,-0.072382,-0.094656,0.000000,0.138684,0.339532,-0.000000
2.230000,-0.735581,1.182130,-1.211679,2.613626,0.171225,0.314489,0.985798,-0.769361,-0.963296,-3.483901,1.354749,-2.393758,-2.776975,0.318902,10.057834,-0.070997,-0.091250,0.000000,0.138113,0.340002,0.000000
2.240000,-0.709396,1.183804,-1.208583,2.623309,0.163599,0.304737,0.950820,-0.755797,-0.986731,-3.510855,1.355264,-2.293397,-2.612803,-0.222247,10.022434,-0.069620,-0.087839,0.000000,0.137092,0.340411,-0.000000
2.250000,-0.683115,1.185402,-1.205585,2.632642,0.156109,0.294755,0.915581,-0.742255,-1.009164,-3.536157,1.350304,-2.193309,-2.447159,-0.767820,9.993336,-0.068255,-0.084425,0.000000,0.135611,0.340756,0.000000
2.260000,-0.656743,1.186926,-1.202688,2.641621,0.148754,0.284553,0.880097,-0.728791,-1.030597,-3.559798,1.339908,-2.093530,-2.283661,-1.297420,9.949174,-0.066907,-0.081008,0.000000,0.133676,0.341037,0.000000
2.270000,-0.630283,1.188377,-1.199894,2.650244,0.141533,0.274143,0.844385,-0.715457,-1.051035,-3.581830,1.324356,-1.994325,-2.128397,-1.793681,9.876640,-0.065581,-0.077588,0.000000,0.131316,0.341260,0.000000
2.280000,-0.603738,1.189757,-1.197205,2.658509,0.134445,0.263533,0.808460,-0.702304,-1.070484,-3.602366,1.304034,-1.895997,-1.980884,-2.260482,9.785003,-0.064281,-0.074167,0.000000,0.128569,0.341437,-0.000000
2.290000,-0.577113,1.191066,-1.194623,2.666413,0.127487,0.252733,0.772338,-0.689377,-1.088955,-3.621448,1.279146,-1.798625,-1.833319,-2.717959,9.693759,-0.063010,-0.070745,0.000000,0.125453,0.341571,0.000000
2.300000,-0.550410,1.192307,-1.192150,2.673955,0.120657,0.241754,0.736031,-0.676721,-1.106456,-3.639032,1.249675,-1.702122,-1.682671,-3.175753,9.601680,-0.061772,-0.067322,0.000000,0.121967,0.341657,0.000000
2.310000,-0.523633,1.193479,-1.189788,2.681134,0.113952,0.230604,0.699557,-0.664383,-1.122997,-3.655101,1.215631,-1.606592,-1.534561,-3.618264,9.498631,-0.060570,-0.063899,0.000000,0.118111,0.341692,0.000000
2.320000,-0.496787,1.194586,-1.187538,2.687947,0.107369,0.219294,0.662929,-0.652408,-1.138588,-3.669723,1.177310,-1.512149,-1.396923,-4.016322,9.395005,-0.059409,-0.060475,0.000000,0.113913,0.341682,-0.000000
2.330000,-0.469875,1.195627,-1.185402,2.694392,0.100904,0.207832,0.626162,-0.640837,-1.153240,-3.683040,1.135305,-1.418692,-1.268488,-4.372854,9.298243,-0.058292,-0.057053,0.000000,0.109426,0.341638,0.000000
2.340000,-0.442899,1.196604,-1.183381,2.700470,0.094553,0.196229,0.589269,-0.629702,-1.166962,-3.695093,1.089853,-1.326184,-1.138856,-4.725294,9.196169,-0.057221,-0.053631,0.000000,0.104668,0.341562,-0.000000
2.350000,-0.415865,1.197518,-1.181477,2.706178,0.088310,0.184493,0.552261,-0.619040,-1.179764,-3.705817,1.040799,-1.234768,-1.004876,-5.080083,9.077251,-0.056199,-0.050210,0.000000,0.099626,0.341449,-0.000000
2.360000,-0.388776,1.198370,-1.179691,2.711515,0.082172,0.172634,0.515152,-0.608886,-1.191657,-3.715191,0.988251,-1.144639,-0.873697,-5.410921,8.953226,-0.055228,-0.046791,0.000000,0.094308,0.341295,-0.000000
2.370000,-0.361635,1.199161,-1.178025,2.716481,0.076132,0.160660,0.477957,-0.599275,-1.202657,-3.723291,0.932580,-1.055704,-0.752856,-5.703860,8.858425,-0.054312,-0.043373,0.000000,0.088746,0.341105,-0.000000
2.380000,-0.334446,1.199893,-1.176478,2.721074,0.070186,0.148581,0.440686,-0.590235,-1.212772,-3.730248,0.874174,-0.967471,-0.640081,-5.966861,8.793335,-0.053453,-0.039958,0.000000,0.082971,0.340889,0.000000
2.390000,-0.307213,1.200565,-1.175053,2.725294,0.064328,0.136404,0.403352,-0.581791,-1.222006,-3.736092,0.813243,-0.879837,-0.525417,-6.216129,8.714179,-0.052653,-0.036546,0.000000,0.076999,0.340647,-0.000000
2.400000,-0.279940,1.201179,-1.173750,2.729141,0.058551,0.124140,0.365965,-0.573970,-1.230368,-3.740756,0.749851,-0.793187,-0.407881,-6.454222,8.606082,-0.051913,-0.033136,0.000000,0.070836,0.340373,0.000000
2.410000,-0.252631,1.201736,-1.172570,2.732614,0.052848,0.111797,0.328537,-0.566794,-1.237870,-3.744250,0.684159,-0.707715,-0.293979,-6.670006,8.501276,-0.051236,-0.029729,0.000000,0.064496,0.340068,-0.000000
2.420000,-0.225288,1.202236,-1.171514,2.735712,0.047215,0.099383,0.291080,-0.560287,-1.244523,-3.746636,0.616451,-0.623162,-0.184908,-6.855510,8.438066,-0.050623,-0.026325,0.000000,0.057999,0.339736,-0.000000
2.430000,-0.197916,1.202680,-1.170583,2.738435,0.041643,0.086907,0.253604,-0.554465,-1.250333,-3.747948,0.547049,-0.538954,-0.078036,-7.014139,8.408342,-0.050076,-0.022925,0.000000,0.051370,0.339377,-0.000000
2.440000,-0.170519,1.203069,-1.169776,2.740784,0.036125,0.074376,0.216121,-0.549346,-1.255302,-3.748197,0.476168,-0.454995,0.028075,-7.155614,8.363736,-0.049596,-0.019529,0.000000,0.044626,0.338991,0.000000
2.450000,-0.143101,1.203403,-1.169095,2.742758,0.030656,0.061801,0.178640,-0.544942,-1.259433,-3.747387,0.403936,-0.371679,0.132070,-7.280648,8.295937,-0.049183,-0.016137,0.000000,0.037778,0.338578,0.000000
2.460000,-0.115664,1.203682,-1.168540,2.744357,0.025226,0.049188,0.141173,-0.541267,-1.262735,-3.745555,0.330555,-0.289076,0.233437,-7.382725,8.238559,-0.048840,-0.012749,0.000000,0.030842,0.338142,-0.000000
2.470000,-0.088213,1.203907,-1.168111,2.745581,0.019830,0.036546,0.103729,-0.538331,-1.265215,-3.742718,0.256282,-0.206908,0.336140,-7.460269,8.210807,-0.048566,-0.009366,0.000000,0.023837,0.337683,0.000000
2.480000,-0.060752,1.204079,-1.167809,2.746431,0.014460,0.023883,0.066318,-0.536141,-1.266873,-3.738832,0.181350,-0.124860,0.440855,-7.515549,8.202335,-0.048363,-0.005987,0.000000,0.016780,0.337196,0.000000
2.490000,-0.033285,1.204197,-1.167634,2.746908,0.009108,0.011208,0.028952,-0.534704,-1.267712,-3.733901,0.105971,-0.042862,0.542394,-7.550139,8.190161,-0.048231,-0.002614,0.000000,0.009688,0.336680,-0.000000
2.500000,-0.005814,1.204261,-1.167585,2.747010,0.003766,-0.001471,-0.008360,-0.534022,-1.267731,-3.727984,0.030347,0.038943,0.639394,-7.563452,8.170956,-0.048169,0.000755,0.000000,0.002576,0.336142,0.000000
2.510000,0.021655,1.204272,-1.167663,2.746740,-0.001573,-0.014146,-0.045607,-0.534097,-1.266933,-3.721113,-0.045298,0.120558,0.735702,-7.554560,8.160231,-0.048179,0.004117,0.000000,-0.004537,0.335583,-0.000000
2.520000,0.049121,1.204229,-1.167868,2.746098,-0.006916,-0.026810,-0.082782,-0.534928,-1.265320,-3.713270,-0.120744,0.202148,0.834451,-7.524663,8.167408,-0.048260,0.007474,0.000000,-0.011635,0.335002,0.000000
2.530000,0.076577,1.204134,-1.168199,2.745085,-0.012271,-0.039453,-0.119873,-0.536512,-1.262890,-3.704424,-0.195791,0.283906,0.934524,-7.474148,8.187788,-0.048412,0.010825,0.000000,-0.018704,0.334395,-0.000000
2.540000,0.104022,1.203984,-1.168657,2.743701,-0.017646,-0.052067,-0.156870,-0.538844,-1.259641,-3.694580,-0.270227,0.365904,1.032212,-7.401310,8.209598,-0.048634,0.014170,0.000000,-0.025727,0.333764,0.000000
2.550000,0.131451,1.203781,-1.169241,2.741947,-0.023048,-0.064645,-0.193764,-0.541916,-1.255572,-3.683780,-0.343818,0.448098,1.127647,-7.306006,8.229398,-0.048927,0.017509,0.000000,-0.032685,0.333112,0.000000
2.560000,0.158861,1.203523,-1.169950,2.739826,-0.028485,-0.077179,-0.230546,-0.545720,-1.250679,-3.672027,-0.416347,0.530492,1.223438,-7.189435,8.255006,-0.049288,0.020841,0.000000,-0.039561,0.332440,0.000000
2.570000,0.186248,1.203211,-1.170784,2.737336,-0.033963,-0.089659,-0.267205,-0.550243,-1.244962,-3.659311,-0.487606,0.613198,1.319172,-7.051464,8.295498,-0.049718,0.024166,0.000000,-0.046340,0.331747,0.000000
2.580000,0.213608,1.202844,-1.171743,2.734481,-0.039490,-0.102078,-0.303732,-0.555472,-1.238415,-3.645644,-0.557376,0.696402,1.413937,-6.891406,8.348989,-0.050215,0.027484,0.000000,-0.053005,0.331034,0.000000
2.590000,0.240938,1.202421,-1.172826,2.731262,-0.045072,-0.114427,-0.340118,-0.561391,-1.231034,-3.631032,-0.625434,0.780178,1.508742,-6.709655,8.403022,-0.050778,0.030795,0.000000,-0.059539,0.330304,0.000000
2.600000,0.268233,1.201942,-1.174032,2.727679,-0.050717,-0.126699,-0.376353,-0.567981,-1.222812,-3.615469,-0.691569,0.864462,1.604567,-6.508147,8.451053,-0.051406,0.034099,0.000000,-0.065924,0.329554,0.000000
2.610000,0.295491,1.201407,-1.175360,2.723735,-0.056432,-0.138884,-0.412427,-0.575222,-1.213745,-3.598941,-0.755597,0.949199,1.700795,-6.286456,8.501414,-0.052097,0.037395,0.000000,-0.072146,0.328786,0.000000
2.620000,0.322708,1.200814,-1.176809,2.719431,-0.062222,-0.150974,-0.448332,-0.583093,-1.203828,-3.581453,-0.817299,1.034490,1.795424,-6.039317,8.570370,-0.052849,0.040684,0.000000,-0.078188,0.327998,0.000000
2.630000,0.349880,1.200162,-1.178379,2.714768,-0.068094,-0.162960,-0.484056,-0.591568,-1.193055,-3.563032,-0.876384,1.120606,1.888804,-5.766117,8.656599,-0.053660,0.043965,0.000000,-0.084026,0.327197,0.000000
2.640000,0.377003,1.199452,-1.180068,2.709749,-0.074053,-0.174835,-0.519592,-0.600620,-1.181416,-3.543677,-0.932621,1.207622,1.983866,-5.474268,8.737176,-0.054529,0.047237,0.000000,-0.089642,0.326382,0.000000
2.650000,0.404075,1.198681,-1.181876,2.704376,-0.080106,-0.186588,-0.554930,-0.610221,-1.168902,-3.523355,-0.985869,1.295350,2.080268,-5.169081,8.798946,-0.055453,0.050502,0.000000,-0.095024,0.325550,-0.000000
2.660000,0.431091,1.197850,-1.183800,2.698651,-0.086258,-0.198213,-0.590059,-0.620338,-1.155509,-3.502071,-1.036002,1.383601,2.176231,-4.845338,8.857333,-0.056430,0.053759,0.000000,-0.100161,0.324702,0.000000
2.670000,0.458048,1.196956,-1.185840,2.692575,-0.092513,-0.209699,-0.624971,-0.630941,-1.141230,-3.479830,-1.082776,1.472496,2.273645,-4.489637,8.944504,-0.057457,0.057007,0.000000,-0.105034,0.323839,-0.000000
2.680000,0.484942,1.195999,-1.187994,2.686151,-0.098876,-0.221037,-0.659656,-0.641993,-1.126059,-3.456598,-1.125795,1.562491,2.373712,-4.102635,9.056470,-0.058531,0.060246,0.000000,-0.109609,0.322961,-0.000000
2.690000,0.511771,1.194979,-1.190261,2.679382,-0.105353,-0.232220,-0.694103,-0.653456,-1.109981,-3.432356,-1.164829,1.653626,2.473859,-3.702850,9.148320,-0.059649,0.063477,0.000000,-0.113867,0.322067,-0.000000
2.700000,0.538530,1.193892,-1.192639,2.672269,-0.111946,-0.243237,-0.728303,-0.665290,-1.092986,-3.407121,-1.199852,1.745458,2.571164,-3.298551,9.207160,-0.060808,0.066699,0.000000,-0.117805,0.321158,-0.000000
2.710000,0.565216,1.192740,-1.195126,2.664816,-0.118658,-0.254080,-0.762246,-0.677454,-1.075071,-3.380933,-1.230800,1.837769,2.667746,-2.877214,9.262280,-0.062005,0.069913,0.000000,-0.121415,0.320236,-0.000000
2.720000,0.591826,1.191519,-1.197720,2.657024,-0.125495,-0.264738,-0.795922,-0.689906,-1.056231,-3.353766,-1.257396,1.930703,2.771546,-2.419175,9.339504,-0.063237,0.073117,0.000000,-0.124674,0.319300,0.000000
2.730000,0.618357,1.190230,-1.200420,2.648898,-0.132457,-0.275204,-0.829321,-0.702601,-1.036457,-3.325502,-1.279183,2.024559,2.882536,-1.927280,9.427898,-0.064499,0.076312,0.000000,-0.127541,0.318341,-0.000000
2.740000,0.644804,1.188870,-1.203224,2.640438,-0.139547,-0.285468,-0.862432,-0.715490,-1.015740,-3.296116,-1.295942,2.119261,2.989966,-1.428797,9.491759,-0.065788,0.079497,0.000000,-0.129995,0.317359,-0.000000
2.750000,0.671165,1.187439,-1.206130,2.631649,-0.146766,-0.295519,-0.895243,-0.728520,-0.994072,-3.265703,-1.307759,2.214394,3.090353,-0.935907,9.528333,-0.067099,0.082673,0.000000,-0.132041,0.316359,-0.000000
2.760000,0.697437,1.185935,-1.209135,2.622533,-0.154117,-0.305349,-0.927746,-0.741645,-0.971452,-3.234309,-1.314660,2.309828,3.191161,-0.430461,9.559044,-0.068429,0.085839,0.000000,-0.133679,0.315343,0.000000
2.770000,0.723616,1.184357,-1.212237,2.613094,-0.161599,-0.314948,-0.959929,-0.754814,-0.947876,-3.201879,-1.316368,2.405575,3.300249,0.116365,9.582808,-0.069773,0.088995,0.000000,-0.134883,0.314309,0.000000
2.780000,0.749699,1.182703,-1.215434,2.603335,-0.169213,-0.324306,-0.991783,-0.767972,-0.923340,-3.168304,-1.312333,2.501484,3.415346,0.699289,9.588941,-0.071126,0.092140,0.000000,-0.135597,0.313243,0.000000
2.790000,0.775683,1.180972,-1.218723,2.593258,-0.176959,-0.333415,-1.023295,-0.781060,-0.897846,-3.133572,-1.302382,2.597354,3.526084,1.278176,9.577744,-0.072485,0.095276,0.000000,-0.135803,0.312143,0.000000
2.800000,0.801564,1.179164,-1.222102,2.582869,-0.184835,-0.342263,-1.054455,-0.794020,-0.871393,-3.097782,-1.286769,2.693039,3.630688,1.841949,9.557592,-0.073843,0.098400,0.000000,-0.135518,0.311017,-0.000000
2.810000,0.827340,1.177276,-1.225568,2.572169,-0.192839,-0.350843,-1.085251,-0.806796,-0.843985,-3.060959,-1.265543,2.788506,3.735961,2.416503,9.524750,-0.075195,0.101513,0.000000,-0.134743,0.309865,-0.000000
2.820000,0.853008,1.175307,-1.229119,2.561164,-0.200970,-0.359143,-1.115674,-0.819331,-0.815623,-3.023063,-1.238439,2.883534,3.845224,3.023813,9.452658,-0.076538,0.104615,0.000000,-0.133448,0.308681,-0.000000
2.830000,0.878563,1.173256,-1.232751,2.549856,-0.209226,-0.367155,-1.145712,-0.831564,-0.786314,-2.984054,-1.205067,2.977559,3.955953,3.654846,9.338062,-0.077864,0.107705,0.000000,-0.131588,0.307455,-0.000000
2.840000,0.904005,1.171122,-1.236462,2.538249,-0.217602,-0.374869,-1.175355,-0.843432,-0.756072,-2.943944,-1.165342,3.070295,4.063790,4.278696,9.214496,-0.079169,0.110783,0.000000,-0.129145,0.306183,0.000000
2.850000,0.929328,1.168904,-1.240248,2.526349,-0.226094,-0.382277,-1.204591,-0.854871,-0.724909,-2.902778,-1.119493,3.161849,4.168771,4.886678,9.096679,-0.080447,0.113848,0.000000,-0.126135,0.304869,-0.000000
2.860000,0.954532,1.166600,-1.244107,2.514158,-0.234699,-0.389368,-1.233411,-0.865822,-0.692835,-2.860568,-1.067609,3.252229,4.273415,5.497534,8.958837,-0.081692,0.116901,0.000000,-0.122559,0.303510,-0.000000
2.870000,0.979612,1.164210,-1.248036,2.501680,-0.243411,-0.396133,-1.261803,-0.876223,-0.659864,-2.817310,-1.009543,3.341025,4.376786,6.128146,8.761169,-0.082898,0.119939,0.000000,-0.118392,0.302102,-0.000000
2.880000,1.004565,1.161732,-1.252030,2.488921,-0.252224,-0.402565,-1.289757,-0.886013,-0.626015,-2.773032,-0.945046,3.427452,4.477653,6.771730,8.508645,-0.084060,0.122964,0.000000,-0.113597,0.300633,-0.000000
2.890000,1.029390,1.159166,-1.256087,2.475885,-0.261131,-0.408654,-1.317263,-0.895124,-0.591315,-2.727757,-0.874108,3.511198,4.577091,7.402815,8.251976,-0.085170,0.125973,0.000000,-0.108159,0.299100,-0.000000
2.900000,1.054083,1.156510,-1.260203,2.462576,-0.270126,-0.414391,-1.344312,-0.903495,-0.555791,-2.681491,-0.796990,3.592492,4.675355,8.009767,8.003916,-0.086223,0.128968,0.000000,-0.102095,0.297501,0.000000
2.910000,1.078641,1.153763,-1.264375,2.448999,-0.279201,-0.419769,-1.370893,-0.911064,-0.519465,-2.634250,-0.713913,3.671277,4.771271,8.607426,7.728500,-0.087212,0.131946,0.000000,-0.095414,0.295834,-0.000000
2.920000,1.103063,1.150926,-1.268598,2.435158,-0.288347,-0.424780,-1.396997,-0.917773,-0.482365,-2.586065,-0.624841,3.747062,4.863881,9.220229,7.394354,-0.088131,0.134907,0.000000,-0.088097,0.294090,0.000000
2.930000,1.127345,1.147996,-1.272870,2.421059,-0.297556,-0.429417,-1.422614,-0.923561,-0.444524,-2.536972,-0.529508,3.819164,4.953285,9.841468,7.010824,-0.088974,0.137851,0.000000,-0.080103,0.292261,-0.000000
2.940000,1.151484,1.144974,-1.277187,2.406706,-0.306819,-0.433671,-1.447736,-0.928363,-0.405982,-2.486999,-0.428012,3.887278,5.040287,10.434390,6.617457,-0.089733,0.140776,0.000000,-0.071423,0.290338,-0.000000
2.950000,1.175479,1.141860,-1.281544,2.392104,-0.316124,-0.437536,-1.472354,-0.932121,-0.366778,-2.436167,-0.320820,3.951513,5.124820,10.994088,6.227641,-0.090402,0.143681,0.000000,-0.062091,0.288319,0.000000
2.960000,1.199326,1.138652,-1.285938,2.377259,-0.325461,-0.441006,-1.496460,-0.934780,-0.326952,-2.384503,-0.208130,4.011831,5.205982,11.541823,5.813881,-0.090975,0.146566,0.000000,-0.052112,0.286202,0.000000
2.970000,1.223024,1.135351,-1.290364,2.362175,-0.334819,-0.444075,-1.520044,-0.936284,-0.286542,-2.332047,-0.089984,4.067790,5.283272,12.078096,5.340896,-0.091444,0.149429,0.000000,-0.041472,0.283975,-0.000000
2.980000,1.246570,1.131956,-1.294819,2.346858,-0.344187,-0.446737,-1.543101,-0.936579,-0.245596,-2.278838,0.033432,4.118649,5.356322,12.591794,4.814537,-0.091804,0.152269,0.000000,-0.030170,0.281627,-0.000000
2.990000,1.269961,1.128467,-1.299299,2.331313,-0.353551,-0.448987,-1.565621,-0.935615,-0.204169,-2.224921,0.161852,4.164081,5.425382,13.079382,4.282004,-0.092047,0.155085,0.000000,-0.018214,0.279148,0.000000
3.000000,1.293196,1.124885,-1.303799,2.315546,-0.362899,-0.450821,-1.587599,-0.933342,-0.162314,-2.170330,0.295020,4.204289,5.493443,13.545522,3.766146,-0.092168,0.157876,0.000000,-0.005617,0.276537,0.000000
3.010000,1.316272,1.121209,-1.308315,2.299561,-0.372218,-0.452234,-1.609028,-0.929715,-0.120083,-2.115052,0.432763,4.239404,5.559806,13.988113,3.234508,-0.092159,0.160639,0.000000,0.007616,0.273786,-0.000000
3.020000,1.339187,1.117440,-1.312843,2.283365,-0.381493,-0.453222,-1.629900,-0.924687,-0.077526,-2.059134,0.574782,4.268979,5.614996,14.388055,2.629474,-0.092015,0.163375,0.000000,0.021473,0.270885,0.000000
3.030000,1.361939,1.113579,-1.317380,2.266963,-0.390711,-0.453784,-1.650210,-0.918219,-0.034703,-2.002752,0.720524,4.291994,5.658274,14.742196,1.959907,-0.091729,0.166080,0.000000,0.035922,0.267826,0.000000
3.040000,1.384526,1.109626,-1.321919,2.250361,-0.399858,-0.453916,-1.669955,-0.910277,0.008314,-1.945968,0.869626,4.308177,5.702439,15.071849,1.304606,-0.091296,0.168754,0.000000,0.050940,0.264600,-0.000000
3.050000,1.406947,1.105582,-1.326458,2.233564,-0.408917,-0.453618,-1.689130,-0.900827,0.051460,-1.888703,1.021961,4.318086,5.751813,15.379919,0.681069,-0.090709,0.171394,0.000000,0.066521,0.261199,0.000000
3.060000,1.429198,1.101448,-1.330992,2.216578,-0.417874,-0.452887,-1.707729,-0.889837,0.094676,-1.830932,1.177224,4.321799,5.797344,15.648311,0.037556,-0.089965,0.173999,0.000000,0.082643,0.257613,0.000000
3.070000,1.451278,1.097224,-1.335516,2.199409,-0.426714,-0.451724,-1.725748,-0.877282,0.137896,-1.772756,1.334927,4.318837,5.829058,15.865845,-0.658738,-0.089056,0.176567,0.000000,0.099270,0.253834,0.000000
3.080000,1.473186,1.092913,-1.340026,2.182063,-0.435420,-0.450129,-1.743184,-0.863139,0.181052,-1.714351,1.494541,4.308624,5.849583,16.033868,-1.389587,-0.087979,0.179096,0.000000,0.116361,0.249858,0.000000
3.090000,1.494919,1.088516,-1.344518,2.164546,-0.443977,-0.448103,-1.760035,-0.847391,0.224069,-1.655764,1.655604,4.291045,5.871892,16.162259,-2.110527,-0.086728,0.181584,0.000000,0.133876,0.245678,-0.000000
3.100000,1.516477,1.084034,-1.348988,2.146863,-0.452368,-0.445648,-1.776300,-0.830027,0.266873,-1.596913,1.817786,4.266413,5.898229,16.264402,-2.812422,-0.085300,0.184028,0.000000,0.151782,0.241280,-0.000000
3.110000,1.537857,1.079469,-1.353431,2.129020,-0.460577,-0.442766,-1.791974,-0.811036,0.309397,-1.537800,1.980892,4.234797,5.919957,16.329538,-3.522020,-0.083692,0.186427,0.000000,0.170058,0.236657,0.000000
3.120000,1.559057,1.074822,-1.357843,2.111023,-0.468588,-0.439460,-1.807056,-0.790409,0.351569,-1.478514,2.144377,4.195973,5.932453,16.312128,-4.256097,-0.081898,0.188777,0.000000,0.188651,0.231803,0.000000
3.130000,1.580077,1.070097,-1.362220,2.092879,-0.476385,-0.435734,-1.821544,-0.768148,0.393316,-1.419151,2.307135,4.149675,5.938482,16.208640,-5.004027,-0.079918,0.191078,0.000000,0.207446,0.226713,-0.000000
3.140000,1.600915,1.065295,-1.366558,2.074592,-0.483951,-0.431594,-1.835439,-0.744266,0.434563,-1.359744,2.468550,4.095892,5.944006,16.078159,-5.740068,-0.077749,0.193326,0.000000,0.226372,0.221379,-0.000000
3.150000,1.621569,1.060418,-1.370852,2.056170,-0.491271,-0.427043,-1.848739,-0.718777,0.475234,-1.300271,2.628698,4.034873,5.951140,15.950342,-6.454653,-0.075390,0.195519,0.000000,0.245426,0.215795,-0.000000
3.160000,1.642038,1.055469,-1.375099,2.037618,-0.498327,-0.422089,-1.861444,-0.691692,0.515260,-1.240722,2.787557,3.966799,5.956125,15.781102,-7.161515,-0.072840,0.197654,0.000000,0.264594,0.209955,0.000000
3.170000,1.662321,1.050451,-1.379294,2.018941,-0.505104,-0.416738,-1.873553,-0.663026,0.554570,-1.181148,2.944320,3.891643,5.953657,15.492116,-7.878018,-0.070097,0.199729,0.000000,0.283777,0.203856,-0.000000
3.180000,1.682417,1.045367,-1.383434,2.000146,-0.511587,-0.410998,-1.885067,-0.632806,0.593093,-1.121648,3.097399,3.809239,5.945008,15.091728,-8.596243,-0.067163,0.201741,0.000000,0.302794,0.197495,-0.000000
3.190000,1.702324,1.040220,-1.387514,1.981240,-0.517761,-0.404876,-1.895986,-0.601078,0.630755,-1.062248,3.246155,3.719718,5.937651,14.683061,-9.288118,-0.064041,0.203687,0.000000,0.321554,0.190872,-0.000000
3.200000,1.722042,1.035012,-1.391531,1.962227,-0.523609,-0.398382,-1.906312,-0.567883,0.667487,-1.002895,3.391060,3.623477,5.933390,14.297023,-9.953628,-0.060732,0.205565,0.000000,0.340082,0.183982,0.000000
3.210000,1.741569,1.029747,-1.395482,1.943113,-0.529118,-0.391526,-1.916044,-0.533257,0.703224,-0.943580,3.532095,3.520646,5.927593,13.862095,-10.606919,-0.057239,0.207373,0.000000,0.358350,0.176822,-0.000000
3.220000,1.760904,1.024430,-1.399362,1.923906,-0.534274,-0.384318,-1.925184,-0.497241,0.737900,-0.884344,3.668302,3.411338,5.917062,13.305490,-11.234477,-0.053565,0.209107,0.000000,0.376229,0.169393,0.000000
3.230000,1.780047,1.019062,-1.403168,1.904610,-0.539063,-0.376768,-1.933731,-0.459891,0.771451,-0.825239,3.798205,3.295956,5.903804,12.647025,-11.825552,-0.049714,0.210765,0.000000,0.393530,0.161707,-0.000000
3.240000,1.798996,1.013648,-1.406897,1.885231,-0.543472,-0.368889,-1.941688,-0.421277,0.803819,-0.766267,3.921243,3.174827,5.892463,11.982411,-12.394629,-0.045694,0.212345,0.000000,0.410156,0.153768,-0.000000
3.250000,1.817751,1.008192,-1.410546,1.865776,-0.547489,-0.360692,-1.949056,-0.381466,0.834948,-0.707390,4.037853,3.048064,5.882672,11.340854,-12.955468,-0.041511,0.213843,0.000000,0.426123,0.145573,0.000000
3.260000,1.836312,1.002699,-1.414111,1.846250,-0.551101,-0.352190,-1.955836,-0.340520,0.864781,-0.648614,4.148060,2.915718,5.871964,10.658291,-13.492697,-0.037172,0.215258,0.000000,0.441400,0.137123,-0.000000
3.270000,1.854676,0.997170,-1.417590,1.826659,-0.554299,-0.343396,-1.962029,-0.298505,0.893262,-0.589950,4.251019,2.778210,5.862961,9.865608,-13.962813,-0.032683,0.216587,0.000000,0.455858,0.128430,-0.000000
3.280000,1.872845,0.991613,-1.420979,1.807010,-0.557071,-0.334325,-1.967635,-0.255499,0.920345,-0.531355,4.345372,2.636462,5.857959,8.982810,-14.363137,-0.028055,0.217828,0.000000,0.469312,0.119512,0.000000
3.290000,1.890817,0.986029,-1.424276,1.787307,-0.559409,-0.324989,-1.972656,-0.211597,0.945991,-0.472791,4.430675,2.490947,5.853621,8.103608,-14.747937,-0.023297,0.218978,0.000000,0.481676,0.110380,-0.000000
3.300000,1.908591,0.980424,-1.427479,1.767556,-0.561303,-0.315405,-1.977091,-0.166886,0.970164,-0.414282,4.507444,2.341503,5.843099,7.249794,-15.145314,-0.018422,0.220036,0.000000,0.492976,0.101036,0.000000
3.310000,1.926168,0.974803,-1.430584,1.747765,-0.562747,-0.305586,-1.980941,-0.121448,0.992821,-0.355929,4.575671,2.188041,5.829745,6.361152,-15.513332,-0.013438,0.220999,0.000000,0.503179,0.091494,0.000000
3.320000,1.943546,0.969169,-1.433590,1.727938,-0.563732,-0.295549,-1.984210,-0.075372,1.013925,-0.297688,4.634667,2.031236,5.833124,5.394474,-15.773964,-0.008359,0.221865,0.000000,0.512175,0.081771,0.000000
3.330000,1.960727,0.963528,-1.436495,1.708081,-0.564254,-0.285308,-1.986895,-0.028755,1.033446,-0.239267,4.683560,1.872561,5.851301,4.369031,-15.935519,-0.003195,0.222634,0.000000,0.519839,0.071880,-0.000000
3.340000,1.977708,0.957884,-1.439297,1.688200,-0.564307,-0.274880,-1.988995,0.018299,1.051376,-0.180661,4.722048,1.712526,5.858543,3.345906,-16.098845,0.002037,0.223303,0.000000,0.526113,0.061839,-0.000000
3.350000,1.994491,0.952242,-1.441993,1.668301,-0.563888,-0.264280,-1.990508,0.065686,1.067697,-0.122096,4.750479,1.550584,5.865477,2.357108,-16.281892,0.007326,0.223870,0.000000,0.531014,0.051670,0.000000
3.360000,2.011074,0.946607,-1.444582,1.648389,-0.562994,-0.253526,-1.991437,0.113308,1.082387,-0.063352,4.769190,1.386888,5.888679,1.364988,-16.414339,0.012657,0.224336,0.000000,0.534562,0.041361,-0.000000
3.370000,2.027458,0.940982,-1.447063,1.628472,-0.561622,-0.242632,-1.991775,0.161070,1.095434,-0.004322,4.777778,1.222298,5.892726,0.293482,-16.457829,0.018016,0.224698,0.000000,0.536695,0.030932,0.000000
3.380000,2.043643,0.935374,-1.449435,1.608554,-0.559772,-0.231617,-1.991523,0.208864,1.106833,0.054503,4.775059,1.057731,5.874693,-0.839557,-16.429821,0.023390,0.224954,0.000000,0.537273,0.020470,0.000000
3.390000,2.059629,0.929787,-1.451696,1.588641,-0.557445,-0.220496,-1.990685,0.256571,1.116589,0.113172,4.760987,0.893701,5.884400,-1.925261,-16.377050,0.028761,0.225107,0.000000,0.536285,0.009994,0.000000
3.400000,2.075416,0.924225,-1.453845,1.568740,-0.554641,-0.209285,-1.989260,0.304084,1.124707,0.172191,4.736554,0.730190,5.898629,-2.972707,-16.338064,0.034114,0.225154,0.000000,0.533840,-0.000541,0.000000
3.410000,2.091004,0.918694,-1.455881,1.548856,-0.551363,-0.198002,-1.987242,0.351302,1.131193,0.231144,4.701533,0.566940,5.886222,-4.046699,-16.278960,0.039437,0.225096,0.000000,0.529912,-0.011085,0.000000
3.420000,2.106393,0.913198,-1.457805,1.528995,-0.547615,-0.186661,-1.984637,0.398114,1.136046,0.289915,4.655620,0.404611,5.928881,-5.087204,-16.088890,0.044712,0.224932,0.000000,0.524473,-0.021597,0.000000
3.430000,2.121584,0.907742,-1.459615,1.509164,-0.543401,-0.175281,-1.981443,0.444414,1.139285,0.349722,4.599789,0.245162,6.041181,-6.060699,-15.774233,0.049925,0.224664,0.000000,0.517653,-0.032151,-0.000000
3.440000,2.136577,0.902330,-1.461310,1.489367,-0.538726,-0.163876,-1.977643,0.490110,1.140949,0.410739,4.534406,0.089127,6.107765,-7.047398,-15.486581,0.055064,0.224289,0.000000,0.509513,-0.042742,-0.000000
3.450000,2.151371,0.896967,-1.462892,1.469611,-0.533598,-0.152462,-1.973229,0.535103,1.141068,0.471877,4.458841,-0.064569,6.112747,-8.078316,-15.254782,0.060114,0.223807,0.000000,0.499991,-0.053267,0.000000
3.460000,2.165969,0.891658,-1.464360,1.449902,-0.528024,-0.141054,-1.968205,0.579287,1.139658,0.532994,4.372840,-0.215969,6.134345,-9.089977,-14.977542,0.065063,0.223221,0.000000,0.489077,-0.063703,0.000000
3.470000,2.180369,0.886407,-1.465713,1.430247,-0.522013,-0.129669,-1.962569,0.622559,1.136748,0.594564,4.277041,-0.364120,6.186472,-10.006818,-14.605856,0.069895,0.222531,0.000000,0.476870,-0.074068,0.000000
3.480000,2.194574,0.881218,-1.466953,1.410651,-0.515573,-0.118319,-1.956314,0.664828,1.132376,0.656723,4.172704,-0.508086,6.238916,-10.844466,-14.177045,0.074600,0.221736,0.000000,0.463545,-0.084346,0.000000
3.490000,2.208583,0.876095,-1.468080,1.391120,-0.508716,-0.107021,-1.949434,0.706013,1.126586,0.719342,4.060152,-0.647661,6.278552,-11.693798,-13.753670,0.079166,0.220839,0.000000,0.449165,-0.094510,0.000000
3.500000,2.222396,0.871043,-1.469093,1.371662,-0.501453,-0.095788,-1.941927,0.746031,1.119422,0.782294,3.938828,-0.783160,6.324026,-12.555266,-13.330658,0.083582,0.219841,0.000000,0.433692,-0.104548,0.000000
3.510000,2.236016,0.866066,-1.469995,1.352282,-0.493796,-0.084633,-1.933788,0.784790,1.110923,0.845823,3.809047,-0.914274,6.380411,-13.363656,-12.871516,0.087839,0.218741,0.000000,0.417193,-0.114473,0.000000
3.520000,2.249442,0.861168,-1.470786,1.332986,-0.485757,-0.073569,-1.925010,0.822212,1.101137,0.909902,3.671554,-1.040590,6.399020,-14.119397,-12.399238,0.091926,0.217542,0.000000,0.399782,-0.124267,-0.000000
3.530000,2.262675,0.856351,-1.471467,1.313782,-0.477351,-0.062610,-1.915590,0.858221,1.090112,0.973803,3.526659,-1.162259,6.380047,-14.837190,-11.929277,0.095834,0.216246,0.000000,0.381520,-0.133851,0.000000
3.540000,2.275717,0.851620,-1.472038,1.294674,-0.468593,-0.051767,-1.905534,0.892745,1.077892,1.037503,3.374811,-1.279175,6.388192,-15.506118,-11.432611,0.099556,0.214853,0.000000,0.362485,-0.143216,0.000000
3.550000,2.288569,0.846979,-1.472502,1.275671,-0.459496,-0.041052,-1.894840,0.925717,1.064528,1.101567,3.216537,-1.390911,6.395197,-16.155789,-10.916698,0.103084,0.213367,0.000000,0.342767,-0.152411,0.000000
3.560000,2.301231,0.842431,-1.472859,1.256778,-0.450078,-0.030476,-1.883503,0.957076,1.050074,1.165407,3.051695,-1.497509,6.359014,-16.787601,-10.404941,0.106411,0.211789,0.000000,0.322375,-0.161374,0.000000
3.570000,2.313705,0.837978,-1.473112,1.238001,-0.440355,-0.020051,-1.871532,0.986751,1.034578,1.228747,2.880784,-1.599010,6.374567,-17.296218,-9.872926,0.109532,0.210122,0.000000,0.301388,-0.170075,-0.000000
3.580000,2.325991,0.833623,-1.473260,1.219347,-0.430343,-0.009785,-1.858928,1.014691,1.018093,1.292898,2.705771,-1.694968,6.457327,-17.673666,-9.318842,0.112439,0.208367,0.000000,0.280053,-0.178645,0.000000
3.590000,2.338091,0.829371,-1.473307,1.200822,-0.420061,0.000311,-1.845674,1.040867,1.000678,1.357894,2.527311,-1.785387,6.471276,-18.061304,-8.783008,0.115133,0.206526,0.000000,0.258463,-0.187091,0.000000
3.600000,2.350007,0.825222,-1.473254,1.182433,-0.409526,0.010229,-1.831770,1.065238,0.982386,1.422324,2.344544,-1.870628,6.413854,-18.478880,-8.242309,0.117609,0.204601,0.000000,0.236533,-0.195269,0.000000
3.610000,2.361740,0.821180,-1.473103,1.164187,-0.398756,0.019959,-1.817228,1.087758,0.963266,1.486171,2.157734,-1.950233,6.374611,-18.827839,-7.675792,0.119864,0.202594,0.000000,0.214316,-0.203170,0.000000
3.620000,2.373291,0.817247,-1.472855,1.146089,-0.387771,0.029494,-1.802047,1.108392,0.943381,1.549816,1.967988,-2.024144,6.319581,-19.078937,-7.171657,0.121896,0.200508,0.000000,0.191950,-0.210839,-0.000000
3.630000,2.384662,0.813425,-1.472513,1.128146,-0.376589,0.038827,-1.786231,1.127117,0.922783,1.612563,1.776155,-2.093666,6.211362,-19.263543,-6.747169,0.123703,0.198346,0.000000,0.169520,-0.218233,0.000000
3.640000,2.395854,0.809715,-1.472078,1.110364,-0.365229,0.047950,-1.769796,1.143915,0.901508,1.674043,1.582717,-2.159087,6.102418,-19.411589,-6.282894,0.125286,0.196110,0.000000,0.147083,-0.225321,0.000000
3.650000,2.406869,0.806120,-1.471554,1.092750,-0.353710,0.056857,-1.752750,1.158772,0.879601,1.734611,1.387923,-2.219324,6.020979,-19.529146,-5.741061,0.126645,0.193804,0.000000,0.124690,-0.232124,-0.000000
3.660000,2.417709,0.802641,-1.470941,1.075309,-0.342053,0.065542,-1.735103,1.171674,0.857121,1.794463,1.192134,-2.273909,5.926393,-19.595800,-5.207896,0.127781,0.191431,0.000000,0.102393,-0.238658,0.000000
3.670000,2.428375,0.799279,-1.470243,1.058048,-0.330277,0.073999,-1.716861,1.182614,0.834123,1.853139,0.996007,-2.323482,5.756535,-19.585288,-4.768360,0.128694,0.188992,0.000000,0.080259,-0.244894,-0.000000
3.680000,2.438870,0.796036,-1.469461,1.040972,-0.318401,0.082224,-1.698041,1.191594,0.810651,1.909594,0.800428,-2.369276,5.518946,-19.498438,-4.396625,0.129386,0.186492,0.000000,0.058365,-0.250752,-0.000000
3.690000,2.449195,0.792911,-1.468598,1.024087,-0.306445,0.090212,-1.678669,1.198623,0.786738,1.963518,0.606038,-2.411415,5.294430,-19.370435,-3.985625,0.129861,0.183935,0.000000,0.036780,-0.256206,0.000000
3.700000,2.459352,0.789907,-1.467657,1.007399,-0.294428,0.097959,-1.658770,1.203715,0.762423,2.015482,0.413019,-2.448988,5.112177,-19.240272,-3.529875,0.130122,0.181325,0.000000,0.015536,-0.261305,0.000000
3.710000,2.469343,0.787023,-1.466639,0.990912,-0.282371,0.105461,-1.638360,1.206883,0.737758,2.065761,0.221233,-2.482012,4.915184,-19.081547,-3.101484,0.130172,0.178665,0.000000,-0.005381,-0.266085,-0.000000
3.720000,2.479170,0.784259,-1.465548,0.974631,-0.270291,0.112714,-1.617455,1.208139,0.712783,2.113786,0.031388,-2.511018,4.630127,-18.786722,-2.705276,0.130015,0.175958,0.000000,-0.025908,-0.270504,-0.000000
3.730000,2.488835,0.781617,-1.464385,0.958563,-0.258208,0.119716,-1.596084,1.207511,0.687537,2.158364,-0.154502,-2.536118,4.273521,-18.356508,-2.314244,0.129655,0.173209,0.000000,-0.045838,-0.274444,0.000000
3.740000,2.498341,0.779095,-1.463153,0.942710,-0.246140,0.126465,-1.574288,1.205049,0.662061,2.199256,-0.335742,-2.557303,3.941725,-17.939714,-1.928918,0.129099,0.170423,0.000000,-0.065103,-0.277888,-0.000000
3.750000,2.507690,0.776694,-1.461856,0.927077,-0.234107,0.132958,-1.552099,1.200796,0.636391,2.237198,-0.513296,-2.574696,3.647627,-17.589661,-1.567699,0.128353,0.167604,0.000000,-0.083811,-0.280921,-0.000000
3.760000,2.516883,0.774413,-1.460494,0.911668,-0.222125,0.139193,-1.529544,1.194783,0.610567,2.272209,-0.687535,-2.588657,3.327182,-17.205064,-1.228075,0.127423,0.164758,0.000000,-0.102012,-0.283560,0.000000
3.770000,2.525923,0.772252,-1.459072,0.896486,-0.210211,0.145169,-1.506655,1.187045,0.584618,2.303742,-0.857397,-2.599258,2.958915,-16.667245,-0.867062,0.126313,0.161887,0.000000,-0.119600,-0.285754,-0.000000
3.780000,2.534812,0.770209,-1.457591,0.881535,-0.198384,0.150885,-1.483469,1.177635,0.558582,2.331387,-1.020880,-2.605998,2.559701,-16.014327,-0.486954,0.125031,0.158997,0.000000,-0.136368,-0.287461,-0.000000
3.790000,2.543554,0.768284,-1.456054,0.866817,-0.186658,0.156341,-1.460027,1.166628,0.532498,2.354936,-1.177684,-2.608997,2.157202,-15.405119,-0.146365,0.123586,0.156093,0.000000,-0.152293,-0.288666,-0.000000
3.800000,2.552149,0.766476,-1.454464,0.852334,-0.175051,0.161535,-1.436370,1.154082,0.506402,2.374531,-1.328982,-2.608925,1.796383,-14.823443,0.169449,0.121986,0.153179,0.000000,-0.167515,-0.289405,0.000000
3.810000,2.560600,0.764783,-1.452823,0.838089,-0.163577,0.166469,-1.412536,1.140048,0.480320,2.390864,-1.474153,-2.605608,1.457964,-14.170572,0.497971,0.120236,0.150261,0.000000,-0.181974,-0.289751,-0.000000
3.820000,2.568911,0.763204,-1.451135,0.824083,-0.152250,0.171141,-1.388553,1.124599,0.454289,2.403691,-1.612394,-2.598966,1.014343,-13.526039,0.782439,0.118346,0.147342,0.000000,-0.195593,-0.289685,-0.000000
3.830000,2.577082,0.761738,-1.449401,0.810318,-0.141085,0.175554,-1.364462,1.107800,0.428340,2.411150,-1.744673,-2.589959,0.474036,-12.930364,1.006735,0.116325,0.144427,0.000000,-0.208497,-0.289036,0.000000
3.840000,2.585117,0.760382,-1.447624,0.796794,-0.130094,0.179708,-1.340330,1.089705,0.402490,2.413171,-1.871001,-2.578831,0.014742,-12.272669,1.252118,0.114177,0.141522,0.000000,-0.220695,-0.287805,0.000000
3.850000,2.593018,0.759136,-1.445806,0.783512,-0.119291,0.183604,-1.316199,1.070380,0.376764,2.411445,-1.990127,-2.564916,-0.374772,-11.549593,1.531787,0.111911,0.138633,0.000000,-0.232056,-0.286163,-0.000000
3.860000,2.600787,0.757997,-1.443952,0.770470,-0.108686,0.187244,-1.292101,1.049903,0.351192,2.405676,-2.101993,-2.548196,-0.807804,-10.841779,1.789966,0.109536,0.135763,0.000000,-0.242581,-0.284087,-0.000000
3.870000,2.608427,0.756962,-1.442062,0.757670,-0.098293,0.190628,-1.268086,1.028341,0.325800,2.395289,-2.206962,-2.529117,-1.204459,-10.130423,2.012408,0.107059,0.132917,0.000000,-0.252322,-0.281527,0.000000
3.880000,2.615941,0.756031,-1.440139,0.745108,-0.088120,0.193760,-1.244195,1.005764,0.300610,2.381587,-2.304601,-2.507947,-1.512703,-9.390582,2.219401,0.104490,0.130100,0.000000,-0.261243,-0.278628,0.000000
3.890000,2.623329,0.755200,-1.438186,0.732786,-0.078177,0.196640,-1.220454,0.982248,0.275641,2.365035,-2.394774,-2.484729,-1.848003,-8.661759,2.426082,0.101835,0.127314,0.000000,-0.269337,-0.275442,0.000000
3.900000,2.630596,0.754467,-1.436206,0.720699,-0.068475,0.199272,-1.196894,0.957868,0.250915,2.344627,-2.477836,-2.459426,-2.265599,-7.950039,2.625782,0.099103,0.124562,0.000000,-0.276650,-0.271868,-0.000000
3.910000,2.637743,0.753830,-1.434201,0.708848,-0.059020,0.201659,-1.173561,0.932692,0.226452,2.319723,-2.553775,-2.432213,-2.678443,-7.232608,2.810139,0.096302,0.121849,0.000000,-0.283190,-0.267849,0.000000
3.920000,2.644773,0.753287,-1.432173,0.697228,-0.049821,0.203801,-1.150500,0.906793,0.202271,2.291058,-2.622489,-2.403223,-2.960777,-6.522371,2.995498,0.093439,0.119180,0.000000,-0.288953,-0.263464,-0.000000
3.930000,2.651688,0.752834,-1.430125,0.685838,-0.040884,0.205704,-1.127740,0.880242,0.178388,2.260508,-2.684222,-2.372304,-3.139333,-5.839574,3.185453,0.090523,0.116557,0.000000,-0.293970,-0.258907,0.000000
3.940000,2.658490,0.752469,-1.428059,0.674673,-0.032216,0.207369,-1.105290,0.853108,0.154825,2.228271,-2.739280,-2.339514,-3.375128,-5.168673,3.357976,0.087560,0.113980,0.000000,-0.298278,-0.254202,0.000000
3.950000,2.665181,0.752190,-1.425977,0.663732,-0.023822,0.208800,-1.083175,0.825456,0.131598,2.193005,-2.787596,-2.305144,-3.657686,-4.450789,3.514462,0.084557,0.111453,0.000000,-0.301881,-0.249217,0.000000
3.960000,2.671765,0.751993,-1.423883,0.653010,-0.015707,0.210001,-1.061430,0.797356,0.108722,2.155117,-2.828296,-2.269225,-3.879368,-3.705905,3.670243,0.081522,0.108978,0.000000,-0.304698,-0.243997,-0.000000
3.970000,2.678242,0.751875,-1.421777,0.642503,-0.007875,0.210975,-1.040072,0.768890,0.086213,2.115418,-2.861714,-2.231739,-4.091521,-3.106459,3.816649,0.078463,0.106557,0.000000,-0.306767,-0.238625,-0.000000
3.980000,2.684615,0.751835,-1.419663,0.632208,-0.000329,0.211725,-1.019121,0.740122,0.064087,2.073287,-2.890425,-2.192892,-4.328055,-2.652520,3.950251,0.075387,0.104190,0.000000,-0.308360,-0.233043,-0.000000
3.990000,2.690886,0.751869,-1.417543,0.622121,0.006928,0.212257,-0.998607,0.711082,0.042355,2.028857,-2.914764,-2.152734,-4.508459,-2.112787,4.084718,0.072296,0.101882,0.000000,-0.309514,-0.227267,0.000000
4.000000,2.697057,0.751974,-1.415418,0.612236,0.013893,0.212573,-0.978544,0.681827,0.021032,1.983118,-2.932681,-2.111197,-4.655655,-1.480020,4.209084,0.069196,0.099633,0.000000,-0.310025,-0.221398,-0.000000
4.010000,2.703131,0.752147,-1.413291,0.602550,0.020564,0.212677,-0.958944,0.652428,0.000131,1.935743,-2.944364,-2.068552,-4.821576,-0.911117,4.315557,0.066095,0.097443,0.000000,-0.309922,-0.215405,0.000000
4.020000,2.709108,0.752385,-1.411165,0.593057,0.026941,0.212575,-0.939829,0.622939,-0.020339,1.886686,-2.950903,-2.024886,-4.904565,-0.380327,4.442249,0.062998,0.095315,0.000000,-0.309319,-0.209285,-0.000000
4.030000,2.714992,0.752686,-1.409040,0.583753,0.033023,0.212271,-0.921210,0.593410,-0.040366,1.837652,-2.951971,-1.979707,-4.881566,0.167864,4.592953,0.059909,0.093249,0.000000,-0.308184,-0.203207,-0.000000
4.040000,2.720783,0.753045,-1.406919,0.574633,0.038809,0.211768,-0.903076,0.563900,-0.059933,1.789055,-2.947546,-1.933027,-4.896769,0.682954,4.715075,0.056834,0.091244,0.000000,-0.306519,-0.197210,0.000000
4.050000,2.726484,0.753462,-1.404805,0.565692,0.044301,0.211072,-0.885429,0.534459,-0.079027,1.739717,-2.938312,-1.885406,-4.969669,1.152846,4.808214,0.053778,0.089298,0.000000,-0.304403,-0.191183,0.000000
4.060000,2.732097,0.753931,-1.402698,0.556925,0.049499,0.210187,-0.868282,0.505134,-0.097641,1.689662,-2.924489,-1.836863,-5.001896,1.613250,4.907749,0.050746,0.087414,0.000000,-0.301861,-0.185127,0.000000
4.070000,2.737623,0.754452,-1.400601,0.548326,0.054404,0.209119,-0.851636,0.475970,-0.115764,1.639679,-2.906047,-1.787251,-4.977697,2.064698,5.001907,0.047741,0.085591,0.000000,-0.298892,-0.179119,0.000000
4.080000,2.743064,0.755020,-1.398515,0.539892,0.059018,0.207872,-0.835488,0.447013,-0.133386,1.590108,-2.883195,-1.736825,-4.931929,2.492624,5.077964,0.044768,0.083828,0.000000,-0.295522,-0.173195,0.000000
4.090000,2.748421,0.755632,-1.396443,0.531617,0.063344,0.206451,-0.819834,0.418306,-0.150501,1.541040,-2.856194,-1.685692,-4.878793,2.899093,5.155117,0.041831,0.082123,0.000000,-0.291781,-0.167363,0.000000
4.100000,2.753696,0.756286,-1.394386,0.523495,0.067384,0.204862,-0.804668,0.389889,-0.167100,1.492532,-2.825213,-1.633722,-4.815022,3.296070,5.235128,0.038932,0.080477,0.000000,-0.287687,-0.161628,-0.000000
4.110000,2.758891,0.756980,-1.392346,0.515523,0.071142,0.203109,-0.789983,0.361801,-0.183175,1.444740,-2.790273,-1.580989,-4.733635,3.680196,5.304623,0.036077,0.078888,0.000000,-0.283245,-0.156002,0.000000
4.120000,2.764006,0.757709,-1.390324,0.507696,0.074620,0.201199,-0.775773,0.334083,-0.198720,1.397859,-2.751609,-1.527630,-4.636367,4.021020,5.367702,0.033267,0.077355,0.000000,-0.278482,-0.150506,-0.000000
4.130000,2.769045,0.758472,-1.388322,0.500008,0.077823,0.199135,-0.762026,0.306769,-0.213728,1.352013,-2.709853,-1.473635,-4.526576,4.317726,5.429195,0.030507,0.075876,0.000000,-0.273461,-0.145151,-0.000000
4.140000,2.774007,0.759266,-1.386342,0.492455,0.080755,0.196924,-0.748733,0.279886,-0.228192,1.307328,-2.665255,-1.419046,-4.403453,4.611513,5.482094,0.027798,0.074451,0.000000,-0.268209,-0.139947,0.000000
4.150000,2.778894,0.760087,-1.384384,0.485033,0.083421,0.194571,-0.735880,0.253464,-0.242109,1.263943,-2.617622,-1.363993,-4.269184,4.909933,5.525189,0.025142,0.073076,0.000000,-0.262708,-0.134907,-0.000000
4.160000,2.783707,0.760934,-1.382450,0.477737,0.085825,0.192082,-0.723454,0.227534,-0.255472,1.221944,-2.567056,-1.308542,-4.125755,5.184665,5.563363,0.022543,0.071751,0.000000,-0.256969,-0.130039,-0.000000
4.170000,2.788448,0.761804,-1.380542,0.470564,0.087972,0.189462,-0.711441,0.202123,-0.268279,1.181428,-2.513929,-1.252726,-3.968956,5.422463,5.596444,0.020003,0.070475,0.000000,-0.251030,-0.125350,0.000000
4.180000,2.793118,0.762694,-1.378661,0.463509,0.089867,0.186716,-0.699825,0.177255,-0.280527,1.142565,-2.458607,-1.196613,-3.799452,5.632383,5.622274,0.017523,0.069244,0.000000,-0.244927,-0.120856,-0.000000
4.190000,2.797719,0.763601,-1.376808,0.456567,0.091517,0.183851,-0.688589,0.152951,-0.292212,1.105439,-2.401281,-1.140280,-3.625256,5.830463,5.641533,0.015104,0.068057,0.000000,-0.238679,-0.116564,0.000000
4.200000,2.802250,0.764524,-1.374984,0.449737,0.092926,0.180872,-0.677716,0.129230,-0.303332,1.070060,-2.341997,-1.083783,-3.445735,6.020844,5.657045,0.012749,0.066912,0.000000,-0.232289,-0.112474,0.000000
4.210000,2.806713,0.765460,-1.373190,0.443013,0.094101,0.177784,-0.667188,0.106111,-0.313887,1.036525,-2.280865,-1.027140,-3.257221,6.193092,5.667990,0.010458,0.065807,0.000000,-0.225769,-0.108593,0.000000
4.220000,2.811110,0.766406,-1.371428,0.436393,0.095048,0.174594,-0.656986,0.083612,-0.323875,1.004915,-2.218136,-0.970423,-3.066990,6.335658,5.666902,0.008233,0.064740,0.000000,-0.219142,-0.104928,0.000000
4.230000,2.815441,0.767361,-1.369698,0.429873,0.095774,0.171307,-0.647090,0.061748,-0.333296,0.975185,-2.154151,-0.913802,-2.878068,6.451939,5.653808,0.006075,0.063709,0.000000,-0.212441,-0.101473,0.000000
4.240000,2.819708,0.768321,-1.368002,0.423451,0.096283,0.167928,-0.637482,0.040529,-0.342151,0.947354,-2.089097,-0.857347,-2.682176,6.557727,5.638875,0.003984,0.062710,0.000000,-0.205683,-0.098230,-0.000000
4.250000,2.823910,0.769286,-1.366340,0.417124,0.096584,0.164464,-0.628143,0.019966,-0.350443,0.921541,-2.022997,-0.801024,-2.477327,6.655980,5.622942,0.001961,0.061744,0.000000,-0.198868,-0.095209,-0.000000
4.260000,2.828050,0.770253,-1.364713,0.410888,0.096683,0.160919,-0.619051,0.000069,-0.358172,0.897807,-1.955977,-0.744888,-2.270835,6.736686,5.599200,0.000007,0.060806,0.000000,-0.192008,-0.092413,-0.000000
4.270000,2.832128,0.771220,-1.363122,0.404743,0.096586,0.157300,-0.610187,-0.019153,-0.365340,0.876125,-1.888263,-0.689040,-2.069265,6.794904,5.567448,-0.001879,0.059895,0.000000,-0.185122,-0.089840,0.000000
4.280000,2.836145,0.772185,-1.361567,0.398685,0.096300,0.153613,-0.601529,-0.037696,-0.371952,0.856422,-1.820079,-0.633539,-1.871610,6.834578,5.529959,-0.003696,0.059009,0.000000,-0.178231,-0.087482,-0.000000
4.290000,2.840102,0.773146,-1.360049,0.392712,0.095832,0.149861,-0.593058,-0.055555,-0.378011,0.838692,-1.751572,-0.578441,-1.671368,6.862709,5.486575,-0.005444,0.058146,0.000000,-0.171347,-0.085336,-0.000000
4.300000,2.843999,0.774101,-1.358570,0.386824,0.095189,0.146052,-0.584755,-0.072727,-0.383521,0.822995,-1.682825,-0.523807,-1.467613,6.879994,5.438422,-0.007123,0.057303,0.000000,-0.164476,-0.083408,-0.000000
4.310000,2.847838,0.775050,-1.357128,0.381017,0.094377,0.142191,-0.576598,-0.089211,-0.388487,0.809340,-1.613972,-0.469672,-1.266140,6.882696,5.385719,-0.008733,0.056478,0.000000,-0.157630,-0.081698,0.000000
4.320000,2.851619,0.775989,-1.355726,0.375292,0.093404,0.138283,-0.568568,-0.105007,-0.392915,0.797672,-1.545171,-0.416093,-1.072019,6.870830,5.324433,-0.010276,0.055668,0.000000,-0.150820,-0.080200,-0.000000
4.330000,2.855344,0.776918,-1.354363,0.369646,0.092277,0.134333,-0.560645,-0.120115,-0.396809,0.787900,-1.476555,-0.363184,-0.885092,6.846471,5.254280,-0.011750,0.054873,0.000000,-0.144059,-0.078905,-0.000000
4.340000,2.859012,0.777835,-1.353039,0.364079,0.091002,0.130346,-0.552810,-0.134538,-0.400178,0.779970,-1.408242,-0.311007,-0.700474,6.810499,5.181109,-0.013157,0.054090,0.000000,-0.137354,-0.077806,-0.000000
4.350000,2.862626,0.778738,-1.351756,0.358590,0.089586,0.126329,-0.545046,-0.148280,-0.403029,0.773890,-1.340345,-0.259562,-0.513583,6.762954,5.106785,-0.014497,0.053317,0.000000,-0.130716,-0.076904,-0.000000
4.360000,2.866184,0.779626,-1.350513,0.353178,0.088036,0.122286,-0.537332,-0.161345,-0.405370,0.769698,-1.272983,-0.208872,-0.329259,6.704267,5.027447,-0.015771,0.052552,0.000000,-0.124152,-0.076202,0.000000
4.370000,2.869689,0.780499,-1.349310,0.347843,0.086359,0.118222,-0.529652,-0.173739,-0.407207,0.767305,-1.206260,-0.159013,-0.163019,6.635913,4.939500,-0.016980,0.051793,0.000000,-0.117672,-0.075692,0.000000
4.380000,2.873141,0.781353,-1.348148,0.342585,0.084562,0.114142,-0.521986,-0.185470,-0.408550,0.766438,-1.140264,-0.110082,-0.014849,6.558528,4.844419,-0.018125,0.051038,0.000000,-0.111280,-0.075346,0.000000
4.390000,2.876541,0.782190,-1.347027,0.337403,0.082650,0.110051,-0.514323,-0.196545,-0.409408,0.767008,-1.075089,-0.062124,0.134841,6.471389,4.747142,-0.019206,0.050286,0.000000,-0.104985,-0.075156,0.000000
4.400000,2.879889,0.783006,-1.345947,0.332298,0.080631,0.105954,-0.506646,-0.206972,-0.409792,0.769135,-1.010836,-0.015139,0.288837,6.374804,4.647732,-0.020224,0.049534,0.000000,-0.098793,-0.075133,0.000000
4.410000,2.883187,0.783802,-1.344908,0.327270,0.078511,0.101855,-0.498940,-0.216761,-0.409711,0.772785,-0.947593,0.030830,0.432848,6.270197,4.543230,-0.021182,0.048783,0.000000,-0.092712,-0.075273,-0.000000
4.420000,2.886434,0.784577,-1.343910,0.322319,0.076296,0.097759,-0.491190,-0.225924,-0.409176,0.777792,-0.885433,0.075726,0.560792,6.158510,4.434641,-0.022079,0.048029,0.000000,-0.086746,-0.075562,-0.000000
4.430000,2.889633,0.785328,-1.342953,0.317446,0.073992,0.093671,-0.483384,-0.234470,-0.408197,0.784001,-0.824423,0.119523,0.676441,6.040086,4.323233,-0.022917,0.047271,0.000000,-0.080900,-0.075983,0.000000
4.440000,2.892783,0.786056,-1.342037,0.312652,0.071606,0.089595,-0.475510,-0.242412,-0.406785,0.791321,-0.764631,0.162190,0.785927,5.914980,4.207811,-0.023697,0.046509,0.000000,-0.075178,-0.076527,-0.000000
4.450000,2.895886,0.786760,-1.341161,0.307936,0.069144,0.085536,-0.467558,-0.249763,-0.404953,0.799719,-0.706123,0.203679,0.891799,5.782965,4.088569,-0.024420,0.045740,0.000000,-0.069586,-0.077192,-0.000000
4.460000,2.898942,0.787439,-1.340326,0.303301,0.066611,0.081496,-0.459516,-0.256534,-0.402712,0.809157,-0.648972,0.243962,0.989143,5.644954,3.966646,-0.025088,0.044964,0.000000,-0.064128,-0.077973,-0.000000
4.470000,2.901952,0.788093,-1.339531,0.298746,0.064013,0.077481,-0.451375,-0.262742,-0.400074,0.819502,-0.593224,0.283012,1.068593,5.503732,3.841479,-0.025703,0.044180,0.000000,-0.058809,-0.078858,0.000000
4.480000,2.904917,0.788720,-1.338776,0.294273,0.061356,0.073495,-0.443126,-0.268399,-0.397051,0.830528,-0.538897,0.320791,1.130487,5.360047,3.712928,-0.026265,0.043386,0.000000,-0.053627,-0.079826,-0.000000
4.490000,2.907838,0.789320,-1.338061,0.289883,0.058645,0.069540,-0.434764,-0.273520,-0.393658,0.842112,-0.486023,0.357271,1.186670,5.211267,3.582290,-0.026775,0.042583,0.000000,-0.048584,-0.080863,0.000000
4.500000,2.910715,0.789893,-1.337385,0.285578,0.055886,0.065622,-0.426284,-0.278119,-0.389906,0.854262,-0.434672,0.392437,1.241973,5.055644,3.449739,-0.027236,0.041769,0.000000,-0.043687,-0.081970,0.000000
4.510000,2.913549,0.790437,-1.336749,0.281358,0.053083,0.061742,-0.417679,-0.282213,-0.385809,0.866951,-0.384910,0.426266,1.287612,4.895967,3.314731,-0.027649,0.040943,0.000000,-0.038941,-0.083146,-0.000000
4.520000,2.916342,0.790954,-1.336151,0.277224,0.050241,0.057906,-0.408945,-0.285818,-0.381381,0.880014,-0.336752,0.458732,1.310737,4.738605,3.177867,-0.028015,0.040105,0.000000,-0.034346,-0.084374,-0.000000
4.530000,2.919094,0.791442,-1.335591,0.273179,0.047366,0.054115,-0.400079,-0.288948,-0.376634,0.893166,-0.290138,0.489823,1.313537,4.583649,3.039848,-0.028336,0.039255,0.000000,-0.029895,-0.085625,-0.000000
4.540000,2.921805,0.791901,-1.335068,0.269223,0.044462,0.050373,-0.391081,-0.291620,-0.371584,0.906285,-0.245079,0.519529,1.312556,4.423594,2.900184,-0.028613,0.038392,0.000000,-0.025588,-0.086888,0.000000
4.550000,2.924478,0.792332,-1.334583,0.265357,0.041534,0.046683,-0.381953,-0.293850,-0.366244,0.919417,-0.201667,0.547827,1.310180,4.256673,2.757187,-0.028848,0.037516,0.000000,-0.021435,-0.088168,0.000000
4.560000,2.927113,0.792732,-1.334135,0.261584,0.038585,0.043048,-0.372693,-0.295654,-0.360628,0.932488,-0.159946,0.574672,1.295045,4.088785,2.611649,-0.029042,0.036628,0.000000,-0.017438,-0.089456,-0.000000
4.570000,2.929710,0.793103,-1.333722,0.257903,0.035621,0.039470,-0.363303,-0.297049,-0.354750,0.945318,-0.119891,0.600060,1.262423,3.925268,2.468934,-0.029196,0.035726,0.000000,-0.013594,-0.090735,0.000000
4.580000,2.932271,0.793445,-1.333345,0.254318,0.032644,0.035953,-0.353787,-0.298052,-0.348627,0.957737,-0.081440,0.624051,1.215610,3.765090,2.329320,-0.029314,0.034812,0.000000,-0.009899,-0.091988,-0.000000
4.590000,2.934796,0.793756,-1.333003,0.250828,0.029660,0.032498,-0.344148,-0.298678,-0.342269,0.969630,-0.044589,0.646646,1.160171,3.602220,2.185802,-0.029394,0.033886,0.000000,-0.006350,-0.093202,-0.000000
4.600000,2.937287,0.794038,-1.332695,0.247435,0.026671,0.029108,-0.334394,-0.298943,-0.335694,0.980940,-0.009396,0.667767,1.099550,3.434266,2.036969,-0.029441,0.032947,0.000000,-0.002953,-0.094373,-0.000000
4.610000,2.939745,0.794290,-1.332421,0.244140,0.023681,0.025784,-0.324530,-0.298866,-0.328914,0.991621,0.024096,0.687385,1.029877,3.266013,1.887870,-0.029453,0.031997,0.000000,0.000288,-0.095494,-0.000000
4.620000,2.942170,0.794511,-1.332180,0.240944,0.020694,0.022529,-0.314562,-0.298461,-0.321946,1.001538,0.055924,0.705525,0.940980,3.105055,1.741491,-0.029435,0.031037,0.000000,0.003375,-0.096553,-0.000000
4.630000,2.944564,0.794703,-1.331970,0.237848,0.017712,0.019345,-0.304499,-0.297747,-0.314804,1.010441,0.086197,0.722215,0.833594,2.950727,1.596488,-0.029386,0.030065,0.000000,0.006321,-0.097523,0.000000
4.640000,2.946927,0.794866,-1.331793,0.234854,0.014739,0.016233,-0.294353,-0.296737,-0.307502,1.018210,0.114939,0.737454,0.721682,2.793571,1.449383,-0.029308,0.029085,0.000000,0.009127,-0.098392,-0.000000
4.650000,2.949261,0.794998,-1.331646,0.231961,0.011777,0.013195,-0.284135,-0.295448,-0.300055,1.024875,0.142069,0.751203,0.609245,2.630619,1.298682,-0.029203,0.028097,0.000000,0.011785,-0.099163,0.000000
4.660000,2.951566,0.795101,-1.331529,0.229171,0.008830,0.010232,-0.273855,-0.293896,-0.292478,1.030395,0.167551,0.763428,0.486936,2.468828,1.146919,-0.029073,0.027101,0.000000,0.014291,-0.099830,-0.000000
4.670000,2.953844,0.795175,-1.331441,0.226484,0.005899,0.007346,-0.263527,-0.292097,-0.284786,1.034613,0.191445,0.774141,0.346336,2.316148,0.998585,-0.028918,0.026099,0.000000,0.016650,-0.100378,0.000000
4.680000,2.956096,0.795219,-1.331382,0.223901,0.002988,0.004536,-0.253163,-0.290067,-0.276995,1.037321,0.213874,0.783400,0.190459,2.171201,0.853227,-0.028740,0.025093,0.000000,0.018875,-0.100783,-0.000000
4.690000,2.958322,0.795235,-1.331350,0.221421,0.000098,0.001806,-0.242780,-0.287820,-0.269118,1.038422,0.234869,0.791206,0.030690,2.023919,0.704920,-0.028540,0.024083,0.000000,0.020968,-0.101036,0.000000
4.700000,2.960524,0.795221,-1.331346,0.219045,-0.002769,-0.000846,-0.232395,-0.285370,-0.261171,1.037935,0.254353,0.797498,-0.130170,1.869837,0.551600,-0.028320,0.023071,0.000000,0.022921,-0.101138,-0.000000
4.710000,2.962703,0.795179,-1.331367,0.216773,-0.005610,-0.003418,-0.222022,-0.282733,-0.253168,1.035819,0.272266,0.802238,-0.299348,1.716190,0.397382,-0.028082,0.022059,0.000000,0.024728,-0.101084,0.000000
4.720000,2.964860,0.795109,-1.331414,0.214605,-0.008423,-0.005909,-0.211678,-0.279924,-0.245126,1.031948,0.288676,0.805446,-0.482615,1.575005,0.247303,-0.027826,0.021049,0.000000,0.026394,-0.100859,0.000000
4.730000,2.966995,0.795011,-1.331485,0.212540,-0.011208,-0.008320,-0.201383,-0.276959,-0.237059,1.026167,0.303766,0.807184,-0.677532,1.445028,0.100552,-0.027554,0.020041,0.000000,0.027937,-0.100447,-0.000000
4.740000,2.969111,0.794885,-1.331580,0.210577,-0.013963,-0.010650,-0.191155,-0.273849,-0.228982,1.018398,0.317577,0.807457,-0.875870,1.310179,-0.049659,-0.027267,0.019039,0.000000,0.029361,-0.099839,-0.000000
4.750000,2.971207,0.794731,-1.331698,0.208716,-0.016685,-0.012900,-0.181015,-0.270608,-0.220910,1.008649,0.329970,0.806191,-1.074078,1.163461,-0.207338,-0.026966,0.018044,0.000000,0.030652,-0.099035,-0.000000
4.760000,2.973285,0.794551,-1.331838,0.206957,-0.019375,-0.015069,-0.170982,-0.267250,-0.212858,0.996916,0.340846,0.803310,-1.277112,1.016038,-0.367778,-0.026654,0.017058,0.000000,0.031798,-0.098034,-0.000000
4.770000,2.975346,0.794344,-1.332000,0.205297,-0.022030,-0.017157,-0.161076,-0.263791,-0.204844,0.983107,0.350291,0.798835,-1.493047,0.885289,-0.520656,-0.026330,0.016082,0.000000,0.032808,-0.096823,0.000000
4.780000,2.977391,0.794110,-1.332182,0.203735,-0.024650,-0.019166,-0.151320,-0.260244,-0.196882,0.967055,0.358552,0.792897,-1.720289,0.769056,-0.666849,-0.025998,0.015120,0.000000,0.033706,-0.095387,-0.000000
4.790000,2.979421,0.793851,-1.332383,0.202270,-0.027235,-0.021095,-0.141735,-0.256620,-0.188986,0.948701,0.365672,0.785498,-1.946816,0.643607,-0.820628,-0.025656,0.014174,0.000000,0.034494,-0.093717,-0.000000
4.800000,2.981436,0.793566,-1.332603,0.200901,-0.029783,-0.022945,-0.132346,-0.252931,-0.181172,0.928119,0.371424,0.776484,-2.167968,0.497013,-0.987538,-0.025308,0.013245,0.000000,0.035151,-0.091819,-0.000000
4.810000,2.983439,0.793255,-1.332842,0.199624,-0.032294,-0.024718,-0.123173,-0.249191,-0.173456,0.905342,0.375612,0.765747,-2.391265,0.345435,-1.158021,-0.024953,0.012337,0.000000,0.035656,-0.089696,0.000000
4.820000,2.985429,0.792920,-1.333098,0.198437,-0.034767,-0.026414,-0.114239,-0.245418,-0.165857,0.880293,0.378333,0.753324,-2.626333,0.218291,-1.319469,-0.024595,0.011451,0.000000,0.036018,-0.087340,-0.000000
4.830000,2.987407,0.792560,-1.333370,0.197339,-0.037202,-0.028035,-0.105567,-0.241625,-0.158390,0.852815,0.379978,0.739358,-2.870077,0.110338,-1.475169,-0.024233,0.010590,0.000000,0.036275,-0.084732,0.000000
4.840000,2.989375,0.792176,-1.333659,0.196326,-0.039599,-0.029582,-0.097183,-0.237819,-0.151070,0.822892,0.380539,0.723821,-3.108305,-0.018725,-1.642342,-0.023869,0.009756,0.000000,0.036426,-0.081871,0.000000
4.850000,2.991334,0.791768,-1.333962,0.195395,-0.041958,-0.031057,-0.089109,-0.234014,-0.143913,0.790649,0.379603,0.706511,-3.339370,-0.172644,-1.822540,-0.023504,0.008952,0.000000,0.036429,-0.078768,-0.000000
4.860000,2.993283,0.791337,-1.334280,0.194544,-0.044279,-0.032460,-0.081370,-0.230227,-0.136939,0.756105,0.377087,0.687370,-3.571688,-0.325548,-2.004913,-0.023141,0.008180,0.000000,0.036275,-0.075423,0.000000
4.870000,2.995225,0.790882,-1.334611,0.193768,-0.046563,-0.033795,-0.073987,-0.226472,-0.130166,0.719215,0.373092,0.666413,-3.805293,-0.476063,-2.188979,-0.022779,0.007443,0.000000,0.035974,-0.071833,-0.000000
4.880000,2.997159,0.790405,-1.334956,0.193064,-0.048809,-0.035064,-0.066985,-0.222765,-0.123611,0.679999,0.367565,0.643590,-4.036231,-0.634325,-2.379113,-0.022421,0.006743,0.000000,0.035520,-0.067997,-0.000000
4.890000,2.999086,0.789906,-1.335312,0.192428,-0.051018,-0.036268,-0.060387,-0.219121,-0.117294,0.638491,0.360406,0.618831,-4.263556,-0.801829,-2.576057,-0.022069,0.006083,0.000000,0.034902,-0.063920,-0.000000
4.900000,3.001007,0.789385,-1.335681,0.191856,-0.053191,-0.037410,-0.054216,-0.215557,-0.111234,0.594728,0.351529,0.592069,-4.486978,-0.978221,-2.779778,-0.021723,0.005465,0.000000,0.034112,-0.059603,0.000000
4.910000,3.002923,0.788842,-1.336061,0.191344,-0.055329,-0.038492,-0.048493,-0.212090,-0.105453,0.548751,0.340841,0.563235,-4.705713,-1.164340,-2.990711,-0.021386,0.004891,0.000000,0.033138,-0.055051,-0.000000
4.920000,3.004834,0.788278,-1.336451,0.190886,-0.057433,-0.039519,-0.043240,-0.208740,-0.099970,0.500613,0.328242,0.532255,-4.918983,-1.361099,-3.209334,-0.021060,0.004363,0.000000,0.031972,-0.050270,0.000000
4.930000,3.006741,0.787694,-1.336851,0.190479,-0.059504,-0.040492,-0.038480,-0.205525,-0.094808,0.450372,0.313619,0.499048,-5.126080,-1.569400,-3.436145,-0.020747,0.003885,0.000000,0.030601,-0.045264,-0.000000
4.940000,3.008644,0.787088,-1.337261,0.190117,-0.061544,-0.041415,-0.034233,-0.202467,-0.089989,0.398092,0.296854,0.463532,-5.326226,-1.790153,-3.671626,-0.020448,0.003458,0.000000,0.029013,-0.040041,0.000000
4.950000,3.010543,0.786463,-1.337679,0.189794,-0.063553,-0.042292,-0.030519,-0.199588,-0.085537,0.343847,0.277816,0.425616,-5.518628,-2.024268,-3.916259,-0.020167,0.003084,0.000000,0.027194,-0.034608,0.000000
4.960000,3.012440,0.785817,-1.338106,0.189506,-0.065535,-0.043126,-0.027356,-0.196911,-0.081476,0.287719,0.256369,0.385207,-5.702546,-2.272651,-4.170527,-0.019904,0.002766,0.000000,0.025131,-0.028974,0.000000
4.970000,3.014333,0.785152,-1.338542,0.189247,-0.067492,-0.043921,-0.024764,-0.194461,-0.077833,0.229796,0.232363,0.342205,6.886783,115.374735,39.027587,-0.019664,0.002505,0.000000,0.022809,-0.023149,0.000000
4.980000,3.016225,0.784467,-1.338985,0.189011,-0.069425,-0.044682,-0.022760,-0.192264,-0.074632,0.425455,2.563863,1.165758,18.903617,231.203497,79.748256,-0.019448,0.002303,0.000000,0.256985,-0.042762,0.000000
4.990000,3.018114,0.783764,-1.339435,0.188792,-0.071337,-0.045414,-0.016255,-0.143184,-0.054518,0.607869,4.856433,1.937171,6.988514,112.048955,34.855490,-0.014514,0.001648,0.000000,0.489358,-0.061291,-0.000000
5.000000,3.020000,0.783041,-1.339893,0.188686,-0.072288,-0.045773,-0.010603,-0.095135,-0.035889,0.565225,4.804842,1.862868,-4.264347,-5.159090,-7.430228,-0.009662,0.001077,0.000000,0.486131,-0.057201,-0.000000
