time,x,y,z,vx,vy,vz,ax,ay,az,jx,jy,jz,sx,sy,sz,roll,pitch,yaw,p,q,r
0.000000,-2.705397,0.242747,-1.477357,0.011346,-0.022832,0.000460,0.000070,0.209759,-0.021217,0.069665,9.296488,-0.934365,8.408096,-118.273139,10.246935,0.021333,-0.000007,0.000000,0.943152,-0.007084,0.000000
0.010000,-2.705283,0.242519,-1.477353,0.011346,-0.020735,0.000248,0.000767,0.302724,-0.030561,0.153746,8.113757,-0.831896,12.645737,-408.876959,36.505253,0.030753,-0.000078,0.000000,0.821144,-0.015610,0.000000
0.020000,-2.705170,0.242333,-1.477352,0.011361,-0.016778,-0.000151,0.003145,0.372034,-0.037855,0.322580,1.118949,-0.204260,16.190629,-638.307867,53.529767,0.037760,-0.000319,0.000000,0.112679,-0.032726,0.000000
0.030000,-2.705056,0.242183,-1.477356,0.011409,-0.013294,-0.000510,0.007219,0.325103,-0.034646,0.477559,-4.652400,0.238699,14.687400,-284.202113,14.569795,0.033011,-0.000733,0.000000,-0.471268,-0.048501,-0.000000
0.040000,-2.704942,0.242067,-1.477362,0.011505,-0.010276,-0.000844,0.012696,0.278986,-0.033081,0.616328,-4.565093,0.087136,13.697553,9.315013,-13.937491,0.028336,-0.001290,0.000000,-0.463166,-0.062601,-0.000000
0.050000,-2.704826,0.241978,-1.477372,0.011663,-0.007714,-0.001171,0.019545,0.233801,-0.032903,0.751510,-4.466100,-0.040050,13.317973,10.479996,-11.628181,0.023749,-0.001986,0.000000,-0.453582,-0.076320,0.000000
0.060000,-2.704708,0.241912,-1.477386,0.011896,-0.005600,-0.001502,0.027727,0.189664,-0.033882,0.882687,-4.355493,-0.145428,12.899323,11.634911,-9.568367,0.019265,-0.002817,0.000000,-0.442580,-0.089610,0.000000
0.070000,-2.704588,0.241866,-1.477402,0.012218,-0.003921,-0.001849,0.037199,0.146691,-0.035812,1.009496,-4.233402,-0.231418,12.446783,12.773977,-7.743190,0.014898,-0.003778,0.000000,-0.430227,-0.102429,0.000000
0.080000,-2.704464,0.241834,-1.477423,0.012640,-0.002666,-0.002219,0.047917,0.104996,-0.038510,1.131623,-4.100014,-0.300292,11.965485,13.891417,-6.137775,0.010661,-0.004865,0.000000,-0.416587,-0.114745,-0.000000
0.090000,-2.704335,0.241813,-1.477447,0.013176,-0.001821,-0.002619,0.059831,0.064691,-0.041818,1.248806,-3.955574,-0.354173,11.460600,14.981450,-4.737265,0.006566,-0.006073,0.000000,-0.401723,-0.126533,0.000000
0.100000,-2.704201,0.241798,-1.477475,0.013837,-0.001372,-0.003055,0.072893,0.025884,-0.045594,1.360835,-3.800385,-0.395037,10.937309,16.038295,-3.526807,0.002626,-0.007396,0.000000,-0.385702,-0.137773,-0.000000
0.110000,-2.704059,0.241785,-1.477508,0.014634,-0.001304,-0.003531,0.087048,-0.011317,-0.049718,1.467552,-3.634808,-0.424709,10.400775,17.056175,-2.491526,-0.001148,-0.008828,0.000000,-0.368586,-0.148451,0.000000
0.120000,-2.703908,0.241771,-1.477546,0.015578,-0.001599,-0.004049,0.102244,-0.046812,-0.054088,1.568850,-3.459261,-0.444868,9.856121,18.029308,-1.616576,-0.004745,-0.010365,0.000000,-0.350444,-0.158560,-0.000000
0.130000,-2.703747,0.241753,-1.477589,0.016679,-0.002240,-0.004613,0.118425,-0.080502,-0.058616,1.664674,-3.274221,-0.457041,9.308526,18.951915,-0.887097,-0.008157,-0.012000,0.000000,-0.331341,-0.168098,0.000000
0.140000,-2.703574,0.241727,-1.477638,0.017946,-0.003209,-0.005222,0.135537,-0.112296,-0.063229,1.755021,-3.080223,-0.462609,8.763294,19.818217,-0.288168,-0.011372,-0.013727,0.000000,-0.311347,-0.177067,-0.000000
0.150000,-2.703388,0.241689,-1.477693,0.019390,-0.004486,-0.005877,0.153525,-0.142107,-0.067868,1.839940,-2.877857,-0.462804,8.225476,20.622434,0.195027,-0.014384,-0.015541,0.000000,-0.290533,-0.185477,-0.000000
0.160000,-2.703186,0.241637,-1.477756,0.021017,-0.006051,-0.006579,0.172336,-0.169853,-0.072485,1.919530,-2.667774,-0.458709,7.700074,21.358784,0.577283,-0.017183,-0.017437,0.000000,-0.268974,-0.193339,0.000000
0.170000,-2.702968,0.241568,-1.477825,0.022836,-0.007883,-0.007327,0.191916,-0.195462,-0.077042,1.993942,-2.450681,-0.451259,7.193770,22.019459,0.875696,-0.019763,-0.019408,0.000000,-0.246746,-0.200671,0.000000
0.180000,-2.702730,0.241479,-1.477902,0.024855,-0.009960,-0.008120,0.212215,-0.218867,-0.081510,2.063406,-2.227385,-0.441195,6.734662,22.563189,1.142658,-0.022118,-0.021451,0.000000,-0.223935,-0.207500,-0.000000
0.190000,-2.702471,0.241369,-1.477987,0.027081,-0.012260,-0.008957,0.233184,-0.240010,-0.085866,2.128635,-1.999418,-0.428405,6.319853,22.996467,1.380002,-0.024242,-0.023559,0.000000,-0.200700,-0.213902,-0.000000
0.200000,-2.702188,0.241234,-1.478081,0.029519,-0.014760,-0.009837,0.254788,-0.258855,-0.090078,2.189803,-1.767456,-0.413595,5.785772,23.575386,1.325790,-0.026132,-0.025730,0.000000,-0.177109,-0.219894,-0.000000
0.210000,-2.701880,0.241073,-1.478184,0.032176,-0.017437,-0.010759,0.276980,-0.275359,-0.094138,2.244350,-1.527910,-0.401890,5.155706,24.266110,1.024544,-0.027784,-0.027959,0.000000,-0.152789,-0.225209,0.000000
0.220000,-2.701545,0.240885,-1.478296,0.035059,-0.020267,-0.011720,0.299675,-0.289414,-0.098116,2.292917,-1.282133,-0.393104,4.918588,24.312430,1.284808,-0.029188,-0.030236,0.000000,-0.127873,-0.229910,-0.000000
0.230000,-2.701179,0.240668,-1.478418,0.038170,-0.023226,-0.012721,0.322839,-0.301002,-0.102000,2.342722,-1.041661,-0.376193,5.086470,23.702969,2.134895,-0.030342,-0.032559,0.000000,-0.103556,-0.234759,0.000000
0.240000,-2.700781,0.240421,-1.478551,0.041515,-0.026287,-0.013760,0.346529,-0.310247,-0.105640,2.394646,-0.808074,-0.350406,4.993380,23.471641,2.488027,-0.031259,-0.034933,0.000000,-0.080000,-0.239857,-0.000000
0.250000,-2.700349,0.240142,-1.478694,0.045100,-0.029430,-0.014834,0.370731,-0.317163,-0.109008,2.442590,-0.572229,-0.326433,4.587776,23.663121,2.250218,-0.031942,-0.037358,0.000000,-0.056249,-0.244557,0.000000
0.260000,-2.699879,0.239832,-1.478847,0.048930,-0.032631,-0.015940,0.395381,-0.321691,-0.112169,2.486402,-0.334812,-0.305402,4.319353,23.585843,2.167208,-0.032384,-0.039827,0.000000,-0.032365,-0.248838,0.000000
0.270000,-2.699370,0.239490,-1.479012,0.053008,-0.035864,-0.017077,0.420460,-0.323859,-0.115116,2.528977,-0.100512,-0.283089,4.187890,23.350136,2.290529,-0.032590,-0.042338,0.000000,-0.008829,-0.253009,0.000000
0.280000,-2.698819,0.239115,-1.479189,0.057339,-0.039108,-0.018242,0.445960,-0.323702,-0.117830,2.570160,0.132191,-0.259591,4.030786,23.214639,2.362575,-0.032561,-0.044890,0.000000,0.014514,-0.257054,0.000000
0.290000,-2.698223,0.238708,-1.479377,0.061927,-0.042338,-0.019434,0.471863,-0.321216,-0.120308,2.609592,0.363781,-0.235837,3.884927,22.974267,2.386475,-0.032299,-0.047482,0.000000,0.037721,-0.260937,-0.000000
0.300000,-2.697581,0.238268,-1.479578,0.066776,-0.045532,-0.020649,0.498152,-0.316426,-0.122547,2.647858,0.591676,-0.211862,3.787712,22.541787,2.409292,-0.031807,-0.050112,0.000000,0.060535,-0.264714,0.000000
0.310000,-2.696888,0.237797,-1.479790,0.071890,-0.048667,-0.021885,0.524820,-0.309382,-0.124545,2.685347,0.814617,-0.187651,3.702658,22.076810,2.421053,-0.031089,-0.052779,0.000000,0.082833,-0.268427,0.000000
0.320000,-2.696143,0.237295,-1.480015,0.077273,-0.051720,-0.023140,0.551859,-0.300134,-0.126300,2.721911,1.033213,-0.163441,3.583290,21.706395,2.395681,-0.030150,-0.055483,0.000000,0.104680,-0.272059,0.000000
0.330000,-2.695342,0.236763,-1.480253,0.082928,-0.054670,-0.024411,0.579258,-0.288718,-0.127814,2.757013,1.248745,-0.139738,3.436219,21.387306,2.337503,-0.028995,-0.058222,0.000000,0.126211,-0.275554,-0.000000
0.340000,-2.694484,0.236201,-1.480504,0.088858,-0.057494,-0.025696,0.606999,-0.275159,-0.129095,2.790636,1.460959,-0.116691,3.316857,20.967837,2.284611,-0.027626,-0.060996,0.000000,0.147401,-0.278909,-0.000000
0.350000,-2.693565,0.235613,-1.480767,0.095068,-0.060173,-0.026993,0.635071,-0.259499,-0.130148,2.823350,1.668101,-0.094046,3.238487,20.421054,2.246449,-0.026047,-0.063803,0.000000,0.168075,-0.282183,0.000000
0.360000,-2.692583,0.234998,-1.481043,0.101559,-0.062684,-0.028299,0.663466,-0.241797,-0.130976,2.855406,1.869380,-0.071762,3.159379,19.855061,2.199553,-0.024264,-0.066642,0.000000,0.188157,-0.285398,0.000000
0.370000,-2.691534,0.234359,-1.481333,0.108337,-0.065009,-0.029612,0.692179,-0.222111,-0.131583,2.886537,2.065203,-0.050054,3.040745,19.347279,2.128928,-0.022284,-0.069512,0.000000,0.207689,-0.288529,0.000000
0.380000,-2.690416,0.233698,-1.481636,0.115403,-0.067126,-0.030930,0.721197,-0.200493,-0.131977,2.916220,2.256325,-0.029183,2.892003,18.867821,2.044643,-0.020111,-0.072414,0.000000,0.226747,-0.291518,-0.000000
0.390000,-2.689226,0.233016,-1.481952,0.122761,-0.069018,-0.032252,0.750503,-0.176985,-0.132167,2.944377,2.442559,-0.009162,2.758967,18.324818,1.969124,-0.017749,-0.075344,0.000000,0.245313,-0.294357,0.000000
0.400000,-2.687961,0.232317,-1.482281,0.130413,-0.070666,-0.033574,0.780085,-0.151641,-0.132160,2.971400,2.622822,0.010199,2.652294,17.703186,1.903568,-0.015204,-0.078302,0.000000,0.263278,-0.297086,0.000000
0.410000,-2.686618,0.231603,-1.482623,0.138362,-0.072051,-0.034895,0.809931,-0.124528,-0.131963,2.997423,2.796623,0.028910,2.538062,17.067976,1.836277,-0.012483,-0.081286,0.000000,0.280591,-0.299716,-0.000000
0.420000,-2.685194,0.230876,-1.482979,0.146612,-0.073157,-0.036213,0.840033,-0.095709,-0.131582,3.022161,2.964181,0.046925,2.384515,16.463443,1.772158,-0.009593,-0.084297,0.000000,0.297274,-0.302219,-0.000000
0.430000,-2.683685,0.230140,-1.483347,0.155163,-0.073965,-0.037526,0.870375,-0.065244,-0.131024,3.045114,3.125892,0.064353,2.199507,15.871239,1.719127,-0.006538,-0.087331,0.000000,0.313364,-0.304544,0.000000
0.440000,-2.682090,0.229397,-1.483729,0.164019,-0.074462,-0.038834,0.900935,-0.033191,-0.130295,3.066151,3.281606,0.081308,2.021129,15.239082,1.673344,-0.003325,-0.090388,0.000000,0.328846,-0.306677,0.000000
0.450000,-2.680405,0.228651,-1.484124,0.173182,-0.074629,-0.040132,0.931698,0.000388,-0.129398,3.085536,3.430673,0.097820,1.858790,14.559106,1.626940,0.000039,-0.093465,0.000000,0.343652,-0.308645,0.000000
0.460000,-2.678627,0.227904,-1.484532,0.182653,-0.074454,-0.041421,0.962646,0.035422,-0.128338,3.103327,3.572788,0.113846,1.684677,13.868180,1.586513,0.003548,-0.096561,0.000000,0.357750,-0.310453,-0.000000
0.470000,-2.676752,0.227162,-1.484952,0.192435,-0.073921,-0.042699,0.993764,0.071843,-0.127121,3.119230,3.708037,0.129550,1.471834,13.189771,1.578902,0.007194,-0.099674,0.000000,0.371148,-0.312071,0.000000
0.480000,-2.674778,0.226426,-1.485386,0.202528,-0.073017,-0.043964,1.025031,0.109583,-0.125747,3.132764,3.836584,0.145424,1.226886,12.513352,1.607149,0.010971,-0.102802,0.000000,0.383860,-0.313457,-0.000000
0.490000,-2.672701,0.225701,-1.485832,0.212935,-0.071729,-0.045214,1.056419,0.148575,-0.124213,3.143767,3.958304,0.161693,0.982915,11.811466,1.638273,0.014871,-0.105943,0.000000,0.395875,-0.314597,-0.000000
0.500000,-2.670519,0.224991,-1.486290,0.223657,-0.070045,-0.046448,1.087906,0.188749,-0.122514,3.152422,4.072813,0.178190,0.748732,11.080129,1.655451,0.018888,-0.109095,0.000000,0.407152,-0.315507,-0.000000
0.510000,-2.668228,0.224300,-1.486761,0.234693,-0.067954,-0.047664,1.119468,0.230031,-0.120649,3.158742,4.179907,0.194802,0.500645,10.338711,1.684803,0.023014,-0.112255,0.000000,0.417670,-0.316189,0.000000
0.520000,-2.665825,0.223632,-1.487243,0.246046,-0.065445,-0.048861,1.151081,0.272347,-0.118618,3.162435,4.279587,0.211886,0.214701,9.599578,1.773941,0.027241,-0.115420,0.000000,0.427431,-0.316617,0.000000
0.530000,-2.663307,0.222992,-1.487738,0.257715,-0.062507,-0.050037,1.182717,0.315623,-0.116411,3.163036,4.371898,0.230281,-0.103207,8.857207,1.919909,0.031562,-0.118589,0.000000,0.436443,-0.316756,0.000000
0.540000,-2.660671,0.222382,-1.488244,0.269700,-0.059132,-0.051189,1.214342,0.359785,-0.114012,3.160371,4.456731,0.250284,-0.422842,8.097188,2.061530,0.035970,-0.121759,0.000000,0.444698,-0.316595,-0.000000
0.550000,-2.657913,0.221809,-1.488762,0.282002,-0.055312,-0.052317,1.245924,0.404758,-0.111405,3.154579,4.533842,0.271511,-0.735557,7.317648,2.174477,0.040456,-0.124925,0.000000,0.452173,-0.316145,-0.000000
0.560000,-2.655031,0.221276,-1.489290,0.294619,-0.051037,-0.053417,1.277433,0.450462,-0.108582,3.145660,4.603084,0.293774,-1.062493,6.528784,2.303022,0.045014,-0.128087,0.000000,0.458857,-0.315406,0.000000
0.570000,-2.652021,0.220788,-1.489830,0.307551,-0.046302,-0.054489,1.308837,0.496819,-0.105530,3.133329,4.664418,0.317572,-1.425798,5.736534,2.510516,0.049633,-0.131240,0.000000,0.464750,-0.314358,0.000000
0.580000,-2.648880,0.220350,-1.490380,0.320796,-0.041101,-0.055528,1.340100,0.543750,-0.102230,3.117144,4.717815,0.343984,-1.819878,4.937926,2.787599,0.054308,-0.134382,0.000000,0.469862,-0.312975,0.000000
0.590000,-2.645605,0.219966,-1.490941,0.334353,-0.035427,-0.056533,1.371180,0.591176,-0.098650,3.096932,4.763176,0.373324,-2.215890,4.126242,3.051054,0.059031,-0.137509,0.000000,0.474192,-0.311248,0.000000
0.600000,-2.642193,0.219641,-1.491511,0.348219,-0.029277,-0.057501,1.402038,0.639014,-0.094764,3.072826,4.800340,0.405005,-2.604994,3.301205,3.271521,0.063792,-0.140618,0.000000,0.477727,-0.309187,0.000000
0.610000,-2.638641,0.219381,-1.492091,0.362393,-0.022647,-0.058428,1.432637,0.687182,-0.090550,3.044832,4.829200,0.438754,-3.006802,2.467601,3.506645,0.068585,-0.143705,0.000000,0.480463,-0.306792,-0.000000
0.620000,-2.634945,0.219189,-1.492679,0.376872,-0.015534,-0.059312,1.462935,0.735598,-0.085989,3.012690,4.849692,0.475138,-3.442833,1.626804,3.828469,0.073402,-0.146768,0.000000,0.482406,-0.304050,0.000000
0.630000,-2.631103,0.219070,-1.493277,0.391652,-0.007935,-0.060148,1.492890,0.784176,-0.081047,2.975975,4.861736,0.515324,-3.907631,0.777168,4.221898,0.078234,-0.149803,0.000000,0.483565,-0.300939,0.000000
0.640000,-2.627112,0.219030,-1.493882,0.406730,0.000150,-0.060933,1.522455,0.832833,-0.075682,2.934537,4.865235,0.559576,-4.372200,-0.082307,4.590545,0.083073,-0.152805,0.000000,0.483946,-0.297456,-0.000000
0.650000,-2.622969,0.219073,-1.494496,0.422101,0.008722,-0.061662,1.551581,0.881481,-0.069856,2.888531,4.860090,0.607135,-4.826793,-0.949495,4.903564,0.087913,-0.155773,0.000000,0.483543,-0.293609,0.000000
0.660000,-2.618670,0.219204,-1.495116,0.437761,0.017779,-0.062330,1.580225,0.930034,-0.063540,2.838001,4.846245,0.657647,-5.290599,-1.823651,5.225451,0.092744,-0.158701,0.000000,0.482359,-0.289401,0.000000
0.670000,-2.614213,0.219429,-1.495742,0.453706,0.027322,-0.062933,1.608341,0.978406,-0.056703,2.782719,4.823617,0.711644,-5.786104,-2.709944,5.627430,0.097560,-0.161586,0.000000,0.480402,-0.284823,0.000000
0.680000,-2.609596,0.219751,-1.496374,0.469928,0.037348,-0.063464,1.635880,1.026507,-0.049307,2.722279,4.792046,0.770196,-6.307620,-3.609417,6.089854,0.102352,-0.164424,0.000000,0.477677,-0.279857,0.000000
0.690000,-2.604815,0.220175,-1.497011,0.486423,0.047852,-0.063919,1.662787,1.074247,-0.041299,2.656567,4.751429,0.833441,-6.824016,-4.514234,6.515595,0.107114,-0.167213,0.000000,0.474192,-0.274499,-0.000000
0.700000,-2.599868,0.220708,-1.497653,0.503184,0.058833,-0.064290,1.689011,1.121535,-0.032638,2.585799,4.701762,0.900508,-7.324420,-5.417309,6.877506,0.111836,-0.169946,0.000000,0.469947,-0.268760,0.000000
0.710000,-2.594751,0.221352,-1.498297,0.520203,0.070283,-0.064572,1.714503,1.168282,-0.023289,2.510078,4.643083,0.970991,-7.828862,-6.324068,7.238186,0.116513,-0.172622,0.000000,0.464954,-0.262648,-0.000000
0.720000,-2.589463,0.222113,-1.498944,0.537474,0.082198,-0.064756,1.739212,1.214397,-0.013218,2.429222,4.575280,1.045271,-8.361336,-7.252367,7.654788,0.121136,-0.175235,0.000000,0.459216,-0.256154,-0.000000
0.730000,-2.584002,0.222996,-1.499592,0.554988,0.094571,-0.064836,1.763087,1.259788,-0.002384,2.342852,4.498035,1.124087,-8.915545,-8.202130,8.105084,0.125698,-0.177783,0.000000,0.452721,-0.249255,-0.000000
0.740000,-2.578364,0.224005,-1.500241,0.572736,0.107394,-0.064804,1.786069,1.304358,0.009264,2.250911,4.411238,1.207373,-9.457432,-9.148043,8.508994,0.130191,-0.180260,0.000000,0.445470,-0.241949,0.000000
0.750000,-2.572547,0.225144,-1.500888,0.590709,0.120658,-0.064651,1.808105,1.348012,0.021764,2.153703,4.315074,1.294266,-9.974718,-10.075857,8.849321,0.134608,-0.182663,0.000000,0.437479,-0.234250,0.000000
0.760000,-2.566550,0.226418,-1.501534,0.608898,0.134354,-0.064368,1.829144,1.390659,0.035149,2.051416,4.209721,1.384359,-10.488811,-11.002797,9.174671,0.138941,-0.184988,0.000000,0.428765,-0.226171,-0.000000
0.770000,-2.560369,0.227831,-1.502176,0.627292,0.148471,-0.063948,1.849134,1.432207,0.049451,1.943927,4.095018,1.477760,-11.025793,-11.963475,9.513491,0.143183,-0.187231,0.000000,0.419320,-0.217699,0.000000
0.780000,-2.554004,0.229387,-1.502813,0.645881,0.162998,-0.063379,1.868022,1.472560,0.064704,1.830900,3.970451,1.574629,-11.578573,-12.954419,9.844705,0.147328,-0.189387,0.000000,0.409102,-0.208804,-0.000000
0.790000,-2.547451,0.231091,-1.503443,0.664652,0.177923,-0.062654,1.885752,1.511616,0.080944,1.712355,3.835930,1.674654,-12.109352,-13.927275,10.125055,0.151366,-0.191453,0.000000,0.398099,-0.199479,0.000000
0.800000,-2.540711,0.232946,-1.504066,0.683596,0.193231,-0.061760,1.902269,1.549278,0.098197,1.588713,3.691906,1.777130,-12.604048,-14.861364,10.351471,0.155290,-0.193423,0.000000,0.386346,-0.189748,0.000000
0.810000,-2.533780,0.234956,-1.504679,0.702698,0.208908,-0.060690,1.917526,1.585454,0.116486,1.460274,3.538703,1.881683,-13.085952,-15.788888,10.545802,0.159093,-0.195294,0.000000,0.373866,-0.179628,-0.000000
0.820000,-2.526657,0.237124,-1.505280,0.721946,0.224940,-0.059431,1.931475,1.620052,0.135831,1.326994,3.376128,1.988046,-13.584141,-16.757763,10.699667,0.162768,-0.197062,0.000000,0.360633,-0.169102,0.000000
0.830000,-2.519341,0.239454,-1.505867,0.741327,0.241309,-0.057973,1.944066,1.652977,0.156247,1.188592,3.203547,2.095677,-14.089843,-17.760186,10.796434,0.166306,-0.198721,0.000000,0.346568,-0.158124,0.000000
0.840000,-2.511830,0.241950,-1.506439,0.760827,0.257999,-0.056306,1.955246,1.684123,0.177745,1.045197,3.020924,2.203975,-14.560372,-18.729053,10.841265,0.169700,-0.200268,0.000000,0.331650,-0.146687,0.000000
0.850000,-2.504124,0.244614,-1.506993,0.780432,0.274992,-0.054418,1.964970,1.713395,0.200327,0.897384,2.828966,2.312502,-14.984658,-19.632913,10.856864,0.172940,-0.201698,0.000000,0.315927,-0.134826,0.000000
0.860000,-2.496221,0.247450,-1.507527,0.800127,0.292267,-0.052299,1.973194,1.740703,0.223995,0.745504,2.628266,2.421112,-15.388182,-20.515962,10.830672,0.176018,-0.203006,0.000000,0.299439,-0.122561,-0.000000
0.870000,-2.488122,0.250460,-1.508039,0.819896,0.309806,-0.049938,1.979880,1.765960,0.248749,0.589621,2.418647,2.529115,-15.788891,-21.452386,10.686852,0.178929,-0.204187,0.000000,0.282139,-0.109872,0.000000
0.880000,-2.479824,0.253646,-1.508526,0.839724,0.327586,-0.047324,1.984987,1.789075,0.274577,0.429727,2.199218,2.634849,-16.175771,-22.429521,10.416251,0.181661,-0.205239,0.000000,0.263889,-0.096709,-0.000000
0.890000,-2.471327,0.257011,-1.508986,0.859596,0.345587,-0.044447,1.988474,1.809945,0.301446,0.266105,1.970057,2.737440,-16.520771,-23.343115,10.115524,0.184206,-0.206154,0.000000,0.244655,-0.083067,-0.000000
0.900000,-2.462632,0.260558,-1.509415,0.879494,0.363785,-0.041295,1.990309,1.828477,0.329326,0.099311,1.732356,2.837160,-16.817717,-24.161074,9.834075,0.186554,-0.206928,0.000000,0.224530,-0.068987,-0.000000
0.910000,-2.453737,0.264287,-1.509812,0.899402,0.382157,-0.037860,1.990461,1.844592,0.358189,-0.070249,1.486835,2.934122,-17.081252,-24.950506,9.497759,0.188697,-0.207558,0.000000,0.203558,-0.054496,-0.000000
0.920000,-2.444644,0.268201,-1.510172,0.919303,0.400677,-0.034132,1.988904,1.858213,0.388008,-0.242314,1.233346,3.027115,-17.317216,-25.776895,8.972641,0.190625,-0.208037,0.000000,0.181669,-0.039576,0.000000
0.930000,-2.435351,0.272301,-1.510494,0.939180,0.419321,-0.030100,1.985614,1.869259,0.418731,-0.416594,0.971297,3.113575,-17.515575,-26.618399,8.268426,0.192330,-0.208363,0.000000,0.158718,-0.024183,0.000000
0.940000,-2.425860,0.276587,-1.510774,0.959015,0.438062,-0.025757,1.980572,1.877639,0.450280,-0.592625,0.700978,3.192484,-17.663985,-27.382023,7.560112,0.193799,-0.208530,0.000000,0.134674,-0.008321,0.000000
0.950000,-2.416171,0.281062,-1.511009,0.978792,0.456874,-0.021094,1.973762,1.883278,0.482581,-0.769873,0.423657,3.264777,-17.771404,-28.031706,6.920656,0.195023,-0.208532,0.000000,0.109638,0.007955,0.000000
0.960000,-2.406284,0.285725,-1.511196,0.998491,0.475728,-0.016105,1.965174,1.886112,0.515575,-0.948054,0.140344,3.330897,-17.840479,-28.625085,6.225381,0.195991,-0.208367,0.000000,0.083681,0.024626,-0.000000
0.970000,-2.396201,0.290577,-1.511332,1.018095,0.494596,-0.010783,1.954801,1.886085,0.549199,-1.126683,-0.148845,3.389285,-17.835080,-29.240444,5.287965,0.196696,-0.208030,0.000000,0.056739,0.041695,-0.000000
0.980000,-2.385922,0.295617,-1.511412,1.037587,0.513450,-0.005121,1.942641,1.883136,0.583361,-1.304755,-0.444465,3.436656,-17.747855,-29.852536,4.133697,0.197125,-0.207516,0.000000,0.028645,0.059147,0.000000
0.990000,-2.375449,0.300846,-1.511434,1.056948,0.532259,0.000884,1.928706,1.877196,0.617932,-1.481640,-0.745895,3.471959,-17.623398,-30.348626,3.011467,0.197268,-0.206822,0.000000,-0.000609,0.076957,0.000000
1.000000,-2.364783,0.306262,-1.511394,1.076161,0.550993,0.007237,1.913008,1.868218,0.652800,-1.657223,-1.051438,3.496885,-17.476404,-30.730909,2.024847,0.197112,-0.205946,0.000000,-0.030857,0.095089,-0.000000
1.010000,-2.353926,0.311865,-1.511289,1.095208,0.569623,0.013940,1.895561,1.856167,0.687870,-1.831168,-1.360514,3.512456,-17.271598,-31.065225,1.002564,0.196649,-0.204882,0.000000,-0.062060,0.113499,0.000000
1.020000,-2.342879,0.317654,-1.511115,1.114072,0.588117,0.020995,1.876385,1.841007,0.723049,-2.002655,-1.672742,3.516937,-16.968475,-31.308768,-0.310211,0.195869,-0.203630,0.000000,-0.094256,0.132148,0.000000
1.030000,-2.331645,0.323628,-1.510869,1.132736,0.606443,0.028401,1.855508,1.822712,0.758209,-2.170538,-1.986689,3.506251,-16.569944,-31.414950,-1.864153,0.194762,-0.202187,0.000000,-0.127417,0.151010,0.000000
1.040000,-2.320224,0.329783,-1.510547,1.151182,0.624571,0.036159,1.832974,1.801274,0.793174,-2.334054,-2.301041,3.479654,-16.125306,-31.440709,-3.314076,0.193319,-0.200551,0.000000,-0.161451,0.170020,0.000000
1.050000,-2.308621,0.336119,-1.510146,1.169395,0.642469,0.044265,1.808827,1.776691,0.827802,-2.493044,-2.615503,3.439970,-15.674726,-31.500645,-4.590109,0.191532,-0.198721,0.000000,-0.196292,0.189097,0.000000
1.060000,-2.296837,0.342633,-1.509662,1.187359,0.660105,0.052715,1.783113,1.748963,0.861974,-2.647548,-2.931054,3.387851,-15.179258,-31.538250,-5.918453,0.189392,-0.196698,0.000000,-0.232047,0.208222,0.000000
1.070000,-2.284874,0.349321,-1.509092,1.205057,0.677448,0.061504,1.755876,1.718070,0.895559,-2.796629,-3.246268,3.321601,-14.522447,-31.227905,-7.428109,0.186889,-0.194480,0.000000,-0.268613,0.227322,-0.000000
1.080000,-2.272735,0.356182,-1.508432,1.222476,0.694466,0.070626,1.727180,1.684038,0.928406,-2.937997,-3.555612,3.239289,-13.699159,-30.577449,-9.039927,0.184018,-0.192070,0.000000,-0.305446,0.246173,-0.000000
1.090000,-2.260424,0.363211,-1.507679,1.239601,0.711129,0.080072,1.697116,1.646958,0.960345,-3.070612,-3.857817,3.140802,-12.867565,-30.022081,-10.579790,0.180778,-0.189472,0.000000,-0.342392,0.264637,0.000000
1.100000,-2.247943,0.370404,-1.506831,1.256419,0.727405,0.089833,1.665768,1.606882,0.991222,-3.195349,-4.156054,3.027693,-12.136436,-29.566328,-12.004330,0.177168,-0.186689,0.000000,-0.379727,0.282740,-0.000000
1.110000,-2.235296,0.377759,-1.505883,1.272916,0.743266,0.099897,1.633209,1.563837,1.020898,-3.313341,-4.449144,2.900716,-11.391251,-28.916199,-13.417639,0.173182,-0.183727,0.000000,-0.417269,0.300555,-0.000000
1.120000,-2.222485,0.385270,-1.504833,1.289083,0.758682,0.110251,1.599501,1.517899,1.049236,-3.423174,-4.734378,2.759341,-10.348007,-28.143399,-14.908374,0.168821,-0.180587,0.000000,-0.454691,0.317900,0.000000
1.130000,-2.209514,0.392932,-1.503678,1.304906,0.773624,0.120881,1.564746,1.469149,1.076085,-3.520301,-5.012012,2.602548,-9.034942,-27.334444,-16.424893,0.164087,-0.177277,0.000000,-0.491986,0.334250,0.000000
1.140000,-2.196387,0.400742,-1.502415,1.320378,0.788065,0.131773,1.529095,1.417659,1.101287,-3.603873,-5.281067,2.430843,-7.837974,-26.367483,-17.835686,0.158980,-0.173811,0.000000,-0.528961,0.349440,0.000000
1.150000,-2.183107,0.408694,-1.501042,1.335488,0.801978,0.142907,1.492668,1.363528,1.124702,-3.677060,-5.539361,2.245834,-6.816393,-25.353299,-19.175786,0.153507,-0.170199,0.000000,-0.565244,0.363727,-0.000000
1.160000,-2.169677,0.416782,-1.499557,1.350231,0.815336,0.154267,1.455554,1.306871,1.146204,-3.740200,-5.788133,2.047327,-5.714033,-24.366849,-20.512822,0.147675,-0.166450,0.000000,-0.600872,0.377094,-0.000000
1.170000,-2.156102,0.425000,-1.497957,1.364599,0.828115,0.165831,1.417864,1.247765,1.165649,-3.791341,-6.026698,1.835578,-4.443746,-23.017904,-21.695843,0.141489,-0.162574,0.000000,-0.635660,0.389256,0.000000
1.180000,-2.142385,0.433344,-1.496240,1.378588,0.840291,0.177580,1.379727,1.186337,1.182915,-3.829075,-6.248491,1.613410,-3.099487,-21.250269,-22.669727,0.134962,-0.158587,0.000000,-0.668709,0.399940,0.000000
1.190000,-2.128530,0.441806,-1.494405,1.392194,0.851842,0.189490,1.341283,1.122796,1.197917,-3.853331,-6.451704,1.382183,-1.789428,-19.616323,-23.631202,0.128116,-0.154503,0.000000,-0.699661,0.409053,-0.000000
1.200000,-2.114541,0.450381,-1.492450,1.405414,0.862747,0.201538,1.302661,1.057303,1.210559,-3.864864,-6.640817,1.140786,-0.510312,-18.297497,-24.695216,0.120970,-0.150339,0.000000,-0.728901,0.416639,0.000000
1.210000,-2.100422,0.459061,-1.490375,1.418247,0.872988,0.213701,1.263985,0.989979,1.220733,-3.863537,-6.817654,0.888279,0.797506,-16.915024,-25.705518,0.113539,-0.146110,0.000000,-0.756516,0.422640,-0.000000
1.220000,-2.086176,0.467841,-1.488176,1.430694,0.882547,0.225953,1.225390,0.920950,1.228324,-3.848914,-6.979118,0.626676,2.115164,-15.095135,-26.354723,0.105841,-0.141833,0.000000,-0.781995,0.426920,0.000000
1.230000,-2.071808,0.476712,-1.485855,1.442755,0.891407,0.238267,1.187007,0.850397,1.233266,-3.821234,-7.119556,0.361185,3.413427,-12.980653,-26.671748,0.097901,-0.137525,0.000000,-0.804503,0.429377,-0.000000
1.240000,-2.057321,0.485669,-1.483411,1.454434,0.899554,0.250618,1.148965,0.778559,1.235548,-3.780645,-7.238731,0.093241,4.709453,-11.064520,-27.053231,0.089754,-0.133205,0.000000,-0.823885,0.429973,0.000000
1.250000,-2.042719,0.494703,-1.480843,1.465734,0.906978,0.262978,1.111394,0.705622,1.235131,-3.727045,-7.340847,-0.179880,6.000653,-9.275248,-27.569779,0.081427,-0.128892,0.000000,-0.840552,0.428715,0.000000
1.260000,-2.028007,0.503808,-1.478152,1.476662,0.913667,0.275321,1.074424,0.631742,1.231950,-3.660632,-7.424236,-0.458155,7.264370,-7.308121,-27.943627,0.072946,-0.124604,0.000000,-0.854218,0.425604,-0.000000
1.270000,-2.013186,0.512976,-1.475337,1.487223,0.919613,0.287617,1.038182,0.557138,1.225968,-3.581757,-7.487009,-0.738753,8.497977,-5.461313,-28.023111,0.064345,-0.120359,0.000000,-0.864563,0.420629,0.000000
1.280000,-1.998262,0.522200,-1.472399,1.497425,0.924810,0.299840,1.002789,0.482002,1.217175,-3.490673,-7.533462,-1.018617,9.694969,-3.861888,-27.884180,0.055658,-0.116175,0.000000,-0.872009,0.413779,0.000000
1.290000,-1.983238,0.531473,-1.469340,1.507279,0.929253,0.311961,0.968368,0.406468,1.205595,-3.387858,-7.564247,-1.296436,10.844512,-2.093716,-27.708220,0.046909,-0.112072,0.000000,-0.876597,0.405109,-0.000000
1.300000,-1.968117,0.540786,-1.466160,1.516793,0.932939,0.323952,0.935032,0.330717,1.191247,-3.273782,-7.575336,-1.572781,11.985807,-0.133449,-27.589008,0.038129,-0.108065,0.000000,-0.877858,0.394705,-0.000000
1.310000,-1.952902,0.550131,-1.462861,1.525979,0.935867,0.335786,0.902892,0.254962,1.174140,-3.148142,-7.566916,-1.848216,13.112561,1.720865,-27.397990,0.029355,-0.104173,0.000000,-0.875824,0.382570,0.000000
1.320000,-1.937597,0.559503,-1.459444,1.534851,0.938038,0.347435,0.872069,0.179379,1.154282,-3.011531,-7.540919,-2.120741,14.084369,3.508961,-26.862429,0.020616,-0.100412,0.000000,-0.870734,0.368786,-0.000000
1.330000,-1.922205,0.568892,-1.455912,1.543421,0.939455,0.358871,0.842662,0.104143,1.131725,-2.866454,-7.496737,-2.385465,14.885253,5.320942,-26.008152,0.011944,-0.096797,0.000000,-0.862557,0.353633,-0.000000
1.340000,-1.906729,0.578292,-1.452267,1.551704,0.940121,0.370069,0.814740,0.029444,1.106573,-2.713826,-7.434500,-2.640904,15.697361,7.059506,-25.203852,0.003368,-0.093339,0.000000,-0.851392,0.337259,-0.000000
1.350000,-1.891171,0.587695,-1.448511,1.559715,0.940044,0.381003,0.788385,-0.044547,1.078907,-2.552507,-7.355547,-2.889542,16.576005,8.742629,-24.552070,-0.005081,-0.090052,0.000000,-0.837484,0.319620,0.000000
1.360000,-1.875534,0.597093,-1.444647,1.567471,0.939230,0.391647,0.763690,-0.117667,1.048782,-2.382306,-7.259648,-3.131946,17.386737,10.423999,-23.803295,-0.013379,-0.086947,0.000000,-0.820902,0.300763,0.000000
1.370000,-1.859821,0.606479,-1.440678,1.574989,0.937690,0.401978,0.740739,-0.189740,1.016268,-2.204772,-7.147067,-3.365608,17.993957,11.961826,-22.736564,-0.021497,-0.084037,0.000000,-0.801787,0.280901,0.000000
1.380000,-1.844034,0.615847,-1.436607,1.582286,0.935435,0.411973,0.719594,-0.260608,0.981470,-2.022427,-7.020411,-3.586677,18.428638,13.312406,-21.437242,-0.029413,-0.081328,0.000000,-0.780564,0.260349,-0.000000
1.390000,-1.828176,0.625188,-1.432438,1.589381,0.932478,0.421608,0.700291,-0.330148,0.944534,-1.836200,-6.880819,-3.794353,18.859434,14.663439,-20.198118,-0.037107,-0.078827,0.000000,-0.757496,0.239267,0.000000
1.400000,-1.812247,0.634496,-1.428175,1.596292,0.928832,0.430863,0.682871,-0.398225,0.905583,-1.645238,-6.727142,-3.990639,19.342282,16.106211,-19.040002,-0.044562,-0.076539,0.000000,-0.732576,0.217638,0.000000
1.410000,-1.796250,0.643765,-1.423821,1.603038,0.924514,0.439719,0.667386,-0.464691,0.864722,-1.449354,-6.558694,-4.175153,19.756677,17.496764,-17.778379,-0.051758,-0.074470,0.000000,-0.705853,0.195495,-0.000000
1.420000,-1.780186,0.652986,-1.419381,1.609640,0.919539,0.448158,0.653883,-0.529398,0.822080,-1.250105,-6.377207,-4.346207,19.952004,18.600548,-16.407185,-0.058678,-0.072623,0.000000,-0.677656,0.173051,-0.000000
1.430000,-1.764057,0.662155,-1.414858,1.616116,0.913926,0.456161,0.642384,-0.592235,0.777798,-1.050314,-6.186683,-4.503296,19.959927,19.446063,-15.002584,-0.065311,-0.071002,0.000000,-0.648551,0.150660,0.000000
1.440000,-1.747864,0.671265,-1.410257,1.622487,0.907694,0.463714,0.632877,-0.653132,0.732014,-0.850906,-5.988286,-4.646259,19.975399,20.335726,-13.572219,-0.071650,-0.069603,0.000000,-0.618774,0.128458,-0.000000
1.450000,-1.731607,0.680309,-1.405584,1.628774,0.900863,0.470801,0.625366,-0.712001,0.684872,-0.650806,-5.779969,-4.774741,20.034946,21.344496,-12.096996,-0.077687,-0.068425,0.000000,-0.588203,0.106357,0.000000
1.460000,-1.715288,0.689282,-1.400841,1.634995,0.893454,0.477411,0.619861,-0.768731,0.636519,-0.450207,-5.561396,-4.888198,20.005754,22.260224,-10.588166,-0.083415,-0.067468,0.000000,-0.556901,0.084402,-0.000000
1.470000,-1.698907,0.698178,-1.396035,1.641171,0.885488,0.483532,0.616362,-0.823229,0.587108,-0.250691,-5.334764,-4.986504,19.808831,22.905680,-9.103451,-0.088826,-0.066730,0.000000,-0.525196,0.062784,0.000000
1.480000,-1.682465,0.706992,-1.391171,1.647322,0.876989,0.489153,0.614847,-0.875427,0.536789,-0.054031,-5.103282,-5.070267,19.481597,23.350378,-7.651953,-0.093920,-0.066207,0.000000,-0.493499,0.041710,0.000000
1.490000,-1.665961,0.715718,-1.386252,1.653468,0.867980,0.494268,0.615281,-0.925294,0.485703,0.138941,-4.867757,-5.139543,19.124797,23.816274,-6.171665,-0.098698,-0.065891,0.000000,-0.461949,0.021274,0.000000
1.500000,-1.649395,0.724352,-1.381285,1.659628,0.858483,0.498867,0.617626,-0.972782,0.433998,0.328465,-4.626957,-5.193701,18.795709,24.290986,-4.652917,-0.103160,-0.065778,0.000000,-0.430470,0.001443,-0.000000
1.510000,-1.632768,0.732888,-1.376275,1.665820,0.848524,0.502948,0.621850,-1.017833,0.381829,0.514855,-4.381937,-5.232602,18.426115,24.629012,-3.150269,-0.107309,-0.065861,0.000000,-0.399217,-0.017821,0.000000
1.520000,-1.616079,0.741322,-1.371226,1.672065,0.838127,0.506504,0.627923,-1.060421,0.329346,0.696988,-4.134377,-5.256706,17.860588,24.886914,-1.704413,-0.111147,-0.066135,0.000000,-0.368391,-0.036407,0.000000
1.530000,-1.599327,0.749650,-1.366145,1.678379,0.827316,0.509534,0.635790,-1.100521,0.276695,0.872067,-3.884199,-5.266690,17.121171,25.106513,-0.313098,-0.114678,-0.066593,0.000000,-0.337996,-0.054033,0.000000
1.540000,-1.582511,0.757868,-1.361036,1.684780,0.816116,0.512038,0.645364,-1.138105,0.224012,1.039411,-3.632246,-5.262968,16.421752,25.201260,1.061301,-0.117908,-0.067222,0.000000,-0.308129,-0.070651,-0.000000
1.550000,-1.565631,0.765973,-1.355904,1.691286,0.804554,0.514015,0.656578,-1.173166,0.171436,1.200502,-3.380174,-5.245464,15.777674,25.244581,2.462435,-0.120843,-0.068015,0.000000,-0.278961,-0.086441,0.000000
1.560000,-1.548686,0.773959,-1.350755,1.697912,0.792653,0.515467,0.669375,-1.205708,0.119103,1.354965,-3.127355,-5.213719,15.051306,25.291114,3.850953,-0.123489,-0.068963,0.000000,-0.250432,-0.101392,0.000000
1.570000,-1.531673,0.781826,-1.345595,1.704674,0.780440,0.516397,0.683677,-1.235713,0.067161,1.501528,-2.874351,-5.168445,14.250079,25.091334,5.079184,-0.125853,-0.070057,0.000000,-0.222584,-0.115398,-0.000000
1.580000,-1.514592,0.789568,-1.340428,1.711586,0.767939,0.516810,0.699405,-1.263195,0.015734,1.639966,-2.625528,-5.112136,13.430250,24.615754,6.140668,-0.127943,-0.071289,0.000000,-0.195810,-0.128450,0.000000
1.590000,-1.497441,0.797184,-1.335259,1.718662,0.755176,0.516711,0.716477,-1.288223,-0.035082,1.770133,-2.382036,-5.045631,12.578011,24.218015,7.224774,-0.129771,-0.072647,0.000000,-0.170185,-0.140559,-0.000000
1.600000,-1.480219,0.804672,-1.330093,1.725915,0.742174,0.516108,0.734808,-1.310836,-0.085178,1.891526,-2.141168,-4.967640,11.672297,23.958630,8.398147,-0.131348,-0.074123,0.000000,-0.145429,-0.151714,0.000000
1.610000,-1.462923,0.812028,-1.324937,1.733358,0.728959,0.515008,0.754307,-1.331047,-0.134434,2.003579,-1.902864,-4.877668,10.732802,23.600697,9.520904,-0.132681,-0.075707,0.000000,-0.121520,-0.161897,0.000000
1.620000,-1.445552,0.819251,-1.319793,1.741001,0.715553,0.513419,0.774879,-1.348893,-0.182732,2.106182,-1.669154,-4.777222,9.813019,23.068845,10.421943,-0.133780,-0.077389,0.000000,-0.098609,-0.171119,0.000000
1.630000,-1.428103,0.826339,-1.314668,1.748855,0.701981,0.511353,0.796431,-1.364430,-0.229979,2.199840,-1.441487,-4.669230,8.911202,22.458989,11.135616,-0.134654,-0.079160,0.000000,-0.076766,-0.179438,-0.000000
1.640000,-1.410575,0.833291,-1.309566,1.756930,0.688265,0.508820,0.818876,-1.377723,-0.276116,2.284406,-1.219974,-4.554510,7.965222,21.860936,11.878824,-0.135316,-0.081011,0.000000,-0.055958,-0.186862,0.000000
1.650000,-1.392965,0.840104,-1.304492,1.765233,0.674427,0.505831,0.842119,-1.388829,-0.321069,2.359144,-1.004268,-4.431653,6.988428,21.204162,12.693353,-0.135774,-0.082932,0.000000,-0.036137,-0.193357,0.000000
1.660000,-1.375270,0.846779,-1.299449,1.773772,0.660488,0.502399,0.866059,-1.397808,-0.364749,2.424175,-0.795891,-4.300643,6.027890,20.445005,13.428201,-0.136040,-0.084914,0.000000,-0.017416,-0.198966,-0.000000
1.670000,-1.357489,0.853314,-1.294444,1.782554,0.646470,0.498536,0.890603,-1.404747,-0.407082,2.479702,-0.595368,-4.163089,5.047304,19.791577,13.985076,-0.136124,-0.086948,0.000000,0.000210,-0.203719,0.000000
1.680000,-1.339619,0.859709,-1.289479,1.791584,0.632393,0.494257,0.915653,-1.409716,-0.448011,2.525121,-0.400059,-4.020941,4.038986,19.267449,14.407785,-0.136036,-0.089026,0.000000,0.017050,-0.207567,0.000000
1.690000,-1.321657,0.865962,-1.284559,1.800867,0.618276,0.489576,0.941105,-1.412748,-0.487501,2.560481,-0.210019,-3.874933,3.064629,18.593061,14.817121,-0.135783,-0.091138,0.000000,0.033136,-0.210530,0.000000
1.700000,-1.303602,0.872074,-1.279687,1.810406,0.604138,0.484507,0.966863,-1.413916,-0.525510,2.586414,-0.028198,-3.724599,2.097255,17.779880,15.247545,-0.135374,-0.093276,0.000000,0.048209,-0.212691,-0.000000
1.710000,-1.285449,0.878045,-1.274868,1.820204,0.589998,0.479066,0.992833,-1.413312,-0.561993,2.602427,0.145579,-3.569982,1.103976,17.020583,15.616509,-0.134820,-0.095432,0.000000,0.062317,-0.214023,0.000000
1.720000,-1.267198,0.883874,-1.270106,1.830263,0.575872,0.473267,1.018911,-1.411004,-0.596909,2.608493,0.312214,-3.412269,0.196814,16.224608,15.830451,-0.134128,-0.097596,0.000000,0.075586,-0.214528,0.000000
1.730000,-1.248844,0.889562,-1.265403,1.840583,0.561778,0.467127,1.045003,-1.407068,-0.630238,2.606363,0.470071,-3.253373,-0.601404,15.328539,15.913575,-0.133308,-0.099762,0.000000,0.087912,-0.214369,-0.000000
1.740000,-1.230386,0.895110,-1.260763,1.851163,0.547731,0.460662,1.071038,-1.401603,-0.661977,2.596465,0.618784,-3.093997,-1.440593,14.480648,15.989520,-0.132370,-0.101922,0.000000,0.099296,-0.213587,-0.000000
1.750000,-1.211821,0.900517,-1.256190,1.862003,0.533746,0.453888,1.096932,-1.394692,-0.692118,2.577551,0.759684,-2.933583,-2.351734,13.679750,16.082189,-0.131322,-0.104071,0.000000,0.109874,-0.212080,-0.000000
1.760000,-1.193146,0.905784,-1.251686,1.873102,0.519837,0.446820,1.122589,-1.386409,-0.720649,2.549430,0.892379,-2.772353,-3.226550,12.830554,16.109995,-0.130173,-0.106201,0.000000,0.119632,-0.209836,0.000000
1.770000,-1.174359,0.910914,-1.247253,1.884455,0.506018,0.439475,1.147921,-1.376845,-0.747565,2.513020,1.016295,-2.611383,-4.003801,12.008516,16.025288,-0.128930,-0.108304,0.000000,0.128547,-0.206937,0.000000
1.780000,-1.155457,0.915905,-1.242896,1.896060,0.492300,0.431869,1.172850,-1.366083,-0.772876,2.469354,1.132550,-2.451848,-4.713652,11.256642,15.856785,-0.127602,-0.110375,0.000000,0.136756,-0.203471,0.000000
1.790000,-1.136438,0.920760,-1.238616,1.907912,0.478696,0.424017,1.197308,-1.354194,-0.796602,2.418747,1.241428,-2.294247,-5.426339,10.468981,15.667470,-0.126195,-0.112407,0.000000,0.144303,-0.199464,-0.000000
1.800000,-1.117299,0.925479,-1.234416,1.920006,0.465216,0.415937,1.221225,-1.341255,-0.818761,2.360828,1.341929,-2.138498,-6.161272,9.616606,15.466038,-0.124716,-0.114396,0.000000,0.151107,-0.194881,0.000000
1.810000,-1.098037,0.930064,-1.230297,1.932337,0.451871,0.407642,1.244525,-1.327355,-0.839372,2.295522,1.433760,-1.984927,-6.867805,8.778813,15.214491,-0.123172,-0.116336,0.000000,0.157155,-0.189714,0.000000
1.820000,-1.078652,0.934516,-1.226263,1.944897,0.438669,0.399149,1.267135,-1.312580,-0.858460,2.223472,1.517506,-1.834208,-7.484623,8.012067,14.898996,-0.121572,-0.118220,0.000000,0.162519,-0.184011,-0.000000
1.830000,-1.059139,0.938837,-1.222314,1.957679,0.425619,0.390473,1.288994,-1.297005,-0.876056,2.145829,1.594001,-1.686947,-8.023305,7.296095,14.535924,-0.119922,-0.120044,0.000000,0.167291,-0.177871,0.000000
1.840000,-1.039498,0.943029,-1.218453,1.970677,0.412729,0.381628,1.310052,-1.280700,-0.892199,2.063005,1.663428,-1.543490,-8.561686,6.565116,14.146915,-0.118226,-0.121804,0.000000,0.171497,-0.171321,0.000000
1.850000,-1.019726,0.947092,-1.214682,1.983880,0.400005,0.372629,1.330254,-1.263736,-0.906926,1.974595,1.725304,-1.404008,-9.120317,5.800926,13.733218,-0.116492,-0.123495,0.000000,0.175099,-0.164318,-0.000000
1.860000,-0.999821,0.951029,-1.211001,1.997282,0.387454,0.363489,1.349544,-1.246194,-0.920279,1.880599,1.779446,-1.268826,-9.644516,5.051782,13.285455,-0.114724,-0.125113,0.000000,0.178087,-0.156854,-0.000000
1.870000,-0.979780,0.954841,-1.207412,2.010871,0.375081,0.354223,1.367866,-1.228148,-0.932302,1.781705,1.826339,-1.138299,-10.082915,4.373338,12.809529,-0.112930,-0.126653,0.000000,0.180513,-0.148980,-0.000000
1.880000,-0.959603,0.958530,-1.203916,2.024639,0.362891,0.344843,1.385178,-1.209667,-0.943045,1.678941,1.866913,-1.012635,-10.450789,3.754395,12.313671,-0.111114,-0.128112,0.000000,0.182466,-0.140781,-0.000000
1.890000,-0.939288,0.962099,-1.200515,2.038575,0.350888,0.335362,1.401445,-1.190809,-0.952555,1.572689,1.901427,-0.892026,-10.813781,3.125558,11.795095,-0.109280,-0.129486,0.000000,0.183972,-0.132283,0.000000
1.900000,-0.918832,0.965548,-1.197209,2.052668,0.339075,0.325792,1.416632,-1.171638,-0.960885,1.462665,1.929424,-0.776733,-11.187069,2.471624,11.247869,-0.107434,-0.130774,0.000000,0.184991,-0.123450,-0.000000
1.910000,-0.898234,0.968880,-1.193999,2.066908,0.327455,0.316145,1.430698,-1.152221,-0.968090,1.348948,1.950860,-0.667069,-11.526108,1.841809,10.679359,-0.105580,-0.131970,0.000000,0.185520,-0.114276,-0.000000
1.920000,-0.877494,0.972097,-1.190886,2.081282,0.316031,0.306431,1.443611,-1.132621,-0.974227,1.232143,1.966260,-0.563146,-11.794745,1.274819,10.114716,-0.103724,-0.133072,0.000000,0.185608,-0.104809,0.000000
1.930000,-0.856609,0.975201,-1.187871,2.095780,0.304803,0.296660,1.455341,-1.112896,-0.979353,1.113053,1.976356,-0.464774,-12.007092,0.756501,9.557129,-0.101868,-0.134078,0.000000,0.185318,-0.095116,0.000000
1.940000,-0.835578,0.978193,-1.184953,2.110389,0.293773,0.286843,1.465872,-1.093094,-0.983522,0.992001,1.981390,-0.372003,-12.210198,0.239395,8.978456,-0.100017,-0.134984,0.000000,0.184669,-0.085219,-0.000000
1.950000,-0.814401,0.981076,-1.182134,2.125097,0.282941,0.276990,1.475181,-1.073268,-0.986793,0.868849,1.981144,-0.285205,-12.412436,-0.283376,8.369008,-0.098174,-0.135791,0.000000,0.183640,-0.075092,-0.000000
1.960000,-0.793076,0.983852,-1.179413,2.139892,0.272307,0.267108,1.483249,-1.053471,-0.989226,0.743752,1.975723,-0.204623,-12.583355,-0.779171,7.752772,-0.096344,-0.136494,0.000000,0.182241,-0.064740,-0.000000
1.970000,-0.771603,0.986522,-1.176792,2.154762,0.261871,0.257205,1.490056,-1.033753,-0.990885,0.617182,1.965560,-0.130150,-12.705952,-1.230496,7.161298,-0.094529,-0.137092,0.000000,0.180506,-0.054200,-0.000000
1.980000,-0.749981,0.989089,-1.174269,2.169694,0.251632,0.247290,1.495592,-1.014160,-0.991829,0.489633,1.951113,-0.061397,-12.791121,-1.646049,6.592031,-0.092734,-0.137583,0.000000,0.178469,-0.043516,0.000000
1.990000,-0.728209,0.991555,-1.171846,2.184674,0.241588,0.237369,1.499849,-0.994731,-0.992113,0.361359,1.932639,0.001691,-12.861832,-2.047024,6.008604,-0.090960,-0.137966,0.000000,0.176149,-0.032705,-0.000000
2.000000,-0.706287,0.993921,-1.169522,2.199691,0.231738,0.227448,1.502819,-0.975507,-0.991795,0.232397,1.910172,0.058775,-12.922544,-2.447093,5.398541,-0.089211,-0.138239,0.000000,0.173548,-0.021762,0.000000
2.010000,-0.684215,0.996190,-1.167297,2.214730,0.222078,0.217533,1.504497,-0.956528,-0.990938,0.102909,1.883698,0.109662,-12.959761,-2.831216,4.790649,-0.087489,-0.138403,0.000000,0.170661,-0.010693,0.000000
2.020000,-0.661993,0.998363,-1.165171,2.229780,0.212607,0.207629,1.504878,-0.937833,-0.989602,-0.026798,1.853548,0.154588,-12.965569,-3.160109,4.223517,-0.085797,-0.138454,0.000000,0.167513,0.000476,-0.000000
2.030000,-0.639620,1.000442,-1.163144,2.244828,0.203321,0.197741,1.503961,-0.919457,-0.987846,-0.156403,1.820495,0.194132,-12.946024,-3.437111,3.691904,-0.084139,-0.138393,0.000000,0.164164,0.011711,-0.000000
2.040000,-0.617096,1.002429,-1.161216,2.259860,0.194218,0.187872,1.501750,-0.901423,-0.985720,-0.285719,1.784806,0.228426,-12.913602,-3.715691,3.149099,-0.082514,-0.138219,0.000000,0.160635,0.022998,-0.000000
2.050000,-0.594422,1.004326,-1.159387,2.274863,0.185293,0.178026,1.498247,-0.883761,-0.983277,-0.414675,1.746182,0.257114,-12.869784,-4.006021,2.586007,-0.080926,-0.137932,0.000000,0.156896,0.034336,-0.000000
2.060000,-0.571599,1.006135,-1.157656,2.289825,0.176543,0.168206,1.493456,-0.866500,-0.980577,-0.543115,1.704685,0.280146,-12.808542,-4.272507,2.037115,-0.079376,-0.137530,0.000000,0.152950,0.045716,-0.000000
2.070000,-0.548626,1.007857,-1.156023,2.304732,0.167963,0.158415,1.487384,-0.849667,-0.977675,-0.670846,1.660731,0.297856,-12.731265,-4.497714,1.527551,-0.077867,-0.137014,0.000000,0.148828,0.057117,0.000000
2.080000,-0.525504,1.009494,-1.154488,2.319572,0.159549,0.148653,1.480039,-0.833285,-0.974620,-0.797740,1.614731,0.310697,-12.642507,-4.695096,1.048634,-0.076400,-0.136384,0.000000,0.144561,0.068522,-0.000000
2.090000,-0.502234,1.011048,-1.153050,2.334333,0.151297,0.138922,1.471429,-0.817372,-0.971461,-0.923696,1.566829,0.318829,-12.542635,-4.886820,0.571657,-0.074976,-0.135640,0.000000,0.140158,0.079921,-0.000000
2.100000,-0.478818,1.012520,-1.151709,2.349001,0.143202,0.129224,1.461565,-0.801948,-0.968244,-1.048593,1.516995,0.322130,-12.427819,-5.069001,0.091047,-0.073596,-0.134781,0.000000,0.135613,0.091304,0.000000
2.110000,-0.455254,1.013912,-1.150465,2.363564,0.135258,0.119557,1.450458,-0.787032,-0.965018,-1.172252,1.465449,0.320650,-12.300547,-5.228980,-0.371881,-0.072263,-0.133809,0.000000,0.130945,0.102654,-0.000000
2.120000,-0.431546,1.015225,-1.149318,2.378010,0.127461,0.109923,1.438120,-0.772639,-0.961831,-1.294604,1.412415,0.314693,-12.175848,-5.380933,-0.798770,-0.070978,-0.132723,0.000000,0.126169,0.113960,0.000000
2.130000,-0.407694,1.016461,-1.148267,2.392327,0.119806,0.100321,1.424566,-0.758784,-0.958724,-1.415769,1.357831,0.304675,-12.055712,-5.530457,-1.194212,-0.069740,-0.131524,0.000000,0.121273,0.125226,-0.000000
2.140000,-0.383700,1.017622,-1.147312,2.406501,0.112286,0.090749,1.409805,-0.745483,-0.955737,-1.535718,1.301806,0.290808,-11.922405,-5.658991,-1.579699,-0.068552,-0.130212,0.000000,0.116265,0.136445,-0.000000
2.150000,-0.359564,1.018707,-1.146452,2.420523,0.104896,0.081206,1.393851,-0.732748,-0.952908,-1.654217,1.244651,0.273081,-11.770615,-5.768353,-1.962374,-0.067415,-0.128788,0.000000,0.111172,0.147593,-0.000000
2.160000,-0.335289,1.019719,-1.145687,2.434378,0.097631,0.071691,1.376720,-0.720590,-0.950275,-1.771130,1.186439,0.251561,-11.614695,-5.872387,-2.326049,-0.066329,-0.127253,0.000000,0.105997,0.158655,0.000000
2.170000,-0.310877,1.020660,-1.145018,2.448057,0.090484,0.062201,1.358429,-0.709019,-0.947877,-1.886511,1.127203,0.226560,-11.470546,-5.962802,-2.649243,-0.065295,-0.125608,0.000000,0.100742,0.169629,0.000000
2.180000,-0.286328,1.021529,-1.144443,2.461547,0.083450,0.052733,1.338990,-0.698046,-0.945744,-2.000541,1.067183,0.198576,-11.335778,-6.036185,-2.936071,-0.064314,-0.123854,0.000000,0.095425,0.180522,-0.000000
2.190000,-0.261646,1.022329,-1.143963,2.474837,0.076523,0.043286,1.318418,-0.687676,-0.943905,-2.113227,1.006480,0.167838,-11.192021,-6.106896,-3.213218,-0.063386,-0.121990,0.000000,0.090051,0.191328,0.000000
2.200000,-0.236831,1.023060,-1.143578,2.487915,0.069697,0.033855,1.296726,-0.677916,-0.942388,-2.224381,0.945045,0.134312,-11.034247,-6.172471,-3.481275,-0.062513,-0.120019,0.000000,0.084618,0.202027,0.000000
2.210000,-0.211887,1.023723,-1.143286,2.500771,0.062965,0.024438,1.273930,-0.668775,-0.941219,-2.333912,0.883030,0.098213,-10.876703,-6.224823,-3.721572,-0.061694,-0.117942,0.000000,0.079137,0.212605,0.000000
2.220000,-0.186816,1.024319,-1.143089,2.513394,0.056321,0.015031,1.250047,-0.660255,-0.940423,-2.441915,0.820548,0.059880,-10.735135,-6.279257,-3.934513,-0.060930,-0.115759,0.000000,0.073617,0.223062,-0.000000
2.230000,-0.161620,1.024849,-1.142986,2.525772,0.049760,0.005629,1.225092,-0.652364,-0.940021,-2.548614,0.757445,0.019522,-10.607047,-6.341284,-4.126367,-0.060222,-0.113472,0.000000,0.068043,0.233412,0.000000
2.240000,-0.136301,1.025314,-1.142976,2.537896,0.043274,-0.003770,1.199075,-0.645107,-0.940033,-2.654056,0.693723,-0.022647,-10.473685,-6.390613,-4.293843,-0.059569,-0.111082,0.000000,0.062414,0.243653,0.000000
2.250000,-0.110862,1.025715,-1.143061,2.549754,0.036858,-0.013171,1.172011,-0.638489,-0.940474,-2.758088,0.629633,-0.066354,-10.328497,-6.417978,-4.433484,-0.058973,-0.108591,0.000000,0.056753,0.253765,0.000000
2.260000,-0.085305,1.026051,-1.143240,2.561336,0.030504,-0.022579,1.143913,-0.632514,-0.941360,-2.860626,0.565363,-0.111317,-10.185679,-6.439044,-4.547225,-0.058434,-0.105998,0.000000,0.051077,0.263731,-0.000000
2.270000,-0.059635,1.026325,-1.143513,2.572632,0.024207,-0.031998,1.114798,-0.627182,-0.942701,-2.961802,0.500852,-0.157299,-10.064444,-6.477314,-4.640235,-0.057952,-0.103307,0.000000,0.045379,0.273559,-0.000000
2.280000,-0.033853,1.026535,-1.143880,2.583632,0.017961,-0.041433,1.084677,-0.622497,-0.944506,-3.061915,0.435817,-0.204122,-9.962276,-6.529191,-4.711066,-0.057527,-0.100518,0.000000,0.039633,0.283269,0.000000
2.290000,-0.007962,1.026684,-1.144341,2.594326,0.011757,-0.050888,1.053560,-0.618466,-0.946783,-3.161047,0.370268,-0.251520,-9.854988,-6.564865,-4.751880,-0.057159,-0.097632,0.000000,0.033841,0.292863,0.000000
2.300000,0.018034,1.026771,-1.144897,2.604703,0.005591,-0.060369,1.021456,-0.615092,-0.949536,-3.259015,0.304520,-0.299159,-9.734031,-6.580410,-4.764380,-0.056850,-0.094651,0.000000,0.028031,0.302317,-0.000000
2.310000,0.044132,1.026796,-1.145549,2.614755,-0.000544,-0.069879,0.988380,-0.612375,-0.952766,-3.355728,0.238660,-0.346808,-9.616899,-6.596673,-4.752849,-0.056599,-0.091576,0.000000,0.022212,0.311618,-0.000000
2.320000,0.070329,1.026760,-1.146295,2.624471,-0.006656,-0.079424,0.954342,-0.610318,-0.956472,-3.451353,0.172586,-0.394216,-9.526335,-6.621837,-4.709181,-0.056406,-0.088409,0.000000,0.016375,0.320775,0.000000
2.330000,0.096621,1.026663,-1.147137,2.633842,-0.012751,-0.089009,0.919353,-0.608923,-0.960651,-3.546254,0.106223,-0.440991,-9.458484,-6.650114,-4.629995,-0.056271,-0.085151,0.000000,0.010511,0.329817,-0.000000
2.340000,0.123006,1.026505,-1.148075,2.642858,-0.018835,-0.098637,0.883417,-0.608194,-0.965292,-3.640523,0.039584,-0.486816,-9.383842,-6.672506,-4.526088,-0.056195,-0.081802,0.000000,0.004623,0.338746,0.000000
2.350000,0.149478,1.026286,-1.149110,2.651510,-0.024915,-0.108314,0.846542,-0.608132,-0.970387,-3.733931,-0.027227,-0.531513,-9.292454,-6.683021,-4.405660,-0.056179,-0.078365,0.000000,-0.001278,0.347539,0.000000
2.360000,0.176036,1.026006,-1.150242,2.659789,-0.030997,-0.118045,0.808738,-0.608738,-0.975923,-3.826372,-0.094077,-0.574929,-9.204846,-6.688303,-4.260101,-0.056221,-0.074841,0.000000,-0.007181,0.356184,0.000000
2.370000,0.202674,1.025666,-1.151471,2.667685,-0.037089,-0.127833,0.770015,-0.610013,-0.981886,-3.918028,-0.160993,-0.616715,-9.145869,-6.707216,-4.067294,-0.056322,-0.071231,0.000000,-0.013086,0.364692,0.000000
2.380000,0.229389,1.025265,-1.152798,2.675189,-0.043198,-0.137683,0.730378,-0.611958,-0.988257,-4.009289,-0.228221,-0.656275,-9.109996,-6.739108,-3.827867,-0.056483,-0.067536,0.000000,-0.019019,0.373096,-0.000000
2.390000,0.256178,1.024802,-1.154224,2.682292,-0.049329,-0.147598,0.689829,-0.614578,-0.995011,-4.100228,-0.295775,-0.693273,-9.064245,-6.758475,-3.571258,-0.056703,-0.063757,0.000000,-0.024980,0.381400,-0.000000
2.400000,0.283035,1.024278,-1.155750,2.688986,-0.055489,-0.157583,0.648373,-0.617874,-1.002122,-4.190574,-0.363390,-0.727700,-8.999719,-6.756835,-3.308700,-0.056982,-0.059896,0.000000,-0.030944,0.389581,-0.000000
2.410000,0.309958,1.023692,-1.157376,2.695260,-0.061686,-0.167641,0.606017,-0.621846,-1.009565,-4.280223,-0.430912,-0.759447,-8.938549,-6.751792,-3.019453,-0.057321,-0.055953,0.000000,-0.036896,0.397628,-0.000000
2.420000,0.336941,1.023044,-1.159103,2.701106,-0.067926,-0.177774,0.562769,-0.626492,-1.017311,-4.369345,-0.498426,-0.788089,-8.900814,-6.762795,-2.676157,-0.057720,-0.051930,0.000000,-0.042843,0.405558,0.000000
2.430000,0.363980,1.022334,-1.160932,2.706515,-0.074216,-0.187987,0.518630,-0.631814,-1.025327,-4.458239,-0.566168,-0.812970,-8.879547,-6.785062,-2.284611,-0.058178,-0.047828,0.000000,-0.048811,0.413396,-0.000000
2.440000,0.391071,1.021560,-1.162863,2.711478,-0.080562,-0.198281,0.473604,-0.637815,-1.033571,-4.546936,-0.634127,-0.833782,-8.847665,-6.792581,-1.881050,-0.058696,-0.043648,0.000000,-0.054799,0.421148,-0.000000
2.450000,0.418209,1.020722,-1.164897,2.715987,-0.086972,-0.208658,0.427692,-0.644497,-1.042002,-4.635192,-0.702019,-0.850591,-8.797961,-6.776387,-1.472442,-0.059274,-0.039391,0.000000,-0.060779,0.428795,0.000000
2.460000,0.445391,1.019821,-1.167036,2.720032,-0.093452,-0.219121,0.380900,-0.651856,-1.050582,-4.722895,-0.769655,-0.863230,-8.747817,-6.753812,-1.034659,-0.059912,-0.035057,0.000000,-0.066735,0.436331,-0.000000
2.470000,0.472610,1.018853,-1.169280,2.723605,-0.100009,-0.229670,0.333234,-0.659890,-1.059267,-4.810148,-0.837096,-0.871284,-8.712688,-6.745980,-0.553926,-0.060609,-0.030649,0.000000,-0.072674,0.443769,-0.000000
2.480000,0.499863,1.017820,-1.171629,2.726697,-0.106650,-0.240306,0.284697,-0.668598,-1.068008,-4.897149,-0.904575,-0.874309,-8.686698,-6.747770,-0.038280,-0.061365,-0.026166,0.000000,-0.078619,0.451131,0.000000
2.490000,0.527144,1.016720,-1.174086,2.729299,-0.113381,-0.251030,0.235291,-0.677981,-1.076753,-4.983882,-0.972051,-0.872049,-8.648072,-6.730127,0.494264,-0.062181,-0.021609,0.000000,-0.084570,0.458422,0.000000
2.500000,0.554449,1.015553,-1.176650,2.731403,-0.120210,-0.261841,0.185019,-0.688039,-1.085449,-5.070110,-1.039177,-0.864424,-8.589609,-6.684014,1.038980,-0.063056,-0.016980,0.000000,-0.090494,0.465628,-0.000000
2.510000,0.581772,1.014316,-1.179323,2.732999,-0.127142,-0.272739,0.133889,-0.698765,-1.094042,-5.155675,-1.105731,-0.851270,-8.524657,-6.628212,1.607066,-0.063991,-0.012278,0.000000,-0.096372,0.472740,-0.000000
2.520000,0.609109,1.013010,-1.182105,2.734081,-0.134185,-0.283722,0.081906,-0.710153,-1.102474,-5.240603,-1.171742,-0.832282,-8.468207,-6.582123,2.209402,-0.064984,-0.007506,0.000000,-0.102212,0.479770,-0.000000
2.530000,0.636454,1.011633,-1.184997,2.734638,-0.141345,-0.294788,0.029077,-0.722200,-1.110687,-5.325039,-1.237374,-0.807082,-8.415426,-6.539315,2.842531,-0.066035,-0.002663,0.000000,-0.108031,0.486740,-0.000000
2.540000,0.663801,1.010183,-1.188000,2.734662,-0.148629,-0.305936,-0.024595,-0.734901,-1.118616,-5.408912,-1.302528,-0.775432,-8.344196,-6.472533,3.490606,-0.067144,0.002251,0.000000,-0.113824,0.493654,-0.000000
2.550000,0.691147,1.008660,-1.191116,2.734146,-0.156043,-0.317161,-0.079102,-0.748250,-1.126196,-5.491923,-1.366825,-0.737270,-8.246925,-6.374899,4.145020,-0.068311,0.007233,0.000000,-0.119558,0.500495,-0.000000
2.560000,0.718484,1.007062,-1.194344,2.733080,-0.163594,-0.328460,-0.134433,-0.762237,-1.133362,-5.573851,-1.430026,-0.692531,-8.136793,-6.263221,4.815594,-0.069535,0.012284,0.000000,-0.125215,0.507253,0.000000
2.570000,0.745808,1.005388,-1.197685,2.731457,-0.171288,-0.339828,-0.190579,-0.776851,-1.140047,-5.654659,-1.492089,-0.640958,-8.028375,-6.150104,5.522390,-0.070816,0.017403,0.000000,-0.130796,0.513939,-0.000000
2.580000,0.773113,1.003636,-1.201140,2.729268,-0.179131,-0.351261,-0.247527,-0.792079,-1.146181,-5.734418,-1.553028,-0.582083,-7.916266,-6.028592,6.263218,-0.072151,0.022589,0.000000,-0.136309,0.520571,-0.000000
2.590000,0.800394,1.001805,-1.204710,2.726506,-0.187129,-0.362752,-0.305267,-0.807911,-1.151688,-5.812984,-1.612661,-0.515694,-7.778387,-5.880112,7.008702,-0.073542,0.027841,0.000000,-0.141741,0.527151,0.000000
2.600000,0.827644,0.999894,-1.208395,2.723163,-0.195289,-0.374294,-0.363786,-0.824332,-1.156495,-5.889986,-1.670630,-0.441909,-7.608989,-5.702514,7.742922,-0.074986,0.033160,0.000000,-0.147065,0.533660,-0.000000
2.610000,0.854857,0.997900,-1.212196,2.719231,-0.203616,-0.385882,-0.423067,-0.841324,-1.160526,-5.965164,-1.726711,-0.360835,-7.420645,-5.506004,8.484811,-0.076483,0.038545,0.000000,-0.152263,0.540087,-0.000000
2.620000,0.882028,0.995821,-1.216113,2.714702,-0.212116,-0.397505,-0.483089,-0.858867,-1.163711,-6.038399,-1.780750,-0.272213,-7.221630,-5.290307,9.271341,-0.078031,0.043994,0.000000,-0.157329,0.546438,-0.000000
2.630000,0.909151,0.993657,-1.220146,2.709569,-0.220793,-0.409156,-0.543835,-0.876939,-1.165971,-6.109596,-1.832517,-0.175408,-7.005447,-5.049239,10.098444,-0.079630,0.049507,0.000000,-0.162252,0.552724,-0.000000
2.640000,0.936220,0.991406,-1.224296,2.703825,-0.229654,-0.420824,-0.605281,-0.895517,-1.167219,-6.178508,-1.881735,-0.070244,-6.758356,-4.781268,10.912933,-0.081276,0.055084,0.000000,-0.167014,0.558939,0.000000
2.650000,0.963228,0.989064,-1.228563,2.697463,-0.238704,-0.432500,-0.667405,-0.914574,-1.167376,-6.244763,-1.928143,0.042850,-6.480884,-4.491770,11.687491,-0.082970,0.060723,0.000000,-0.171594,0.565067,0.000000
2.660000,0.990169,0.986631,-1.232946,2.690477,-0.247946,-0.444172,-0.730177,-0.934080,-1.166362,-6.308125,-1.971570,0.163506,-6.179207,-4.178843,12.456902,-0.084708,0.066425,0.000000,-0.175982,0.571100,0.000000
2.670000,1.017037,0.984105,-1.237446,2.682860,-0.257385,-0.455827,-0.793567,-0.954005,-1.164105,-6.368348,-2.011719,0.291988,-5.844610,-3.823121,13.284996,-0.086490,0.072187,0.000000,-0.180159,0.577037,-0.000000
2.680000,1.043826,0.981484,-1.242063,2.674606,-0.267026,-0.467454,-0.857544,-0.974314,-1.160523,-6.425017,-2.048033,0.429205,-5.471017,-3.421161,14.162139,-0.088312,0.078009,0.000000,-0.184088,0.582864,-0.000000
2.690000,1.070529,0.978765,-1.246795,2.665709,-0.276872,-0.479038,-0.922068,-0.994966,-1.155521,-6.477768,-2.080143,0.575231,-5.067666,-2.997088,14.997828,-0.090172,0.083891,0.000000,-0.187746,0.588571,-0.000000
2.700000,1.097140,0.975946,-1.251643,2.656164,-0.286925,-0.490564,-0.987099,-1.015917,-1.149018,-6.526371,-2.107975,0.729162,-4.644942,-2.564732,15.761390,-0.092067,0.089829,0.000000,-0.191127,0.594150,-0.000000
2.710000,1.123653,0.973026,-1.256606,2.645967,-0.297190,-0.502018,-1.052595,-1.037125,-1.140938,-6.570667,-2.131437,0.890459,-4.192973,-2.104804,16.511081,-0.093994,0.095825,0.000000,-0.194224,0.599603,-0.000000
2.720000,1.150060,0.970003,-1.261684,2.635112,-0.307668,-0.513383,-1.118512,-1.058546,-1.131209,-6.610230,-2.150071,1.059384,-3.679080,-1.578466,17.310772,-0.095951,0.101875,0.000000,-0.197007,0.604911,0.000000
2.730000,1.176355,0.966873,-1.266874,2.623597,-0.318361,-0.524642,-1.184800,-1.080127,-1.119750,-6.644248,-2.163007,1.236674,-3.101223,-0.986973,18.140024,-0.097935,0.107980,0.000000,-0.199412,0.610030,0.000000
2.740000,1.202531,0.963635,-1.272176,2.611416,-0.329270,-0.535778,-1.251397,-1.101806,-1.106475,-6.672255,-2.169810,1.422184,-2.500985,-0.380831,18.908404,-0.099940,0.114136,0.000000,-0.201406,0.614939,-0.000000
2.750000,1.228583,0.960288,-1.277590,2.598569,-0.340397,-0.546772,-1.318245,-1.123523,-1.091307,-6.694268,-2.170623,1.614843,-1.898723,0.215392,19.594674,-0.101963,0.120341,0.000000,-0.203000,0.619649,0.000000
2.760000,1.254503,0.956827,-1.283112,2.585052,-0.351741,-0.557604,-1.385283,-1.145218,-1.074178,-6.710229,-2.165502,1.814078,-1.262960,0.838394,20.254241,-0.104000,0.126594,0.000000,-0.204202,0.624169,0.000000
2.770000,1.280284,0.953253,-1.288742,2.570863,-0.363301,-0.568255,-1.452449,-1.166833,-1.055025,-6.719527,-2.153855,2.019927,-0.538665,1.552657,20.923138,-0.106047,0.132893,0.000000,-0.204963,0.628463,0.000000
2.780000,1.305920,0.949561,-1.294477,2.556003,-0.375078,-0.578705,-1.519673,-1.188295,-1.033780,-6.721002,-2.134449,2.232540,0.269512,2.351241,21.577724,-0.108100,0.139236,0.000000,-0.205183,0.632448,-0.000000
2.790000,1.331404,0.945751,-1.300316,2.540470,-0.387067,-0.588931,-1.586869,-1.209522,-1.010374,-6.714137,-2.106831,2.451482,1.089526,3.148057,22.164091,-0.110151,0.145618,0.000000,-0.204821,0.636092,-0.000000
2.800000,1.356730,0.941820,-1.306256,2.524265,-0.399268,-0.598912,-1.653956,-1.230432,-0.984750,-6.699212,-2.071488,2.675822,1.892504,3.912362,22.677829,-0.112196,0.152036,0.000000,-0.203916,0.639427,0.000000
2.810000,1.381889,0.937766,-1.312294,2.507391,-0.411676,-0.608626,-1.720854,-1.250952,-0.956858,-6.676287,-2.028583,2.905038,2.729469,4.703437,23.147220,-0.114230,0.158488,0.000000,-0.202481,0.642467,-0.000000
2.820000,1.406877,0.933587,-1.318428,2.489848,-0.424287,-0.618049,-1.787482,-1.271004,-0.926650,-6.644623,-1.977419,3.138767,3.673409,5.594720,23.564971,-0.116246,0.164971,0.000000,-0.200451,0.645156,-0.000000
2.830000,1.431686,0.929280,-1.324655,2.471641,-0.437096,-0.627159,-1.853746,-1.290500,-0.894083,-6.602819,-1.916689,3.376338,4.712912,6.570656,23.912954,-0.118239,0.171480,0.000000,-0.197704,0.647372,-0.000000
2.840000,1.456310,0.924845,-1.330971,2.452773,-0.450097,-0.635931,-1.919538,-1.309337,-0.859123,-6.550364,-1.846006,3.617026,5.750596,7.532343,24.193988,-0.120201,0.178011,0.000000,-0.194196,0.649070,-0.000000
2.850000,1.480742,0.920278,-1.337374,2.433250,-0.463283,-0.644341,-1.984753,-1.327420,-0.821742,-6.487807,-1.766042,3.860218,6.750412,8.445285,24.420936,-0.122123,0.184557,0.000000,-0.189979,0.650298,0.000000
2.860000,1.504975,0.915579,-1.343858,2.413078,-0.476645,-0.652366,-2.049294,-1.344658,-0.781918,-6.415356,-1.677100,4.105444,7.778847,9.375407,24.582702,-0.124000,0.191116,0.000000,-0.185068,0.651078,-0.000000
2.870000,1.529003,0.910745,-1.350421,2.392264,-0.490176,-0.659980,-2.113061,-1.360962,-0.739633,-6.332230,-1.578534,4.351872,8.922703,10.403227,24.630628,-0.125825,0.197681,0.000000,-0.179391,0.651329,0.000000
2.880000,1.552820,0.905775,-1.357058,2.370817,-0.503865,-0.667159,-2.175939,-1.376229,-0.694881,-6.236902,-1.469036,4.598057,10.164409,11.510081,24.557530,-0.127588,0.204248,0.000000,-0.172806,0.650890,-0.000000
2.890000,1.576420,0.900668,-1.363764,2.348745,-0.517700,-0.673877,-2.237799,-1.390343,-0.647672,-6.128942,-1.348332,4.843022,11.386055,12.584910,24.420636,-0.129281,0.210807,0.000000,-0.165265,0.649702,0.000000
2.900000,1.599795,0.895421,-1.370535,2.326061,-0.531671,-0.680112,-2.298518,-1.403196,-0.598021,-6.009181,-1.217338,5.086470,12.546535,13.587302,24.248163,-0.130894,0.217352,0.000000,-0.156831,0.647830,-0.000000
2.910000,1.622941,0.890035,-1.377366,2.302775,-0.545764,-0.685838,-2.357982,-1.414690,-0.545943,-5.878011,-1.076586,5.327986,13.723919,14.589493,23.992622,-0.132418,0.223877,0.000000,-0.147531,0.645294,-0.000000
2.920000,1.645851,0.884506,-1.384252,2.278901,-0.559965,-0.691031,-2.416078,-1.424727,-0.491461,-5.734703,-0.925548,5.566322,15.012305,15.682566,23.569663,-0.133845,0.230374,0.000000,-0.137283,0.641992,-0.000000
2.930000,1.668519,0.878835,-1.391187,2.254454,-0.574259,-0.695667,-2.472676,-1.433200,-0.434616,-5.577765,-0.762935,5.799379,16.388063,16.842583,22.982178,-0.135164,0.236834,0.000000,-0.125923,0.637728,-0.000000
2.940000,1.690940,0.873021,-1.398165,2.229448,-0.588629,-0.699723,-2.527633,-1.439986,-0.375473,-5.406941,-0.588696,6.025966,17.721078,17.941744,22.335957,-0.136363,0.243247,0.000000,-0.113404,0.632428,-0.000000
2.950000,1.713108,0.867063,-1.405181,2.203901,-0.603059,-0.703177,-2.580815,-1.444974,-0.314097,-5.223343,-0.404100,6.246098,18.971303,18.949150,21.681084,-0.137431,0.249602,0.000000,-0.099809,0.626167,0.000000
2.960000,1.735018,0.860960,-1.412229,2.177831,-0.617529,-0.706005,-2.632100,-1.448068,-0.250551,-5.027515,-0.209713,6.459587,20.222184,19.944904,20.938147,-0.138359,0.255890,0.000000,-0.085156,0.618960,-0.000000
2.970000,1.756665,0.854712,-1.419302,2.151259,-0.632020,-0.708188,-2.681365,-1.449169,-0.184905,-4.818900,-0.005202,6.664861,21.558237,20.984488,19.969624,-0.139134,0.262102,0.000000,-0.069357,0.610688,-0.000000
2.980000,1.778043,0.848319,-1.426393,2.124204,-0.646512,-0.709703,-2.728478,-1.448172,-0.117254,-4.596351,0.209977,6.858980,22.949845,22.036131,18.786811,-0.139745,0.268224,0.000000,-0.052288,0.601127,-0.000000
2.990000,1.799149,0.841782,-1.433496,2.096689,-0.660983,-0.710533,-2.773292,-1.444969,-0.047726,-4.359903,0.435521,7.040597,24.277558,23.019387,17.570237,-0.140179,0.274243,0.000000,-0.033914,0.590194,0.000000
3.000000,1.819977,0.835100,-1.440603,2.068738,-0.675412,-0.710658,-2.815676,-1.439462,0.023558,-4.110799,0.670364,7.210385,25.514214,23.921989,16.397896,-0.140423,0.280146,0.000000,-0.014292,0.577965,0.000000
3.010000,1.840523,0.828274,-1.447709,2.040376,-0.689773,-0.710062,-2.855508,-1.431562,0.096482,-3.849618,0.913960,7.368555,26.732500,24.788797,15.141803,-0.140464,0.285918,0.000000,0.006575,0.564441,0.000000
3.020000,1.860784,0.821304,-1.454805,2.011628,-0.704043,-0.708728,-2.892668,-1.421182,0.170929,-3.576149,1.166140,7.513221,27.977762,25.629377,13.603228,-0.140290,0.291547,0.000000,0.028747,0.549489,0.000000
3.030000,1.880756,0.814193,-1.461883,1.982522,-0.718196,-0.706643,-2.927031,-1.408239,0.246746,-3.290063,1.426548,7.640620,29.218534,26.419737,11.810265,-0.139888,0.297017,0.000000,0.052295,0.532898,0.000000
3.040000,1.900435,0.806940,-1.468937,1.953087,-0.732208,-0.703793,-2.958470,-1.392652,0.323741,-2.991779,1.694535,7.749426,30.386236,27.138287,10.029381,-0.139243,0.302310,0.000000,0.077234,0.514582,0.000000
3.050000,1.919818,0.799549,-1.475959,1.923353,-0.746049,-0.700168,-2.986867,-1.374348,0.401735,-2.682339,1.969314,7.841207,31.476049,27.789936,8.355461,-0.138341,0.307409,0.000000,0.103531,0.494597,-0.000000
3.060000,1.938902,0.792019,-1.482941,1.893350,-0.759694,-0.695758,-3.012116,-1.353265,0.480565,-2.362258,2.250334,7.916535,32.523209,28.378274,6.607146,-0.137170,0.312297,0.000000,0.131186,0.472922,-0.000000
3.070000,1.957685,0.784355,-1.489874,1.863111,-0.773115,-0.690557,-3.034112,-1.329342,0.560066,-2.031874,2.536879,7.973350,33.514989,28.870019,4.560015,-0.135716,0.316956,0.000000,0.160219,0.449433,0.000000
3.080000,1.976164,0.776557,-1.496752,1.832668,-0.786281,-0.684557,-3.052754,-1.302528,0.640032,-1.691958,2.827734,8.007735,34.427296,29.250008,2.265548,-0.133964,0.321368,0.000000,0.190624,0.423978,0.000000
3.090000,1.994338,0.768629,-1.503566,1.802056,-0.799165,-0.677756,-3.067951,-1.272787,0.720220,-1.343328,3.121879,8.018661,35.267739,29.552890,0.027980,-0.131901,0.325511,0.000000,0.222373,0.396492,0.000000
3.100000,2.012205,0.760574,-1.510307,1.771309,-0.811737,-0.670153,-3.079621,-1.240090,0.800406,-0.986603,3.418792,8.008295,36.057743,29.816163,-2.063622,-0.129514,0.329365,0.000000,0.255440,0.366993,-0.000000
3.110000,2.029764,0.752394,-1.516969,1.740463,-0.823967,-0.661748,-3.087683,-1.204411,0.880386,-0.622174,3.718203,7.977389,36.779514,30.004030,-4.208803,-0.126789,0.332911,0.000000,0.289844,0.335438,0.000000
3.120000,2.047015,0.744094,-1.523542,1.709555,-0.835825,-0.652545,-3.092064,-1.165726,0.959953,-0.251013,4.018873,7.924119,37.356006,29.997007,-6.601570,-0.123714,0.336126,0.000000,0.325534,0.301751,-0.000000
3.130000,2.063955,0.735678,-1.530019,1.678622,-0.847282,-0.642549,-3.092704,-1.124034,1.038869,0.124947,4.318143,7.845357,37.776519,29.787992,-9.175937,-0.120275,0.338989,0.000000,0.362316,0.265904,0.000000
3.140000,2.080587,0.727149,-1.536393,1.647701,-0.858306,-0.631768,-3.089565,-1.079363,1.116861,0.504518,4.614632,7.740600,38.134384,29.529893,-11.663896,-0.116464,0.341480,0.000000,0.400076,0.227888,0.000000
3.150000,2.096909,0.718512,-1.542655,1.616831,-0.868869,-0.620212,-3.082613,-1.031741,1.193681,0.887634,4.908741,7.612079,38.481323,29.297392,-13.995842,-0.112270,0.343575,0.000000,0.438843,0.187685,-0.000000
3.160000,2.112924,0.709771,-1.548797,1.586049,-0.878941,-0.607894,-3.071812,-0.981188,1.269102,1.274144,5.200580,7.460683,38.741652,28.975435,-16.339469,-0.107684,0.345254,0.000000,0.478629,0.145246,-0.000000
3.170000,2.128630,0.700933,-1.554813,1.555394,-0.888493,-0.594830,-3.057130,-0.927729,1.342894,1.662467,5.488249,7.285290,38.765895,28.363722,-18.831296,-0.102694,0.346493,0.000000,0.519239,0.100602,0.000000
3.180000,2.144031,0.692002,-1.560694,1.524906,-0.897495,-0.581036,-3.038563,-0.871423,1.414808,2.049462,5.767855,7.084057,38.560378,27.481562,-21.405524,-0.097296,0.347273,0.000000,0.560246,0.053935,-0.000000
3.190000,2.159129,0.682983,-1.566433,1.494623,-0.905921,-0.566534,-3.016141,-0.812372,1.484576,2.433675,6.037881,6.857179,38.317116,26.591452,-23.865042,-0.091486,0.347573,0.000000,0.601420,0.005345,-0.000000
3.200000,2.173924,0.673883,-1.572025,1.464583,-0.913743,-0.551345,-2.989890,-0.750666,1.551952,2.815804,6.299684,6.606757,38.114386,25.786027,-26.179458,-0.085264,0.347376,0.000000,0.642808,-0.045205,0.000000
3.210000,2.188420,0.664708,-1.577460,1.434825,-0.920934,-0.535495,-2.959825,-0.686379,1.616711,3.195963,6.553601,6.333590,37.812350,24.880995,-28.461626,-0.078627,0.346662,0.000000,0.684347,-0.097722,0.000000
3.220000,2.202620,0.655464,-1.582734,1.405387,-0.927470,-0.519010,-2.925970,-0.619594,1.678623,3.572051,6.797304,6.037524,37.206414,23.647920,-30.737226,-0.071575,0.345411,0.000000,0.725665,-0.151993,0.000000
3.230000,2.216528,0.646159,-1.587841,1.376306,-0.933326,-0.501922,-2.888384,-0.550433,1.737461,3.940091,7.026559,5.718846,36.326249,22.134061,-32.946032,-0.064112,0.343610,0.000000,0.766130,-0.207553,0.000000
3.240000,2.230147,0.636798,-1.592773,1.347619,-0.938479,-0.484261,-2.847168,-0.479063,1.793000,4.298576,7.239985,5.378603,35.439970,20.641782,-35.036453,-0.056251,0.341248,0.000000,0.805383,-0.264133,-0.000000
3.250000,2.243480,0.627389,-1.597526,1.319363,-0.942908,-0.466062,-2.802412,-0.405633,1.845033,4.648890,7.439395,5.018117,34.635452,19.263419,-37.040488,-0.048003,0.338315,0.000000,0.843412,-0.321751,-0.000000
3.260000,2.256534,0.617940,-1.602094,1.291571,-0.946592,-0.447361,-2.754191,-0.330275,1.893363,4.991285,7.625253,4.637794,33.726932,17.794792,-38.967205,-0.039382,0.334802,0.000000,0.880046,-0.380310,-0.000000
3.270000,2.269312,0.608457,-1.606473,1.264279,-0.949513,-0.428195,-2.702587,-0.253128,1.937789,5.323429,7.795291,4.238773,32.501146,16.020361,-40.683537,-0.030403,0.330700,0.000000,0.914763,-0.439367,0.000000
3.280000,2.281819,0.598949,-1.610658,1.237519,-0.951654,-0.408605,-2.647722,-0.174369,1.978138,5.641308,7.945660,3.824123,31.009830,14.002469,-42.152712,-0.021088,0.326008,0.000000,0.946821,-0.498170,-0.000000
3.290000,2.294062,0.589424,-1.614645,1.211324,-0.953000,-0.388632,-2.589761,-0.094215,2.014272,5.943625,8.075340,3.395718,29.535819,12.031358,-43.534829,-0.011469,0.320732,0.000000,0.975799,-0.556286,0.000000
3.300000,2.306046,0.579889,-1.618431,1.185724,-0.953539,-0.368319,-2.528850,-0.012862,2.046052,6.232025,8.186288,2.953426,28.154175,10.178683,-44.930332,-0.001575,0.314880,0.000000,1.001640,-0.613677,0.000000
3.310000,2.317777,0.570353,-1.622011,1.160747,-0.953258,-0.347711,-2.465120,0.069511,2.073340,6.506709,8.278914,2.497112,26.676627,8.256431,-46.204168,0.008560,0.308458,0.000000,1.024100,-0.670121,-0.000000
3.320000,2.329261,0.560824,-1.625385,1.136422,-0.952148,-0.326853,-2.398715,0.152716,2.095995,6.765557,8.351416,2.029343,24.935728,6.115840,-47.063717,0.018902,0.301478,0.000000,1.042666,-0.725000,0.000000
3.330000,2.340505,0.551310,-1.628549,1.112773,-0.950203,-0.305791,-2.329809,0.236539,2.113927,7.005424,8.401231,1.555837,22.991439,3.823356,-47.517642,0.029408,0.293957,0.000000,1.056759,-0.777445,0.000000
3.340000,2.351516,0.541820,-1.631501,1.089825,-0.947418,-0.284574,-2.258607,0.320741,2.127111,7.225386,8.427883,1.078990,21.070172,1.585123,-47.939723,0.040031,0.285924,0.000000,1.066093,-0.826975,-0.000000
3.350000,2.362302,0.532362,-1.634240,1.067601,-0.943788,-0.263249,-2.185301,0.405097,2.135507,7.426827,8.432933,0.597043,19.233462,-0.554659,-48.465558,0.050723,0.277407,0.000000,1.070651,-0.873533,0.000000
3.360000,2.372868,0.522944,-1.636766,1.046119,-0.939316,-0.241864,-2.110070,0.489400,2.139052,7.610055,8.416790,0.109679,17.337158,-2.720728,-48.822069,0.061437,0.268434,0.000000,1.070308,-0.916888,-0.000000
3.370000,2.383224,0.513576,-1.639077,1.025399,-0.934000,-0.220468,-2.033100,0.573433,2.137700,7.773570,8.378519,-0.379398,15.250575,-4.989197,-48.656807,0.072122,0.259039,0.000000,1.064842,-0.956471,-0.000000
3.380000,2.393376,0.504264,-1.641175,1.005457,-0.927847,-0.199110,-1.954599,0.656970,2.131464,7.915067,8.317006,-0.863457,13.031644,-7.302149,-48.026683,0.082726,0.249260,0.000000,1.054105,-0.991555,0.000000
3.390000,2.403333,0.495019,-1.643059,0.986308,-0.920861,-0.177839,-1.874799,0.739773,2.120431,8.034203,8.232476,-1.339932,10.863879,-9.544996,-47.387371,0.093196,0.239145,0.000000,1.038166,-1.021843,-0.000000
3.400000,2.413102,0.485847,-1.644732,0.967961,-0.913051,-0.156701,-1.793915,0.821619,2.104666,8.132344,8.126106,-1.811205,8.745415,-11.736900,-46.909792,0.103482,0.228740,0.000000,1.017217,-1.047430,0.000000
3.410000,2.422692,0.476758,-1.646193,0.950429,-0.904429,-0.135745,-1.712152,0.902295,2.084207,8.209111,7.997738,-2.278128,6.569409,-13.933923,-46.273795,0.113533,0.218090,0.000000,0.991334,-1.068184,0.000000
3.420000,2.432111,0.467759,-1.647447,0.933718,-0.895006,-0.115017,-1.629733,0.981574,2.059103,8.263732,7.847428,-2.736680,4.392472,-16.035392,-45.043407,0.123301,0.207245,0.000000,0.960735,-1.083829,-0.000000
3.430000,2.441367,0.458858,-1.648494,0.917835,-0.884797,-0.094563,-1.546877,1.059244,2.029473,8.296961,7.677030,-3.178996,2.268884,-17.995846,-43.301211,0.132742,0.196255,0.000000,0.925997,-1.094259,-0.000000
3.440000,2.450468,0.450063,-1.649338,0.902781,-0.873821,-0.074428,-1.463793,1.135115,1.995523,8.309110,7.487511,-3.602705,0.129960,-19.938266,-41.626394,0.141816,0.185172,0.000000,0.887567,-1.099534,-0.000000
3.450000,2.459422,0.441381,-1.649982,0.888559,-0.862095,-0.054653,-1.380695,1.208994,1.957419,8.299560,7.278265,-4.011524,-2.053346,-21.933141,-40.171635,0.150489,0.174048,0.000000,0.845610,-1.099783,-0.000000
3.460000,2.468239,0.432821,-1.650431,0.875167,-0.849641,-0.035279,-1.297802,1.280680,1.915293,8.268043,7.048848,-4.406137,-4.216785,-23.875038,-38.547351,0.158725,0.162932,0.000000,0.800370,-1.095124,0.000000
3.470000,2.476926,0.424388,-1.650688,0.862603,-0.836481,-0.016347,-1.215334,1.349971,1.869297,8.215224,6.800764,-4.782471,-6.276784,-25.561909,-36.415175,0.166494,0.151873,0.000000,0.752441,-1.085736,-0.000000
3.480000,2.485491,0.416091,-1.650758,0.850860,-0.822641,0.002107,-1.133498,1.416695,1.819643,8.142507,6.537610,-5.134441,-8.238455,-27.003288,-33.900933,0.173773,0.140918,0.000000,0.702723,-1.071906,-0.000000
3.490000,2.493943,0.407936,-1.650646,0.839933,-0.808147,0.020046,-1.052484,1.480723,1.766608,8.050455,6.260698,-5.460490,-10.193939,-28.451439,-31.455803,0.180548,0.130112,0.000000,0.651740,-1.053951,0.000000
3.500000,2.502290,0.399928,-1.650357,0.829811,-0.793027,0.037439,-0.972489,1.541909,1.710434,7.938629,5.968581,-5.763557,-12.171371,-29.985031,-29.172230,0.186808,0.119495,0.000000,0.599566,-1.032150,-0.000000
3.510000,2.510539,0.392075,-1.649897,0.820483,-0.777309,0.054255,-0.893712,1.600095,1.651337,7.807028,5.660997,-6.043934,-14.094299,-31.417411,-26.762233,0.192541,0.109106,0.000000,0.546450,-1.006786,-0.000000
3.520000,2.518699,0.384382,-1.649272,0.811936,-0.761025,0.070466,-0.816348,1.655129,1.589555,7.656743,5.340233,-6.298802,-15.866780,-32.538851,-24.043567,0.197739,0.098983,0.000000,0.492988,-0.978239,0.000000
3.530000,2.526778,0.376855,-1.648488,0.804156,-0.744207,0.086046,-0.740577,1.706899,1.525361,7.489692,5.010220,-6.524806,-17.493946,-33.389138,-21.123151,0.202404,0.089155,0.000000,0.439943,-0.946989,-0.000000
3.540000,2.534782,0.369498,-1.647551,0.797125,-0.726887,0.100973,-0.666554,1.755334,1.459059,7.306864,4.672450,-6.721265,-19.088268,-34.231299,-18.256036,0.206542,0.079649,0.000000,0.387686,-0.913435,0.000000
3.550000,2.542720,0.362317,-1.646468,0.790825,-0.709100,0.115227,-0.594439,1.800348,1.390935,7.107927,4.325594,-6.889926,-20.719318,-35.157428,-15.490685,0.210161,0.070489,0.000000,0.336165,-0.877824,0.000000
3.560000,2.550599,0.355316,-1.645246,0.785236,-0.690880,0.128791,-0.524396,1.841846,1.321260,6.892477,3.969302,-7.031078,-22.296363,-35.979048,-12.679838,0.213269,0.061697,0.000000,0.285447,-0.840361,0.000000
3.570000,2.558425,0.348499,-1.643892,0.780337,-0.672263,0.141652,-0.456590,1.879734,1.250314,6.662000,3.606013,-7.143523,-23.612365,-36.450621,-9.751794,0.215874,0.053291,0.000000,0.235922,-0.801438,0.000000
3.580000,2.566206,0.341871,-1.642413,0.776104,-0.653285,0.153798,-0.391156,1.913966,1.178390,6.420230,3.240289,-7.226114,-24.681656,-36.619821,-6.782565,0.217992,0.045286,0.000000,0.188169,-0.761677,0.000000
3.590000,2.573947,0.335434,-1.640817,0.772514,-0.633984,0.165220,-0.328185,1.944540,1.105791,6.168366,2.873617,-7.279174,-25.771728,-36.805822,-3.890920,0.219642,0.037686,0.000000,0.142340,-0.721388,-0.000000
3.600000,2.581656,0.329191,-1.639109,0.769541,-0.614395,0.175914,-0.267788,1.971438,1.032806,5.904796,2.504173,-7.303933,-26.926570,-37.079156,-1.042205,0.220843,0.030500,0.000000,0.098179,-0.680543,0.000000
3.610000,2.589338,0.323146,-1.637298,0.767158,-0.594555,0.185876,-0.210089,1.994624,0.959713,5.629835,2.132034,-7.300019,-27.958323,-37.221906,1.811059,0.221610,0.023734,0.000000,0.055667,-0.639303,-0.000000
3.620000,2.596999,0.317300,-1.635391,0.765339,-0.574502,0.195108,-0.155192,2.014079,0.886806,5.345629,1.759735,-7.267711,-28.775976,-37.076318,4.505467,0.221960,0.017390,0.000000,0.015011,-0.598012,-0.000000
3.630000,2.604645,0.311656,-1.633396,0.764054,-0.554273,0.203612,-0.103177,2.029818,0.814359,5.054315,1.390507,-7.209909,-29.433163,-36.711424,6.983752,0.221914,0.011469,0.000000,-0.023595,-0.556979,-0.000000
3.640000,2.612280,0.306214,-1.631319,0.763275,-0.533906,0.211395,-0.054105,2.041889,0.742608,4.756966,1.025506,-7.128036,-30.034991,-36.329643,9.443630,0.221492,0.005967,0.000000,-0.060165,-0.516365,0.000000
3.650000,2.619910,0.300978,-1.629168,0.762972,-0.513436,0.218464,-0.008037,2.050328,0.671798,4.453616,0.663915,-7.021037,-30.625035,-35.967675,11.997557,0.220714,0.000880,0.000000,-0.094862,-0.476199,0.000000
3.660000,2.627540,0.295946,-1.626950,0.763115,-0.492899,0.224831,0.034967,2.055167,0.602187,4.144465,0.306153,-6.888085,-31.128686,-35.493932,14.477977,0.219597,-0.003798,0.000000,-0.127733,-0.436515,0.000000
3.670000,2.635173,0.291120,-1.624672,0.763671,-0.472332,0.230508,0.074852,2.056452,0.534036,3.831042,-0.045964,-6.731477,-31.412605,-34.827992,16.559232,0.218161,-0.008069,0.000000,-0.158759,-0.397475,0.000000
3.680000,2.642813,0.286499,-1.622340,0.764612,-0.451770,0.235512,0.111588,2.054248,0.467557,3.516213,-0.390407,-6.556901,-31.488725,-34.014283,18.251310,0.216424,-0.011944,0.000000,-0.187977,-0.359351,0.000000
3.690000,2.650465,0.282084,-1.619961,0.765903,-0.431247,0.239859,0.145176,2.048643,0.402898,3.201267,-0.726250,-6.366451,-31.535743,-33.161656,19.964628,0.214403,-0.015431,0.000000,-0.215453,-0.322230,-0.000000
3.700000,2.658131,0.277874,-1.617543,0.767515,-0.410797,0.243570,0.175613,2.039723,0.340228,2.885498,-1.053640,-6.157608,-31.630571,-32.304636,21.869143,0.212116,-0.018542,0.000000,-0.241256,-0.285990,-0.000000
3.710000,2.665815,0.273868,-1.615090,0.769415,-0.390453,0.246664,0.202886,2.027571,0.279746,2.568656,-1.372342,-5.929068,-31.649052,-31.376773,23.659727,0.209579,-0.021285,0.000000,-0.265445,-0.250561,-0.000000
3.720000,2.673519,0.270065,-1.612609,0.771573,-0.370246,0.249165,0.226986,2.012276,0.221647,2.252517,-1.681176,-5.684413,-31.401557,-30.301044,24.878524,0.206808,-0.023669,0.000000,-0.288085,-0.216060,0.000000
3.730000,2.681246,0.266463,-1.610107,0.773955,-0.350207,0.251097,0.247936,1.993947,0.166058,1.940625,-1.978363,-5.431497,-30.922812,-29.104944,25.588999,0.203818,-0.025703,0.000000,-0.309260,-0.182762,-0.000000
3.740000,2.688998,0.263061,-1.607587,0.776532,-0.330367,0.252486,0.265799,1.972709,0.113017,1.634061,-2.263275,-5.172633,-30.468833,-27.900748,26.383438,0.200623,-0.027404,0.000000,-0.329039,-0.150691,0.000000
3.750000,2.696777,0.259856,-1.605057,0.779271,-0.310753,0.253357,0.280618,1.948682,0.062605,1.331248,-2.536378,-4.903829,-30.092693,-26.699274,27.425901,0.197237,-0.028781,0.000000,-0.347465,-0.119625,0.000000
3.760000,2.704584,0.256846,-1.602520,0.782144,-0.291393,0.253738,0.292424,1.921981,0.014941,1.032207,-2.797260,-4.624115,-29.625629,-25.435327,28.302575,0.193674,-0.029845,0.000000,-0.364553,-0.089500,0.000000
3.770000,2.712420,0.254028,-1.599982,0.785120,-0.272314,0.253656,0.301262,1.892736,-0.029877,0.738736,-3.045085,-4.337777,-28.967364,-24.114751,28.618144,0.189946,-0.030607,0.000000,-0.380377,-0.060415,0.000000
3.780000,2.720286,0.251400,-1.597447,0.788169,-0.253539,0.253140,0.307198,1.861080,-0.071815,0.452860,-3.279555,-4.051753,-28.183455,-22.771757,28.491396,0.186065,-0.031077,0.000000,-0.395094,-0.032479,0.000000
3.790000,2.728183,0.248957,-1.594919,0.791264,-0.235092,0.252220,0.310319,1.827145,-0.110912,0.175067,-3.500520,-3.767949,-27.406259,-21.405703,28.432496,0.182043,-0.031269,0.000000,-0.408766,-0.005666,-0.000000
3.800000,2.736112,0.246698,-1.592403,0.794375,-0.216996,0.250922,0.310700,1.791069,-0.147174,-0.095265,-3.707669,-3.483103,-26.613823,-19.996258,28.553815,0.177889,-0.031193,0.000000,-0.421338,0.020140,0.000000
3.810000,2.744071,0.244617,-1.589901,0.797478,-0.199271,0.249276,0.308414,1.752992,-0.180574,-0.357210,-3.900445,-3.196873,-25.730067,-18.557002,28.513136,0.173615,-0.030861,0.000000,-0.432788,0.044904,0.000000
3.820000,2.752061,0.242712,-1.587417,0.800544,-0.181936,0.247311,0.303556,1.713060,-0.211111,-0.609867,-4.078809,-2.912840,-24.843892,-17.159535,28.053899,0.169232,-0.030282,0.000000,-0.443201,0.068605,0.000000
3.830000,2.760082,0.240979,-1.584955,0.803549,-0.165009,0.245054,0.296216,1.671416,-0.238831,-0.854088,-4.243636,-2.635795,-23.994171,-15.813618,27.287710,0.164750,-0.029469,0.000000,-0.452758,0.091391,-0.000000
3.840000,2.768132,0.239412,-1.582516,0.806468,-0.148508,0.242534,0.286474,1.628188,-0.263827,-1.089750,-4.395082,-2.367086,-23.063164,-14.434229,26.551557,0.160176,-0.028430,0.000000,-0.461500,0.113297,-0.000000
3.850000,2.776211,0.238009,-1.580104,0.809278,-0.132446,0.239777,0.274421,1.583514,-0.286173,-1.315351,-4.532320,-2.104764,-22.026010,-12.988334,25.909909,0.155519,-0.027174,0.000000,-0.469319,0.134209,0.000000
3.860000,2.784318,0.236763,-1.577721,0.811957,-0.116837,0.236810,0.260167,1.537541,-0.305923,-1.530270,-4.654848,-1.848888,-20.972966,-11.545043,25.148210,0.150789,-0.025713,0.000000,-0.476167,0.154102,0.000000
3.870000,2.792450,0.235672,-1.575368,0.814482,-0.101695,0.233659,0.243816,1.490417,-0.323151,-1.734810,-4.763221,-1.601800,-19.956064,-10.201794,24.136130,0.145995,-0.024057,0.000000,-0.482128,0.173043,0.000000
3.880000,2.800607,0.234729,-1.573047,0.816833,-0.087029,0.230347,0.225471,1.442277,-0.337959,-1.929392,-4.858884,-1.366165,-18.953626,-8.948253,22.959267,0.141145,-0.022215,0.000000,-0.487366,0.191102,-0.000000
3.890000,2.808787,0.233931,-1.570761,0.818991,-0.072849,0.226900,0.205228,1.393239,-0.350474,-2.113883,-4.942186,-1.142614,-17.911651,-7.666242,21.798156,0.136246,-0.020196,0.000000,-0.491904,0.208287,-0.000000
3.900000,2.816987,0.233272,-1.568509,0.820937,-0.059164,0.223338,0.183193,1.343433,-0.360811,-2.287625,-5.012209,-0.930202,-16.815778,-6.322305,20.643575,0.131306,-0.018010,0.000000,-0.495619,0.224545,-0.000000
3.910000,2.825206,0.232748,-1.566294,0.822655,-0.045981,0.219684,0.159476,1.292995,-0.369078,-2.450198,-5.068632,-0.729743,-15.709529,-5.004924,19.395301,0.126333,-0.015666,0.000000,-0.498468,0.239846,0.000000
3.920000,2.833440,0.232353,-1.564116,0.824127,-0.033304,0.215956,0.134189,1.242060,-0.375406,-2.601815,-5.112308,-0.542296,-14.649037,-3.808217,18.127797,0.121336,-0.013174,0.000000,-0.500520,0.254220,-0.000000
3.930000,2.841688,0.232082,-1.561975,0.825339,-0.021139,0.212175,0.107439,1.190749,-0.379924,-2.743179,-5.144797,-0.367187,-13.631817,-2.713787,16.900360,0.116322,-0.010543,0.000000,-0.501888,0.267733,0.000000
3.940000,2.849947,0.231930,-1.559872,0.826276,-0.009489,0.208358,0.079325,1.139164,-0.382750,-2.874452,-5.166583,-0.204289,-12.591069,-1.606261,15.623218,0.111297,-0.007782,0.000000,-0.502590,0.280403,0.000000
3.950000,2.858214,0.231892,-1.557808,0.826925,0.001644,0.204520,0.049950,1.087417,-0.384010,-2.995001,-5.176922,-0.054723,-11.481657,-0.446839,14.235017,0.106269,-0.004900,0.000000,-0.502534,0.292162,-0.000000
3.960000,2.866485,0.231963,-1.555782,0.827275,0.012259,0.200678,0.019425,1.035626,-0.383844,-3.104085,-5.175520,0.080412,-10.356992,0.680230,12.819596,0.101246,-0.001906,0.000000,-0.501671,0.302930,0.000000
3.970000,2.874759,0.232137,-1.553794,0.827314,0.022356,0.196844,-0.012131,0.983907,-0.382401,-3.202140,-5.163317,0.201669,-9.349291,1.667419,11.556020,0.096235,0.001190,0.000000,-0.500051,0.312739,-0.000000
3.980000,2.883032,0.232410,-1.551845,0.827032,0.031937,0.193030,-0.044617,0.932360,-0.379811,-3.291071,-5.142172,0.311532,-8.447444,2.535148,10.442033,0.091244,0.004379,0.000000,-0.497798,0.321760,0.000000
3.990000,2.891300,0.232776,-1.549934,0.826421,0.041004,0.189247,-0.077953,0.881064,-0.376171,-3.371089,-5.112614,0.410510,-7.479363,3.420664,9.256997,0.086279,0.007653,0.000000,-0.494933,0.330005,0.000000
4.000000,2.899560,0.233230,-1.548060,0.825473,0.049559,0.185506,-0.112039,0.830107,-0.371600,-3.440658,-5.073758,0.496672,-6.435736,4.351729,7.928272,0.081345,0.011004,0.000000,-0.491357,0.337306,0.000000
4.010000,2.907809,0.233767,-1.546224,0.824180,0.057606,0.181815,-0.146766,0.779588,-0.366237,-3.499804,-5.025580,0.569075,-5.434807,5.233087,6.622729,0.076451,0.014421,0.000000,-0.487042,0.343647,-0.000000
4.020000,2.916044,0.234382,-1.544424,0.822538,0.065150,0.178182,-0.182035,0.729596,-0.360219,-3.549354,-4.969097,0.629127,-4.477110,6.000432,5.539991,0.071604,0.017897,0.000000,-0.482047,0.349093,-0.000000
4.030000,2.924260,0.235070,-1.542660,0.820540,0.072198,0.174611,-0.217753,0.680206,-0.353655,-3.589346,-4.905571,0.679875,-3.521971,6.685116,4.645378,0.066810,0.021421,0.000000,-0.476447,0.353635,0.000000
4.040000,2.932455,0.235826,-1.540932,0.818183,0.078754,0.171108,-0.253822,0.631484,-0.346621,-3.619793,-4.835394,0.722034,-2.581880,7.366185,3.691294,0.062075,0.024986,0.000000,-0.470255,0.357261,0.000000
4.050000,2.940624,0.236645,-1.539238,0.815463,0.084827,0.167678,-0.290149,0.583499,-0.339214,-3.640984,-4.758247,0.753701,-1.668698,8.040397,2.608211,0.057405,0.028581,0.000000,-0.463432,0.359980,-0.000000
4.060000,2.948764,0.237523,-1.537578,0.812380,0.090424,0.164324,-0.326642,0.536319,-0.331547,-3.653167,-4.674586,0.774198,-0.773608,8.656137,1.574806,0.052807,0.032197,0.000000,-0.456003,0.361796,0.000000
4.070000,2.956871,0.238454,-1.535951,0.808930,0.095554,0.161048,-0.363212,0.490007,-0.323730,-3.656456,-4.585125,0.785197,0.115227,9.227867,0.776550,0.048285,0.035827,0.000000,-0.448010,0.362708,0.000000
4.080000,2.964942,0.239434,-1.534357,0.805115,0.100225,0.157850,-0.399771,0.444617,-0.315843,-3.650863,-4.490029,0.789729,0.993838,9.773560,0.167832,0.043847,0.039460,0.000000,-0.439439,0.362713,0.000000
4.090000,2.972974,0.240458,-1.532794,0.800935,0.104446,0.154731,-0.436230,0.400206,-0.307936,-3.636579,-4.389654,0.788554,1.844518,10.269615,-0.484671,0.039497,0.043088,0.000000,-0.430311,0.361824,-0.000000
4.100000,2.980961,0.241523,-1.531262,0.796391,0.108229,0.151691,-0.472503,0.356824,-0.300072,-3.613972,-4.284637,0.780036,2.664997,10.719090,-1.233680,0.035241,0.046702,0.000000,-0.420687,0.360058,0.000000
4.110000,2.988901,0.242623,-1.529760,0.791485,0.111583,0.148729,-0.508509,0.314514,-0.292335,-3.583279,-4.175272,0.763880,3.465504,11.138576,-1.916722,0.031083,0.050293,0.000000,-0.410587,0.357425,-0.000000
4.120000,2.996791,0.243754,-1.528288,0.786221,0.114519,0.145844,-0.544168,0.273318,-0.284795,-3.544662,-4.061865,0.741702,4.246350,11.507801,-2.402489,0.027029,0.053854,0.000000,-0.400026,0.353940,0.000000
4.130000,3.004626,0.244913,-1.526844,0.780602,0.117049,0.143033,-0.579402,0.233276,-0.277501,-3.498352,-3.945116,0.715831,5.002190,11.819668,-2.738061,0.023083,0.057375,0.000000,-0.389064,0.349630,0.000000
4.140000,3.012403,0.246095,-1.525427,0.774633,0.119184,0.140294,-0.614135,0.194416,-0.270478,-3.444619,-3.825472,0.686940,5.731011,12.104762,-3.089203,0.019248,0.060848,0.000000,-0.377743,0.344521,0.000000
4.150000,3.020119,0.247297,-1.524038,0.768319,0.120937,0.137624,-0.648295,0.156767,-0.263762,-3.383732,-3.703020,0.654046,6.435017,12.374140,-3.492914,0.015529,0.064266,0.000000,-0.366074,0.338630,0.000000
4.160000,3.027769,0.248514,-1.522675,0.761667,0.122320,0.135019,-0.681810,0.120356,-0.257397,-3.315918,-3.577989,0.617082,7.113455,12.607117,-3.837182,0.011927,0.067621,0.000000,-0.354078,0.331977,0.000000
4.170000,3.035352,0.249743,-1.521337,0.754683,0.123344,0.132476,-0.714613,0.085207,-0.251420,-3.241463,-3.450878,0.577303,7.756794,12.782717,-4.031290,0.008447,0.070906,0.000000,-0.341805,0.324594,0.000000
4.180000,3.042863,0.250981,-1.520025,0.747374,0.124024,0.129991,-0.746639,0.051338,-0.245851,-3.160782,-3.322335,0.536456,8.362267,12.907520,-4.110943,0.005091,0.074113,0.000000,-0.329321,0.316535,-0.000000
4.190000,3.050299,0.252224,-1.518738,0.739750,0.124371,0.127559,-0.777829,0.018760,-0.240691,-3.074218,-3.192728,0.495084,8.940899,13.010279,-4.194419,0.001861,0.077237,0.000000,-0.316667,0.307839,0.000000
4.200000,3.057658,0.253468,-1.517474,0.731818,0.124399,0.125177,-0.808124,-0.012516,-0.235949,-2.981964,-3.062129,0.452568,9.502031,13.099124,-4.301557,-0.001242,0.080270,0.000000,-0.303857,0.298524,0.000000
4.210000,3.064936,0.254712,-1.516234,0.723587,0.124121,0.122840,-0.837468,-0.042482,-0.231640,-2.884177,-2.930745,0.409053,10.035795,13.155772,-4.355928,-0.004216,0.083207,0.000000,-0.290915,0.288609,0.000000
4.220000,3.072130,0.255951,-1.515017,0.715069,0.123549,0.120544,-0.865807,-0.071131,-0.227768,-2.781248,-2.799014,0.365449,10.514084,13.163266,-4.318475,-0.007060,0.086042,0.000000,-0.277890,0.278142,0.000000
4.230000,3.079237,0.257183,-1.513823,0.706271,0.122698,0.118284,-0.893093,-0.098463,-0.224331,-2.673895,-2.667480,0.322683,10.936805,13.128249,-4.217911,-0.009774,0.088770,0.000000,-0.264845,0.267207,0.000000
4.240000,3.086255,0.258405,-1.512651,0.697207,0.121580,0.116057,-0.919285,-0.124481,-0.221315,-2.562512,-2.536449,0.281091,11.340294,13.074820,-4.106835,-0.012357,0.091386,0.000000,-0.251816,0.255851,-0.000000
4.250000,3.093181,0.259614,-1.511502,0.687886,0.120209,0.113858,-0.944343,-0.149192,-0.218709,-2.447089,-2.405984,0.240547,11.737153,13.008426,-3.987754,-0.014810,0.093887,0.000000,-0.238815,0.244076,0.000000
4.260000,3.100013,0.260809,-1.510374,0.678320,0.118596,0.111683,-0.968227,-0.172601,-0.216504,-2.327769,-2.276280,0.201336,12.100968,12.914626,-3.830887,-0.017133,0.096268,0.000000,-0.225869,0.231904,-0.000000
4.270000,3.106748,0.261986,-1.509268,0.668521,0.116757,0.109528,-0.990898,-0.194717,-0.214682,-2.205070,-2.147691,0.163929,12.399965,12.784565,-3.640342,-0.019327,0.098526,0.000000,-0.213019,0.219395,-0.000000
4.280000,3.113383,0.263144,-1.508184,0.658502,0.114702,0.107389,-1.012328,-0.215554,-0.213225,-2.079770,-2.020589,0.128529,12.640407,12.624430,-3.431773,-0.021393,0.100657,0.000000,-0.200306,0.206635,-0.000000
4.290000,3.119918,0.264280,-1.507121,0.648275,0.112446,0.105264,-1.032494,-0.235129,-0.212112,-1.952262,-1.895202,0.095293,12.863150,12.448003,-3.203356,-0.023333,0.102659,0.000000,-0.187760,0.193666,-0.000000
4.300000,3.126349,0.265393,-1.506078,0.637852,0.109999,0.103147,-1.051373,-0.253458,-0.211319,-1.822507,-1.771629,0.064462,13.080096,12.258198,-2.947325,-0.025149,0.104531,0.000000,-0.175395,0.180493,0.000000
4.310000,3.132675,0.266480,-1.505058,0.627247,0.107376,0.101037,-1.068944,-0.270562,-0.210823,-1.690660,-1.650038,0.036347,13.262850,12.047999,-2.671084,-0.026841,0.106270,0.000000,-0.163233,0.167139,0.000000
4.320000,3.138894,0.267540,-1.504058,0.616473,0.104588,0.098931,-1.085187,-0.286459,-0.210592,-1.557250,-1.530669,0.011040,13.382059,11.814794,-2.403182,-0.028413,0.107875,0.000000,-0.151300,0.153659,-0.000000
4.330000,3.145004,0.268572,-1.503079,0.605543,0.101647,0.096825,-1.100089,-0.301175,-0.210602,-1.423019,-1.413743,-0.011717,13.445537,11.563313,-2.147744,-0.029867,0.109345,0.000000,-0.139622,0.140129,-0.000000
4.340000,3.151005,0.269573,-1.502121,0.594471,0.098565,0.094719,-1.113647,-0.314734,-0.210827,-1.288339,-1.299403,-0.031915,13.491695,11.299527,-1.872193,-0.031206,0.110679,0.000000,-0.128213,0.126586,0.000000
4.350000,3.156894,0.270543,-1.501185,0.583270,0.095352,0.092609,-1.125856,-0.327163,-0.211240,-1.153185,-1.187752,-0.049161,13.531749,11.020667,-1.562126,-0.032431,0.111878,0.000000,-0.117088,0.113036,0.000000
4.360000,3.162670,0.271480,-1.500269,0.571954,0.092021,0.090494,-1.136711,-0.338489,-0.211810,-1.017704,-1.078989,-0.063157,13.539897,10.725485,-1.245200,-0.033547,0.112941,0.000000,-0.106268,0.099497,-0.000000
4.370000,3.168333,0.272384,-1.499375,0.560536,0.088583,0.088373,-1.146210,-0.348743,-0.212503,-0.882387,-0.973242,-0.074065,13.489557,10.427297,-0.966292,-0.034557,0.113869,0.000000,-0.095767,0.086018,-0.000000
4.380000,3.173881,0.273252,-1.498502,0.549030,0.085047,0.086244,-1.154358,-0.357954,-0.213291,-0.747913,-0.870443,-0.082483,13.388953,10.129091,-0.722612,-0.035463,0.114662,0.000000,-0.085575,0.072660,0.000000
4.390000,3.179313,0.274085,-1.497650,0.537449,0.081424,0.084107,-1.161168,-0.366152,-0.214153,-0.614608,-0.770661,-0.088517,13.273830,9.815437,-0.459741,-0.036268,0.115323,0.000000,-0.075700,0.059452,0.000000
4.400000,3.184630,0.274881,-1.496819,0.525807,0.077724,0.081961,-1.166651,-0.373367,-0.215062,-0.482437,-0.674135,-0.091678,13.150983,9.483960,-0.160539,-0.036977,0.115852,0.000000,-0.066165,0.046398,0.000000
4.410000,3.189829,0.275639,-1.496011,0.514116,0.073956,0.079806,-1.170817,-0.379634,-0.215986,-0.351588,-0.580981,-0.091728,12.997504,9.147474,0.133718,-0.037592,0.116252,0.000000,-0.056984,0.033518,0.000000
4.420000,3.194912,0.276360,-1.495223,0.502390,0.070131,0.077641,-1.173682,-0.384987,-0.216896,-0.222486,-0.491185,-0.089003,12.800919,8.813751,0.374577,-0.038117,0.116523,0.000000,-0.048153,0.020849,0.000000
4.430000,3.199877,0.277042,-1.494458,0.490642,0.066257,0.075468,-1.175267,-0.389458,-0.217766,-0.095570,-0.404706,-0.084236,12.569763,8.480871,0.570547,-0.038555,0.116669,0.000000,-0.039663,0.008424,-0.000000
4.440000,3.204725,0.277685,-1.493714,0.478885,0.062342,0.073286,-1.175594,-0.393081,-0.218581,0.028909,-0.321568,-0.077592,12.321356,8.141881,0.781269,-0.038910,0.116692,0.000000,-0.031515,-0.003735,-0.000000
4.450000,3.209455,0.278289,-1.492992,0.467130,0.058395,0.071096,-1.174688,-0.395889,-0.219318,0.150857,-0.241869,-0.068611,12.058581,7.792685,1.022963,-0.039185,0.116594,0.000000,-0.023720,-0.015616,0.000000
4.460000,3.214067,0.278853,-1.492292,0.455391,0.054424,0.068899,-1.172577,-0.397918,-0.219953,0.270080,-0.165714,-0.057133,11.771608,7.440183,1.252315,-0.039384,0.116379,0.000000,-0.016286,-0.027200,-0.000000
4.470000,3.218563,0.279377,-1.491614,0.443679,0.050437,0.066697,-1.169287,-0.399204,-0.220461,0.386289,-0.093065,-0.043564,11.456593,7.100525,1.425422,-0.039511,0.116050,0.000000,-0.009207,-0.038465,-0.000000
4.480000,3.222941,0.279861,-1.490958,0.432005,0.046440,0.064490,-1.164851,-0.399780,-0.220824,0.499212,-0.023704,-0.028625,11.118338,6.774325,1.553039,-0.039568,0.115609,0.000000,-0.002458,-0.049394,0.000000
4.490000,3.227203,0.280306,-1.490324,0.420382,0.042441,0.062280,-1.159303,-0.399678,-0.221033,0.608656,0.042422,-0.012504,10.763775,6.442086,1.689880,-0.039560,0.115061,0.000000,0.003970,-0.059973,-0.000000
4.500000,3.231349,0.280710,-1.489713,0.408819,0.038446,0.060069,-1.152678,-0.398931,-0.221074,0.714488,0.105138,0.005173,10.393658,6.095544,1.849365,-0.039489,0.114409,0.000000,0.010058,-0.070186,-0.000000
4.510000,3.235379,0.281075,-1.489123,0.397328,0.034462,0.057859,-1.145013,-0.397575,-0.220930,0.816529,0.164332,0.024484,10.005379,5.750029,1.992982,-0.039359,0.113656,0.000000,0.015796,-0.080017,-0.000000
4.520000,3.239295,0.281400,-1.488555,0.385919,0.030495,0.055651,-1.136347,-0.395644,-0.220585,0.914595,0.220139,0.045033,9.601074,5.429286,2.085939,-0.039173,0.112807,0.000000,0.021201,-0.089454,-0.000000
4.530000,3.243098,0.281685,-1.488010,0.374601,0.026549,0.053447,-1.126721,-0.393172,-0.220029,1.008551,0.272918,0.066202,9.183689,5.130370,2.139050,-0.038935,0.111866,0.000000,0.026312,-0.098493,-0.000000
4.540000,3.246787,0.281931,-1.487486,0.363385,0.022631,0.051250,-1.116176,-0.390186,-0.219261,1.098269,0.322746,0.087814,8.752585,4.823584,2.196267,-0.038647,0.110836,0.000000,0.031137,-0.107124,-0.000000
4.550000,3.250365,0.282137,-1.486985,0.352278,0.018746,0.049062,-1.104756,-0.386717,-0.218273,1.183603,0.369390,0.110128,8.305578,4.503660,2.266448,-0.038312,0.109722,0.000000,0.035653,-0.115331,0.000000
4.560000,3.253833,0.282305,-1.486505,0.341290,0.014897,0.046885,-1.092504,-0.382798,-0.217058,1.264381,0.412819,0.133143,7.845355,4.191881,2.319641,-0.037934,0.108527,0.000000,0.039858,-0.123099,0.000000
4.570000,3.257191,0.282435,-1.486047,0.330428,0.011090,0.044721,-1.079468,-0.378461,-0.215610,1.340510,0.453227,0.156521,7.381744,3.901093,2.334574,-0.037515,0.107258,0.000000,0.043772,-0.130423,0.000000
4.580000,3.260441,0.282527,-1.485611,0.319700,0.007328,0.042573,-1.065694,-0.373734,-0.213928,1.412016,0.490841,0.179834,6.915989,3.625769,2.320671,-0.037058,0.105917,0.000000,0.047421,-0.137310,0.000000
4.590000,3.263585,0.282582,-1.485196,0.309114,0.003615,0.040442,-1.051228,-0.368644,-0.212014,1.478829,0.525743,0.202934,6.437251,3.351006,2.305020,-0.036566,0.104510,0.000000,0.050812,-0.143755,-0.000000
4.600000,3.266624,0.282600,-1.484802,0.298676,-0.000045,0.038332,-1.036117,-0.363219,-0.209869,1.540761,0.557861,0.225934,5.942786,3.070723,2.292312,-0.036042,0.103040,0.000000,0.053938,-0.149739,0.000000
4.610000,3.269559,0.282581,-1.484429,0.288392,-0.003649,0.036245,-1.020412,-0.357487,-0.207495,1.597685,0.587157,0.248780,5.441898,2.795848,2.264847,-0.035488,0.101513,0.000000,0.056796,-0.155250,0.000000
4.620000,3.272391,0.282527,-1.484077,0.278267,-0.007195,0.034182,-1.004164,-0.351476,-0.204893,1.649599,0.613778,0.271231,4.944227,2.544854,2.212192,-0.034906,0.099933,0.000000,0.059401,-0.160289,-0.000000
4.630000,3.275124,0.282437,-1.483745,0.268308,-0.010679,0.032147,-0.987420,-0.345211,-0.202070,1.696570,0.638054,0.293024,4.448591,2.315546,2.140597,-0.034300,0.098305,0.000000,0.061786,-0.164865,-0.000000
4.640000,3.277758,0.282313,-1.483434,0.258519,-0.014099,0.030141,-0.970232,-0.338715,-0.199033,1.738570,0.660089,0.314043,3.944673,2.083812,2.063917,-0.033670,0.096634,0.000000,0.063960,-0.168974,-0.000000
4.650000,3.280294,0.282155,-1.483143,0.248904,-0.017453,0.028166,-0.952649,-0.332009,-0.195789,1.775463,0.679731,0.334302,3.429633,1.843475,1.984108,-0.033020,0.094924,0.000000,0.065909,-0.172603,0.000000
4.660000,3.282736,0.281964,-1.482871,0.239466,-0.020739,0.026225,-0.934723,-0.325120,-0.192347,1.807163,0.696959,0.353725,2.912137,1.611281,1.892845,-0.032352,0.093180,0.000000,0.067630,-0.175742,-0.000000
4.670000,3.285084,0.281740,-1.482618,0.230209,-0.023956,0.024320,-0.916506,-0.318070,-0.188715,1.833706,0.711956,0.372159,2.402589,1.401508,1.787068,-0.031668,0.091407,0.000000,0.069141,-0.178393,-0.000000
4.680000,3.287340,0.281485,-1.482384,0.221136,-0.027101,0.022451,-0.898049,-0.310881,-0.184904,1.855215,0.724989,0.389467,1.899912,1.209404,1.670593,-0.030969,0.089610,0.000000,0.070467,-0.180570,-0.000000
4.690000,3.289506,0.281198,-1.482169,0.212248,-0.030173,0.020621,-0.879401,-0.303570,-0.180925,1.871704,0.736144,0.405571,1.392339,1.016572,1.548204,-0.030258,0.087794,0.000000,0.071617,-0.182271,-0.000000
4.700000,3.291585,0.280881,-1.481972,0.203548,-0.033172,0.018832,-0.860615,-0.296158,-0.176792,1.883062,0.745320,0.420431,0.876453,0.817414,1.418670,-0.029537,0.085963,0.000000,0.072580,-0.183484,-0.000000
4.710000,3.293577,0.280535,-1.481792,0.195036,-0.036096,0.017086,-0.841740,-0.288664,-0.172517,1.889233,0.752493,0.433945,0.361689,0.624303,1.280056,-0.028807,0.084122,0.000000,0.073353,-0.184202,0.000000
4.720000,3.295486,0.280159,-1.481630,0.186713,-0.038945,0.015382,-0.822830,-0.281108,-0.168113,1.890295,0.757806,0.446032,-0.140849,0.451117,1.138093,-0.028070,0.082277,0.000000,0.073949,-0.184431,-0.000000
4.730000,3.297312,0.279756,-1.481485,0.178579,-0.041718,0.013723,-0.803934,-0.273508,-0.163596,1.886416,0.761515,0.456707,-0.632744,0.294659,0.994812,-0.027328,0.080432,0.000000,0.074393,-0.184184,-0.000000
4.740000,3.299057,0.279325,-1.481356,0.170634,-0.044415,0.012110,-0.785102,-0.265878,-0.158979,1.877641,0.763700,0.465928,-1.126995,0.136056,0.843455,-0.026582,0.078592,0.000000,0.074691,-0.183464,-0.000000
4.750000,3.300724,0.278868,-1.481243,0.162877,-0.047036,0.010544,-0.766382,-0.258234,-0.154278,1.863876,0.764236,0.473576,-1.626930,-0.033190,0.681441,-0.025834,0.076762,0.000000,0.074831,-0.182261,-0.000000
4.760000,3.302315,0.278384,-1.481145,0.155307,-0.049580,0.009025,-0.747824,-0.250593,-0.149508,1.845102,0.763036,0.479557,-2.122604,-0.200520,0.514564,-0.025085,0.074946,0.000000,0.074803,-0.180570,-0.000000
4.770000,3.303830,0.277876,-1.481062,0.147921,-0.052048,0.007554,-0.729479,-0.242973,-0.144687,1.821424,0.760226,0.483867,-2.603864,-0.345214,0.350530,-0.024338,0.073149,0.000000,0.074619,-0.178398,0.000000
4.780000,3.305273,0.277343,-1.480994,0.140717,-0.054440,0.006131,-0.711396,-0.235389,-0.139830,1.793025,0.756132,0.486568,-3.072626,-0.469984,0.188798,-0.023593,0.071377,0.000000,0.074309,-0.175762,0.000000
4.790000,3.306645,0.276787,-1.480939,0.133693,-0.056756,0.004757,-0.693619,-0.227851,-0.134955,1.759972,0.750826,0.487643,-3.540943,-0.603910,0.020383,-0.022852,0.069633,0.000000,0.073881,-0.172666,0.000000
4.800000,3.307947,0.276208,-1.480899,0.126845,-0.058997,0.003432,-0.676196,-0.220372,-0.130078,1.722206,0.744053,0.486975,-4.012734,-0.761461,-0.158639,-0.022115,0.067923,0.000000,0.073307,-0.169102,0.000000
4.810000,3.309182,0.275607,-1.480871,0.120169,-0.061163,0.002155,-0.659175,-0.212970,-0.125216,1.679717,0.735597,0.484470,-4.478905,-0.923323,-0.341157,-0.021386,0.066250,0.000000,0.072566,-0.165067,-0.000000
4.820000,3.310350,0.274985,-1.480856,0.113661,-0.063256,0.000928,-0.642602,-0.205660,-0.120388,1.632628,0.725587,0.480152,-4.927955,-1.055005,-0.515415,-0.020664,0.064621,0.000000,0.071670,-0.160572,-0.000000
4.830000,3.311455,0.274342,-1.480852,0.107317,-0.065276,-0.000252,-0.626522,-0.198458,-0.115613,1.581158,0.714497,0.474162,-5.362189,-1.163200,-0.682933,-0.019952,0.063038,0.000000,0.070665,-0.155634,-0.000000
4.840000,3.312497,0.273679,-1.480861,0.101131,-0.067225,-0.001385,-0.610979,-0.191370,-0.110905,1.525384,0.702323,0.466494,-5.795815,-1.295875,-0.858342,-0.019251,0.061507,0.000000,0.069549,-0.150261,-0.000000
4.850000,3.313477,0.272998,-1.480880,0.095097,-0.069104,-0.002470,-0.596015,-0.184411,-0.106283,1.465242,0.688579,0.456995,-6.229502,-1.457755,-1.042433,-0.018561,0.060032,0.000000,0.068274,-0.144444,0.000000
4.860000,3.314399,0.272297,-1.480910,0.089211,-0.070913,-0.003510,-0.581674,-0.177599,-0.101765,1.400794,0.673168,0.445645,-6.653287,-1.618539,-1.224840,-0.017885,0.058618,0.000000,0.066829,-0.138190,-0.000000
4.870000,3.315262,0.271579,-1.480950,0.083464,-0.072656,-0.004506,-0.567999,-0.170948,-0.097370,1.332176,0.656208,0.432498,-7.066136,-1.776907,-1.404449,-0.017225,0.057268,0.000000,0.065225,-0.131509,0.000000
4.880000,3.316068,0.270844,-1.481000,0.077851,-0.074332,-0.005458,-0.555030,-0.164475,-0.093115,1.259471,0.637630,0.417556,-7.471173,-1.945156,-1.584485,-0.016581,0.055987,0.000000,0.063454,-0.124408,-0.000000
4.890000,3.316819,0.270093,-1.481059,0.072363,-0.075945,-0.006368,-0.542809,-0.158195,-0.089019,1.182752,0.617305,0.400808,-7.868407,-2.125364,-1.764911,-0.015956,0.054780,0.000000,0.061503,-0.116895,0.000000
4.900000,3.317515,0.269325,-1.481127,0.066994,-0.077496,-0.007238,-0.531375,-0.152128,-0.085099,1.102103,0.595122,0.382258,-8.257180,-2.317429,-1.944992,-0.015351,0.053649,0.000000,0.059360,-0.108977,0.000000
4.910000,3.318159,0.268543,-1.481204,0.061736,-0.078988,-0.008070,-0.520767,-0.146293,-0.081374,1.017609,0.570957,0.361909,-8.637242,-2.522644,-2.124449,-0.014768,0.052600,0.000000,0.057012,-0.100662,-0.000000
4.920000,3.318750,0.267746,-1.481289,0.056579,-0.080422,-0.008866,-0.511023,-0.140709,-0.077861,0.929358,0.544669,0.339769,-9.008378,-2.742391,-2.303026,-0.014211,0.051636,0.000000,0.054444,-0.091959,-0.000000
4.930000,3.319290,0.266934,-1.481381,0.051515,-0.081802,-0.009627,-0.502180,-0.135400,-0.074578,0.837441,0.516109,0.315848,-9.370383,-2.978055,-2.480466,-0.013680,0.050761,0.000000,0.051642,-0.082877,0.000000
4.940000,3.319780,0.266110,-1.481481,0.046535,-0.083130,-0.010357,-0.494274,-0.130387,-0.071544,0.741951,0.485108,0.290159,-9.723042,-3.231019,-2.656510,-0.013178,0.049978,0.000000,0.048587,-0.073426,-0.000000
4.950000,3.320221,0.265272,-1.481589,0.041630,-0.084410,-0.011058,-0.487341,-0.125697,-0.068775,0.642980,0.451488,0.262718,-10.066137,-3.502661,-2.830900,-0.012708,0.049292,0.000000,0.045262,-0.063615,-0.000000
4.960000,3.320613,0.264421,-1.481703,0.036789,-0.085644,-0.011733,-0.481415,-0.121357,-0.066289,0.540628,0.415055,0.233541,-10.399459,-3.794369,-3.003375,-0.012273,0.048706,0.000000,0.041647,-0.053456,-0.000000
4.970000,3.320957,0.263559,-1.481823,0.032002,-0.086837,-0.012384,-0.476529,-0.117396,-0.064104,0.434991,0.375601,0.202650,281.863795,63.380816,33.968980,-0.011875,0.048223,0.000000,0.037721,-0.042960,-0.000000
4.980000,3.321253,0.262685,-1.481950,0.027258,-0.087992,-0.013015,-0.472715,-0.113845,-0.062236,6.177904,1.682671,0.912921,572.885801,127.560335,69.689575,-0.011518,0.047847,0.000000,0.168820,-0.619895,0.000000
4.990000,3.321502,0.261799,-1.482083,0.022547,-0.089114,-0.013629,-0.352970,-0.083743,-0.045846,11.892707,2.926808,1.596442,281.653407,58.034648,32.044987,-0.008491,0.035798,0.000000,0.295010,-1.199283,0.000000
5.000000,3.321704,0.260902,-1.482223,0.020199,-0.089667,-0.013932,-0.234861,-0.055309,-0.030308,11.810972,2.843364,1.553821,-8.173549,-8.344329,-4.262114,-0.005619,0.023863,0.000000,0.287812,-1.195796,0.000000
