time,x,y,z,vx,vy,vz,ax,ay,az,jx,jy,jz,sx,sy,sz,roll,pitch,yaw,p,q,r
0.000000,-3.308652,0.248854,-1.472134,0.011347,-0.022403,-0.000105,0.000236,0.185112,-0.046270,0.177531,8.599238,-1.803902,21.529910,-64.079021,44.315719,0.018779,-0.000024,0.000000,0.868720,-0.018004,-0.000000
0.010000,-3.308539,0.248630,-1.472135,0.011350,-0.020552,-0.000568,0.002011,0.271105,-0.064309,0.392830,7.958447,-1.360745,32.603144,-309.554577,105.455323,0.027449,-0.000204,0.000000,0.801587,-0.039740,0.000000
0.020000,-3.308425,0.248443,-1.472145,0.011387,-0.016981,-0.001391,0.008092,0.344281,-0.073485,0.829594,2.408146,0.305205,41.994470,-519.935152,133.203087,0.034820,-0.000819,0.000000,0.244430,-0.083912,-0.000000
0.030000,-3.308311,0.248290,-1.472162,0.011511,-0.013667,-0.002037,0.018603,0.319268,-0.058205,1.232720,-2.440256,1.303317,37.518836,-236.388242,29.318139,0.032342,-0.001885,0.000000,-0.242765,-0.125101,-0.000000
0.040000,-3.308195,0.248169,-1.472186,0.011759,-0.010596,-0.002555,0.032747,0.295476,-0.047419,1.579971,-2.319619,0.891567,33.151034,11.885709,-37.636669,0.029966,-0.003322,0.000000,-0.232412,-0.160509,-0.000000
0.050000,-3.308076,0.248078,-1.472214,0.012166,-0.007757,-0.002986,0.050202,0.272875,-0.040374,1.895740,-2.202541,0.550584,30.068557,11.492450,-30.991593,0.027695,-0.005096,0.000000,-0.221905,-0.192660,-0.000000
0.060000,-3.307952,0.248014,-1.472245,0.012764,-0.005138,-0.003363,0.070662,0.251425,-0.036407,2.181342,-2.089770,0.271736,27.116757,11.029108,-25.182024,0.025529,-0.007176,0.000000,-0.211429,-0.221651,0.000000
0.070000,-3.307821,0.247975,-1.472281,0.013580,-0.002729,-0.003714,0.093829,0.231080,-0.034939,2.438075,-1.981959,0.046943,24.294277,10.504721,-20.152879,0.023467,-0.009530,0.000000,-0.201141,-0.247602,-0.000000
0.080000,-3.307680,0.247959,-1.472320,0.014640,-0.000517,-0.004061,0.119423,0.211786,-0.035468,2.667227,-1.879675,-0.131322,21.599729,9.928319,-15.849083,0.021506,-0.012129,0.000000,-0.191173,-0.270645,0.000000
0.090000,-3.307528,0.247965,-1.472362,0.015968,0.001507,-0.004423,0.147174,0.193486,-0.037565,2.870070,-1.783393,-0.270038,19.031784,9.308936,-12.215548,0.019643,-0.014944,0.000000,-0.181634,-0.290919,0.000000
0.100000,-3.307361,0.247990,-1.472408,0.017584,0.003353,-0.004813,0.176825,0.176118,-0.040869,3.047863,-1.693497,-0.375633,16.589132,8.655611,-9.197180,0.017874,-0.017948,0.000000,-0.172611,-0.308567,0.000000
0.110000,-3.307176,0.248032,-1.472458,0.019505,0.005030,-0.005241,0.208131,0.159617,-0.045078,3.201853,-1.610281,-0.453982,14.270369,7.977377,-6.738910,0.016191,-0.021116,0.000000,-0.164173,-0.323734,0.000000
0.120000,-3.306971,0.248090,-1.472513,0.021746,0.006545,-0.005714,0.240862,0.143913,-0.049948,3.333270,-1.533949,-0.510411,12.074105,7.283268,-4.785654,0.014590,-0.024423,0.000000,-0.156369,-0.336560,-0.000000
0.130000,-3.306741,0.248163,-1.472573,0.024322,0.007908,-0.006240,0.274796,0.128938,-0.055286,3.443335,-1.464615,-0.549695,9.999028,6.582319,-3.282320,0.013064,-0.027848,0.000000,-0.149233,-0.347184,-0.000000
0.140000,-3.306484,0.248248,-1.472638,0.027242,0.009124,-0.006820,0.309728,0.114620,-0.060942,3.533251,-1.402303,-0.576058,8.043838,5.883565,-2.173843,0.011606,-0.031367,0.000000,-0.142781,-0.355739,0.000000
0.150000,-3.306196,0.248345,-1.472709,0.030516,0.010200,-0.007458,0.345461,0.100891,-0.066807,3.604212,-1.346944,-0.593172,6.207123,5.196042,-1.405131,0.010208,-0.034963,0.000000,-0.137019,-0.362354,0.000000
0.160000,-3.305874,0.248452,-1.472787,0.034151,0.011142,-0.008156,0.381812,0.087682,-0.072806,3.657394,-1.298382,-0.604160,4.487458,4.528784,-0.921079,0.008865,-0.038615,0.000000,-0.131937,-0.367152,-0.000000
0.170000,-3.305513,0.248568,-1.472872,0.038153,0.011954,-0.008914,0.418609,0.074924,-0.078891,3.693961,-1.256368,-0.611593,2.884620,3.892942,-0.658054,0.007570,-0.042306,0.000000,-0.127514,-0.370254,0.000000
0.180000,-3.305111,0.248691,-1.472965,0.042524,0.012640,-0.009734,0.455692,0.062554,-0.085038,3.715086,-1.220523,-0.617321,1.415474,3.334500,-0.411162,0.006315,-0.046020,0.000000,-0.123714,-0.371780,0.000000
0.190000,-3.304663,0.248821,-1.473067,0.047266,0.013205,-0.010615,0.492911,0.050513,-0.091237,3.722270,-1.189678,-0.619817,0.072309,2.849718,-0.177109,0.005095,-0.049742,0.000000,-0.120416,-0.371897,-0.000000
0.200000,-3.304166,0.248956,-1.473178,0.052382,0.013651,-0.011559,0.530137,0.038761,-0.097434,3.716532,-1.163529,-0.620863,-1.280470,2.174952,-1.006329,0.003907,-0.053458,0.000000,-0.117593,-0.370708,-0.000000
0.210000,-3.303615,0.249094,-1.473298,0.057869,0.013980,-0.012564,0.567242,0.027243,-0.103654,3.696661,-1.146179,-0.639943,-2.629828,1.348447,-2.725299,0.002744,-0.057156,0.000000,-0.115661,-0.367986,-0.000000
0.220000,-3.303008,0.249235,-1.473429,0.063727,0.014195,-0.013632,0.604070,0.015837,-0.110233,3.663936,-1.136560,-0.675369,-3.592586,1.160826,-2.109065,0.001593,-0.060818,0.000000,-0.114502,-0.363845,0.000000
0.230000,-3.302341,0.249378,-1.473571,0.069951,0.014297,-0.014769,0.640520,0.004512,-0.117162,3.624809,-1.122963,-0.682125,-4.170233,1.630242,0.954337,0.000454,-0.064433,0.000000,-0.112927,-0.359212,-0.000000
0.240000,-3.301609,0.249521,-1.473724,0.076537,0.014286,-0.015975,0.676567,-0.006622,-0.123875,3.580531,-1.103955,-0.656283,-4.896109,1.681990,2.119366,-0.000665,-0.068002,0.000000,-0.110813,-0.354293,-0.000000
0.250000,-3.300810,0.249664,-1.473890,0.083482,0.014164,-0.017246,0.712131,-0.017567,-0.130287,3.526887,-1.089323,-0.639737,-5.775035,1.248307,0.982855,-0.001763,-0.071519,0.000000,-0.109149,-0.348408,0.000000
0.260000,-3.299940,0.249804,-1.474069,0.090780,0.013934,-0.018581,0.747104,-0.028409,-0.136670,3.465030,-1.078989,-0.636626,-6.459155,1.054917,0.521251,-0.002848,-0.074970,0.000000,-0.107916,-0.341625,0.000000
0.270000,-3.298994,0.249942,-1.474262,0.098424,0.013596,-0.019979,0.781432,-0.039147,-0.143020,3.397704,-1.068225,-0.629312,-7.073811,1.059658,1.003910,-0.003921,-0.078351,0.000000,-0.106645,-0.334346,-0.000000
0.280000,-3.297971,0.250076,-1.474469,0.106408,0.013151,-0.021441,0.815058,-0.049773,-0.149256,3.323554,-1.057796,-0.616547,-7.760112,1.000017,1.403582,-0.004981,-0.081657,0.000000,-0.105414,-0.326458,-0.000000
0.290000,-3.296866,0.250205,-1.474691,0.114725,0.012601,-0.022965,0.847903,-0.060303,-0.155351,3.242502,-1.048224,-0.601241,-8.326996,0.995124,1.633141,-0.006029,-0.084881,0.000000,-0.104278,-0.317937,0.000000
0.300000,-3.295677,0.250328,-1.474928,0.123366,0.011945,-0.024548,0.879908,-0.070738,-0.161281,3.157014,-1.037893,-0.583885,-8.702533,1.110053,1.832542,-0.007067,-0.088016,0.000000,-0.103074,-0.309029,0.000000
0.310000,-3.294399,0.250444,-1.475182,0.132323,0.011186,-0.026190,0.911043,-0.081061,-0.167028,3.068451,-1.026023,-0.564590,-9.034387,1.247724,2.023570,-0.008091,-0.091062,0.000000,-0.101726,-0.299874,-0.000000
0.320000,-3.293030,0.250552,-1.475452,0.141587,0.010324,-0.027889,0.941277,-0.091258,-0.172573,2.976326,-1.012939,-0.543413,-9.460080,1.337318,2.199876,-0.009101,-0.094014,0.000000,-0.100270,-0.290425,0.000000
0.330000,-3.291567,0.250651,-1.475739,0.151149,0.009361,-0.029642,0.970570,-0.101320,-0.177897,2.879249,-0.999277,-0.520592,-9.943413,1.405862,2.355272,-0.010096,-0.096870,0.000000,-0.098768,-0.280545,0.000000
0.340000,-3.290007,0.250739,-1.476045,0.160999,0.008298,-0.031447,0.998862,-0.111244,-0.182985,2.777458,-0.984821,-0.496308,-10.319087,1.536119,2.498765,-0.011077,-0.099625,0.000000,-0.097201,-0.270259,0.000000
0.350000,-3.288347,0.250817,-1.476368,0.171126,0.007136,-0.033301,1.026119,-0.121016,-0.187823,2.672868,-0.968554,-0.470617,-10.552195,1.740148,2.635188,-0.012040,-0.102276,0.000000,-0.095469,-0.259759,-0.000000
0.360000,-3.286585,0.250882,-1.476711,0.181521,0.005877,-0.035203,1.052320,-0.130615,-0.192397,2.566414,-0.950018,-0.443604,-10.762160,1.958519,2.757141,-0.012986,-0.104821,0.000000,-0.093526,-0.249135,0.000000
0.370000,-3.284717,0.250934,-1.477072,0.192172,0.004524,-0.037149,1.077447,-0.140017,-0.196695,2.457624,-0.929384,-0.415474,-11.047778,2.153566,2.852938,-0.013911,-0.107259,0.000000,-0.091390,-0.238341,0.000000
0.380000,-3.282741,0.250972,-1.477454,0.203070,0.003077,-0.039137,1.101472,-0.149202,-0.200707,2.345459,-0.906947,-0.386545,-11.378023,2.341612,2.923535,-0.014814,-0.109589,0.000000,-0.089092,-0.227270,0.000000
0.390000,-3.280655,0.250996,-1.477855,0.214202,0.001540,-0.041163,1.124356,-0.158156,-0.204426,2.230064,-0.882552,-0.357003,-11.633967,2.565329,2.983623,-0.015693,-0.111805,0.000000,-0.086616,-0.215934,0.000000
0.400000,-3.278457,0.251003,-1.478277,0.225557,-0.000086,-0.043226,1.146073,-0.166853,-0.207847,2.112779,-0.855640,-0.326873,-11.791022,2.829669,3.038937,-0.016546,-0.113908,0.000000,-0.083908,-0.204464,0.000000
0.410000,-3.276144,0.250994,-1.478720,0.237123,-0.001797,-0.045320,1.166612,-0.175268,-0.210963,1.994243,-0.825958,-0.296225,-11.934024,3.103550,3.078659,-0.017371,-0.115895,0.000000,-0.080942,-0.192922,0.000000
0.420000,-3.273715,0.250967,-1.479183,0.248889,-0.003591,-0.047445,1.185958,-0.183373,-0.213771,1.874099,-0.793569,-0.265300,-12.132313,3.368845,3.087409,-0.018165,-0.117767,0.000000,-0.077724,-0.181266,-0.000000
0.430000,-3.271166,0.250922,-1.479668,0.260843,-0.005465,-0.049596,1.204094,-0.191140,-0.216269,1.751597,-0.758582,-0.234477,-12.363148,3.633844,3.067267,-0.018926,-0.119521,0.000000,-0.074265,-0.169418,0.000000
0.440000,-3.268498,0.250858,-1.480175,0.272971,-0.007414,-0.051770,1.220990,-0.198544,-0.218461,1.626836,-0.720893,-0.203954,-12.542033,3.917873,3.038206,-0.019650,-0.121156,0.000000,-0.070554,-0.157382,0.000000
0.450000,-3.265707,0.250774,-1.480704,0.285262,-0.009436,-0.053965,1.236630,-0.205558,-0.220348,1.500757,-0.680224,-0.173712,-12.651418,4.221846,3.007890,-0.020337,-0.122670,0.000000,-0.066563,-0.145248,-0.000000
0.460000,-3.262793,0.250669,-1.481255,0.297704,-0.011525,-0.056177,1.251005,-0.212149,-0.221935,1.373807,-0.636456,-0.143796,-12.750733,4.531021,2.962254,-0.020982,-0.124062,0.000000,-0.062279,-0.133057,-0.000000
0.470000,-3.259753,0.250543,-1.481827,0.310282,-0.013679,-0.058404,1.264107,-0.218287,-0.223224,1.245742,-0.589604,-0.114467,-12.887560,4.838828,2.881818,-0.021582,-0.125332,0.000000,-0.057702,-0.120778,-0.000000
0.480000,-3.256587,0.250396,-1.482423,0.322986,-0.015891,-0.060642,1.275920,-0.223941,-0.224224,1.116056,-0.539679,-0.086160,-13.045151,5.148816,2.769796,-0.022136,-0.126478,0.000000,-0.052833,-0.108354,-0.000000
0.490000,-3.253293,0.250226,-1.483040,0.335801,-0.018158,-0.062888,1.286428,-0.229080,-0.224947,0.984839,-0.486627,-0.059071,-13.164649,5.466317,2.652180,-0.022639,-0.127499,0.000000,-0.047664,-0.095787,0.000000
0.500000,-3.249871,0.250033,-1.483680,0.348714,-0.020473,-0.065141,1.295617,-0.233673,-0.225406,0.852763,-0.430353,-0.033116,-13.234219,5.790101,2.538673,-0.023089,-0.128394,0.000000,-0.042184,-0.083141,-0.000000
0.510000,-3.246319,0.249816,-1.484343,0.361713,-0.022831,-0.067396,1.303483,-0.237687,-0.225610,0.720155,-0.370825,-0.008298,-13.294369,6.115072,2.411560,-0.023483,-0.129163,0.000000,-0.036389,-0.070444,0.000000
0.520000,-3.242637,0.249576,-1.485028,0.374784,-0.025226,-0.069653,1.310020,-0.241090,-0.225572,0.586876,-0.308051,0.015115,-13.375597,6.440452,2.247442,-0.023817,-0.129804,0.000000,-0.030277,-0.057677,-0.000000
0.530000,-3.238823,0.249312,-1.485736,0.387914,-0.027653,-0.071908,1.315220,-0.243848,-0.225308,0.452643,-0.242016,0.036651,-13.465628,6.766844,2.050883,-0.024088,-0.130317,0.000000,-0.023845,-0.044801,-0.000000
0.540000,-3.234878,0.249023,-1.486466,0.401088,-0.030103,-0.074159,1.319073,-0.245930,-0.224839,0.317563,-0.172714,0.056132,-13.526026,7.092595,1.853768,-0.024294,-0.130700,0.000000,-0.017089,-0.031822,-0.000000
0.550000,-3.230802,0.248710,-1.487219,0.414295,-0.032571,-0.076405,1.321572,-0.247303,-0.224185,0.182122,-0.100164,0.073726,-13.550032,7.415446,1.668082,-0.024430,-0.130953,0.000000,-0.010010,-0.018786,-0.000000
0.560000,-3.226592,0.248371,-1.487995,0.427520,-0.035049,-0.078643,1.322715,-0.247933,-0.223364,0.046563,-0.024406,0.089494,-13.563257,7.735017,1.472658,-0.024494,-0.131076,0.000000,-0.002610,-0.005716,0.000000
0.570000,-3.222251,0.248009,-1.488792,0.440749,-0.037530,-0.080872,1.322503,-0.247791,-0.222395,-0.089143,0.054536,0.103179,-13.581498,8.053330,1.239596,-0.024482,-0.131068,0.000000,0.005111,0.007399,0.000000
0.580000,-3.217777,0.247621,-1.489612,0.453970,-0.040005,-0.083091,1.320933,-0.246843,-0.221301,-0.225067,0.136661,0.114286,-13.596041,8.369396,0.974931,-0.024392,-0.130928,0.000000,0.013155,0.020573,0.000000
0.590000,-3.213172,0.247208,-1.490454,0.467168,-0.042467,-0.085298,1.318002,-0.245058,-0.220109,-0.361064,0.221924,0.122678,-13.586586,8.678104,0.717431,-0.024219,-0.130656,0.000000,0.021521,0.033797,-0.000000
0.600000,-3.208434,0.246772,-1.491318,0.480330,-0.044906,-0.087493,1.313711,-0.242404,-0.218847,-0.496799,0.310223,0.128635,-13.551066,8.977345,0.480684,-0.023961,-0.130252,0.000000,0.030199,0.047036,-0.000000
0.610000,-3.203565,0.246310,-1.492204,0.493442,-0.047315,-0.089675,1.308066,-0.238853,-0.217537,-0.632085,0.401471,0.132292,-13.502071,9.268943,0.239545,-0.023615,-0.129715,0.000000,0.039181,0.060271,-0.000000
0.620000,-3.198565,0.245825,-1.493111,0.506491,-0.049683,-0.091844,1.301070,-0.234375,-0.216201,-0.766840,0.495602,0.133426,-13.442636,9.554226,-0.035943,-0.023178,-0.129046,0.000000,0.048464,0.073499,-0.000000
0.630000,-3.193435,0.245317,-1.494041,0.519464,-0.052002,-0.093999,1.292729,-0.228941,-0.214868,-0.900938,0.592555,0.131573,-13.367364,9.831195,-0.337725,-0.022646,-0.128244,0.000000,0.058043,0.086713,0.000000
0.640000,-3.188176,0.244785,-1.494991,0.532346,-0.054262,-0.096141,1.283051,-0.222524,-0.213570,-1.034188,0.692226,0.126671,-13.272086,10.095842,-0.623473,-0.022017,-0.127311,0.000000,0.067908,0.099897,0.000000
0.650000,-3.182788,0.244231,-1.495963,0.545125,-0.056453,-0.098270,1.272045,-0.215097,-0.212335,-1.166380,0.794472,0.119103,-13.159138,10.347390,-0.879641,-0.021288,-0.126246,0.000000,0.078045,0.113023,-0.000000
0.660000,-3.177274,0.243656,-1.496957,0.557787,-0.058564,-0.100388,1.259723,-0.206634,-0.211188,-1.297370,0.899174,0.109078,-13.029894,10.586727,-1.132842,-0.020456,-0.125050,0.000000,0.088443,0.126075,0.000000
0.670000,-3.171633,0.243060,-1.497971,0.570319,-0.060586,-0.102494,1.246098,-0.197113,-0.210153,-1.426978,1.006207,0.096447,-12.876288,10.811754,-1.410821,-0.019519,-0.123724,0.000000,0.099087,0.139037,-0.000000
0.680000,-3.165867,0.242444,-1.499007,0.582709,-0.062507,-0.104591,1.231184,-0.186510,-0.209259,-1.554896,1.115409,0.080862,-12.696074,11.020441,-1.703868,-0.018474,-0.122269,0.000000,0.109964,0.151879,-0.000000
0.690000,-3.159978,0.241810,-1.500063,0.594943,-0.064316,-0.106679,1.215000,-0.174805,-0.208536,-1.680899,1.226615,0.062369,-12.499316,11.213424,-1.971901,-0.017320,-0.120686,0.000000,0.121054,0.164578,0.000000
0.700000,-3.153968,0.241158,-1.501140,0.607009,-0.066003,-0.108761,1.197566,-0.161978,-0.208011,-1.804883,1.339677,0.041424,-12.291839,11.391877,-2.204283,-0.016053,-0.118977,0.000000,0.132341,0.177115,-0.000000
0.710000,-3.147838,0.240490,-1.502238,0.618894,-0.067555,-0.110839,1.178902,-0.148011,-0.207707,-1.926736,1.454453,0.018283,-12.065484,11.553442,-2.425005,-0.014673,-0.117143,0.000000,0.143808,0.189474,0.000000
0.720000,-3.141590,0.239807,-1.503357,0.630587,-0.068963,-0.112915,1.159031,-0.132889,-0.207646,-2.046192,1.570746,-0.007076,-11.803930,11.691298,-2.652450,-0.013177,-0.115187,0.000000,0.155434,0.201624,-0.000000
0.730000,-3.135227,0.239111,-1.504497,0.642075,-0.070213,-0.114992,1.137978,-0.116596,-0.207849,-2.162814,1.688279,-0.034766,-11.508022,11.804348,-2.876090,-0.011564,-0.113110,0.000000,0.167187,0.213521,0.000000
0.740000,-3.128749,0.238403,-1.505657,0.653346,-0.071295,-0.117072,1.115775,-0.099123,-0.208341,-2.276353,1.806833,-0.064598,-11.198746,11.899560,-3.067741,-0.009833,-0.110916,0.000000,0.179044,0.225133,0.000000
0.750000,-3.122160,0.237685,-1.506838,0.664390,-0.072196,-0.119159,1.092451,-0.080460,-0.209141,-2.386789,1.926270,-0.096120,-10.883610,11.979147,-3.223641,-0.007983,-0.108607,0.000000,0.190985,0.236450,-0.000000
0.760000,-3.115461,0.236959,-1.508040,0.675195,-0.072904,-0.121255,1.068039,-0.060598,-0.210263,-2.494025,2.046416,-0.129071,-10.547480,12.036574,-3.358670,-0.006013,-0.106187,0.000000,0.202989,0.247455,0.000000
0.770000,-3.108656,0.236227,-1.509263,0.685751,-0.073408,-0.123364,1.042571,-0.039531,-0.211722,-2.597739,2.167002,-0.163294,-10.171103,12.063262,-3.472320,-0.003923,-0.103658,0.000000,0.215025,0.258111,0.000000
0.780000,-3.101746,0.235491,-1.510507,0.696047,-0.073695,-0.125490,1.016084,-0.017258,-0.213529,-2.697447,2.287681,-0.198517,-9.758267,12.059424,-3.555115,-0.001713,-0.101025,0.000000,0.227054,0.268361,0.000000
0.790000,-3.094735,0.234753,-1.511773,0.706073,-0.073753,-0.127635,0.988622,0.006222,-0.215693,-2.792904,2.408190,-0.234396,-9.333920,12.034354,-3.603856,0.000618,-0.098291,0.000000,0.239045,0.278175,0.000000
0.800000,-3.087625,0.234016,-1.513060,0.715819,-0.073570,-0.129804,0.960226,0.030906,-0.218217,-2.884125,2.528368,-0.270595,-8.903689,11.991992,-3.624666,0.003068,-0.095461,0.000000,0.250977,0.287547,-0.000000
0.810000,-3.080418,0.233281,-1.514369,0.725277,-0.073135,-0.131999,0.930939,0.056790,-0.221105,-2.970978,2.648030,-0.306889,-8.450472,11.924353,-3.614765,0.005637,-0.092540,0.000000,0.262827,0.296458,-0.000000
0.820000,-3.073119,0.232553,-1.515700,0.734438,-0.072434,-0.134226,0.900806,0.083867,-0.224355,-3.053135,2.766855,-0.342890,-7.961480,11.818233,-3.549142,0.008324,-0.089532,0.000000,0.274558,0.304868,-0.000000
0.830000,-3.065730,0.231833,-1.517054,0.743293,-0.071457,-0.136486,0.869877,0.112127,-0.227962,-3.130208,2.884395,-0.377872,-7.441973,11.674388,-3.422093,0.011128,-0.086443,0.000000,0.286123,0.312731,-0.000000
0.840000,-3.058253,0.231124,-1.518430,0.751836,-0.070192,-0.138785,0.838202,0.141555,-0.231912,-3.201974,3.000343,-0.411332,-6.908394,11.508686,-3.263208,0.014047,-0.083277,0.000000,0.297488,0.320019,-0.000000
0.850000,-3.050693,0.230429,-1.519829,0.760057,-0.068626,-0.141125,0.805837,0.172134,-0.236189,-3.268375,3.114568,-0.443136,-6.364416,11.325629,-3.093072,0.017078,-0.080042,0.000000,0.308637,0.326723,0.000000
0.860000,-3.043052,0.229751,-1.521252,0.767952,-0.066749,-0.143509,0.772835,0.203846,-0.240775,-3.329263,3.226856,-0.473193,-5.799199,11.113112,-2.886420,0.020219,-0.076742,0.000000,0.319545,0.332828,-0.000000
0.870000,-3.035334,0.229094,-1.522699,0.775514,-0.064549,-0.145940,0.739252,0.236671,-0.245653,-3.384359,3.336831,-0.500865,-5.204161,10.858223,-2.582279,0.023468,-0.073384,0.000000,0.330176,0.338303,-0.000000
0.880000,-3.027542,0.228460,-1.524171,0.782737,-0.062016,-0.148422,0.705148,0.270582,-0.250792,-3.433346,3.444020,-0.524839,-4.583504,10.563396,-2.180695,0.026822,-0.069974,0.000000,0.340484,0.343107,0.000000
0.890000,-3.019679,0.227854,-1.525668,0.789617,-0.059138,-0.150956,0.670585,0.305551,-0.256150,-3.476030,3.548099,-0.544479,-3.948710,10.244170,-1.760450,0.030278,-0.066520,0.000000,0.350440,0.347221,-0.000000
0.900000,-3.011749,0.227277,-1.527190,0.796149,-0.055905,-0.153545,0.635627,0.341544,-0.261682,-3.512320,3.648904,-0.560048,-3.298070,9.905234,-1.357107,0.033831,-0.063027,0.000000,0.360029,0.350643,-0.000000
0.910000,-3.003756,0.226735,-1.528739,0.802330,-0.052307,-0.156190,0.600339,0.378529,-0.267351,-3.541991,3.746203,-0.571621,-2.624721,9.535075,-0.912836,0.037478,-0.059503,0.000000,0.369231,0.353356,0.000000
0.920000,-2.995703,0.226231,-1.530314,0.808156,-0.048334,-0.158892,0.564787,0.416469,-0.273114,-3.564814,3.839605,-0.578304,-1.935972,9.120292,-0.334269,0.041216,-0.055955,0.000000,0.378013,0.355338,0.000000
0.930000,-2.987593,0.225769,-1.531917,0.813625,-0.043977,-0.161652,0.529042,0.455321,-0.278917,-3.580710,3.928609,-0.578306,-1.234999,8.663620,0.368373,0.045038,-0.052390,0.000000,0.386340,0.356578,-0.000000
0.940000,-2.979430,0.225352,-1.533547,0.818737,-0.039228,-0.164470,0.493173,0.495041,-0.284681,-3.589514,4.012878,-0.570937,-0.511900,8.181731,1.071735,0.048942,-0.048816,0.000000,0.394190,0.357067,-0.000000
0.950000,-2.971218,0.224984,-1.535206,0.823489,-0.034077,-0.167346,0.457252,0.535579,-0.290335,-3.590948,4.092244,-0.556871,0.234662,7.677666,1.725658,0.052922,-0.045240,0.000000,0.401554,0.356791,0.000000
0.960000,-2.962961,0.224670,-1.536894,0.827882,-0.028516,-0.170277,0.421354,0.576886,-0.295818,-3.584821,4.166431,-0.536424,0.997342,7.139627,2.416326,0.056973,-0.041670,0.000000,0.408414,0.355744,-0.000000
0.970000,-2.954661,0.224414,-1.538611,0.831916,-0.022539,-0.173262,0.385556,0.618907,-0.301064,-3.571002,4.235036,-0.508545,1.774197,6.560122,3.269089,0.061090,-0.038114,0.000000,0.414746,0.353918,0.000000
0.980000,-2.946322,0.224219,-1.540359,0.835593,-0.016138,-0.176298,0.349934,0.661586,-0.305989,-3.549337,4.297633,-0.471042,2.565904,5.943951,4.265402,0.065268,-0.034578,0.000000,0.420538,0.351304,0.000000
0.990000,-2.937949,0.224091,-1.542137,0.838915,-0.009307,-0.179382,0.314569,0.704860,-0.310485,-3.519683,4.353915,-0.423237,3.374215,5.299620,5.235953,0.069501,-0.031072,0.000000,0.425781,0.347899,0.000000
1.000000,-2.929544,0.224033,-1.543947,0.841884,-0.002041,-0.182508,0.279540,0.748665,-0.314454,-3.481853,4.403626,-0.366323,4.209293,4.618385,6.107255,0.073784,-0.027603,0.000000,0.430461,0.343704,-0.000000
1.010000,-2.921111,0.224050,-1.545788,0.844505,0.005666,-0.185671,0.244932,0.792933,-0.317811,-3.435498,4.446283,-0.301092,5.068779,3.895081,6.994526,0.078110,-0.024179,0.000000,0.434543,0.338699,0.000000
1.020000,-2.912654,0.224147,-1.547660,0.846783,0.013818,-0.188864,0.210830,0.837590,-0.320475,-3.380477,4.481527,-0.226432,5.921976,3.154536,8.077138,0.082475,-0.020808,0.000000,0.438019,0.332879,0.000000
1.030000,-2.904175,0.224327,-1.549565,0.848722,0.022418,-0.192080,0.177322,0.882563,-0.322340,-3.317058,4.509374,-0.139549,6.770033,2.396730,9.323208,0.086871,-0.017499,0.000000,0.440935,0.326279,-0.000000
1.040000,-2.895679,0.224595,-1.551502,0.850329,0.031469,-0.195311,0.144489,0.927778,-0.323266,-3.245077,4.529462,-0.039968,7.654408,1.587055,10.486873,0.091294,-0.014258,0.000000,0.443286,0.318898,0.000000
1.050000,-2.887169,0.224956,-1.553471,0.851612,0.040974,-0.198546,0.112421,0.973152,-0.323139,-3.163970,4.541115,0.070188,8.567202,0.739575,11.502699,0.095737,-0.011094,0.000000,0.445011,0.310695,-0.000000
1.060000,-2.878647,0.225414,-1.555473,0.852578,0.050932,-0.201774,0.081210,1.018600,-0.321863,-3.073733,4.544253,0.190086,9.481381,-0.124193,12.531694,0.100194,-0.008015,0.000000,0.446118,0.301682,-0.000000
1.070000,-2.870117,0.225975,-1.557507,0.853236,0.061346,-0.204983,0.050946,1.064037,-0.319337,-2.974342,4.538631,0.320822,10.429619,-1.054940,13.707239,0.104660,-0.005030,0.000000,0.446616,0.291864,-0.000000
1.080000,-2.861582,0.226641,-1.559572,0.853597,0.072213,-0.208160,0.021723,1.109373,-0.315446,-2.865140,4.523155,0.464231,11.433431,-2.068236,14.973935,0.109127,-0.002145,0.000000,0.446441,0.281182,0.000000
1.090000,-2.853045,0.227419,-1.561670,0.853670,0.083533,-0.211292,-0.006357,1.154501,-0.310053,-2.745674,4.497266,0.620301,12.442473,-3.091122,16.148066,0.113589,0.000628,0.000000,0.445566,0.269600,-0.000000
1.100000,-2.844509,0.228312,-1.563798,0.853469,0.095303,-0.214361,-0.033190,1.199318,-0.303040,-2.616291,4.461332,0.787192,13.371282,-4.072577,17.186900,0.118039,0.003282,0.000000,0.444030,0.257155,0.000000
1.110000,-2.835976,0.229325,-1.565957,0.853007,0.107519,-0.217353,-0.058683,1.243727,-0.294309,-2.478248,4.415815,0.964039,14.260119,-5.065475,18.203322,0.122471,0.005808,0.000000,0.441889,0.243971,-0.000000
1.120000,-2.827449,0.230462,-1.568145,0.852296,0.120177,-0.220248,-0.082755,1.287634,-0.283759,-2.331088,4.360023,1.151258,15.339544,-6.197298,19.277101,0.126878,0.008198,0.000000,0.439100,0.229999,-0.000000
1.130000,-2.818930,0.231729,-1.570362,0.851351,0.133272,-0.223028,-0.105304,1.330928,-0.271284,-2.171457,4.291869,1.349581,16.606198,-7.458922,20.363445,0.131254,0.010445,0.000000,0.435487,0.214905,-0.000000
1.140000,-2.810422,0.233128,-1.572606,0.850190,0.146796,-0.225673,-0.126185,1.373472,-0.256768,-1.998964,4.210844,1.558527,17.741270,-8.675637,21.344009,0.135588,0.012534,0.000000,0.431015,0.198640,0.000000
1.150000,-2.801926,0.234665,-1.574875,0.848828,0.160741,-0.228163,-0.145284,1.415145,-0.240113,-1.816632,4.118356,1.776461,18.683650,-9.788471,22.190846,0.139875,0.014455,0.000000,0.425812,0.181484,0.000000
1.160000,-2.793445,0.236343,-1.577169,0.847284,0.175099,-0.230475,-0.162517,1.455839,-0.221239,-1.625291,4.015075,2.002344,19.646279,-10.915486,22.969420,0.144106,0.016200,0.000000,0.419939,0.163501,0.000000
1.170000,-2.784981,0.238167,-1.579485,0.845577,0.189858,-0.232588,-0.177790,1.495446,-0.200066,-1.423706,3.900046,2.235850,20.728501,-12.188363,23.718532,0.148274,0.017759,0.000000,0.413305,0.144545,0.000000
1.180000,-2.776534,0.240140,-1.581821,0.843728,0.205008,-0.234477,-0.190991,1.533840,-0.176522,-1.210721,3.771307,2.476715,21.855231,-13.570948,24.395776,0.152373,0.019123,0.000000,0.405718,0.124473,0.000000
1.190000,-2.768106,0.242267,-1.584174,0.841758,0.220535,-0.236118,-0.202004,1.570872,-0.150532,-0.986602,3.628627,2.723765,22.898465,-14.884484,24.935097,0.156390,0.020278,0.000000,0.397135,0.103278,0.000000
1.200000,-2.759699,0.244551,-1.586543,0.839688,0.236425,-0.237487,-0.210723,1.606412,-0.122046,-0.752752,3.473618,2.975417,23.840448,-16.083692,25.391532,0.160316,0.021213,0.000000,0.387684,0.081056,0.000000
1.210000,-2.751312,0.246995,-1.588924,0.837543,0.252663,-0.238559,-0.217059,1.640345,-0.091024,-0.509793,3.306953,3.231596,24.757346,-17.283970,25.787915,0.164144,0.021919,0.000000,0.377415,0.057828,0.000000
1.220000,-2.742948,0.249604,-1.591314,0.835347,0.269232,-0.239308,-0.220919,1.672551,-0.057414,-0.257605,3.127938,3.491175,25.682694,-18.577965,25.925615,0.167865,0.022385,0.000000,0.366228,0.033533,-0.000000
1.230000,-2.734605,0.252380,-1.593710,0.833125,0.286114,-0.239707,-0.222211,1.702903,-0.021200,0.003861,2.935394,3.750108,26.582799,-19.921962,25.760957,0.171469,0.022599,0.000000,0.353914,0.008104,-0.000000
1.240000,-2.726285,0.255326,-1.596109,0.830903,0.303290,-0.239732,-0.220842,1.731259,0.017588,0.274051,2.729499,4.006394,27.405131,-21.187480,25.554619,0.174944,0.022549,0.000000,0.340420,-0.018463,0.000000
1.250000,-2.717987,0.258446,-1.598505,0.828708,0.320739,-0.239356,-0.216730,1.757493,0.058928,0.551964,2.511645,4.261200,28.148916,-22.365548,25.450306,0.178278,0.022223,0.000000,0.325863,-0.046127,-0.000000
1.260000,-2.709711,0.261741,-1.600896,0.826568,0.338440,-0.238553,-0.209803,1.781492,0.102812,0.837029,2.282188,4.515400,28.838006,-23.532052,25.248770,0.181462,0.021610,0.000000,0.310253,-0.074888,0.000000
1.270000,-2.701456,0.265214,-1.603276,0.824512,0.356369,-0.237299,-0.199989,1.803137,0.149236,1.128724,2.041003,4.766176,29.451038,-24.679676,24.570919,0.184484,0.020698,0.000000,0.293477,-0.104769,-0.000000
1.280000,-2.693221,0.268868,-1.605642,0.822568,0.374503,-0.235569,-0.187228,1.822312,0.198135,1.426050,1.788595,5.006819,29.959926,-25.768827,23.450543,0.187331,0.019476,0.000000,0.275400,-0.135747,0.000000
1.290000,-2.685005,0.272704,-1.607987,0.820767,0.392816,-0.233337,-0.171469,1.838909,0.249372,1.727923,1.525627,5.235187,30.384979,-26.804045,22.385256,0.189991,0.017933,0.000000,0.255976,-0.167783,0.000000
1.300000,-2.676806,0.276725,-1.610308,0.819139,0.411281,-0.230581,-0.152670,1.852825,0.302839,2.033749,1.252514,5.454524,30.803545,-27.820343,21.524823,0.192450,0.016057,0.000000,0.235233,-0.200874,-0.000000
1.310000,-2.668622,0.280930,-1.612599,0.817714,0.429872,-0.227280,-0.130794,1.863959,0.358462,2.343993,0.969220,5.665683,31.185090,-28.800629,20.521707,0.194695,0.013837,0.000000,0.213110,-0.235132,0.000000
1.320000,-2.660451,0.285322,-1.614854,0.816523,0.448560,-0.223412,-0.105790,1.872209,0.416153,2.657451,0.676501,5.864958,31.292882,-29.634113,19.020084,0.196712,0.011261,0.000000,0.189527,-0.270507,-0.000000
1.330000,-2.652291,0.289901,-1.617067,0.815598,0.467316,-0.218957,-0.077644,1.877489,0.475762,2.969851,0.376538,6.046085,31.115182,-30.313145,17.114230,0.198485,0.008318,0.000000,0.164487,-0.306617,-0.000000
1.340000,-2.644139,0.294668,-1.619233,0.814970,0.486110,-0.213897,-0.046393,1.879740,0.537074,3.279755,0.070238,6.207242,30.966456,-30.976891,15.269304,0.200000,0.005003,0.000000,0.137954,-0.343350,-0.000000
1.350000,-2.635992,0.299623,-1.621345,0.814670,0.504911,-0.208215,-0.012049,1.878894,0.599906,3.589180,-0.243000,6.351471,30.925343,-31.650449,13.627942,0.201242,0.001308,0.000000,0.109834,-0.380952,-0.000000
1.360000,-2.627846,0.304767,-1.623397,0.814729,0.523688,-0.201899,0.025391,1.874880,0.664104,3.898262,-0.562771,6.479801,30.769195,-32.230148,11.876476,0.202195,-0.002776,0.000000,0.080096,-0.419471,0.000000
1.370000,-2.619697,0.310097,-1.625383,0.815178,0.542409,-0.194933,0.065916,1.867639,0.729503,4.204564,-0.887603,6.589000,30.325939,-32.655362,9.672553,0.202842,-0.007259,0.000000,0.048733,-0.458674,-0.000000
1.380000,-2.611542,0.315615,-1.627296,0.816048,0.561041,-0.187309,0.109482,1.857128,0.795884,4.504781,-1.215878,6.673252,29.659784,-32.951105,7.112188,0.203167,-0.012145,0.000000,0.015696,-0.498202,0.000000
1.390000,-2.603376,0.321318,-1.629129,0.817368,0.579551,-0.179016,0.156011,1.843321,0.862968,4.797760,-1.546625,6.731244,28.985275,-33.182865,4.656661,0.203153,-0.017435,0.000000,-0.019025,-0.537898,-0.000000
1.400000,-2.595195,0.327206,-1.630876,0.819168,0.597907,-0.170049,0.205437,1.826195,0.930509,5.084486,-1.879535,6.766386,28.350065,-33.374781,2.412458,0.202783,-0.023132,0.000000,-0.055400,-0.577837,0.000000
1.410000,-2.586993,0.333276,-1.632530,0.821476,0.616075,-0.160406,0.257701,1.805730,0.998295,5.364761,-2.214121,6.779493,27.607953,-33.475447,0.080851,0.202042,-0.029237,0.000000,-0.093426,-0.617952,0.000000
1.420000,-2.578765,0.339527,-1.634085,0.824322,0.634022,-0.150083,0.312732,1.781913,1.066099,5.636645,-2.549044,6.768003,26.637602,-33.402168,-2.552323,0.200911,-0.035751,0.000000,-0.133071,-0.657956,-0.000000
1.430000,-2.570507,0.345957,-1.635532,0.827731,0.651713,-0.139084,0.370434,1.754749,1.133655,5.897513,-2.882164,6.728447,25.483577,-33.158210,-5.377914,0.199377,-0.042669,0.000000,-0.174213,-0.697440,0.000000
1.440000,-2.562211,0.352562,-1.636866,0.831730,0.669117,-0.127410,0.430683,1.724270,1.200668,6.146317,-3.212208,6.660444,24.302756,-32.847815,-8.100599,0.197423,-0.049983,0.000000,-0.216734,-0.736153,-0.000000
1.450000,-2.553872,0.359339,-1.638080,0.836345,0.686199,-0.115070,0.493360,1.690505,1.266864,6.383568,-3.539120,6.566435,23.127453,-32.531276,-10.676919,0.195038,-0.057685,0.000000,-0.260567,-0.774013,0.000000
1.460000,-2.545484,0.366286,-1.639168,0.841598,0.702927,-0.102073,0.558354,1.653487,1.331996,6.608866,-3.862834,6.446906,21.854474,-32.130050,-13.282257,0.192209,-0.065764,0.000000,-0.305668,-0.810818,-0.000000
1.470000,-2.537040,0.373398,-1.640122,0.847512,0.719268,-0.088430,0.625538,1.613249,1.395802,6.820658,-4.181721,6.300790,20.411739,-31.477213,-15.969341,0.188922,-0.074207,0.000000,-0.351823,-0.846193,-0.000000
1.480000,-2.528534,0.380671,-1.640936,0.854108,0.735192,-0.074157,0.694767,1.569853,1.458012,7.017100,-4.492378,6.127519,18.826889,-30.579147,-18.650259,0.185169,-0.082995,0.000000,-0.398566,-0.879708,0.000000
1.490000,-2.519958,0.388101,-1.641605,0.861407,0.750666,-0.059270,0.765880,1.523401,1.518353,7.197196,-4.793304,5.927785,17.198384,-29.659148,-21.237634,0.180947,-0.092106,0.000000,-0.445583,-0.911018,0.000000
1.500000,-2.511306,0.395684,-1.642122,0.869426,0.765660,-0.043790,0.838711,1.473987,1.576568,7.361068,-5.085561,5.702766,15.600866,-28.830174,-23.789734,0.176255,-0.101516,0.000000,-0.492820,-0.939905,-0.000000
1.510000,-2.502569,0.403415,-1.642481,0.878181,0.780145,-0.027739,0.913101,1.421690,1.632408,7.509213,-5.369908,5.451990,13.969223,-27.934033,-26.332667,0.171089,-0.111198,0.000000,-0.540204,-0.966170,0.000000
1.520000,-2.493742,0.411287,-1.642676,0.887688,0.794094,-0.011142,0.988895,1.366589,1.685608,7.640453,-5.644242,5.176113,12.107617,-26.683759,-28.649618,0.165449,-0.121123,0.000000,-0.587270,-0.989422,-0.000000
1.530000,-2.484816,0.419296,-1.642703,0.897959,0.807477,0.005973,1.065910,1.308805,1.735930,7.751365,-5.903583,4.878998,10.034976,-25.122562,-30.693989,0.159343,-0.131257,0.000000,-0.633109,-1.009048,-0.000000
1.540000,-2.475783,0.427437,-1.642557,0.909006,0.820270,0.023577,1.143923,1.248517,1.783188,7.841152,-6.146693,4.562233,8.026558,-23.637015,-32.737346,0.152787,-0.141559,0.000000,-0.677281,-1.024735,0.000000
1.550000,-2.466635,0.435702,-1.642232,0.920838,0.832447,0.041637,1.222733,1.185871,1.827175,7.911896,-6.376323,4.224251,6.128191,-22.287731,-34.874653,0.145798,-0.151989,0.000000,-0.719884,-1.036475,-0.000000
1.560000,-2.457366,0.444086,-1.641724,0.933461,0.843987,0.060120,1.302161,1.120990,1.867673,7.963716,-6.592448,3.864740,4.162588,-20.818841,-36.893343,0.138391,-0.162506,0.000000,-0.760645,-1.044058,-0.000000
1.570000,-2.447966,0.452582,-1.641030,0.946881,0.854867,0.078991,1.382008,1.054022,1.904470,7.995148,-6.792700,3.486384,2.071523,-19.134082,-38.538060,0.130588,-0.173066,0.000000,-0.798946,-1.047162,0.000000
1.580000,-2.438428,0.461183,-1.640144,0.961101,0.865068,0.098210,1.462064,0.985136,1.937400,8.005146,-6.975129,3.093979,-0.075737,-17.322566,-39.845242,0.122416,-0.183623,0.000000,-0.834198,-1.045605,0.000000
1.590000,-2.428744,0.469883,-1.639065,0.976122,0.874570,0.117739,1.542110,0.914520,1.966349,7.993633,-7.139151,2.689479,-2.199291,-15.507052,-41.126122,0.113908,-0.194130,0.000000,-0.866052,-1.039320,0.000000
1.600000,-2.418906,0.478674,-1.637790,0.991943,0.883358,0.137537,1.621936,0.842353,1.991190,7.961161,-7.285270,2.271457,-4.295201,-13.721086,-42.495572,0.105100,-0.204539,0.000000,-0.894367,-1.028271,-0.000000
1.610000,-2.408905,0.487550,-1.636315,1.008561,0.891417,0.157562,1.701334,0.768814,2.011778,7.907729,-7.413573,1.839568,-6.402538,-11.893102,-43.721641,0.096026,-0.214804,0.000000,-0.918952,-1.012411,-0.000000
1.620000,-2.398735,0.496503,-1.634638,1.025970,0.898734,0.177772,1.780091,0.694082,2.027981,7.833110,-7.523132,1.397024,-8.512951,-9.940434,-44.480368,0.086727,-0.224875,0.000000,-0.939481,-0.991797,0.000000
1.630000,-2.388386,0.505525,-1.632759,1.044163,0.905299,0.198122,1.857996,0.618351,2.039719,7.737470,-7.612382,0.949960,-10.603902,-7.889165,-44.813008,0.077243,-0.234709,0.000000,-0.955576,-0.966683,0.000000
1.640000,-2.377851,0.514609,-1.630676,1.063130,0.911101,0.218567,1.934840,0.541834,2.046980,7.621032,-7.680916,0.500764,-12.672259,-5.864490,-45.134825,0.067622,-0.244261,0.000000,-0.967107,-0.937283,-0.000000
1.650000,-2.367123,0.523747,-1.628388,1.082860,0.916135,0.239062,2.010416,0.464733,2.049734,7.484025,-7.729672,0.047264,-14.701751,-3.918561,-45.609098,0.057908,-0.253492,0.000000,-0.974194,-0.903710,0.000000
1.660000,-2.356194,0.532931,-1.625895,1.103338,0.920396,0.259561,2.084521,0.387241,2.047926,7.326997,-7.759287,-0.411418,-16.681621,-1.977708,-45.938947,0.048144,-0.262362,0.000000,-0.976940,-0.866169,0.000000
1.670000,-2.345057,0.542155,-1.623197,1.124550,0.923880,0.280020,2.156956,0.309547,2.041506,7.150393,-7.769226,-0.871515,-18.635459,0.062027,-45.699158,0.038375,-0.270832,0.000000,-0.975310,-0.825028,0.000000
1.680000,-2.333703,0.551409,-1.620294,1.146477,0.926587,0.300392,2.227529,0.231856,2.030495,6.954288,-7.758046,-1.325401,-20.548757,2.158913,-44.965237,0.028644,-0.278872,0.000000,-0.969209,-0.780781,0.000000
1.690000,-2.322127,0.560686,-1.617189,1.169101,0.928517,0.320630,2.296042,0.154387,2.014998,6.739418,-7.726047,-1.770820,-22.372005,4.158662,-44.296900,0.018997,-0.286452,0.000000,-0.958844,-0.733853,-0.000000
1.700000,-2.310321,0.569979,-1.613882,1.192398,0.929675,0.340692,2.362317,0.077335,1.995079,6.506847,-7.674873,-2.211339,-24.157241,6.104213,-43.815044,0.009472,-0.293550,0.000000,-0.944624,-0.684503,-0.000000
1.710000,-2.298279,0.579280,-1.610375,1.216347,0.930064,0.360532,2.426179,0.000889,1.970771,6.256273,-7.603963,-2.647121,-25.919513,8.078500,-43.140751,0.000108,-0.300142,0.000000,-0.926683,-0.632938,-0.000000
1.720000,-2.285994,0.588581,-1.606671,1.240922,0.929692,0.380107,2.487442,-0.074744,1.942136,5.988457,-7.513303,-3.074154,-27.467248,9.899672,-42.016648,-0.009058,-0.306209,0.000000,-0.905242,-0.579639,-0.000000
1.730000,-2.273461,0.597874,-1.602773,1.266096,0.928569,0.399374,2.545948,-0.149377,1.909288,5.706928,-7.405970,-3.487454,-28.770343,11.513165,-40.563520,-0.017994,-0.311736,0.000000,-0.880925,-0.525434,0.000000
1.740000,-2.260672,0.607152,-1.598684,1.291841,0.926705,0.418293,2.601581,-0.222863,1.872387,5.413050,-7.283040,-3.885425,-30.079748,13.158716,-39.114868,-0.026674,-0.316720,0.000000,-0.854113,-0.470760,0.000000
1.750000,-2.247624,0.616408,-1.594407,1.318127,0.924112,0.436822,2.654209,-0.295038,1.831579,5.105333,-7.142795,-4.269751,-31.473837,14.907473,-37.751497,-0.035074,-0.321157,0.000000,-0.824842,-0.415581,0.000000
1.760000,-2.234310,0.625634,-1.589947,1.344925,0.920804,0.454924,2.703688,-0.365719,1.786992,4.783574,-6.984890,-4.640455,-32.767307,16.578395,-36.258765,-0.043170,-0.325040,0.000000,-0.793309,-0.360055,0.000000
1.770000,-2.220725,0.634824,-1.585308,1.372201,0.916797,0.472562,2.749881,-0.434736,1.738770,4.449987,-6.811228,-4.994926,-33.770914,18.003640,-34.450247,-0.050940,-0.328367,0.000000,-0.759974,-0.304685,0.000000
1.780000,-2.206866,0.643970,-1.580496,1.399923,0.912109,0.489700,2.792687,-0.501944,1.687094,4.108155,-6.624818,-5.329460,-34.527712,19.223041,-32.403794,-0.058370,-0.331144,0.000000,-0.725412,-0.250135,0.000000
1.790000,-2.192727,0.653066,-1.575514,1.428055,0.906759,0.506304,2.832044,-0.567232,1.632181,3.759432,-6.426767,-5.643002,-35.273725,20.438960,-30.377398,-0.065450,-0.333382,0.000000,-0.689943,-0.196685,0.000000
1.800000,-2.178305,0.662105,-1.570370,1.456563,0.900765,0.522343,2.867876,-0.630479,1.574234,3.402681,-6.216038,-5.937008,-36.084891,21.722748,-28.405300,-0.072170,-0.335090,0.000000,-0.653609,-0.144222,-0.000000
1.810000,-2.163596,0.671081,-1.565068,1.485412,0.894149,0.537789,2.900097,-0.691553,1.513441,3.037735,-5.992312,-6.211108,-36.793107,22.925492,-26.331624,-0.078524,-0.336278,0.000000,-0.616526,-0.092795,-0.000000
1.820000,-2.148596,0.679988,-1.559614,1.514565,0.886934,0.552612,2.928631,-0.750325,1.450012,2.666819,-5.757529,-6.463640,-37.195500,23.842960,-24.122229,-0.084503,-0.336956,0.000000,-0.579054,-0.042731,0.000000
1.830000,-2.133304,0.688820,-1.554015,1.543985,0.879142,0.566789,2.953434,-0.806703,1.384168,2.293825,-5.515453,-6.693553,-37.333865,24.506503,-21.849098,-0.090107,-0.337139,0.000000,-0.541715,0.005517,0.000000
1.840000,-2.117717,0.697571,-1.548278,1.573634,0.870800,0.580296,2.974507,-0.860634,1.316141,1.920141,-5.267398,-6.900622,-37.471287,25.177981,-19.569478,-0.095340,-0.336849,0.000000,-0.504726,0.051824,-0.000000
1.850000,-2.101832,0.706236,-1.542409,1.603475,0.861930,0.593112,2.991837,-0.912051,1.246156,1.544399,-5.011893,-7.084943,-37.679288,25.933567,-17.260304,-0.100205,-0.336102,0.000000,-0.467986,0.096378,0.000000
1.860000,-2.085647,0.714810,-1.536416,1.633471,0.852559,0.605219,3.005395,-0.960872,1.174442,1.166556,-4.748727,-7.245828,-37.777336,26.589121,-14.906652,-0.104703,-0.334915,0.000000,-0.431529,0.139209,0.000000
1.870000,-2.069162,0.723287,-1.530305,1.663583,0.842712,0.616600,3.015168,-1.007026,1.101239,0.788852,-4.480111,-7.383076,-37.595091,26.955304,-12.607411,-0.108838,-0.333305,0.000000,-0.395621,0.180143,-0.000000
1.880000,-2.052376,0.731664,-1.524084,1.693774,0.832418,0.627243,3.021172,-1.050474,1.026780,0.414654,-4.209621,-7.497976,-37.186726,27.082500,-10.394117,-0.112618,-0.331294,0.000000,-0.360630,0.218961,-0.000000
1.890000,-2.035287,0.739936,-1.517760,1.724007,0.821703,0.637136,3.023461,-1.091218,0.951280,0.045118,-3.938461,-7.590958,-36.775583,27.215423,-8.152769,-0.116054,-0.328901,0.000000,-0.326662,0.255650,-0.000000
1.900000,-2.017895,0.748098,-1.511341,1.754243,0.810594,0.646269,3.022075,-1.129244,0.874961,-0.320858,-3.665313,-7.661032,-36.411064,27.414855,-5.822832,-0.119154,-0.326149,0.000000,-0.293576,0.290381,-0.000000
1.910000,-2.000202,0.756147,-1.504835,1.784448,0.799118,0.654635,3.017044,-1.164524,0.798059,-0.683104,-3.390163,-7.707415,-35.946179,27.515078,-3.504439,-0.121928,-0.323055,0.000000,-0.261361,0.323208,-0.000000
1.920000,-1.982206,0.764080,-1.498249,1.814584,0.787303,0.662230,3.008412,-1.197047,0.720813,-1.039781,-3.115011,-7.731121,-35.273955,27.373292,-1.382455,-0.124384,-0.319638,0.000000,-0.230178,0.354081,-0.000000
1.930000,-1.963910,0.771894,-1.491590,1.844616,0.775177,0.669052,2.996248,-1.226825,0.643437,-1.388583,-2.842698,-7.735064,-34.445669,27.041811,0.550402,-0.126534,-0.315920,0.000000,-0.200234,0.382972,0.000000
1.940000,-1.945314,0.779584,-1.484868,1.874509,0.762767,0.675099,2.980641,-1.253901,0.566111,-1.728695,-2.574175,-7.720113,-33.605036,26.708551,2.520401,-0.128391,-0.311919,0.000000,-0.171563,0.409926,0.000000
1.950000,-1.926420,0.787149,-1.478088,1.904229,0.750099,0.680374,2.961674,-1.278308,0.489034,-2.060683,-2.308527,-7.684656,-32.773288,26.410008,4.598944,-0.129967,-0.307655,0.000000,-0.144043,0.435047,0.000000
1.960000,-1.907230,0.794586,-1.471260,1.933743,0.737201,0.684880,2.939427,-1.300071,0.412418,-2.384161,-2.045975,-7.628134,-31.862416,26.024634,6.615022,-0.131274,-0.303145,0.000000,-0.117656,0.458379,0.000000
1.970000,-1.887745,0.801893,-1.464391,1.963018,0.724098,0.688622,2.913991,-1.319228,0.336472,-2.697932,-1.788034,-7.552355,-30.840745,25.478358,8.370262,-0.132322,-0.298408,0.000000,-0.092476,0.479958,0.000000
1.980000,-1.867969,0.809068,-1.457488,1.992022,0.710816,0.691609,2.885468,-1.335832,0.261371,-3.000976,-1.536408,-7.460728,-29.746102,24.816797,9.899613,-0.133125,-0.293462,0.000000,-0.068570,0.499877,0.000000
1.990000,-1.847905,0.816109,-1.450558,2.020727,0.697381,0.693850,2.853971,-1.349956,0.187257,-3.292854,-1.291698,-7.354363,-28.626318,24.140819,11.448105,-0.133695,-0.288322,0.000000,-0.045928,0.518207,-0.000000
2.000000,-1.827555,0.823015,-1.443611,2.049102,0.683817,0.695354,2.819611,-1.361666,0.114284,-3.573502,-1.053591,-7.231766,-27.478812,23.456014,13.090254,-0.134045,-0.283004,0.000000,-0.024484,0.534977,0.000000
2.010000,-1.806923,0.829786,-1.436651,2.077119,0.670148,0.696135,2.782501,-1.371028,0.042622,-3.842430,-0.822578,-7.092558,-26.282774,22.703936,14.648163,-0.134186,-0.277525,0.000000,-0.004241,0.550209,0.000000
2.020000,-1.786012,0.836418,-1.429688,2.104752,0.656396,0.696207,2.742763,-1.378118,-0.027567,-4.099157,-0.599512,-6.938803,-25.064818,21.891710,15.919657,-0.134131,-0.271900,0.000000,0.014796,0.563987,-0.000000
2.030000,-1.764828,0.842913,-1.422727,2.131974,0.642585,0.695584,2.700518,-1.383018,-0.096154,-4.343726,-0.384743,-6.774165,-23.843716,21.048658,16.947450,-0.133891,-0.266143,0.000000,0.032687,0.576473,0.000000
2.040000,-1.743373,0.849270,-1.415776,2.158762,0.628736,0.694284,2.655888,-1.385812,-0.163050,-4.576032,-0.178539,-6.599854,-22.593475,20.170974,17.987859,-0.133478,-0.260266,0.000000,0.049463,0.587742,0.000000
2.050000,-1.721652,0.855488,-1.408842,2.185092,0.614869,0.692323,2.608998,-1.386589,-0.228151,-4.795596,0.018676,-6.414408,-21.294375,19.246100,19.108000,-0.132902,-0.254282,0.000000,0.065110,0.597761,-0.000000
2.060000,-1.699671,0.861568,-1.401930,2.210942,0.601004,0.689721,2.559976,-1.385439,-0.291339,-5.001919,0.206383,-6.217694,-19.975700,18.287217,20.128610,-0.132176,-0.248204,0.000000,0.079617,0.606532,-0.000000
2.070000,-1.677434,0.867508,-1.395047,2.236292,0.587160,0.686496,2.508959,-1.382461,-0.352505,-5.195110,0.384420,-6.011835,-18.706081,17.339970,20.881702,-0.131310,-0.242044,0.000000,0.093031,0.614161,-0.000000
2.080000,-1.654945,0.873311,-1.388200,2.261121,0.573355,0.682670,2.456074,-1.377751,-0.411575,-5.376041,0.553182,-5.800060,-17.488928,16.410450,21.418874,-0.130315,-0.235813,0.000000,0.105459,0.620835,0.000000
2.090000,-1.632211,0.878975,-1.381394,2.285413,0.559605,0.678265,2.401438,-1.371397,-0.468506,-5.544888,0.712629,-5.583458,-16.243307,15.447748,21.955245,-0.129201,-0.229520,0.000000,0.116936,0.626621,0.000000
2.100000,-1.609237,0.884503,-1.374635,2.309150,0.545927,0.673300,2.345176,-1.363498,-0.523244,-5.700907,0.862137,-5.360955,-14.936867,14.433385,22.533010,-0.127977,-0.223174,0.000000,0.127421,0.631451,0.000000
2.110000,-1.586028,0.889894,-1.367928,2.332317,0.532335,0.667800,2.287420,-1.354155,-0.575726,-5.843626,1.001297,-5.132798,-13.634796,13.411111,23.007414,-0.126653,-0.216785,0.000000,0.136904,0.635312,0.000000
2.120000,-1.562591,0.895150,-1.361279,2.354899,0.518844,0.661786,2.228304,-1.343472,-0.625900,-5.973603,1.130359,-4.900807,-12.433558,12.441411,23.282771,-0.125239,-0.210364,0.000000,0.145450,0.638311,0.000000
2.130000,-1.538930,0.900271,-1.354692,2.376883,0.505466,0.655282,2.167948,-1.331547,-0.673742,-6.092297,1.250125,-4.667142,-11.323450,11.520845,23.406163,-0.123744,-0.203917,0.000000,0.153171,0.640635,-0.000000
2.140000,-1.515053,0.905259,-1.348173,2.398258,0.492213,0.648311,2.106458,-1.318469,-0.719243,-6.200072,1.360776,-4.432684,-10.185970,10.578751,23.501046,-0.122175,-0.197451,0.000000,0.160107,0.642339,-0.000000
2.150000,-1.490965,0.910115,-1.341726,2.419012,0.479096,0.640897,2.043947,-1.304332,-0.762395,-6.296016,1.461700,-4.197121,-8.986550,9.584627,23.591184,-0.120541,-0.190973,0.000000,0.166215,0.643340,-0.000000
2.160000,-1.466673,0.914841,-1.335355,2.439137,0.466126,0.633063,1.980538,-1.289235,-0.803186,-6.379803,1.552469,-3.960860,-7.812988,8.594663,23.597731,-0.118851,-0.184489,0.000000,0.171471,0.643619,0.000000
2.170000,-1.442182,0.919438,-1.329065,2.458623,0.453312,0.624833,1.916351,-1.273283,-0.841613,-6.452276,1.633594,-3.725167,-6.759978,7.700723,23.468848,-0.117112,-0.178008,0.000000,0.175943,0.643274,0.000000
2.180000,-1.417500,0.923907,-1.322858,2.477464,0.440661,0.616231,1.851492,-1.256564,-0.877689,-6.515002,1.706483,-3.491483,-5.807309,6.893943,23.233516,-0.115332,-0.171534,0.000000,0.179777,0.642467,-0.000000
2.190000,-1.392633,0.928251,-1.316740,2.495653,0.428180,0.607279,1.786051,-1.239153,-0.911442,-6.568422,1.771472,-3.260496,-4.837797,6.059321,22.963573,-0.113516,-0.165071,0.000000,0.183015,0.641240,0.000000
2.200000,-1.367587,0.932471,-1.310713,2.513185,0.415878,0.598002,1.720124,-1.221134,-0.942899,-6.611758,1.827670,-3.032212,-3.821573,5.167999,22.670785,-0.111671,-0.158624,0.000000,0.185580,0.639515,0.000000
2.210000,-1.342369,0.936568,-1.304780,2.530055,0.403758,0.588421,1.653816,-1.202600,-0.972086,-6.644854,1.874832,-2.807081,-2.842389,4.303439,22.313126,-0.109804,-0.152199,0.000000,0.187456,0.637275,0.000000
2.220000,-1.316986,0.940546,-1.298944,2.546261,0.391826,0.578560,1.587227,-1.183638,-0.999041,-6.668606,1.913738,-2.585949,-1.979589,3.539963,21.874745,-0.107922,-0.145801,0.000000,0.188721,0.634600,0.000000
2.230000,-1.291444,0.944405,-1.293209,2.561800,0.380085,0.568441,1.520443,-1.164325,-1.023805,-6.684446,1.945632,-2.369586,-1.211207,2.856017,21.375385,-0.106029,-0.139432,0.000000,0.189490,0.631617,-0.000000
2.240000,-1.265750,0.948147,-1.287575,2.576670,0.368539,0.558084,1.453538,-1.144725,-1.046432,-6.692830,1.970859,-2.158441,-0.437838,2.160494,20.841923,-0.104132,-0.133096,0.000000,0.189798,0.628357,-0.000000
2.250000,-1.239911,0.951776,-1.282047,2.590870,0.357191,0.547512,1.386587,-1.124908,-1.066974,-6.693202,1.988842,-1.952747,0.364297,1.432622,20.274497,-0.102233,-0.126795,0.000000,0.189590,0.624756,-0.000000
2.260000,-1.213933,0.955291,-1.276625,2.604401,0.346041,0.536745,1.319674,-1.104948,-1.085487,-6.685544,1.999511,-1.752951,1.126121,0.736789,19.662627,-0.100339,-0.120534,0.000000,0.188861,0.620802,0.000000
2.270000,-1.187823,0.958696,-1.271312,2.617264,0.335092,0.525802,1.252876,-1.084917,-1.102033,-6.670680,2.003577,-1.559495,1.787063,0.128882,19.020644,-0.098456,-0.114315,0.000000,0.187672,0.616555,0.000000
2.280000,-1.161587,0.961993,-1.266109,2.629459,0.324343,0.514704,1.186260,-1.064877,-1.116677,-6.649803,2.002089,-1.372538,2.367038,-0.408074,18.359920,-0.096586,-0.108142,0.000000,0.186114,0.612107,0.000000
2.290000,-1.135233,0.965183,-1.261018,2.640989,0.313794,0.503469,1.119880,-1.044876,-1.129484,-6.623339,1.995416,-1.192296,2.943371,-0.944001,17.668663,-0.094733,-0.102015,0.000000,0.184214,0.607479,0.000000
2.300000,-1.108768,0.968269,-1.256040,2.651857,0.303445,0.492114,1.053793,-1.024968,-1.140523,-6.590936,1.983209,-1.019165,3.532980,-1.499268,16.935544,-0.092901,-0.095937,0.000000,0.181939,0.602625,0.000000
2.310000,-1.082196,0.971252,-1.251176,2.662065,0.293295,0.480658,0.988061,-1.005211,-1.149867,-6.552680,1.965431,-0.853585,4.083813,-2.025242,16.176579,-0.091094,-0.089910,0.000000,0.179283,0.597536,0.000000
2.320000,-1.055526,0.974135,-1.246427,2.671618,0.283341,0.469117,0.922740,-0.985660,-1.157595,-6.509259,1.942704,-0.695634,4.555923,-2.468567,15.434685,-0.089316,-0.083936,0.000000,0.176294,0.592256,0.000000
2.330000,-1.028764,0.976919,-1.241793,2.680520,0.273581,0.457506,0.857876,-0.966357,-1.163780,-6.461561,1.916059,-0.544892,4.966047,-2.843261,14.713854,-0.087568,-0.078016,0.000000,0.173055,0.586842,-0.000000
2.340000,-1.001916,0.979607,-1.237277,2.688775,0.264014,0.445841,0.793508,-0.947338,-1.168493,-6.409938,1.885839,-0.401357,5.366397,-3.218890,13.964312,-0.085854,-0.072153,0.000000,0.169590,0.581309,-0.000000
2.350000,-0.974988,0.982199,-1.232877,2.696390,0.254635,0.434136,0.729677,-0.928641,-1.171807,-6.354233,1.851681,-0.265606,5.766854,-3.607852,13.163018,-0.084176,-0.066347,0.000000,0.165864,0.575626,-0.000000
2.360000,-0.947988,0.984699,-1.228594,2.703369,0.245441,0.422405,0.666424,-0.910305,-1.173805,-6.294601,1.813682,-0.138096,6.133912,-3.963749,12.351223,-0.082537,-0.060599,0.000000,0.161883,0.569792,0.000000
2.370000,-0.920921,0.987108,-1.224428,2.709718,0.236429,0.410660,0.603785,-0.892367,-1.174569,-6.231555,1.772406,-0.018581,6.447190,-4.261316,11.598970,-0.080939,-0.054911,0.000000,0.157688,0.563833,-0.000000
2.380000,-0.893794,0.989428,-1.220381,2.715445,0.227594,0.398914,0.541793,-0.874857,-1.174176,-6.165658,1.728455,0.093883,6.719319,-4.516503,10.901128,-0.079383,-0.049285,0.000000,0.153322,0.557777,-0.000000
2.390000,-0.866612,0.991660,-1.216450,2.720554,0.218931,0.387177,0.480472,-0.857798,-1.172691,-6.097169,1.682076,0.199441,6.978328,-4.761786,10.171179,-0.077872,-0.043720,0.000000,0.148799,0.551631,0.000000
2.400000,-0.839383,0.993806,-1.212637,2.725054,0.210438,0.375460,0.419849,-0.841215,-1.170187,-6.026091,1.633220,0.297307,7.226358,-5.001318,9.385553,-0.076407,-0.038218,0.000000,0.144115,0.545384,-0.000000
2.410000,-0.812111,0.995869,-1.208941,2.728951,0.202107,0.363773,0.359950,-0.825133,-1.166745,-5.952641,1.582050,0.387153,7.447259,-5.215132,8.608287,-0.074990,-0.032780,0.000000,0.139282,0.539039,0.000000
2.420000,-0.784804,0.997849,-1.205362,2.732253,0.193935,0.352125,0.300796,-0.809574,-1.162444,-5.877146,1.528917,0.469473,7.641593,-5.395615,7.902692,-0.073621,-0.027407,0.000000,0.134323,0.532607,-0.000000
2.430000,-0.757466,0.999747,-1.201899,2.734967,0.185916,0.340524,0.242407,-0.794555,-1.157356,-5.799810,1.474138,0.545206,7.817669,-5.551233,7.252733,-0.072303,-0.022099,0.000000,0.129255,0.526090,-0.000000
2.440000,-0.730104,1.001567,-1.198551,2.737101,0.178044,0.328978,0.184800,-0.780091,-1.151540,-5.720792,1.417892,0.614527,7.976651,-5.693161,6.581292,-0.071036,-0.016857,0.000000,0.124091,0.519490,0.000000
2.450000,-0.702724,1.003308,-1.195319,2.738663,0.170314,0.317493,0.127991,-0.766197,-1.145065,-5.640277,1.360274,0.676832,8.114554,-5.820193,5.875751,-0.069822,-0.011683,0.000000,0.118838,0.512811,-0.000000
2.460000,-0.675331,1.004973,-1.192201,2.739661,0.162720,0.306077,0.071995,-0.752886,-1.138004,-5.558501,1.301488,0.732042,8.233770,-5.927203,5.191030,-0.068660,-0.006576,0.000000,0.113512,0.506061,0.000000
2.470000,-0.647931,1.006563,-1.189197,2.740103,0.155256,0.294733,0.016821,-0.740167,-1.130424,-5.475601,1.241730,0.780653,8.349332,-6.021670,4.560655,-0.067551,-0.001538,0.000000,0.108125,0.499240,-0.000000
2.480000,-0.620529,1.008078,-1.186307,2.739997,0.147917,0.283468,-0.037517,-0.728051,-1.122391,-5.391515,1.181055,0.823255,8.463719,-6.107946,3.968823,-0.066497,0.003432,0.000000,0.102675,0.492331,-0.000000
2.490000,-0.593131,1.009521,-1.183528,2.739353,0.140695,0.272285,-0.091009,-0.716546,-1.113959,-5.306327,1.119571,0.860029,8.559612,-6.177796,3.376918,-0.065498,0.008331,0.000000,0.097168,0.485330,-0.000000
2.500000,-0.565742,1.010892,-1.180861,2.738177,0.133586,0.261189,-0.143644,-0.705660,-1.105190,-5.220322,1.057499,0.890794,8.630785,-6.225952,2.780637,-0.064554,0.013159,0.000000,0.091624,0.478255,-0.000000
2.510000,-0.538367,1.012193,-1.178304,2.736480,0.126582,0.250182,-0.195415,-0.695396,-1.096143,-5.133711,0.995052,0.915642,8.691787,-6.260441,2.207392,-0.063666,0.017916,0.000000,0.086060,0.471114,-0.000000
2.520000,-0.511012,1.013424,-1.175857,2.734269,0.119678,0.239266,-0.246318,-0.685759,-1.086877,-5.046487,0.932290,0.934941,8.761953,-6.297979,1.671846,-0.062833,0.022601,0.000000,0.080478,0.463898,-0.000000
2.530000,-0.483682,1.014586,-1.173519,2.731553,0.112867,0.228444,-0.296345,-0.676751,-1.077445,-4.958472,0.869093,0.949079,8.839308,-6.338618,1.166268,-0.062056,0.027212,0.000000,0.074864,0.456584,-0.000000
2.540000,-0.456381,1.015681,-1.171288,2.728342,0.106143,0.217717,-0.345487,-0.668377,-1.067896,-4.869701,0.805518,0.958267,8.901210,-6.362247,0.674590,-0.061336,0.031750,0.000000,0.069220,0.449167,-0.000000
2.550000,-0.429115,1.016709,-1.169165,2.724644,0.099499,0.207086,-0.393739,-0.660640,-1.058279,-4.780448,0.741848,0.962571,8.941741,-6.361793,0.195061,-0.060672,0.036212,0.000000,0.063572,0.441667,0.000000
2.560000,-0.401888,1.017671,-1.167147,2.720467,0.092930,0.196552,-0.441096,-0.653540,-1.048644,-4.690866,0.678282,0.962168,8.978417,-6.352886,-0.260520,-0.060064,0.040599,0.000000,0.057937,0.434091,0.000000
2.570000,-0.374706,1.018568,-1.165234,2.715822,0.086428,0.186113,-0.487556,-0.647075,-1.039036,-4.600879,0.614790,0.957360,9.029205,-6.355899,-0.684640,-0.059513,0.044910,0.000000,0.052311,0.426429,-0.000000
2.580000,-0.347572,1.019400,-1.163424,2.710716,0.079988,0.175771,-0.533114,-0.641244,-1.029497,-4.510282,0.551164,0.948475,9.090634,-6.368020,-1.079856,-0.059018,0.049143,0.000000,0.046672,0.418656,-0.000000
2.590000,-0.320491,1.020168,-1.161718,2.705159,0.073604,0.165523,-0.577762,-0.636051,-1.020066,-4.419067,0.487430,0.935763,9.141582,-6.364162,-1.454329,-0.058580,0.053297,0.000000,0.041022,0.410770,0.000000
2.600000,-0.293469,1.020872,-1.160114,2.699161,0.067267,0.155370,-0.621495,-0.631496,-1.010782,-4.327450,0.423881,0.919389,9.176556,-6.337042,-1.811789,-0.058198,0.057372,0.000000,0.035388,0.402786,0.000000
2.610000,-0.266508,1.021513,-1.158611,2.692730,0.060974,0.145308,-0.664311,-0.627574,-1.001679,-4.235536,0.360689,0.899527,9.211514,-6.305061,-2.145695,-0.057872,0.061367,0.000000,0.029785,0.394713,-0.000000
2.620000,-0.239614,1.022091,-1.157208,2.685875,0.054716,0.135336,-0.706206,-0.624282,-0.992791,-4.143220,0.297780,0.876475,9.262955,-6.288046,-2.443700,-0.057602,0.065280,0.000000,0.024207,0.386539,0.000000
2.630000,-0.212791,1.022607,-1.155904,2.678605,0.048488,0.125452,-0.747175,-0.621618,-0.984149,-4.050277,0.234928,0.850653,9.327685,-6.281652,-2.705923,-0.057388,0.069110,0.000000,0.018630,0.378245,-0.000000
2.640000,-0.186042,1.023061,-1.154699,2.670931,0.042284,0.115653,-0.787212,-0.619583,-0.975778,-3.956666,0.172147,0.822356,9.385858,-6.261122,-2.948179,-0.057230,0.072857,0.000000,0.013056,0.369826,-0.000000
2.650000,-0.159372,1.023453,-1.153591,2.662861,0.036096,0.105936,-0.826309,-0.618175,-0.967702,-3.862559,0.109706,0.791690,9.430713,-6.220031,-3.179911,-0.057127,0.076519,0.000000,0.007510,0.361299,0.000000
2.660000,-0.132785,1.023783,-1.152580,2.654405,0.029920,0.096299,-0.864463,-0.617389,-0.959944,-3.768052,0.047746,0.758758,9.476958,-6.175927,-3.389245,-0.057079,0.080095,0.000000,0.002007,0.352671,0.000000
2.670000,-0.106284,1.024051,-1.151665,2.645572,0.023749,0.086737,-0.901670,-0.617220,-0.952527,-3.673020,-0.013813,0.723905,9.543899,-6.145555,-3.550380,-0.057087,0.083583,0.000000,-0.003462,0.343935,-0.000000
2.680000,-0.079873,1.024258,-1.150845,2.636372,0.017576,0.077248,-0.937923,-0.617665,-0.945466,-3.577174,-0.075165,0.687750,9.628713,-6.124235,-3.665244,-0.057149,0.086984,0.000000,-0.008917,0.335067,0.000000
2.690000,-0.053557,1.024403,-1.150120,2.626813,0.011395,0.067828,-0.973213,-0.618724,-0.938772,-3.480446,-0.136298,0.650600,9.706916,-6.090731,-3.768318,-0.057265,0.090296,0.000000,-0.014356,0.326067,0.000000
2.700000,-0.027337,1.024486,-1.149489,2.616907,0.005201,0.058473,-1.007532,-0.620391,-0.932454,-3.383035,-0.196980,0.612384,9.769774,-6.039643,-3.870045,-0.057436,0.093516,0.000000,-0.019757,0.316952,0.000000
2.710000,-0.001218,1.024507,-1.148951,2.606663,-0.001013,0.049179,-1.040874,-0.622663,-0.926524,-3.285050,-0.257091,0.573199,9.834781,-5.985599,-3.946618,-0.057660,0.096645,0.000000,-0.025107,0.307736,0.000000
2.720000,0.024796,1.024466,-1.148505,2.596090,-0.007252,0.039943,-1.073233,-0.625533,-0.920990,-3.186340,-0.316692,0.533452,9.924745,-5.942021,-3.974195,-0.057938,0.099681,0.000000,-0.030412,0.298409,0.000000
2.730000,0.050703,1.024362,-1.148152,2.585198,-0.013523,0.030759,-1.104601,-0.628997,-0.915855,-3.086556,-0.375931,0.493715,10.035498,-5.904486,-3.960391,-0.058268,0.102623,0.000000,-0.035690,0.288947,-0.000000
2.740000,0.076500,1.024195,-1.147890,2.573998,-0.019832,0.021625,-1.134964,-0.633052,-0.911116,-2.985630,-0.434781,0.454244,10.137202,-5.855598,-3.936492,-0.058652,0.105470,0.000000,-0.040936,0.279349,-0.000000
2.750000,0.102183,1.023965,-1.147719,2.562499,-0.026184,0.012537,-1.164313,-0.637693,-0.906770,-2.883812,-0.493043,0.414985,10.221037,-5.792258,-3.905728,-0.059087,0.108220,0.000000,-0.046131,0.269641,0.000000
2.760000,0.127750,1.023671,-1.147639,2.550712,-0.032586,0.003490,-1.192640,-0.642913,-0.902816,-2.781209,-0.550627,0.376129,10.307482,-5.725953,-3.847795,-0.059574,0.110872,0.000000,-0.051267,0.259836,-0.000000
2.770000,0.153198,1.023313,-1.147649,2.538646,-0.039043,-0.005519,-1.219938,-0.648705,-0.899248,-2.677662,-0.607562,0.338030,10.417518,-5.663168,-3.758615,-0.060113,0.113425,0.000000,-0.056347,0.249927,-0.000000
2.780000,0.178523,1.022891,-1.147750,2.526313,-0.045560,-0.014495,-1.246194,-0.655064,-0.896056,-2.572859,-0.663890,0.300957,10.545120,-5.600325,-3.646076,-0.060701,0.115879,0.000000,-0.061376,0.239891,-0.000000
2.790000,0.203724,1.022402,-1.147939,2.513722,-0.052144,-0.023440,-1.271395,-0.661983,-0.893229,-2.466760,-0.719568,0.265108,10.662520,-5.528819,-3.515077,-0.061340,0.118232,0.000000,-0.066352,0.229730,0.000000
2.800000,0.228797,1.021848,-1.148218,2.500885,-0.058800,-0.032360,-1.295529,-0.669455,-0.890753,-2.359608,-0.774466,0.230656,10.762934,-5.444320,-3.363779,-0.062028,0.120483,0.000000,-0.071261,0.219472,-0.000000
2.810000,0.253741,1.021226,-1.148587,2.487812,-0.065533,-0.041256,-1.318587,-0.677472,-0.888615,-2.251501,-0.828455,0.197832,10.864664,-5.352296,-3.190231,-0.062765,0.122630,0.000000,-0.076093,0.209131,-0.000000
2.820000,0.278554,1.020537,-1.149043,2.474513,-0.072349,-0.050132,-1.340559,-0.686024,-0.886797,-2.142315,-0.881512,0.166851,10.982470,-5.263818,-3.000020,-0.063550,0.124673,0.000000,-0.080847,0.198702,0.000000
2.830000,0.303232,1.019779,-1.149589,2.461000,-0.079253,-0.058991,-1.361433,-0.695102,-0.885278,-2.031851,-0.933731,0.137832,11.110217,-5.177309,-2.794793,-0.064382,0.126612,0.000000,-0.085532,0.188171,0.000000
2.840000,0.327774,1.018952,-1.150223,2.447284,-0.086251,-0.067837,-1.381196,-0.704699,-0.884040,-1.920111,-0.985058,0.110955,11.227868,-5.076991,-2.567963,-0.065261,0.128445,0.000000,-0.090145,0.177543,-0.000000
2.850000,0.352177,1.018054,-1.150946,2.433377,-0.093347,-0.076672,-1.399835,-0.714804,-0.883059,-1.807294,-1.035271,0.086473,11.330756,-4.958171,-2.318967,-0.066185,0.130170,0.000000,-0.094667,0.166843,-0.000000
2.860000,0.376441,1.017085,-1.151757,2.419288,-0.100547,-0.085499,-1.417342,-0.725404,-0.882311,-1.693496,-1.084222,0.064576,11.431379,-4.830934,-2.053216,-0.067154,0.131789,0.000000,-0.099086,0.156084,-0.000000
2.870000,0.400563,1.016043,-1.152656,2.405030,-0.107855,-0.094318,-1.433705,-0.736488,-0.881768,-1.578666,-1.131890,0.045408,11.538868,-4.704297,-1.772465,-0.068167,0.133299,0.000000,-0.103401,0.145266,0.000000
2.880000,0.424542,1.014928,-1.153643,2.390614,-0.115277,-0.103134,-1.448915,-0.748042,-0.881403,-1.462718,-1.178308,0.029126,11.648548,-4.573796,-1.474900,-0.069222,0.134701,0.000000,-0.107618,0.134385,0.000000
2.890000,0.448375,1.013738,-1.154719,2.376051,-0.122816,-0.111947,-1.462960,-0.760054,-0.881185,-1.345696,-1.223366,0.015910,11.747153,-4.426797,-1.159947,-0.070319,0.135993,0.000000,-0.111729,0.123450,0.000000
2.900000,0.472063,1.012472,-1.155882,2.361354,-0.130478,-0.120758,-1.475829,-0.772509,-0.881084,-1.227775,-1.266844,0.005927,11.830713,-4.265984,-0.833091,-0.071457,0.137176,0.000000,-0.115715,0.112481,-0.000000
2.910000,0.495603,1.011128,-1.157134,2.346535,-0.138267,-0.129568,-1.487515,-0.785391,-0.881067,-1.109081,-1.308685,-0.000751,11.906817,-4.098422,-0.495115,-0.072633,0.138249,0.000000,-0.119573,0.101491,0.000000
2.920000,0.518994,1.009706,-1.158473,2.331604,-0.146186,-0.138379,-1.498011,-0.798683,-0.881099,-0.989639,-1.348812,-0.003975,11.982653,-3.912723,-0.132522,-0.073848,0.139211,0.000000,-0.123299,0.090486,0.000000
2.930000,0.542235,1.008204,-1.159901,2.316575,-0.154240,-0.147190,-1.507308,-0.812367,-0.881146,-0.869428,-1.386940,-0.003402,12.054880,-3.704998,0.255733,-0.075099,0.140063,0.000000,-0.126870,0.079469,0.000000
2.940000,0.565325,1.006621,-1.161417,2.301458,-0.162433,-0.156002,-1.515399,-0.826422,-0.881167,-0.748541,-1.422912,0.001140,12.112155,-3.490284,0.649370,-0.076386,0.140805,0.000000,-0.130275,0.068451,-0.000000
2.950000,0.588264,1.004956,-1.163021,2.286267,-0.170769,-0.164814,-1.522279,-0.840826,-0.881123,-0.627185,-1.456745,0.009586,12.151220,-3.271377,1.038355,-0.077705,0.141436,0.000000,-0.133518,0.057450,-0.000000
2.960000,0.611050,1.003206,-1.164714,2.271012,-0.179250,-0.173624,-1.527943,-0.855557,-0.880976,-0.505517,-1.488340,0.021907,12.178141,-3.036953,1.435913,-0.079056,0.141958,0.000000,-0.136591,0.046479,0.000000
2.970000,0.633684,1.001371,-1.166494,2.255708,-0.187880,-0.182433,-1.532389,-0.870592,-0.880685,-0.383622,-1.517484,0.038304,12.197340,-2.781387,1.863972,-0.080437,0.142369,0.000000,-0.139479,0.035549,0.000000
2.980000,0.656165,0.999448,-1.168362,2.240365,-0.196662,-0.191238,-1.535615,-0.885907,-0.880210,-0.261570,-1.543967,0.059186,12.205161,-2.507632,2.318166,-0.081846,0.142671,0.000000,-0.142167,0.024670,0.000000
2.990000,0.678491,0.997438,-1.170319,2.224995,-0.205598,-0.200037,-1.537621,-0.901472,-0.879502,-0.139519,-1.567637,0.084667,12.193779,-2.221356,2.767417,-0.083280,0.142864,0.000000,-0.144644,0.013855,0.000000
3.000000,0.700664,0.995337,-1.172363,2.209612,-0.214691,-0.208828,-1.538406,-0.917259,-0.878516,-0.017695,-1.588395,0.114535,12.164382,-1.923563,3.204684,-0.084739,0.142949,0.000000,-0.146904,0.003122,-0.000000
3.010000,0.722684,0.993144,-1.174495,2.194227,-0.223943,-0.217608,-1.537974,-0.933240,-0.877211,0.103769,-1.606108,0.148761,12.120192,-1.609716,3.649505,-0.086218,0.142927,0.000000,-0.148935,-0.007522,0.000000
3.020000,0.744549,0.990858,-1.176715,2.178853,-0.233356,-0.226372,-1.536330,-0.949381,-0.875541,0.224709,-1.620589,0.187525,12.053031,-1.274957,4.113581,-0.087717,0.142798,0.000000,-0.150725,-0.018062,-0.000000
3.030000,0.766261,0.988477,-1.179023,2.163501,-0.242931,-0.235118,-1.533480,-0.965651,-0.873460,0.344829,-1.631608,0.231032,11.959241,-0.918220,4.590144,-0.089233,0.142564,0.000000,-0.152256,-0.028470,0.000000
3.040000,0.787819,0.985999,-1.181417,2.148183,-0.252669,-0.243842,-1.529434,-0.982014,-0.870920,0.463894,-1.638953,0.279328,11.848193,-0.545412,5.061948,-0.090763,0.142226,0.000000,-0.153513,-0.038730,-0.000000
3.050000,0.809224,0.983423,-1.183899,2.132912,-0.262571,-0.252537,-1.524202,-0.998430,-0.867874,0.581793,-1.642516,0.332271,11.726288,-0.170879,5.518995,-0.092303,0.141786,0.000000,-0.154485,-0.048836,0.000000
3.060000,0.830477,0.980748,-1.186468,2.117699,-0.272637,-0.261199,-1.517798,-1.014864,-0.864275,0.698420,-1.642371,0.389708,11.584943,0.211022,5.971277,-0.093852,0.141245,0.000000,-0.155182,-0.058785,-0.000000
3.070000,0.851578,0.977971,-1.189123,2.102556,-0.282868,-0.269822,-1.510234,-1.031278,-0.860080,0.813492,-1.638295,0.451697,11.404643,0.642228,6.442095,-0.095407,0.140605,0.000000,-0.155585,-0.068556,-0.000000
3.080000,0.872528,0.975090,-1.191865,2.087494,-0.293263,-0.278401,-1.501528,-1.047630,-0.855241,0.926513,-1.629526,0.518550,11.185538,1.123749,6.928002,-0.096964,0.139868,0.000000,-0.155628,-0.078103,-0.000000
3.090000,0.893328,0.972105,-1.194691,2.072525,-0.303821,-0.286927,-1.491704,-1.063868,-0.849709,1.037203,-1.615820,0.590257,10.951969,1.598209,7.394269,-0.098520,0.139036,0.000000,-0.155290,-0.087407,-0.000000
3.100000,0.913979,0.969014,-1.197603,2.057660,-0.314540,-0.295395,-1.480784,-1.079946,-0.843436,1.145552,-1.597562,0.666435,10.712250,2.051125,7.829181,-0.100070,0.138111,0.000000,-0.154605,-0.096476,-0.000000
3.110000,0.934481,0.965814,-1.200599,2.042910,-0.325420,-0.303796,-1.468793,-1.095820,-0.836380,1.251448,-1.574798,0.746841,10.448158,2.521790,8.254062,-0.101612,0.137096,0.000000,-0.153576,-0.105308,0.000000
3.120000,0.954837,0.962505,-1.203679,2.028284,-0.336457,-0.312122,-1.455755,-1.111442,-0.828499,1.354515,-1.547126,0.831516,10.137222,3.039293,8.690663,-0.103142,0.135994,0.000000,-0.152166,-0.113875,0.000000
3.130000,0.975047,0.959085,-1.206842,2.013795,-0.347649,-0.320366,-1.441702,-1.126762,-0.819750,1.454192,-1.514012,0.920654,9.782749,3.590981,9.130017,-0.104655,0.134806,0.000000,-0.150328,-0.122126,-0.000000
3.140000,0.995113,0.955552,-1.210086,1.999450,-0.358992,-0.328517,-1.426671,-1.141722,-0.810086,1.550170,-1.475307,1.014117,9.413166,4.139144,9.539952,-0.106148,0.133538,0.000000,-0.148045,-0.130042,0.000000
3.150000,1.015036,0.951905,-1.213412,1.985261,-0.370483,-0.336568,-1.410699,-1.156268,-0.799467,1.642455,-1.431229,1.111453,9.040643,4.676943,9.916462,-0.107616,0.132191,0.000000,-0.145334,-0.137632,-0.000000
3.160000,1.034818,0.948143,-1.216818,1.971236,-0.382117,-0.344507,-1.393822,-1.170347,-0.787857,1.730983,-1.381768,1.212446,8.644551,5.228654,10.277809,-0.109055,0.130769,0.000000,-0.142189,-0.144900,0.000000
3.170000,1.054461,0.944263,-1.220302,1.957385,-0.393890,-0.352325,-1.376079,-1.183904,-0.775218,1.815346,-1.326656,1.317009,8.192012,5.808652,10.624333,-0.110460,0.129275,0.000000,-0.138582,-0.151811,-0.000000
3.180000,1.073966,0.940265,-1.223864,1.943715,-0.405795,-0.360011,-1.357515,-1.196880,-0.761517,1.894823,-1.265595,1.424932,7.686769,6.409472,10.946530,-0.111827,0.127714,0.000000,-0.134480,-0.158308,-0.000000
3.190000,1.093335,0.936147,-1.227502,1.930235,-0.417828,-0.367555,-1.338183,-1.209216,-0.746720,1.969082,-1.198467,1.535940,7.172489,7.011118,11.240969,-0.113150,0.126089,0.000000,-0.129864,-0.164365,-0.000000
3.200000,1.112571,0.931908,-1.231215,1.916951,-0.429980,-0.374945,-1.318134,-1.220849,-0.730798,2.038273,-1.125372,1.649752,6.667170,7.600168,11.509608,-0.114424,0.124405,0.000000,-0.124737,-0.170003,0.000000
3.210000,1.131674,0.927548,-1.235001,1.903872,-0.442245,-0.382171,-1.297417,-1.231723,-0.713725,2.102425,-1.046463,1.766132,6.140384,8.189103,11.750772,-0.115645,0.122666,0.000000,-0.119105,-0.175230,0.000000
3.220000,1.150648,0.923064,-1.238859,1.891003,-0.454614,-0.389220,-1.276085,-1.241779,-0.695475,2.161081,-0.961590,1.884767,5.547384,8.812065,11.953103,-0.116806,0.120876,0.000000,-0.112944,-0.180008,0.000000
3.230000,1.169494,0.918455,-1.242786,1.878350,-0.467080,-0.396080,-1.254196,-1.250955,-0.676029,2.213373,-0.870222,2.005194,4.895647,9.465712,12.112984,-0.117904,0.119041,0.000000,-0.106191,-0.184264,-0.000000
3.240000,1.188215,0.913722,-1.246780,1.865919,-0.479633,-0.402741,-1.231818,-1.259183,-0.655371,2.258994,-0.772276,2.127027,4.245556,10.100926,12.241516,-0.118930,0.117165,0.000000,-0.098826,-0.187971,0.000000
3.250000,1.206813,0.908863,-1.250841,1.853714,-0.492264,-0.409188,-1.209016,-1.266400,-0.633489,2.298284,-0.668203,2.250024,3.617089,10.702544,12.345969,-0.119880,0.115254,0.000000,-0.090877,-0.191164,0.000000
3.260000,1.225289,0.903877,-1.254964,1.841739,-0.504961,-0.415410,-1.185852,-1.272547,-0.610371,2.331336,-0.558225,2.373946,2.969763,11.301993,12.414851,-0.120748,0.113314,0.000000,-0.082354,-0.193852,0.000000
3.270000,1.243647,0.898763,-1.259149,1.829997,-0.517715,-0.421395,-1.162389,-1.277565,-0.586010,2.357679,-0.442164,2.498321,2.257827,11.928560,12.422346,-0.121527,0.111349,0.000000,-0.073222,-0.195992,-0.000000
3.280000,1.261889,0.893522,-1.263392,1.818491,-0.530513,-0.427131,-1.138698,-1.281391,-0.560405,2.376492,-0.319654,2.622393,1.493658,12.571844,12.366992,-0.122212,0.109365,0.000000,-0.063425,-0.197511,-0.000000
3.290000,1.280017,0.888153,-1.267691,1.807223,-0.543343,-0.432603,-1.114859,-1.283958,-0.533562,2.387552,-0.190727,2.745661,0.739662,13.189828,12.279698,-0.122795,0.107368,0.000000,-0.052946,-0.198387,-0.000000
3.300000,1.298034,0.882656,-1.272044,1.796194,-0.556192,-0.437802,-1.090947,-1.285205,-0.505491,2.391285,-0.055857,2.867987,0.012554,13.765064,12.176917,-0.123271,0.105366,0.000000,-0.041813,-0.198653,0.000000
3.310000,1.315941,0.877029,-1.276447,1.785404,-0.569047,-0.442713,-1.067034,-1.285075,-0.476202,2.387804,0.084575,2.989199,-0.727847,14.323306,12.033817,-0.123631,0.103365,0.000000,-0.030046,-0.198315,0.000000
3.320000,1.333742,0.871275,-1.280898,1.774853,-0.581893,-0.447326,-1.043191,-1.283514,-0.445707,2.376728,0.230609,3.108664,-1.516311,14.902550,11.802299,-0.123871,0.101369,0.000000,-0.017615,-0.197333,0.000000
3.330000,1.351438,0.865391,-1.285394,1.764540,-0.594717,-0.451627,-1.019499,-1.280463,-0.414029,2.357477,0.382626,3.225245,-2.340877,15.489216,11.483924,-0.123983,0.099387,0.000000,-0.004455,-0.195652,0.000000
3.340000,1.369033,0.859380,-1.289931,1.754463,-0.607503,-0.455606,-0.996042,-1.275861,-0.381202,2.329911,0.540393,3.338342,-3.152213,16.028764,11.140635,-0.123960,0.097426,0.000000,0.009441,-0.193250,0.000000
3.350000,1.386527,0.853241,-1.294506,1.744619,-0.620234,-0.459251,-0.972901,-1.269655,-0.347262,2.294433,0.703201,3.448058,-3.922410,16.536961,10.802471,-0.123794,0.095492,0.000000,0.024020,-0.190151,-0.000000
3.360000,1.403925,0.846976,-1.299116,1.735005,-0.632896,-0.462552,-0.950153,-1.261797,-0.312241,2.251463,0.871132,3.554391,-4.682629,17.044433,10.424002,-0.123479,0.093594,0.000000,0.039310,-0.186381,0.000000
3.370000,1.421227,0.840584,-1.303757,1.725616,-0.645470,-0.465496,-0.927872,-1.252232,-0.276174,2.200780,1.044090,3.656538,-5.500183,17.488194,9.925489,-0.123007,0.091736,0.000000,0.055331,-0.181911,0.000000
3.380000,1.438437,0.834066,-1.308426,1.716448,-0.657940,-0.468075,-0.906137,-1.240915,-0.239110,2.141459,1.220896,3.752901,-6.361335,17.855337,9.316256,-0.122372,0.089928,0.000000,0.072009,-0.176646,0.000000
3.390000,1.455556,0.827425,-1.313119,1.707493,-0.670288,-0.470278,-0.885042,-1.227814,-0.201116,2.073554,1.401196,3.842863,-7.170618,18.229133,8.701919,-0.121566,0.088177,0.000000,0.089335,-0.170578,-0.000000
3.400000,1.472587,0.820660,-1.317831,1.698747,-0.682497,-0.472097,-0.864666,-1.212891,-0.162253,1.998047,1.585479,3.926940,-7.932234,18.592668,8.112613,-0.120584,0.086491,0.000000,0.107369,-0.163778,0.000000
3.410000,1.489531,0.813775,-1.322561,1.690200,-0.694546,-0.473524,-0.845081,-1.196105,-0.122578,1.914909,1.773050,4.005116,-8.704274,18.887447,7.475778,-0.119418,0.084877,0.000000,0.126061,-0.156224,0.000000
3.420000,1.506391,0.806769,-1.327302,1.681845,-0.706419,-0.474549,-0.826368,-1.177430,-0.082151,1.823961,1.963228,4.076455,-9.446732,19.177864,6.722224,-0.118062,0.083344,0.000000,0.145374,-0.147884,-0.000000
3.430000,1.523168,0.799646,-1.332052,1.673673,-0.718095,-0.475167,-0.808602,-1.156840,-0.041048,1.725974,2.156607,4.139560,-10.133507,19.483803,5.870833,-0.116510,0.081899,0.000000,0.165398,-0.138825,0.000000
3.440000,1.539865,0.792408,-1.336805,1.665673,-0.729555,-0.475370,-0.791849,-1.134298,0.000640,1.621291,2.352904,4.193872,-10.817909,19.706101,5.013441,-0.114753,0.080549,0.000000,0.186126,-0.129066,0.000000
3.450000,1.556482,0.785055,-1.341559,1.657836,-0.740781,-0.475154,-0.776176,-1.109782,0.042829,1.509616,2.550729,4.239829,-11.506298,19.831673,4.192519,-0.112786,0.079301,0.000000,0.207430,-0.118553,0.000000
3.460000,1.573021,0.777592,-1.346308,1.650150,-0.751751,-0.474513,-0.761656,-1.083284,0.085437,1.391165,2.749537,4.277722,-12.156712,19.924084,3.346107,-0.110603,0.078163,0.000000,0.229259,-0.107282,0.000000
3.470000,1.589485,0.770020,-1.351049,1.642603,-0.762447,-0.473445,-0.748353,-1.054792,0.128383,1.266482,2.949211,4.306751,-12.760491,19.981010,2.366762,-0.108200,0.077143,0.000000,0.251620,-0.095295,-0.000000
3.480000,1.605873,0.762343,-1.355777,1.635182,-0.772847,-0.471946,-0.736327,-1.024299,0.171572,1.135955,3.149157,4.325057,-13.328183,19.967688,1.270281,-0.105570,0.076247,0.000000,0.274476,-0.082629,0.000000
3.490000,1.622188,0.754563,-1.360488,1.627876,-0.782932,-0.470014,-0.725634,-0.991808,0.214885,0.999918,3.348564,4.332157,-13.861534,19.889061,0.205231,-0.102709,0.075482,0.000000,0.297750,-0.069301,0.000000
3.500000,1.638431,0.746684,-1.365177,1.620670,-0.792683,-0.467648,-0.716328,-0.957328,0.258215,0.858725,3.546939,4.329162,-14.357880,19.809819,-0.781010,-0.099614,0.074854,0.000000,0.321373,-0.055324,0.000000
3.510000,1.654602,0.738710,-1.369841,1.613549,-0.802079,-0.464849,-0.708460,-0.920870,0.301468,0.712761,3.744761,4.316536,-14.811832,19.716113,-1.786162,-0.096280,0.074370,0.000000,0.345384,-0.040720,0.000000
3.520000,1.670702,0.730643,-1.374474,1.606501,-0.811101,-0.461619,-0.702073,-0.882433,0.344546,0.562488,3.941261,4.293439,-15.215669,19.421666,-2.911674,-0.092705,0.074037,0.000000,0.369700,-0.025530,-0.000000
3.530000,1.686732,0.722488,-1.379073,1.599508,-0.819728,-0.457958,-0.697210,-0.842044,0.387337,0.408447,4.133194,4.258303,-15.560830,18.921520,-4.121653,-0.088885,0.073858,0.000000,0.393979,-0.009816,-0.000000
3.540000,1.702692,0.714248,-1.383634,1.592556,-0.827941,-0.453872,-0.693904,-0.799769,0.429712,0.251271,4.319691,4.211006,-15.853115,18.467078,-5.276533,-0.084824,0.073840,0.000000,0.418099,0.006364,0.000000
3.550000,1.718583,0.705929,-1.388151,1.585630,-0.835723,-0.449364,-0.692184,-0.755651,0.471557,0.091385,4.502536,4.152772,-16.139223,18.083842,-6.367504,-0.080522,0.073987,0.000000,0.442204,0.022975,0.000000
3.560000,1.734405,0.697534,-1.392621,1.578713,-0.843054,-0.444441,-0.692077,-0.709718,0.512767,-0.071513,4.681368,4.083656,-16.407124,17.600019,-7.479985,-0.075979,0.074302,0.000000,0.466222,0.040050,-0.000000
3.570000,1.750157,0.689068,-1.397040,1.571788,-0.849917,-0.439109,-0.693615,-0.662023,0.553230,-0.236757,4.854536,4.003173,-16.513585,16.994088,-8.605426,-0.071197,0.074791,0.000000,0.489939,0.057511,-0.000000
3.580000,1.765840,0.680535,-1.401403,1.564840,-0.856295,-0.433376,-0.696812,-0.612628,0.592831,-0.401785,5.021250,3.911547,-16.453006,16.321706,-9.706749,-0.066180,0.075456,0.000000,0.513218,0.075079,-0.000000
3.590000,1.781454,0.671942,-1.405707,1.557852,-0.862170,-0.427252,-0.701650,-0.561598,0.631461,-0.565818,5.180970,3.809038,-16.418077,15.597946,-10.792390,-0.060932,0.076296,0.000000,0.535944,0.092655,-0.000000
3.600000,1.796997,0.663292,-1.409948,1.550807,-0.867527,-0.420747,-0.708128,-0.509008,0.669011,-0.730146,5.333209,3.695699,-16.440277,14.844405,-11.866113,-0.055461,0.077313,0.000000,0.558006,0.110363,-0.000000
3.610000,1.812470,0.654591,-1.414122,1.543690,-0.872350,-0.413872,-0.716253,-0.454934,0.705375,-0.894623,5.477858,3.571715,-16.386303,14.051502,-12.912425,-0.049772,0.078507,0.000000,0.579327,0.128169,0.000000
3.620000,1.827871,0.645845,-1.418226,1.536482,-0.876626,-0.406639,-0.726020,-0.399451,0.740446,-1.057873,5.614239,3.437451,-16.203706,13.137462,-13.916716,-0.043874,0.079880,0.000000,0.599764,0.145903,0.000000
3.630000,1.843200,0.637059,-1.422255,1.529169,-0.880339,-0.399063,-0.737411,-0.342649,0.774124,-1.218697,5.740607,3.293381,-15.934783,12.097732,-14.877582,-0.037777,0.081429,0.000000,0.619052,0.163412,-0.000000
3.640000,1.858455,0.628238,-1.426207,1.521734,-0.883479,-0.391157,-0.750394,-0.284639,0.806313,-1.376568,5.856193,3.139899,-15.639809,11.047778,-15.802422,-0.031494,0.083151,0.000000,0.637030,0.180609,-0.000000
3.650000,1.873634,0.619389,-1.430078,1.514161,-0.886032,-0.382937,-0.764942,-0.225525,0.836922,-1.531493,5.961563,2.977333,-15.334596,10.042229,-16.686294,-0.025037,0.085043,0.000000,0.653685,0.197465,-0.000000
3.660000,1.888738,0.610518,-1.433866,1.506435,-0.887989,-0.374419,-0.781024,-0.165408,0.865860,-1.683260,6.057038,2.806173,-14.979174,9.002038,-17.516204,-0.018421,0.087102,0.000000,0.668977,0.213926,-0.000000
3.670000,1.903763,0.601629,-1.437566,1.498541,-0.889340,-0.365620,-0.798607,-0.104385,0.893045,-1.831077,6.141604,2.627008,-14.523819,7.799350,-18.288297,-0.011659,0.089322,0.000000,0.682722,0.229873,0.000000
3.680000,1.918709,0.592731,-1.441178,1.490463,-0.890077,-0.356558,-0.817646,-0.042576,0.918400,-1.973736,6.213025,2.440407,-13.978593,6.454372,-18.992957,-0.004768,0.091699,0.000000,0.694599,0.245141,0.000000
3.690000,1.933572,0.583828,-1.444698,1.482188,-0.890192,-0.347252,-0.838082,0.019876,0.941853,-2.110649,6.270691,2.247149,-13.410896,5.143170,-19.625315,0.002231,0.094225,0.000000,0.704473,0.259631,-0.000000
3.700000,1.948352,0.574927,-1.448123,1.473701,-0.889679,-0.337721,-0.859859,0.082838,0.963343,-2.241954,6.315888,2.047901,-12.847403,3.924422,-20.236647,0.009320,0.096892,0.000000,0.712429,0.273330,-0.000000
3.710000,1.963046,0.566034,-1.451452,1.464991,-0.888535,-0.327985,-0.882921,0.146194,0.982811,-2.367597,6.349180,1.842416,-12.243105,2.682038,-20.817964,0.016478,0.099691,0.000000,0.718477,0.286191,-0.000000
3.720000,1.977652,0.557156,-1.454683,1.456043,-0.886755,-0.318064,-0.907211,0.209822,1.000192,-2.486816,6.369529,1.631542,-11.534535,1.287398,-21.201223,0.023687,0.102616,0.000000,0.722456,0.298103,-0.000000
3.730000,1.992167,0.548299,-1.457813,1.446847,-0.884338,-0.307981,-0.932657,0.273584,1.015442,-2.598287,6.374928,1.418392,-10.733505,-0.215853,-21.367881,0.030925,0.105654,0.000000,0.724112,0.308923,-0.000000
3.740000,2.006589,0.539470,-1.460842,1.437390,-0.881284,-0.297756,-0.959176,0.337320,1.028559,-2.701487,6.365212,1.204184,-9.928083,-1.651245,-21.542536,0.038167,0.108796,0.000000,0.723414,0.318578,-0.000000
3.750000,2.020915,0.530674,-1.463768,1.427663,-0.877592,-0.287410,-0.986687,0.400888,1.039526,-2.796849,6.341903,0.987541,-9.153225,-3.017657,-21.818514,0.045391,0.112030,0.000000,0.720519,0.327080,-0.000000
3.760000,2.035142,0.521918,-1.466591,1.417656,-0.873266,-0.276965,-1.015113,0.464158,1.048310,-2.884551,6.304859,0.767814,-8.351199,-4.423041,-22.032974,0.052575,0.115344,0.000000,0.715401,0.334418,-0.000000
3.770000,2.049268,0.513208,-1.469308,1.407361,-0.868309,-0.266443,-1.044378,0.526986,1.054882,-2.963873,6.253442,0.546882,-7.442226,-5.828285,-21.956189,0.059697,0.118727,0.000000,0.708005,0.340520,0.000000
3.780000,2.063290,0.504552,-1.471919,1.396769,-0.862726,-0.255867,-1.074391,0.589227,1.059248,-3.033396,6.188293,0.328690,-6.446748,-7.191814,-21.633313,0.066733,0.122166,0.000000,0.698453,0.345269,0.000000
3.790000,2.077204,0.495954,-1.474425,1.385873,-0.856524,-0.245259,-1.105046,0.650752,1.061456,-3.092808,6.109606,0.114215,-5.475878,-8.562986,-21.364190,0.073664,0.125647,0.000000,0.686816,0.348646,-0.000000
3.800000,2.091007,0.487421,-1.476825,1.374668,-0.849711,-0.234638,-1.136247,0.711419,1.061532,-3.142913,6.017034,-0.098594,-4.542774,-9.909055,-21.183404,0.080468,0.129157,0.000000,0.673082,0.350715,0.000000
3.810000,2.104697,0.478959,-1.479118,1.363148,-0.842296,-0.224028,-1.167904,0.771092,1.059484,-3.183664,5.911425,-0.309453,-3.578195,-11.188540,-20.889433,0.087124,0.132683,0.000000,0.657396,0.351483,0.000000
3.820000,2.118270,0.470575,-1.481305,1.351310,-0.834289,-0.213449,-1.199920,0.829648,1.055343,-3.214477,5.793263,-0.516382,-2.572824,-12.501375,-20.428797,0.093614,0.136212,0.000000,0.639891,0.350924,0.000000
3.830000,2.131723,0.462274,-1.483387,1.339150,-0.825703,-0.202921,-1.232194,0.886957,1.049156,-3.235120,5.661397,-0.718029,-1.553288,-13.846400,-19.865576,0.099920,0.139731,0.000000,0.620518,0.349054,-0.000000
3.840000,2.145053,0.454061,-1.485364,1.326666,-0.816550,-0.192465,-1.264623,0.942876,1.040982,-3.245543,5.516335,-0.913694,-0.535064,-15.071168,-19.260473,0.106023,0.143227,0.000000,0.599413,0.345900,0.000000
3.850000,2.158256,0.445943,-1.487236,1.313857,-0.806845,-0.182101,-1.297105,0.997284,1.030883,-3.245821,5.359974,-1.103238,0.465058,-16.238798,-18.659074,0.111908,0.146688,0.000000,0.576867,0.341502,0.000000
3.860000,2.171330,0.437924,-1.489006,1.300724,-0.796604,-0.171848,-1.329539,1.050075,1.018918,-3.236242,5.191559,-1.286875,1.451384,-17.435429,-18.022732,0.117560,0.150100,0.000000,0.552866,0.335918,-0.000000
3.870000,2.184271,0.430011,-1.490673,1.287266,-0.785844,-0.161723,-1.361830,1.101115,1.005145,-3.216794,5.011265,-1.463693,2.464830,-18.415097,-17.213193,0.122965,0.153452,0.000000,0.527517,0.329192,-0.000000
3.880000,2.197075,0.422207,-1.492240,1.273487,-0.774582,-0.151745,-1.393875,1.150301,0.989644,-3.186945,4.823257,-1.631139,3.498470,-19.120101,-16.238176,0.128110,0.156733,0.000000,0.501392,0.321346,0.000000
3.890000,2.209741,0.414519,-1.493708,1.259389,-0.762838,-0.141930,-1.425568,1.197580,0.972522,-3.146824,4.628863,-1.788456,4.487258,-19.887162,-15.293047,0.132993,0.159932,0.000000,0.474719,0.312447,-0.000000
3.900000,2.222263,0.406950,-1.495079,1.244976,-0.750631,-0.132294,-1.456812,1.242878,0.953875,-3.097200,4.425514,-1.937000,5.433357,-20.826814,-14.431116,0.137605,0.163038,0.000000,0.447262,0.302592,0.000000
3.910000,2.234640,0.399506,-1.496354,1.230253,-0.737980,-0.122853,-1.487512,1.286091,0.933782,-3.038157,4.212327,-2.077079,6.372459,-21.696229,-13.524698,0.141938,0.166041,0.000000,0.418982,0.291822,0.000000
3.920000,2.246868,0.392191,-1.497536,1.215225,-0.724909,-0.113619,-1.517575,1.327124,0.912333,-2.969751,3.991589,-2.207494,7.268249,-22.249844,-12.473360,0.145985,0.168933,0.000000,0.390209,0.280201,0.000000
3.930000,2.258945,0.385008,-1.498626,1.199901,-0.711438,-0.104606,-1.546907,1.365923,0.889632,-2.892792,3.767330,-2.326546,8.092490,-22.564185,-11.326774,0.149743,0.171705,0.000000,0.361454,0.267884,0.000000
3.940000,2.270866,0.377962,-1.499628,1.184287,-0.697590,-0.095826,-1.575431,1.402471,0.865802,-2.807901,3.540305,-2.434030,8.890773,-22.949672,-10.222713,0.153215,0.174352,0.000000,0.332841,0.254975,-0.000000
3.950000,2.282630,0.371056,-1.500543,1.168392,-0.683388,-0.087290,-1.603065,1.436729,0.840952,-2.714977,3.308337,-2.531000,9.728760,-23.398349,-9.158091,0.156401,0.176865,0.000000,0.304156,0.241475,0.000000
3.960000,2.294234,0.364294,-1.501374,1.152226,-0.668856,-0.079007,-1.629730,1.468638,0.815182,-2.613326,3.072338,-2.617191,10.563102,-23.703887,-8.052205,0.159299,0.179241,0.000000,0.275534,0.227344,-0.000000
3.970000,2.305675,0.357679,-1.502123,1.135798,-0.654016,-0.070986,-1.655332,1.498175,0.788608,-2.503715,2.834259,-2.692044,11.204937,-23.922881,-6.947901,0.161912,0.181471,0.000000,0.247214,0.212701,0.000000
3.980000,2.316950,0.351214,-1.502793,1.119119,-0.638892,-0.063235,-1.679804,1.525323,0.761341,-2.389227,2.593881,-2.756149,11.654649,-24.118055,-5.886148,0.164244,0.183552,0.000000,0.219170,0.197885,-0.000000
3.990000,2.328057,0.344901,-1.503388,1.102202,-0.623509,-0.055759,-1.703117,1.550053,0.733485,-2.270622,2.351898,-2.809767,12.162526,-24.195870,-4.813500,0.166297,0.185483,0.000000,0.191477,0.182985,-0.000000
4.000000,2.338994,0.338744,-1.503908,1.085057,-0.607891,-0.048565,-1.725217,1.572361,0.705146,-2.145976,2.109963,-2.852419,12.775400,-24.223211,-3.702049,0.168075,0.187263,0.000000,0.164328,0.167823,0.000000
4.010000,2.349758,0.332744,-1.504359,1.067697,-0.592062,-0.041657,-1.746036,1.592252,0.676437,-2.015114,1.867433,-2.883808,13.318771,-24.259562,-2.600872,0.169584,0.188888,0.000000,0.137661,0.152400,0.000000
4.020000,2.360348,0.326903,-1.504742,1.050136,-0.576046,-0.035037,-1.765519,1.609710,0.647470,-1.879601,1.624772,-2.904437,13.701155,-24.062498,-1.588289,0.170829,0.190356,0.000000,0.111505,0.136880,0.000000
4.030000,2.370761,0.321223,-1.505060,1.032387,-0.559868,-0.028707,-1.783628,1.624748,0.618348,-1.741091,1.386183,-2.915574,13.976436,-23.601906,-0.664503,0.171816,0.191667,0.000000,0.086258,0.121414,-0.000000
4.040000,2.380996,0.315705,-1.505316,1.014464,-0.543551,-0.022670,-1.800341,1.637433,0.589158,-1.600072,1.152734,-2.917727,14.253768,-23.220415,0.263649,0.172555,0.192821,0.000000,0.062001,0.106044,0.000000
4.050000,2.391050,0.310352,-1.505513,0.996380,-0.527119,-0.016924,-1.815630,1.647802,0.559993,-1.456015,0.921775,-2.910301,14.555484,-22.965560,1.253447,0.173057,0.193820,0.000000,0.038452,0.090726,0.000000
4.060000,2.400923,0.305163,-1.505654,0.978151,-0.510595,-0.011470,-1.829461,1.655869,0.530952,-1.308963,0.693423,-2.892658,14.808119,-22.607709,2.229889,0.173325,0.194664,0.000000,0.015615,0.075477,0.000000
4.070000,2.410613,0.300140,-1.505742,0.959791,-0.494002,-0.006305,-1.841809,1.661671,0.502140,-1.159853,0.469621,-2.865703,14.947494,-22.104503,3.024752,0.173370,0.195353,0.000000,-0.006353,0.060369,-0.000000
4.080000,2.420119,0.295283,-1.505780,0.941315,-0.477362,-0.001427,-1.852658,1.665261,0.473638,-1.010013,0.251333,-2.832163,14.996154,-21.541648,3.648201,0.173199,0.195890,0.000000,-0.027429,0.045477,-0.000000
4.090000,2.429440,0.290593,-1.505771,0.922738,-0.460697,0.003168,-1.862009,1.666697,0.445497,-0.859930,0.038788,-2.792739,15.037730,-20.964329,4.318108,0.172822,0.196277,0.000000,-0.047631,0.030827,-0.000000
4.100000,2.438574,0.286069,-1.505717,0.904075,-0.444028,0.007483,-1.869857,1.666037,0.417784,-0.709258,-0.167954,-2.745801,15.088405,-20.354974,5.084926,0.172247,0.196516,0.000000,-0.066949,0.016407,-0.000000
4.110000,2.447521,0.281712,-1.505621,0.885341,-0.427376,0.011524,-1.876194,1.663338,0.390581,-0.558162,-0.368311,-2.691040,15.093448,-19.693964,5.794643,0.171483,0.196610,0.000000,-0.085343,0.002229,-0.000000
4.120000,2.456281,0.277521,-1.505487,0.866551,-0.410761,0.015295,-1.881020,1.658671,0.363963,-0.407389,-0.561833,-2.629908,15.018826,-19.024740,6.331095,0.170540,0.196562,0.000000,-0.102824,-0.011672,-0.000000
4.130000,2.464852,0.273497,-1.505315,0.847720,-0.394202,0.018803,-1.884342,1.652102,0.337983,-0.257785,-0.748806,-2.564419,14.884374,-18.362766,6.737991,0.169427,0.196374,0.000000,-0.119481,-0.025263,0.000000
4.140000,2.473235,0.269637,-1.505110,0.828864,-0.377719,0.022054,-1.886176,1.643695,0.312674,-0.109702,-0.929088,-2.495148,14.735510,-17.655355,7.159203,0.168151,0.196050,0.000000,-0.135333,-0.038533,-0.000000
4.150000,2.481430,0.265942,-1.504874,0.809997,-0.361329,0.025056,-1.886536,1.633520,0.288080,0.036925,-1.101913,-2.421235,14.575564,-16.886889,7.629567,0.166720,0.195593,0.000000,-0.150311,-0.051484,-0.000000
4.160000,2.489435,0.262411,-1.504609,0.791133,-0.345049,0.027816,-1.885437,1.621656,0.264250,0.181810,-1.266826,-2.342557,14.377482,-16.100915,8.050259,0.165145,0.195006,0.000000,-0.164390,-0.064098,0.000000
4.170000,2.497252,0.259041,-1.504318,0.772288,-0.328895,0.030341,-1.882900,1.608183,0.241229,0.324475,-1.423932,-2.260229,14.140668,-15.341719,8.329805,0.163433,0.194293,0.000000,-0.177621,-0.076362,-0.000000
4.180000,2.504881,0.255833,-1.504003,0.753475,-0.312885,0.032641,-1.878948,1.593178,0.219045,0.464623,-1.573661,-2.175961,13.877565,-14.602788,8.497393,0.161592,0.193458,0.000000,-0.190092,-0.088292,0.000000
4.190000,2.512322,0.252784,-1.503665,0.734709,-0.297032,0.034722,-1.873607,1.576710,0.197709,0.602026,-1.715987,-2.090281,13.590861,-13.834470,8.671510,0.159631,0.192504,0.000000,-0.201827,-0.099887,0.000000
4.200000,2.519575,0.249892,-1.503308,0.716003,-0.281351,0.036595,-1.866907,1.558858,0.177239,0.736440,-1.850350,-2.002530,13.277693,-13.018785,8.876540,0.157556,0.191435,0.000000,-0.212773,-0.111122,-0.000000
4.210000,2.526642,0.247157,-1.502933,0.697371,-0.265855,0.038267,-1.858879,1.539703,0.157659,0.867580,-1.976363,-1.912751,12.940206,-12.195715,9.033765,0.155375,0.190254,0.000000,-0.222907,-0.121979,-0.000000
4.220000,2.533523,0.244575,-1.502543,0.678826,-0.250557,0.039748,-1.849556,1.519331,0.138984,0.995244,-2.094264,-1.821855,12.590586,-11.423427,9.089421,0.153097,0.188966,0.000000,-0.232278,-0.132468,-0.000000
4.230000,2.540218,0.242146,-1.502138,0.660380,-0.235468,0.041047,-1.838974,1.497818,0.121222,1.119392,-2.204832,-1.730962,12.232047,-10.695859,9.071085,0.150729,0.187573,0.000000,-0.240991,-0.142612,0.000000
4.240000,2.546730,0.239866,-1.501722,0.642046,-0.220600,0.042172,-1.827168,1.475234,0.104365,1.239885,-2.308182,-1.640433,11.852173,-9.942304,9.049435,0.148277,0.186081,0.000000,-0.249069,-0.152415,0.000000
4.250000,2.553059,0.237734,-1.501295,0.623836,-0.205963,0.043134,-1.814176,1.451654,0.088413,1.356435,-2.403678,-1.549974,11.444373,-9.144909,9.029457,0.145748,0.184491,0.000000,-0.256452,-0.161850,0.000000
4.260000,2.559207,0.235747,-1.500859,0.605763,-0.191567,0.043941,-1.800039,1.427160,0.073366,1.468773,-2.491080,-1.459844,11.020773,-8.356363,8.967658,0.143148,0.182809,0.000000,-0.263126,-0.170901,0.000000
4.270000,2.565174,0.233902,-1.500416,0.587836,-0.177420,0.044601,-1.784801,1.401833,0.059216,1.576851,-2.570805,-1.370620,10.604518,-7.626266,8.861859,0.140485,0.181038,0.000000,-0.269143,-0.179581,0.000000
4.280000,2.570964,0.232198,-1.499967,0.570067,-0.163530,0.045125,-1.768502,1.375744,0.045953,1.680863,-2.643605,-1.282607,10.195544,-6.942007,8.730763,0.137765,0.179181,0.000000,-0.274584,-0.187919,-0.000000
4.290000,2.576576,0.230632,-1.499514,0.552466,-0.149905,0.045520,-1.751183,1.348961,0.033564,1.780761,-2.709645,-1.196005,9.766735,-6.244122,8.578441,0.134993,0.177243,0.000000,-0.279469,-0.195919,0.000000
4.300000,2.582013,0.229200,-1.499057,0.535043,-0.136551,0.045796,-1.732887,1.321551,0.022033,1.876198,-2.768487,-1.111038,9.309697,-5.520711,8.400485,0.132175,0.175227,0.000000,-0.283757,-0.203553,-0.000000
4.310000,2.587277,0.227901,-1.498598,0.517808,-0.123474,0.045961,-1.713659,1.293591,0.011343,1.966955,-2.820059,-1.027995,8.845934,-4.814945,8.199001,0.129318,0.173136,0.000000,-0.287445,-0.210808,-0.000000
4.320000,2.592369,0.226731,-1.498137,0.500770,-0.110679,0.046023,-1.693548,1.265150,0.001473,2.053116,-2.864786,-0.947058,8.400844,-4.160778,7.989882,0.126426,0.170975,0.000000,-0.290575,-0.217697,-0.000000
4.330000,2.597292,0.225687,-1.497677,0.483937,-0.098171,0.045990,-1.672597,1.236295,-0.007598,2.134972,-2.903275,-0.868198,7.970424,-3.547504,7.777278,0.123506,0.168747,0.000000,-0.293202,-0.224250,-0.000000
4.340000,2.602048,0.224767,-1.497218,0.467318,-0.085954,0.045871,-1.650848,1.207085,-0.015891,2.212525,-2.935736,-0.791513,7.524567,-2.934756,7.544349,0.120562,0.166455,0.000000,-0.295345,-0.230469,0.000000
4.350000,2.606638,0.223968,-1.496760,0.450920,-0.074030,0.045673,-1.628346,1.177580,-0.023428,2.285464,-2.961970,-0.717311,7.057009,-2.311119,7.281689,0.117599,0.164104,0.000000,-0.296985,-0.236328,-0.000000
4.360000,2.611066,0.223286,-1.496304,0.434751,-0.062402,0.045403,-1.605139,1.147845,-0.030237,2.353665,-2.981959,-0.645879,6.590367,-1.705959,7.005159,0.114622,0.161696,0.000000,-0.298118,-0.241820,-0.000000
4.370000,2.615333,0.222720,-1.495852,0.418817,-0.051073,0.045068,-1.581273,1.117941,-0.036346,2.417271,-2.996089,-0.577208,6.143174,-1.152685,6.746181,0.111636,0.159235,0.000000,-0.298778,-0.246958,-0.000000
4.380000,2.619443,0.222265,-1.495403,0.403125,-0.040043,0.044676,-1.556794,1.087924,-0.041781,2.476529,-3.005013,-0.510955,5.710390,-0.643990,6.504649,0.108646,0.156726,0.000000,-0.299018,-0.251757,0.000000
4.390000,2.623396,0.221919,-1.494958,0.387681,-0.029314,0.044232,-1.531743,1.057841,-0.046565,2.531479,-3.008969,-0.447115,5.270665,-0.137962,6.242807,0.105656,0.154170,0.000000,-0.298858,-0.256222,-0.000000
4.400000,2.627196,0.221679,-1.494518,0.372491,-0.018886,0.043744,-1.506164,1.027744,-0.050723,2.581942,-3.007772,-0.386099,4.817856,0.372943,5.947173,0.102669,0.151572,0.000000,-0.298277,-0.260338,0.000000
4.410000,2.630846,0.221541,-1.494083,0.357558,-0.008759,0.043218,-1.480104,0.997686,-0.054287,2.627836,-3.001510,-0.328171,4.368137,0.859416,5.647110,0.099690,0.148936,0.000000,-0.297282,-0.264097,0.000000
4.420000,2.634347,0.221504,-1.493654,0.342888,0.001067,0.042659,-1.453607,0.967714,-0.057287,2.669305,-2.990583,-0.273157,3.940723,1.303290,5.381555,0.096723,0.146264,0.000000,-0.295903,-0.267510,-0.000000
4.430000,2.637704,0.221563,-1.493230,0.328486,0.010595,0.042072,-1.426718,0.937874,-0.059750,2.706650,-2.975444,-0.220540,3.532288,1.713024,5.145033,0.093772,0.143560,0.000000,-0.294174,-0.270594,-0.000000
4.440000,2.640917,0.221715,-1.492812,0.314354,0.019825,0.041464,-1.399474,0.908205,-0.061698,2.739950,-2.956323,-0.170256,3.119329,2.110529,4.889567,0.090839,0.140828,0.000000,-0.292113,-0.273353,-0.000000
4.450000,2.643991,0.221959,-1.492401,0.300496,0.028759,0.040838,-1.371919,0.878747,-0.063155,2.769037,-2.933234,-0.122749,2.696369,2.501718,4.602972,0.087929,0.138070,0.000000,-0.289718,-0.275774,0.000000
4.460000,2.646927,0.222291,-1.491996,0.286916,0.037400,0.040200,-1.344094,0.849540,-0.064153,2.793878,-2.906289,-0.078197,2.280529,2.871441,4.320282,0.085045,0.135291,0.000000,-0.286997,-0.277852,-0.000000
4.470000,2.649729,0.222707,-1.491597,0.273615,0.045750,0.039555,-1.316041,0.820622,-0.064719,2.814647,-2.875805,-0.036343,1.886656,3.202994,4.074197,0.082189,0.132493,0.000000,-0.283973,-0.279596,-0.000000
4.480000,2.652399,0.223206,-1.491205,0.260595,0.053812,0.038906,-1.287801,0.792024,-0.064879,2.831611,-2.842229,0.003287,1.510389,3.500358,3.856013,0.079365,0.129680,0.000000,-0.280682,-0.281024,0.000000
4.490000,2.654941,0.223783,-1.490819,0.247859,0.061590,0.038257,-1.259409,0.763777,-0.064653,2.844855,-2.805798,0.040777,1.133759,3.785388,3.625674,0.076576,0.126855,0.000000,-0.277141,-0.282138,0.000000
4.500000,2.657356,0.224437,-1.490439,0.235407,0.069088,0.037613,-1.230904,0.735908,-0.064064,2.854286,-2.766521,0.075801,0.752919,4.064560,3.373344,0.073823,0.124020,0.000000,-0.273350,-0.282931,-0.000000
4.510000,2.659649,0.225165,-1.490066,0.223240,0.076309,0.036976,-1.202323,0.708447,-0.063137,2.859914,-2.724507,0.108244,0.380718,4.323073,3.127542,0.071109,0.121181,0.000000,-0.269316,-0.283400,-0.000000
4.520000,2.661821,0.225964,-1.489700,0.211360,0.083257,0.036350,-1.173705,0.681418,-0.061899,2.861900,-2.680060,0.138351,0.027806,4.545531,2.914977,0.068436,0.118338,0.000000,-0.265063,-0.283555,-0.000000
4.530000,2.663876,0.226830,-1.489339,0.199766,0.089937,0.035738,-1.145085,0.654845,-0.060370,2.860470,-2.633596,0.166544,-0.309075,4.736540,2.728068,0.065807,0.115496,0.000000,-0.260625,-0.283409,0.000000
4.540000,2.665817,0.227762,-1.488985,0.188459,0.096354,0.035143,-1.116496,0.628746,-0.058568,2.855719,-2.585329,0.192913,-0.642982,4.916688,2.533372,0.063224,0.112658,0.000000,-0.256021,-0.282968,-0.000000
4.550000,2.667645,0.228757,-1.488637,0.177436,0.102512,0.034567,-1.087971,0.603139,-0.056512,2.847610,-2.535262,0.217211,-0.978144,5.090095,2.323362,0.060687,0.109825,0.000000,-0.251248,-0.282228,-0.000000
4.560000,2.669365,0.229813,-1.488294,0.166699,0.108416,0.034013,-1.059544,0.578041,-0.054224,2.836156,-2.483527,0.239380,-1.305282,5.243439,2.121218,0.058199,0.107003,0.000000,-0.246318,-0.281186,-0.000000
4.570000,2.670979,0.230926,-1.487956,0.156246,0.114073,0.033482,-1.031248,0.553468,-0.051724,2.821504,-2.430393,0.259635,-1.612721,5.368743,1.945956,0.055761,0.104192,0.000000,-0.241253,-0.279853,-0.000000
4.580000,2.672490,0.232094,-1.487624,0.146074,0.119486,0.032978,-1.003114,0.529433,-0.049031,2.803902,-2.376152,0.278299,-1.902837,5.470415,1.790523,0.053374,0.101397,0.000000,-0.236078,-0.278246,0.000000
4.590000,2.673901,0.233315,-1.487297,0.136183,0.124661,0.032502,-0.975170,0.505945,-0.046158,2.783448,-2.320985,0.295446,-2.190789,5.559500,1.630854,0.051039,0.098619,0.000000,-0.230809,-0.276372,-0.000000
4.600000,2.675214,0.234587,-1.486974,0.126571,0.129605,0.032055,-0.947445,0.483014,-0.043122,2.760086,-2.264962,0.310916,-2.480044,5.641187,1.463766,0.048758,0.095862,0.000000,-0.225452,-0.274224,0.000000
4.610000,2.676432,0.235907,-1.486656,0.117234,0.134322,0.031639,-0.919968,0.460646,-0.039940,2.733847,-2.208161,0.324721,-2.760262,5.708756,1.305268,0.046530,0.093128,0.000000,-0.220013,-0.271802,-0.000000
4.620000,2.677559,0.237274,-1.486341,0.108171,0.138818,0.031256,-0.892768,0.438850,-0.036628,2.704881,-2.150787,0.337021,-3.023558,5.749812,1.162042,0.044357,0.090420,0.000000,-0.214511,-0.269118,0.000000
4.630000,2.678596,0.238684,-1.486031,0.099379,0.143099,0.030907,-0.865870,0.417630,-0.033200,2.673376,-2.093165,0.347962,-3.273059,5.766539,1.028526,0.042240,0.087740,0.000000,-0.208975,-0.266187,-0.000000
4.640000,2.679546,0.240136,-1.485723,0.090854,0.147170,0.030592,-0.839300,0.396987,-0.029669,2.639419,-2.035456,0.357592,-3.518976,5.777055,0.896497,0.040178,0.085092,0.000000,-0.203422,-0.263015,0.000000
4.650000,2.680413,0.241627,-1.485419,0.082593,0.151038,0.030313,-0.813082,0.376921,-0.026048,2.602996,-1.977624,0.365892,-3.764250,5.787411,0.765610,0.038172,0.082476,0.000000,-0.197846,-0.259599,0.000000
4.660000,2.681198,0.243156,-1.485117,0.074592,0.154709,0.030071,-0.787240,0.357435,-0.022351,2.564134,-1.919708,0.372904,-4.002162,5.786350,0.640832,0.036221,0.079896,0.000000,-0.192251,-0.255939,0.000000
4.670000,2.681905,0.244721,-1.484817,0.066848,0.158187,0.029866,-0.761799,0.338527,-0.018590,2.522953,-1.861897,0.378709,-4.225580,5.762175,0.522583,0.034327,0.077354,0.000000,-0.186656,-0.252045,0.000000
4.680000,2.682535,0.246320,-1.484520,0.059356,0.161479,0.029699,-0.736781,0.320197,-0.014777,2.479623,-1.804464,0.383356,-4.436559,5.719114,0.408397,0.032488,0.074852,0.000000,-0.181086,-0.247933,-0.000000
4.690000,2.683092,0.247951,-1.484223,0.052113,0.164591,0.029571,-0.712207,0.302438,-0.010923,2.434222,-1.747515,0.386876,-4.644889,5.674323,0.297620,0.030705,0.072393,0.000000,-0.175553,-0.243607,0.000000
4.700000,2.683577,0.249612,-1.483928,0.045112,0.167528,0.029481,-0.688097,0.285246,-0.007039,2.386725,-1.690978,0.389308,-4.853840,5.632603,0.192832,0.028977,0.069978,0.000000,-0.170050,-0.239066,-0.000000
4.710000,2.683994,0.251302,-1.483634,0.038351,0.170296,0.029430,-0.664472,0.268618,-0.003136,2.337145,-1.634863,0.390733,-5.057153,5.583836,0.093692,0.027304,0.067609,0.000000,-0.164575,-0.234307,-0.000000
4.720000,2.684344,0.253018,-1.483340,0.031823,0.172900,0.029418,-0.641354,0.252549,0.000776,2.285582,-1.579301,0.391182,-5.247523,5.519781,-0.007644,0.025686,0.065290,0.000000,-0.159144,-0.229340,-0.000000
4.730000,2.684630,0.254760,-1.483045,0.025524,0.175347,0.029446,-0.618761,0.237032,0.004687,2.232194,-1.524467,0.390580,-5.427033,5.444446,-0.111951,0.024121,0.063021,0.000000,-0.153773,-0.224180,0.000000
4.740000,2.684855,0.256525,-1.482751,0.019448,0.177641,0.029512,-0.596710,0.222060,0.008587,2.177041,-1.470412,0.388943,-5.606040,5.370805,-0.208972,0.022610,0.060805,0.000000,-0.148469,-0.218832,-0.000000
4.750000,2.685019,0.258312,-1.482455,0.013589,0.179788,0.029617,-0.575220,0.207624,0.012466,2.120074,-1.417051,0.386401,-5.787545,5.304817,-0.295725,0.021152,0.058643,0.000000,-0.143221,-0.213290,0.000000
4.760000,2.685127,0.260121,-1.482158,0.007943,0.181793,0.029761,-0.554309,0.193719,0.016315,2.061290,-1.364316,0.383029,-5.965136,5.239361,-0.379661,0.019746,0.056538,0.000000,-0.138025,-0.207552,-0.000000
4.770000,2.685178,0.261948,-1.481860,0.002503,0.183662,0.029944,-0.533994,0.180338,0.020127,2.000771,-1.312264,0.378808,-6.132948,5.162645,-0.467956,0.018391,0.054492,0.000000,-0.132885,-0.201627,0.000000
4.780000,2.685177,0.263794,-1.481559,-0.002737,0.185400,0.030164,-0.514293,0.167473,0.023891,1.938631,-1.261063,0.373669,-6.293315,5.077547,-0.559311,0.017088,0.052505,0.000000,-0.127819,-0.195525,-0.000000
4.790000,2.685124,0.265656,-1.481257,-0.007783,0.187012,0.030421,-0.495221,0.155116,0.027600,1.874905,-1.210713,0.367621,-6.454866,5.002648,-0.644579,0.015835,0.050581,0.000000,-0.122828,-0.189250,-0.000000
4.800000,2.685021,0.267534,-1.480951,-0.012641,0.188503,0.030716,-0.476795,0.143259,0.031244,1.809534,-1.161010,0.360778,-6.620485,4.946051,-0.717092,0.014632,0.048720,0.000000,-0.117891,-0.182794,0.000000
4.810000,2.684871,0.269426,-1.480642,-0.017319,0.189877,0.031046,-0.459031,0.131896,0.034816,1.742495,-1.111792,0.353280,-6.785100,4.897019,-0.783602,0.013477,0.046924,0.000000,-0.112992,-0.176155,-0.000000
4.820000,2.684675,0.271332,-1.480330,-0.021822,0.191140,0.031412,-0.441945,0.121023,0.038309,1.673832,-1.063070,0.345106,-6.943234,4.839984,-0.862626,0.012372,0.045196,0.000000,-0.108131,-0.169337,-0.000000
4.830000,2.684434,0.273249,-1.480014,-0.026157,0.192298,0.031813,-0.425554,0.110635,0.041718,1.603630,-1.014992,0.336027,-7.097172,4.779998,-0.952447,0.011315,0.043537,0.000000,-0.103326,-0.162350,-0.000000
4.840000,2.684151,0.275178,-1.479694,-0.030333,0.193353,0.032247,-0.409873,0.100723,0.045030,1.531889,-0.967470,0.326057,-7.255277,4.740843,-1.028045,0.010305,0.041949,0.000000,-0.098567,-0.155193,-0.000000
4.850000,2.683828,0.277116,-1.479369,-0.034355,0.194312,0.032713,-0.394916,0.091285,0.048239,1.458525,-0.920175,0.315466,-7.418632,4.725632,-1.087197,0.009343,0.040433,0.000000,-0.093820,-0.147856,0.000000
4.860000,2.683464,0.279064,-1.479040,-0.038231,0.195179,0.033211,-0.380702,0.082320,0.051339,1.383516,-0.872957,0.304313,-7.582626,4.720996,-1.146525,0.008429,0.038992,0.000000,-0.089071,-0.140338,0.000000
4.870000,2.683063,0.281020,-1.478705,-0.041969,0.195958,0.033740,-0.367246,0.073826,0.054325,1.306872,-0.825755,0.292536,-7.747443,4.727306,-1.207206,0.007562,0.037627,0.000000,-0.084314,-0.132640,0.000000
4.880000,2.682625,0.282983,-1.478365,-0.045576,0.196655,0.034298,-0.354565,0.065805,0.057190,1.228567,-0.778411,0.280169,-7.915538,4.751384,-1.263161,0.006743,0.036339,0.000000,-0.079533,-0.124758,-0.000000
4.890000,2.682151,0.284953,-1.478019,-0.049060,0.197275,0.034884,-0.342675,0.058258,0.059928,1.148561,-0.730728,0.267272,-8.087643,4.795210,-1.313757,0.005971,0.035131,0.000000,-0.074709,-0.116691,-0.000000
4.900000,2.681644,0.286929,-1.477667,-0.052429,0.197821,0.035496,-0.331593,0.051190,0.062535,1.066814,-0.682507,0.253894,-8.264117,4.859730,-1.359523,0.005249,0.034005,0.000000,-0.069820,-0.108432,0.000000
4.910000,2.681103,0.288909,-1.477309,-0.055692,0.198298,0.036134,-0.321338,0.044608,0.065006,0.983279,-0.633533,0.240082,-8.445604,4.946552,-1.400241,0.004575,0.032963,0.000000,-0.064847,-0.099979,0.000000
4.920000,2.680530,0.290894,-1.476944,-0.058856,0.198713,0.036796,-0.311928,0.038520,0.067337,0.897902,-0.583576,0.225889,-8.632745,5.057329,-1.435648,0.003952,0.032006,0.000000,-0.059764,-0.091325,0.000000
4.930000,2.679926,0.292884,-1.476573,-0.061931,0.199069,0.037481,-0.303380,0.032936,0.069524,0.810624,-0.532387,0.211369,-8.826155,5.193711,-1.465493,0.003380,0.031136,0.000000,-0.054548,-0.082466,0.000000
4.940000,2.679291,0.294876,-1.476195,-0.064924,0.199371,0.038187,-0.295715,0.027872,0.071564,0.721379,-0.479701,0.196579,-9.026463,5.357348,-1.489506,0.002861,0.030356,0.000000,-0.049171,-0.073395,-0.000000
4.950000,2.678627,0.296871,-1.475809,-0.067845,0.199626,0.038912,-0.288953,0.023342,0.073456,0.630095,-0.425240,0.181579,-9.234301,5.549889,-1.507414,0.002396,0.029668,0.000000,-0.043606,-0.064104,-0.000000
4.960000,2.677934,0.298868,-1.475417,-0.070703,0.199838,0.039656,-0.283113,0.019367,0.075196,0.536693,-0.368704,0.166431,-9.450307,5.772989,-1.518967,0.001989,0.029074,0.000000,-0.037821,-0.054588,0.000000
4.970000,2.677213,0.300868,-1.475016,-0.073507,0.200013,0.040416,-0.278219,0.015968,0.076784,0.441089,-0.309780,0.151200,158.558315,0.198132,-51.944372,0.001640,0.028577,0.000000,-0.031786,-0.044837,0.000000
4.980000,2.676464,0.302869,-1.474608,-0.076267,0.200158,0.041192,-0.274292,0.013171,0.078220,3.707859,-0.364741,-0.872457,324.797901,-3.889794,-103.683454,0.001353,0.028178,0.000000,-0.037571,-0.383227,0.000000
4.990000,2.675688,0.304871,-1.474192,-0.078993,0.200277,0.041981,-0.204062,0.008673,0.059335,6.937047,-0.387576,-1.922470,157.162018,1.969554,-54.199883,0.000889,0.020925,0.000000,-0.039902,-0.715256,-0.000000
5.000000,2.674884,0.306874,-1.473769,-0.080349,0.200331,0.042378,-0.135551,0.005420,0.039771,6.851100,-0.325350,-1.956454,-8.594704,6.222574,-3.398480,0.000555,0.013873,0.000000,-0.033403,-0.703865,0.000000
