time,x,y,z,vx,vy,vz,ax,ay,az,jx,jy,jz,sx,sy,sz,roll,pitch,yaw,p,q,r
0.000000,-2.684614,-0.229951,-1.470814,0.013314,-0.009559,-0.006121,0.042433,0.583884,0.049325,0.763074,21.472309,2.101725,-109.103250,-684.518446,-32.632225,0.059748,-0.004347,0.000000,2.204829,-0.078972,0.000000
0.010000,-2.684481,-0.230046,-1.470875,0.013738,-0.003720,-0.005628,0.050064,0.798607,0.070342,-0.327959,14.627124,1.775403,-158.426325,-1483.172613,-98.015738,0.081811,-0.005140,0.000000,1.506622,0.032625,-0.000000
0.020000,-2.684339,-0.230025,-1.470927,0.014315,0.006413,-0.004715,0.035874,0.876426,0.084833,-2.405453,-8.191144,0.141410,-109.198813,-1792.449569,-140.780366,0.089876,-0.003689,0.000000,-0.834090,0.246288,-0.000000
0.030000,-2.684195,-0.229918,-1.470970,0.014456,0.013808,-0.003931,0.001955,0.634784,0.073170,-2.511935,-21.221867,-1.040205,74.006496,-383.144178,-47.693718,0.065102,-0.000201,0.000000,-2.177253,0.257458,-0.000000
0.040000,-2.684050,-0.229749,-1.471005,0.014354,0.019109,-0.003251,-0.014365,0.451989,0.064029,-0.925323,-15.854027,-0.812464,142.405832,488.146587,20.489902,0.046344,0.001474,0.000000,-1.627098,0.094719,0.000000
0.050000,-2.683908,-0.229536,-1.471035,0.014168,0.022848,-0.002651,-0.016552,0.317704,0.056921,0.336182,-11.458936,-0.630406,111.986699,396.789462,16.217950,0.032563,0.001697,0.000000,-1.175759,-0.034561,-0.000000
0.060000,-2.683767,-0.229292,-1.471058,0.014023,0.025463,-0.002113,-0.007641,0.222810,0.051421,1.314411,-7.918238,-0.488105,85.617196,316.900981,12.519677,0.022828,0.000783,0.000000,-0.812129,-0.134697,0.000000
0.070000,-2.683627,-0.229027,-1.471077,0.014015,0.027304,-0.001622,0.009736,0.159339,0.047159,2.048525,-5.120916,-0.380013,63.030070,247.747627,9.357115,0.016320,-0.000997,0.000000,-0.525030,-0.209762,-0.000000
0.080000,-2.683487,-0.228746,-1.471091,0.014218,0.028650,-0.001170,0.033329,0.120392,0.043821,2.575012,-2.963286,-0.300963,43.958094,188.595882,6.692300,0.012327,-0.003413,0.000000,-0.303766,-0.263538,-0.000000
0.090000,-2.683343,-0.228454,-1.471100,0.014682,0.029712,-0.000746,0.061237,0.100073,0.041140,2.927687,-1.348998,-0.246167,28.134039,138.712230,4.487267,0.010244,-0.006268,0.000000,-0.138352,-0.299510,0.000000
0.100000,-2.683193,-0.228152,-1.471106,0.015443,0.030651,-0.000347,0.091883,0.093412,0.038897,3.137693,-0.189041,-0.211217,15.290684,97.363150,2.704050,0.009559,-0.009403,0.000000,-0.019580,-0.320873,-0.000000
0.110000,-2.683034,-0.227841,-1.471107,0.016520,0.031581,0.000032,0.123991,0.096292,0.036915,3.233501,0.598265,-0.192086,5.160760,63.815126,1.304685,0.009852,-0.012686,0.000000,0.060970,-0.330539,0.000000
0.120000,-2.682863,-0.227520,-1.471105,0.017922,0.032577,0.000392,0.156553,0.105377,0.035056,3.240908,1.087262,-0.185124,-2.522961,37.334640,0.251200,0.010779,-0.016014,0.000000,0.110941,-0.331145,0.000000
0.130000,-2.682676,-0.227189,-1.471100,0.019651,0.033688,0.000733,0.188809,0.118038,0.033213,3.183042,1.344958,-0.187062,-8.027701,17.188176,-0.494370,0.012070,-0.019310,0.000000,0.137214,-0.325057,0.000000
0.140000,-2.682470,-0.226846,-1.471091,0.021699,0.034938,0.001056,0.220214,0.132277,0.031314,3.080354,1.431025,-0.195011,-11.620768,2.642208,-0.969963,0.013523,-0.022516,0.000000,0.145912,-0.314370,0.000000
0.150000,-2.682242,-0.226490,-1.471078,0.024055,0.036334,0.001359,0.250416,0.146658,0.029313,2.950626,1.397802,-0.206461,-13.569352,-7.036777,-1.213566,0.014989,-0.025598,0.000000,0.142404,-0.300907,-0.000000
0.160000,-2.681989,-0.226120,-1.471063,0.026707,0.037871,0.001642,0.279226,0.160233,0.027185,2.808967,1.290290,-0.219282,-14.140600,-12.582290,-1.263178,0.016371,-0.028535,0.000000,0.131304,-0.286221,0.000000
0.170000,-2.681707,-0.225733,-1.471046,0.029640,0.039538,0.001903,0.306595,0.172464,0.024927,2.667814,1.146156,-0.231725,-13.641007,-14.829335,-1.162399,0.017615,-0.031323,0.000000,0.116472,-0.271590,0.000000
0.180000,-2.681396,-0.225329,-1.471025,0.032839,0.041320,0.002141,0.332583,0.183156,0.022551,2.536147,0.993703,-0.242530,-13.021971,-16.284484,-1.048344,0.018700,-0.033967,0.000000,0.100807,-0.257937,0.000000
0.190000,-2.681051,-0.224906,-1.471003,0.036291,0.043201,0.002354,0.357318,0.192338,0.020077,2.407375,0.820466,-0.252692,-12.314071,-17.068135,-0.924721,0.019631,-0.036482,0.000000,0.083037,-0.244588,0.000000
0.200000,-2.680670,-0.224465,-1.470978,0.039985,0.045167,0.002542,0.380730,0.199565,0.017497,2.289866,0.652340,-0.261025,-6.736564,-4.830413,-0.097747,0.020361,-0.038860,0.000000,0.065812,-0.232403,0.000000
0.210000,-2.680251,-0.224003,-1.470952,0.043906,0.047193,0.002704,0.403115,0.205385,0.014856,2.272644,0.723858,-0.254647,2.902381,18.293385,1.316223,0.020947,-0.041131,0.000000,0.073062,-0.230506,0.000000
0.220000,-2.679792,-0.223521,-1.470924,0.048047,0.049275,0.002839,0.426183,0.214042,0.012404,2.347913,1.018208,-0.234700,1.858647,14.045664,1.180977,0.021822,-0.043471,0.000000,0.103028,-0.238092,-0.000000
0.230000,-2.679290,-0.223018,-1.470895,0.052430,0.051474,0.002952,0.450074,0.225749,0.010162,2.309817,1.004771,-0.231027,-10.443334,-19.150731,-0.580701,0.023008,-0.045894,0.000000,0.101578,-0.234061,-0.000000
0.240000,-2.678743,-0.222491,-1.470865,0.057049,0.053790,0.003043,0.472379,0.234138,0.007783,2.139047,0.635193,-0.246314,-14.160118,-29.890511,-1.093429,0.023854,-0.048154,0.000000,0.063841,-0.216445,0.000000
0.250000,-2.678149,-0.221942,-1.470834,0.061877,0.056156,0.003108,0.492855,0.238453,0.005236,2.026614,0.406961,-0.252896,-7.107264,-12.225733,-0.080031,0.024285,-0.050225,0.000000,0.040554,-0.204822,0.000000
0.260000,-2.677506,-0.221368,-1.470803,0.066906,0.058559,0.003147,0.512912,0.242277,0.002725,1.996902,0.390679,-0.247915,-2.929788,-1.597963,0.486601,0.024665,-0.052252,0.000000,0.038874,-0.201679,0.000000
0.270000,-2.676811,-0.220771,-1.470771,0.072135,0.061002,0.003162,0.532793,0.246266,0.000277,1.968019,0.375002,-0.243164,-3.903208,-4.886229,0.392667,0.025062,-0.054259,0.000000,0.037256,-0.198624,0.000000
0.280000,-2.676063,-0.220148,-1.470740,0.077562,0.063484,0.003153,0.552272,0.249777,-0.002138,1.918837,0.292954,-0.240062,-5.363809,-10.108751,0.314334,0.025410,-0.056225,0.000000,0.028892,-0.193505,0.000000
0.290000,-2.675260,-0.219501,-1.470708,0.083181,0.065997,0.003119,0.571169,0.252125,-0.004524,1.860742,0.172827,-0.236877,-5.501570,-11.296999,0.355408,0.025640,-0.058131,0.000000,0.016670,-0.187489,0.000000
0.300000,-2.674399,-0.218828,-1.470677,0.088985,0.068527,0.003062,0.589487,0.253233,-0.006875,1.808806,0.067014,-0.232954,-4.877109,-9.453994,0.438870,0.025744,-0.059976,0.000000,0.005918,-0.182113,-0.000000
0.310000,-2.673480,-0.218130,-1.470647,0.094971,0.071062,0.002982,0.607346,0.253466,-0.009183,1.763200,-0.016253,-0.228100,-4.549451,-8.267394,0.516252,0.025758,-0.061774,0.000000,-0.002532,-0.177392,0.000000
0.320000,-2.672500,-0.217407,-1.470618,0.101132,0.073596,0.002879,0.624751,0.252908,-0.011437,1.717817,-0.098334,-0.222628,-4.417726,-8.600320,0.552865,0.025693,-0.063525,0.000000,-0.010850,-0.172707,-0.000000
0.330000,-2.671457,-0.216659,-1.470589,0.107466,0.076120,0.002753,0.641702,0.251499,-0.013635,1.674846,-0.188260,-0.217042,-4.110172,-9.254774,0.560970,0.025541,-0.065230,0.000000,-0.019955,-0.168275,-0.000000
0.340000,-2.670351,-0.215885,-1.470563,0.113966,0.078626,0.002606,0.658248,0.249143,-0.015778,1.635613,-0.283429,-0.211409,-3.856710,-9.402234,0.583668,0.025294,-0.066892,0.000000,-0.029585,-0.164230,-0.000000
0.350000,-2.669178,-0.215086,-1.470537,0.120630,0.081103,0.002438,0.674414,0.245830,-0.017864,1.597711,-0.376304,-0.205369,-3.779659,-9.082855,0.629719,0.024950,-0.068515,0.000000,-0.038972,-0.160330,-0.000000
0.360000,-2.667938,-0.214263,-1.470514,0.127455,0.083542,0.002249,0.690202,0.241617,-0.019886,1.560020,-0.465086,-0.198815,-3.702076,-8.828597,0.669604,0.024515,-0.070100,0.000000,-0.047934,-0.156463,-0.000000
0.370000,-2.666629,-0.213415,-1.470492,0.134435,0.085935,0.002040,0.705615,0.236529,-0.021840,1.523670,-0.552876,-0.191977,-3.457533,-8.860161,0.681125,0.023991,-0.071645,0.000000,-0.056788,-0.152741,0.000000
0.380000,-2.665249,-0.212544,-1.470473,0.141567,0.088273,0.001812,0.720675,0.230560,-0.023725,1.490870,-0.642290,-0.185192,-3.104759,-9.002057,0.673517,0.023379,-0.073155,0.000000,-0.065801,-0.149384,0.000000
0.390000,-2.663798,-0.211650,-1.470456,0.148848,0.090547,0.001565,0.735432,0.223683,-0.025544,1.461575,-0.732917,-0.178506,-2.853199,-9.003869,0.674908,0.022675,-0.074634,0.000000,-0.074931,-0.146388,0.000000
0.400000,-2.662272,-0.210733,-1.470442,0.156275,0.092747,0.001301,0.749907,0.215901,-0.027295,1.433806,-0.822367,-0.171694,-2.687951,-8.894473,0.689028,0.021880,-0.076084,0.000000,-0.083936,-0.143553,-0.000000
0.410000,-2.660672,-0.209795,-1.470430,0.163846,0.094865,0.001019,0.764108,0.207236,-0.028978,1.407816,-0.910807,-0.164726,-2.471249,-8.835660,0.697385,0.020996,-0.077506,0.000000,-0.092834,-0.140904,0.000000
0.420000,-2.658995,-0.208836,-1.470421,0.171558,0.096891,0.000721,0.778063,0.197685,-0.030590,1.384381,-0.999080,-0.157746,-2.268047,-8.762034,0.692230,0.020024,-0.078903,0.000000,-0.101710,-0.138519,0.000000
0.430000,-2.657241,-0.207857,-1.470416,0.179407,0.098818,0.000408,0.791796,0.187254,-0.032133,1.362455,-1.086047,-0.150881,-2.125854,-8.615533,0.680043,0.018962,-0.080277,0.000000,-0.110450,-0.136291,0.000000
0.440000,-2.655407,-0.206859,-1.470413,0.187394,0.100637,0.000079,0.805312,0.175964,-0.033607,1.341864,-1.171391,-0.144146,-1.944046,-8.500694,0.670658,0.017815,-0.081629,0.000000,-0.119023,-0.134201,0.000000
0.450000,-2.653493,-0.205844,-1.470414,0.195514,0.102338,-0.000264,0.818633,0.163826,-0.035015,1.323574,-1.256061,-0.137468,-1.731513,-8.430132,0.665386,0.016582,-0.082961,0.000000,-0.127524,-0.132347,-0.000000
0.460000,-2.651497,-0.204813,-1.470419,0.203766,0.103913,-0.000622,0.831784,0.150843,-0.036357,1.307233,-1.339993,-0.130838,-1.556323,-8.331612,0.658415,0.015264,-0.084276,0.000000,-0.135947,-0.130693,-0.000000
0.470000,-2.649418,-0.203766,-1.470427,0.212149,0.105354,-0.000992,0.844778,0.137026,-0.037632,1.292447,-1.422694,-0.124300,-1.351240,-8.215359,0.647122,0.013863,-0.085575,0.000000,-0.144243,-0.129198,-0.000000
0.480000,-2.647254,-0.202706,-1.470438,0.220662,0.106654,-0.001374,0.857633,0.122389,-0.038843,1.280209,-1.504301,-0.117895,-1.090517,-8.108476,0.634018,0.012379,-0.086860,0.000000,-0.152426,-0.127963,0.000000
0.490000,-2.645005,-0.201633,-1.470454,0.229302,0.107802,-0.001768,0.870382,0.106940,-0.039990,1.270637,-1.584863,-0.111619,-0.873285,-7.990819,0.623251,0.010814,-0.088135,0.000000,-0.160501,-0.126998,-0.000000
0.500000,-2.642668,-0.200549,-1.470474,0.238069,0.108792,-0.002174,0.883046,0.090692,-0.041075,1.262743,-1.664117,-0.105430,-0.708407,-7.851638,0.615407,0.009169,-0.089401,0.000000,-0.168441,-0.126204,-0.000000
0.510000,-2.640243,-0.199457,-1.470498,0.246963,0.109616,-0.002590,0.895637,0.073658,-0.042099,1.256469,-1.741896,-0.099311,-0.528928,-7.706570,0.608545,0.007446,-0.090659,0.000000,-0.176229,-0.125575,0.000000
0.520000,-2.637729,-0.198357,-1.470526,0.255982,0.110266,-0.003016,0.908175,0.055854,-0.043061,1.252164,-1.818248,-0.093259,-0.342986,-7.573293,0.602868,0.005645,-0.091912,0.000000,-0.183870,-0.125146,0.000000
0.530000,-2.635123,-0.197252,-1.470558,0.265126,0.110733,-0.003451,0.920680,0.037293,-0.043964,1.249609,-1.893362,-0.087254,-0.177336,-7.448935,0.599824,0.003768,-0.093162,0.000000,-0.191384,-0.124894,0.000000
0.540000,-2.632426,-0.196143,-1.470595,0.274396,0.111011,-0.003895,0.933167,0.017987,-0.044807,1.248618,-1.967227,-0.081263,-0.015641,-7.310669,0.600054,0.001817,-0.094410,0.000000,-0.198768,-0.124801,0.000000
0.550000,-2.629636,-0.195031,-1.470636,0.283790,0.111093,-0.004347,0.945652,-0.002052,-0.045589,1.249296,-2.039575,-0.075253,0.161020,-7.144674,0.603249,-0.000207,-0.095658,0.000000,-0.205996,-0.124878,-0.000000
0.560000,-2.626750,-0.193921,-1.470682,0.293309,0.110970,-0.004807,0.958153,-0.022805,-0.046312,1.251838,-2.110121,-0.069198,0.338397,-6.967378,0.609906,-0.002303,-0.096908,0.000000,-0.213038,-0.125143,-0.000000
0.570000,-2.623769,-0.192812,-1.470732,0.302953,0.110637,-0.005274,0.970689,-0.044254,-0.046973,1.256064,-2.178923,-0.063055,0.472649,-6.815953,0.622540,-0.004468,-0.098161,0.000000,-0.219902,-0.125580,-0.000000
0.580000,-2.620691,-0.191708,-1.470787,0.312723,0.110085,-0.005746,0.983274,-0.066383,-0.047573,1.261291,-2.246440,-0.056747,0.567927,-6.684229,0.642059,-0.006701,-0.099419,0.000000,-0.226631,-0.126120,-0.000000
0.590000,-2.617515,-0.190610,-1.470847,0.322618,0.109309,-0.006225,0.995915,-0.089183,-0.048108,1.267423,-2.312607,-0.050214,0.682025,-6.522536,0.666115,-0.009001,-0.100683,0.000000,-0.233221,-0.126753,-0.000000
0.600000,-2.614239,-0.189522,-1.470911,0.332641,0.108302,-0.006709,1.008623,-0.112635,-0.048577,1.274931,-2.376890,-0.043425,0.809833,-6.338623,0.692379,-0.011365,-0.101954,0.000000,-0.239617,-0.127528,-0.000000
0.610000,-2.610862,-0.188444,-1.470981,0.342791,0.107056,-0.007197,1.021414,-0.136721,-0.048977,1.283620,-2.439380,-0.036366,0.912759,-6.164403,0.723403,-0.013793,-0.103234,0.000000,-0.245829,-0.128425,0.000000
0.620000,-2.607383,-0.187381,-1.471055,0.353069,0.105567,-0.007688,1.034295,-0.161423,-0.049304,1.293187,-2.500178,-0.028957,1.015811,-5.967317,0.767072,-0.016282,-0.104523,0.000000,-0.251866,-0.129414,-0.000000
0.630000,-2.603801,-0.186333,-1.471135,0.363477,0.103828,-0.008183,1.047277,-0.186724,-0.049556,1.303936,-2.558726,-0.021025,1.132765,-5.734639,0.823782,-0.018830,-0.105823,0.000000,-0.257673,-0.130528,0.000000
0.640000,-2.600114,-0.185304,-1.471219,0.374015,0.101833,-0.008679,1.060374,-0.212598,-0.049725,1.315842,-2.614871,-0.012481,1.225484,-5.513324,0.883832,-0.021435,-0.107134,0.000000,-0.263235,-0.131765,-0.000000
0.650000,-2.596320,-0.184296,-1.471308,0.384684,0.099576,-0.009177,1.073594,-0.239022,-0.049805,1.328445,-2.668992,-0.003348,1.291770,-5.308202,0.943686,-0.024095,-0.108459,0.000000,-0.268590,-0.133080,-0.000000
0.660000,-2.592420,-0.183313,-1.471403,0.395487,0.097052,-0.009675,1.086943,-0.265977,-0.049792,1.341677,-2.721035,0.006393,1.357213,-5.086791,1.010757,-0.026807,-0.109797,0.000000,-0.273734,-0.134464,-0.000000
0.670000,-2.588411,-0.182355,-1.471502,0.406423,0.094256,-0.010173,1.100428,-0.293442,-0.049678,1.355590,-2.770728,0.016867,1.413345,-4.849529,1.094789,-0.029570,-0.111149,0.000000,-0.278640,-0.135926,0.000000
0.680000,-2.584291,-0.181427,-1.471606,0.417495,0.091183,-0.010669,1.114055,-0.321392,-0.049454,1.369944,-2.818026,0.028288,1.450005,-4.607852,1.194511,-0.032380,-0.112516,0.000000,-0.283305,-0.137444,0.000000
0.690000,-2.580061,-0.180532,-1.471715,0.428704,0.087829,-0.011162,1.127827,-0.349803,-0.049112,1.384590,-2.862885,0.040757,1.480606,-4.357975,1.297713,-0.035236,-0.113899,0.000000,-0.287725,-0.139004,-0.000000
0.700000,-2.575717,-0.179671,-1.471829,0.440052,0.084187,-0.011651,1.141746,-0.378650,-0.048639,1.399556,-2.905185,0.054243,1.510839,-4.097201,1.399752,-0.038134,-0.115298,0.000000,-0.291891,-0.140610,-0.000000
0.710000,-2.571260,-0.178848,-1.471948,0.451539,0.080256,-0.012135,1.155818,-0.407906,-0.048027,1.414807,-2.944829,0.068752,1.530565,-3.828486,1.509537,-0.041073,-0.116713,0.000000,-0.295793,-0.142259,0.000000
0.720000,-2.566687,-0.178066,-1.472072,0.463168,0.076029,-0.012612,1.170043,-0.437546,-0.047264,1.430168,-2.981755,0.084433,1.528887,-3.554045,1.639593,-0.044050,-0.118146,0.000000,-0.299426,-0.143935,-0.000000
0.730000,-2.561996,-0.177327,-1.472200,0.474940,0.071505,-0.013080,1.184421,-0.467542,-0.046338,1.445384,-3.015910,0.101544,1.508358,-3.272780,1.788161,-0.047062,-0.119595,0.000000,-0.302790,-0.145617,0.000000
0.740000,-2.557188,-0.176636,-1.472334,0.486856,0.066678,-0.013538,1.198950,-0.497864,-0.045233,1.460335,-3.047211,0.120197,1.482720,-2.981791,1.938920,-0.050106,-0.121061,0.000000,-0.305877,-0.147295,0.000000
0.750000,-2.552259,-0.175994,-1.472471,0.498919,0.061547,-0.013985,1.213628,-0.528486,-0.043934,1.475039,-3.075546,0.140323,1.455302,-2.681137,2.085638,-0.053180,-0.122545,0.000000,-0.308678,-0.148970,0.000000
0.760000,-2.547209,-0.175405,-1.472613,0.511129,0.056109,-0.014417,1.228451,-0.559375,-0.042427,1.489441,-3.100833,0.161909,1.416525,-2.372598,2.239759,-0.056280,-0.124045,0.000000,-0.311188,-0.150640,0.000000
0.770000,-2.542037,-0.174872,-1.472760,0.523488,0.050360,-0.014833,1.243416,-0.590502,-0.040696,1.503369,-3.122998,0.185118,1.358003,-2.055496,2.417029,-0.059403,-0.125562,0.000000,-0.313401,-0.152288,0.000000
0.780000,-2.536740,-0.174397,-1.472910,0.535997,0.044299,-0.015231,1.258518,-0.621835,-0.038724,1.516601,-3.141943,0.210250,1.282308,-1.728916,2.614781,-0.062548,-0.127096,0.000000,-0.315313,-0.153898,-0.000000
0.790000,-2.531317,-0.173986,-1.473064,0.548658,0.037923,-0.015608,1.273749,-0.653341,-0.036491,1.529015,-3.157576,0.237414,1.200160,-1.393810,2.811957,-0.065710,-0.128646,0.000000,-0.316919,-0.155461,-0.000000
0.800000,-2.525767,-0.173639,-1.473222,0.561472,0.031232,-0.015961,1.289099,-0.684987,-0.033976,1.540604,-3.169820,0.266489,1.115115,-1.051479,3.000744,-0.068886,-0.130212,0.000000,-0.318211,-0.156976,0.000000
0.810000,-2.520087,-0.173361,-1.473383,0.574440,0.024223,-0.016287,1.304561,-0.716738,-0.031161,1.551318,-3.178606,0.297428,1.019836,-0.701028,3.195443,-0.072074,-0.131793,0.000000,-0.319188,-0.158438,-0.000000
0.820000,-2.514278,-0.173155,-1.473548,0.587563,0.016897,-0.016584,1.320125,-0.748559,-0.028028,1.561001,-3.183840,0.330398,0.905262,-0.338860,3.414798,-0.075270,-0.133389,0.000000,-0.319843,-0.159837,0.000000
0.830000,-2.508336,-0.173023,-1.473715,0.600843,0.009252,-0.016848,1.335781,-0.780415,-0.024553,1.569423,-3.185383,0.365724,0.773319,0.035571,3.654976,-0.078471,-0.134999,0.000000,-0.320168,-0.161154,0.000000
0.840000,-2.502261,-0.172969,-1.473885,0.614279,0.001289,-0.017075,1.351513,-0.812267,-0.020713,1.576467,-3.183129,0.403497,0.636111,0.417349,3.890410,-0.081673,-0.136622,0.000000,-0.320158,-0.162382,-0.000000
0.850000,-2.496050,-0.172997,-1.474057,0.627873,-0.006993,-0.017262,1.367310,-0.844077,-0.016483,1.582145,-3.177036,0.443533,0.497806,0.801281,4.112206,-0.084874,-0.138258,0.000000,-0.319811,-0.163521,-0.000000
0.860000,-2.489703,-0.173109,-1.474230,0.641625,-0.015593,-0.017405,1.383156,-0.875807,-0.011843,1.586423,-3.167103,0.485741,0.350394,1.191120,4.337239,-0.088070,-0.139905,0.000000,-0.319129,-0.164568,0.000000
0.870000,-2.483218,-0.173309,-1.474405,0.655536,-0.024509,-0.017499,1.399038,-0.907419,-0.006769,1.589153,-3.153214,0.530277,0.184241,1.600918,4.585721,-0.091257,-0.141562,0.000000,-0.318106,-0.165513,-0.000000
0.880000,-2.476593,-0.173600,-1.474580,0.669606,-0.033741,-0.017540,1.414939,-0.938872,-0.001237,1.590108,-3.135085,0.577456,0.001068,2.029122,4.852696,-0.094432,-0.143229,0.000000,-0.316719,-0.166339,-0.000000
0.890000,-2.469826,-0.173984,-1.474756,0.683835,-0.043287,-0.017524,1.430841,-0.970121,0.004781,1.589174,-3.112631,0.627331,-0.185839,2.456757,5.110066,-0.097591,-0.144904,0.000000,-0.314966,-0.167038,0.000000
0.900000,-2.462916,-0.174465,-1.474931,0.698223,-0.053144,-0.017445,1.446723,-1.001124,0.011310,1.586391,-3.085950,0.679657,-0.367575,2.887202,5.347436,-0.100731,-0.146586,0.000000,-0.312858,-0.167613,0.000000
0.910000,-2.455861,-0.175047,-1.475104,0.712769,-0.063309,-0.017298,1.462568,-1.031840,0.018374,1.581823,-3.054887,0.734280,-0.553038,3.332649,5.582869,-0.103849,-0.148273,0.000000,-0.310380,-0.168069,0.000000
0.920000,-2.448661,-0.175731,-1.475276,0.727474,-0.073780,-0.017077,1.478359,-1.062222,0.025995,1.575331,-3.019297,0.791315,-0.764822,3.779041,5.839586,-0.106939,-0.149965,0.000000,-0.307523,-0.168397,-0.000000
0.930000,-2.441312,-0.176522,-1.475446,0.742337,-0.084554,-0.016778,1.494075,-1.092226,0.034200,1.566526,-2.979306,0.851072,-0.997838,4.220128,6.111700,-0.109999,-0.151660,0.000000,-0.304306,-0.168565,0.000000
0.940000,-2.433814,-0.177423,-1.475612,0.757356,-0.095625,-0.016393,1.509690,-1.121808,0.043017,1.555374,-2.934894,0.913549,-1.221212,4.676482,6.366281,-0.113025,-0.153357,0.000000,-0.300730,-0.168570,-0.000000
0.950000,-2.426165,-0.178435,-1.475774,0.772530,-0.106990,-0.015917,1.525182,-1.150924,0.052471,1.542102,-2.885777,0.978397,-1.448104,5.160125,6.593722,-0.116014,-0.155054,0.000000,-0.296767,-0.168433,-0.000000
0.960000,-2.418363,-0.179562,-1.475930,0.787859,-0.118643,-0.015344,1.540532,-1.179524,0.062585,1.526412,-2.831692,1.045423,-1.697027,5.656150,6.814624,-0.118961,-0.156749,0.000000,-0.292389,-0.168121,-0.000000
0.970000,-2.410408,-0.180808,-1.476081,0.803341,-0.130580,-0.014666,1.555711,-1.207558,0.073379,1.508162,-2.772654,1.114690,-1.921976,6.136009,7.047580,-0.121862,-0.158440,0.000000,-0.287601,-0.167624,0.000000
0.980000,-2.402296,-0.182174,-1.476224,0.818974,-0.142794,-0.013876,1.570695,-1.234977,0.084878,1.487972,-2.708971,1.186375,-2.110441,6.602042,7.284664,-0.124713,-0.160126,0.000000,-0.282437,-0.167008,0.000000
0.990000,-2.394028,-0.183664,-1.476358,0.834755,-0.155280,-0.012968,1.585470,-1.261737,0.097107,1.465953,-2.640613,1.260383,-2.327450,7.093157,7.498877,-0.127511,-0.161807,0.000000,-0.276893,-0.166282,-0.000000
1.000000,-2.385601,-0.185280,-1.476483,0.850683,-0.168029,-0.011934,1.600014,-1.287789,0.110086,1.441423,-2.567108,1.336352,-2.607101,7.627577,7.684537,-0.130251,-0.163479,0.000000,-0.270918,-0.165376,0.000000
1.010000,-2.377014,-0.187024,-1.476597,0.866755,-0.181036,-0.010766,1.614299,-1.313079,0.123834,1.413811,-2.488061,1.414074,-2.902657,8.178565,7.857344,-0.132929,-0.165142,0.000000,-0.264473,-0.164229,-0.000000
1.020000,-2.368266,-0.188900,-1.476698,0.882969,-0.194291,-0.009457,1.628290,-1.337550,0.138368,1.383370,-2.403537,1.493499,-3.133467,8.702704,8.025136,-0.135541,-0.166793,0.000000,-0.257560,-0.162865,-0.000000
1.030000,-2.359355,-0.190910,-1.476786,0.899321,-0.207787,-0.007999,1.641966,-1.361150,0.153704,1.351141,-2.314007,1.574577,-3.332028,9.228163,8.181260,-0.138081,-0.168430,0.000000,-0.250224,-0.161389,0.000000
1.040000,-2.350280,-0.193056,-1.476858,0.915808,-0.221514,-0.006383,1.655313,-1.383830,0.169859,1.316730,-2.218974,1.657124,-3.601218,9.808741,8.312406,-0.140545,-0.170052,0.000000,-0.242409,-0.159757,-0.000000
1.050000,-2.341039,-0.195340,-1.476914,0.932427,-0.235463,-0.004602,1.668301,-1.405529,0.186846,1.279117,-2.117833,1.740825,-3.812307,10.305406,8.411487,-0.142929,-0.171657,0.000000,-0.234049,-0.157862,-0.000000
1.060000,-2.331631,-0.197765,-1.476950,0.949174,-0.249624,-0.002646,1.680896,-1.426187,0.204676,1.240483,-2.012866,1.825354,-3.908091,10.694585,8.484822,-0.145227,-0.173242,0.000000,-0.225361,-0.155917,-0.000000
1.070000,-2.322055,-0.200333,-1.476967,0.966045,-0.263987,-0.000508,1.693110,-1.445787,0.223353,1.200955,-1.903941,1.910521,-4.278292,11.387635,8.545892,-0.147436,-0.174809,0.000000,-0.216321,-0.153928,0.000000
1.080000,-2.312310,-0.203045,-1.476961,0.983036,-0.278540,0.001821,1.704915,-1.464266,0.242886,1.154918,-1.785113,1.996272,-4.943245,12.395044,8.589692,-0.149553,-0.176354,0.000000,-0.206341,-0.151333,-0.000000
1.090000,-2.302395,-0.205904,-1.476930,1.000144,-0.293272,0.004349,1.716209,-1.481489,0.263279,1.102090,-1.656040,2.082315,-5.361798,13.148083,8.594253,-0.151563,-0.177870,0.000000,-0.195373,-0.148094,-0.000000
1.100000,-2.292307,-0.208910,-1.476874,1.017361,-0.308170,0.007086,1.726957,-1.497387,0.284532,1.047682,-1.522151,2.168157,-5.574041,13.675437,8.562788,-0.153461,-0.179351,0.000000,-0.183935,-0.144720,-0.000000
1.110000,-2.282048,-0.212067,-1.476788,1.034683,-0.323220,0.010040,1.737162,-1.511932,0.306642,0.990610,-1.382531,2.253571,-5.934895,14.350452,8.506337,-0.155242,-0.180798,0.000000,-0.171922,-0.141095,0.000000
1.120000,-2.271614,-0.215375,-1.476673,1.052104,-0.338409,0.013219,1.746769,-1.525037,0.329604,0.928984,-1.235142,2.338284,-6.187310,14.945945,8.404651,-0.156899,-0.182207,0.000000,-0.159120,-0.137021,-0.000000
1.130000,-2.261005,-0.218835,-1.476524,1.069618,-0.353721,0.016632,1.755742,-1.536635,0.353408,0.866863,-1.083612,2.421664,-6.183062,15.305322,8.248512,-0.158424,-0.183573,0.000000,-0.145860,-0.132889,0.000000
1.140000,-2.250221,-0.222449,-1.476340,1.087219,-0.369141,0.020287,1.764106,-1.546710,0.378037,0.805322,-0.929036,2.503254,-6.304293,15.770418,8.063082,-0.159816,-0.184899,0.000000,-0.132231,-0.128795,-0.000000
1.150000,-2.239261,-0.226218,-1.476118,1.104900,-0.384655,0.024193,1.771848,-1.555215,0.403473,0.740778,-0.768204,2.582925,-6.674527,16.477865,7.865316,-0.161069,-0.186182,0.000000,-0.117901,-0.124372,-0.000000
1.160000,-2.228123,-0.230142,-1.475856,1.122656,-0.400246,0.028357,1.778922,-1.562074,0.429696,0.671832,-0.599478,2.660560,-7.021139,17.179503,7.633804,-0.162174,-0.187419,0.000000,-0.102689,-0.119469,-0.000000
1.170000,-2.216808,-0.234223,-1.475551,1.140479,-0.415896,0.032787,1.785285,-1.567205,0.456684,0.600355,-0.424614,2.735601,-7.117961,17.601842,7.320476,-0.163122,-0.188603,0.000000,-0.086742,-0.114256,0.000000
1.180000,-2.205314,-0.238460,-1.475201,1.158361,-0.431590,0.037490,1.790929,-1.570566,0.484408,0.529473,-0.247442,2.806970,-7.070567,17.836517,6.926231,-0.163908,-0.189734,0.000000,-0.070404,-0.109024,0.000000
1.190000,-2.193641,-0.242855,-1.474801,1.176297,-0.447308,0.042475,1.795874,-1.572154,0.512823,0.458943,-0.067883,2.874126,-7.161072,18.232377,6.512735,-0.164530,-0.190813,0.000000,-0.053645,-0.103735,0.000000
1.200000,-2.181788,-0.247406,-1.474351,1.194279,-0.463033,0.047747,1.800108,-1.571924,0.541890,0.386251,0.117206,2.937224,-7.271793,18.698757,6.104924,-0.164981,-0.191837,0.000000,-0.036132,-0.098126,0.000000
1.210000,-2.169755,-0.252115,-1.473846,1.212299,-0.478746,0.053313,1.803600,-1.569810,0.571568,0.313508,0.306092,2.996225,-7.227927,19.013039,5.657728,-0.165252,-0.192803,0.000000,-0.018018,-0.092405,0.000000
1.220000,-2.157542,-0.256981,-1.473285,1.230351,-0.494429,0.059178,1.806378,-1.565802,0.601815,0.241693,0.497467,3.050379,-7.398920,19.485595,5.106126,-0.165341,-0.193711,0.000000,0.000596,-0.086654,-0.000000
1.230000,-2.145148,-0.262004,-1.472663,1.248427,-0.510062,0.065349,1.808433,-1.559860,0.632575,0.165529,0.695804,3.098347,-7.845417,20.223010,4.459704,-0.165240,-0.194560,0.000000,0.020200,-0.080293,0.000000
1.240000,-2.132573,-0.267183,-1.471978,1.266520,-0.525626,0.071830,1.809688,-1.551886,0.663781,0.084784,0.901927,3.139573,-8.047215,20.774074,3.803176,-0.164936,-0.195339,0.000000,0.040914,-0.073273,0.000000
1.250000,-2.119818,-0.272516,-1.471226,1.284621,-0.541100,0.078625,1.810129,-1.541822,0.695367,0.004585,1.111285,3.174411,-8.055694,20.964697,3.163532,-0.164421,-0.196045,0.000000,0.062296,-0.066122,0.000000
1.260000,-2.106881,-0.278005,-1.470405,1.302722,-0.556463,0.085737,1.809780,-1.529660,0.727270,-0.076330,1.321221,3.202844,-8.214928,21.111023,2.481959,-0.163689,-0.196679,0.000000,0.084082,-0.058702,0.000000
1.270000,-2.093763,-0.283646,-1.469512,1.320816,-0.571693,0.093170,1.808602,-1.515397,0.759424,-0.159714,1.533505,3.224050,-8.230715,21.577035,1.692481,-0.162738,-0.197235,0.000000,0.106482,-0.050803,-0.000000
1.280000,-2.080465,-0.289438,-1.468542,1.338894,-0.586771,0.100926,1.806586,-1.498990,0.791751,-0.240944,1.752762,3.236693,-7.977620,22.244285,0.808757,-0.161559,-0.197709,0.000000,0.130041,-0.042872,-0.000000
1.290000,-2.066985,-0.295381,-1.467493,1.356948,-0.601673,0.109005,1.803784,-1.480342,0.824158,-0.319266,1.978391,3.240225,-7.887830,22.634537,-0.081408,-0.160137,-0.198103,0.000000,0.154731,-0.034973,-0.000000
1.300000,-2.053326,-0.301472,-1.466362,1.374970,-0.616377,0.117409,1.800200,-1.459422,0.856555,-0.398700,2.205452,3.235065,-7.959462,22.826958,-0.935605,-0.158463,-0.198417,0.000000,0.180022,-0.026686,0.000000
1.310000,-2.039486,-0.307709,-1.465145,1.392952,-0.630861,0.126136,1.795810,-1.436233,0.888859,-0.478455,2.434930,3.221513,-7.899880,23.121758,-1.813962,-0.156535,-0.198644,0.000000,0.206029,-0.018093,-0.000000
1.320000,-2.025467,-0.314089,-1.463839,1.410886,-0.645102,0.135186,1.790631,-1.410723,0.920985,-0.556698,2.667887,3.198786,-7.860580,23.202999,-2.824249,-0.154342,-0.198783,0.000000,0.232896,-0.009366,-0.000000
1.330000,-2.011268,-0.320611,-1.462441,1.428765,-0.659076,0.144556,1.784676,-1.382875,0.952835,-0.635667,2.898990,3.165028,-7.954112,22.929923,-3.952686,-0.151876,-0.198833,0.000000,0.260078,-0.000222,-0.000000
1.340000,-1.996891,-0.327271,-1.460948,1.446580,-0.672760,0.154243,1.777918,-1.352744,0.984286,-0.715780,3.126486,3.119732,-7.944727,22.755149,-5.050879,-0.149139,-0.198787,0.000000,0.287383,0.009402,0.000000
1.350000,-1.982337,-0.334066,-1.459356,1.464323,-0.686131,0.164242,1.770360,-1.320346,1.015229,-0.794561,3.354093,3.064010,-7.770846,22.846251,-6.065845,-0.146127,-0.198642,0.000000,0.315196,0.019221,0.000000
1.360000,-1.967605,-0.340993,-1.457663,1.481987,-0.699166,0.174547,1.762027,-1.285662,1.045566,-0.871197,3.583411,2.998415,-7.597593,22.875691,-7.096396,-0.142834,-0.198398,0.000000,0.343679,0.029133,0.000000
1.370000,-1.952697,-0.348049,-1.455865,1.499563,-0.711844,0.185153,1.752936,-1.248677,1.075198,-0.946513,3.811607,2.922082,-7.506454,22.488418,-8.261649,-0.139253,-0.198053,0.000000,0.372519,0.039246,-0.000000
1.380000,-1.937614,-0.355230,-1.453960,1.517045,-0.724140,0.196051,1.743096,-1.209430,1.104008,-1.021326,4.033179,2.833182,-7.423130,21.792430,-9.529543,-0.135383,-0.197605,0.000000,0.401111,0.049687,0.000000
1.390000,-1.922356,-0.362532,-1.451944,1.534425,-0.736033,0.207233,1.732510,-1.168014,1.131861,-1.094976,4.247456,2.731491,-7.252387,21.240928,-10.736220,-0.131230,-0.197050,0.000000,0.429343,0.060387,-0.000000
1.400000,-1.906925,-0.369951,-1.449815,1.551696,-0.747500,0.218688,1.721197,-1.124481,1.158638,-1.166374,4.457998,2.618458,-7.120987,20.798855,-11.848027,-0.126795,-0.196387,0.000000,0.457550,0.071188,-0.000000
1.410000,-1.891322,-0.377482,-1.447571,1.568849,-0.758522,0.230406,1.709182,-1.078854,1.184230,-1.237396,4.663433,2.494531,-7.078392,20.169013,-12.968976,-0.122078,-0.195615,0.000000,0.485524,0.082278,-0.000000
1.420000,-1.875548,-0.385121,-1.445207,1.585879,-0.769077,0.242373,1.696449,-1.031212,1.208528,-1.307942,4.861378,2.359078,-6.754456,19.511654,-14.157578,-0.117084,-0.194729,0.000000,0.512954,0.093654,0.000000
1.430000,-1.859605,-0.392864,-1.442723,1.602778,-0.779146,0.254576,1.683023,-0.981626,1.231412,-1.372485,5.053666,2.211379,-6.110303,18.947028,-15.373000,-0.111819,-0.193728,0.000000,0.540007,0.104703,-0.000000
1.440000,-1.843493,-0.400704,-1.440116,1.619540,-0.788710,0.267001,1.668999,-0.930139,1.252756,-1.430148,5.240319,2.051618,-5.662390,18.227263,-16.532333,-0.106284,-0.192621,0.000000,0.566618,0.115301,-0.000000
1.450000,-1.827214,-0.408638,-1.437383,1.636158,-0.797749,0.279632,1.654420,-0.876820,1.272444,-1.485733,5.418211,1.880733,-5.519329,17.249961,-17.627549,-0.100486,-0.191409,0.000000,0.592337,0.125943,0.000000
1.460000,-1.810769,-0.416659,-1.434523,1.652628,-0.806246,0.292450,1.639285,-0.821774,1.290371,-1.540535,5.585318,1.699067,-5.329529,16.192715,-18.704098,-0.094437,-0.190090,0.000000,0.616846,0.136751,-0.000000
1.470000,-1.794161,-0.424763,-1.431534,1.668944,-0.814185,0.305439,1.623610,-0.765114,1.306426,-1.592323,5.742065,1.506651,-4.912261,15.253094,-19.760782,-0.088150,-0.188662,0.000000,0.640115,0.147453,-0.000000
1.480000,-1.777391,-0.432943,-1.428414,1.685100,-0.821549,0.318579,1.607438,-0.706933,1.320504,-1.638780,5.890380,1.303852,-4.416718,14.344234,-20.767542,-0.081636,-0.187129,0.000000,0.662279,0.157754,0.000000
1.490000,-1.760459,-0.441194,-1.425163,1.701093,-0.828323,0.331849,1.590834,-0.647306,1.332503,-1.680658,6.028950,1.091300,-4.062677,13.215360,-21.718445,-0.074905,-0.185496,0.000000,0.683095,0.167699,-0.000000
1.500000,-1.743369,-0.449509,-1.421777,1.716917,-0.834495,0.345229,1.573825,-0.586354,1.342330,-1.720033,6.154687,0.869483,-3.660773,12.071246,-22.657699,-0.067975,-0.183766,0.000000,0.702111,0.177488,-0.000000
1.510000,-1.726121,-0.457884,-1.418258,1.732569,-0.840050,0.358696,1.556433,-0.524212,1.349892,-1.753873,6.270375,0.638146,-3.091386,11.058490,-23.575082,-0.060865,-0.181939,0.000000,0.719570,0.186755,-0.000000
1.520000,-1.708717,-0.466310,-1.414603,1.748046,-0.844979,0.372227,1.538748,-0.460946,1.355092,-1.781861,6.375857,0.397981,-2.921604,9.542512,-24.326860,-0.053586,-0.180024,0.000000,0.735364,0.195419,0.000000
1.530000,-1.691160,-0.474783,-1.410813,1.763344,-0.849269,0.385797,1.520796,-0.396695,1.357852,-1.812305,6.461225,0.151609,-3.235180,7.369044,-24.895525,-0.046160,-0.178025,0.000000,0.748240,0.204351,-0.000000
1.540000,-1.673450,-0.483296,-1.406888,1.778462,-0.852913,0.399384,1.502501,-0.331722,1.358125,-1.846565,6.523238,-0.099929,-3.242903,5.448008,-25.468764,-0.038623,-0.175933,0.000000,0.757752,0.213665,0.000000
1.550000,-1.655591,-0.491841,-1.402826,1.793394,-0.855904,0.412960,1.483865,-0.266230,1.355853,-1.877163,6.570185,-0.357767,-2.744790,4.460005,-26.125552,-0.031007,-0.173749,0.000000,0.764819,0.222503,0.000000
1.560000,-1.637583,-0.500414,-1.398628,1.808139,-0.858237,0.426501,1.464958,-0.200318,1.350969,-1.901460,6.612438,-0.622440,-2.286891,3.748357,-26.726408,-0.023329,-0.171482,0.000000,0.770602,0.230549,0.000000
1.570000,-1.619428,-0.509006,-1.394296,1.822693,-0.859910,0.439979,1.445836,-0.133982,1.343405,-1.922901,6.645153,-0.892295,-2.247706,1.602363,-27.069509,-0.015598,-0.169138,0.000000,0.774488,0.238139,-0.000000
1.580000,-1.601129,-0.517612,-1.389829,1.837056,-0.860917,0.453369,1.426500,-0.067415,1.333123,-1.946415,6.644485,-1.163830,-2.384874,-1.630105,-27.193236,-0.007842,-0.166719,0.000000,0.773673,0.245752,0.000000
1.590000,-1.582687,-0.526224,-1.385228,1.851223,-0.861258,0.466642,1.406907,-0.001092,1.320128,-1.970598,6.612550,-1.436159,-2.233415,-3.657758,-27.356566,-0.000127,-0.164224,0.000000,0.768412,0.253191,-0.000000
1.600000,-1.564104,-0.534837,-1.380496,1.865194,-0.860939,0.479771,1.387088,0.064836,1.304400,-1.991083,6.571330,-1.710962,-2.210083,-5.460116,-27.570670,0.007523,-0.161656,0.000000,0.761278,0.259974,-0.000000
1.610000,-1.545383,-0.543443,-1.375633,1.878965,-0.859962,0.492730,1.367086,0.130335,1.285909,-2.014800,6.503348,-1.987573,-2.578303,-8.447342,-27.659685,0.015096,-0.159025,0.000000,0.750266,0.266866,0.000000
1.620000,-1.526525,-0.552036,-1.370641,1.892536,-0.858332,0.505489,1.346792,0.194903,1.264649,-2.042649,6.402383,-2.264156,-2.087419,-9.282951,-27.624997,0.022526,-0.156319,0.000000,0.734719,0.273920,0.000000
1.630000,-1.507532,-0.560610,-1.365523,1.905901,-0.856064,0.518023,1.326233,0.258382,1.240626,-2.056548,6.317689,-2.540073,-0.621658,-7.347572,-27.521514,0.029788,-0.153546,0.000000,0.720382,0.279052,-0.000000
1.640000,-1.488407,-0.569158,-1.360281,1.919060,-0.853165,0.530302,1.305661,0.321257,1.213847,-2.055082,6.255432,-2.814586,0.080411,-7.331443,-27.331140,0.036932,-0.150737,0.000000,0.707970,0.282097,-0.000000
1.650000,-1.469151,-0.577673,-1.354917,1.932014,-0.849638,0.542300,1.285131,0.383491,1.184334,-2.054940,6.171060,-3.086696,0.020431,-9.606192,-27.085355,0.043946,-0.147901,0.000000,0.692413,0.284945,-0.000000
1.660000,-1.449767,-0.586150,-1.349435,1.944763,-0.845495,0.553989,1.264562,0.444678,1.152113,-2.054673,6.063308,-3.356293,0.356816,-10.990679,-26.794519,0.050778,-0.145033,0.000000,0.673664,0.287428,-0.000000
1.670000,-1.430256,-0.594583,-1.343837,1.957305,-0.840745,0.565342,1.244038,0.504757,1.117208,-2.047804,5.951247,-3.622586,0.633776,-11.688906,-26.336985,0.057417,-0.142146,0.000000,0.653979,0.288813,-0.000000
1.680000,-1.410620,-0.602965,-1.338128,1.969644,-0.835400,0.576333,1.223606,0.563703,1.079662,-2.041998,5.829530,-3.883033,0.377885,-12.980028,-25.694038,0.063856,-0.139249,0.000000,0.632845,0.289935,0.000000
1.690000,-1.390863,-0.611291,-1.332311,1.981778,-0.829471,0.586935,1.203198,0.621348,1.039547,-2.040246,5.691646,-4.136467,0.316090,-14.288943,-25.037365,0.070073,-0.136337,0.000000,0.609638,0.291121,0.000000
1.700000,-1.370985,-0.619555,-1.326389,1.993707,-0.822973,0.597124,1.182801,0.677536,0.996932,-2.035676,5.543751,-4.383780,0.857289,-14.426622,-24.461521,0.076048,-0.133413,0.000000,0.585141,0.291629,0.000000
1.710000,-1.350989,-0.627751,-1.320368,2.005434,-0.815920,0.606874,1.162484,0.732223,0.951872,-2.023100,5.403114,-4.625697,1.460857,-13.927570,-23.845570,0.081776,-0.130488,0.000000,0.561346,0.290917,-0.000000
1.720000,-1.330876,-0.635873,-1.314252,2.016957,-0.808328,0.616161,1.142339,0.785598,0.904418,-2.006459,5.265199,-4.860691,1.254161,-15.695119,-22.960647,0.087275,-0.127576,0.000000,0.537807,0.289429,0.000000
1.730000,-1.310650,-0.643917,-1.308045,2.028280,-0.800208,0.624962,1.122355,0.837527,0.854658,-1.998017,5.089211,-5.084910,0.427293,-19.560107,-21.844548,0.092532,-0.124678,0.000000,0.510162,0.288481,-0.000000
1.740000,-1.290311,-0.651877,-1.301753,2.039404,-0.791578,0.633254,1.102379,0.887382,0.802720,-1.997913,4.873997,-5.297582,0.125039,-21.593566,-20.807261,0.097479,-0.121782,0.000000,0.478485,0.288083,0.000000
1.750000,-1.269862,-0.659749,-1.295380,2.050328,-0.782461,0.641017,1.082397,0.935007,0.748706,-1.995516,4.657340,-5.501055,0.196592,-22.085623,-19.870881,0.102102,-0.118889,0.000000,0.446992,0.287122,0.000000
1.760000,-1.249304,-0.667526,-1.288932,2.061052,-0.772878,0.648229,1.062469,0.980529,0.692699,-1.993981,4.432285,-5.695000,-0.099720,-23.614399,-18.834022,0.106420,-0.116010,0.000000,0.414991,0.285962,-0.000000
1.770000,-1.228640,-0.675206,-1.282415,2.071577,-0.762850,0.654871,1.042517,1.023652,0.634806,-1.997511,4.185052,-5.877736,-0.127468,-24.471880,-17.700355,0.110403,-0.113138,0.000000,0.381125,0.285048,0.000000
1.780000,-1.207873,-0.682783,-1.275835,2.081903,-0.752404,0.660925,1.022519,1.064230,0.575144,-1.996531,3.942847,-6.049007,0.403942,-23.638353,-16.548790,0.114044,-0.110275,0.000000,0.348380,0.283372,0.000000
1.790000,-1.187002,-0.690254,-1.269197,2.092028,-0.741565,0.666374,1.002586,1.102509,0.513826,-1.989432,3.712285,-6.208712,0.561786,-23.668473,-15.366618,0.117372,-0.107434,0.000000,0.317462,0.280802,-0.000000
1.800000,-1.166032,-0.697615,-1.262507,2.101954,-0.730354,0.671201,0.982730,1.138476,0.450970,-1.985295,3.469478,-6.356339,0.224960,-25.117312,-14.133736,0.120394,-0.104620,0.000000,0.285894,0.278321,-0.000000
1.810000,-1.144963,-0.704861,-1.255773,2.111682,-0.718796,0.675393,0.962881,1.171899,0.386699,-1.984933,3.209939,-6.491386,0.039427,-26.185365,-12.871007,0.123092,-0.101827,0.000000,0.253288,0.276021,-0.000000
1.820000,-1.123798,-0.711991,-1.249000,2.121212,-0.706916,0.678935,0.943031,1.202674,0.321142,-1.984506,2.945770,-6.613759,0.048244,-26.169441,-11.623539,0.125462,-0.099058,0.000000,0.220955,0.273521,-0.000000
1.830000,-1.102539,-0.719000,-1.242194,2.130543,-0.694742,0.681816,0.923190,1.230814,0.254424,-1.983968,2.686550,-6.723857,0.010852,-25.680839,-10.393269,0.127513,-0.096314,0.000000,0.189893,0.270841,0.000000
1.840000,-1.081187,-0.725886,-1.235363,2.139676,-0.682300,0.684024,0.903352,1.256405,0.186665,-1.984289,2.432154,-6.821625,-0.069010,-25.518588,-9.130861,0.129262,-0.093597,0.000000,0.160080,0.268099,-0.000000
1.850000,-1.059746,-0.732646,-1.228514,2.148610,-0.669614,0.685549,0.883505,1.279457,0.117992,-1.985348,2.176178,-6.906474,-0.051256,-25.628713,-7.827076,0.130717,-0.090907,0.000000,0.130869,0.265296,0.000000
1.860000,-1.038215,-0.739278,-1.221652,2.157346,-0.656711,0.686383,0.863645,1.299929,0.048536,-1.985314,1.919579,-6.978166,0.043378,-25.503525,-6.523696,0.131881,-0.088245,0.000000,0.102359,0.262263,0.000000
1.870000,-1.016599,-0.745780,-1.214786,2.165883,-0.643616,0.686520,0.843798,1.317849,-0.021572,-1.984481,1.666108,-7.036948,-0.100306,-25.241504,-5.255744,0.132766,-0.085616,0.000000,0.074914,0.259052,-0.000000
1.880000,-0.994898,-0.752150,-1.207922,2.174222,-0.630354,0.685952,0.823955,1.333251,-0.092203,-1.987321,1.414749,-7.083281,-0.478171,-25.010108,-4.018986,0.133382,-0.083018,0.000000,0.048413,0.256132,-0.000000
1.890000,-0.973114,-0.758387,-1.201067,2.182362,-0.616951,0.684676,0.804052,1.346144,-0.163237,-1.994044,1.165905,-7.117328,-0.658361,-24.648360,-2.777985,0.133736,-0.080447,0.000000,0.022873,0.253527,0.000000
1.900000,-0.951250,-0.764489,-1.194228,2.190303,-0.603431,0.682687,0.784074,1.356569,-0.234550,-2.000488,0.921782,-7.138841,-0.653167,-24.278560,-1.509980,0.133841,-0.077902,0.000000,-0.001516,0.250834,-0.000000
1.910000,-0.929308,-0.770456,-1.187413,2.198044,-0.589819,0.679985,0.764042,1.364579,-0.306014,-2.007107,0.680334,-7.147528,-0.746821,-24.015559,-0.247312,0.133707,-0.075385,0.000000,-0.024981,0.248111,0.000000
1.920000,-0.907290,-0.776286,-1.180629,2.205584,-0.576139,0.676567,0.743932,1.370176,-0.377500,-2.015424,0.441471,-7.143787,-0.800204,-23.431406,0.932248,0.133343,-0.072895,0.000000,-0.047560,0.245520,-0.000000
1.930000,-0.885196,-0.781978,-1.173882,2.212922,-0.562416,0.672435,0.723734,1.373409,-0.448890,-2.023111,0.211706,-7.128883,-0.689132,-22.604956,2.033933,0.132758,-0.070430,0.000000,-0.068681,0.242853,0.000000
1.940000,-0.863031,-0.787534,-1.167180,2.220058,-0.548671,0.667589,0.703470,1.374410,-0.520078,-2.029207,-0.010628,-7.103109,-0.628952,-22.123586,3.153422,0.131970,-0.067994,0.000000,-0.088553,0.240034,0.000000
1.950000,-0.840795,-0.792952,-1.160530,2.226992,-0.534928,0.662033,0.683150,1.373196,-0.590952,-2.035690,-0.230766,-7.065814,-0.765870,-21.143007,4.283812,0.130988,-0.065587,0.000000,-0.107697,0.237259,-0.000000
1.960000,-0.818491,-0.798232,-1.153939,2.233721,-0.521207,0.655770,0.662756,1.369795,-0.661394,-2.044524,-0.433488,-7.017432,-0.937604,-19.351744,5.356204,0.129818,-0.063208,0.000000,-0.124723,0.234724,-0.000000
1.970000,-0.796121,-0.803376,-1.147415,2.240247,-0.507532,0.648805,0.642259,1.364527,-0.731301,-2.054442,-0.617800,-6.958690,-0.801956,-19.367973,6.396134,0.128494,-0.060853,0.000000,-0.139618,0.232315,-0.000000
1.980000,-0.773686,-0.808383,-1.140963,2.246566,-0.493917,0.641144,0.621667,1.357439,-0.800568,-2.060563,-0.820848,-6.889510,-0.382306,-21.405635,7.418917,0.127026,-0.058523,0.000000,-0.155880,0.229582,0.000000
1.990000,-0.751190,-0.813254,-1.134592,2.252680,-0.480383,0.632794,0.601048,1.348110,-0.869091,-2.062089,-1.045913,-6.810312,-0.141124,-21.820460,8.377798,0.125378,-0.056223,0.000000,-0.173784,0.226474,0.000000
2.000000,-0.728633,-0.817991,-1.128307,2.258587,-0.466955,0.623762,0.580426,1.336520,-0.936774,-2.063386,-1.257257,-6.721954,-0.270079,-20.178259,9.305196,0.123551,-0.053957,0.000000,-0.190053,0.223410,-0.000000
2.010000,-0.706018,-0.822593,-1.122117,2.264289,-0.453653,0.614058,0.559780,1.322964,-1.003530,-2.067490,-1.449478,-6.624208,-0.449721,-18.929904,10.225137,0.121577,-0.051720,0.000000,-0.204254,0.220670,0.000000
2.020000,-0.683347,-0.827064,-1.116026,2.269783,-0.440495,0.603692,0.539076,1.307531,-1.069258,-2.072380,-1.635855,-6.517451,-0.220564,-18.381608,11.012151,0.119467,-0.049510,0.000000,-0.217649,0.218069,-0.000000
2.030000,-0.660622,-0.831403,-1.110043,2.275070,-0.427502,0.592673,0.518332,1.290247,-1.133879,-2.071901,-1.817111,-6.403965,0.266013,-17.313071,11.628888,0.117225,-0.047327,0.000000,-0.230362,0.215064,-0.000000
2.040000,-0.637846,-0.835614,-1.104173,2.280150,-0.414690,0.581014,0.497638,1.271189,-1.197338,-2.067060,-1.982117,-6.284873,0.404951,-15.550803,12.250286,0.114860,-0.045179,0.000000,-0.241435,0.211762,0.000000
2.050000,-0.615019,-0.839697,-1.098422,2.285023,-0.402078,0.568726,0.476991,1.250605,-1.259576,-2.063802,-2.128127,-6.158959,0.506404,-15.632605,13.045634,0.112396,-0.043064,0.000000,-0.250657,0.208699,-0.000000
2.060000,-0.592145,-0.843655,-1.092798,2.289690,-0.389678,0.555823,0.456362,1.228626,-1.320517,-2.056932,-2.294769,-6.023960,0.933800,-17.402383,13.881289,0.109847,-0.040978,0.000000,-0.261570,0.205398,0.000000
2.070000,-0.569225,-0.847491,-1.087306,2.294150,-0.377506,0.542316,0.435853,1.204710,-1.380055,-2.045126,-2.476174,-5.881333,0.668018,-13.748714,14.306833,0.107165,-0.038930,0.000000,-0.273640,0.201762,0.000000
2.080000,-0.546262,-0.851205,-1.081952,2.298407,-0.365584,0.528222,0.415459,1.179103,-1.438144,-2.043572,-2.569743,-5.737824,-0.504602,-4.571301,14.361921,0.104374,-0.036919,0.000000,-0.277916,0.199159,-0.000000
2.090000,-0.523257,-0.854802,-1.076742,2.302459,-0.353924,0.513553,0.394981,1.153315,-1.494812,-2.055218,-2.567600,-5.594095,-1.146814,0.356354,14.655642,0.101606,-0.034925,0.000000,-0.273883,0.197821,0.000000
2.100000,-0.500213,-0.858284,-1.071681,2.306306,-0.342518,0.498325,0.374355,1.127751,-1.550025,-2.066508,-2.562616,-5.444711,-0.801529,0.841981,15.181543,0.098896,-0.032942,0.000000,-0.269713,0.196525,0.000000
2.110000,-0.477131,-0.861653,-1.066775,2.309946,-0.331369,0.482553,0.353651,1.102062,-1.603706,-2.071249,-2.550761,-5.290464,-0.470253,3.372066,15.539593,0.096212,-0.030975,0.000000,-0.265055,0.194740,0.000000
2.120000,-0.454014,-0.864911,-1.062030,2.313379,-0.320477,0.466251,0.332930,1.076735,-1.655835,-2.075913,-2.495175,-5.133919,-1.087802,6.133947,15.881863,0.093594,-0.029029,0.000000,-0.256766,0.193041,0.000000
2.130000,-0.430864,-0.868062,-1.057450,2.316605,-0.309834,0.449436,0.312133,1.052159,-1.706385,-2.093005,-2.428082,-4.972827,-2.238353,6.365692,16.378432,0.091076,-0.027097,0.000000,-0.247652,0.192502,-0.000000
2.140000,-0.407682,-0.871108,-1.053041,2.319622,-0.299433,0.432124,0.291070,1.028174,-1.755291,-2.120680,-2.367861,-4.806350,-2.726814,7.103057,16.789207,0.088641,-0.025162,0.000000,-0.239285,0.192942,0.000000
2.150000,-0.384471,-0.874051,-1.048807,2.322426,-0.289270,0.414330,0.269719,1.004802,-1.802512,-2.147541,-2.286021,-4.637043,-3.117231,11.361656,16.943936,0.086289,-0.023222,0.000000,-0.229242,0.193381,-0.000000
2.160000,-0.361233,-0.876893,-1.044754,2.325016,-0.279337,0.396073,0.248119,0.982453,-1.848032,-2.183025,-2.140628,-4.467472,-4.131485,16.711520,17.027804,0.084055,-0.021280,0.000000,-0.213994,0.194633,0.000000
2.170000,-0.337971,-0.879638,-1.040886,2.327389,-0.269621,0.377370,0.226059,0.961989,-1.891861,-2.230171,-1.951790,-4.296487,-3.960194,15.855833,17.435617,0.082009,-0.019316,0.000000,-0.195307,0.196938,0.000000
2.180000,-0.314686,-0.882286,-1.037207,2.329537,-0.260098,0.358236,0.203516,0.943418,-1.933962,-2.262228,-1.823511,-4.118759,-2.266299,9.483094,18.108519,0.080148,-0.017328,0.000000,-0.181968,0.198009,-0.000000
2.190000,-0.291380,-0.884840,-1.033721,2.331459,-0.250753,0.338690,0.180814,0.925519,-1.974236,-2.275497,-1.762128,-3.934316,-1.589601,7.364885,18.525742,0.078369,-0.015343,0.000000,-0.174419,0.197564,0.000000
2.200000,-0.268056,-0.887301,-1.030433,2.333154,-0.241587,0.318751,0.158006,0.908175,-2.012648,-2.294021,-1.676213,-3.748245,-2.236489,9.427163,18.723752,0.076659,-0.013364,0.000000,-0.164942,0.197656,-0.000000
2.210000,-0.244717,-0.889671,-1.027346,2.334619,-0.232589,0.298437,0.134934,0.891995,-2.049201,-2.320227,-1.573585,-3.559841,-2.474073,9.198171,19.045878,0.075069,-0.011377,0.000000,-0.154214,0.198477,0.000000
2.220000,-0.221364,-0.891953,-1.024464,2.335852,-0.223747,0.277767,0.111601,0.876703,-2.083845,-2.343502,-1.492250,-3.367327,-2.097751,8.873660,19.292175,0.073574,-0.009383,0.000000,-0.145398,0.199134,-0.000000
2.230000,-0.198000,-0.894146,-1.021791,2.336851,-0.215055,0.256761,0.088064,0.862150,-2.116548,-2.362182,-1.396112,-3.173998,-1.773669,11.025790,19.326849,0.072161,-0.007384,0.000000,-0.135479,0.199494,-0.000000
2.240000,-0.174627,-0.896254,-1.019329,2.337614,-0.206504,0.235436,0.064357,0.848781,-2.147325,-2.378975,-1.271734,-2.980790,-1.629298,12.099794,19.455770,0.070864,-0.005382,0.000000,-0.123352,0.199789,0.000000
2.250000,-0.151248,-0.898276,-1.017082,2.338138,-0.198080,0.213814,0.040484,0.836715,-2.176163,-2.394768,-1.154116,-2.784882,-1.199707,10.298098,19.771028,0.069693,-0.003378,0.000000,-0.111913,0.200090,-0.000000
2.260000,-0.127864,-0.900215,-1.015053,2.338423,-0.189770,0.191913,0.016462,0.825699,-2.203023,-2.402970,-1.065772,-2.585369,-0.470090,8.271910,20.056569,0.068626,-0.001370,0.000000,-0.103005,0.199853,-0.000000
2.270000,-0.104479,-0.902072,-1.013244,2.338468,-0.181566,0.169754,-0.007575,0.815400,-2.227871,-2.404170,-0.988678,-2.383751,-0.604845,9.633943,20.162839,0.067633,0.000629,0.000000,-0.095116,0.199136,0.000000
2.280000,-0.081095,-0.903847,-1.011658,2.338272,-0.173462,0.147356,-0.031621,0.805925,-2.250698,-2.415066,-0.873093,-2.182113,-1.651056,13.553773,20.167401,0.066723,0.002622,0.000000,-0.084141,0.199322,0.000000
2.290000,-0.057714,-0.905541,-1.010297,2.337835,-0.165447,0.124740,-0.055877,0.797938,-2.271513,-2.437191,-0.717602,-1.980403,-2.017498,15.337637,20.257641,0.065950,0.004625,0.000000,-0.069978,0.200530,0.000000
2.300000,-0.034338,-0.907156,-1.009163,2.337154,-0.157503,0.101925,-0.080365,0.791573,-2.290306,-2.455416,-0.566340,-1.776960,-1.609306,15.013587,20.401300,0.065323,0.006641,0.000000,-0.056256,0.201507,-0.000000
2.310000,-0.010971,-0.908691,-1.008258,2.336228,-0.149616,0.078934,-0.104985,0.786611,-2.307052,-2.469377,-0.417331,-1.572377,-1.499188,15.685053,20.481016,0.064824,0.008664,0.000000,-0.042798,0.202228,0.000000
2.320000,0.012386,-0.910148,-1.007584,2.335055,-0.141771,0.055784,-0.129753,0.783227,-2.321753,-2.485400,-0.252639,-1.367340,-1.595235,16.544247,20.609711,0.064467,0.010695,0.000000,-0.028123,0.203216,-0.000000
2.330000,0.035730,-0.911527,-1.007143,2.333633,-0.133951,0.032498,-0.154693,0.781558,-2.334399,-2.501282,-0.086446,-1.160183,-1.497464,16.407789,20.839446,0.064262,0.012737,0.000000,-0.013377,0.204289,-0.000000
2.340000,0.059059,-0.912827,-1.006934,2.331961,-0.126140,0.009096,-0.179778,0.781498,-2.344957,-2.515349,0.075516,-0.950551,-1.423112,16.638228,21.007780,0.064199,0.014789,0.000000,0.000985,0.205315,0.000000
2.350000,0.082370,-0.914049,-1.006961,2.330037,-0.118321,-0.014401,-0.205000,0.783069,-2.353410,-2.529744,0.246319,-0.740027,-1.541591,17.801041,21.065760,0.064281,0.016852,0.000000,0.016041,0.206468,-0.000000
2.360000,0.105660,-0.915193,-1.007222,2.327861,-0.110478,-0.037972,-0.230373,0.786424,-2.359757,-2.546181,0.431537,-0.529235,-1.674843,18.878901,21.130026,0.064520,0.018928,0.000000,0.032254,0.207891,-0.000000
2.370000,0.128927,-0.916259,-1.007720,2.325430,-0.102593,-0.061596,-0.255924,0.791699,-2.363995,-2.563241,0.623897,-0.317426,-1.514055,18.917553,21.294601,0.064926,0.021019,0.000000,0.049047,0.209467,-0.000000
2.380000,0.152168,-0.917245,-1.008454,2.322742,-0.094644,-0.085252,-0.281638,0.798902,-2.366106,-2.576462,0.809888,-0.103343,-1.104602,18.222259,21.526032,0.065501,0.023126,0.000000,0.065338,0.210837,0.000000
2.390000,0.175382,-0.918152,-1.009425,2.319797,-0.086615,-0.108918,-0.307453,0.807897,-2.366062,-2.585333,0.988342,0.113094,-0.847945,17.992350,21.706224,0.066233,0.025245,0.000000,0.081049,0.211962,-0.000000
2.400000,0.198564,-0.918978,-1.010633,2.316593,-0.078487,-0.132573,-0.333345,0.818669,-2.363844,-2.593421,1.169735,0.330781,-0.785062,18.324565,21.807196,0.067122,0.027375,0.000000,0.097045,0.213135,0.000000
2.410000,0.221714,-0.919722,-1.012077,2.313130,-0.070241,-0.156195,-0.359321,0.831292,-2.359446,-2.601034,1.354833,0.549238,-0.642412,18.409687,21.909370,0.068174,0.029518,0.000000,0.113402,0.214381,-0.000000
2.420000,0.244827,-0.920382,-1.013757,2.309407,-0.061861,-0.179762,-0.385365,0.845765,-2.352859,-2.606269,1.537929,0.768968,-0.361833,18.083765,22.083335,0.069390,0.031673,0.000000,0.129673,0.215547,-0.000000
2.430000,0.267902,-0.920959,-1.015672,2.305423,-0.053326,-0.203252,-0.411447,0.862050,-2.344067,-2.608271,1.716509,0.990905,-0.036288,17.627016,22.304906,0.070768,0.033840,0.000000,0.145675,0.216568,-0.000000
2.440000,0.290935,-0.921449,-1.017822,2.301178,-0.044620,-0.226643,-0.437531,0.880096,-2.333041,-2.606995,1.890469,1.215067,0.279270,17.192501,22.481912,0.072304,0.036016,0.000000,0.161414,0.217443,0.000000
2.450000,0.313925,-0.921851,-1.020205,2.296672,-0.035724,-0.249913,-0.463586,0.899860,-2.319765,-2.602685,2.060359,1.440543,0.589407,16.737715,22.592775,0.073997,0.038200,0.000000,0.176948,0.218191,0.000000
2.460000,0.336869,-0.922163,-1.022820,2.291906,-0.026623,-0.273038,-0.489584,0.921303,-2.304230,-2.595207,2.225224,1.666922,0.927291,16.174827,22.698185,0.075843,0.040392,0.000000,0.192209,0.218800,0.000000
2.470000,0.359763,-0.922384,-1.025666,2.286880,-0.017298,-0.295997,-0.515491,0.944364,-2.286427,-2.584139,2.383855,1.894507,1.303784,15.557162,22.846478,0.077841,0.042589,0.000000,0.207117,0.219237,0.000000
2.480000,0.382606,-0.922509,-1.028740,2.281596,-0.007735,-0.318767,-0.541267,0.968980,-2.266340,-2.569131,2.536367,2.123852,1.708362,14.921347,23.017181,0.079986,0.044790,0.000000,0.221699,0.219477,-0.000000
2.490000,0.405395,-0.922538,-1.032041,2.276055,0.002081,-0.341324,-0.566873,0.995091,-2.243950,-2.549972,2.682282,2.354850,2.126845,14.192240,23.144933,0.082276,0.046993,0.000000,0.235929,0.219502,0.000000
2.500000,0.428128,-0.922468,-1.035566,2.270259,0.012167,-0.363646,-0.592267,1.022626,-2.219243,-2.526594,2.820212,2.586750,2.548102,13.354289,23.215939,0.084706,0.049196,0.000000,0.249701,0.219303,-0.000000
2.510000,0.450801,-0.922295,-1.039314,2.264210,0.022534,-0.385709,-0.617405,1.051496,-2.192215,-2.499010,2.949368,2.819169,2.980663,12.464448,23.270871,0.087271,0.051396,0.000000,0.262960,0.218878,-0.000000
2.520000,0.473412,-0.922017,-1.043281,2.257911,0.033197,-0.407490,-0.642247,1.081613,-2.162860,-2.466981,3.069501,3.052168,3.454905,11.547818,23.335806,0.089966,0.053591,0.000000,0.275696,0.218206,0.000000
2.530000,0.495959,-0.921631,-1.047464,2.251365,0.044166,-0.428966,-0.666745,1.112886,-2.131171,-2.429912,3.180324,3.285885,3.969912,10.588742,23.394161,0.092785,0.055778,0.000000,0.287898,0.217236,-0.000000
2.540000,0.518439,-0.921134,-1.051860,2.244576,0.055454,-0.450114,-0.690845,1.145219,-2.097142,-2.387583,3.281275,3.520051,4.481451,9.563001,23.408171,0.095724,0.057954,0.000000,0.299525,0.215945,-0.000000
2.550000,0.540850,-0.920522,-1.056466,2.237548,0.067071,-0.470909,-0.714496,1.178511,-2.060770,-2.340283,3.371584,3.754049,4.967424,8.469738,23.375263,0.098777,0.060117,0.000000,0.310516,0.214351,0.000000
2.560000,0.563190,-0.919792,-1.061278,2.230286,0.079024,-0.491329,-0.737651,1.212651,-2.022061,-2.288235,3.450670,3.987556,5.456846,7.328468,23.315962,0.101935,0.062263,0.000000,0.320826,0.212465,0.000000
2.570000,0.585456,-0.918941,-1.066292,2.222795,0.091324,-0.511350,-0.760261,1.247525,-1.981019,-2.231146,3.518154,4.220368,6.000120,6.151659,23.225394,0.105194,0.064389,0.000000,0.330426,0.210255,0.000000
2.580000,0.607646,-0.917966,-1.071505,2.215081,0.103975,-0.530950,-0.782274,1.283014,-1.937654,-2.168232,3.573703,4.452064,6.589551,4.937356,23.090764,0.108545,0.066492,0.000000,0.339287,0.207648,-0.000000
2.590000,0.629758,-0.916862,-1.076911,2.207149,0.116984,-0.550103,-0.803626,1.318999,-1.891978,-2.099355,3.616901,4.682183,7.153679,3.674177,22.914901,0.111981,0.068567,0.000000,0.347369,0.204619,-0.000000
2.600000,0.651789,-0.915626,-1.082507,2.199008,0.130355,-0.568789,-0.824261,1.355352,-1.844010,-2.025159,3.647187,4.910362,7.664823,2.350425,22.710299,0.115493,0.070610,0.000000,0.354621,0.201212,-0.000000
2.610000,0.673738,-0.914255,-1.088287,2.190664,0.144091,-0.586984,-0.844129,1.391942,-1.793771,-1.946059,3.663909,5.136389,8.169203,0.977758,22.469084,0.119074,0.072618,0.000000,0.360980,0.197450,-0.000000
2.620000,0.695602,-0.912744,-1.094247,2.182126,0.158194,-0.604665,-0.863182,1.428630,-1.741282,-1.861774,3.666742,5.359744,8.727284,-0.403598,22.149001,0.122714,0.074587,0.000000,0.366407,0.193295,-0.000000
2.630000,0.717380,-0.911091,-1.100381,2.173401,0.172664,-0.621809,-0.881364,1.465277,-1.686576,-1.771513,3.655838,5.579369,9.323143,-1.798154,21.744809,0.126403,0.076514,0.000000,0.370894,0.188661,-0.000000
2.640000,0.739070,-0.909291,-1.106683,2.164498,0.187499,-0.638396,-0.898612,1.501747,-1.629695,-1.675312,3.630779,5.794640,9.871466,-3.255493,21.309043,0.130132,0.078391,0.000000,0.374386,0.183530,-0.000000
2.650000,0.760670,-0.907341,-1.113148,2.155428,0.202699,-0.654403,-0.914871,1.537893,-1.570683,-1.574084,3.590728,6.005550,10.353769,-4.748274,20.867350,0.133891,0.080216,0.000000,0.376795,0.177965,0.000000
2.660000,0.782179,-0.905237,-1.119771,2.146201,0.218257,-0.669810,-0.930094,1.573562,-1.509584,-1.468236,3.535814,6.211987,10.822935,-6.242942,20.378651,0.137669,0.081983,0.000000,0.378110,0.171984,-0.000000
2.670000,0.803594,-0.902976,-1.126545,2.136826,0.234170,-0.684595,-0.944235,1.608609,-1.446443,-1.357625,3.465869,6.413123,11.307951,-7.825011,19.771734,0.141454,0.083688,0.000000,0.378287,0.165553,0.000000
2.680000,0.824915,-0.900554,-1.133463,2.127316,0.250429,-0.698739,-0.957246,1.642879,-1.381321,-1.242077,3.379313,6.607422,11.774427,-9.545441,19.052221,0.145235,0.085327,0.000000,0.377142,0.158625,-0.000000
2.690000,0.846141,-0.897967,-1.140519,2.117682,0.267027,-0.712221,-0.969077,1.676195,-1.314295,-1.122136,3.274960,6.794168,12.182890,-11.269113,18.311451,0.148998,0.086894,0.000000,0.374527,0.151223,0.000000
2.700000,0.867269,-0.895213,-1.147707,2.107935,0.283953,-0.725024,-0.979689,1.708378,-1.245438,-0.998419,3.153931,6.973651,12.621085,-12.698219,17.582841,0.152726,0.088385,0.000000,0.370507,0.143380,0.000000
2.710000,0.888299,-0.892288,-1.155020,2.098088,0.301195,-0.737130,-0.989045,1.739274,-1.174822,-0.869715,3.020996,7.145824,13.101883,-13.942389,16.800699,0.156408,0.089795,0.000000,0.365463,0.134970,-0.000000
2.720000,0.909231,-0.889189,-1.162450,2.088154,0.318739,-0.748521,-0.997083,1.768798,-1.102522,-0.736382,2.875083,7.309665,13.358227,-15.818199,15.879012,0.160036,0.091118,0.000000,0.359254,0.125988,0.000000
2.730000,0.930062,-0.885913,-1.169990,2.078146,0.336571,-0.759181,-1.003773,1.796776,-1.028629,-0.602550,2.704632,7.463405,13.369509,-18.349952,14.835309,0.163594,0.092347,0.000000,0.350771,0.116769,-0.000000
2.740000,0.950794,-0.882458,-1.177634,2.068078,0.354674,-0.769093,-1.009134,1.822891,-0.953254,-0.468992,2.508084,7.606371,13.500576,-20.394648,13.781266,0.167051,0.093484,0.000000,0.339788,0.107359,-0.000000
2.750000,0.971424,-0.878820,-1.185372,2.057963,0.373029,-0.778246,-1.013153,1.846937,-0.876501,-0.332539,2.296739,7.739030,13.808362,-21.535122,12.735109,0.170389,0.094524,0.000000,0.327261,0.097455,0.000000
2.760000,0.991953,-0.874997,-1.193198,2.047815,0.391613,-0.786624,-1.015785,1.868826,-0.798473,-0.192824,2.077382,7.861073,14.042335,-22.547591,11.621136,0.173596,0.095461,0.000000,0.313746,0.086993,0.000000
2.770000,1.012380,-0.870988,-1.201105,2.037648,0.410405,-0.794215,-1.017009,1.888485,-0.719280,-0.051692,1.845787,7.971453,14.122245,-24.339705,10.402229,0.176664,0.096290,0.000000,0.298789,0.076110,0.000000
2.780000,1.032706,-0.866789,-1.209083,2.027475,0.429383,-0.801009,-1.016819,1.905741,-0.639044,0.089621,1.590588,8.069118,14.174230,-26.504534,9.092198,0.179571,0.097007,0.000000,0.281256,0.064886,0.000000
2.790000,1.052930,-0.862400,-1.217125,2.017311,0.448520,-0.806996,-1.015217,1.920297,-0.557897,0.231793,1.315696,8.153297,14.276720,-27.853379,7.739696,0.182288,0.097608,0.000000,0.261398,0.053231,-0.000000
2.800000,1.073052,-0.857819,-1.225223,2.007171,0.467789,-0.812167,-1.012183,1.932055,-0.475978,0.375155,1.033520,8.223912,14.128671,-29.336976,6.434378,0.184798,0.098088,0.000000,0.240287,0.041088,-0.000000
2.810000,1.093073,-0.853044,-1.233368,1.997068,0.487161,-0.816515,-1.007714,1.940967,-0.393419,0.514366,0.728957,8.281984,13.705025,-31.626992,5.138936,0.187092,0.098443,0.000000,0.216446,0.028951,-0.000000
2.820000,1.112993,-0.848076,-1.241553,1.987016,0.506608,-0.820035,-1.001896,1.946634,-0.310338,0.649255,0.400980,8.326690,13.859016,-31.726847,3.597924,0.189125,0.098677,0.000000,0.189644,0.016826,0.000000
2.830000,1.132813,-0.842912,-1.249769,1.977030,0.526094,-0.822722,-0.994729,1.948987,-0.226885,0.791546,0.094420,8.353943,14.612266,-29.148360,1.804378,0.190883,0.098785,0.000000,0.164004,0.003525,0.000000
2.840000,1.152534,-0.837554,-1.258007,1.967122,0.545588,-0.824573,-0.986065,1.948523,-0.143259,0.941501,-0.181987,8.362778,14.783283,-28.085972,0.116148,0.192404,0.098747,0.000000,0.140378,-0.011036,-0.000000
2.850000,1.172156,-0.832000,-1.266260,1.957308,0.565064,-0.825587,-0.975899,1.945347,-0.059630,1.087212,-0.467300,8.356266,14.363371,-29.874642,-1.332143,0.193689,0.098559,0.000000,0.115036,-0.025694,0.000000
2.860000,1.191680,-0.826252,-1.274519,1.947604,0.584495,-0.825766,-0.964321,1.939177,0.023866,1.228768,-0.779480,8.336135,14.131850,-31.599194,-2.783502,0.194702,0.098222,0.000000,0.086164,-0.040444,0.000000
2.870000,1.211108,-0.820310,-1.282776,1.938022,0.603848,-0.825110,-0.951323,1.929757,0.107093,1.369849,-1.099284,8.300596,13.810939,-30.484781,-4.534974,0.195410,0.097733,0.000000,0.055502,-0.055678,-0.000000
2.880000,1.230441,-0.814175,-1.291021,1.928577,0.623090,-0.823624,-0.936924,1.917191,0.189878,1.504987,-1.389175,8.245435,13.022445,-27.777070,-6.487110,0.195810,0.097086,0.000000,0.026633,-0.070900,0.000000
2.890000,1.249679,-0.807849,-1.299248,1.919284,0.642192,-0.821313,-0.921224,1.901974,0.272002,1.630298,-1.654825,8.170853,12.220118,-27.026354,-8.242086,0.195940,0.096286,0.000000,-0.000946,-0.085699,-0.000000
2.900000,1.268826,-0.801332,-1.307448,1.910153,0.661129,-0.818184,-0.904318,1.884095,0.353295,1.749389,-1.929702,8.080594,12.077427,-26.349868,-9.890377,0.195788,0.095337,0.000000,-0.030520,-0.100386,0.000000
2.910000,1.287883,-0.794626,-1.315612,1.901197,0.679874,-0.814247,-0.886236,1.863380,0.433613,1.871847,-2.181822,7.973046,12.216065,-23.622082,-11.674580,0.195327,0.094238,0.000000,-0.058907,-0.115959,0.000000
2.920000,1.306850,-0.787734,-1.323733,1.892428,0.698397,-0.809512,-0.866881,1.840458,0.512756,1.993711,-2.402144,7.847102,10.878668,-24.835669,-13.247418,0.194608,0.092972,0.000000,-0.085117,-0.132033,0.000000
2.930000,1.325731,-0.780658,-1.331802,1.883860,0.716683,-0.803992,-0.846362,1.815337,0.590555,2.089420,-2.678536,7.708097,8.163905,-31.094212,-14.490632,0.193622,0.091545,0.000000,-0.118161,-0.145849,-0.000000
2.940000,1.344527,-0.773400,-1.339812,1.875501,0.734704,-0.797700,-0.825092,1.786887,0.666918,2.156989,-3.024028,7.557290,6.455929,-33.976943,-15.889864,0.192241,0.089998,0.000000,-0.159661,-0.157073,0.000000
2.950000,1.363241,-0.765964,-1.347756,1.867358,0.752420,-0.790653,-0.803222,1.754856,0.741701,2.218538,-3.358075,7.390300,5.757401,-31.845769,-17.571013,0.190425,0.088344,0.000000,-0.201369,-0.168027,0.000000
2.960000,1.381875,-0.758352,-1.355625,1.859437,0.769801,-0.782866,-0.780722,1.719726,0.814724,2.272137,-3.660944,7.205869,4.494119,-30.482506,-19.185744,0.188211,0.086575,0.000000,-0.241133,-0.178488,-0.000000
2.970000,1.400430,-0.750568,-1.363413,1.851743,0.786815,-0.774359,-0.757779,1.681638,0.885819,2.308421,-3.967725,7.006585,3.189477,-32.369582,-20.494170,0.185599,0.084710,0.000000,-0.282593,-0.187355,0.000000
2.980000,1.418909,-0.742616,-1.371113,1.844281,0.803434,-0.765150,-0.734553,1.640371,0.954855,2.335926,-4.308335,6.795986,2.483250,-35.207255,-21.619911,0.182556,0.082763,0.000000,-0.328933,-0.195460,-0.000000
2.990000,1.437315,-0.734499,-1.378716,1.837052,0.819622,-0.755262,-0.711060,1.595471,1.021738,2.358086,-4.671870,6.574187,1.534356,-36.088895,-22.849551,0.179017,0.080734,0.000000,-0.379071,-0.203145,0.000000
3.000000,1.455650,-0.726223,-1.386218,1.830060,0.835343,-0.744715,-0.687391,1.546934,1.086339,2.366613,-5.030113,6.338995,-0.146770,-37.236534,-24.081598,0.174971,0.078634,0.000000,-0.429969,-0.209462,-0.000000
3.010000,1.473917,-0.717792,-1.393611,1.823304,0.850561,-0.733535,-0.663728,1.494869,1.148518,2.355150,-5.416601,6.092555,-1.918441,-40.268672,-25.131448,0.170415,0.076480,0.000000,-0.485265,-0.213597,-0.000000
3.020000,1.492117,-0.709212,-1.400889,1.816785,0.865240,-0.721745,-0.640288,1.438602,1.208190,2.328245,-5.835487,5.836366,-2.729439,-38.718582,-26.300656,0.165262,0.074299,0.000000,-0.545476,-0.215967,0.000000
3.030000,1.510252,-0.700488,-1.408046,1.810499,0.879333,-0.709371,-0.617163,1.378159,1.265246,2.300562,-6.190972,5.566542,-2.778650,-31.713877,-27.659957,0.159502,0.072102,0.000000,-0.599764,-0.218225,-0.000000
3.040000,1.528327,-0.691625,-1.415076,1.804442,0.892803,-0.696440,-0.594277,1.314783,1.319521,2.272672,-6.469764,5.283167,-3.433980,-28.237459,-28.771197,0.153264,0.069879,0.000000,-0.646189,-0.220413,0.000000
3.050000,1.546341,-0.682632,-1.421974,1.798613,0.905629,-0.682981,-0.571710,1.248764,1.370909,2.231882,-6.755721,4.991118,-4.635366,-29.350695,-29.591934,0.146576,0.067642,0.000000,-0.694020,-0.220982,0.000000
3.060000,1.564299,-0.673513,-1.428736,1.793008,0.917779,-0.669022,-0.549640,1.179668,1.419343,2.179964,-7.056778,4.691328,-5.474829,-28.931474,-30.413524,0.139383,0.065413,0.000000,-0.744102,-0.220074,-0.000000
3.070000,1.582201,-0.664276,-1.435355,1.787620,0.929222,-0.654594,-0.528111,1.107628,1.464735,2.122386,-7.334351,4.382848,-6.342212,-26.178617,-31.218133,0.131694,0.063198,0.000000,-0.791804,-0.218298,-0.000000
3.080000,1.600051,-0.654928,-1.441827,1.782446,0.939931,-0.639727,-0.507192,1.032981,1.507000,2.053120,-7.580350,4.066965,-7.571649,-23.373577,-31.882749,0.123547,0.061010,0.000000,-0.835909,-0.214895,0.000000
3.090000,1.617850,-0.645477,-1.448149,1.777476,0.949882,-0.624454,-0.487048,0.956021,1.546075,1.970953,-7.801822,3.745193,-8.545750,-21.089911,-32.450026,0.114976,0.058869,0.000000,-0.876976,-0.209664,0.000000
3.100000,1.635601,-0.635931,-1.454317,1.772705,0.959052,-0.608806,-0.467773,0.876945,1.581904,1.882205,-8.002149,3.417965,-9.162816,-18.185798,-33.029487,0.106009,0.056790,0.000000,-0.915171,-0.203329,0.000000
3.110000,1.653304,-0.626296,-1.460325,1.768121,0.967421,-0.592816,-0.449404,0.795978,1.614434,1.787696,-8.165538,3.084603,-9.852841,-14.486961,-33.571882,0.096675,0.054780,0.000000,-0.948376,-0.195980,0.000000
3.120000,1.670963,-0.616582,-1.466173,1.763716,0.974971,-0.576517,-0.432019,0.713634,1.643596,1.685148,-8.291888,2.746527,-10.643209,-12.691829,-33.792308,0.087044,0.052853,0.000000,-0.976297,-0.187321,0.000000
3.130000,1.688579,-0.606797,-1.471856,1.759481,0.981693,-0.559944,-0.415701,0.630140,1.669365,1.574832,-8.419375,2.408757,-11.383992,-12.974385,-33.684251,0.077153,0.051021,0.000000,-1.003322,-0.177350,-0.000000
3.140000,1.706153,-0.596948,-1.477372,1.755402,0.987574,-0.543130,-0.400522,0.545246,1.691771,1.457468,-8.551376,2.072842,-12.072445,-11.667669,-33.629113,0.066981,0.049296,0.000000,-1.029762,-0.166154,-0.000000
3.150000,1.723687,-0.587045,-1.482718,1.751470,0.992598,-0.526108,-0.386552,0.459113,1.710821,1.333383,-8.652728,1.736174,-12.706467,-8.566549,-33.718632,0.056561,0.047691,0.000000,-1.051207,-0.153804,0.000000
3.160000,1.741182,-0.577097,-1.487894,1.747671,0.996756,-0.508913,-0.373855,0.372192,1.726495,1.203339,-8.722707,1.398470,-13.280322,-6.168776,-33.686532,0.045962,0.046216,0.000000,-1.067408,-0.140413,-0.000000
3.170000,1.758640,-0.567110,-1.492897,1.743993,1.000042,-0.491578,-0.362485,0.284659,1.738791,1.067777,-8.776104,1.062444,-13.851531,-4.257734,-33.339550,0.035218,0.044881,0.000000,-1.080061,-0.126050,0.000000
3.180000,1.776062,-0.557096,-1.497725,1.740422,1.002450,-0.474137,-0.352499,0.196670,1.747744,0.926308,-8.807861,0.731679,-14.412921,-1.951882,-32.755910,0.024366,0.043694,0.000000,-1.088462,-0.110682,0.000000
3.190000,1.793449,-0.547061,-1.502379,1.736943,1.003975,-0.456624,-0.343959,0.108501,1.753424,0.779518,-8.815141,0.407326,-14.880396,0.213856,-32.179465,0.013454,0.042667,0.000000,-1.092227,-0.094416,-0.000000
3.200000,1.810801,-0.537016,-1.506858,1.733543,1.004620,-0.439069,-0.336909,0.020367,1.755890,0.628701,-8.803584,0.088089,-15.303655,2.055350,-31.677940,0.002527,0.041806,0.000000,-1.092057,-0.077466,0.000000
3.210000,1.828119,-0.526969,-1.511161,1.730205,1.004383,-0.421506,-0.331385,-0.067570,1.755186,0.473445,-8.774034,-0.226233,-15.730140,3.964636,-31.087292,-0.008382,0.041118,0.000000,-1.088079,-0.059830,-0.000000
3.220000,1.845405,-0.516929,-1.515288,1.726915,1.003268,-0.403965,-0.327440,-0.155114,1.751366,0.314098,-8.724291,-0.533657,-15.985388,5.996500,-30.234812,-0.019230,0.040610,0.000000,-1.080069,-0.041591,-0.000000
3.230000,1.862658,-0.506904,-1.519240,1.723656,1.001281,-0.386478,-0.325103,-0.242056,1.744513,0.153737,-8.654104,-0.830929,-16.030976,8.008934,-29.170947,-0.029978,0.040286,0.000000,-1.068087,-0.023166,0.000000
3.240000,1.879878,-0.496903,-1.523018,1.720413,0.998427,-0.369075,-0.324365,-0.328196,1.734747,-0.006522,-8.564113,-1.117076,-16.109754,9.956129,-28.126816,-0.040587,0.040146,0.000000,-1.052338,-0.004737,0.000000
3.250000,1.897066,-0.486935,-1.526622,1.717169,0.994717,-0.351783,-0.325233,-0.413338,1.722172,-0.168458,-8.454982,-1.393466,-16.335168,11.851800,-27.151161,-0.051021,0.040191,0.000000,-1.033031,0.013860,-0.000000
3.260000,1.914221,-0.477009,-1.530053,1.713908,0.990160,-0.334632,-0.327734,-0.497295,1.706878,-0.333225,-8.327077,-1.660099,-16.532891,13.715454,-26.094093,-0.061244,0.040423,0.000000,-1.010355,0.032722,-0.000000
3.270000,1.931344,-0.467132,-1.533314,1.710614,0.984771,-0.317646,-0.331898,-0.579880,1.688970,-0.499115,-8.180673,-1.915348,-16.434982,15.544272,-24.859456,-0.071224,0.040846,0.000000,-0.984515,0.051603,-0.000000
3.280000,1.948434,-0.457313,-1.536406,1.707270,0.978563,-0.300852,-0.337717,-0.660909,1.668571,-0.661925,-8.016191,-2.157288,-16.126969,17.407067,-23.504320,-0.080932,0.041457,0.000000,-0.955756,0.069961,0.000000
3.290000,1.965490,-0.447561,-1.539331,1.703860,0.971553,-0.284274,-0.345136,-0.740204,1.645824,-0.821655,-7.832531,-2.385434,-15.955143,19.278834,-22.159638,-0.090337,0.042249,0.000000,-0.924134,0.087773,0.000000
3.300000,1.982511,-0.437882,-1.542092,1.700367,0.963759,-0.267936,-0.354150,-0.817560,1.620862,-0.981028,-7.630615,-2.600481,-15.699876,20.561615,-20.827051,-0.099413,0.043219,0.000000,-0.889944,0.105343,0.000000
3.310000,1.999497,-0.428285,-1.544690,1.696777,0.955201,-0.251857,-0.364757,-0.892816,1.593814,-1.135652,-7.421299,-2.801975,-15.151538,21.310353,-19.430775,-0.108135,0.044366,0.000000,-0.854679,0.122122,0.000000
3.320000,2.016446,-0.418778,-1.547129,1.693072,0.945902,-0.236059,-0.376863,-0.965985,1.564823,-1.284058,-7.204408,-2.989096,-15.002578,23.220311,-17.996225,-0.116505,0.045675,0.000000,-0.818479,0.137933,0.000000
3.330000,2.033358,-0.409367,-1.549411,1.689240,0.935882,-0.220561,-0.390438,-1.036904,1.534032,-1.435704,-6.956893,-3.161900,-15.310182,26.169366,-16.555171,-0.124504,0.047142,0.000000,-0.778751,0.153908,0.000000
3.340000,2.050231,-0.400060,-1.551540,1.685264,0.925164,-0.205379,-0.405577,-1.105123,1.501585,-1.590262,-6.681020,-3.320200,-15.111014,27.834281,-15.081502,-0.132081,0.048776,0.000000,-0.735977,0.169994,-0.000000
3.350000,2.067064,-0.390864,-1.553519,1.681128,0.913779,-0.190529,-0.422243,-1.170525,1.467628,-1.737924,-6.400207,-3.463530,-14.608496,29.075071,-13.604534,-0.139225,0.050571,0.000000,-0.693098,0.185025,-0.000000
3.360000,2.083854,-0.381785,-1.555351,1.676819,0.901754,-0.176026,-0.440335,-1.233127,1.432314,-1.882432,-6.099519,-3.592290,-14.428002,31.343068,-12.151507,-0.145944,0.052512,0.000000,-0.648468,0.199458,0.000000
3.370000,2.100600,-0.372829,-1.557039,1.672321,0.889117,-0.161883,-0.459892,-1.292515,1.395783,-2.026484,-5.773346,-3.706560,-13.721616,31.562252,-10.644536,-0.152196,0.054602,0.000000,-0.601588,0.213620,-0.000000
3.380000,2.117300,-0.364003,-1.558588,1.667621,0.875903,-0.148111,-0.480865,-1.348594,1.358183,-2.156864,-5.468274,-3.805181,-12.208395,29.060561,-9.085828,-0.157978,0.056834,0.000000,-0.557992,0.225990,-0.000000
3.390000,2.133952,-0.355311,-1.560001,1.662704,0.862145,-0.134719,-0.503029,-1.401880,1.319679,-2.270652,-5.192135,-3.888276,-11.117024,28.189995,-7.599293,-0.163357,0.059178,0.000000,-0.518554,0.236278,0.000000
3.400000,2.150554,-0.346760,-1.561283,1.657560,0.847866,-0.121717,-0.526278,-1.452437,1.280417,-2.379205,-4.904474,-3.957167,-10.793066,29.657341,-6.161359,-0.168350,0.061622,0.000000,-0.478614,0.245836,-0.000000
3.410000,2.167104,-0.338354,-1.562436,1.652179,0.833096,-0.109111,-0.550613,-1.499970,1.240536,-2.486514,-4.598988,-4.011503,-10.384492,30.482619,-4.703263,-0.172932,0.064165,0.000000,-0.437541,0.255149,-0.000000
3.420000,2.183598,-0.330098,-1.563465,1.646548,0.817866,-0.096906,-0.576008,-1.544417,1.200187,-2.586895,-4.294822,-4.051232,-9.272641,29.836167,-3.351035,-0.177103,0.066802,0.000000,-0.397559,0.263592,0.000000
3.430000,2.200035,-0.321996,-1.564374,1.640658,0.802208,-0.085107,-0.602351,-1.585866,1.159511,-2.671966,-4.002265,-4.078524,-7.807132,28.912750,-2.156421,-0.180885,0.069520,0.000000,-0.359788,0.270236,-0.000000
3.440000,2.216411,-0.314054,-1.565167,1.634501,0.786149,-0.073716,-0.629448,-1.624462,1.118617,-2.743037,-3.716566,-4.094361,-6.766463,28.586834,-0.951561,-0.184301,0.072296,0.000000,-0.323653,0.275277,0.000000
3.450000,2.232725,-0.306273,-1.565848,1.628069,0.769718,-0.062735,-0.657212,-1.660198,1.077624,-2.807296,-3.430528,-4.097555,-5.738911,27.687573,0.378380,-0.187360,0.075120,0.000000,-0.288360,0.279574,0.000000
3.460000,2.248972,-0.298659,-1.566422,1.621357,0.752945,-0.052164,-0.685593,-1.693073,1.036666,-2.857816,-3.162815,-4.086793,-4.264864,25.792730,1.700341,-0.190070,0.077987,0.000000,-0.255988,0.282402,-0.000000
3.470000,2.265152,-0.291214,-1.566892,1.614358,0.735857,-0.042001,-0.714368,-1.723454,0.995888,-2.892593,-2.914673,-4.063549,-3.632668,26.146611,2.708885,-0.192482,0.080871,0.000000,-0.226580,0.283579,0.000000
3.480000,2.281260,-0.283942,-1.567262,1.607069,0.718476,-0.032246,-0.743445,-1.751366,0.955395,-2.930469,-2.639883,-4.032615,-4.052742,28.957819,3.430485,-0.194604,0.083765,0.000000,-0.194945,0.285180,0.000000
3.490000,2.297293,-0.276845,-1.567536,1.599489,0.700830,-0.022894,-0.772978,-1.776252,0.915236,-2.973648,-2.335517,-3.994939,-3.729651,29.765585,4.265242,-0.196382,0.086685,0.000000,-0.160801,0.287437,-0.000000
3.500000,2.313249,-0.269925,-1.567720,1.591610,0.682951,-0.013941,-0.802918,-1.798077,0.875496,-3.005062,-2.044571,-3.947310,-2.546186,28.682066,5.266260,-0.197822,0.089626,0.000000,-0.128886,0.288524,0.000000
3.510000,2.329125,-0.263186,-1.567815,1.583430,0.664868,-0.005384,-0.833079,-1.817143,0.836289,-3.024571,-1.761876,-3.889614,-1.722747,28.685096,6.158267,-0.198962,0.092570,0.000000,-0.098585,0.288467,0.000000
3.520000,2.344918,-0.256628,-1.567827,1.574948,0.646608,0.002785,-0.863410,-1.833314,0.797704,-3.039517,-1.470869,-3.824145,-1.132861,28.367802,6.851801,-0.199795,0.095512,0.000000,-0.068047,0.288067,0.000000
3.530000,2.360624,-0.250254,-1.567760,1.566162,0.628202,0.010570,-0.893869,-1.846560,0.759806,-3.047229,-1.194520,-3.752578,-0.319276,26.601616,7.436619,-0.200324,0.098449,0.000000,-0.039649,0.287036,-0.000000
3.540000,2.376241,-0.244064,-1.567616,1.557071,0.609677,0.017981,-0.924354,-1.857204,0.722652,-3.045902,-0.938837,-3.675413,0.431665,25.581100,8.009931,-0.200589,0.101370,0.000000,-0.013951,0.285193,0.000000
3.550000,2.391766,-0.238060,-1.567400,1.547675,0.591058,0.025024,-0.954787,-1.865337,0.686298,-3.038595,-0.682898,-3.592379,0.882092,25.786124,8.585013,-0.200604,0.104270,0.000000,0.011297,0.282889,0.000000
3.560000,2.407195,-0.232243,-1.567115,1.537975,0.572370,0.031707,-0.985126,-1.870862,0.650805,-3.028261,-0.423114,-3.503712,1.258282,25.672937,9.098312,-0.200364,0.107144,0.000000,0.036503,0.280446,-0.000000
3.570000,2.422525,-0.226613,-1.566766,1.527972,0.553640,0.038040,-1.015352,-1.873799,0.616224,-3.013430,-0.169439,-3.410413,2.019952,24.754538,9.495487,-0.199875,0.109993,0.000000,0.060677,0.277704,-0.000000
3.580000,2.437754,-0.221170,-1.566355,1.517668,0.534894,0.044031,-1.045395,-1.874251,0.582596,-2.987861,0.071976,-3.313803,3.096549,23.578231,9.794643,-0.199151,0.112811,0.000000,0.083233,0.274004,0.000000
3.590000,2.452879,-0.215915,-1.565885,1.507065,0.516155,0.049692,-1.075110,-1.872360,0.549948,-2.951499,0.302126,-3.214520,3.877040,22.675967,10.067416,-0.198211,0.115584,0.000000,0.104329,0.269349,0.000000
3.600000,2.467895,-0.210847,-1.565361,1.496166,0.497447,0.055030,-1.104425,-1.868209,0.518306,-2.910321,0.525496,-3.112454,4.365727,21.902193,10.339455,-0.197066,0.118306,0.000000,0.124475,0.264375,-0.000000
3.610000,2.482802,-0.205966,-1.564785,1.484976,0.478791,0.060058,-1.133316,-1.861850,0.487699,-2.864184,0.740170,-3.007731,4.964842,20.938542,10.563327,-0.195722,0.120977,0.000000,0.143509,0.259071,-0.000000
3.620000,2.497595,-0.201271,-1.564160,1.473500,0.460210,0.064784,-1.161708,-1.853405,0.458151,-2.811024,0.944267,-2.901188,5.544409,20.135736,10.676533,-0.194196,0.123589,0.000000,0.161281,0.253215,0.000000
3.630000,2.512272,-0.196762,-1.563489,1.461742,0.441723,0.069221,-1.189537,-1.842965,0.429675,-2.753296,1.142884,-2.794200,5.934555,19.647400,10.694919,-0.192497,0.126139,0.000000,0.178375,0.247047,-0.000000
3.640000,2.526830,-0.192437,-1.562775,1.449709,0.423351,0.073378,-1.216774,-1.830548,0.402267,-2.692333,1.337215,-2.687289,6.347066,18.973196,10.704441,-0.190629,0.128624,0.000000,0.194946,0.240697,0.000000
3.650000,2.541266,-0.188295,-1.562021,1.437406,0.405112,0.077266,-1.243383,-1.816220,0.375929,-2.626355,1.522348,-2.580111,6.956781,17.906194,10.717109,-0.188598,0.131042,0.000000,0.210507,0.233984,-0.000000
3.660000,2.555578,-0.184334,-1.561230,1.424841,0.387026,0.080896,-1.269301,-1.800101,0.350665,-2.553197,1.695338,-2.472947,7.598209,16.810910,10.678436,-0.186419,0.133388,0.000000,0.224782,0.226683,0.000000
3.670000,2.569763,-0.180554,-1.560403,1.412020,0.369110,0.084279,-1.294447,-1.782314,0.326470,-2.474391,1.858567,-2.366543,7.859138,16.146265,10.573948,-0.184103,0.135656,0.000000,0.238052,0.218941,0.000000
3.680000,2.583818,-0.176952,-1.559544,1.398952,0.351380,0.087426,-1.318789,-1.762929,0.303334,-2.396014,2.018264,-2.261468,7.787226,15.790498,10.424921,-0.181657,0.137843,0.000000,0.250989,0.211364,0.000000
3.690000,2.597742,-0.173527,-1.558655,1.385645,0.333852,0.090346,-1.342367,-1.741948,0.281241,-2.318646,2.174376,-2.158044,7.931706,15.152822,10.252216,-0.179083,0.139954,0.000000,0.263606,0.203997,0.000000
3.700000,2.611531,-0.170275,-1.557737,1.372105,0.316541,0.093051,-1.365162,-1.719442,0.260173,-2.237380,2.321320,-2.056424,8.293378,14.294912,10.060846,-0.176385,0.141990,0.000000,0.275343,0.196333,-0.000000
3.710000,2.625184,-0.167196,-1.556794,1.358341,0.299463,0.095549,-1.387115,-1.695522,0.240112,-2.152778,2.460275,-1.956827,8.508095,13.603401,9.841476,-0.173576,0.143943,0.000000,0.286338,0.188422,0.000000
3.720000,2.638698,-0.164286,-1.555826,1.344363,0.282631,0.097853,-1.408218,-1.670236,0.221037,-2.067218,2.593388,-1.859594,8.680228,12.814129,9.586133,-0.170658,0.145816,0.000000,0.296826,0.180492,0.000000
3.730000,2.652071,-0.161543,-1.554837,1.330177,0.266058,0.099970,-1.428459,-1.643654,0.202921,-1.979174,2.716557,-1.765105,8.951248,11.763695,9.302343,-0.167639,0.147607,0.000000,0.306408,0.172378,-0.000000
3.740000,2.665302,-0.158965,-1.553827,1.315793,0.249758,0.101911,-1.447801,-1.615905,0.185735,-1.888193,2.828662,-1.673548,9.148133,10.853239,9.006247,-0.164530,0.149313,0.000000,0.314980,0.164024,-0.000000
3.750000,2.678387,-0.156548,-1.552799,1.301221,0.233740,0.103685,-1.466223,-1.587081,0.169450,-1.796211,2.933622,-1.584980,9.190241,10.261677,8.693929,-0.161339,0.150933,0.000000,0.322947,0.155619,-0.000000
3.760000,2.691326,-0.154290,-1.551753,1.286469,0.218016,0.105300,-1.483725,-1.557233,0.154035,-1.704389,3.033896,-1.499669,9.207194,9.702745,8.359877,-0.158071,0.152466,0.000000,0.330564,0.147266,-0.000000
3.770000,2.704117,-0.152188,-1.550693,1.271546,0.202595,0.106766,-1.500311,-1.526403,0.139456,-1.612067,3.127677,-1.417782,9.349298,8.807012,8.027817,-0.154728,0.153915,0.000000,0.337654,0.138891,-0.000000
3.780000,2.716757,-0.150238,-1.549618,1.256463,0.187488,0.108089,-1.515967,-1.494679,0.125679,-1.517403,3.210036,-1.339113,9.570059,7.692832,7.707177,-0.151318,0.155278,0.000000,0.343719,0.130305,-0.000000
3.790000,2.729246,-0.148438,-1.548531,1.241227,0.172702,0.109279,-1.530659,-1.462202,0.112674,-1.420666,3.281534,-1.263639,9.678980,6.842652,7.370203,-0.147853,0.156552,0.000000,0.348816,0.121531,0.000000
3.800000,2.741582,-0.146784,-1.547432,1.225850,0.158244,0.110343,-1.544380,-1.429048,0.100407,-1.323823,3.346889,-1.191709,9.722528,6.089572,6.994099,-0.144341,0.157736,0.000000,0.353427,0.112752,-0.000000
3.810000,2.753763,-0.145273,-1.546324,1.210340,0.144121,0.111287,-1.557136,-1.395265,0.088840,-1.226216,3.403325,-1.123757,9.824067,5.134803,6.603865,-0.140784,0.158831,0.000000,0.357277,0.103892,0.000000
3.820000,2.765788,-0.143902,-1.545207,1.194707,0.130339,0.112120,-1.568904,-1.360982,0.077932,-1.127342,3.449585,-1.059631,9.826502,4.547081,6.267386,-0.137195,0.159835,0.000000,0.360235,0.094896,0.000000
3.830000,2.777657,-0.142666,-1.544082,1.178961,0.116901,0.112846,-1.579682,-1.326273,0.067647,-1.029686,3.494267,-0.998409,9.696520,4.465144,5.982611,-0.133579,0.160747,0.000000,0.363149,0.086020,0.000000
3.840000,2.789368,-0.141564,-1.542950,1.163113,0.103813,0.113473,-1.589498,-1.291097,0.057963,-0.933411,3.538888,-0.939979,9.659010,4.084014,5.662883,-0.129932,0.161571,0.000000,0.366163,0.077277,0.000000
3.850000,2.800919,-0.140590,-1.541812,1.147171,0.091079,0.114005,-1.598351,-1.255495,0.048848,-0.836505,3.575947,-0.885151,9.630946,3.255475,5.293243,-0.126256,0.162306,0.000000,0.368537,0.068449,-0.000000
3.860000,2.812311,-0.139742,-1.540670,1.131146,0.078703,0.114449,-1.606228,-1.219578,0.040260,-0.740792,3.603997,-0.834114,9.468885,2.534705,4.935852,-0.122561,0.162951,0.000000,0.370126,0.059711,0.000000
3.870000,2.823542,-0.139016,-1.539523,1.115047,0.066688,0.114810,-1.613166,-1.183415,0.032165,-0.647128,3.626641,-0.786434,9.483122,2.126390,4.623971,-0.118853,0.163509,0.000000,0.371282,0.051148,-0.000000
3.880000,2.834612,-0.138408,-1.538373,1.098883,0.055035,0.115093,-1.619171,-1.147045,0.024532,-0.551130,3.646525,-0.741635,9.719090,1.815996,4.340016,-0.115135,0.163981,0.000000,0.372250,0.042332,-0.000000
3.890000,2.845520,-0.137915,-1.537221,1.082663,0.043747,0.115301,-1.624189,-1.110485,0.017333,-0.452746,3.662961,-0.699634,9.740705,1.372810,4.046621,-0.111408,0.164361,0.000000,0.372956,0.033256,0.000000
3.900000,2.856265,-0.137533,-1.536067,1.066399,0.032825,0.115439,-1.628226,-1.073786,0.010539,-0.356316,3.673981,-0.660702,9.622591,0.974443,3.735617,-0.107676,0.164650,0.000000,0.373213,0.024341,-0.000000
3.910000,2.866848,-0.137259,-1.534912,1.050099,0.022271,0.115512,-1.631315,-1.037005,0.004119,-0.260294,3.682450,-0.624922,9.650161,0.749564,3.434049,-0.103944,0.164851,0.000000,0.373299,0.015430,-0.000000
3.920000,2.877267,-0.137088,-1.533757,1.033773,0.012085,0.115522,-1.633432,-1.000137,-0.001959,-0.163313,3.688973,-0.592021,9.484669,0.197153,3.169542,-0.100210,0.164961,0.000000,0.373264,0.006390,-0.000000
3.930000,2.887523,-0.137017,-1.532602,1.017430,0.002268,0.115473,-1.634582,-0.963226,-0.007722,-0.070601,3.686393,-0.561531,9.010178,-0.749729,2.935978,-0.096478,0.164980,0.000000,0.372396,-0.002258,0.000000
3.940000,2.897616,-0.137043,-1.531448,1.001081,-0.007179,0.115367,-1.634844,-0.926409,-0.013190,0.016891,3.673978,-0.533302,8.718603,-1.393972,2.699362,-0.092762,0.164915,0.000000,0.370617,-0.010420,-0.000000
3.950000,2.907545,-0.137161,-1.530295,0.984733,-0.016260,0.115209,-1.634244,-0.889746,-0.018388,0.103771,3.658513,-0.507543,8.684888,-1.660259,2.449721,-0.089066,0.164770,0.000000,0.368593,-0.018556,0.000000
3.960000,2.917310,-0.137368,-1.529144,0.968396,-0.024974,0.115000,-1.632768,-0.853238,-0.023341,0.190589,3.640773,-0.484307,8.572290,-2.022299,2.211506,-0.085390,0.164543,0.000000,0.366397,-0.026723,-0.000000
3.970000,2.926913,-0.137660,-1.527995,0.952078,-0.033325,0.114742,-1.630432,-0.816931,-0.028074,0.275217,3.618068,-0.463313,8.319805,-2.519266,2.011851,-0.081738,0.164234,0.000000,0.363757,-0.034707,0.000000
3.980000,2.936352,-0.138034,-1.526849,0.935788,-0.041313,0.114438,-1.627264,-0.780877,-0.032607,0.356985,3.590387,-0.444070,8.062312,-2.963545,1.844770,-0.078115,0.163846,0.000000,0.360666,-0.042435,-0.000000
3.990000,2.945629,-0.138486,-1.525706,0.919533,-0.048942,0.114090,-1.623292,-0.745123,-0.036955,0.436463,3.558797,-0.426418,7.854532,-3.343934,1.675734,-0.074524,0.163383,0.000000,0.357223,-0.049963,-0.000000
4.000000,2.954743,-0.139013,-1.524567,0.903322,-0.056215,0.113699,-1.618535,-0.709701,-0.041136,0.514075,3.523509,-0.410556,7.573622,-3.823202,1.495388,-0.070970,0.162844,0.000000,0.353449,-0.057335,0.000000
4.010000,2.963695,-0.139611,-1.523432,0.887162,-0.063136,0.113267,-1.613011,-0.674653,-0.045167,0.587936,3.482333,-0.396510,7.200879,-4.386490,1.327770,-0.067455,0.162233,0.000000,0.349122,-0.064368,-0.000000
4.020000,2.972486,-0.140276,-1.522302,0.871062,-0.069708,0.112796,-1.606776,-0.640055,-0.049066,0.658093,3.435779,-0.384000,7.066025,-4.617932,1.196222,-0.063988,0.161554,0.000000,0.344290,-0.071061,0.000000
4.030000,2.981116,-0.141005,-1.521176,0.855027,-0.075937,0.112286,-1.599849,-0.605937,-0.052847,0.729256,3.389974,-0.372586,7.183098,-4.516452,1.093736,-0.060569,0.160809,0.000000,0.339552,-0.077872,-0.000000
4.040000,2.989586,-0.141795,-1.520056,0.839065,-0.081827,0.111739,-1.592191,-0.572255,-0.056518,0.801755,3.345450,-0.362126,7.101424,-4.648533,0.990158,-0.057196,0.159994,0.000000,0.334959,-0.084831,0.000000
4.050000,2.997897,-0.142641,-1.518941,0.823183,-0.087382,0.111156,-1.583814,-0.539028,-0.060089,0.871285,3.297003,-0.352783,6.827057,-4.991385,0.879799,-0.053870,0.159110,0.000000,0.329995,-0.091518,0.000000
4.060000,3.006050,-0.143542,-1.517833,0.807388,-0.092608,0.110537,-1.574765,-0.506315,-0.063573,0.938296,3.245622,-0.344530,6.661550,-5.169189,0.782805,-0.050597,0.158161,0.000000,0.324757,-0.097975,-0.000000
4.070000,3.014045,-0.144494,-1.516731,0.791687,-0.097509,0.109884,-1.565048,-0.474116,-0.066980,1.004516,3.193619,-0.337126,6.482307,-5.377607,0.711483,-0.047375,0.157148,0.000000,0.319471,-0.104370,-0.000000
4.080000,3.021884,-0.145492,-1.515635,0.776087,-0.102090,0.109197,-1.554675,-0.442443,-0.070316,1.067942,3.138070,-0.330300,6.177567,-5.757556,0.659000,-0.044207,0.156071,0.000000,0.313843,-0.110501,0.000000
4.090000,3.029567,-0.146535,-1.514547,0.760594,-0.106358,0.108478,-1.543689,-0.411354,-0.073586,1.128067,3.078468,-0.323946,5.942256,-6.009129,0.609451,-0.041098,0.154935,0.000000,0.307821,-0.116316,0.000000
4.100000,3.037096,-0.147620,-1.513465,0.745214,-0.110317,0.107726,-1.532113,-0.380873,-0.076795,1.186787,3.017888,-0.318111,5.811080,-6.090905,0.560601,-0.038051,0.153743,0.000000,0.301711,-0.122003,0.000000
4.110000,3.044471,-0.148742,-1.512392,0.729952,-0.113975,0.106942,-1.519953,-0.350996,-0.079948,1.244289,2.956650,-0.312734,5.647082,-6.212422,0.522351,-0.035064,0.152494,0.000000,0.295543,-0.127580,0.000000
4.120000,3.051695,-0.149899,-1.511327,0.714814,-0.117337,0.106127,-1.507228,-0.321740,-0.083049,1.299729,2.893639,-0.307664,5.434689,-6.376548,0.498831,-0.032140,0.151190,0.000000,0.289205,-0.132960,-0.000000
4.130000,3.058768,-0.151088,-1.510270,0.699807,-0.120410,0.105281,-1.493959,-0.293124,-0.086101,1.352983,2.829119,-0.302758,5.222204,-6.509381,0.486092,-0.029280,0.149833,0.000000,0.282722,-0.138129,-0.000000
4.140000,3.065691,-0.152307,-1.509221,0.684935,-0.123200,0.104405,-1.480168,-0.265158,-0.089104,1.404173,2.763451,-0.297942,5.018806,-6.627096,0.478224,-0.026485,0.148426,0.000000,0.276129,-0.143098,-0.000000
4.150000,3.072466,-0.153552,-1.508181,0.670204,-0.125713,0.103499,-1.465875,-0.237855,-0.092060,1.453359,2.696577,-0.293193,4.815996,-6.745685,0.474761,-0.023757,0.146970,0.000000,0.269420,-0.147873,-0.000000
4.160000,3.079095,-0.154822,-1.507151,0.655618,-0.127957,0.102564,-1.451101,-0.211226,-0.094968,1.500493,2.628538,-0.288447,4.610066,-6.851314,0.478670,-0.021097,0.145467,0.000000,0.262599,-0.152449,0.000000
4.170000,3.085579,-0.156112,-1.506130,0.641182,-0.129937,0.101599,-1.435865,-0.185284,-0.097829,1.545560,2.559551,-0.283620,4.409664,-6.931170,0.489440,-0.018505,0.143920,0.000000,0.255687,-0.156821,0.000000
4.180000,3.091919,-0.157420,-1.505119,0.626900,-0.131662,0.100607,-1.420190,-0.160035,-0.100641,1.588686,2.489914,-0.278658,4.217046,-6.989816,0.505133,-0.015983,0.142331,0.000000,0.248713,-0.161003,-0.000000
4.190000,3.098117,-0.158745,-1.504118,0.612778,-0.133138,0.099587,-1.404092,-0.135486,-0.103402,1.629901,2.419755,-0.273517,4.020731,-7.043951,0.525498,-0.013531,0.140700,0.000000,0.241690,-0.164996,0.000000
4.200000,3.104174,-0.160083,-1.503127,0.598819,-0.134372,0.098539,-1.387592,-0.111640,-0.106111,1.669101,2.349035,-0.268148,3.817725,-7.096016,0.551463,-0.011149,0.139030,0.000000,0.234614,-0.168790,0.000000
4.210000,3.110093,-0.161432,-1.502147,0.585026,-0.135371,0.097464,-1.370710,-0.088505,-0.108765,1.706255,2.277834,-0.262488,3.616540,-7.135150,0.582136,-0.008839,0.137324,0.000000,0.227493,-0.172381,0.000000
4.220000,3.115875,-0.162790,-1.501178,0.571404,-0.136142,0.096364,-1.353466,-0.066084,-0.111361,1.741432,2.206332,-0.256505,3.423881,-7.156863,0.613198,-0.006600,0.135582,0.000000,0.220344,-0.175775,-0.000000
4.230000,3.121521,-0.164155,-1.500220,0.557957,-0.136693,0.095237,-1.335881,-0.044378,-0.113895,1.774733,2.134697,-0.250224,3.237583,-7.165062,0.643812,-0.004432,0.133808,0.000000,0.213185,-0.178983,-0.000000
4.240000,3.127034,-0.165524,-1.499273,0.544687,-0.137030,0.094086,-1.317972,-0.023390,-0.116365,1.806183,2.063031,-0.243629,3.049678,-7.165664,0.678716,-0.002336,0.132003,0.000000,0.206025,-0.182008,-0.000000
4.250000,3.132415,-0.166896,-1.498338,0.531597,-0.137160,0.092910,-1.299757,-0.003118,-0.118768,1.835727,1.991384,-0.236650,2.858543,-7.159806,0.719917,-0.000311,0.130168,0.000000,0.198870,-0.184842,0.000000
4.260000,3.137666,-0.168267,-1.497415,0.518692,-0.137092,0.091710,-1.281257,0.016438,-0.121098,1.863354,1.919835,-0.229231,2.669978,-7.144125,0.763195,0.001642,0.128306,0.000000,0.191728,-0.187485,-0.000000
4.270000,3.142789,-0.169638,-1.496504,0.505972,-0.136832,0.090488,-1.262490,0.035279,-0.123352,1.889126,1.848501,-0.221386,2.488697,-7.116435,0.801912,0.003523,0.126418,0.000000,0.184610,-0.189943,0.000000
4.280000,3.147785,-0.171004,-1.495605,0.493442,-0.136386,0.089243,-1.243475,0.053408,-0.125526,1.913128,1.777506,-0.213193,2.314381,-7.079438,0.836317,0.005334,0.124507,0.000000,0.177528,-0.192226,0.000000
4.290000,3.152657,-0.172365,-1.494719,0.481103,-0.135764,0.087977,-1.224228,0.070829,-0.127616,1.935414,1.706913,-0.204659,2.141093,-7.036395,0.874222,0.007074,0.122574,0.000000,0.170489,-0.194339,0.000000
4.300000,3.157407,-0.173719,-1.493846,0.468957,-0.134970,0.086691,-1.204766,0.087546,-0.129619,1.955950,1.636778,-0.195708,1.958768,-6.979471,0.918478,0.008744,0.120620,0.000000,0.163499,-0.196279,0.000000
4.310000,3.162037,-0.175065,-1.492985,0.457007,-0.134013,0.085385,-1.185109,0.103565,-0.131530,1.974589,1.567323,-0.186290,1.772332,-6.907790,0.962921,0.010344,0.118648,0.000000,0.156579,-0.198029,0.000000
4.320000,3.166547,-0.176400,-1.492138,0.445255,-0.132899,0.084060,-1.165275,0.118893,-0.133345,1.991397,1.498623,-0.176450,1.610521,-6.845388,0.999034,0.011875,0.116659,0.000000,0.149738,-0.199598,0.000000
4.330000,3.170942,-0.177723,-1.491304,0.433702,-0.131635,0.082718,-1.145281,0.133537,-0.135059,2.006800,1.430416,-0.166309,1.470002,-6.791205,1.028027,0.013339,0.114656,0.000000,0.142948,-0.201030,0.000000
4.340000,3.175221,-0.179032,-1.490484,0.422349,-0.130228,0.081359,-1.125139,0.147501,-0.136671,2.020797,1.362799,-0.155889,1.312203,-6.713338,1.060306,0.014734,0.112638,0.000000,0.136219,-0.202325,0.000000
4.350000,3.179389,-0.180327,-1.489677,0.411199,-0.128685,0.079985,-1.104865,0.160793,-0.138177,2.033044,1.296149,-0.145103,1.152758,-6.628132,1.097514,0.016063,0.110609,0.000000,0.129589,-0.203447,0.000000
4.360000,3.183445,-0.181606,-1.488884,0.400252,-0.127012,0.078596,-1.084478,0.173424,-0.139573,2.043852,1.230236,-0.133939,1.015908,-6.555986,1.132071,0.017326,0.108569,0.000000,0.123035,-0.204429,-0.000000
4.370000,3.187394,-0.182867,-1.488105,0.389510,-0.125216,0.077193,-1.063988,0.185398,-0.140856,2.053362,1.165029,-0.122462,0.847971,-6.443065,1.159662,0.018524,0.106520,0.000000,0.116553,-0.205284,0.000000
4.380000,3.191236,-0.184110,-1.487340,0.378972,-0.123304,0.075779,-1.043411,0.196725,-0.142022,2.060811,1.101375,-0.110746,0.639820,-6.281898,1.182102,0.019657,0.104462,0.000000,0.110228,-0.205937,-0.000000
4.390000,3.194973,-0.185334,-1.486590,0.368641,-0.121282,0.074353,-1.022772,0.207425,-0.143071,2.066158,1.039391,-0.098820,0.467213,-6.149014,1.204171,0.020728,0.102400,0.000000,0.104071,-0.206386,0.000000
4.400000,3.198608,-0.186536,-1.485853,0.358517,-0.119156,0.072917,-1.002087,0.217513,-0.143999,2.070156,0.978394,-0.086662,0.328192,-6.043891,1.228359,0.021738,0.100334,0.000000,0.098014,-0.206704,0.000000
4.410000,3.202144,-0.187717,-1.485131,0.348600,-0.116932,0.071473,-0.981369,0.226993,-0.144804,2.072722,0.918513,-0.074252,0.172328,-5.916169,1.250962,0.022688,0.098265,0.000000,0.092069,-0.206884,-0.000000
4.420000,3.205580,-0.188875,-1.484424,0.338890,-0.114616,0.070021,-0.960633,0.235883,-0.145484,2.073602,0.860071,-0.061643,0.026722,-5.789824,1.264052,0.023580,0.096195,0.000000,0.086269,-0.206900,0.000000
4.430000,3.208921,-0.190009,-1.483731,0.329387,-0.112214,0.068563,-0.939896,0.244195,-0.146037,2.073256,0.802717,-0.048971,-0.087130,-5.686645,1.268094,0.024414,0.094126,0.000000,0.080578,-0.206800,-0.000000
4.440000,3.212168,-0.191119,-1.483052,0.320092,-0.109732,0.067100,-0.919168,0.251937,-0.146463,2.071860,0.746338,-0.036281,-0.211128,-5.569985,1.273405,0.025191,0.092058,0.000000,0.074984,-0.206601,0.000000
4.450000,3.215323,-0.192204,-1.482389,0.311004,-0.107175,0.065634,-0.898459,0.259122,-0.146763,2.069034,0.691317,-0.023503,-0.369078,-5.417752,1.283022,0.025914,0.089992,0.000000,0.069526,-0.206266,-0.000000
4.460000,3.218388,-0.193262,-1.481740,0.302123,-0.104549,0.064165,-0.877787,0.265764,-0.146933,2.064478,0.637983,-0.010621,-0.530286,-5.257766,1.289631,0.026582,0.087931,0.000000,0.064235,-0.205762,-0.000000
4.470000,3.221366,-0.194295,-1.481105,0.293448,-0.101860,0.062695,-0.857170,0.271881,-0.146975,2.058428,0.586162,0.002289,-0.642047,-5.140384,1.285939,0.027198,0.085876,0.000000,0.059096,-0.205116,0.000000
4.480000,3.224257,-0.195300,-1.480486,0.284979,-0.099112,0.061226,-0.836619,0.277487,-0.146888,2.051637,0.535175,0.015098,-0.715780,-5.055682,1.274191,0.027764,0.083827,0.000000,0.054038,-0.204402,0.000000
4.490000,3.227065,-0.196277,-1.479881,0.276716,-0.096310,0.059757,-0.816137,0.282585,-0.146673,2.044113,0.485048,0.027773,-0.821151,-4.938024,1.263678,0.028279,0.081786,0.000000,0.049065,-0.203622,-0.000000
4.500000,3.229792,-0.197226,-1.479291,0.268656,-0.093460,0.058292,-0.795736,0.287188,-0.146332,2.035214,0.436415,0.040372,-0.946317,-4.799947,1.254859,0.028745,0.079753,0.000000,0.044240,-0.202711,0.000000
4.510000,3.232438,-0.198146,-1.478715,0.260801,-0.090566,0.056831,-0.775433,0.291313,-0.145866,2.025186,0.389049,0.052870,-1.046645,-4.684176,1.241548,0.029164,0.077730,0.000000,0.039539,-0.201693,0.000000
4.520000,3.235008,-0.199037,-1.478154,0.253148,-0.087634,0.055375,-0.755233,0.294969,-0.145275,2.014281,0.342731,0.065203,-1.169680,-4.543756,1.223531,0.029536,0.075718,0.000000,0.034941,-0.200594,0.000000
4.530000,3.237501,-0.199899,-1.477608,0.245696,-0.084667,0.053925,-0.735147,0.298168,-0.144562,2.001793,0.298174,0.077341,-1.335605,-4.366357,1.202786,0.029863,0.073716,0.000000,0.030517,-0.199343,0.000000
4.540000,3.239921,-0.200730,-1.477076,0.238445,-0.081670,0.052484,-0.715197,0.300932,-0.143728,1.987569,0.255404,0.089258,-1.475286,-4.219486,1.179195,0.030146,0.071729,0.000000,0.026269,-0.197924,-0.000000
4.550000,3.242270,-0.201532,-1.476558,0.231392,-0.078648,0.051051,-0.695396,0.303276,-0.142776,1.972287,0.213784,0.100925,-1.564499,-4.079595,1.154138,0.030388,0.069756,0.000000,0.022133,-0.196406,0.000000
4.560000,3.244549,-0.202303,-1.476055,0.224537,-0.075605,0.049628,-0.675751,0.305208,-0.141709,1.956279,0.173812,0.112341,-1.652292,-3.903236,1.127726,0.030589,0.067799,0.000000,0.018159,-0.194821,0.000000
4.570000,3.246761,-0.203044,-1.475565,0.217877,-0.072544,0.048217,-0.656270,0.306752,-0.140530,1.939241,0.135720,0.123479,-1.787064,-3.779755,1.095292,0.030751,0.065858,0.000000,0.014370,-0.193138,0.000000
4.580000,3.248907,-0.203754,-1.475090,0.211411,-0.069470,0.046817,-0.636966,0.307922,-0.139240,1.920538,0.098217,0.134247,-1.947588,-3.719840,1.057070,0.030876,0.063934,0.000000,0.010637,-0.191294,-0.000000
4.590000,3.250989,-0.204434,-1.474629,0.205138,-0.066386,0.045432,-0.617859,0.308716,-0.137845,1.900289,0.061323,0.144621,-2.072654,-3.598249,1.019576,0.030964,0.062030,0.000000,0.006961,-0.189301,-0.000000
4.600000,3.253010,-0.205082,-1.474182,0.199054,-0.063296,0.044061,-0.598960,0.309149,-0.136347,1.879085,0.026252,0.154639,-2.199158,-3.458399,0.980899,0.031015,0.060147,0.000000,0.003464,-0.187217,-0.000000
4.610000,3.254970,-0.205700,-1.473748,0.193159,-0.060203,0.042705,-0.580278,0.309241,-0.134752,1.856306,-0.007845,0.164239,-2.363980,-3.380429,0.936990,0.031033,0.058284,0.000000,0.000060,-0.184979,0.000000
4.620000,3.256873,-0.206286,-1.473328,0.187449,-0.057111,0.041365,-0.561834,0.308992,-0.133063,1.831805,-0.041356,0.173378,-2.452145,-3.203254,0.895188,0.031017,0.056445,0.000000,-0.003288,-0.182573,-0.000000
4.630000,3.258719,-0.206842,-1.472921,0.181922,-0.054023,0.040044,-0.543642,0.308414,-0.131284,1.807263,-0.071910,0.182143,-2.447910,-2.894899,0.857153,0.030967,0.054631,0.000000,-0.006344,-0.180166,0.000000
4.640000,3.260511,-0.207367,-1.472527,0.176576,-0.050942,0.038740,-0.525689,0.307554,-0.129420,1.782847,-0.099254,0.190521,-2.512537,-2.684205,0.812614,0.030890,0.052840,0.000000,-0.009080,-0.177775,0.000000
4.650000,3.262251,-0.207861,-1.472146,0.171408,-0.047872,0.037455,-0.507985,0.306429,-0.127474,1.757013,-0.125594,0.198395,-2.651760,-2.581017,0.761455,0.030786,0.051074,0.000000,-0.011720,-0.175245,0.000000
4.660000,3.263939,-0.208324,-1.471778,0.166416,-0.044814,0.036190,-0.490549,0.305042,-0.125452,1.729812,-0.150875,0.205750,-2.757599,-2.431878,0.710682,0.030655,0.049334,0.000000,-0.014257,-0.172580,0.000000
4.670000,3.265579,-0.208757,-1.471422,0.161597,-0.041771,0.034946,-0.473388,0.303412,-0.123359,1.701861,-0.174232,0.212608,-2.857368,-2.274814,0.657896,0.030501,0.047620,0.000000,-0.016605,-0.169843,-0.000000
4.680000,3.267171,-0.209159,-1.471079,0.156948,-0.038746,0.033723,-0.456512,0.301557,-0.121200,1.672664,-0.196371,0.218908,-2.997768,-2.176138,0.600422,0.030323,0.045935,0.000000,-0.018833,-0.166982,-0.000000
4.690000,3.268718,-0.209532,-1.470747,0.152467,-0.035740,0.032522,-0.439935,0.299484,-0.118981,1.641905,-0.217755,0.224617,-3.131367,-2.069764,0.542315,0.030124,0.044279,0.000000,-0.020990,-0.163966,-0.000000
4.700000,3.270221,-0.209874,-1.470428,0.148150,-0.032756,0.031344,-0.423673,0.297202,-0.116707,1.610037,-0.237766,0.229755,-3.200014,-1.874356,0.485452,0.029903,0.042654,0.000000,-0.023012,-0.160840,0.000000
4.710000,3.271681,-0.210187,-1.470121,0.143994,-0.029796,0.030188,-0.407734,0.294729,-0.114386,1.577905,-0.255242,0.234326,-3.242313,-1.643924,0.426951,0.029664,0.041061,0.000000,-0.024782,-0.157687,-0.000000
4.720000,3.273101,-0.210470,-1.469824,0.139995,-0.026861,0.029056,-0.392115,0.292097,-0.112021,1.545191,-0.270645,0.238294,-3.402385,-1.580101,0.363503,0.029408,0.039499,0.000000,-0.026347,-0.154476,-0.000000
4.730000,3.274481,-0.210724,-1.469539,0.136151,-0.023954,0.027948,-0.376831,0.289316,-0.109620,1.509857,-0.286844,0.241596,-3.667750,-1.664324,0.296735,0.029137,0.037970,0.000000,-0.027995,-0.151002,-0.000000
4.740000,3.275824,-0.210949,-1.469265,0.132458,-0.021075,0.026863,-0.361918,0.286360,-0.107189,1.471836,-0.303931,0.244228,-3.844141,-1.625366,0.230896,0.028848,0.036478,0.000000,-0.029736,-0.147256,-0.000000
4.750000,3.277130,-0.211146,-1.469002,0.128913,-0.018227,0.025804,-0.347394,0.283237,-0.104735,1.432974,-0.319351,0.246214,-3.944477,-1.490734,0.161619,0.028542,0.035024,0.000000,-0.031312,-0.143425,-0.000000
4.760000,3.278402,-0.211314,-1.468749,0.125511,-0.015410,0.024769,-0.333259,0.279973,-0.102265,1.392946,-0.333746,0.247461,-4.095973,-1.437538,0.086557,0.028222,0.033608,0.000000,-0.032788,-0.139475,0.000000
4.770000,3.279640,-0.211454,-1.468507,0.122248,-0.012627,0.023758,-0.319535,0.276562,-0.099786,1.351055,-0.348102,0.247945,-4.219553,-1.328663,0.019165,0.027886,0.032233,0.000000,-0.034263,-0.135335,-0.000000
4.780000,3.280847,-0.211566,-1.468274,0.119120,-0.009879,0.022773,-0.306238,0.273011,-0.097306,1.308555,-0.360319,0.247844,-4.264447,-1.097779,-0.038462,0.027536,0.030900,0.000000,-0.035524,-0.131131,-0.000000
4.790000,3.282023,-0.211651,-1.468051,0.116123,-0.007167,0.021812,-0.293364,0.269356,-0.094829,1.265766,-0.370057,0.247176,-4.349233,-0.946491,-0.105240,0.027176,0.029610,0.000000,-0.036537,-0.126895,-0.000000
4.800000,3.283169,-0.211710,-1.467838,0.113253,-0.004492,0.020876,-0.280922,0.265610,-0.092362,1.221571,-0.379249,0.245739,-4.503725,-0.882890,-0.188540,0.026806,0.028362,0.000000,-0.037498,-0.122515,-0.000000
4.810000,3.284288,-0.211741,-1.467634,0.110504,-0.001855,0.019965,-0.268932,0.261771,-0.089914,1.175692,-0.387715,0.243405,-4.643619,-0.768351,-0.275190,0.026426,0.027158,0.000000,-0.038388,-0.117962,-0.000000
4.820000,3.285379,-0.211747,-1.467439,0.107874,0.000744,0.019078,-0.257408,0.257856,-0.087494,1.128698,-0.394616,0.240235,-4.724871,-0.647331,-0.348731,0.026038,0.026002,0.000000,-0.039121,-0.113292,-0.000000
4.830000,3.286445,-0.211726,-1.467252,0.105356,0.003302,0.018215,-0.246358,0.253879,-0.085110,1.081194,-0.400662,0.236430,-4.775198,-0.569781,-0.413396,0.025643,0.024892,0.000000,-0.039770,-0.108568,-0.000000
4.840000,3.287486,-0.211681,-1.467074,0.102947,0.005821,0.017376,-0.235785,0.249843,-0.082766,1.033194,-0.406012,0.231968,-4.846960,-0.460711,-0.491145,0.025243,0.023830,0.000000,-0.040349,-0.103788,-0.000000
4.850000,3.288504,-0.211610,-1.466905,0.100641,0.008299,0.016560,-0.225695,0.245758,-0.080470,0.984255,-0.409876,0.226607,-4.941150,-0.305573,-0.583756,0.024836,0.022815,0.000000,-0.040780,-0.098911,-0.000000
4.860000,3.289499,-0.211515,-1.466743,0.098433,0.010736,0.015767,-0.216100,0.241645,-0.078233,0.934371,-0.412123,0.220292,-5.023547,-0.156093,-0.677003,0.024427,0.021851,0.000000,-0.041049,-0.093933,0.000000
4.870000,3.290473,-0.211395,-1.466589,0.096319,0.013132,0.014995,-0.207007,0.237516,-0.076064,0.883784,-0.412998,0.213067,-5.091573,-0.015970,-0.770032,0.024015,0.020936,0.000000,-0.041180,-0.088881,-0.000000
4.880000,3.291426,-0.211252,-1.466443,0.094293,0.015487,0.014245,-0.198424,0.233385,-0.073972,0.832540,-0.412443,0.204892,-5.157387,0.133886,-0.868291,0.023603,0.020073,0.000000,-0.041168,-0.083758,-0.000000
4.890000,3.292359,-0.211086,-1.466305,0.092350,0.017800,0.013516,-0.190356,0.229267,-0.071967,0.780636,-0.410320,0.195702,-5.222105,0.295464,-0.972506,0.023192,0.019261,0.000000,-0.040998,-0.078564,0.000000
4.900000,3.293273,-0.210896,-1.466173,0.090486,0.020072,0.012806,-0.182811,0.225179,-0.070058,0.728098,-0.406533,0.185442,-5.284479,0.467095,-1.082399,0.022783,0.018501,0.000000,-0.040660,-0.073302,-0.000000
4.910000,3.294168,-0.210684,-1.466048,0.088694,0.022303,0.012115,-0.175794,0.221137,-0.068258,0.674947,-0.400978,0.174054,-5.344735,0.649460,-1.198325,0.022379,0.017794,0.000000,-0.040144,-0.067974,0.000000
4.920000,3.295047,-0.210450,-1.465931,0.086970,0.024495,0.011441,-0.169312,0.217159,-0.066577,0.621203,-0.393544,0.161475,-5.403206,0.843382,-1.320686,0.021981,0.017141,0.000000,-0.039438,-0.062583,0.000000
4.930000,3.295908,-0.210194,-1.465820,0.085308,0.026647,0.010783,-0.163370,0.213266,-0.065028,0.566883,-0.384111,0.147640,-5.460253,1.049683,-1.449890,0.021590,0.016542,0.000000,-0.038531,-0.057129,0.000000
4.940000,3.296753,-0.209917,-1.465715,0.083702,0.028760,0.010140,-0.157975,0.209477,-0.063624,0.511998,-0.372550,0.132477,-5.516218,1.269187,-1.586341,0.021210,0.015998,0.000000,-0.037408,-0.051616,0.000000
4.950000,3.297582,-0.209619,-1.465617,0.082148,0.030836,0.009511,-0.153130,0.205815,-0.062379,0.456558,-0.358727,0.115913,-5.571443,1.502718,-1.730443,0.020842,0.015510,0.000000,-0.036057,-0.046043,0.000000
4.960000,3.298396,-0.209300,-1.465525,0.080640,0.032876,0.008893,-0.148843,0.202302,-0.061306,0.400569,-0.342496,0.097868,-5.626274,1.751099,-1.882592,0.020489,0.015077,0.000000,-0.034462,-0.040412,0.000000
4.970000,3.299195,-0.208961,-1.465439,0.079171,0.034882,0.008284,-0.145119,0.198965,-0.060421,0.344033,-0.323705,0.078261,80.087884,-116.859773,34.829411,0.020153,0.014701,0.000000,-0.032609,-0.034724,-0.000000
4.980000,3.299979,-0.208603,-1.465359,0.077737,0.036856,0.007684,-0.141963,0.195828,-0.059741,2.002327,-2.679691,0.794457,163.661075,-232.314971,71.411796,0.019837,0.014383,0.000000,-0.269717,-0.201636,0.000000
4.990000,3.300749,-0.208224,-1.465285,0.076332,0.038799,0.007090,-0.105072,0.145371,-0.044532,3.617254,-4.970004,1.506497,77.157800,-110.729209,34.884028,0.014750,0.010662,0.000000,-0.501887,-0.365354,0.000000
5.000000,3.301506,-0.207827,-1.465217,0.075636,0.039763,0.006794,-0.069618,0.096428,-0.029611,3.545483,-4.894276,1.492137,-7.177147,7.572874,-1.435988,0.009799,0.007075,0.000000,-0.495834,-0.359219,0.000000
