time,x,y,z,vx,vy,vz,ax,ay,az,jx,jy,jz,sx,sy,sz,roll,pitch,yaw,p,q,r
0.000000,-3.269703,-0.249055,-1.496810,-0.020873,-0.003806,0.011224,1.013541,-0.321252,-0.236154,-15.969077,5.905639,7.079207,277.510107,-92.125903,-168.095894,-0.031805,-0.100548,0.000000,0.557073,1.502418,0.000000
0.010000,-3.269863,-0.249108,-1.496709,-0.011491,-0.006739,0.009189,0.867205,-0.266598,-0.173330,-13.349017,5.045146,5.528154,246.915446,-80.159667,-142.565049,-0.026598,-0.086648,0.000000,0.485429,1.278924,-0.000000
0.020000,-3.269937,-0.249188,-1.496625,-0.003447,-0.009165,0.007710,0.745582,-0.219969,-0.124785,-11.022669,4.298790,4.219130,218.750419,-69.290054,-119.667147,-0.022076,-0.074907,0.000000,0.420130,1.071335,0.000000
0.030000,-3.269936,-0.249290,-1.496553,0.003493,-0.011161,0.006654,0.645852,-0.180278,-0.088227,-8.966260,3.655865,3.126494,192.910134,-59.464584,-99.264249,-0.018172,-0.065157,0.000000,0.361656,0.881337,-0.000000
0.040000,-3.269870,-0.249410,-1.496491,0.009534,-0.012791,0.005912,0.565432,-0.146541,-0.061615,-7.157067,3.106193,2.225988,169.289762,-50.630775,-81.218452,-0.014819,-0.057216,0.000000,0.310132,0.709692,0.000000
0.050000,-3.269748,-0.249544,-1.496434,0.014858,-0.014109,0.005394,0.501959,-0.117875,-0.043143,-5.573427,2.640119,1.494731,147.783215,-42.736149,-65.391519,-0.011947,-0.050900,0.000000,0.265411,0.556437,0.000000
0.060000,-3.269575,-0.249691,-1.496382,0.019623,-0.015162,0.005027,0.453281,-0.093490,-0.031228,-4.194707,2.248514,0.911221,128.286913,-35.728231,-51.645824,-0.009490,-0.046027,0.000000,0.227154,0.421061,-0.000000
0.070000,-3.269357,-0.249847,-1.496333,0.023967,-0.015991,0.004753,0.417447,-0.072685,-0.024493,-3.001339,1.922773,0.455337,110.695353,-29.554541,-39.843294,-0.007384,-0.042422,0.000000,0.194890,0.302666,0.000000
0.080000,-3.269096,-0.250010,-1.496287,0.028009,-0.016626,0.004524,0.392698,-0.054842,-0.021758,-1.974801,1.654817,0.108338,94.903496,-24.162606,-29.845982,-0.005574,-0.039921,0.000000,0.168068,0.200097,0.000000
0.090000,-3.268797,-0.250179,-1.496243,0.031852,-0.017095,0.004308,0.377453,-0.039422,-0.022021,-1.097621,1.437090,-0.147140,80.806222,-19.499958,-21.515975,-0.004007,-0.038371,0.000000,0.146097,0.112046,-0.000000
0.100000,-3.268460,-0.250352,-1.496201,0.035585,-0.017421,0.004077,0.370303,-0.025957,-0.024449,-0.353366,1.262563,-0.327078,68.299652,-15.514030,-14.715155,-0.002637,-0.037636,0.000000,0.128374,0.037131,-0.000000
0.110000,-3.268085,-0.250527,-1.496161,0.039281,-0.017620,0.003814,0.369994,-0.014048,-0.028360,0.273325,1.124729,-0.446081,57.277472,-12.152453,-9.305739,-0.001427,-0.037590,0.000000,0.114306,-0.026040,-0.000000
0.120000,-3.267674,-0.250704,-1.496125,0.043004,-0.017706,0.003506,0.375425,-0.003360,-0.033212,0.796783,1.017608,-0.517371,47.635225,-9.362708,-5.149717,-0.000341,-0.038122,0.000000,0.103326,-0.078828,0.000000
0.130000,-3.267225,-0.250881,-1.496091,0.046805,-0.017690,0.003148,0.385630,0.006388,-0.038588,1.230280,0.935744,-0.552793,39.268014,-7.092317,-2.109157,0.000648,-0.039136,0.000000,0.094901,-0.122534,-0.000000
0.140000,-3.266738,-0.251057,-1.496062,0.050730,-0.017580,0.002734,0.399772,0.015423,-0.044183,1.586044,0.874205,-0.562813,32.071055,-5.288806,-0.046189,0.001564,-0.040547,0.000000,0.088542,-0.158373,0.000000
0.150000,-3.266210,-0.251232,-1.496037,0.054812,-0.017383,0.002264,0.417129,0.023925,-0.049790,1.875253,0.828586,-0.556516,25.939729,-3.899703,1.176950,0.002424,-0.042281,0.000000,0.083805,-0.187468,0.000000
0.160000,-3.265641,-0.251405,-1.496017,0.059081,-0.017103,0.001738,0.437089,0.032035,-0.055285,2.108005,0.795006,-0.541599,20.765911,-2.872449,1.699573,0.003244,-0.044277,0.000000,0.080298,-0.210832,0.000000
0.170000,-3.265028,-0.251574,-1.496002,0.063560,-0.016744,0.001159,0.459132,0.039854,-0.060615,2.293409,0.770106,-0.524399,16.448673,-2.154670,1.657962,0.004033,-0.046482,0.000000,0.077677,-0.229378,0.000000
0.180000,-3.264369,-0.251739,-1.495994,0.068269,-0.016307,0.000527,0.482826,0.047456,-0.065782,2.439478,0.751056,-0.509859,12.881471,-1.693845,1.190670,0.004800,-0.048851,0.000000,0.075653,-0.243906,0.000000
0.190000,-3.263662,-0.251900,-1.495992,0.073221,-0.015795,-0.000156,0.507814,0.054887,-0.070833,2.553188,0.735548,-0.501545,9.959128,-1.437488,0.435640,0.005548,-0.051349,0.000000,0.073987,-0.255112,-0.000000
0.200000,-3.262903,-0.252055,-1.495997,0.078429,-0.015210,-0.000890,0.533802,0.062173,-0.075841,2.640470,0.721799,-0.501643,7.577684,-1.333160,-0.468999,0.006280,-0.053944,0.000000,0.072496,-0.263582,-0.000000
0.210000,-3.262092,-0.252204,-1.496010,0.083899,-0.014552,-0.001672,0.560274,0.069515,-0.080267,2.642756,0.752103,-0.366934,4.376995,-0.467451,1.461591,0.007017,-0.056589,0.000000,0.075554,-0.264251,0.000000
0.220000,-3.261225,-0.252346,-1.496031,0.089636,-0.013820,-0.002496,0.587485,0.076605,-0.085224,2.834432,0.639991,-0.711110,22.928405,-14.354813,-45.117415,0.007728,-0.059301,0.000000,0.063875,-0.281178,0.000000
0.230000,-3.260298,-0.252480,-1.496060,0.095655,-0.013023,-0.003388,0.616359,0.082694,-0.093254,2.869590,0.624625,-0.740574,-16.192381,11.509522,40.016429,0.008334,-0.062158,0.000000,0.062176,-0.283998,0.000000
0.240000,-3.259311,-0.252606,-1.496099,0.101959,-0.012163,-0.004351,0.644227,0.089513,-0.098670,2.735875,0.715988,-0.420027,0.688767,-0.930913,-1.320638,0.009015,-0.064925,0.000000,0.071559,-0.272191,0.000000
0.250000,-3.258258,-0.252723,-1.496147,0.108539,-0.011233,-0.005361,0.671895,0.096425,-0.103603,2.789119,0.671117,-0.551071,-1.164070,-0.389016,0.452321,0.009704,-0.067672,0.000000,0.066814,-0.276293,-0.000000
0.260000,-3.257139,-0.252830,-1.496206,0.115397,-0.010235,-0.006424,0.699610,0.103145,-0.109086,2.749344,0.673766,-0.545149,-2.556658,-0.250935,0.619341,0.010373,-0.070415,0.000000,0.066982,-0.271933,0.000000
0.270000,-3.255949,-0.252927,-1.496276,0.122531,-0.009170,-0.007542,0.727180,0.109810,-0.114510,2.777258,0.655269,-0.539737,4.092827,-2.326360,0.569431,0.011034,-0.073140,0.000000,0.065019,-0.274364,0.000000
0.280000,-3.254687,-0.253013,-1.496357,0.129942,-0.008040,-0.008714,0.754928,0.116306,-0.119870,2.746166,0.650816,-0.531526,-10.413431,1.465930,1.074678,0.011678,-0.075880,0.000000,0.064478,-0.270902,-0.000000
0.290000,-3.253350,-0.253088,-1.496450,0.137626,-0.006844,-0.009939,0.781861,0.122886,-0.125130,2.651913,0.661666,-0.520456,-4.300614,-0.439549,1.028894,0.012330,-0.078535,0.000000,0.065484,-0.261163,-0.000000
0.300000,-3.251934,-0.253150,-1.496556,0.145577,-0.005582,-0.011217,0.808265,0.129450,-0.130284,2.625610,0.651617,-0.510054,-5.043611,-0.438457,1.158623,0.012979,-0.081134,0.000000,0.064388,-0.258237,0.000000
0.310000,-3.250437,-0.253199,-1.496675,0.153790,-0.004255,-0.012545,0.834210,0.135954,-0.135325,2.561447,0.649490,-0.497959,-5.658222,-0.477055,1.270726,0.013621,-0.083684,0.000000,0.064096,-0.251560,0.000000
0.320000,-3.248857,-0.253235,-1.496807,0.162260,-0.002863,-0.013923,0.859646,0.142398,-0.140238,2.532143,0.637537,-0.484561,-2.236177,-1.444170,1.395768,0.014257,-0.086181,0.000000,0.062822,-0.248394,-0.000000
0.330000,-3.247191,-0.253256,-1.496953,0.170982,-0.001407,-0.015349,0.884742,0.148725,-0.145013,2.473990,0.630469,-0.470317,-9.446531,0.042772,1.451136,0.014880,-0.088641,0.000000,0.062046,-0.242377,0.000000
0.340000,-3.245437,-0.253263,-1.497114,0.179952,0.000111,-0.016822,0.909006,0.155029,-0.149642,2.384855,0.628793,-0.455336,-6.303243,-0.856717,1.555131,0.015500,-0.091017,0.000000,0.061819,-0.233308,-0.000000
0.350000,-3.243591,-0.253254,-1.497290,0.189160,0.001693,-0.018341,0.932591,0.161260,-0.154116,2.330543,0.617344,-0.439342,-6.609859,-0.959635,1.630217,0.016112,-0.093323,0.000000,0.060617,-0.227742,-0.000000
0.360000,-3.241653,-0.253229,-1.497481,0.198601,0.003336,-0.019904,0.955538,0.167388,-0.158427,2.257833,0.608238,-0.422777,-6.855489,-1.079123,1.695182,0.016714,-0.095564,0.000000,0.059659,-0.220377,-0.000000
0.370000,-3.239619,-0.253187,-1.497688,0.208268,0.005040,-0.021509,0.977827,0.173403,-0.162569,2.203407,0.593747,-0.405341,-5.060960,-1.611005,1.777004,0.017303,-0.097739,0.000000,0.058168,-0.214863,0.000000
0.380000,-3.237487,-0.253128,-1.497912,0.218156,0.006804,-0.023155,0.999551,0.179268,-0.166533,2.134944,0.580389,-0.387551,-8.658818,-1.055207,1.779064,0.017878,-0.099857,0.000000,0.056800,-0.207983,-0.000000
0.390000,-3.235255,-0.253051,-1.498152,0.228257,0.008625,-0.024839,1.020467,0.185017,-0.170319,2.051318,0.568384,-0.369517,-7.014346,-1.558160,1.839948,0.018440,-0.101894,0.000000,0.055577,-0.199629,-0.000000
0.400000,-3.232921,-0.252955,-1.498408,0.238563,0.010504,-0.026561,1.040657,0.190614,-0.173921,1.985845,0.551002,-0.350897,-7.121302,-1.708318,1.868863,0.018987,-0.103858,0.000000,0.053822,-0.193108,0.000000
0.410000,-3.230483,-0.252841,-1.498683,0.249068,0.012437,-0.028317,1.060145,0.196039,-0.177337,1.911511,0.533596,-0.332157,-7.201359,-1.866478,1.888589,0.019517,-0.105753,0.000000,0.052075,-0.185735,0.000000
0.420000,-3.227939,-0.252706,-1.498975,0.259763,0.014424,-0.030107,1.078928,0.201274,-0.180563,1.846851,0.512806,-0.313053,-6.252951,-2.202203,1.920183,0.020027,-0.107578,0.000000,0.049997,-0.179347,-0.000000
0.430000,-3.225287,-0.252552,-1.499285,0.270644,0.016462,-0.031928,1.097056,0.206293,-0.183598,1.775482,0.491429,-0.294006,-8.035089,-2.070856,1.887520,0.020516,-0.109338,0.000000,0.047869,-0.172319,0.000000
0.440000,-3.222525,-0.252377,-1.499614,0.281702,0.018549,-0.033778,1.114410,0.211101,-0.186444,1.696806,0.469558,-0.275115,-7.168478,-2.394580,1.900081,0.020985,-0.111022,0.000000,0.045700,-0.164591,0.000000
0.450000,-3.219652,-0.252181,-1.499961,0.292930,0.020683,-0.035656,1.131033,0.215672,-0.189100,1.627636,0.444301,-0.256126,-7.191299,-2.566741,1.885936,0.021429,-0.112635,0.000000,0.043201,-0.157825,-0.000000
0.460000,-3.216666,-0.251963,-1.500327,0.304320,0.022861,-0.037559,1.146944,0.219984,-0.191567,1.554270,0.417930,-0.237415,-7.203092,-2.742826,1.863582,0.021848,-0.114178,0.000000,0.040599,-0.150663,0.000000
0.470000,-3.213565,-0.251723,-1.500712,0.315866,0.025082,-0.039487,1.162141,0.224022,-0.193848,1.486150,0.389117,-0.218802,-6.689389,-2.985972,1.849381,0.022240,-0.115651,0.000000,0.037759,-0.144037,0.000000
0.480000,-3.210348,-0.251461,-1.501117,0.327561,0.027341,-0.041436,1.176654,0.227762,-0.195945,1.414843,0.358919,-0.200627,-7.579629,-3.052649,1.783968,0.022603,-0.117058,0.000000,0.034789,-0.137111,-0.000000
0.490000,-3.207014,-0.251176,-1.501541,0.339397,0.029636,-0.043405,1.190424,0.231196,-0.197863,1.340021,0.327374,-0.182979,-7.112109,-3.290817,1.752993,0.022936,-0.118393,0.000000,0.031692,-0.129850,0.000000
0.500000,-3.203560,-0.250868,-1.501985,0.351367,0.031964,-0.045393,1.203476,0.234301,-0.199605,1.270297,0.293392,-0.165668,-7.102887,-3.471336,1.700061,0.023236,-0.119658,0.000000,0.028357,-0.123105,-0.000000
0.510000,-3.199986,-0.250537,-1.502449,0.363464,0.034321,-0.047397,1.215821,0.237059,-0.201178,1.198702,0.257845,-0.149025,-7.087832,-3.652564,1.639429,0.023502,-0.120855,0.000000,0.024872,-0.116182,-0.000000
0.520000,-3.196290,-0.250182,-1.502933,0.375681,0.036704,-0.049416,1.227461,0.239451,-0.202587,1.129723,0.220209,-0.132791,-6.831805,-3.860548,1.594623,0.023733,-0.121983,0.000000,0.021184,-0.109527,0.000000
0.530000,-3.192472,-0.249803,-1.503437,0.388011,0.039109,-0.051448,1.238411,0.241457,-0.203837,1.059468,0.180929,-0.117402,-7.222905,-3.994946,1.481642,0.023926,-0.123045,0.000000,0.017337,-0.102749,0.000000
0.540000,-3.188530,-0.249400,-1.503962,0.400447,0.041532,-0.053492,1.248645,0.243064,-0.204938,0.987778,0.140030,-0.102940,-6.989712,-4.198783,1.421597,0.024079,-0.124038,0.000000,0.013332,-0.095831,0.000000
0.550000,-3.184463,-0.248972,-1.504507,0.412981,0.043968,-0.055546,1.258177,0.244251,-0.205898,0.918614,0.097077,-0.089096,-6.967813,-4.377617,1.334882,0.024191,-0.124963,0.000000,0.009125,-0.089165,-0.000000
0.560000,-3.180270,-0.248520,-1.505073,0.425608,0.046415,-0.057609,1.267014,0.245000,-0.206724,0.848790,0.052406,-0.076249,-6.943239,-4.556015,1.242348,0.024261,-0.125822,0.000000,0.004750,-0.082431,-0.000000
0.570000,-3.175950,-0.248044,-1.505659,0.438319,0.048867,-0.059680,1.275158,0.245293,-0.207425,0.780245,0.005964,-0.064187,-6.817661,-4.732343,1.160681,0.024286,-0.126613,0.000000,0.000200,-0.075822,-0.000000
0.580000,-3.171503,-0.247543,-1.506266,0.451109,0.051319,-0.061757,1.282617,0.245113,-0.208011,0.711345,-0.042238,-0.053232,-6.963992,-4.907840,1.029173,0.024264,-0.127338,0.000000,-0.004523,-0.069172,-0.000000
0.590000,-3.166928,-0.247018,-1.506894,0.463969,0.053768,-0.063840,1.289383,0.244443,-0.208494,0.642022,-0.092181,-0.043448,-6.847911,-5.080023,0.935414,0.024195,-0.127997,0.000000,-0.009420,-0.062472,-0.000000
0.600000,-3.162224,-0.246468,-1.507543,0.476894,0.056207,-0.065927,1.295462,0.243264,-0.208883,0.573943,-0.143832,-0.034613,-6.820189,-5.250055,0.822178,0.024075,-0.128589,0.000000,-0.014486,-0.055888,-0.000000
0.610000,-3.157390,-0.245893,-1.508213,0.489876,0.058631,-0.068017,1.300860,0.241560,-0.209190,0.505608,-0.197213,-0.027048,-6.796082,-5.417934,0.704486,0.023905,-0.129115,0.000000,-0.019726,-0.049269,0.000000
0.620000,-3.152426,-0.245295,-1.508904,0.502909,0.061036,-0.070111,1.305579,0.239315,-0.209427,0.438436,-0.252108,-0.020382,-6.683193,-5.568167,0.612436,0.023680,-0.129575,0.000000,-0.025117,-0.042755,0.000000
0.630000,-3.147331,-0.244673,-1.509615,0.515986,0.063416,-0.072206,1.309627,0.236512,-0.209603,0.371000,-0.308723,-0.015141,-6.805466,-5.754347,0.434713,0.023402,-0.129970,0.000000,-0.030681,-0.036201,0.000000
0.640000,-3.142106,-0.244027,-1.510348,0.529099,0.065764,-0.074302,1.312998,0.233135,-0.209735,0.303242,-0.367030,-0.011381,-6.700331,-5.898747,0.332659,0.023066,-0.130299,0.000000,-0.036416,-0.029599,-0.000000
0.650000,-3.136749,-0.243358,-1.511101,0.542243,0.068076,-0.076400,1.315697,0.229167,-0.209834,0.236608,-0.426748,-0.008631,-6.671484,-6.051864,0.201010,0.022673,-0.130562,0.000000,-0.042294,-0.023097,0.000000
0.660000,-3.131261,-0.242666,-1.511876,0.555411,0.070346,-0.078499,1.317730,0.224595,-0.209913,0.169992,-0.487991,-0.007436,-6.639690,-6.199540,0.064960,0.022220,-0.130761,0.000000,-0.048327,-0.016577,0.000000
0.670000,-3.125641,-0.241951,-1.512671,0.568596,0.072566,-0.080599,1.319099,0.219402,-0.209985,0.103927,-0.550757,-0.007086,-6.584328,-6.349184,-0.021860,0.021706,-0.130894,0.000000,-0.054514,-0.010101,0.000000
0.680000,-3.119889,-0.241214,-1.513488,0.581791,0.074731,-0.082699,1.319809,0.213575,-0.210060,0.038071,-0.614883,-0.008434,-6.586955,-6.475050,-0.248652,0.021129,-0.130963,0.000000,-0.060840,-0.003625,0.000000
0.690000,-3.114005,-0.240457,-1.514325,0.594990,0.076835,-0.084800,1.319861,0.207100,-0.210159,-0.027572,-0.680311,-0.011525,-6.529751,-6.613248,-0.342942,0.020488,-0.130967,0.000000,-0.067300,0.002853,-0.000000
0.700000,-3.107989,-0.239678,-1.515184,0.608186,0.078871,-0.086902,1.319259,0.199964,-0.210293,-0.092629,-0.747098,-0.015525,-6.491094,-6.739510,-0.483253,0.019783,-0.130906,0.000000,-0.073898,0.009285,0.000000
0.710000,-3.101842,-0.238879,-1.516063,0.621373,0.080832,-0.089006,1.318010,0.192154,-0.210476,-0.157261,-0.815076,-0.021169,-6.447198,-6.859379,-0.623735,0.019010,-0.130781,0.000000,-0.080618,0.015697,-0.000000
0.720000,-3.095562,-0.238062,-1.516964,0.634544,0.082712,-0.091112,1.316115,0.183658,-0.210720,-0.221677,-0.884303,-0.027799,-6.423562,-6.980823,-0.722947,0.018170,-0.130592,0.000000,-0.087465,0.022101,-0.000000
0.730000,-3.089151,-0.237225,-1.517885,0.647693,0.084503,-0.093220,1.313578,0.174465,-0.211037,-0.285473,-0.954582,-0.036062,-6.334798,-7.073709,-0.930091,0.017260,-0.130339,0.000000,-0.094419,0.028466,-0.000000
0.740000,-3.082608,-0.236372,-1.518828,0.660813,0.086199,-0.095333,1.310408,0.164563,-0.211447,-0.348603,-1.025838,-0.045969,-6.302718,-7.180499,-1.029773,0.016281,-0.130023,0.000000,-0.101474,0.034786,-0.000000
0.750000,-3.075935,-0.235502,-1.519792,0.673899,0.087792,-0.097450,1.306607,0.153944,-0.211959,-0.411418,-1.098131,-0.056830,-6.247306,-7.272746,-1.162633,0.015231,-0.129643,0.000000,-0.108633,0.041088,0.000000
0.760000,-3.069130,-0.234616,-1.520777,0.686944,0.089275,-0.099572,1.302182,0.142598,-0.212589,-0.473519,-1.171274,-0.069227,-6.187471,-7.357323,-1.293042,0.014108,-0.129201,0.000000,-0.115877,0.047339,0.000000
0.770000,-3.062196,-0.233717,-1.521784,0.699941,0.090642,-0.101702,1.297137,0.130516,-0.213346,-0.535295,-1.245278,-0.082464,-6.152536,-7.439418,-1.376056,0.012913,-0.128696,0.000000,-0.123206,0.053568,-0.000000
0.780000,-3.055132,-0.232804,-1.522811,0.712884,0.091883,-0.103840,1.291479,0.117690,-0.214243,-0.596248,-1.319975,-0.097201,-6.036995,-7.498507,-1.571081,0.011644,-0.128130,0.000000,-0.130604,0.059734,-0.000000
0.790000,-3.047938,-0.231879,-1.523860,0.725768,0.092993,-0.105987,1.285215,0.104114,-0.215295,-0.656321,-1.395277,-0.113414,-5.991866,-7.563315,-1.647981,0.010301,-0.127502,0.000000,-0.138061,0.065831,-0.000000
0.800000,-3.040617,-0.230945,-1.524931,0.738587,0.093963,-0.108146,1.278354,0.089783,-0.216513,-0.715944,-1.471188,-0.130328,-5.917475,-7.614471,-1.756329,0.008882,-0.126813,0.000000,-0.145574,0.071891,-0.000000
0.810000,-3.033167,-0.230001,-1.526023,0.751333,0.094786,-0.110318,1.270900,0.074689,-0.217907,-0.774535,-1.547518,-0.148529,-5.836333,-7.656104,-1.858655,0.007389,-0.126064,0.000000,-0.153125,0.077862,-0.000000
0.820000,-3.025590,-0.229049,-1.527137,0.764003,0.095454,-0.112505,1.262863,0.058830,-0.219485,-0.832991,-1.624334,-0.167252,-5.819107,-7.699675,-1.907706,0.005820,-0.125256,0.000000,-0.160717,0.083824,0.000000
0.830000,-3.017887,-0.228092,-1.528273,0.776589,0.095960,-0.114709,1.254245,0.042202,-0.221256,-0.890167,-1.701357,-0.187143,-5.614487,-7.703121,-2.069799,0.004175,-0.124388,0.000000,-0.168323,0.089669,0.000000
0.840000,-3.010059,-0.227131,-1.529432,0.789086,0.096296,-0.116931,1.245064,0.024803,-0.223232,-0.945980,-1.778482,-0.208141,-5.582913,-7.726075,-2.104442,0.002453,-0.123463,0.000000,-0.175931,0.095390,0.000000
0.850000,-3.002106,-0.226167,-1.530612,0.801488,0.096454,-0.119174,1.235326,0.006632,-0.225419,-1.001514,-1.855795,-0.229396,-5.488049,-7.728936,-2.167975,0.000656,-0.122480,0.000000,-0.183546,0.101080,0.000000
0.860000,-2.994029,-0.225202,-1.531815,0.813790,0.096426,-0.121440,1.225038,-0.012312,-0.227822,-1.055968,-1.932967,-0.251378,-5.391826,-7.720157,-2.219331,-0.001218,-0.121442,0.000000,-0.191135,0.106666,0.000000
0.870000,-2.985830,-0.224239,-1.533041,0.825987,0.096205,-0.123731,1.214211,-0.032029,-0.230447,-1.109205,-2.010318,-0.273680,-5.268090,-7.732066,-2.245268,-0.003167,-0.120348,0.000000,-0.198728,0.112130,0.000000
0.880000,-2.977510,-0.223279,-1.534290,0.838073,0.095783,-0.126050,1.202856,-0.052517,-0.233297,-1.161593,-2.087232,-0.296373,-5.209355,-7.648459,-2.291106,-0.005192,-0.119199,0.000000,-0.206263,0.117506,0.000000
0.890000,-2.969069,-0.222324,-1.535562,0.850042,0.095152,-0.128398,1.190982,-0.073771,-0.236376,-1.213117,-2.163579,-0.319324,-5.081514,-7.635527,-2.290089,-0.007292,-0.117998,0.000000,-0.213725,0.122791,-0.000000
0.900000,-2.960509,-0.221376,-1.536858,0.861891,0.094305,-0.130778,1.178599,-0.095788,-0.239683,-1.263328,-2.239767,-0.342175,-4.973082,-7.583877,-2.284240,-0.009466,-0.116744,0.000000,-0.221152,0.127936,-0.000000
0.910000,-2.951832,-0.220439,-1.538178,0.873613,0.093234,-0.133192,1.165719,-0.118564,-0.243219,-1.312488,-2.315247,-0.364873,-4.860135,-7.520945,-2.260703,-0.011715,-0.115439,0.000000,-0.228490,0.132965,0.000000
0.920000,-2.943038,-0.219513,-1.539522,0.885203,0.091931,-0.135643,1.152353,-0.142092,-0.246980,-1.360538,-2.390247,-0.387405,-4.747520,-7.466838,-2.234909,-0.014036,-0.114085,0.000000,-0.235760,0.137873,0.000000
0.930000,-2.934128,-0.218601,-1.540891,0.896658,0.090389,-0.138133,1.138512,-0.166366,-0.250965,-1.407388,-2.464327,-0.409345,-4.621866,-7.346920,-2.149686,-0.016429,-0.112682,0.000000,-0.242917,0.142644,0.000000
0.940000,-2.925105,-0.217706,-1.542285,0.907972,0.088601,-0.140663,1.124209,-0.191375,-0.255165,-1.453002,-2.537358,-0.430495,-4.502248,-7.267841,-2.084863,-0.018894,-0.111232,0.000000,-0.249949,0.147273,0.000000
0.950000,-2.915969,-0.216830,-1.543704,0.919141,0.086559,-0.143237,1.109456,-0.217110,-0.259572,-1.497412,-2.609557,-0.450904,-4.376771,-7.159430,-1.986192,-0.021428,-0.109736,0.000000,-0.256875,0.151763,0.000000
0.960000,-2.906723,-0.215975,-1.545150,0.930160,0.084257,-0.145855,1.094265,-0.243562,-0.264178,-1.540415,-2.680565,-0.470044,-4.245551,-7.040038,-1.864347,-0.024031,-0.108197,0.000000,-0.263661,0.156088,0.000000
0.970000,-2.897367,-0.215145,-1.546621,0.941025,0.081686,-0.148521,1.078650,-0.270717,-0.268971,-1.582519,-2.750316,-0.488360,-4.153188,-6.908368,-1.769689,-0.026701,-0.106614,0.000000,-0.270299,0.160304,-0.000000
0.980000,-2.887903,-0.214342,-1.548120,0.951731,0.078840,-0.151235,1.062621,-0.298564,-0.273939,-1.623013,-2.818699,-0.504830,-3.944446,-6.766247,-1.519745,-0.029436,-0.104990,0.000000,-0.276780,0.164329,-0.000000
0.990000,-2.878333,-0.213569,-1.549646,0.962276,0.075712,-0.154000,1.046196,-0.327086,-0.279060,-1.661838,-2.885595,-0.519191,-3.842044,-6.610805,-1.374178,-0.032236,-0.103327,0.000000,-0.283096,0.168157,0.000000
1.000000,-2.868658,-0.212829,-1.551200,0.972654,0.072296,-0.156817,1.029387,-0.356270,-0.284318,-1.699658,-2.950876,-0.532013,-3.699871,-6.443727,-1.160910,-0.035098,-0.101626,0.000000,-0.289231,0.171858,-0.000000
1.010000,-2.858880,-0.212125,-1.552783,0.982862,0.068585,-0.159687,1.012207,-0.386098,-0.289691,-1.736028,-3.014427,-0.542158,-3.558446,-6.264453,-0.918665,-0.038020,-0.099888,0.000000,-0.295180,0.175379,-0.000000
1.020000,-2.849001,-0.211459,-1.554394,0.992897,0.064572,-0.162611,0.994672,-0.416553,-0.295157,-1.770679,-3.076125,-0.550806,-3.386284,-6.072954,-0.753547,-0.041001,-0.098116,0.000000,-0.300927,0.178707,0.000000
1.030000,-2.839023,-0.210834,-1.556035,1.002755,0.060252,-0.165590,0.976798,-0.447614,-0.300696,-1.804056,-3.135844,-0.556028,-3.289218,-5.868871,-0.284832,-0.044038,-0.096311,0.000000,-0.306470,0.181868,-0.000000
1.040000,-2.828947,-0.210255,-1.557706,1.012432,0.055618,-0.168625,0.958595,-0.479262,-0.306265,-1.836158,-3.193461,-0.557490,-3.116000,-5.652447,-0.056772,-0.047129,-0.094476,0.000000,-0.311803,0.184860,-0.000000
1.050000,-2.818775,-0.209723,-1.559408,1.021926,0.050664,-0.171715,0.940081,-0.511476,-0.311839,-1.866489,-3.248851,-0.556622,-2.965391,-5.423384,0.288617,-0.050273,-0.092611,0.000000,-0.316908,0.187652,0.000000
1.060000,-2.808509,-0.209242,-1.561141,1.031233,0.045386,-0.174862,0.921270,-0.544232,-0.317382,-1.895533,-3.301980,-0.551362,-2.815221,-5.183435,0.668662,-0.053467,-0.090718,0.000000,-0.321796,0.190273,-0.000000
1.070000,-2.798151,-0.208816,-1.562905,1.040350,0.039778,-0.178063,0.902177,-0.577506,-0.322861,-1.922529,-3.352322,-0.544071,-2.610730,-4.899071,0.890275,-0.056708,-0.088801,0.000000,-0.326408,0.192673,0.000000
1.080000,-2.787702,-0.208448,-1.564702,1.049275,0.033835,-0.181319,0.882823,-0.611271,-0.328245,-1.948310,-3.400262,-0.531445,-2.545916,-4.687152,1.642364,-0.059994,-0.086859,0.000000,-0.330804,0.194907,0.000000
1.090000,-2.777166,-0.208141,-1.566532,1.058006,0.027551,-0.184627,0.863215,-0.645503,-0.333470,-1.972892,-3.445690,-0.513081,-2.342712,-4.379787,1.937849,-0.063323,-0.084896,0.000000,-0.334983,0.196978,0.000000
1.100000,-2.766543,-0.207898,-1.568395,1.066539,0.020923,-0.187987,0.843372,-0.680174,-0.338498,-1.995388,-3.487953,-0.491774,-2.183519,-4.086935,2.424912,-0.066693,-0.082913,0.000000,-0.338869,0.198827,0.000000
1.110000,-2.755836,-0.207723,-1.570292,1.074872,0.013946,-0.191396,0.823308,-0.715254,-0.343283,-2.017263,-3.527607,-0.464302,-2.037124,-3.785495,2.946543,-0.070100,-0.080911,0.000000,-0.342544,0.200573,0.000000
1.120000,-2.745046,-0.207620,-1.572223,1.083004,0.006617,-0.194852,0.803045,-0.750711,-0.347777,-2.034704,-3.563099,-0.433929,-1.599680,-3.364939,3.255989,-0.073542,-0.078893,0.000000,-0.345839,0.201875,0.000000
1.130000,-2.734176,-0.207592,-1.574189,1.090933,-0.001069,-0.198351,0.782612,-0.786507,-0.351937,-2.052380,-3.596001,-0.396502,-1.939533,-3.214669,4.237482,-0.077016,-0.076862,0.000000,-0.348947,0.203160,-0.000000
1.140000,-2.723228,-0.207643,-1.576190,1.098656,-0.009114,-0.201889,0.761994,-0.822622,-0.355681,-2.070456,-3.626240,-0.351598,-1.523928,-2.775622,4.622404,-0.080521,-0.074818,0.000000,-0.351874,0.204447,0.000000
1.150000,-2.712204,-0.207776,-1.578227,1.106172,-0.017522,-0.205463,0.741221,-0.859016,-0.358959,-2.084123,-3.651929,-0.302911,-1.358448,-2.414232,5.243043,-0.084052,-0.072762,0.000000,-0.354415,0.205299,0.000000
1.160000,-2.701105,-0.207994,-1.580300,1.113480,-0.026296,-0.209067,0.720316,-0.895650,-0.361712,-2.096383,-3.674135,-0.246510,-1.168075,-2.032300,5.894720,-0.087608,-0.070698,0.000000,-0.356714,0.205986,-0.000000
1.170000,-2.689935,-0.208303,-1.582408,1.120578,-0.035436,-0.212695,0.699293,-0.932487,-0.363879,-2.108157,-3.692593,-0.186290,-1.111926,-1.648623,6.294529,-0.091186,-0.068626,0.000000,-0.358724,0.206629,-0.000000
1.180000,-2.678695,-0.208704,-1.584553,1.127465,-0.044946,-0.216342,0.678163,-0.969488,-0.365408,-2.117052,-3.706889,-0.117572,-0.663413,-1.207489,7.456846,-0.094782,-0.066549,0.000000,-0.360454,0.206969,-0.000000
1.190000,-2.667386,-0.209203,-1.586735,1.134141,-0.054826,-0.220001,0.656963,-1.006610,-0.366200,-2.122885,-3.716840,-0.039962,-0.575910,-0.787606,7.924880,-0.098394,-0.064469,0.000000,-0.361901,0.206993,0.000000
1.200000,-2.656012,-0.209802,-1.588954,1.140604,-0.065078,-0.223664,0.635707,-1.043810,-0.366195,-2.127912,-3.722515,0.042200,-0.354113,-0.336518,8.653110,-0.102019,-0.062389,0.000000,-0.363045,0.206954,-0.000000
1.210000,-2.644575,-0.210506,-1.591208,1.146855,-0.075703,-0.227322,0.614412,-1.081045,-0.365324,-2.130675,-3.723617,0.133431,-0.133352,0.131129,9.407739,-0.105654,-0.060309,0.000000,-0.363909,0.206688,-0.000000
1.220000,-2.633076,-0.211318,-1.593500,1.152893,-0.086699,-0.230967,0.593106,-1.118266,-0.363516,-2.129934,-3.719720,0.228657,0.219539,0.639886,9.822736,-0.109296,-0.058233,0.000000,-0.364413,0.206108,0.000000
1.230000,-2.621518,-0.212241,-1.595828,1.158717,-0.098068,-0.234589,0.571819,-1.155423,-0.360716,-2.127587,-3.710996,0.333769,0.249709,1.107972,11.206807,-0.112941,-0.056163,0.000000,-0.364644,0.205372,-0.000000
1.240000,-2.609902,-0.213280,-1.598192,1.164329,-0.109807,-0.238177,0.550560,-1.192469,-0.356805,-2.123610,-3.697262,0.449113,0.612055,1.653744,11.678288,-0.116588,-0.054100,0.000000,-0.364606,0.204483,0.000000
1.250000,-2.598232,-0.214438,-1.600591,1.169729,-0.121917,-0.241721,0.529360,-1.229350,-0.351722,-2.115848,-3.677952,0.568928,0.878049,2.200279,12.469348,-0.120232,-0.052047,0.000000,-0.364189,0.203267,0.000000
1.260000,-2.586509,-0.215720,-1.603026,1.174917,-0.134394,-0.245208,0.508246,-1.266010,-0.345391,-2.106591,-3.653180,0.698666,1.143164,2.767464,13.273799,-0.123871,-0.050005,0.000000,-0.363478,0.201924,-0.000000
1.270000,-2.574734,-0.217127,-1.605495,1.179894,-0.147236,-0.248625,0.487251,-1.302393,-0.337739,-2.091394,-3.622439,0.832522,1.736433,3.374775,13.695425,-0.127500,-0.047979,0.000000,-0.362363,0.200053,0.000000
1.280000,-2.562911,-0.218666,-1.607998,1.184662,-0.160440,-0.251958,0.466420,-1.338439,-0.328705,-2.075217,-3.585813,0.976726,1.496744,3.953772,15.150612,-0.131117,-0.045972,0.000000,-0.360942,0.198113,-0.000000
1.290000,-2.551042,-0.220337,-1.610534,1.189223,-0.174003,-0.255194,0.445749,-1.374089,-0.318167,-2.058112,-3.543093,1.131496,2.091598,4.603893,15.601651,-0.134718,-0.043982,0.000000,-0.359211,0.196113,-0.000000
1.300000,-2.539128,-0.222147,-1.613102,1.193578,-0.187920,-0.258316,0.425282,-1.409279,-0.306065,-2.034705,-3.493741,1.290417,2.429111,5.260709,16.380495,-0.138299,-0.042016,0.000000,-0.357042,0.193562,-0.000000
1.310000,-2.527171,-0.224097,-1.615700,1.197729,-0.202187,-0.261309,0.405065,-1.443939,-0.292324,-2.008081,-3.437122,1.459193,2.808839,5.954371,17.155527,-0.141857,-0.040075,0.000000,-0.354460,0.190738,-0.000000
1.320000,-2.515174,-0.226192,-1.618327,1.201680,-0.216797,-0.264157,0.385126,-1.478007,-0.276873,-1.979282,-3.375613,1.631472,3.042831,6.460870,17.506465,-0.145388,-0.038162,0.000000,-0.351615,0.187769,0.000000
1.330000,-2.503138,-0.228434,-1.620982,1.205433,-0.231745,-0.266841,0.365497,-1.511422,-0.259660,-1.945298,-3.305525,1.813647,3.760935,7.564078,18.930747,-0.148888,-0.036281,0.000000,-0.348245,0.184339,-0.000000
1.340000,-2.491066,-0.230828,-1.623663,1.208991,-0.247023,-0.269344,0.346239,-1.544087,-0.240565,-1.905753,-3.226467,2.005745,4.063972,8.140957,19.271610,-0.152351,-0.034436,0.000000,-0.344323,0.180411,-0.000000
1.350000,-2.478959,-0.233376,-1.626369,1.212359,-0.262624,-0.271646,0.327390,-1.575934,-0.219539,-1.863179,-3.141688,2.200767,4.544243,8.929074,19.937880,-0.155773,-0.032631,0.000000,-0.340065,0.176256,0.000000
1.360000,-2.466819,-0.236081,-1.629096,1.215541,-0.278539,-0.273728,0.308999,-1.606888,-0.196521,-1.814075,-3.047586,2.403797,5.070596,9.749808,20.562692,-0.159150,-0.030870,0.000000,-0.335198,0.171510,0.000000
1.370000,-2.454649,-0.238947,-1.631842,1.218541,-0.294759,-0.275570,0.291110,-1.636870,-0.171451,-1.763610,-2.947952,2.610967,5.231702,10.321736,20.959273,-0.162477,-0.029157,0.000000,-0.330036,0.166691,0.000000
1.380000,-2.442449,-0.241977,-1.634606,1.221364,-0.311273,-0.277150,0.273756,-1.665812,-0.144279,-1.705053,-2.838116,2.824826,6.490921,11.653572,21.806707,-0.165748,-0.027494,0.000000,-0.324159,0.161122,0.000000
1.390000,-2.430222,-0.245174,-1.637384,1.224018,-0.328071,-0.278448,0.257039,-1.693596,-0.114932,-1.637830,-2.717662,3.044986,6.752090,12.298284,22.119382,-0.168957,-0.025893,0.000000,-0.317519,0.154736,0.000000
1.400000,-2.417969,-0.248540,-1.640174,1.226508,-0.345141,-0.279441,0.241004,-1.720146,-0.083372,-1.568157,-2.590872,3.267832,7.392613,13.205040,22.535775,-0.172098,-0.024355,0.000000,-0.310471,0.148149,-0.000000
1.410000,-2.405692,-0.252078,-1.642972,1.228840,-0.362469,-0.280108,0.225721,-1.745371,-0.049559,-1.486736,-2.452186,3.495340,8.132709,14.163220,22.888285,-0.175163,-0.022890,0.000000,-0.302490,0.140418,-0.000000
1.420000,-2.393393,-0.255790,-1.645775,1.231025,-0.380043,-0.280425,0.211232,-1.769188,-0.013460,-1.412441,-2.310972,3.724752,7.470936,14.443102,23.046135,-0.178148,-0.021499,0.000000,-0.294447,0.133421,0.000000
1.430000,-2.381072,-0.259679,-1.648579,1.233068,-0.397848,-0.280369,0.197532,-1.791541,0.024947,-1.321688,-2.155698,3.957359,10.706286,16.625245,23.464188,-0.181048,-0.020184,0.000000,-0.285204,0.124783,0.000000
1.440000,-2.368732,-0.263748,-1.651381,1.234979,-0.415869,-0.279918,0.184863,-1.812250,0.065696,-1.213241,-1.985729,4.192461,10.238011,17.006022,23.477153,-0.183847,-0.018969,0.000000,-0.274664,0.114343,-0.000000
1.450000,-2.356373,-0.267997,-1.654176,1.236768,-0.434088,-0.279048,0.173235,-1.831251,0.108794,-1.110529,-1.812453,4.427162,11.052061,18.013451,23.512660,-0.186541,-0.017855,0.000000,-0.263886,0.104446,0.000000
1.460000,-2.343997,-0.272430,-1.656961,1.238447,-0.452488,-0.277734,0.162701,-1.848442,0.154240,-0.994979,-1.623683,4.662013,11.850600,19.076554,23.449960,-0.189120,-0.016849,0.000000,-0.251636,0.093191,0.000000
1.470000,-2.331604,-0.277048,-1.659729,1.240026,-0.471050,-0.275955,0.153346,-1.863743,0.202031,-0.875433,-1.437035,4.895909,12.262355,18.897311,23.304207,-0.191576,-0.015959,0.000000,-0.239623,0.081444,-0.000000
1.480000,-2.319197,-0.281851,-1.662478,1.241518,-0.489756,-0.273686,0.145228,-1.877117,0.252151,-0.745464,-1.232221,5.127578,13.737274,22.084170,23.011375,-0.193905,-0.015193,0.000000,-0.225760,0.068519,-0.000000
1.490000,-2.306774,-0.286843,-1.665201,1.242935,-0.508585,-0.270904,0.138473,-1.888319,0.304571,-0.604819,-1.008434,5.355935,14.185258,22.019833,22.649607,-0.196083,-0.014567,0.000000,-0.209882,0.054347,0.000000
1.500000,-2.294338,-0.292023,-1.667894,1.244292,-0.527515,-0.267587,0.133142,-1.897303,0.359256,-0.460045,-0.786359,5.580116,14.971287,23.040292,22.158465,-0.198104,-0.014087,0.000000,-0.194017,0.039563,-0.000000
1.510000,-2.281889,-0.297394,-1.670551,1.245603,-0.546524,-0.263712,0.129261,-1.904038,0.416139,-0.316121,-0.560314,5.795109,15.538925,23.812994,21.474848,-0.199962,-0.013759,0.000000,-0.177451,0.024657,-0.000000
1.520000,-2.269426,-0.302954,-1.673167,1.246883,-0.565588,-0.259257,0.126979,-1.908350,0.475186,-0.133416,-0.295013,6.015228,19.323948,27.643780,21.892564,-0.201637,-0.013602,0.000000,-0.156787,0.005414,0.000000
1.530000,-2.256951,-0.308705,-1.675734,1.248149,-0.584682,-0.254201,0.126533,-1.909988,0.536385,0.035132,-0.041101,6.219192,14.331872,23.084901,18.859199,-0.203101,-0.013644,0.000000,-0.136708,-0.012670,-0.000000
1.540000,-2.244463,-0.314648,-1.678249,1.249418,-0.603780,-0.248523,0.127613,-1.909231,0.599504,0.187112,0.198976,6.404844,17.755866,26.542250,18.891226,-0.204375,-0.013854,0.000000,-0.117401,-0.029321,0.000000
1.550000,-2.231963,-0.320781,-1.680703,1.250707,-0.622858,-0.242204,0.130427,-1.905858,0.664495,0.375876,0.475971,6.591138,18.310111,27.244135,17.705546,-0.205432,-0.014260,0.000000,-0.093904,-0.050287,-0.000000
1.560000,-2.219449,-0.327105,-1.683091,1.252033,-0.641888,-0.235227,0.135202,-1.899660,0.731250,0.582695,0.766604,6.757108,19.379554,28.316082,16.333568,-0.206244,-0.014891,0.000000,-0.068073,-0.073655,0.000000
1.570000,-2.206922,-0.333619,-1.685405,1.253417,-0.660841,-0.227574,0.141818,-1.890699,0.799660,0.729642,1.018634,6.925352,13.572140,24.572441,16.452672,-0.206811,-0.015738,0.000000,-0.045895,-0.091070,-0.000000
1.580000,-2.194380,-0.340321,-1.687640,1.254875,-0.679693,-0.219229,0.149996,-1.879138,0.869666,0.928914,1.310167,7.068076,26.388925,33.805696,12.044721,-0.207142,-0.016776,0.000000,-0.018396,-0.114628,-0.000000
1.590000,-2.181824,-0.347212,-1.689787,1.256426,-0.698413,-0.210177,0.160615,-1.864334,0.940922,1.185188,1.644288,7.182843,21.259919,30.499413,11.737144,-0.207156,-0.018108,0.000000,0.015052,-0.145080,0.000000
1.600000,-2.169251,-0.354289,-1.691841,1.258094,-0.716969,-0.200406,0.173447,-1.846419,1.013330,1.384502,1.941295,7.295205,22.179941,31.394830,9.867961,-0.206857,-0.019715,0.000000,0.045326,-0.169971,-0.000000
1.610000,-2.156662,-0.361551,-1.693793,1.259902,-0.735331,-0.189907,0.188395,-1.825408,1.086721,1.605603,2.262529,7.379192,22.723944,32.139006,7.832001,-0.206234,-0.021593,0.000000,0.079756,-0.197949,0.000000
1.620000,-2.144053,-0.368995,-1.695637,1.261870,-0.753467,-0.178669,0.205632,-1.801202,1.160919,1.845111,2.577355,7.459952,24.486665,31.490605,7.407269,-0.205263,-0.023771,0.000000,0.114529,-0.228798,-0.000000
1.630000,-2.131424,-0.376619,-1.697364,1.264022,-0.771345,-0.166686,0.225279,-1.773809,1.235805,2.080826,2.906278,7.508206,22.618300,34.297716,2.198555,-0.203931,-0.026268,0.000000,0.152658,-0.260007,-0.000000
1.640000,-2.118772,-0.384421,-1.698968,1.266383,-0.788932,-0.153952,0.247224,-1.743025,1.310960,2.310792,3.249191,7.521690,24.038397,33.578938,1.385645,-0.202197,-0.029080,0.000000,0.194322,-0.291322,0.000000
1.650000,-2.106095,-0.392397,-1.700440,1.268975,-0.806194,-0.140466,0.271556,-1.708867,1.386231,2.555400,3.583255,7.527944,24.182546,33.895104,-1.049133,-0.200045,-0.032226,0.000000,0.236408,-0.325202,0.000000
1.660000,-2.093391,-0.400543,-1.701775,1.271822,-0.823098,-0.126228,0.298228,-1.671420,1.461406,2.776544,3.903919,7.502723,23.823423,33.647815,-3.558152,-0.197469,-0.035707,0.000000,0.278948,-0.357136,-0.000000
1.670000,-2.080658,-0.408857,-1.702963,1.274948,-0.839611,-0.111239,0.327381,-1.630520,1.536237,3.066400,4.287327,7.460676,30.442256,39.678463,-5.299010,-0.194429,-0.039548,0.000000,0.330556,-0.398019,-0.000000
1.680000,-2.067891,-0.417334,-1.703997,1.278379,-0.855696,-0.095505,0.359367,-1.585844,1.610512,3.307614,4.627063,7.387368,17.666228,28.141169,-9.385882,-0.190870,-0.043800,0.000000,0.379269,-0.434003,0.000000
1.690000,-2.055089,-0.425970,-1.704870,1.282141,-0.871318,-0.079032,0.393321,-1.538171,1.683872,3.493916,4.917092,7.281608,23.297417,33.205460,-11.333694,-0.186860,-0.048364,0.000000,0.424133,-0.464006,-0.000000
1.700000,-2.042247,-0.434759,-1.705575,1.286253,-0.886448,-0.061831,0.429515,-1.487260,1.756088,3.741632,5.262162,7.156807,22.520750,32.433641,-14.072175,-0.182353,-0.053279,0.000000,0.477367,-0.502047,0.000000
1.710000,-2.029363,-0.443697,-1.706104,1.290740,-0.901053,-0.043915,0.468236,-1.433144,1.826838,4.007007,5.556564,6.986524,22.746984,31.222174,-17.129893,-0.177330,-0.058586,0.000000,0.526876,-0.542720,0.000000
1.720000,-2.016431,-0.452778,-1.706451,1.295625,-0.915100,-0.025300,0.509028,-1.375781,1.895949,4.124521,5.930375,6.840468,8.292976,38.873551,-14.854238,-0.171772,-0.064231,0.000000,0.586609,-0.565929,-0.000000
1.730000,-2.003449,-0.461997,-1.706608,1.300924,-0.928556,-0.006002,0.551079,-1.314797,1.963416,4.331094,6.236112,6.631254,33.231528,22.118017,-27.071260,-0.165620,-0.070117,0.000000,0.640779,-0.600001,-0.000000
1.740000,-1.990411,-0.471347,-1.706569,1.306657,-0.941388,0.013959,0.596036,-1.251346,2.028329,4.635659,6.466685,6.355268,20.018714,28.687483,-25.317867,-0.158984,-0.076446,0.000000,0.687991,-0.646177,-0.000000
1.750000,-1.977314,-0.480823,-1.706327,1.312852,-0.953573,0.034556,0.643177,-1.185140,2.090644,4.795571,6.769923,6.101332,19.532635,27.278304,-28.247766,-0.151821,-0.083128,0.000000,0.744324,-0.674509,0.000000
1.760000,-1.964153,-0.490416,-1.705876,1.319525,-0.965081,0.055763,0.691566,-1.115635,2.150306,4.865137,7.142282,5.829766,15.942398,28.260565,-30.429073,-0.144055,-0.090042,0.000000,0.810360,-0.690954,-0.000000
1.770000,-1.950922,-0.500122,-1.705210,1.326690,-0.975878,0.077552,0.742112,-1.043800,2.206812,5.312498,7.160840,5.452783,52.549144,-6.193164,-40.702370,-0.135794,-0.097297,0.000000,0.833961,-0.754455,-0.000000
1.780000,-1.937617,-0.509932,-1.704323,1.334382,-0.985956,0.099887,0.796714,-0.971535,2.259492,5.475737,7.403739,5.105265,-20.569985,55.324863,-28.651445,-0.127269,-0.105129,0.000000,0.884777,-0.781417,-0.000000
1.790000,-1.924233,-0.519838,-1.703210,1.342619,-0.995292,0.122732,0.850414,-0.894752,2.309072,5.324910,7.895188,4.794139,11.561606,24.387054,-37.846111,-0.117976,-0.112892,0.000000,0.966903,-0.767064,0.000000
1.800000,-1.910763,-0.529835,-1.701867,1.351393,-1.003842,0.146056,0.904759,-0.815083,2.354973,5.527480,8.048128,4.385111,7.878528,24.637957,-39.666202,-0.108114,-0.120772,0.000000,1.006545,-0.796355,0.000000
1.810000,-1.897203,-0.539913,-1.700288,1.360719,-1.011588,0.169818,0.960584,-0.733859,2.396809,5.639387,8.181010,3.978777,6.565450,21.249497,-41.650970,-0.097859,-0.128860,0.000000,1.042078,-0.812653,0.000000
1.820000,-1.883547,-0.550064,-1.698469,1.370607,-1.018511,0.193978,1.016859,-0.650008,2.434479,5.586165,8.650206,3.551812,-9.442305,53.747213,-43.660147,-0.087084,-0.137006,0.000000,1.120980,-0.805356,-0.000000
1.830000,-1.869789,-0.560280,-1.696407,1.381054,-1.024573,0.218493,1.072633,-0.561857,2.467787,5.613669,8.860410,3.107279,15.229299,-12.342486,-45.227169,-0.075576,-0.145065,0.000000,1.164331,-0.806823,-0.000000
1.840000,-1.855924,-0.570552,-1.694098,1.392064,-1.029751,0.243319,1.129507,-0.473908,2.496570,5.735321,8.782571,2.646298,1.347761,15.701633,-47.017255,-0.063953,-0.153232,0.000000,1.166969,-0.818852,0.000000
1.850000,-1.841946,-0.580872,-1.691540,1.403645,-1.034046,0.268409,1.186707,-0.384849,2.520654,5.707974,9.012552,2.167845,1.019719,11.347870,-48.590868,-0.052063,-0.161384,0.000000,1.208427,-0.808908,-0.000000
1.860000,-1.827849,-0.591230,-1.688729,1.415801,-1.037444,0.293715,1.245078,-0.294684,2.539717,6.001383,9.001280,1.637652,6.202190,5.870828,-50.790805,-0.039930,-0.169610,0.000000,1.215131,-0.838755,0.000000
1.870000,-1.813628,-0.601618,-1.685665,1.428546,-1.039937,0.319186,1.302726,-0.203424,2.553875,5.358736,9.309091,1.213543,-84.752348,36.776719,-40.444496,-0.027587,-0.177642,0.000000,1.260853,-0.744256,-0.000000
1.880000,-1.799276,-0.612026,-1.682345,1.441833,-1.041502,0.344778,1.354753,-0.109566,2.563622,5.355386,9.339878,0.694132,85.619172,-31.190463,-63.607719,-0.014861,-0.184822,0.000000,1.267280,-0.731307,0.000000
1.890000,-1.784789,-0.622445,-1.678769,1.455664,-1.042137,0.370438,1.412586,-0.017782,2.567365,6.059303,9.068548,0.072339,4.650570,-3.937497,-54.212629,-0.002410,-0.192619,0.000000,1.229298,-0.807832,-0.000000
1.900000,-1.770161,-0.632866,-1.674936,1.470089,-1.041860,0.396107,1.472099,0.073148,2.565532,5.875074,9.100070,-0.444508,8.684763,-8.726177,-55.593280,0.009895,-0.200474,0.000000,1.228714,-0.766804,-0.000000
1.910000,-1.755385,-0.643279,-1.670847,1.485100,-1.040672,0.421732,1.529432,0.164816,2.558582,5.538164,9.261575,-0.938367,0.317538,-6.587621,-54.974497,0.022236,-0.207868,0.000000,1.242915,-0.704902,-0.000000
1.920000,-1.740457,-0.653676,-1.666502,1.500682,-1.038569,0.447260,1.588789,0.254583,2.545828,6.582974,8.530935,-1.652043,134.305459,-93.211051,-76.226951,0.034224,-0.215325,0.000000,1.132031,-0.816904,0.000000
1.930000,-1.725370,-0.664048,-1.661902,1.516912,-1.035606,0.472624,1.657329,0.337675,2.526109,6.663721,8.369905,-2.220812,-120.559856,62.495162,-37.127413,0.045173,-0.223725,0.000000,1.096170,-0.803046,-0.000000
1.940000,-1.710117,-0.674385,-1.657050,1.533797,-1.031800,0.497768,1.717902,0.424468,2.502047,5.672187,8.845451,-2.626286,-2.855809,-14.075657,-55.532137,0.056482,-0.230881,0.000000,1.145575,-0.654421,-0.000000
1.950000,-1.694692,-0.684681,-1.651948,1.551265,-1.027119,0.522647,1.776376,0.510984,2.472713,5.969466,8.485304,-3.232289,-12.414915,-11.388412,-54.074584,0.067584,-0.237532,0.000000,1.078291,-0.666260,-0.000000
1.960000,-1.679089,-0.694925,-1.646598,1.569326,-1.021588,0.547204,1.835620,0.594765,2.437623,5.878518,8.256027,-3.786346,-16.054065,-14.010512,-53.540575,0.078125,-0.244024,0.000000,1.027889,-0.628490,0.000000
1.970000,-1.663303,-0.705110,-1.641005,1.587972,-1.015227,0.571382,1.892991,0.677679,2.397264,5.554205,8.393031,-4.273414,-38.777523,21.521272,-46.928496,0.088348,-0.250026,0.000000,1.025145,-0.562996,-0.000000
1.980000,-1.647328,-0.715227,-1.635172,1.607174,-1.008030,0.595133,1.947057,0.761608,2.352037,5.313753,8.268817,-4.789114,-8.941349,-47.011910,-56.286273,0.098489,-0.255371,0.000000,0.986528,-0.507610,0.000000
1.990000,-1.631158,-0.725268,-1.629104,1.626909,-1.000009,0.618404,1.999682,0.841930,2.301352,5.174607,7.854151,-5.336437,-28.897314,-15.892667,-50.049912,0.107930,-0.260276,0.000000,0.909629,-0.464058,0.000000
2.000000,-1.614788,-0.735224,-1.622806,1.647159,-0.991198,0.641143,2.049666,0.920176,2.245588,4.823234,7.780080,-5.816121,-31.224141,-18.942960,-48.966818,0.116876,-0.264608,0.000000,0.877617,-0.397194,0.000000
2.010000,-1.598213,-0.745089,-1.616283,1.667894,-0.981611,0.663300,2.097558,0.996564,2.184903,4.787521,7.481900,-6.321410,-27.848816,-22.839126,-48.021030,0.125354,-0.268446,0.000000,0.815769,-0.368767,0.000000
2.020000,-1.581429,-0.754854,-1.609542,1.689098,-0.971273,0.684825,2.141310,1.071135,2.119522,3.789343,7.487456,-6.738877,-121.234301,6.600781,-39.381821,0.133380,-0.271558,0.000000,0.797369,-0.228801,-0.000000
2.030000,-1.564430,-0.764512,-1.602589,1.710686,-0.960188,0.705677,2.175827,1.145375,2.049980,3.423977,7.249766,-7.191140,49.791645,-54.675719,-51.171258,0.141173,-0.273370,0.000000,0.746083,-0.166504,0.000000
2.040000,-1.547214,-0.774055,-1.595431,1.732625,-0.948382,0.725808,2.212542,1.215103,1.975539,3.764773,6.745021,-7.682321,-32.568116,-28.745824,-43.072673,0.148165,-0.275244,0.000000,0.659533,-0.186507,0.000000
2.050000,-1.529776,-0.783477,-1.588075,1.754929,-0.935897,0.745173,2.247234,1.281535,1.896695,3.205574,6.526719,-8.085776,-28.476504,-32.332254,-41.547053,0.154545,-0.276697,0.000000,0.614603,-0.105072,-0.000000
2.060000,-1.512114,-0.792771,-1.580530,1.777554,-0.922759,0.763729,2.276897,1.345649,1.813962,2.700186,6.306671,-8.452746,-32.203990,-32.275668,-38.830292,0.160464,-0.277411,0.000000,0.570949,-0.033487,-0.000000
2.070000,-1.494224,-0.801930,-1.572803,1.800458,-0.908996,0.781439,2.304395,1.405997,1.727164,2.932927,5.692174,-8.926374,39.513758,-70.553689,-49.070242,0.165748,-0.277729,0.000000,0.477037,-0.043791,-0.000000
2.080000,-1.476104,-0.810949,-1.564904,1.823651,-0.894660,0.798257,2.333603,1.460438,1.635849,2.666659,5.316937,-9.290907,-94.006730,-3.827625,-23.604026,0.170140,-0.278088,0.000000,0.417785,-0.001587,-0.000000
2.090000,-1.457750,-0.819822,-1.556841,1.847104,-0.879791,0.814147,2.355571,1.513393,1.541799,1.846045,5.211207,-9.535703,-30.524534,-37.502586,-32.206547,0.174248,-0.277542,0.000000,0.395754,0.095919,0.000000
2.100000,-1.439161,-0.828543,-1.548624,1.870750,-0.864404,0.829082,2.373530,1.563088,1.444695,1.719992,4.739241,-9.876465,-34.146822,-36.705033,-29.089901,0.177859,-0.276469,0.000000,0.328290,0.117852,-0.000000
2.110000,-1.420335,-0.837108,-1.540263,1.894566,-0.848543,0.843031,2.389270,1.608535,1.344448,1.434117,4.346557,-10.170358,-33.941957,-37.511780,-26.691042,0.180867,-0.275080,0.000000,0.273413,0.154584,-0.000000
2.120000,-1.401269,-0.845513,-1.531767,1.918523,-0.832246,0.855963,2.401332,1.650344,1.241611,0.940981,4.029001,-10.382654,-54.054575,-30.144109,-18.665734,0.183379,-0.273245,0.000000,0.231162,0.209471,-0.000000
2.130000,-1.381964,-0.853752,-1.523147,1.942576,-0.815546,0.867856,2.408596,1.688901,1.136742,0.576218,3.656618,-10.604535,-18.544487,-44.440212,-25.798152,0.185468,-0.270878,0.000000,0.183569,0.249202,-0.000000
2.140000,-1.362418,-0.861822,-1.514414,1.966688,-0.798482,0.878689,2.413422,1.723246,1.029453,0.355901,3.224972,-10.839861,-36.207933,-37.658356,-18.335539,0.187027,-0.268236,0.000000,0.130313,0.272958,-0.000000
2.150000,-1.342630,-0.869720,-1.505577,1.990833,-0.781094,0.888439,2.414887,1.753724,0.920259,-0.056571,2.868165,-10.996113,-35.589001,-37.875200,-15.835533,0.188125,-0.265248,0.000000,0.089129,0.313224,-0.000000
2.160000,-1.322601,-0.877443,-1.496648,2.014973,-0.763420,0.897089,2.412548,1.780530,0.809556,-0.410877,2.493782,-11.140078,-35.509374,-37.617184,-13.132102,0.188805,-0.261891,0.000000,0.047423,0.345863,-0.000000
2.170000,-1.302331,-0.884988,-1.487639,2.039072,-0.745496,0.904626,2.406653,1.803558,0.697534,-0.768750,2.110392,-11.260389,-35.799956,-38.419457,-10.764419,0.189075,-0.258210,0.000000,0.006611,0.377098,0.000000
2.180000,-1.281820,-0.892352,-1.478560,2.063094,-0.727361,0.911036,2.397193,1.822782,0.584445,-1.121325,1.738832,-11.351902,-34.690090,-35.852073,-7.537183,0.188948,-0.254221,0.000000,-0.031202,0.406011,0.000000
2.190000,-1.261069,-0.899535,-1.469422,2.087004,-0.709052,0.916312,2.384251,1.838386,0.470593,-1.467230,1.381229,-11.414645,-34.724712,-36.273765,-5.187634,0.188462,-0.249951,0.000000,-0.065964,0.432615,-0.000000
2.200000,-1.240080,-0.906533,-1.460237,2.110768,-0.690606,0.920447,2.367843,1.850380,0.356226,-1.813371,1.019062,-11.454345,-34.237916,-35.516618,-2.591136,0.187631,-0.245417,0.000000,-0.099721,0.457866,-0.000000
2.210000,-1.218855,-0.913346,-1.451017,2.134350,-0.672057,0.923436,2.348007,1.858798,0.241584,-2.152770,0.665684,-11.470163,-33.668752,-34.731243,-0.109452,0.186475,-0.240637,0.000000,-0.131256,0.481176,-0.000000
2.220000,-1.197394,-0.919974,-1.441772,2.157717,-0.653441,0.925278,2.324805,1.863755,0.126943,-2.486834,0.328569,-11.452389,-33.088470,-33.071022,3.195349,0.185017,-0.235630,0.000000,-0.159788,0.502583,-0.000000
2.230000,-1.175701,-0.926415,-1.432515,2.180835,-0.634793,0.925976,2.298296,1.865383,0.012594,-2.813392,-0.003722,-11.416105,-32.207809,-33.382128,4.035061,0.183283,-0.230416,0.000000,-0.186838,0.522363,-0.000000
2.240000,-1.153778,-0.932670,-1.423257,2.203672,-0.616145,0.925532,2.268565,1.863695,-0.101326,-3.131542,-0.330695,-11.362669,-31.449976,-31.594347,7.101624,0.181284,-0.225010,0.000000,-0.212467,0.540561,-0.000000
2.250000,-1.131629,-0.938738,-1.414008,2.226196,-0.597529,0.923951,2.235691,1.858839,-0.214548,-3.441779,-0.638681,-11.278278,-30.543153,-30.386040,9.300694,0.179044,-0.219431,0.000000,-0.235247,0.557043,-0.000000
2.260000,-1.109256,-0.944621,-1.404781,2.248375,-0.578978,0.921244,2.199775,1.850984,-0.326849,-3.739494,-0.929273,-11.178956,-29.506541,-28.922186,11.350627,0.176587,-0.213694,0.000000,-0.255742,0.571831,-0.000000
2.270000,-1.086662,-0.950318,-1.395587,2.270181,-0.560519,0.917418,2.160895,1.840206,-0.437995,-4.036451,-1.227915,-11.044201,-29.370562,-29.622627,14.806053,0.173929,-0.207816,0.000000,-0.276043,0.585707,0.000000
2.280000,-1.063853,-0.955831,-1.386437,2.291584,-0.542183,0.912489,2.119107,1.826533,-0.547705,-4.316125,-1.496900,-10.899504,-26.538304,-24.125077,14.092166,0.171078,-0.201807,0.000000,-0.293198,0.597754,0.000000
2.290000,-1.040832,-0.961162,-1.377341,2.312554,-0.523997,0.906469,2.074638,1.810384,-0.655965,-4.577211,-1.733838,-10.746951,-26.178164,-24.431952,17.187100,0.168076,-0.195690,0.000000,-0.307151,0.607971,0.000000
2.300000,-1.017604,-0.966312,-1.368311,2.333068,-0.505984,0.899375,2.027564,1.791821,-0.762525,-4.835205,-1.975308,-10.562786,-24.906102,-22.675477,18.844896,0.164934,-0.189476,0.000000,-0.320913,0.617423,0.000000
2.310000,-0.994172,-0.971282,-1.359357,2.353097,-0.488168,0.891225,1.977985,1.770957,-0.867200,-5.078559,-2.194699,-10.370011,-23.636031,-20.967463,20.370577,0.161665,-0.183177,0.000000,-0.332514,0.625552,-0.000000
2.320000,-0.970543,-0.976076,-1.350490,2.372619,-0.470572,0.882038,1.926046,1.748003,-0.969821,-5.306679,-2.392422,-10.149493,-22.100333,-18.791409,23.056801,0.158292,-0.176806,0.000000,-0.341804,0.632067,-0.000000
2.330000,-0.946722,-0.980695,-1.341720,2.391611,-0.453214,0.871836,1.871890,1.723157,-1.070175,-5.522943,-2.575045,-9.923054,-21.151449,-17.734826,22.192361,0.154833,-0.170378,0.000000,-0.349746,0.637701,0.000000
2.340000,-0.922713,-0.985141,-1.333056,2.410050,-0.436114,0.860642,1.815626,1.696551,-1.168275,-5.727227,-2.742567,-9.692690,-19.582119,-15.543232,24.526886,0.151301,-0.163900,0.000000,-0.356408,0.642503,0.000000
2.350000,-0.898523,-0.989418,-1.324510,2.427917,-0.419289,0.848479,1.757401,1.668384,-1.263938,-5.915532,-2.887741,-9.438517,-18.194850,-13.711046,25.627464,0.147713,-0.157385,0.000000,-0.360957,0.645889,0.000000
2.360000,-0.874157,-0.993528,-1.316090,2.445192,-0.402751,0.835372,1.697352,1.638835,-1.357037,-6.092045,-3.019506,-9.179863,-16.816822,-11.931982,26.606319,0.144085,-0.150842,0.000000,-0.364471,0.648556,-0.000000
2.370000,-0.849621,-0.997474,-1.307806,2.461858,-0.386516,0.821347,1.635630,1.608111,-1.447462,-6.249178,-3.119843,-8.901948,-14.888615,-8.822345,28.454536,0.140434,-0.144283,0.000000,-0.365265,0.649695,-0.000000
2.380000,-0.824922,-1.001259,-1.299666,2.477900,-0.370592,0.806432,1.572402,1.576466,-1.535072,-6.395678,-3.210388,-8.621717,-14.419423,-9.308398,27.559105,0.136781,-0.137720,0.000000,-0.365451,0.650327,0.000000
2.390000,-0.800065,-1.004887,-1.291680,2.493302,-0.354990,0.790655,1.507748,1.543928,-1.619899,-6.531894,-3.292113,-8.340875,-12.541155,-6.343421,29.103080,0.133126,-0.131155,0.000000,-0.365136,0.650509,-0.000000
2.400000,-0.775058,-1.008360,-1.283856,2.508050,-0.339716,0.774043,1.441833,1.510738,-1.701828,-6.648910,-3.343177,-8.044305,-11.144633,-4.562996,29.686993,0.129488,-0.124599,0.000000,-0.362331,0.649339,0.000000
2.410000,-0.749906,-1.011682,-1.276202,2.522135,-0.324776,0.756628,1.374809,1.477117,-1.780786,-6.753613,-3.377636,-7.746716,-9.742246,-2.709142,30.172282,0.125883,-0.118061,0.000000,-0.358421,0.647597,0.000000
2.420000,-0.724617,-1.014857,-1.268726,2.535543,-0.310174,0.738438,1.306812,1.443216,-1.856719,-6.843278,-3.400907,-7.437863,-8.246436,-1.580871,31.237665,0.122321,-0.111547,0.000000,-0.353773,0.644966,0.000000
2.430000,-0.699198,-1.017887,-1.261435,2.548268,-0.295912,0.719504,1.237987,1.409177,-1.929548,-6.919719,-3.401615,-7.129514,-7.046168,1.446313,30.407929,0.118813,-0.105066,0.000000,-0.347567,0.641736,0.000000
2.440000,-0.673654,-1.020776,-1.254338,2.560301,-0.281990,0.699857,1.168460,1.375263,-1.999318,-6.983173,-3.379517,-6.822955,-5.593563,2.596562,31.240983,0.115375,-0.098623,0.000000,-0.339812,0.637937,-0.000000
2.450000,-0.647994,-1.023528,-1.247441,2.571635,-0.268406,0.679528,1.098373,1.341616,-2.065972,-7.032124,-3.346656,-6.507907,-4.254917,4.339146,31.408044,0.112018,-0.092225,0.000000,-0.331421,0.633366,0.000000
2.460000,-0.622224,-1.026145,-1.240750,2.582267,-0.255157,0.658548,1.027854,1.308388,-2.129482,-7.069653,-3.296456,-6.193793,-2.969901,5.983079,31.516896,0.108750,-0.085877,0.000000,-0.321940,0.628365,-0.000000
2.470000,-0.596351,-1.028632,-1.234272,2.592192,-0.242236,0.636949,0.957045,1.275765,-2.189837,-7.088991,-3.224490,-5.876737,-1.179513,8.120410,31.774546,0.105585,-0.079586,0.000000,-0.310979,0.622350,-0.000000
2.480000,-0.570382,-1.030991,-1.228013,2.601407,-0.229639,0.614762,0.886103,1.243937,-2.247021,-7.099162,-3.140131,-5.560795,-0.868690,8.733284,31.401326,0.102533,-0.073361,0.000000,-0.299342,0.616096,-0.000000
2.490000,-0.544325,-1.033226,-1.221978,2.609913,-0.217355,0.592019,0.815088,1.212998,-2.301059,-7.100873,-3.044330,-5.246665,0.800335,10.700664,31.527355,0.099600,-0.067200,0.000000,-0.287104,0.609657,0.000000
2.500000,-0.518187,-1.035339,-1.216174,2.617709,-0.205375,0.568751,0.744147,1.183122,-2.351948,-7.085650,-2.928739,-4.931342,1.959613,12.123500,31.419407,0.096796,-0.061110,0.000000,-0.273559,0.602319,-0.000000
2.510000,-0.491973,-1.037334,-1.210605,2.624797,-0.193688,0.544990,0.673402,1.154455,-2.399692,-7.061506,-2.802440,-4.617659,3.075553,13.459831,31.280903,0.094130,-0.055097,0.000000,-0.259459,0.594749,-0.000000
2.520000,-0.465693,-1.039214,-1.205276,2.631178,-0.182282,0.520768,0.602970,1.127143,-2.444309,-7.022312,-2.656698,-4.306117,4.550183,15.351374,31.051083,0.091611,-0.049165,0.000000,-0.244095,0.586443,0.000000
2.530000,-0.439352,-1.040981,-1.200191,2.636858,-0.171140,0.496115,0.532981,1.101347,-2.485819,-6.974972,-2.502484,-3.996131,4.904360,15.468632,30.942488,0.089249,-0.043319,0.000000,-0.228336,0.577952,-0.000000
2.540000,-0.412958,-1.042638,-1.195355,2.641840,-0.160249,0.471062,0.463494,1.077115,-2.524237,-6.920187,-2.341009,-3.687936,6.253985,17.141301,30.663431,0.087045,-0.037560,0.000000,-0.212266,0.569320,-0.000000
2.550000,-0.386518,-1.044187,-1.190771,2.646130,-0.149592,0.445640,0.394627,1.054589,-2.559588,-6.851807,-2.162711,-3.382679,7.207168,18.177384,30.414227,0.085008,-0.031892,0.000000,-0.195110,0.560046,-0.000000
2.560000,-0.360038,-1.045630,-1.186443,2.649735,-0.139152,0.419880,0.326480,1.033882,-2.591894,-6.776163,-1.977153,-3.078618,8.108179,19.128181,30.173108,0.083144,-0.026319,0.000000,-0.177610,0.550625,-0.000000
2.570000,-0.333525,-1.046970,-1.182374,2.652662,-0.128908,0.393812,0.259149,1.015093,-2.621187,-6.688007,-1.778518,-2.781301,9.327386,20.382600,29.505226,0.081459,-0.020844,0.000000,-0.159319,0.540632,-0.000000
2.580000,-0.306987,-1.048209,-1.178568,2.654921,-0.118843,0.367466,0.192739,0.998330,-2.647518,-6.593716,-1.574030,-2.483996,9.517326,20.493968,29.961794,0.079958,-0.015470,0.000000,-0.140751,0.530553,-0.000000
2.590000,-0.280429,-1.049348,-1.175026,2.656520,-0.108935,0.340872,0.127291,0.983626,-2.670865,-6.494003,-1.364854,-2.186444,10.607760,21.529954,29.330439,0.078644,-0.010199,0.000000,-0.121979,0.520436,0.000000
2.600000,-0.253859,-1.050388,-1.171751,2.657470,-0.099163,0.314059,0.062899,0.971070,-2.691273,-6.383326,-1.145465,-1.895525,11.330734,22.129189,29.071240,0.077521,-0.005031,0.000000,-0.102586,0.509828,0.000000
2.610000,-0.227282,-1.051331,-1.168745,2.657782,-0.089506,0.287056,-0.000360,0.960725,-2.708770,-6.267279,-0.922944,-1.603998,12.005682,22.619697,28.846687,0.076593,0.000029,0.000000,-0.083070,0.499159,0.000000
2.620000,-0.200705,-1.052178,-1.166011,2.657467,-0.079941,0.259893,-0.062414,0.952647,-2.723392,-6.142125,-0.690991,-1.322140,12.887151,23.502693,27.903553,0.075862,0.004980,0.000000,-0.062971,0.488116,0.000000
2.630000,-0.174135,-1.052930,-1.163548,2.656538,-0.070445,0.232598,-0.123188,0.946905,-2.735202,-6.012425,-0.458504,-1.037973,13.041463,22.970945,28.943609,0.075333,0.009819,0.000000,-0.042901,0.477045,-0.000000
2.640000,-0.147576,-1.053588,-1.161359,2.655007,-0.060995,0.205199,-0.182651,0.943473,-2.744138,-5.878803,-0.226784,-0.750856,13.807329,23.612035,28.101263,0.075003,0.014548,0.000000,-0.022938,0.465993,0.000000
2.650000,-0.121036,-1.054150,-1.159444,2.652889,-0.051568,0.177724,-0.240736,0.942395,-2.750255,-5.737543,0.011253,-0.472666,14.306231,23.725419,27.918926,0.074876,0.019164,0.000000,-0.002568,0.454635,0.000000
2.660000,-0.094520,-1.054619,-1.157805,2.650198,-0.042140,0.150203,-0.297389,0.943690,-2.753579,-5.592254,0.247611,-0.192171,14.767860,23.736020,27.773188,0.074951,0.023666,0.000000,0.017665,0.443257,-0.000000
2.670000,-0.068034,-1.054993,-1.156440,2.646946,-0.032686,0.122662,-0.352565,0.947362,-2.754137,-5.442113,0.487541,0.079079,15.230705,24.034870,26.877226,0.075230,0.028054,0.000000,0.038131,0.431758,0.000000
2.680000,-0.041583,-1.055272,-1.155351,2.643151,-0.023184,0.095129,-0.406219,0.953427,-2.751983,-5.288255,0.723808,0.353780,15.533391,23.196408,28.078207,0.075713,0.032326,0.000000,0.058356,0.420236,-0.000000
2.690000,-0.015173,-1.055457,-1.154538,2.638827,-0.013610,0.067632,-0.458319,0.961821,-2.747044,-5.131125,0.955183,0.632649,15.908465,23.263800,27.296734,0.076396,0.036483,0.000000,0.078270,0.408722,0.000000
2.700000,0.011192,-1.055544,-1.153998,2.633990,-0.003940,0.040197,-0.508829,0.972536,-2.739365,-4.970415,1.187062,0.903176,16.204129,22.895867,27.211793,0.077279,0.040524,0.000000,0.098247,0.397143,0.000000
2.710000,0.037505,-1.055535,-1.153733,2.628656,0.005848,0.012853,-0.557718,0.985542,-2.728966,-4.806925,1.413434,1.176791,16.463797,22.438653,27.156036,0.078360,0.044450,0.000000,0.117904,0.385581,-0.000000
2.720000,0.063763,-1.055427,-1.153741,2.622841,0.015778,-0.014373,-0.604962,1.000794,-2.715860,-4.641487,1.636221,1.443051,16.640015,22.029974,26.445011,0.079636,0.048260,0.000000,0.137348,0.374052,-0.000000
2.730000,0.089960,-1.055219,-1.154020,2.616562,0.025872,-0.041455,-0.650540,1.018243,-2.700090,-4.473777,1.852186,1.713017,16.896281,21.145411,27.560818,0.081106,0.051954,0.000000,0.156415,0.362555,-0.000000
2.740000,0.116093,-1.054909,-1.154570,2.609836,0.036150,-0.068366,-0.694431,1.037811,-2.681583,-4.304151,2.060310,1.987279,16.999495,20.538410,26.942681,0.082763,0.055535,0.000000,0.175049,0.351113,0.000000
2.750000,0.142156,-1.054495,-1.155387,2.602679,0.046635,-0.095078,-0.736621,1.059429,-2.660373,-4.133720,2.262024,2.254870,17.103507,19.715526,26.925890,0.084605,0.059001,0.000000,0.193313,0.339755,0.000000
2.760000,0.168145,-1.053975,-1.156470,2.595109,0.057345,-0.121564,-0.777102,1.083013,-2.636471,-3.962371,2.453078,2.525519,17.167547,18.775656,26.922927,0.086627,0.062355,0.000000,0.210950,0.328500,0.000000
2.770000,0.194057,-1.053347,-1.157817,2.587143,0.068301,-0.147798,-0.815866,1.108482,-2.609885,-3.790424,2.639963,2.790742,17.208425,18.300642,26.394990,0.088824,0.065596,0.000000,0.228438,0.317320,0.000000
2.780000,0.219887,-1.052609,-1.159425,2.578798,0.079521,-0.173753,-0.852911,1.135764,-2.580644,-3.618478,2.812794,3.059152,17.174452,16.242759,27.294998,0.091193,0.068727,0.000000,0.245066,0.306293,-0.000000
2.790000,0.245631,-1.051756,-1.161291,2.570091,0.091022,-0.199402,-0.888237,1.164685,-2.548688,-3.446908,2.970337,3.331096,17.140899,15.541510,26.816644,0.093722,0.071748,0.000000,0.260753,0.295442,-0.000000
2.800000,0.271287,-1.050787,-1.163412,2.561039,0.102820,-0.224718,-0.921850,1.195152,-2.514044,-3.275842,3.120903,3.597798,17.059136,14.270231,26.797193,0.096407,0.074662,0.000000,0.276112,0.284717,0.000000
2.810000,0.296851,-1.049699,-1.165785,2.551659,0.114930,-0.249674,-0.953758,1.227045,-2.476723,-3.105942,3.255142,3.866450,16.939951,12.903103,26.765790,0.099241,0.077470,0.000000,0.290460,0.274200,0.000000
2.820000,0.322319,-1.048487,-1.168405,2.541969,0.127365,-0.274243,-0.983972,1.260236,-2.436730,-2.936930,3.381830,4.131540,16.832650,12.094735,26.409166,0.102216,0.080173,0.000000,0.304469,0.263822,0.000000
2.830000,0.347689,-1.047150,-1.171268,2.531986,0.140138,-0.298400,-1.012504,1.294617,-2.394087,-2.769908,3.489923,4.397921,16.565328,9.502330,26.868137,0.105326,0.082775,0.000000,0.317297,0.253693,0.000000
2.840000,0.372958,-1.045683,-1.174371,2.521725,0.153261,-0.322116,-1.039378,1.329966,-2.348766,-2.605246,3.578294,4.665581,16.385812,8.492470,26.497666,0.108557,0.085277,0.000000,0.328857,0.243835,0.000000
2.850000,0.398123,-1.044084,-1.177709,2.511203,0.166740,-0.345366,-1.064614,1.366156,-2.300792,-2.442508,3.656759,4.929145,16.132315,6.860897,26.370884,0.111902,0.087681,0.000000,0.339898,0.234164,0.000000
2.860000,0.423181,-1.042347,-1.181277,2.500438,0.180586,-0.368123,-1.088238,1.403032,-2.250185,-2.282621,3.715624,5.191964,15.847543,5.165625,26.197997,0.115351,0.089990,0.000000,0.349664,0.224769,-0.000000
2.870000,0.448131,-1.040471,-1.185070,2.489444,0.194803,-0.390361,-1.110276,1.440432,-2.196958,-2.125590,3.762316,5.453079,15.546025,3.910243,26.007079,0.118893,0.092207,0.000000,0.358748,0.215636,0.000000
2.880000,0.472970,-1.038450,-1.189082,2.478237,0.209396,-0.412054,-1.130761,1.478208,-2.141131,-1.971962,3.788336,5.711732,15.174289,1.278866,25.715734,0.122521,0.094335,0.000000,0.366443,0.206794,0.000000
2.890000,0.497695,-1.036282,-1.193309,2.466834,0.224367,-0.433175,-1.149728,1.516125,-2.082733,-1.822051,3.792909,5.967454,14.810597,-0.113479,25.431367,0.126217,0.096375,0.000000,0.372665,0.198258,-0.000000
2.900000,0.522306,-1.033962,-1.197744,2.455248,0.239718,-0.453700,-1.167214,1.554025,-2.021792,-1.675912,3.783772,6.220092,14.404689,-1.975203,25.076146,0.129972,0.098333,0.000000,0.378037,0.190025,0.000000
2.910000,0.546800,-1.031486,-1.202381,2.443494,0.255447,-0.473603,-1.183262,1.591727,-1.958349,-1.534312,3.753317,6.467830,13.964616,-3.874789,24.645439,0.133773,0.100209,0.000000,0.381893,0.182136,-0.000000
2.920000,0.571175,-1.028851,-1.207214,2.431587,0.271552,-0.492859,-1.197911,1.629047,-1.892436,-1.396221,3.708475,6.714503,13.597149,-5.335476,24.499689,0.137607,0.102009,0.000000,0.384829,0.174532,-0.000000
2.930000,0.595431,-1.026054,-1.212236,2.419541,0.288026,-0.511443,-1.211205,1.665821,-1.824084,-1.263550,3.641544,6.953851,12.931010,-8.059918,23.353631,0.141464,0.103735,0.000000,0.386110,0.167315,-0.000000
2.940000,0.619565,-1.023090,-1.217440,2.407367,0.304865,-0.529333,-1.223202,1.701801,-1.753388,-1.136635,3.552084,7.184977,12.500267,-9.591562,23.040859,0.145323,0.105390,0.000000,0.385646,0.160500,-0.000000
2.950000,0.643578,-1.019955,-1.222820,2.395081,0.322059,-0.546503,-1.233951,1.736817,-1.680392,-1.014074,3.447667,7.412896,11.955701,-11.532165,22.351117,0.149173,0.106980,0.000000,0.384101,0.154010,-0.000000
2.960000,0.667467,-1.016647,-1.228368,2.382692,0.339598,-0.562933,-1.243507,1.770686,-1.605169,-0.898211,3.323075,7.630131,11.373113,-13.444220,21.548665,0.153000,0.108507,0.000000,0.380899,0.147974,-0.000000
2.970000,0.691231,-1.013162,-1.234076,2.370214,0.357468,-0.578600,-1.251922,1.803210,-1.527780,-0.785212,3.178278,7.847900,11.067859,-15.454506,21.541352,0.156786,0.109975,0.000000,0.376144,0.142168,-0.000000
2.980000,0.714871,-1.009497,-1.239937,2.357658,0.375657,-0.593482,-1.259239,1.834192,-1.448263,-0.680185,3.015270,8.051230,9.929481,-17.141345,19.097794,0.160517,0.111387,0.000000,0.369751,0.136888,-0.000000
2.990000,0.738384,-1.005648,-1.245943,2.345033,0.394147,-0.607558,-1.265555,1.863456,-1.366812,-0.583541,2.834367,8.238730,9.553229,-19.092760,18.844997,0.164175,0.112750,0.000000,0.361662,0.132156,-0.000000
3.000000,0.761771,-1.001613,-1.252085,2.332350,0.412920,-0.620811,-1.270919,1.890813,-1.283488,-0.490510,2.634023,8.424004,8.894201,-20.911532,17.742500,0.167745,0.114067,0.000000,0.351881,0.127694,-0.000000
3.010000,0.785031,-0.997389,-1.258356,2.319617,0.431956,-0.633222,-1.275411,1.916058,-1.198388,-0.409654,2.411323,8.593701,8.135961,-22.785768,16.550703,0.171205,0.115344,0.000000,0.339878,0.124125,-0.000000
3.020000,0.808163,-0.992973,-1.264747,2.306844,0.451233,-0.644774,-1.279068,1.939046,-1.111625,-0.319900,2.186160,8.758136,8.978431,-23.047877,15.967644,0.174542,0.116582,0.000000,0.327521,0.119691,0.000000
3.030000,0.831168,-0.988363,-1.271249,2.294039,0.470729,-0.655449,-1.281874,1.959683,-1.023286,-0.247634,1.933551,8.905327,5.448529,-27.488242,13.446934,0.177746,0.117780,0.000000,0.312320,0.116603,0.000000
3.040000,0.854044,-0.983558,-1.277853,2.281209,0.490418,-0.665235,-1.284089,1.977617,-0.933583,-0.194020,1.653031,9.034023,6.118693,-27.784783,12.639070,0.180778,0.118957,0.000000,0.294087,0.114987,0.000000
3.050000,0.876792,-0.978554,-1.284551,2.268359,0.510272,-0.674117,-1.285713,1.992754,-0.842625,-0.132388,1.371184,9.154809,5.369063,-29.385307,11.147903,0.183627,0.120113,0.000000,0.275334,0.112560,0.000000
3.060000,0.899411,-0.973352,-1.291332,2.255496,0.530263,-0.682084,-1.286740,2.005007,-0.750559,-0.072932,1.077962,9.255521,4.871296,-30.681147,9.545179,0.186279,0.121246,0.000000,0.254874,0.110092,0.000000
3.070000,0.921902,-0.967949,-1.298189,2.242626,0.550362,-0.689125,-1.287322,2.014155,-0.657524,-0.050122,0.744661,9.350657,1.297673,-34.566635,8.925074,0.188708,0.122368,0.000000,0.230164,0.110936,-0.000000
3.080000,0.944264,-0.962344,-1.305112,2.229751,0.570535,-0.695231,-1.287683,2.019927,-0.563628,-0.013244,0.416276,9.422346,6.130462,-31.049103,5.385054,0.190882,0.123499,0.000000,0.204989,0.110254,-0.000000
3.090000,0.966497,-0.956538,-1.312091,2.216874,0.590750,-0.700396,-1.287520,2.022518,-0.469164,0.040070,0.095806,9.469194,2.914356,-34.435660,4.525575,0.192808,0.124606,0.000000,0.179569,0.107731,-0.000000
3.100000,0.988601,-0.950529,-1.319117,2.204001,0.610974,-0.704613,-1.287025,2.021700,-0.374261,0.058833,-0.260104,9.507990,2.453888,-35.323385,2.674985,0.194457,0.125708,0.000000,0.149964,0.108360,-0.000000
3.110000,1.010577,-0.944319,-1.326180,2.191134,0.631172,-0.707880,-1.286330,2.017317,-0.279095,0.079020,-0.617913,9.521795,1.865094,-36.191242,0.734533,0.195803,0.126813,0.000000,0.118959,0.108581,0.000000
3.120000,1.032424,-0.937906,-1.333271,2.178275,0.651308,-0.710195,-1.285442,2.009317,-0.183838,0.098731,-0.983285,9.528571,1.805309,-36.890928,-0.023637,0.196831,0.127921,0.000000,0.086268,0.108779,-0.000000
3.130000,1.054143,-0.931293,-1.340380,2.165426,0.671346,-0.711557,-1.284388,1.997627,-0.088620,0.109417,-1.355905,9.507816,0.323659,-37.613723,-4.153011,0.197521,0.129033,0.000000,0.051429,0.109525,0.000000
3.140000,1.075733,-0.924480,-1.347499,2.152588,0.691248,-0.711968,-1.283287,1.982178,0.006218,0.110722,-1.734600,9.458297,0.212732,-38.076925,-5.112004,0.197852,0.130157,0.000000,0.014428,0.110848,0.000000
3.150000,1.097194,-0.917468,-1.354617,2.139760,0.710977,-0.711434,-1.282171,1.962922,0.100528,0.111340,-2.117256,9.400036,-0.363234,-38.460311,-7.184692,0.197805,0.131294,0.000000,-0.024201,0.112153,0.000000
3.160000,1.118528,-0.910261,-1.361724,2.126944,0.730494,-0.709960,-1.281124,1.939815,0.194129,0.095985,-2.504806,9.316570,-1.097566,-38.743188,-9.259836,0.197361,0.132450,0.000000,-0.064985,0.114752,-0.000000
3.170000,1.139733,-0.902859,-1.368813,2.114138,0.749760,-0.707555,-1.280145,1.912842,0.286811,0.104222,-2.889054,9.217110,1.184859,-38.359486,-10.874546,0.196502,0.133623,0.000000,-0.106889,0.114792,-0.000000
3.180000,1.160811,-0.895267,-1.375872,2.101341,0.768738,-0.704228,-1.279136,1.882019,0.378391,0.086935,-3.277323,9.094003,-4.688203,-39.279151,-13.753531,0.195215,0.134800,0.000000,-0.150973,0.117088,-0.000000
3.190000,1.181760,-0.887486,-1.382894,2.088554,0.787388,-0.699991,-1.278510,1.847284,0.468609,0.042125,-3.668573,8.946974,-2.692817,-38.667717,-15.405222,0.193475,0.136020,0.000000,-0.197203,0.121931,-0.000000
3.200000,1.202582,-0.879520,-1.389869,2.075770,0.805671,-0.694861,-1.278191,1.808676,0.557281,0.019786,-4.052544,8.783893,-3.341180,-38.378655,-17.451072,0.191269,0.137273,0.000000,-0.244266,0.124280,0.000000
3.210000,1.223275,-0.871374,-1.396789,2.062989,0.823549,-0.688852,-1.278137,1.766285,0.644213,-0.008922,-4.423640,8.599010,-3.706863,-37.708736,-19.459399,0.188589,0.138553,0.000000,-0.291758,0.126991,-0.000000
3.220000,1.243841,-0.863051,-1.403643,2.050206,0.840984,-0.681983,-1.278488,1.720074,0.729200,-0.066297,-4.823636,8.395389,-6.487232,-40.427929,-21.316489,0.185415,0.139871,0.000000,-0.344047,0.132482,-0.000000
3.230000,1.264280,-0.854556,-1.410425,2.037417,0.857937,-0.674275,-1.279414,1.669927,0.812053,-0.111777,-5.193125,8.171604,-2.561886,-33.388199,-23.433839,0.181715,0.141243,0.000000,-0.394826,0.136464,0.000000
3.240000,1.284590,-0.845894,-1.417126,2.024617,0.874371,-0.665750,-1.280666,1.616342,0.892566,-0.143166,-5.528095,7.928088,-4.994955,-35.437363,-25.199764,0.177527,0.142638,0.000000,-0.443467,0.138617,-0.000000
3.250000,1.304772,-0.837070,-1.423738,2.011802,0.890252,-0.656432,-1.282387,1.559258,0.970558,-0.200613,-5.885660,7.667325,-5.204794,-34.204029,-27.000701,0.172829,0.144070,0.000000,-0.496086,0.143305,0.000000
3.260000,1.324826,-0.828091,-1.430252,1.998967,0.905545,-0.646347,-1.284652,1.498716,1.045859,-0.252764,-6.220401,7.390229,-5.430519,-32.934350,-28.691972,0.167610,0.145544,0.000000,-0.547603,0.147145,0.000000
3.270000,1.344751,-0.818961,-1.436662,1.986107,0.920215,-0.635524,-1.287466,1.434877,1.118284,-0.311035,-6.545876,7.091125,-6.010987,-31.935266,-30.836470,0.161875,0.147056,0.000000,-0.599478,0.151267,0.000000
3.280000,1.364548,-0.809688,-1.442960,1.973216,0.934231,-0.623992,-1.290869,1.367857,1.187642,-0.368524,-6.854405,6.779636,-5.473456,-29.744645,-31.436907,0.155624,0.148608,0.000000,-0.650507,0.155043,0.000000
3.290000,1.384215,-0.800279,-1.449140,1.960288,0.947562,-0.611782,-1.294830,1.297852,1.253842,-0.424531,-7.144543,6.457090,-5.928765,-28.471910,-33.336041,0.148869,0.150193,0.000000,-0.700315,0.158385,0.000000
3.300000,1.403753,-0.790740,-1.455194,1.947317,0.960179,-0.598926,-1.299379,1.225006,1.316716,-0.485204,-7.421730,6.115649,-5.991637,-26.741655,-34.654123,0.141619,0.151812,0.000000,-0.749455,0.161826,-0.000000
3.310000,1.423162,-0.781078,-1.461116,1.934298,0.972054,-0.585459,-1.304528,1.149497,1.376134,-0.544666,-7.676628,5.766235,-6.014390,-24.854844,-35.811267,0.133888,0.153461,0.000000,-0.796444,0.164865,0.000000
3.320000,1.442439,-0.771301,-1.466901,1.921225,0.983161,-0.571416,-1.310282,1.071486,1.431955,-0.606469,-7.924345,5.394280,-6.223067,-24.060148,-37.975939,0.125690,0.155138,0.000000,-0.843011,0.167619,-0.000000
3.330000,1.461586,-0.761417,-1.472543,1.908091,0.993475,-0.556833,-1.316651,0.991105,1.484014,-0.666552,-8.144663,5.019382,-5.783771,-19.971344,-36.964607,0.117039,0.156839,0.000000,-0.886263,0.169942,-0.000000
3.340000,1.480601,-0.751434,-1.478036,1.894890,1.002976,-0.541748,-1.323605,0.908694,1.532345,-0.724382,-8.335952,4.643599,-5.893839,-18.895038,-38.759782,0.107978,0.158559,0.000000,-0.925718,0.171787,-0.000000
3.350000,1.499483,-0.741360,-1.483376,1.881617,1.011643,-0.526199,-1.331144,0.824409,1.576815,-0.783308,-8.517089,4.249629,-5.768449,-16.704550,-39.424643,0.098529,0.160293,0.000000,-0.963566,0.173199,0.000000
3.360000,1.518233,-0.731204,-1.488559,1.868265,1.019459,-0.510224,-1.339275,0.738453,1.617345,-0.842838,-8.670256,3.855855,-5.667159,-14.442977,-39.924383,0.088722,0.162039,0.000000,-0.997222,0.174446,-0.000000
3.370000,1.536848,-0.720974,-1.493579,1.854829,1.026407,-0.493865,-1.347959,0.651038,1.653868,-0.892259,-8.810613,3.445923,-4.661684,-13.116046,-41.440762,0.078591,0.163789,0.000000,-1.028406,0.173919,0.000000
3.380000,1.555329,-0.710679,-1.498435,1.841304,1.032475,-0.477161,-1.357136,0.562341,1.686281,-0.945415,-8.921846,3.040063,-5.977548,-9.110928,-39.689416,0.068170,0.165530,0.000000,-1.054753,0.173633,-0.000000
3.390000,1.573674,-0.700328,-1.503122,1.827685,1.037651,-0.460153,-1.366885,0.472705,1.714695,-1.002563,-9.003019,2.640494,-4.990421,-7.632998,-40.805128,0.057514,0.167271,0.000000,-1.075950,0.173672,0.000000
3.400000,1.591882,-0.689929,-1.507637,1.813965,1.041927,-0.442881,-1.377143,0.382319,1.739043,-1.048956,-9.070148,2.229558,-4.735157,-5.283460,-40.756343,0.046661,0.169002,0.000000,-1.093877,0.171905,-0.000000
3.410000,1.609953,-0.679492,-1.511979,1.800140,1.045296,-0.425385,-1.387835,0.291367,1.759326,-1.088081,-9.116968,1.828111,-4.279586,-3.083719,-40.497695,0.035650,0.170710,0.000000,-1.107520,0.169161,-0.000000
3.420000,1.627885,-0.669026,-1.516144,1.786207,1.047753,-0.407708,-1.398986,0.200134,1.775536,-1.145457,-9.122685,1.410953,-6.026889,0.967934,-41.951188,0.024535,0.172395,0.000000,-1.114351,0.168000,0.000000
3.430000,1.645677,-0.658540,-1.520132,1.772159,1.049298,-0.389888,-1.410673,0.108941,1.787606,-1.184094,-9.118033,1.009690,-1.659101,-0.072315,-38.249375,0.013374,0.174062,0.000000,-1.117902,0.164624,-0.000000
3.440000,1.663328,-0.648043,-1.523942,1.757993,1.049932,-0.371968,-1.422590,0.017794,1.795799,-1.202070,-9.104627,0.626976,-3.105799,3.726392,-39.241527,0.002186,0.175679,0.000000,-1.118461,0.158873,-0.000000
3.450000,1.680836,-0.637544,-1.527571,1.743706,1.049655,-0.353986,-1.434789,-0.073003,1.800092,-1.236161,-9.051935,0.233514,-2.539254,5.829992,-38.464678,-0.008971,0.177247,0.000000,-1.112311,0.154585,0.000000
3.460000,1.698201,-0.627053,-1.531021,1.729296,1.048474,-0.335979,-1.447267,-0.163188,1.800528,-1.258601,-8.981211,-0.144591,-2.022475,7.988041,-37.580511,-0.020047,0.178766,0.000000,-1.102109,0.148982,-0.000000
3.470000,1.715422,-0.616578,-1.534291,1.714760,1.046394,-0.317988,-1.459950,-0.252582,1.797196,-1.277273,-8.895277,-0.521798,-1.636723,9.498980,-37.411868,-0.031002,0.180225,0.000000,-1.088279,0.142730,-0.000000
3.480000,1.732496,-0.606128,-1.537381,1.700096,1.043425,-0.300048,-1.472792,-0.341010,1.790148,-1.289768,-8.784931,-0.883429,-0.859511,12.569379,-34.883369,-0.041797,0.181620,0.000000,-1.069859,0.135887,-0.000000
3.490000,1.749423,-0.595712,-1.540292,1.685304,1.039578,-0.282196,-1.485724,-0.428198,1.779588,-1.295954,-8.650376,-1.227837,-0.452385,14.017236,-34.416506,-0.052384,0.182943,0.000000,-1.047082,0.128511,0.000000
3.500000,1.766202,-0.585339,-1.543025,1.670382,1.034866,-0.264467,-1.498699,-0.513977,1.765598,-1.298202,-8.502189,-1.567748,0.075807,15.918261,-33.117488,-0.062729,0.184192,0.000000,-1.021344,0.120638,-0.000000
3.510000,1.782831,-0.575018,-1.545582,1.655330,1.029304,-0.246895,-1.511697,-0.598180,1.748294,-1.301391,-8.335479,-1.890637,0.459900,17.683979,-31.727210,-0.072800,0.185363,0.000000,-0.992315,0.113162,0.000000
3.520000,1.799308,-0.564756,-1.547964,1.640148,1.022909,-0.229512,-1.524619,-0.680607,1.727810,-1.278226,-8.146287,-2.204609,3.031106,19.871479,-30.781802,-0.082563,0.186448,0.000000,-0.959709,0.102680,-0.000000
3.530000,1.815633,-0.554562,-1.550173,1.624838,1.015698,-0.212349,-1.537302,-0.761064,1.704265,-1.264748,-7.943989,-2.500308,-0.372889,20.562535,-28.338062,-0.091987,0.187430,0.000000,-0.924909,0.093745,-0.000000
3.540000,1.831804,-0.544445,-1.552212,1.609402,1.007694,-0.195436,-1.549960,-0.839450,1.677871,-1.262645,-7.729992,-2.776669,1.943428,22.487873,-27.199104,-0.101056,0.188338,0.000000,-0.888302,0.086582,0.000000
3.550000,1.847821,-0.534411,-1.554083,1.593840,0.998917,-0.178801,-1.562452,-0.915595,1.648764,-1.235692,-7.496903,-3.041762,2.298922,23.841905,-25.536714,-0.109744,0.189159,0.000000,-0.849206,0.076761,0.000000
3.560000,1.863681,-0.524469,-1.555789,1.578154,0.989390,-0.162470,-1.574674,-0.989394,1.617107,-1.207515,-7.261891,-3.286704,2.782069,24.899071,-23.803864,-0.118041,0.189884,0.000000,-0.809923,0.067306,-0.000000
3.570000,1.879383,-0.514626,-1.557333,1.562347,0.979137,-0.146467,-1.586632,-1.060657,1.583059,-1.185166,-6.983141,-3.521016,2.223076,29.124543,-22.704149,-0.125922,0.190519,0.000000,-0.765559,0.058843,0.000000
3.580000,1.894927,-0.504889,-1.558719,1.546422,0.968186,-0.130816,-1.598336,-1.129106,1.546762,-1.151818,-6.715627,-3.733366,4.461466,24.305250,-19.750759,-0.133359,0.191068,0.000000,-0.722997,0.049679,-0.000000
3.590000,1.910311,-0.495264,-1.559951,1.530382,0.956564,-0.115538,-1.609625,-1.195032,1.508470,-1.106833,-6.462904,-3.923022,3.991682,27.942830,-18.530111,-0.140392,0.191519,0.000000,-0.682765,0.039794,0.000000
3.600000,1.925535,-0.485759,-1.561031,1.514231,0.944295,-0.100653,-1.620501,-1.258206,1.468335,-1.067429,-6.171782,-4.100947,4.426542,28.545454,-16.702975,-0.146998,0.191876,0.000000,-0.638603,0.030940,-0.000000
3.610000,1.940596,-0.476380,-1.561965,1.497973,0.931409,-0.086177,-1.630951,-1.318489,1.426509,-1.022014,-5.883826,-4.261465,4.794868,29.135197,-14.948342,-0.153169,0.192143,0.000000,-0.595586,0.021919,-0.000000
3.620000,1.955494,-0.467133,-1.562756,1.481613,0.917935,-0.072127,-1.640918,-1.375856,1.383200,-0.970292,-5.588446,-4.395773,5.409239,29.818812,-12.354863,-0.158910,0.192319,0.000000,-0.552745,0.012906,0.000000
3.630000,1.970228,-0.458024,-1.563409,1.465157,0.903902,-0.058517,-1.650352,-1.430249,1.338631,-0.916772,-5.289993,-4.517846,5.286999,29.851128,-12.076866,-0.164225,0.192405,0.000000,-0.510403,0.004109,0.000000
3.640000,1.984796,-0.449057,-1.563928,1.448608,0.889340,-0.045359,-1.659250,-1.481651,1.292878,-0.861849,-4.989650,-4.628496,5.832519,30.306335,-9.613678,-0.169120,0.192404,0.000000,-0.468719,-0.004443,-0.000000
3.650000,1.999199,-0.440238,-1.564318,1.431974,0.874279,-0.032663,-1.667568,-1.530026,1.246153,-0.801372,-4.685093,-4.713992,6.120964,30.483401,-7.933906,-0.173602,0.192315,0.000000,-0.427754,-0.012915,0.000000
3.660000,2.013436,-0.431573,-1.564583,1.415259,0.858750,-0.020438,-1.675276,-1.575360,1.198633,-0.739887,-4.381922,-4.787632,6.373652,30.527813,-6.315898,-0.177679,0.192142,0.000000,-0.387893,-0.021091,0.000000
3.670000,2.027504,-0.423065,-1.564728,1.398470,0.842782,-0.008692,-1.682341,-1.617632,1.150493,-0.672099,-4.071228,-4.835966,6.982551,31.214871,-3.830913,-0.181361,0.191886,0.000000,-0.348452,-0.029270,-0.000000
3.680000,2.041405,-0.414719,-1.564759,1.381614,0.826407,0.002570,-1.688720,-1.656805,1.101943,-0.604465,-3.765920,-4.874332,6.534034,29.820781,-3.865419,-0.184654,0.191549,0.000000,-0.310536,-0.037076,0.000000
3.690000,2.055136,-0.406538,-1.564679,1.364698,0.809656,0.013345,-1.694434,-1.692976,1.053032,-0.537503,-3.467376,-4.903891,7.053563,30.259512,-1.578616,-0.187577,0.191134,0.000000,-0.274236,-0.044488,0.000000
3.700000,2.068699,-0.398527,-1.564493,1.347728,0.792558,0.023630,-1.699448,-1.726131,1.003951,-0.465167,-3.164256,-4.910149,7.210589,29.968290,-0.158301,-0.190140,0.190643,0.000000,-0.238624,-0.051864,0.000000
3.710000,2.082091,-0.390688,-1.564208,1.330711,0.775143,0.033424,-1.703740,-1.756282,0.954853,-0.393048,-2.866542,-4.907545,7.341024,29.622640,1.174940,-0.192354,0.190078,0.000000,-0.204441,-0.058914,-0.000000
3.720000,2.095313,-0.383025,-1.563826,1.313656,0.757442,0.042728,-1.707295,-1.783470,0.905885,-0.317214,-2.571478,-4.882208,7.693833,29.321511,3.390367,-0.194234,0.189443,0.000000,-0.171656,-0.065783,-0.000000
3.730000,2.108364,-0.375540,-1.563355,1.296568,0.739484,0.051543,-1.710087,-1.807729,0.857227,-0.241939,-2.281535,-4.850274,7.353189,28.655260,2.969738,-0.195792,0.188739,0.000000,-0.140148,-0.072358,-0.000000
3.740000,2.121244,-0.368236,-1.562797,1.279456,0.721297,0.059873,-1.712138,-1.829120,0.808893,-0.167639,-1.997390,-4.813106,7.632056,28.223243,4.948045,-0.197041,0.187969,0.000000,-0.109913,-0.078635,-0.000000
3.750000,2.133953,-0.361115,-1.562159,1.262328,0.702911,0.067722,-1.713428,-1.847691,0.761041,-0.090469,-1.717739,-4.755762,7.669108,27.640373,6.014522,-0.197995,0.187135,0.000000,-0.081093,-0.084731,0.000000
3.760000,2.146491,-0.354178,-1.561444,1.245190,0.684352,0.075096,-1.713953,-1.863494,0.713790,-0.014453,-1.443845,-4.693050,7.675816,27.026188,6.987978,-0.198667,0.186241,0.000000,-0.053453,-0.090531,-0.000000
3.770000,2.158857,-0.347428,-1.560658,1.228051,0.665650,0.082001,-1.713706,-1.876597,0.667249,0.064314,-1.178321,-4.611899,7.933111,26.173855,8.771876,-0.199070,0.185289,0.000000,-0.027501,-0.096199,-0.000000
3.780000,2.171052,-0.340866,-1.559806,1.210919,0.646829,0.088444,-1.712674,-1.887078,0.621559,0.141179,-0.918353,-4.527477,7.432168,25.817152,8.086197,-0.199220,0.184280,0.000000,-0.002566,-0.101559,0.000000
3.790000,2.183075,-0.334492,-1.558891,1.193800,0.627917,0.094435,-1.710891,-1.894983,0.576703,0.215749,-0.664147,-4.441146,7.621227,24.916031,9.630620,-0.199124,0.183218,0.000000,0.021400,-0.106609,-0.000000
3.800000,2.194928,-0.328308,-1.557919,1.176704,0.608938,0.099981,-1.708349,-1.900394,0.532797,0.292334,-0.419252,-4.339029,7.550986,24.161242,10.319238,-0.198797,0.182105,0.000000,0.043782,-0.111538,-0.000000
3.810000,2.206609,-0.322313,-1.556893,1.159636,0.589917,0.105094,-1.705046,-1.903387,0.489929,0.368312,-0.180471,-4.233740,7.490067,23.397628,10.942366,-0.198252,0.180943,0.000000,0.065216,-0.116327,0.000000
3.820000,2.218121,-0.316509,-1.555818,1.142605,0.570878,0.109783,-1.700998,-1.904045,0.448160,0.440687,0.046853,-4.118429,7.129657,22.252032,11.899158,-0.197499,0.179734,0.000000,0.085078,-0.120555,-0.000000
3.830000,2.229462,-0.310896,-1.554699,1.125618,0.551844,0.114061,-1.696228,-1.902467,0.407568,0.513944,0.268461,-4.000378,7.523737,22.073185,11.693219,-0.196553,0.178483,0.000000,0.104118,-0.124823,0.000000
3.840000,2.240633,-0.305472,-1.553538,1.108683,0.532836,0.117939,-1.690715,-1.898693,0.368156,0.588134,0.484473,-3.880553,7.163271,20.937578,12.472077,-0.195419,0.177188,0.000000,0.122400,-0.129158,-0.000000
3.850000,2.251635,-0.300239,-1.552341,1.091806,0.513877,0.121428,-1.684481,-1.892820,0.329986,0.658427,0.688794,-3.752955,7.040510,20.114504,12.826984,-0.194110,0.175852,0.000000,0.139246,-0.132974,-0.000000
3.860000,2.262469,-0.295195,-1.551111,1.074996,0.494986,0.124543,-1.677550,-1.884935,0.293098,0.727589,0.886946,-3.624342,6.883523,19.297579,13.107681,-0.192636,0.174478,0.000000,0.155366,-0.136679,-0.000000
3.870000,2.273136,-0.290339,-1.549851,1.058258,0.476184,0.127295,-1.669927,-1.875126,0.257526,0.796916,1.072732,-3.488959,6.888566,18.070466,13.743215,-0.191008,0.173067,0.000000,0.170057,-0.140309,-0.000000
3.880000,2.283635,-0.285670,-1.548566,1.041599,0.457490,0.129698,-1.661621,-1.863498,0.223315,0.863406,1.252788,-3.354203,6.404604,17.947519,13.191559,-0.189237,0.171621,0.000000,0.184160,-0.143699,0.000000
3.890000,2.293968,-0.281189,-1.547259,1.025027,0.438920,0.131765,-1.652670,-1.850087,0.190435,0.926811,1.427415,-3.220948,6.366442,16.765160,13.668245,-0.187326,0.170142,0.000000,0.197739,-0.146846,0.000000
3.900000,2.304136,-0.276892,-1.545932,1.008548,0.420494,0.133511,-1.643085,-1.834994,0.158916,0.989918,1.589916,-3.082866,6.161381,15.948469,13.722391,-0.185287,0.168632,0.000000,0.210030,-0.149922,-0.000000
3.910000,2.314139,-0.272778,-1.544589,0.992168,0.402226,0.134948,-1.632884,-1.818306,0.128771,1.049713,1.746352,-2.946128,5.937362,15.145838,13.728244,-0.183127,0.167092,0.000000,0.221773,-0.152738,-0.000000
3.920000,2.323979,-0.268847,-1.543234,0.975892,0.384133,0.136091,-1.622086,-1.800109,0.100002,1.109943,1.891072,-2.807428,5.969907,13.988125,13.895813,-0.180855,0.165525,0.000000,0.232360,-0.155614,-0.000000
3.930000,2.333657,-0.265095,-1.541869,0.959728,0.366228,0.136953,-1.610700,-1.780502,0.072616,1.166200,2.030100,-2.670635,5.276145,13.824984,13.452373,-0.178481,0.163930,0.000000,0.242480,-0.158181,-0.000000
3.940000,2.343174,-0.261521,-1.540496,0.943680,0.348527,0.137548,-1.598778,-1.759523,0.046580,1.218232,2.163797,-2.536322,5.268431,12.726199,13.513130,-0.176007,0.162311,0.000000,0.252189,-0.160428,-0.000000
3.950000,2.352531,-0.258124,-1.539118,0.927754,0.331042,0.137889,-1.586332,-1.737267,0.021893,1.270384,2.286280,-2.401425,5.022436,11.961916,13.351122,-0.173441,0.160670,0.000000,0.260855,-0.162732,0.000000
3.960000,2.361730,-0.254900,-1.537739,0.911955,0.313786,0.137990,-1.573376,-1.713816,-0.001454,1.320587,2.402842,-2.268177,4.806632,11.214041,13.174998,-0.170791,0.159007,0.000000,0.269051,-0.164929,-0.000000
3.970000,2.370771,-0.251847,-1.536359,0.896288,0.296770,0.137864,-1.559945,-1.689246,-0.023487,1.364569,2.509331,-2.139114,4.194773,10.220756,12.747022,-0.168063,0.157325,0.000000,0.276432,-0.166641,0.000000
3.980000,2.379656,-0.248963,-1.534982,0.880758,0.280004,0.137525,-1.546082,-1.663647,-0.044238,1.408789,2.610133,-2.010927,4.655559,9.946311,12.889437,-0.165264,0.155626,0.000000,0.283357,-0.168449,-0.000000
3.990000,2.388387,-0.246246,-1.533610,0.865368,0.263500,0.136984,-1.531766,-1.637060,-0.063707,1.453533,2.705585,-1.883728,4.086284,9.010924,12.430709,-0.162397,0.153909,0.000000,0.289868,-0.170383,-0.000000
4.000000,2.396964,-0.243693,-1.532243,0.850124,0.247266,0.136255,-1.517035,-1.609569,-0.081931,1.492275,2.791558,-1.761409,3.868826,8.321879,12.144672,-0.159469,0.152175,0.000000,0.295642,-0.171863,0.000000
4.010000,2.405390,-0.241300,-1.530885,0.835029,0.231311,0.135349,-1.501922,-1.581247,-0.098942,1.529903,2.871853,-1.641272,3.641226,7.650565,11.835379,-0.156486,0.150427,0.000000,0.300996,-0.173327,-0.000000
4.020000,2.413665,-0.239065,-1.529537,0.820087,0.215644,0.134280,-1.486446,-1.552162,-0.114771,1.564959,2.943802,-1.525168,3.385707,6.828799,11.425393,-0.153452,0.148666,0.000000,0.305701,-0.174657,0.000000
4.030000,2.421792,-0.236986,-1.528200,0.805301,0.200270,0.133058,-1.470630,-1.522388,-0.129455,1.597946,3.010307,-1.411920,3.212604,6.477785,11.223000,-0.150373,0.146893,0.000000,0.310021,-0.175884,-0.000000
4.040000,2.429772,-0.235059,-1.526876,0.790675,0.185198,0.131694,-1.454494,-1.491972,-0.143019,1.628910,3.071660,-1.301617,2.965119,5.708009,10.792379,-0.147252,0.145109,0.000000,0.313983,-0.177013,0.000000
4.050000,2.437606,-0.233281,-1.525567,0.776212,0.170433,0.130201,-1.438060,-1.460982,-0.155502,1.657384,3.125269,-1.195743,2.746429,5.104038,10.423765,-0.144095,0.143315,0.000000,0.317356,-0.178017,0.000000
4.060000,2.445296,-0.231649,-1.524273,0.761915,0.155980,0.128588,-1.421353,-1.429483,-0.166942,1.683831,3.173606,-1.092825,2.531769,4.517253,10.055001,-0.140906,0.141512,0.000000,0.320354,-0.178918,0.000000
4.070000,2.452845,-0.230160,-1.522995,0.747786,0.141845,0.126865,-1.404392,-1.397534,-0.177380,1.707924,3.215222,-0.995620,2.298905,3.856295,9.485514,-0.137690,0.139701,0.000000,0.322871,-0.179721,-0.000000
4.080000,2.460253,-0.228811,-1.521736,0.733828,0.128031,0.125043,-1.387201,-1.365195,-0.186863,1.730064,3.251786,-0.901018,2.130124,3.460955,9.437353,-0.134450,0.137883,0.000000,0.325021,-0.180419,0.000000
4.090000,2.467522,-0.227599,-1.520495,0.720043,0.114542,0.123131,-1.369797,-1.332514,-0.195408,1.750311,3.283538,-0.808918,1.908452,2.844229,8.880825,-0.131191,0.136060,0.000000,0.326823,-0.181014,0.000000
4.100000,2.474654,-0.226519,-1.519273,0.706432,0.101381,0.121138,-1.352202,-1.299546,-0.203062,1.768347,3.309135,-0.722542,1.711253,2.325806,8.495679,-0.127915,0.134232,0.000000,0.328182,-0.181516,-0.000000
4.110000,2.481651,-0.225570,-1.518072,0.692999,0.088552,0.119073,-1.334435,-1.266346,-0.209867,1.784686,3.329957,-0.638956,1.522865,1.823440,8.114673,-0.124628,0.132400,0.000000,0.329190,-0.181933,-0.000000
4.120000,2.488515,-0.224747,-1.516892,0.679744,0.076055,0.116944,-1.316517,-1.232965,-0.215863,1.798513,3.345496,-0.561266,1.276510,1.304374,7.530701,-0.121333,0.130565,0.000000,0.329829,-0.182224,0.000000
4.130000,2.495247,-0.224048,-1.515733,0.666669,0.063893,0.114758,-1.298469,-1.199452,-0.221100,1.810926,3.356464,-0.486088,1.208155,0.892567,7.508859,-0.118033,0.128729,0.000000,0.330121,-0.182447,-0.000000
4.140000,2.501849,-0.223468,-1.514597,0.653775,0.052066,0.112524,-1.280303,-1.165850,-0.225591,1.822032,3.363052,-0.413236,0.980833,0.410149,6.954547,-0.114731,0.126891,0.000000,0.330078,-0.182610,-0.000000
4.150000,2.508323,-0.223005,-1.513483,0.641064,0.040576,0.110249,-1.262037,-1.132207,-0.229385,1.830836,3.364870,-0.346066,0.815331,-0.026360,6.588466,-0.111432,0.125053,0.000000,0.329693,-0.182654,0.000000
4.160000,2.514671,-0.222656,-1.512392,0.628535,0.029422,0.107939,-1.243690,-1.098566,-0.232520,1.838351,3.362488,-0.281456,0.657992,-0.447837,6.233593,-0.108139,0.123215,0.000000,0.328982,-0.182637,-0.000000
4.170000,2.520894,-0.222416,-1.511324,0.616190,0.018605,0.105600,-1.225278,-1.064971,-0.235034,1.843736,3.355961,-0.222300,0.449849,-0.854535,5.697110,-0.104854,0.121379,0.000000,0.327974,-0.182508,0.000000
4.180000,2.526995,-0.222282,-1.510280,0.604029,0.008122,0.103240,-1.206819,-1.031460,-0.236973,1.847994,3.345462,-0.165424,0.403791,-1.242530,5.682472,-0.101580,0.119545,0.000000,0.326646,-0.182324,-0.000000
4.190000,2.532975,-0.222252,-1.509260,0.592054,-0.002025,0.100863,-1.188321,-0.998074,-0.238349,1.851231,3.331150,-0.110606,0.214756,-1.617886,5.183742,-0.098322,0.117714,0.000000,0.325007,-0.182091,0.000000
4.200000,2.538837,-0.222322,-1.508263,0.580263,-0.011840,0.098475,-1.169801,-0.964850,-0.239204,1.852575,3.313161,-0.060877,0.084031,-1.976902,4.862648,-0.095081,0.115886,0.000000,0.323095,-0.181757,0.000000
4.210000,2.544581,-0.222488,-1.507290,0.568658,-0.021323,0.096080,-1.151273,-0.931823,-0.239573,1.852862,3.291631,-0.013399,-0.040667,-2.321373,4.554585,-0.091861,0.114062,0.000000,0.320889,-0.181367,-0.000000
4.220000,2.550210,-0.222747,-1.506341,0.557238,-0.030477,0.093685,-1.132749,-0.899028,-0.239488,1.851646,3.266831,0.029512,-0.186707,-2.641135,4.107193,-0.088664,0.112243,0.000000,0.318431,-0.180901,-0.000000
4.230000,2.555726,-0.223096,-1.505416,0.546003,-0.039304,0.091292,-1.114243,-0.866497,-0.238989,1.849455,3.238752,0.070417,-0.250042,-2.972396,4.078289,-0.085493,0.110430,0.000000,0.315693,-0.180380,-0.000000
4.240000,2.561131,-0.223532,-1.504515,0.534953,-0.047808,0.088906,-1.095763,-0.834263,-0.238085,1.846373,3.207534,0.109540,-0.379846,-3.263671,3.669518,-0.082351,0.108623,0.000000,0.312683,-0.179808,-0.000000
4.250000,2.566426,-0.224051,-1.503638,0.524087,-0.055991,0.086531,-1.077320,-0.802356,-0.236813,1.842007,3.173484,0.144515,-0.477989,-3.548987,3.405732,-0.079240,0.106822,0.000000,0.309446,-0.179169,-0.000000
4.260000,2.571613,-0.224651,-1.502785,0.513406,-0.063856,0.084171,-1.058924,-0.770803,-0.235200,1.837017,3.136646,0.177687,-0.565507,-3.819277,3.156977,-0.076163,0.105028,0.000000,0.305961,-0.178502,-0.000000
4.270000,2.576695,-0.225327,-1.501955,0.502909,-0.071408,0.081828,-1.040586,-0.739632,-0.233273,1.830290,3.097118,0.207015,-0.733662,-4.081010,2.782214,-0.073122,0.103242,0.000000,0.302251,-0.177716,-0.000000
4.280000,2.581672,-0.226078,-1.501148,0.492594,-0.078650,0.079507,-1.022319,-0.708869,-0.231064,1.823311,3.055135,0.234873,-0.659748,-4.313289,2.793515,-0.070119,0.101464,0.000000,0.298316,-0.176929,-0.000000
4.290000,2.586547,-0.226899,-1.500365,0.482462,-0.085587,0.077208,-1.004120,-0.678537,-0.228580,1.816202,3.010839,0.261477,-0.806740,-4.546449,2.456949,-0.067156,0.099695,0.000000,0.294167,-0.176152,0.000000
4.300000,2.591322,-0.227789,-1.499604,0.472511,-0.092222,0.074936,-0.986001,-0.648660,-0.225847,1.807581,2.964276,0.284669,-0.871024,-4.760900,2.254858,-0.064236,0.097934,0.000000,0.289820,-0.175268,-0.000000
4.310000,2.595998,-0.228743,-1.498866,0.462742,-0.098561,0.072692,-0.967970,-0.619258,-0.222890,1.798541,2.915624,0.306446,-0.933312,-4.962499,2.063726,-0.061360,0.096182,0.000000,0.285275,-0.174363,0.000000
4.320000,2.600577,-0.229759,-1.498150,0.453152,-0.104609,0.070479,-0.950032,-0.590353,-0.219728,1.788957,2.865115,0.325624,-0.985535,-5.141649,1.811248,-0.058531,0.094440,0.000000,0.280559,-0.173434,0.000000
4.330000,2.605062,-0.230834,-1.497456,0.443741,-0.110370,0.068298,-0.932193,-0.561962,-0.216382,1.778790,2.812736,0.343498,-1.047058,-5.332118,1.766676,-0.055750,0.092707,0.000000,0.275662,-0.172464,0.000000
4.340000,2.609453,-0.231965,-1.496784,0.434508,-0.115850,0.066152,-0.914458,-0.534104,-0.212861,1.768085,2.758611,0.360231,-1.090637,-5.485891,1.543642,-0.053018,0.090985,0.000000,0.270593,-0.171456,0.000000
4.350000,2.613753,-0.233150,-1.496133,0.425451,-0.121054,0.064041,-0.896832,-0.506795,-0.209185,1.756964,2.703022,0.374726,-1.135064,-5.634708,1.395214,-0.050338,0.089274,0.000000,0.265383,-0.170429,0.000000
4.360000,2.617963,-0.234386,-1.495503,0.416571,-0.125988,0.061968,-0.879320,-0.480049,-0.205370,1.745345,2.645983,0.388071,-1.176509,-5.770465,1.256553,-0.047711,0.087573,0.000000,0.260026,-0.169365,-0.000000
4.370000,2.622085,-0.235669,-1.494893,0.407864,-0.130657,0.059934,-0.861926,-0.453880,-0.201430,1.733552,2.587659,0.399717,-1.192625,-5.892722,1.092418,-0.045138,0.085882,0.000000,0.254540,-0.168300,-0.000000
4.380000,2.626120,-0.236998,-1.494304,0.399332,-0.135067,0.057940,-0.844651,-0.428300,-0.197379,1.721267,2.528161,0.410332,-1.264136,-6.004649,1.032725,-0.042621,0.084203,0.000000,0.248931,-0.167195,-0.000000
4.390000,2.630072,-0.238370,-1.493735,0.390971,-0.139225,0.055987,-0.827502,-0.403320,-0.193226,1.708508,2.467616,0.420032,-1.275917,-6.102040,0.890178,-0.040160,0.082536,0.000000,0.243210,-0.166051,0.000000
4.400000,2.633940,-0.239782,-1.493184,0.382781,-0.143136,0.054076,-0.810481,-0.378950,-0.188984,1.695664,2.406158,0.428328,-1.303817,-6.187922,0.787943,-0.037757,0.080880,0.000000,0.237391,-0.164910,0.000000
4.410000,2.637728,-0.241232,-1.492653,0.374761,-0.146806,0.052208,-0.793589,-0.355199,-0.184662,1.682667,2.343990,0.435818,-1.324917,-6.259858,0.694099,-0.035413,0.079235,0.000000,0.231492,-0.163758,-0.000000
4.420000,2.641436,-0.242717,-1.492140,0.366909,-0.150242,0.050383,-0.776831,-0.332074,-0.180272,1.668900,2.280850,0.442077,-1.399179,-6.350373,0.575616,-0.033128,0.077603,0.000000,0.225487,-0.162539,-0.000000
4.430000,2.645067,-0.244236,-1.491645,0.359224,-0.153450,0.048602,-0.760210,-0.309583,-0.175823,1.655297,2.217354,0.447705,-1.320136,-6.346465,0.551694,-0.030903,0.075982,0.000000,0.219434,-0.161339,0.000000
4.440000,2.648621,-0.245785,-1.491168,0.351704,-0.156436,0.046867,-0.743724,-0.287728,-0.171319,1.641919,2.153639,0.452795,-1.384468,-6.410568,0.450389,-0.028739,0.074374,0.000000,0.213347,-0.160163,0.000000
4.450000,2.652101,-0.247364,-1.490708,0.344349,-0.159206,0.045176,-0.727375,-0.266513,-0.166770,1.627862,2.089315,0.456876,-1.397774,-6.436402,0.383807,-0.026636,0.072778,0.000000,0.207188,-0.158925,-0.000000
4.460000,2.655509,-0.248969,-1.490264,0.337156,-0.161768,0.043531,-0.711167,-0.245941,-0.162184,1.613727,2.024915,0.460358,-1.413618,-6.451228,0.320969,-0.024595,0.071195,0.000000,0.201008,-0.157681,-0.000000
4.470000,2.658845,-0.250598,-1.489837,0.330125,-0.164127,0.041933,-0.695099,-0.226015,-0.157565,1.599734,1.960240,0.463383,-1.399823,-6.472821,0.277554,-0.022616,0.069623,0.000000,0.194787,-0.156451,-0.000000
4.480000,2.662112,-0.252251,-1.489425,0.323254,-0.166291,0.040380,-0.679173,-0.206736,-0.152918,1.585418,1.895683,0.465769,-1.463917,-6.436559,0.200222,-0.020700,0.068065,0.000000,0.188566,-0.155190,-0.000000
4.490000,2.665311,-0.253923,-1.489029,0.316541,-0.168264,0.038874,-0.663392,-0.188101,-0.148251,1.570759,1.831359,0.467551,-1.452651,-6.435703,0.164327,-0.018845,0.066519,0.000000,0.182354,-0.153896,0.000000
4.500000,2.668443,-0.255615,-1.488648,0.309986,-0.170055,0.037415,-0.647757,-0.170109,-0.143568,1.556241,1.767080,0.469005,-1.466696,-6.409412,0.119585,-0.017053,0.064986,0.000000,0.176133,-0.152615,-0.000000
4.510000,2.671511,-0.257324,-1.488281,0.303586,-0.171669,0.036003,-0.632268,-0.152758,-0.138873,1.541516,1.703210,0.469967,-1.480115,-6.373046,0.078230,-0.015322,0.063466,0.000000,0.169940,-0.151313,-0.000000
4.520000,2.674515,-0.259048,-1.487927,0.297340,-0.173112,0.034638,-0.616928,-0.136044,-0.134170,1.526620,1.639559,0.470623,-1.497514,-6.345960,0.048772,-0.013654,0.061960,0.000000,0.163756,-0.149992,0.000000
4.530000,2.677458,-0.260786,-1.487588,0.291246,-0.174392,0.033320,-0.601736,-0.119964,-0.129462,1.511599,1.576523,0.470854,-1.506706,-6.259586,-0.002286,-0.012047,0.060466,0.000000,0.157621,-0.148657,0.000000
4.540000,2.680341,-0.262535,-1.487261,0.285304,-0.175513,0.032049,-0.586696,-0.104511,-0.124754,1.496446,1.514201,0.470678,-1.526014,-6.212958,-0.027933,-0.010501,0.058986,0.000000,0.151544,-0.147308,0.000000
4.550000,2.683165,-0.264295,-1.486947,0.279512,-0.176484,0.030824,-0.571808,-0.089679,-0.120049,1.481096,1.452374,0.470261,-1.543231,-6.141575,-0.059842,-0.009016,0.057520,0.000000,0.145504,-0.145936,-0.000000
4.560000,2.685931,-0.266065,-1.486644,0.273868,-0.177309,0.029648,-0.557074,-0.075461,-0.115350,1.465592,1.391386,0.469429,-1.562158,-6.062049,-0.091691,-0.007591,0.056068,0.000000,0.139536,-0.144547,0.000000
4.570000,2.688643,-0.267841,-1.486353,0.268370,-0.177995,0.028517,-0.542497,-0.061849,-0.110660,1.449807,1.331089,0.468565,-1.591009,-5.988906,-0.095294,-0.006225,0.054629,0.000000,0.133625,-0.143127,-0.000000
4.580000,2.691299,-0.269624,-1.486074,0.263017,-0.178548,0.027434,-0.528079,-0.048836,-0.105981,1.433849,1.271784,0.467228,-1.600857,-5.870658,-0.172295,-0.004918,0.053205,0.000000,0.127803,-0.141687,0.000000
4.590000,2.693903,-0.271412,-1.485805,0.257808,-0.178974,0.026398,-0.513821,-0.036410,-0.101317,1.417698,1.213552,0.465406,-1.634032,-5.781964,-0.177815,-0.003669,0.051795,0.000000,0.122076,-0.140226,-0.000000
4.600000,2.696456,-0.273203,-1.485546,0.252740,-0.179278,0.025408,-0.499726,-0.024562,-0.096672,1.401197,1.156229,0.463548,-1.662858,-5.674412,-0.207842,-0.002476,0.050401,0.000000,0.116430,-0.138726,0.000000
4.610000,2.698959,-0.274997,-1.485296,0.247813,-0.179467,0.024464,-0.485799,-0.013281,-0.092049,1.384216,1.100083,0.461144,-1.699215,-5.560475,-0.240775,-0.001340,0.049021,0.000000,0.110891,-0.137176,-0.000000
4.620000,2.701413,-0.276792,-1.485056,0.243024,-0.179546,0.023567,-0.472040,-0.002557,-0.087448,1.367521,1.044975,0.459028,-1.674044,-5.453619,-0.213828,-0.000258,0.047657,0.000000,0.105447,-0.135649,-0.000000
4.630000,2.703820,-0.278587,-1.484825,0.238371,-0.179520,0.022715,-0.458451,0.007623,-0.082871,1.350015,0.991168,0.456206,-1.828757,-5.306806,-0.351710,0.000770,0.046308,0.000000,0.100123,-0.134039,0.000000
4.640000,2.706181,-0.280382,-1.484602,0.233854,-0.179395,0.021909,-0.445043,0.017271,-0.078327,1.331616,0.938721,0.452626,-1.817685,-5.188416,-0.332876,0.001745,0.044977,0.000000,0.094926,-0.132337,-0.000000
4.650000,2.708497,-0.282175,-1.484386,0.229470,-0.179176,0.021149,-0.431818,0.026401,-0.073817,1.313357,0.887471,0.449274,-1.868410,-5.054187,-0.368996,0.002669,0.043662,0.000000,0.089841,-0.130644,-0.000000
4.660000,2.710770,-0.283965,-1.484179,0.225217,-0.178869,0.020433,-0.418779,0.035025,-0.069343,1.294312,0.837657,0.445424,-1.922760,-4.915512,-0.403949,0.003542,0.042364,0.000000,0.084891,-0.128868,-0.000000
4.670000,2.713002,-0.285752,-1.483978,0.221094,-0.178477,0.019762,-0.405932,0.043158,-0.064910,1.275058,0.789105,0.441165,-1.946564,-4.787135,-0.445356,0.004367,0.041084,0.000000,0.080059,-0.127069,0.000000
4.680000,2.715193,-0.287535,-1.483783,0.217098,-0.178007,0.019134,-0.393281,0.050813,-0.060521,1.254992,0.742077,0.436566,-2.067885,-4.617782,-0.474669,0.005144,0.039823,0.000000,0.075373,-0.125183,-0.000000
4.690000,2.717344,-0.289312,-1.483595,0.213227,-0.177463,0.018551,-0.380835,0.058005,-0.056180,1.234050,0.696612,0.431613,-2.103219,-4.481976,-0.518887,0.005875,0.038581,0.000000,0.070836,-0.123204,-0.000000
4.700000,2.719458,-0.291084,-1.483412,0.209480,-0.176848,0.018011,-0.368601,0.064749,-0.051890,1.212756,0.652506,0.426203,-2.173621,-4.331548,-0.560665,0.006561,0.037359,0.000000,0.066429,-0.121187,0.000000
4.710000,2.721534,-0.292849,-1.483234,0.205855,-0.176169,0.017513,-0.356583,0.071060,-0.047657,1.190656,0.609944,0.420275,-2.246701,-4.179825,-0.606756,0.007204,0.036157,0.000000,0.062170,-0.119084,-0.000000
4.720000,2.723575,-0.294607,-1.483062,0.202348,-0.175429,0.017057,-0.344790,0.076953,-0.043485,1.167811,0.568923,0.414231,-2.323317,-4.025008,-0.620447,0.007805,0.034977,0.000000,0.058059,-0.116900,0.000000
4.730000,2.725582,-0.296357,-1.482893,0.198958,-0.174631,0.016643,-0.333229,0.082444,-0.039375,1.144170,0.529428,0.407481,-2.405445,-3.873858,-0.730608,0.008365,0.033820,0.000000,0.054096,-0.114632,0.000000
4.740000,2.727555,-0.298099,-1.482729,0.195683,-0.173781,0.016270,-0.321909,0.087547,-0.035338,1.119693,0.491465,0.399974,-2.490410,-3.717794,-0.752954,0.008887,0.032685,0.000000,0.050282,-0.112275,-0.000000
4.750000,2.729496,-0.299833,-1.482568,0.192519,-0.172882,0.015936,-0.310838,0.092278,-0.031376,1.094347,0.455066,0.392264,-2.579817,-3.563059,-0.808200,0.009372,0.031574,0.000000,0.046619,-0.109825,0.000000
4.760000,2.731405,-0.301557,-1.482410,0.189465,-0.171937,0.015642,-0.300026,0.096654,-0.027495,1.068049,0.420227,0.383761,-2.674141,-3.408307,-0.867861,0.009820,0.030489,0.000000,0.043108,-0.107275,-0.000000
4.770000,2.733285,-0.303271,-1.482255,0.186518,-0.170950,0.015386,-0.289480,0.100688,-0.023701,1.040909,0.386865,0.375129,-2.760799,-3.260923,-0.883226,0.010234,0.029429,0.000000,0.039741,-0.104632,0.000000
4.780000,2.735136,-0.304976,-1.482102,0.183675,-0.169924,0.015168,-0.279211,0.104396,-0.019996,1.012691,0.355076,0.365577,-2.883683,-3.097032,-1.028315,0.010615,0.028396,0.000000,0.036529,-0.101876,-0.000000
4.790000,2.736959,-0.306670,-1.481951,0.180933,-0.168863,0.014986,-0.269230,0.107795,-0.016393,0.983345,0.324850,0.355046,-2.979883,-2.951933,-1.053805,0.010965,0.027392,0.000000,0.033468,-0.099002,0.000000
4.800000,2.738755,-0.308353,-1.481802,0.178289,-0.167769,0.014839,-0.259547,0.110898,-0.012895,0.953027,0.296059,0.344284,-3.090752,-2.803172,-1.123539,0.011285,0.026417,0.000000,0.030550,-0.096022,-0.000000
4.810000,2.740525,-0.310025,-1.481654,0.175741,-0.166646,0.014727,-0.250174,0.113721,-0.009510,0.921323,0.268788,0.332708,-3.209860,-2.656856,-1.193274,0.011577,0.025472,0.000000,0.027780,-0.092896,-0.000000
4.820000,2.742270,-0.311686,-1.481507,0.173284,-0.165496,0.014649,-0.241122,0.116278,-0.006244,0.889189,0.242860,0.320416,-3.256958,-2.523904,-1.265563,0.011841,0.024559,0.000000,0.025142,-0.089721,0.000000
4.830000,2.743991,-0.313335,-1.481361,0.170917,-0.164321,0.014602,-0.232397,0.118583,-0.003104,0.855344,0.218410,0.307386,-3.513762,-2.366561,-1.340727,0.012080,0.023678,0.000000,0.022651,-0.086367,0.000000
4.840000,2.745689,-0.314972,-1.481215,0.168635,-0.163125,0.014586,-0.224021,0.120651,-0.000098,0.819698,0.195407,0.293596,-3.576246,-2.240268,-1.417548,0.012295,0.022832,0.000000,0.020302,-0.082824,-0.000000
4.850000,2.747364,-0.316597,-1.481069,0.166435,-0.161909,0.014600,-0.216004,0.122495,0.002765,0.783471,0.173636,0.279028,-3.709335,-2.109345,-1.496634,0.012487,0.022021,0.000000,0.018075,-0.079216,0.000000
4.860000,2.749018,-0.318210,-1.480923,0.164314,-0.160675,0.014641,-0.208357,0.124128,0.005479,0.745712,0.153174,0.263657,-3.842951,-1.983902,-1.577872,0.012657,0.021248,0.000000,0.015977,-0.075446,-0.000000
4.870000,2.750651,-0.319811,-1.480776,0.162267,-0.159427,0.014709,-0.201094,0.125563,0.008036,0.706603,0.133939,0.247464,-3.979340,-1.864048,-1.661171,0.012807,0.020513,0.000000,0.014002,-0.071534,-0.000000
4.880000,2.752263,-0.321399,-1.480629,0.160291,-0.158165,0.014801,-0.194229,0.126811,0.010426,0.666117,0.115873,0.230427,-4.118261,-1.750271,-1.746492,0.012937,0.019818,0.000000,0.012141,-0.067476,-0.000000
4.890000,2.753857,-0.322974,-1.480480,0.158381,-0.156891,0.014917,-0.187777,0.127884,0.012641,0.624230,0.098912,0.212527,-4.259473,-1.643062,-1.833830,0.013050,0.019164,0.000000,0.010391,-0.063270,0.000000
4.900000,2.755431,-0.324536,-1.480331,0.156534,-0.155608,0.015053,-0.181750,0.128793,0.014674,0.580918,0.082989,0.193745,-4.403011,-1.542884,-1.922985,0.013145,0.018553,0.000000,0.008744,-0.058913,0.000000
4.910000,2.756988,-0.326086,-1.480179,0.154745,-0.154316,0.015209,-0.176163,0.129547,0.016513,0.536163,0.068029,0.174061,-4.548309,-1.450259,-2.014067,0.013225,0.017986,0.000000,0.007192,-0.054405,0.000000
4.920000,2.758526,-0.327623,-1.480026,0.153009,-0.153017,0.015383,-0.171031,0.130156,0.018152,0.489946,0.053957,0.153458,-4.695270,-1.365663,-2.106982,0.013289,0.017465,0.000000,0.005728,-0.049743,-0.000000
4.930000,2.760048,-0.329146,-1.479872,0.151322,-0.151713,0.015572,-0.166369,0.130629,0.019579,0.442253,0.040688,0.131916,-4.843648,-1.289591,-2.201706,0.013340,0.016991,0.000000,0.004344,-0.044926,0.000000
4.940000,2.761553,-0.330657,-1.479715,0.149680,-0.150405,0.015774,-0.162191,0.130972,0.020787,0.393069,0.028135,0.109418,-4.993157,-1.222546,-2.298238,0.013377,0.016567,0.000000,0.003032,-0.039954,0.000000
4.950000,2.763042,-0.332154,-1.479556,0.148077,-0.149094,0.015987,-0.158513,0.131194,0.021764,0.342383,0.016206,0.085949,-5.143929,-1.164915,-2.396181,0.013401,0.016193,0.000000,0.001780,-0.034825,-0.000000
4.960000,2.764515,-0.333639,-1.479395,0.146508,-0.147782,0.016208,-0.155349,0.131298,0.022503,0.290187,0.004804,0.061490,-5.295325,-1.117309,-2.495919,0.013412,0.015871,0.000000,0.000581,-0.029539,-0.000000
4.970000,2.765972,-0.335110,-1.479232,0.144968,-0.146469,0.016436,-0.152714,0.131291,0.022991,0.236475,-0.006175,0.036025,-5.447253,-1.080175,-2.597245,0.013412,0.015602,0.000000,-0.000576,-0.024097,0.000000
4.980000,2.767414,-0.336568,-1.479066,0.143452,-0.145156,0.016667,-0.150624,0.131176,0.023220,0.181241,-0.016836,0.009540,-5.599437,-1.054005,-2.700108,0.013401,0.015389,0.000000,-0.001703,-0.018498,-0.000000
4.990000,2.768841,-0.338013,-1.478898,0.141954,-0.143845,0.016899,-0.149094,0.130955,0.023178,0.124486,-0.027293,-0.017982,-5.751547,-1.039296,-2.804455,0.013378,0.015233,0.000000,-0.002810,-0.012744,0.000000
5.000000,2.770253,-0.339445,-1.478728,0.140468,-0.142537,0.017130,-0.148139,0.130630,0.022856,0.066212,-0.037662,-0.046554,-5.903179,-1.036548,-2.910229,0.013345,0.015135,0.000000,-0.003909,-0.006835,-0.000000
