time,x,y,z,vx,vy,vz,ax,ay,az,jx,jy,jz,sx,sy,sz,roll,pitch,yaw,p,q,r
0.000000,-3.275997,0.280284,-1.492410,-0.014656,-0.005331,0.006279,0.415270,-0.133946,-0.001875,18.018046,-5.534500,-0.138596,-249.930731,106.682362,-4.860449,-0.013638,-0.042298,0.000000,-0.562202,-1.832300,-0.000000
0.010000,-3.276143,0.280231,-1.492348,-0.010504,-0.006670,0.006260,0.595450,-0.189291,-0.003261,15.518738,-4.467677,-0.187201,-802.120389,289.394847,-4.208538,-0.019252,-0.060604,0.000000,-0.452059,-1.574159,-0.000000
0.020000,-3.276207,0.280151,-1.492285,-0.002747,-0.009117,0.006214,0.725645,-0.223300,-0.005619,1.975638,0.253396,-0.222767,-1185.553429,401.938904,-1.905117,-0.022684,-0.073793,0.000000,0.026580,-0.198461,0.000000
0.030000,-3.276198,0.280049,-1.492223,0.004009,-0.011136,0.006148,0.634963,-0.184223,-0.007716,-8.192330,3.571101,-0.225303,-425.923606,134.428397,-1.703825,-0.018723,-0.064585,0.000000,0.362277,0.832300,0.000000
0.040000,-3.276127,0.279928,-1.492162,0.009952,-0.012801,0.006060,0.561798,-0.151878,-0.010125,-6.542834,2.941964,-0.256844,155.158743,-58.737722,-3.180247,-0.015439,-0.057147,0.000000,0.298841,0.665507,0.000000
0.050000,-3.275999,0.279792,-1.492102,0.015245,-0.014174,0.005945,0.504106,-0.125384,-0.012853,-5.089155,2.396347,-0.288908,136.406569,-50.812478,-3.207712,-0.012747,-0.051275,0.000000,0.243632,0.518196,0.000000
0.060000,-3.275822,0.279645,-1.492043,0.020034,-0.015309,0.005803,0.460015,-0.103951,-0.015903,-3.814703,1.925715,-0.320998,119.274329,-43.716525,-3.187343,-0.010567,-0.046782,0.000000,0.195900,0.388885,0.000000
0.070000,-3.275599,0.279486,-1.491986,0.024445,-0.016253,0.005627,0.427812,-0.086870,-0.019273,-2.703669,1.522016,-0.352655,103.683794,-37.401750,-3.123237,-0.008829,-0.043497,0.000000,0.154897,0.276091,0.000000
0.080000,-3.275333,0.279319,-1.491931,0.028590,-0.017046,0.005417,0.405941,-0.073510,-0.022956,-1.741027,1.177680,-0.383462,89.556767,-31.820040,-3.019488,-0.007469,-0.041260,0.000000,0.119896,0.178361,-0.000000
0.090000,-3.275027,0.279145,-1.491878,0.032564,-0.017723,0.005168,0.392992,-0.063316,-0.026942,-0.912534,0.885615,-0.413045,76.815029,-26.923281,-2.880195,-0.006431,-0.039929,0.000000,0.090200,0.094291,0.000000
0.100000,-3.274682,0.278965,-1.491827,0.036450,-0.018312,0.004878,0.387691,-0.055798,-0.031217,-0.204726,0.639214,-0.441066,65.380355,-22.663359,-2.709464,-0.005665,-0.039374,0.000000,0.065149,0.022533,-0.000000
0.110000,-3.274298,0.278779,-1.491780,0.040318,-0.018839,0.004544,0.388897,-0.050532,-0.035763,0.395074,0.432348,-0.467234,55.174527,-18.992162,-2.511391,-0.005128,-0.039478,0.000000,0.044128,-0.038192,-0.000000
0.120000,-3.273875,0.278588,-1.491736,0.044228,-0.019323,0.004163,0.395592,-0.047151,-0.040562,0.898764,0.259371,-0.491294,46.119326,-15.861577,-2.290041,-0.004783,-0.040138,0.000000,0.026564,-0.089092,-0.000000
0.130000,-3.273413,0.278393,-1.491697,0.048230,-0.019782,0.003733,0.406872,-0.045344,-0.045589,1.317460,0.115117,-0.513035,38.136535,-13.223489,-2.049521,-0.004597,-0.041260,0.000000,0.011934,-0.131302,-0.000000
0.140000,-3.272911,0.278193,-1.491662,0.052365,-0.020230,0.003251,0.421941,-0.044849,-0.050822,1.661495,-0.005099,-0.532285,31.147931,-11.029785,-1.794035,-0.004544,-0.042764,0.000000,-0.000239,-0.165879,-0.000000
0.150000,-3.272366,0.277988,-1.491632,0.056669,-0.020679,0.002716,0.440102,-0.045446,-0.056235,1.940419,-0.105479,-0.548915,25.075299,-9.232352,-1.527594,-0.004602,-0.044577,0.000000,-0.010384,-0.193803,-0.000000
0.160000,-3.271777,0.277779,-1.491607,0.061168,-0.021139,0.002126,0.460750,-0.046958,-0.061801,2.163001,-0.189746,-0.562837,19.840422,-7.783078,-1.254172,-0.004752,-0.046639,0.000000,-0.018881,-0.215975,0.000000
0.170000,-3.271142,0.277565,-1.491589,0.065884,-0.021618,0.001480,0.483362,-0.049241,-0.067492,2.337227,-0.261141,-0.573999,15.360011,-6.628179,-0.978694,-0.004979,-0.048897,0.000000,-0.026060,-0.233216,-0.000000
0.180000,-3.270460,0.277347,-1.491578,0.070835,-0.022124,0.000777,0.507494,-0.052181,-0.073281,2.470201,-0.322309,-0.582410,11.467368,-5.620485,-0.716989,-0.005273,-0.051304,0.000000,-0.032190,-0.246259,0.000000
0.190000,-3.269726,0.277123,-1.491574,0.076034,-0.022662,0.000015,0.532766,-0.055687,-0.079140,2.566575,-0.373550,-0.588339,8.114870,-4.746137,-0.469003,-0.005623,-0.053822,0.000000,-0.037306,-0.255584,0.000000
0.200000,-3.268939,0.276893,-1.491578,0.081490,-0.023237,-0.000806,0.558826,-0.059652,-0.085047,2.632498,-0.417232,-0.591790,5.877237,-4.687957,-0.152574,-0.006019,-0.056415,0.000000,-0.041648,-0.261825,-0.000000
0.210000,-3.268096,0.276658,-1.491590,0.087210,-0.023855,-0.001686,0.585416,-0.064032,-0.090976,2.684119,-0.467309,-0.591390,4.606306,-5.319515,0.218935,-0.006456,-0.059058,0.000000,-0.046627,-0.266627,-0.000000
0.220000,-3.267195,0.276416,-1.491611,0.093198,-0.024518,-0.002626,0.612508,-0.068998,-0.096875,2.724624,-0.523622,-0.587412,2.348162,-4.495990,0.394055,-0.006951,-0.061748,0.000000,-0.052223,-0.270318,-0.000000
0.230000,-3.266232,0.276168,-1.491642,0.099460,-0.025235,-0.003624,0.639909,-0.074504,-0.102724,2.731083,-0.557229,-0.583509,-1.069765,-2.116198,0.364425,-0.007500,-0.064465,0.000000,-0.055521,-0.270578,-0.000000
0.240000,-3.265205,0.275912,-1.491684,0.105997,-0.026008,-0.004680,0.667130,-0.080143,-0.108545,2.703229,-0.565946,-0.580123,-3.105540,-1.046929,0.469335,-0.008062,-0.067160,0.000000,-0.056311,-0.267390,-0.000000
0.250000,-3.264112,0.275648,-1.491736,0.112803,-0.026838,-0.005795,0.693973,-0.085823,-0.114326,2.668972,-0.578168,-0.574122,-3.118483,-1.657199,0.739094,-0.008626,-0.069813,0.000000,-0.057453,-0.263588,-0.000000
0.260000,-3.262949,0.275375,-1.491800,0.119876,-0.027725,-0.006967,0.720509,-0.091706,-0.120028,2.640860,-0.599090,-0.565341,-2.960284,-1.955154,0.941745,-0.009211,-0.072432,0.000000,-0.059469,-0.260434,0.000000
0.270000,-3.261715,0.275093,-1.491875,0.127213,-0.028672,-0.008195,0.746791,-0.097805,-0.125633,2.609766,-0.617271,-0.555287,-4.122771,-1.423240,1.060355,-0.009816,-0.075022,0.000000,-0.061208,-0.257002,-0.000000
0.280000,-3.260405,0.274801,-1.491964,0.134812,-0.029681,-0.009479,0.772705,-0.104052,-0.131134,2.558404,-0.627555,-0.544134,-6.099145,-0.715128,1.175139,-0.010435,-0.077572,0.000000,-0.062155,-0.251567,0.000000
0.290000,-3.259018,0.274499,-1.492065,0.142667,-0.030753,-0.010818,0.797959,-0.110356,-0.136516,2.487783,-0.631573,-0.531785,-7.088502,-0.333887,1.287803,-0.011059,-0.080053,0.000000,-0.062478,-0.244240,-0.000000
0.300000,-3.257552,0.274186,-1.492180,0.150771,-0.031888,-0.012210,0.822460,-0.116683,-0.141769,2.416634,-0.634233,-0.518378,-6.803346,-0.281227,1.388749,-0.011684,-0.082457,0.000000,-0.062668,-0.236895,0.000000
0.310000,-3.256003,0.273862,-1.492309,0.159116,-0.033086,-0.013653,0.846291,-0.123041,-0.146884,2.351716,-0.637198,-0.504010,-6.511465,-0.223098,1.479827,-0.012312,-0.084792,0.000000,-0.062892,-0.230207,0.000000
0.320000,-3.254369,0.273525,-1.492453,0.167697,-0.034349,-0.015147,0.869495,-0.129427,-0.151849,2.286405,-0.638695,-0.488782,-7.002281,0.038461,1.557078,-0.012942,-0.087062,0.000000,-0.062973,-0.223512,0.000000
0.330000,-3.252649,0.273175,-1.492612,0.176506,-0.035675,-0.016690,0.892019,-0.135815,-0.156659,2.211671,-0.636429,-0.472868,-7.906889,0.406612,1.619525,-0.013572,-0.089263,0.000000,-0.062684,-0.215911,-0.000000
0.340000,-3.250839,0.272811,-1.492787,0.185537,-0.037065,-0.018281,0.913728,-0.142156,-0.161307,2.128267,-0.630563,-0.456391,-8.297141,0.649452,1.673461,-0.014196,-0.091381,0.000000,-0.062042,-0.207482,0.000000
0.350000,-3.248938,0.272433,-1.492978,0.194781,-0.038518,-0.019916,0.934585,-0.148426,-0.165787,2.045728,-0.623440,-0.439399,-8.041928,0.734579,1.721427,-0.014813,-0.093413,0.000000,-0.061280,-0.199173,0.000000
0.360000,-3.246944,0.272041,-1.493185,0.204229,-0.040033,-0.021596,0.954643,-0.154624,-0.170095,1.967428,-0.615871,-0.421963,-7.789886,0.823699,1.759347,-0.015422,-0.095365,0.000000,-0.060481,-0.191317,-0.000000
0.370000,-3.244854,0.271633,-1.493410,0.213874,-0.041611,-0.023318,0.973933,-0.160743,-0.174226,1.889930,-0.606966,-0.404212,-7.940169,1.016966,1.782555,-0.016022,-0.097240,0.000000,-0.059554,-0.183572,0.000000
0.380000,-3.242666,0.271209,-1.493651,0.223708,-0.043248,-0.025081,0.992441,-0.166764,-0.178179,1.808625,-0.595532,-0.386312,-8.303495,1.267151,1.792557,-0.016613,-0.099037,0.000000,-0.058383,-0.175477,-0.000000
0.390000,-3.240379,0.270768,-1.493911,0.233723,-0.044946,-0.026882,1.010106,-0.172654,-0.181952,1.723860,-0.581623,-0.368361,-8.410742,1.456122,1.796043,-0.017190,-0.100750,0.000000,-0.056973,-0.167066,0.000000
0.400000,-3.237992,0.270310,-1.494189,0.243910,-0.046701,-0.028720,1.026918,-0.178396,-0.185546,1.640410,-0.566409,-0.350391,-8.196145,1.566787,1.794679,-0.017752,-0.102378,0.000000,-0.055440,-0.158811,0.000000
0.410000,-3.235501,0.269834,-1.494486,0.254261,-0.048514,-0.030593,1.042914,-0.183982,-0.188960,1.559937,-0.550287,-0.332467,-7.986985,1.681375,1.784434,-0.018299,-0.103926,0.000000,-0.053823,-0.150875,-0.000000
0.420000,-3.232907,0.269339,-1.494801,0.264768,-0.050381,-0.032499,1.058117,-0.189402,-0.192196,1.480670,-0.532782,-0.314702,-7.983832,1.851187,1.762478,-0.018829,-0.105396,0.000000,-0.052075,-0.143079,0.000000
0.430000,-3.230206,0.268826,-1.495136,0.275423,-0.052302,-0.034437,1.072527,-0.194638,-0.195254,1.400261,-0.513263,-0.297218,-8.090912,2.052050,1.730525,-0.019340,-0.106789,0.000000,-0.050133,-0.135189,-0.000000
0.440000,-3.227398,0.268293,-1.495490,0.286219,-0.054274,-0.036404,1.086122,-0.199667,-0.198140,1.318852,-0.491741,-0.280092,-8.072115,2.223061,1.692898,-0.019831,-0.108101,0.000000,-0.047999,-0.127217,0.000000
0.450000,-3.224482,0.267741,-1.495864,0.297146,-0.056295,-0.038400,1.098905,-0.204473,-0.200856,1.238818,-0.468802,-0.263360,-7.893842,2.355193,1.650453,-0.020300,-0.109334,0.000000,-0.045731,-0.119396,0.000000
0.460000,-3.221455,0.267167,-1.496258,0.308197,-0.058363,-0.040421,1.110899,-0.209043,-0.203407,1.160975,-0.444637,-0.247082,-7.720451,2.490594,1.600918,-0.020746,-0.110489,0.000000,-0.043345,-0.111804,-0.000000
0.470000,-3.218318,0.266573,-1.496672,0.319364,-0.060476,-0.042468,1.122124,-0.213365,-0.205798,1.084409,-0.418990,-0.231341,-7.653696,2.655640,1.543488,-0.021167,-0.111570,0.000000,-0.040818,-0.104349,0.000000
0.480000,-3.215068,0.265958,-1.497107,0.330639,-0.062631,-0.044537,1.132587,-0.217423,-0.208034,1.007902,-0.391524,-0.216213,-7.645064,2.837842,1.479389,-0.021562,-0.112577,0.000000,-0.038115,-0.096907,-0.000000
0.490000,-3.211705,0.265321,-1.497563,0.342015,-0.064824,-0.046628,1.142282,-0.221196,-0.210122,0.931508,-0.362233,-0.201754,-7.574111,3.005497,1.410419,-0.021930,-0.113509,0.000000,-0.035236,-0.089484,0.000000
0.500000,-3.208228,0.264661,-1.498040,0.353485,-0.067055,-0.048740,1.151217,-0.224668,-0.212069,0.856419,-0.331414,-0.188004,-7.425057,3.153129,1.337197,-0.022267,-0.114367,0.000000,-0.032208,-0.082193,-0.000000
0.510000,-3.204635,0.263980,-1.498538,0.365040,-0.069318,-0.050870,1.159410,-0.227824,-0.213882,0.783007,-0.299171,-0.175010,-7.281256,3.302468,1.259176,-0.022574,-0.115153,0.000000,-0.029043,-0.075071,0.000000
0.520000,-3.200927,0.263275,-1.499057,0.376673,-0.071611,-0.053017,1.166877,-0.230651,-0.215569,0.710794,-0.265365,-0.162821,-7.189370,3.468816,1.176077,-0.022848,-0.115869,0.000000,-0.025726,-0.068068,-0.000000
0.530000,-3.197102,0.262547,-1.499598,0.388377,-0.073931,-0.055181,1.173626,-0.233132,-0.217139,0.639219,-0.229794,-0.151488,-7.124024,3.645564,1.088631,-0.023088,-0.116515,0.000000,-0.022236,-0.061127,-0.000000
0.540000,-3.193159,0.261797,-1.500161,0.400146,-0.076274,-0.057360,1.179662,-0.235247,-0.218599,0.568314,-0.192454,-0.141048,-7.030567,3.813647,0.998083,-0.023293,-0.117092,0.000000,-0.018573,-0.054249,0.000000
0.550000,-3.189099,0.261022,-1.500745,0.411971,-0.078636,-0.059553,1.184993,-0.236981,-0.219960,0.498608,-0.153521,-0.131526,-6.903410,3.969954,0.904708,-0.023460,-0.117600,0.000000,-0.014753,-0.047487,-0.000000
0.560000,-3.184920,0.260224,-1.501352,0.423845,-0.081013,-0.061759,1.189634,-0.238317,-0.221230,0.430245,-0.113055,-0.122954,-6.779971,4.127225,0.808369,-0.023588,-0.118042,0.000000,-0.010782,-0.040851,0.000000
0.570000,-3.180622,0.259402,-1.501980,0.435763,-0.083402,-0.063978,1.193598,-0.239242,-0.222419,0.363009,-0.070977,-0.115359,-6.677881,4.292943,0.709893,-0.023675,-0.118417,0.000000,-0.006652,-0.034320,-0.000000
0.580000,-3.176205,0.258556,-1.502631,0.447717,-0.085798,-0.066208,1.196894,-0.239737,-0.223537,0.296688,-0.027196,-0.108756,-6.585901,4.462833,0.609887,-0.023721,-0.118728,0.000000,-0.002354,-0.027872,0.000000
0.590000,-3.171668,0.257686,-1.503305,0.459701,-0.088197,-0.068448,1.199531,-0.239786,-0.224594,0.231291,0.018280,-0.103161,-6.483812,4.627380,0.508193,-0.023723,-0.118975,0.000000,0.002113,-0.021507,-0.000000
0.600000,-3.167011,0.256792,-1.504000,0.471708,-0.090594,-0.070700,1.201520,-0.239371,-0.225600,0.167012,0.065352,-0.098592,-6.366924,4.785437,0.405149,-0.023679,-0.119159,0.000000,0.006738,-0.015243,0.000000
0.610000,-3.162233,0.255874,-1.504719,0.483732,-0.092984,-0.072960,1.202872,-0.238479,-0.226566,0.103952,0.113988,-0.095058,-6.249162,4.942988,0.301491,-0.023588,-0.119280,0.000000,0.011519,-0.009089,-0.000000
0.620000,-3.157336,0.254932,-1.505459,0.495765,-0.095363,-0.075231,1.203599,-0.237092,-0.227501,0.042028,0.164212,-0.092562,-6.145342,5.102217,0.197497,-0.023448,-0.119340,0.000000,0.016459,-0.003037,-0.000000
0.630000,-3.152318,0.253967,-1.506223,0.507803,-0.097726,-0.077510,1.203712,-0.235194,-0.228417,-0.018955,0.216033,-0.091108,-6.051473,5.260927,0.093326,-0.023259,-0.119341,0.000000,0.021559,0.002934,0.000000
0.640000,-3.147180,0.252978,-1.507010,0.519840,-0.100067,-0.079799,1.203220,-0.232771,-0.229323,-0.079001,0.269430,-0.090696,-5.948589,5.416050,-0.010272,-0.023017,-0.119282,0.000000,0.026816,0.008823,-0.000000
0.650000,-3.141921,0.251965,-1.507819,0.531868,-0.102381,-0.082097,1.202132,-0.229806,-0.230231,-0.137926,0.324354,-0.091314,-5.834207,5.566343,-0.111939,-0.022722,-0.119164,0.000000,0.032227,0.014613,-0.000000
0.660000,-3.136542,0.250930,-1.508652,0.543882,-0.104663,-0.084404,1.200461,-0.226284,-0.231150,-0.195685,0.380757,-0.092935,-5.721053,5.713424,-0.211617,-0.022373,-0.118989,0.000000,0.037785,0.020300,-0.000000
0.670000,-3.131044,0.249872,-1.509507,0.555877,-0.106907,-0.086720,1.198218,-0.222191,-0.232089,-0.252347,0.438622,-0.095546,-5.613837,5.860058,-0.311445,-0.021967,-0.118758,0.000000,0.043491,0.025889,0.000000
0.680000,-3.125425,0.248792,-1.510386,0.567847,-0.109107,-0.089046,1.195414,-0.217511,-0.233060,-0.307962,0.497958,-0.099164,-5.507914,6.005424,-0.411045,-0.021503,-0.118471,0.000000,0.049344,0.031387,0.000000
0.690000,-3.119687,0.247690,-1.511288,0.579785,-0.111257,-0.091381,1.192059,-0.212231,-0.234073,-0.362506,0.558731,-0.103767,-5.397778,6.145167,-0.506494,-0.020980,-0.118130,0.000000,0.055341,0.036791,0.000000
0.700000,-3.113829,0.246567,-1.512214,0.591688,-0.113352,-0.093727,1.188164,-0.206337,-0.235136,-0.415918,0.620862,-0.109294,-5.285065,6.278480,-0.596464,-0.020396,-0.117735,0.000000,0.061474,0.042094,0.000000
0.710000,-3.107853,0.245423,-1.513163,0.603549,-0.115384,-0.096084,1.183741,-0.199814,-0.236259,-0.468207,0.684300,-0.115696,-5.172969,6.407771,-0.682935,-0.019750,-0.117288,0.000000,0.067738,0.047296,-0.000000
0.720000,-3.101758,0.244259,-1.514135,0.615363,-0.117348,-0.098452,1.178800,-0.192651,-0.237450,-0.519377,0.749017,-0.122952,-5.056820,6.533483,-0.767275,-0.019041,-0.116789,0.000000,0.074129,0.052397,-0.000000
0.730000,-3.095546,0.243076,-1.515132,0.627125,-0.119237,-0.100833,1.173353,-0.184834,-0.238718,-0.569343,0.814970,-0.131042,-4.934957,6.654247,-0.848311,-0.018268,-0.116240,0.000000,0.080643,0.057389,-0.000000
0.740000,-3.089216,0.241874,-1.516152,0.638830,-0.121045,-0.103227,1.167413,-0.176351,-0.240071,-0.618076,0.882102,-0.139918,-4.813846,6.768937,-0.923289,-0.017428,-0.115641,0.000000,0.087275,0.062267,0.000000
0.750000,-3.082769,0.240655,-1.517196,0.650473,-0.122764,-0.105634,1.160992,-0.167192,-0.241516,-0.665620,0.950349,-0.149508,-4.695504,6.878050,-0.991038,-0.016522,-0.114995,0.000000,0.094016,0.067035,-0.000000
0.760000,-3.076206,0.239419,-1.518265,0.662050,-0.124389,-0.108057,1.154101,-0.157344,-0.243061,-0.711986,1.019663,-0.159739,-4.575186,6.981683,-1.052647,-0.015548,-0.114301,0.000000,0.100861,0.071693,-0.000000
0.770000,-3.069528,0.238167,-1.519357,0.673555,-0.125911,-0.110495,1.146752,-0.146799,-0.244711,-0.757124,1.089982,-0.170561,-4.448611,7.077278,-1.109529,-0.014505,-0.113561,0.000000,0.107804,0.076235,-0.000000
0.780000,-3.062735,0.236901,-1.520475,0.684985,-0.127325,-0.112951,1.138958,-0.135545,-0.246472,-0.800958,1.161208,-0.181930,-4.316799,7.164122,-1.160839,-0.013392,-0.112776,0.000000,0.114835,0.080653,-0.000000
0.790000,-3.055828,0.235621,-1.521616,0.696334,-0.128622,-0.115425,1.130733,-0.123574,-0.248349,-0.843460,1.233265,-0.193777,-4.185130,7.245031,-1.203580,-0.012208,-0.111947,0.000000,0.121944,0.084943,0.000000
0.800000,-3.048809,0.234328,-1.522783,0.707599,-0.129796,-0.117918,1.122089,-0.110879,-0.250347,-0.884661,1.306109,-0.206001,-4.056846,7.321099,-1.236242,-0.010953,-0.111077,0.000000,0.129127,0.089105,-0.000000
0.810000,-3.041676,0.233025,-1.523975,0.718776,-0.130840,-0.120432,1.113040,-0.097452,-0.252469,-0.924597,1.379687,-0.218502,-3.928070,7.389791,-1.260064,-0.009626,-0.110165,0.000000,0.136378,0.093144,-0.000000
0.820000,-3.034433,0.231712,-1.525192,0.729860,-0.131745,-0.122967,1.103597,-0.083286,-0.254717,-0.963222,1.453905,-0.231203,-3.789789,7.447490,-1.277105,-0.008226,-0.109214,0.000000,0.143687,0.097052,0.000000
0.830000,-3.027079,0.230390,-1.526434,0.740848,-0.132505,-0.125526,1.093775,-0.068374,-0.257093,-1.000393,1.528637,-0.244044,-3.643305,7.494538,-1.286273,-0.006752,-0.108224,0.000000,0.151039,0.100814,0.000000
0.840000,-3.019616,0.229061,-1.527702,0.751736,-0.133113,-0.128109,1.083589,-0.052713,-0.259598,-1.036088,1.603796,-0.256928,-3.500743,7.535026,-1.283659,-0.005205,-0.107197,0.000000,0.158427,0.104428,-0.000000
0.850000,-3.012044,0.227728,-1.528996,0.762520,-0.133560,-0.130718,1.073053,-0.036298,-0.262232,-1.070408,1.679337,-0.269717,-3.361155,7.569202,-1.268888,-0.003583,-0.106135,0.000000,0.165844,0.107901,0.000000
0.860000,-3.004366,0.226390,-1.530317,0.773197,-0.133839,-0.133354,1.062181,-0.019126,-0.264993,-1.103312,1.755180,-0.282306,-3.216573,7.593847,-1.243664,-0.001888,-0.105039,0.000000,0.173281,0.111228,-0.000000
0.870000,-2.996581,0.225051,-1.531663,0.783763,-0.133942,-0.136018,1.050987,-0.001195,-0.267878,-1.134739,1.831214,-0.294591,-3.072059,7.607864,-1.206470,-0.000118,-0.103911,0.000000,0.180728,0.114401,-0.000000
0.880000,-2.988690,0.223711,-1.533037,0.794216,-0.133862,-0.138712,1.039486,0.017498,-0.270885,-1.164753,1.907337,-0.306435,-2.930752,7.611935,-1.155760,0.001727,-0.102751,0.000000,0.188173,0.117426,0.000000
0.890000,-2.980696,0.222374,-1.534438,0.804553,-0.133592,-0.141436,1.027692,0.036952,-0.274007,-1.193354,1.983453,-0.317706,-2.785257,7.606721,-1.092578,0.003646,-0.101562,0.000000,0.195607,0.120302,0.000000
0.900000,-2.972599,0.221040,-1.535866,0.814770,-0.133123,-0.144192,1.015619,0.057167,-0.277239,-1.220458,2.059471,-0.328287,-2.634190,7.592433,-1.017974,0.005639,-0.100345,0.000000,0.203019,0.123018,-0.000000
0.910000,-2.964401,0.219711,-1.537321,0.824865,-0.132449,-0.146980,1.003283,0.078142,-0.280573,-1.246038,2.135301,-0.338065,-2.482751,7.568208,-0.930216,0.007706,-0.099102,0.000000,0.210401,0.125571,-0.000000
0.920000,-2.956102,0.218391,-1.538805,0.834836,-0.131561,-0.149803,0.990698,0.099873,-0.284000,-1.270113,2.210836,-0.346891,-2.332442,7.532277,-0.824827,0.009847,-0.097834,0.000000,0.217742,0.127963,-0.000000
0.930000,-2.947704,0.217080,-1.540317,0.844679,-0.130451,-0.152660,0.977881,0.122358,-0.287510,-1.292687,2.285947,-0.354562,-2.181255,7.484474,-0.701238,0.012061,-0.096543,0.000000,0.225029,0.130190,0.000000
0.940000,-2.939208,0.215782,-1.541858,0.854393,-0.129113,-0.155553,0.964845,0.145592,-0.291091,-1.313738,2.360525,-0.360916,-2.027758,7.426651,-0.564378,0.014347,-0.095230,0.000000,0.232252,0.132252,-0.000000
0.950000,-2.930616,0.214498,-1.543429,0.863976,-0.127539,-0.158482,0.951606,0.169569,-0.294729,-1.333242,2.434480,-0.365850,-1.874055,7.359415,-0.416687,0.016706,-0.093897,0.000000,0.239403,0.134143,0.000000
0.960000,-2.921929,0.213231,-1.545028,0.873426,-0.125722,-0.161448,0.938180,0.194282,-0.298408,-1.351219,2.507713,-0.369250,-1.720910,7.281089,-0.253837,0.019135,-0.092547,0.000000,0.246472,0.135868,0.000000
0.970000,-2.913148,0.211983,-1.546658,0.882740,-0.123654,-0.164450,0.924582,0.219723,-0.302114,-1.367660,2.580102,-0.370926,-1.562849,7.189454,-0.067916,0.021635,-0.091180,0.000000,0.253449,0.137422,-0.000000
0.980000,-2.904274,0.210758,-1.548317,0.891917,-0.121328,-0.167490,0.910827,0.245884,-0.305827,-1.382476,2.651502,-0.370608,-1.399621,7.084876,0.141045,0.024204,-0.089798,0.000000,0.260321,0.138797,-0.000000
0.990000,-2.895309,0.209557,-1.550007,0.900956,-0.118736,-0.170567,0.896932,0.272753,-0.309526,-1.395653,2.721799,-0.368105,-1.238888,6.969757,0.363352,0.026841,-0.088403,0.000000,0.267079,0.139990,-0.000000
1.000000,-2.886255,0.208383,-1.551728,0.909856,-0.115873,-0.173681,0.882914,0.300320,-0.313189,-1.407254,2.790898,-0.363341,-1.080529,6.843059,0.594129,0.029546,-0.086997,0.000000,0.273715,0.141009,0.000000
1.010000,-2.877112,0.207239,-1.553481,0.918615,-0.112730,-0.176831,0.868787,0.328571,-0.316793,-1.417263,2.858661,-0.356223,-0.919557,6.702927,0.840892,0.032316,-0.085581,0.000000,0.280217,0.141851,-0.000000
1.020000,-2.867883,0.206128,-1.555265,0.927232,-0.109301,-0.180017,0.854568,0.357493,-0.320313,-1.425645,2.924956,-0.346523,-0.758400,6.551979,1.117473,0.035150,-0.084158,0.000000,0.286577,0.142513,0.000000
1.030000,-2.858568,0.205053,-1.557081,0.935706,-0.105580,-0.183237,0.840274,0.387070,-0.323723,-1.432431,2.989700,-0.333873,-0.599231,6.390860,1.423210,0.038047,-0.082729,0.000000,0.292789,0.142997,0.000000
1.040000,-2.849169,0.204017,-1.558930,0.944037,-0.101560,-0.186491,0.825920,0.417287,-0.326991,-1.437630,3.052773,-0.318059,-0.438403,6.215288,1.740078,0.041006,-0.081296,0.000000,0.298846,0.143304,0.000000
1.050000,-2.839687,0.203022,-1.560811,0.952224,-0.097234,-0.189777,0.811521,0.448126,-0.330084,-1.441199,3.114006,-0.299072,-0.273630,6.023372,2.058946,0.044024,-0.079861,0.000000,0.304735,0.143431,0.000000
1.060000,-2.830124,0.202072,-1.562725,0.960268,-0.092597,-0.193093,0.797096,0.479567,-0.332972,-1.443102,3.173241,-0.276880,-0.107697,5.817764,2.392876,0.047101,-0.078425,0.000000,0.310445,0.143376,0.000000
1.070000,-2.820482,0.201170,-1.564673,0.968166,-0.087643,-0.196436,0.782659,0.511590,-0.335622,-1.443353,3.230361,-0.251214,0.053882,5.601913,2.765890,0.050233,-0.076990,0.000000,0.315969,0.143140,-0.000000
1.080000,-2.810761,0.200319,-1.566654,0.975921,-0.082365,-0.199805,0.768229,0.544174,-0.337996,-1.442025,3.285279,-0.221562,0.210000,5.374512,3.175735,0.053420,-0.075558,0.000000,0.321306,0.142729,0.000000
1.090000,-2.800963,0.199523,-1.568669,0.983531,-0.076759,-0.203196,0.753819,0.577296,-0.340053,-1.439153,3.337851,-0.187700,0.368408,5.130531,3.590145,0.056659,-0.074131,0.000000,0.326448,0.142147,0.000000
1.100000,-2.791090,0.198784,-1.570718,0.990997,-0.070819,-0.206606,0.739446,0.610931,-0.341750,-1.434656,3.387890,-0.149759,0.543113,4.870711,3.996189,0.059949,-0.072711,0.000000,0.331383,0.141390,-0.000000
1.110000,-2.781143,0.198106,-1.572801,0.998320,-0.064541,-0.210031,0.725126,0.645054,-0.343048,-1.428291,3.435266,-0.107776,0.727869,4.597866,4.416111,0.063287,-0.071298,0.000000,0.336103,0.140435,-0.000000
1.120000,-2.771124,0.197493,-1.574919,1.005500,-0.057918,-0.213467,0.710880,0.679637,-0.343906,-1.420099,3.479847,-0.061437,0.883800,4.308189,4.881282,0.066671,-0.069896,0.000000,0.340603,0.139287,-0.000000
1.130000,-2.761033,0.196948,-1.577070,1.012537,-0.050948,-0.216909,0.696724,0.714651,-0.344277,-1.410615,3.521429,-0.010150,1.013637,4.000963,5.385977,0.070099,-0.068506,0.000000,0.344875,0.137996,0.000000
1.140000,-2.750873,0.196474,-1.579257,1.019434,-0.043625,-0.220353,0.682667,0.750065,-0.344109,-1.399826,3.559866,0.046282,1.170476,3.680881,5.887658,0.073569,-0.067130,0.000000,0.348913,0.136562,-0.000000
1.150000,-2.740645,0.196076,-1.581478,1.026191,-0.035947,-0.223792,0.668727,0.785848,-0.343351,-1.387205,3.595047,0.107603,1.347026,3.342713,6.372479,0.077078,-0.065768,0.000000,0.352713,0.134938,0.000000
1.160000,-2.730349,0.195755,-1.583733,1.032809,-0.027908,-0.227220,0.654923,0.821966,-0.341957,-1.372886,3.626720,0.173732,1.509127,2.983245,6.868736,0.080623,-0.064423,0.000000,0.356256,0.133140,-0.000000
1.170000,-2.719988,0.195517,-1.586022,1.039289,-0.019507,-0.230631,0.641270,0.858382,-0.339877,-1.357023,3.654712,0.244978,1.690422,2.618110,7.407718,0.084203,-0.063096,0.000000,0.359536,0.131182,0.000000
1.180000,-2.709563,0.195365,-1.588345,1.045634,-0.010741,-0.234017,0.627783,0.895060,-0.337057,-1.339077,3.679083,0.321886,1.904233,2.248751,7.981387,0.087814,-0.061790,0.000000,0.362572,0.129010,0.000000
1.190000,-2.699076,0.195303,-1.590702,1.051845,-0.001606,-0.237372,0.614488,0.931964,-0.333439,-1.318938,3.699687,0.404605,2.102122,1.852538,8.546554,0.091455,-0.060506,0.000000,0.365361,0.126614,0.000000
1.200000,-2.688527,0.195333,-1.593093,1.057924,0.007899,-0.240686,0.601404,0.969054,-0.328965,-1.297035,3.716133,0.492817,2.281545,1.425735,9.085621,0.095122,-0.059247,0.000000,0.367871,0.124041,-0.000000
1.210000,-2.677917,0.195461,-1.595516,1.063873,0.017775,-0.243951,0.588547,1.006287,-0.323583,-1.273307,3.728202,0.586318,2.476038,0.983101,9.626685,0.098812,-0.058014,0.000000,0.370087,0.121286,0.000000
1.220000,-2.667249,0.195689,-1.597972,1.069695,0.028024,-0.247158,0.575938,1.043618,-0.317239,-1.247514,3.735795,0.685351,2.678225,0.528344,10.210805,0.102524,-0.056809,0.000000,0.372012,0.118326,0.000000
1.230000,-2.656523,0.196021,-1.600459,1.075392,0.038647,-0.250296,0.563597,1.081003,-0.309876,-1.219743,3.738768,0.790534,2.874416,0.055049,10.829784,0.106253,-0.055635,0.000000,0.373646,0.115167,0.000000
1.240000,-2.645741,0.196462,-1.602978,1.080967,0.049644,-0.253355,0.551543,1.118393,-0.301428,-1.190026,3.736896,0.901947,3.078682,-0.441483,11.425533,0.109997,-0.054493,0.000000,0.374978,0.111811,-0.000000
1.250000,-2.634904,0.197014,-1.605526,1.086423,0.061015,-0.256324,0.539797,1.155741,-0.291837,-1.158169,3.729939,1.019045,3.307854,-0.956143,11.977515,0.113753,-0.053385,0.000000,0.375990,0.108244,0.000000
1.260000,-2.624013,0.197682,-1.608104,1.091763,0.072759,-0.259192,0.528380,1.192992,-0.281047,-1.123869,3.717774,1.141497,3.551287,-1.487247,12.522945,0.117517,-0.052313,0.000000,0.376674,0.104436,0.000000
1.270000,-2.613069,0.198469,-1.610710,1.096990,0.084875,-0.261945,0.517319,1.230096,-0.269007,-1.087143,3.700194,1.269504,3.769126,-2.050419,13.105499,0.121287,-0.051281,0.000000,0.377020,0.100388,0.000000
1.280000,-2.602073,0.199379,-1.613343,1.102109,0.097361,-0.264572,0.506637,1.266996,-0.255657,-1.048486,3.676765,1.403607,3.965563,-2.647970,13.712822,0.125058,-0.050291,0.000000,0.377002,0.096144,-0.000000
1.290000,-2.591027,0.200416,-1.616002,1.107123,0.110215,-0.267059,0.496349,1.303631,-0.240935,-1.007832,3.647234,1.543760,4.195217,-3.259144,14.282623,0.128827,-0.049343,0.000000,0.376602,0.091696,-0.000000
1.300000,-2.579930,0.201584,-1.618684,1.112036,0.123434,-0.269391,0.486480,1.339941,-0.224782,-0.964582,3.611582,1.689260,4.453755,-3.878321,14.794527,0.132591,-0.048441,0.000000,0.375819,0.086986,0.000000
1.310000,-2.568786,0.202885,-1.621389,1.116852,0.137014,-0.271554,0.477058,1.375863,-0.207149,-0.918757,3.569668,1.839651,4.706236,-4.520536,15.287133,0.136344,-0.047588,0.000000,0.374637,0.082016,0.000000
1.320000,-2.557593,0.204324,-1.624115,1.121577,0.150951,-0.273534,0.468105,1.411334,-0.187989,-0.870457,3.521172,1.995002,4.978362,-5.198540,15.801536,0.140084,-0.046786,0.000000,0.373034,0.076791,-0.000000
1.330000,-2.546354,0.205904,-1.626860,1.126215,0.165240,-0.275314,0.459649,1.446286,-0.167249,-0.819190,3.465697,2.155681,5.286412,-5.910152,16.322395,0.143805,-0.046037,0.000000,0.370980,0.071256,-0.000000
1.340000,-2.535069,0.207629,-1.629622,1.130770,0.179877,-0.276879,0.451721,1.480648,-0.144875,-0.764729,3.402969,2.321450,5.592838,-6.639151,16.789802,0.147504,-0.045346,0.000000,0.368449,0.065384,0.000000
1.350000,-2.523739,0.209502,-1.632398,1.135249,0.194853,-0.278211,0.444354,1.514346,-0.120820,-0.707333,3.332914,2.491477,5.876998,-7.368150,17.194064,0.151175,-0.044715,0.000000,0.365424,0.059197,-0.000000
1.360000,-2.512364,0.211526,-1.635186,1.139657,0.210164,-0.279295,0.437575,1.547306,-0.095046,-0.647189,3.255606,2.665331,6.167026,-8.109513,17.570105,0.154813,-0.044148,0.000000,0.361909,0.052710,0.000000
1.370000,-2.500946,0.213705,-1.637984,1.144001,0.225800,-0.280112,0.431410,1.579458,-0.067514,-0.583993,3.170724,2.842879,6.511603,-8.912399,17.926418,0.158414,-0.043648,0.000000,0.357868,0.045882,0.000000
1.380000,-2.489484,0.216042,-1.640788,1.148285,0.241753,-0.280645,0.425895,1.610721,-0.038188,-0.516957,3.077358,3.023860,6.911618,-9.775786,18.246827,0.161971,-0.043219,0.000000,0.353206,0.038629,0.000000
1.390000,-2.477980,0.218540,-1.643596,1.152518,0.258014,-0.280876,0.421071,1.641005,-0.007037,-0.445760,2.975208,3.207816,7.300781,-10.632243,18.514862,0.165478,-0.042866,0.000000,0.347880,0.030906,0.000000
1.400000,-2.466434,0.221202,-1.646406,1.156707,0.274573,-0.280786,0.416980,1.670225,0.025968,-0.370941,2.864713,3.394157,7.610585,-11.463509,18.726040,0.168929,-0.042593,0.000000,0.341918,0.022758,-0.000000
1.410000,-2.454846,0.224031,-1.649212,1.160858,0.291418,-0.280357,0.413652,1.698299,0.060847,-0.293548,2.745938,3.582337,7.890318,-12.315295,18.885211,0.172317,-0.042404,0.000000,0.335308,0.014279,0.000000
1.420000,-2.443217,0.227030,-1.652013,1.164980,0.308539,-0.279569,0.411109,1.725144,0.097615,-0.213135,2.618407,3.771861,8.325550,-13.225059,18.993947,0.175636,-0.042303,0.000000,0.327985,0.005412,0.000000
1.430000,-2.431546,0.230202,-1.654804,1.169080,0.325921,-0.278405,0.409390,1.750668,0.136284,-0.127037,2.481437,3.962216,8.898943,-14.176700,19.047167,0.178877,-0.042295,0.000000,0.319852,-0.004127,0.000000
1.440000,-2.419835,0.233549,-1.657581,1.173168,0.343552,-0.276844,0.408568,1.774773,0.176859,-0.035156,2.334873,4.152805,9.357619,-15.120908,19.034552,0.182033,-0.042387,0.000000,0.310867,-0.014367,0.000000
1.450000,-2.408083,0.237073,-1.660340,1.177252,0.361417,-0.274867,0.408687,1.797365,0.219340,0.060115,2.179019,4.342907,9.717578,-16.057085,18.942712,0.185095,-0.042587,0.000000,0.301026,-0.025082,-0.000000
1.460000,-2.396290,0.240777,-1.663078,1.181341,0.379500,-0.272457,0.409770,1.818353,0.263717,0.159196,2.013731,4.531659,10.142555,-17.015980,18.773055,0.188054,-0.042898,0.000000,0.290273,-0.036332,-0.000000
1.470000,-2.384456,0.244663,-1.665790,1.185447,0.397784,-0.269593,0.411870,1.837640,0.309973,0.262966,1.838699,4.718368,10.526700,-17.992478,18.549081,0.190900,-0.043328,0.000000,0.278534,-0.048229,-0.000000
1.480000,-2.372581,0.248733,-1.668470,1.189579,0.416252,-0.266257,0.415030,1.855127,0.358085,0.369730,1.653882,4.902640,10.785844,-19.006426,18.258642,0.193624,-0.043881,0.000000,0.265766,-0.060619,-0.000000
1.490000,-2.360665,0.252988,-1.671115,1.193748,0.434886,-0.262431,0.419265,1.870717,0.408026,0.478683,1.458571,5.083541,11.080159,-20.056180,17.862766,0.196216,-0.044564,0.000000,0.251841,-0.073438,-0.000000
1.500000,-2.348706,0.257431,-1.673719,1.197964,0.453667,-0.258097,0.424603,1.884298,0.459755,0.591333,1.252758,5.259896,11.573913,-20.903484,17.409826,0.198661,-0.045380,0.000000,0.236689,-0.086863,0.000000
1.510000,-2.336705,0.262061,-1.676277,1.202240,0.472572,-0.253236,0.431092,1.895772,0.513224,0.710161,1.040501,5.431737,12.142007,-21.565040,16.915247,0.200949,-0.046337,0.000000,0.220681,-0.101180,0.000000
1.520000,-2.324661,0.266882,-1.678783,1.206586,0.491582,-0.247832,0.438806,1.905108,0.568390,0.834173,0.821457,5.598201,12.365708,-22.724299,16.216716,0.203074,-0.047446,0.000000,0.203722,-0.116317,0.000000
1.530000,-2.312574,0.271893,-1.681233,1.211016,0.510675,-0.241868,0.447775,1.912202,0.625188,0.957475,0.586015,5.756072,12.320297,-24.363974,15.291162,0.205023,-0.048713,0.000000,0.184695,-0.131662,0.000000
1.540000,-2.300441,0.277096,-1.683621,1.215541,0.529826,-0.235329,0.457956,1.916829,0.683512,1.080579,0.334178,5.904024,12.560554,-25.539938,14.358357,0.206767,-0.050137,0.000000,0.163492,-0.147277,-0.000000
1.550000,-2.288263,0.282490,-1.685940,1.220175,0.549011,-0.228198,0.469387,1.918885,0.743268,1.208686,0.075216,6.043239,12.794966,-26.381032,13.491656,0.208292,-0.051724,0.000000,0.141029,-0.163750,0.000000
1.560000,-2.276038,0.288076,-1.688185,1.224929,0.568204,-0.220463,0.482130,1.918333,0.804376,1.336478,-0.193443,6.173857,12.680195,-27.494655,12.533883,0.209587,-0.053485,0.000000,0.116981,-0.180539,-0.000000
1.570000,-2.263764,0.293854,-1.690349,1.229817,0.587378,-0.212111,0.496116,1.915016,0.866745,1.462290,-0.474677,6.293916,13.173517,-28.266682,11.317113,0.210630,-0.055417,0.000000,0.090919,-0.197464,-0.000000
1.580000,-2.251441,0.299823,-1.692427,1.234851,0.606504,-0.203128,0.511375,1.908839,0.930255,1.599948,-0.758777,6.400199,14.422565,-28.437987,9.881921,0.211403,-0.057525,0.000000,0.063709,-0.216036,0.000000
1.590000,-2.239067,0.305984,-1.694412,1.240045,0.625555,-0.193506,0.528115,1.899841,0.994749,1.750742,-1.043437,6.491555,15.077002,-28.894999,8.445547,0.211902,-0.059838,0.000000,0.035507,-0.236443,0.000000
1.600000,-2.226640,0.312334,-1.696297,1.245414,0.644501,-0.183233,0.546390,1.887971,1.060086,1.901489,-1.336677,6.569110,15.046242,-29.835084,7.074099,0.212111,-0.062364,0.000000,0.005419,-0.257272,-0.000000
1.610000,-2.214159,0.318874,-1.698076,1.250973,0.663314,-0.172304,0.566145,1.873107,1.126132,2.051666,-1.640138,6.633037,15.235817,-30.633656,5.618877,0.212008,-0.065103,0.000000,-0.026817,-0.278472,-0.000000
1.620000,-2.201621,0.325601,-1.699743,1.256737,0.681963,-0.160711,0.587424,1.855168,1.192746,2.206205,-1.949350,6.681488,15.531430,-30.990324,3.917601,0.211572,-0.068063,0.000000,-0.060848,-0.300593,-0.000000
1.630000,-2.189024,0.332513,-1.701291,1.262721,0.700417,-0.148449,0.610269,1.834120,1.259761,2.362295,-2.259945,6.711389,15.560487,-31.149143,2.012170,0.210788,-0.071254,0.000000,-0.096332,-0.323306,0.000000
1.640000,-2.176366,0.339609,-1.702712,1.268942,0.718646,-0.135515,0.634670,1.809969,1.326974,2.517415,-2.572333,6.721731,15.553709,-31.453423,0.118790,0.209643,-0.074677,0.000000,-0.133393,-0.346308,0.000000
1.650000,-2.163645,0.346886,-1.704001,1.275415,0.736617,-0.121909,0.660617,1.782674,1.394196,2.673369,-2.889013,6.713765,15.854730,-31.628383,-1.699302,0.208117,-0.078337,0.000000,-0.172345,-0.369798,0.000000
1.660000,-2.150858,0.354341,-1.705150,1.282154,0.754299,-0.107632,0.688137,1.752189,1.461250,2.834509,-3.204900,6.687745,16.258469,-31.471798,-3.585334,0.206192,-0.082238,0.000000,-0.212669,-0.394270,-0.000000
1.670000,-2.138002,0.361972,-1.706153,1.289177,0.771660,-0.092684,0.717308,1.718576,1.527951,2.998539,-3.518449,6.642058,15.928243,-31.770860,-5.684764,0.203860,-0.086394,0.000000,-0.254251,-0.419430,0.000000
1.680000,-2.125075,0.369775,-1.707004,1.296501,0.788670,-0.077073,0.748108,1.681820,1.594091,3.153074,-3.840317,6.574050,15.008576,-32.674484,-7.985064,0.201104,-0.090806,0.000000,-0.298385,-0.443754,-0.000000
1.690000,-2.112072,0.377745,-1.707695,1.304140,0.805297,-0.060803,0.780369,1.641769,1.659432,3.298710,-4.171939,6.482357,14.595482,-33.059765,-10.278471,0.197889,-0.095453,0.000000,-0.345319,-0.467202,0.000000
1.700000,-2.098992,0.385880,-1.708220,1.312108,0.821506,-0.043884,0.814082,1.598381,1.723738,3.444984,-4.501513,6.368480,13.983235,-32.422247,-12.268511,0.194194,-0.100337,0.000000,-0.393672,-0.490844,0.000000
1.710000,-2.085830,0.394176,-1.708573,1.320421,0.837264,-0.026328,0.849269,1.551739,1.786801,3.578375,-4.820384,6.236986,12.493677,-31.543381,-14.106151,0.190012,-0.105459,0.000000,-0.442232,-0.513033,0.000000
1.720000,-2.072583,0.402626,-1.708747,1.329093,0.852541,-0.008148,0.885649,1.501973,1.848478,3.694857,-5.132380,6.086357,12.361357,-31.553387,-16.595065,0.185346,-0.110786,0.000000,-0.491398,-0.533128,-0.000000
1.730000,-2.059248,0.411226,-1.708736,1.338134,0.867304,0.010642,0.923166,1.449091,1.908529,3.825602,-5.451452,5.905085,13.581077,-31.908021,-19.639275,0.180181,-0.116307,0.000000,-0.543113,-0.554656,-0.000000
1.740000,-2.045821,0.419972,-1.708534,1.347557,0.881522,0.030023,0.962161,1.392944,1.966579,3.966479,-5.770541,5.693572,13.075243,-31.161596,-22.136298,0.174480,-0.122061,0.000000,-0.596424,-0.577042,0.000000
1.750000,-2.032297,0.428857,-1.708135,1.357377,0.895163,0.049973,1.002495,1.333680,2.022400,4.087107,-6.074683,5.462359,12.827931,-31.340295,-24.414624,0.168250,-0.128026,0.000000,-0.649028,-0.596544,0.000000
1.760000,-2.018673,0.437875,-1.707534,1.367607,0.908196,0.070471,1.043904,1.271451,2.075826,4.223037,-6.397347,5.205279,14.722612,-33.211656,-27.160327,0.161498,-0.134162,0.000000,-0.705112,-0.617330,0.000000
1.770000,-2.004945,0.447021,-1.706726,1.378255,0.920592,0.091490,1.086956,1.205734,2.126506,4.381559,-6.738917,4.919153,12.196210,-30.658326,-29.146653,0.154145,-0.140534,0.000000,-0.764719,-0.640179,-0.000000
1.780000,-1.991108,0.456287,-1.705704,1.389346,0.932311,0.113001,1.131535,1.136672,2.174210,4.466962,-7.010513,4.622346,4.504195,-23.438404,-30.084604,0.146202,-0.147118,0.000000,-0.815772,-0.653168,0.000000
1.790000,-1.977158,0.465667,-1.704466,1.400886,0.943325,0.134974,1.176295,1.065523,2.218953,4.471643,-7.207685,4.317460,0.842630,-20.003010,-31.697706,0.137831,-0.153736,0.000000,-0.857130,-0.655050,-0.000000
1.800000,-1.963090,0.475153,-1.703005,1.412872,0.953621,0.157380,1.220968,0.992519,2.260559,4.483814,-7.410573,3.988392,1.072164,-19.389423,-34.080422,0.129061,-0.160341,0.000000,-0.899200,-0.656546,-0.000000
1.810000,-1.948901,0.484739,-1.701318,1.425305,0.963176,0.180185,1.265972,0.917312,2.298720,4.493086,-7.595473,3.635852,-0.905558,-16.066932,-36.053748,0.119849,-0.166973,0.000000,-0.938656,-0.656244,-0.000000
1.820000,-1.934584,0.494417,-1.699401,1.438191,0.971967,0.203354,1.310829,0.840609,2.333276,4.465703,-7.731912,3.267317,-2.162255,-14.978552,-37.817381,0.110292,-0.173557,0.000000,-0.970987,-0.649827,-0.000000
1.830000,-1.920137,0.504179,-1.697251,1.451522,0.979988,0.226851,1.355286,0.762674,2.364067,4.449841,-7.895044,2.879504,0.266976,-18.565745,-39.901066,0.100433,-0.180046,0.000000,-1.005851,-0.643330,0.000000
1.840000,-1.905554,0.514017,-1.694864,1.465297,0.987221,0.250636,1.399826,0.682708,2.390866,4.471043,-8.103227,2.469296,1.733973,-19.520399,-41.887311,0.090179,-0.186486,0.000000,-1.045587,-0.639948,-0.000000
1.850000,-1.890831,0.523923,-1.692238,1.479519,0.993642,0.274668,1.444707,0.600609,2.413453,4.484521,-8.285452,2.041758,-3.210252,-14.933537,-42.863025,0.079527,-0.192893,0.000000,-1.080441,-0.633944,0.000000
1.860000,-1.875963,0.533890,-1.689371,1.494191,0.999233,0.298905,1.489517,0.516999,2.431701,4.406838,-8.401898,1.612036,-10.905740,-10.002322,-43.184754,0.068577,-0.199201,0.000000,-1.104540,-0.614813,-0.000000
1.870000,-1.860947,0.543908,-1.686260,1.509309,1.003982,0.323302,1.532843,0.432571,2.445693,4.266406,-8.485499,1.178063,-7.478957,-10.689975,-45.203573,0.057443,-0.205215,0.000000,-1.122188,-0.586224,-0.000000
1.880000,-1.845777,0.553969,-1.682905,1.524848,1.007885,0.347819,1.574845,0.347289,2.455262,4.257258,-8.615697,0.707964,5.232713,-14.665108,-48.662306,0.046140,-0.210941,0.000000,-1.144265,-0.572567,-0.000000
1.890000,-1.830450,0.564065,-1.679304,1.540806,1.010928,0.372407,1.617989,0.260257,2.459853,4.371060,-8.778801,0.204817,8.603381,-14.278345,-50.369419,0.034567,-0.216674,0.000000,-1.168445,-0.572713,0.000000
1.900000,-1.814961,0.574188,-1.675457,1.557207,1.013090,0.397016,1.662266,0.171713,2.459359,4.429326,-8.901264,-0.299424,8.375721,-13.987381,-51.478477,0.022781,-0.222398,0.000000,-1.184348,-0.564351,-0.000000
1.910000,-1.799306,0.584327,-1.671364,1.574051,1.014362,0.421594,1.706575,0.082232,2.453864,4.538574,-9.058548,-0.824753,16.344526,-18.400697,-53.986812,0.010889,-0.227961,0.000000,-1.202065,-0.560752,0.000000
1.920000,-1.783480,0.594475,-1.667025,1.591339,1.014734,0.446093,1.753037,-0.009458,2.442864,4.756217,-9.269278,-1.379161,11.840823,-13.431134,-53.802169,-0.001249,-0.233609,0.000000,-1.223612,-0.568844,-0.000000
1.930000,-1.767479,0.604622,-1.662442,1.609112,1.014173,0.470452,1.801699,-0.103154,2.426281,4.775391,-9.327171,-1.900796,-9.982481,2.801662,-50.102877,-0.013571,-0.239333,0.000000,-1.221658,-0.551066,0.000000
1.940000,-1.751298,0.614758,-1.657616,1.627373,1.012671,0.494619,1.848545,-0.196001,2.404848,4.556567,-9.213245,-2.381218,-19.751074,10.585857,-48.661715,-0.025675,-0.244630,0.000000,-1.194850,-0.503500,-0.000000
1.950000,-1.734932,0.624875,-1.652549,1.646083,1.010253,0.518549,1.892831,-0.287419,2.378657,4.380369,-9.115454,-2.874030,-15.228295,9.935299,-49.727708,-0.037462,-0.249406,0.000000,-1.168133,-0.460704,0.000000
1.960000,-1.718376,0.634964,-1.647245,1.665230,1.006923,0.542192,1.936153,-0.378310,2.347367,4.252001,-9.014539,-3.375772,-16.325736,14.016915,-49.401165,-0.049030,-0.253849,0.000000,-1.138910,-0.423368,0.000000
1.970000,-1.701627,0.645014,-1.641705,1.684806,1.002687,0.565496,1.977871,-0.467709,2.311141,4.053855,-8.835116,-3.862054,-21.039930,17.497692,-48.568959,-0.060235,-0.257883,0.000000,-1.098161,-0.377744,-0.000000
1.980000,-1.684680,0.655017,-1.635935,1.704787,0.997569,0.588414,2.017230,-0.555013,2.270126,3.831202,-8.664585,-4.347151,-21.511356,15.183648,-48.732319,-0.070990,-0.261419,0.000000,-1.057496,-0.329404,0.000000
1.990000,-1.667531,0.664965,-1.629937,1.725150,0.991586,0.610899,2.054495,-0.641001,2.224198,3.623628,-8.531443,-4.836700,-22.260149,15.526497,-48.326642,-0.081382,-0.264489,0.000000,-1.020481,-0.283218,0.000000
2.000000,-1.650177,0.674849,-1.623717,1.745877,0.984749,0.632898,2.089702,-0.725641,2.173392,3.385999,-8.354055,-5.313684,-29.376502,21.888099,-46.456941,-0.091397,-0.267104,0.000000,-0.977271,-0.234379,0.000000
2.010000,-1.632614,0.684660,-1.617279,1.766944,0.977074,0.654366,2.122215,-0.808082,2.117924,3.036098,-8.093681,-5.765839,-38.984086,28.117742,-44.301911,-0.100926,-0.269199,0.000000,-0.924048,-0.173718,-0.000000
2.020000,-1.614838,0.694390,-1.610630,1.788321,0.968587,0.675257,2.150424,-0.887515,2.058075,2.606318,-7.791700,-6.199723,-36.975681,28.082537,-43.585620,-0.109879,-0.270601,0.000000,-0.866525,-0.105545,-0.000000
2.030000,-1.596847,0.704032,-1.603774,1.809953,0.959323,0.695528,2.174341,-0.963916,1.993930,2.296584,-7.532030,-6.637551,-24.653297,23.988084,-43.836018,-0.118259,-0.271328,0.000000,-0.814245,-0.053076,0.000000
2.040000,-1.578639,0.713577,-1.596719,1.831808,0.949309,0.715136,2.196356,-1.038156,1.925324,2.113252,-7.311938,-7.076443,-20.904988,23.631807,-42.822449,-0.126165,-0.271673,0.000000,-0.766588,-0.016584,0.000000
2.050000,-1.560211,0.723018,-1.589471,1.853880,0.938560,0.734034,2.216606,-1.110155,1.852401,1.878484,-7.059394,-7.494000,-23.732299,25.441016,-41.285965,-0.133592,-0.271666,0.000000,-0.716009,0.024154,-0.000000
2.060000,-1.541561,0.732348,-1.582038,1.876140,0.927106,0.752184,2.233926,-1.179343,1.775444,1.638606,-6.803118,-7.902162,-20.751023,24.421163,-40.639666,-0.140488,-0.271190,0.000000,-0.665917,0.063889,0.000000
2.070000,-1.522688,0.741560,-1.574428,1.898559,0.914973,0.769543,2.249378,-1.246217,1.694358,1.463464,-6.570970,-8.306793,-21.615777,26.112541,-38.383478,-0.146913,-0.270379,0.000000,-0.619167,0.094959,-0.000000
2.080000,-1.503590,0.750648,-1.566647,1.921128,0.902181,0.786071,2.263195,-1.310763,1.609308,1.206290,-6.280867,-8.669832,-30.981822,32.426981,-33.972849,-0.152874,-0.269273,0.000000,-0.567646,0.132862,-0.000000
2.090000,-1.484266,0.759604,-1.558706,1.943822,0.888758,0.801729,2.273504,-1.371835,1.520961,0.843827,-5.922431,-8.986250,-34.565807,35.353342,-30.966860,-0.158270,-0.267695,0.000000,-0.510957,0.179594,0.000000
2.100000,-1.464714,0.768423,-1.550613,1.966598,0.874745,0.816490,2.280071,-1.429211,1.429583,0.514974,-5.573800,-9.289169,-31.317865,34.466949,-29.437335,-0.163098,-0.265641,0.000000,-0.456999,0.220608,-0.000000
2.110000,-1.444934,0.777099,-1.542376,1.989424,0.860174,0.830321,2.283804,-1.483311,1.335178,0.217470,-5.233092,-9.574997,-31.032290,35.218656,-26.998510,-0.167415,-0.263228,0.000000,-0.405538,0.256293,0.000000
2.120000,-1.424925,0.785626,-1.534006,2.012274,0.845078,0.843193,2.284421,-1.533873,1.238083,-0.105672,-4.869427,-9.829139,-31.829119,36.329854,-24.482131,-0.171214,-0.260447,0.000000,-0.353745,0.292493,0.000000
2.130000,-1.404688,0.794000,-1.525513,2.035112,0.829496,0.855083,2.281690,-1.580699,1.138595,-0.419112,-4.506495,-10.064640,-30.165235,35.806877,-22.774380,-0.174495,-0.257296,0.000000,-0.303879,0.325808,0.000000
2.140000,-1.384223,0.802216,-1.516905,2.057908,0.813464,0.865965,2.276038,-1.624003,1.036791,-0.708976,-4.153290,-10.284627,-29.504540,35.884529,-20.547789,-0.177296,-0.253835,0.000000,-0.256714,0.355008,0.000000
2.150000,-1.363530,0.810270,-1.508193,2.080633,0.797016,0.875819,2.267511,-1.663765,0.932903,-1.009203,-3.788804,-10.475596,-30.702865,37.111655,-17.604549,-0.179634,-0.250086,0.000000,-0.210377,0.383420,0.000000
2.160000,-1.342610,0.818156,-1.499388,2.103258,0.780189,0.884623,2.255854,-1.699779,0.827279,-1.323034,-3.411057,-10.636718,-31.261344,37.877302,-14.895955,-0.181509,-0.246044,0.000000,-0.164708,0.411409,-0.000000
2.170000,-1.321465,0.825873,-1.490501,2.125750,0.763021,0.892364,2.241050,-1.731986,0.720168,-1.634430,-3.031258,-10.773515,-30.823632,37.823898,-12.407978,-0.182933,-0.241724,0.000000,-0.120679,0.437548,0.000000
2.180000,-1.300095,0.833417,-1.481541,2.148079,0.745549,0.899027,2.223166,-1.760404,0.611808,-1.939506,-2.654579,-10.884877,-30.257315,37.480004,-9.823982,-0.183927,-0.237148,0.000000,-0.078761,0.461531,-0.000000
2.190000,-1.278503,0.840784,-1.472520,2.170213,0.727813,0.904600,2.202260,-1.785078,0.502471,-2.239576,-2.281658,-10.969994,-29.814569,37.183371,-7.274531,-0.184513,-0.232338,0.000000,-0.038951,0.483601,0.000000
2.200000,-1.256691,0.847973,-1.463449,2.192124,0.709848,0.909076,2.178374,-1.806038,0.392408,-2.535798,-1.910911,-11.030368,-29.399581,37.042251,-4.786763,-0.184710,-0.227311,0.000000,-0.000979,0.504027,-0.000000
2.210000,-1.234661,0.854981,-1.454339,2.213781,0.691692,0.912448,2.151544,-1.823296,0.281863,-2.827568,-1.540813,-11.065730,-28.875387,36.833875,-2.280095,-0.184536,-0.222085,0.000000,0.035389,0.522857,0.000000
2.220000,-1.212416,0.861807,-1.445200,2.235155,0.673382,0.914713,2.121823,-1.836854,0.171094,-3.113305,-1.174234,-11.075970,-28.226675,36.091470,0.124622,-0.184006,-0.216675,0.000000,0.069956,0.540052,-0.000000
2.230000,-1.189958,0.868449,-1.436044,2.256217,0.654955,0.915870,2.089278,-1.846781,0.060344,-3.392102,-0.818984,-11.063237,-27.494914,34.884788,2.370345,-0.183140,-0.211100,0.000000,0.102100,0.555682,0.000000
2.240000,-1.167291,0.874906,-1.426883,2.276941,0.636446,0.915920,2.053981,-1.853234,-0.050171,-3.663204,-0.476538,-11.028563,-26.697260,33.840832,4.612316,-0.181966,-0.205374,0.000000,0.131821,0.569804,-0.000000
2.250000,-1.144419,0.881178,-1.417726,2.297297,0.617890,0.914867,2.016014,-1.856311,-0.160227,-3.926047,-0.142167,-10.970991,-25.883112,32.956733,6.940608,-0.180506,-0.199513,0.000000,0.159668,0.582450,-0.000000
2.260000,-1.121345,0.887264,-1.408585,2.317261,0.599320,0.912716,1.975460,-1.856077,-0.269591,-4.180866,0.182597,-10.889751,-25.043458,31.823549,9.227685,-0.178775,-0.193533,0.000000,0.185578,0.593733,-0.000000
2.270000,-1.098074,0.893164,-1.399472,2.336806,0.580769,0.909475,1.932396,-1.852659,-0.378022,-4.426916,0.494304,-10.786437,-24.032179,30.579083,11.228750,-0.176796,-0.187447,0.000000,0.209359,0.603713,-0.000000
2.280000,-1.074609,0.898879,-1.390396,2.355909,0.562267,0.905155,1.886922,-1.846191,-0.485319,-4.661510,0.794178,-10.665176,-22.853224,29.374063,12.960010,-0.174589,-0.181268,0.000000,0.231301,0.612306,0.000000
2.290000,-1.050956,0.904410,-1.381369,2.374545,0.543845,0.899769,1.839166,-1.836776,-0.591326,-4.883980,1.081785,-10.527237,-21.715538,27.997415,14.733243,-0.172171,-0.175011,0.000000,0.251474,0.619556,0.000000
2.300000,-1.027118,0.909756,-1.372401,2.392692,0.525531,0.893329,1.789242,-1.824555,-0.695864,-5.095820,1.354127,-10.370511,-20.631836,26.459270,16.639128,-0.169561,-0.168690,0.000000,0.269651,0.625646,-0.000000
2.310000,-1.003102,0.914920,-1.363502,2.410330,0.507354,0.885851,1.737250,-1.809693,-0.798736,-5.296617,1.610971,-10.194454,-19.469286,24.914790,18.452699,-0.166779,-0.162316,0.000000,0.285895,0.630609,0.000000
2.320000,-0.978912,0.919903,-1.354684,2.427437,0.489337,0.877354,1.683310,-1.792336,-0.899753,-5.485206,1.852422,-10.001457,-18.253895,23.251253,19.944797,-0.163844,-0.155900,0.000000,0.300341,0.634451,0.000000
2.330000,-0.954553,0.924707,-1.345955,2.443996,0.471507,0.867856,1.627546,-1.772645,-0.998765,-5.661695,2.075996,-9.795558,-17.043490,21.410135,21.172744,-0.160773,-0.149454,0.000000,0.312900,0.637303,0.000000
2.340000,-0.930032,0.929333,-1.337326,2.459988,0.453885,0.857379,1.570076,-1.750816,-1.095664,-5.826076,2.280625,-9.578002,-15.800846,19.577470,22.425793,-0.157586,-0.142986,0.000000,0.323570,0.639231,-0.000000
2.350000,-0.905353,0.933785,-1.328807,2.475397,0.436491,0.845943,1.511024,-1.727032,-1.190325,-5.977712,2.467545,-9.347043,-14.494334,17.840605,23.777825,-0.154301,-0.136507,0.000000,0.332504,0.640207,0.000000
2.360000,-0.880524,0.938063,-1.320408,2.490208,0.419344,0.833572,1.450522,-1.701465,-1.282605,-6.115963,2.637437,-9.102445,-13.161553,16.078632,25.027583,-0.150936,-0.130027,0.000000,0.339823,0.640223,0.000000
2.370000,-0.855549,0.942172,-1.312136,2.504408,0.402461,0.820291,1.388705,-1.674284,-1.372374,-6.240943,2.789118,-8.846491,-11.884794,14.128345,25.988833,-0.147505,-0.123554,0.000000,0.345511,0.639363,-0.000000
2.380000,-0.830436,0.946112,-1.304002,2.517983,0.385858,0.806125,1.325703,-1.645683,-1.459535,-6.353658,2.920004,-8.582669,-10.660372,12.048297,26.718671,-0.144025,-0.117098,0.000000,0.349438,0.637789,-0.000000
2.390000,-0.805190,0.949889,-1.296013,2.530922,0.369548,0.791100,1.261632,-1.615884,-1.544028,-6.454150,3.030084,-8.312117,-9.388775,10.068078,27.456623,-0.140515,-0.110664,0.000000,0.351668,0.635542,0.000000
2.400000,-0.779817,0.953503,-1.288180,2.543215,0.353541,0.775244,1.196620,-1.585081,-1.625777,-6.541434,3.121366,-8.033536,-8.062815,8.127400,28.260730,-0.136991,-0.104259,0.000000,0.352399,0.632549,-0.000000
2.410000,-0.754325,0.956959,-1.280509,2.554854,0.337846,0.758585,1.130803,-1.553456,-1.704698,-6.615407,3.192632,-7.746903,-6.756778,6.094247,28.969671,-0.133467,-0.097891,0.000000,0.351566,0.628828,-0.000000
2.420000,-0.728720,0.960260,-1.273008,2.565831,0.322471,0.741150,1.064312,-1.521228,-1.780715,-6.676569,3.243251,-7.454143,-5.489067,4.209890,29.446215,-0.129959,-0.091568,0.000000,0.349172,0.624460,0.000000
2.430000,-0.703009,0.963409,-1.265686,2.576140,0.307422,0.722970,0.997272,-1.488591,-1.853781,-6.725188,3.276829,-7.157979,-4.243012,2.544597,29.742466,-0.126482,-0.085294,0.000000,0.345579,0.619505,0.000000
2.440000,-0.677197,0.966409,-1.258549,2.585777,0.292700,0.704075,0.929808,-1.455692,-1.923875,-6.761430,3.294143,-6.859294,-3.007638,0.772604,30.039444,-0.123046,-0.079076,0.000000,0.340879,0.613992,0.000000
2.450000,-0.651293,0.969263,-1.251604,2.594737,0.278308,0.684493,0.862043,-1.422708,-1.990967,-6.785341,3.292281,-6.557190,-1.761368,-1.163508,30.367791,-0.119664,-0.072919,0.000000,0.334834,0.607925,-0.000000
2.460000,-0.625303,0.971975,-1.244859,2.603018,0.264245,0.664255,0.794101,-1.389846,-2.055019,-6.796657,3.270872,-6.251938,-0.518910,-3.026617,30.611466,-0.116349,-0.066828,0.000000,0.327435,0.601293,0.000000
2.470000,-0.599233,0.974548,-1.238319,2.610619,0.250511,0.643393,0.726110,-1.357291,-2.116006,-6.795719,3.231749,-5.944960,0.636914,-4.716870,30.713222,-0.113114,-0.060810,0.000000,0.318860,0.594136,0.000000
2.480000,-0.573090,0.976985,-1.231991,2.617540,0.237100,0.621935,0.658187,-1.325211,-2.173918,-6.783919,3.176535,-5.637673,1.701381,-6.302803,30.717023,-0.109971,-0.054867,0.000000,0.309262,0.586578,-0.000000
2.490000,-0.546882,0.979290,-1.225880,2.623782,0.224007,0.599914,0.590432,-1.293760,-2.228759,-6.761691,3.105693,-5.330620,2.780876,-7.887284,30.701409,-0.106928,-0.049005,0.000000,0.298688,0.578653,0.000000
2.500000,-0.520615,0.981465,-1.219993,2.629348,0.211224,0.577360,0.522953,-1.263097,-2.280530,-6.728301,3.018789,-5.023645,3.901611,-9.486190,30.674083,-0.103996,-0.043226,0.000000,0.287100,0.570295,-0.000000
2.510000,-0.494295,0.983514,-1.214333,2.634241,0.198745,0.554304,0.455865,-1.233384,-2.329232,-6.683659,2.915969,-4.717138,4.985730,-11.022193,30.591454,-0.101185,-0.037535,0.000000,0.274513,0.561493,-0.000000
2.520000,-0.467930,0.985440,-1.208907,2.638466,0.186557,0.530775,0.389280,-1.204778,-2.374873,-6.628587,2.798345,-4.411816,5.970295,-12.420957,30.450378,-0.098505,-0.031937,0.000000,0.261020,0.552312,0.000000
2.530000,-0.441526,0.987245,-1.203718,2.642027,0.174649,0.506806,0.323294,-1.177418,-2.417468,-6.564253,2.667550,-4.108131,6.875159,-13.696430,30.275492,-0.095964,-0.026434,0.000000,0.246751,0.542838,0.000000
2.540000,-0.415089,0.988933,-1.198770,2.644932,0.163008,0.482426,0.257995,-1.151427,-2.457036,-6.491083,2.524417,-3.806306,7.776017,-14.934819,30.078311,-0.093569,-0.021028,0.000000,0.231764,0.533095,0.000000
2.550000,-0.388627,0.990506,-1.194069,2.647187,0.151620,0.457665,0.193472,-1.126929,-2.493595,-6.408733,2.368854,-3.506564,8.692749,-16.167862,29.842029,-0.091327,-0.015724,0.000000,0.216042,0.523046,0.000000
2.560000,-0.362145,0.991965,-1.189617,2.648801,0.140470,0.432554,0.129820,-1.104050,-2.527167,-6.317229,2.201060,-3.209466,9.571016,-17.328898,29.569888,-0.089247,-0.010522,0.000000,0.199595,0.512680,-0.000000
2.570000,-0.335651,0.993315,-1.185418,2.649783,0.129539,0.407122,0.067128,-1.082908,-2.557784,-6.217313,2.022276,-2.915167,10.354178,-18.320967,29.325699,-0.087335,-0.005428,0.000000,0.182508,0.502046,0.000000
2.580000,-0.309150,0.994556,-1.181475,2.650144,0.118812,0.381398,0.005474,-1.063604,-2.585470,-6.110145,1.834640,-2.622952,11.055976,-19.156810,29.122585,-0.085596,-0.000442,0.000000,0.164933,0.491222,-0.000000
2.590000,-0.282648,0.995691,-1.177790,2.649893,0.108267,0.355413,-0.055075,-1.046215,-2.610243,-5.996193,1.639140,-2.332715,11.747627,-19.957229,28.882890,-0.084035,0.004434,0.000000,0.146930,0.480233,-0.000000
2.600000,-0.256152,0.996722,-1.174366,2.649042,0.097887,0.329194,-0.114450,-1.030821,-2.632125,-5.875192,1.435496,-2.045294,12.445535,-20.747379,28.564147,-0.082657,0.009198,0.000000,0.128464,0.469043,-0.000000
2.610000,-0.229667,0.997649,-1.171206,2.647604,0.087651,0.302770,-0.172579,-1.017505,-2.651149,-5.747282,1.224192,-1.761432,13.100037,-21.440247,28.229816,-0.081466,0.013848,0.000000,0.109561,0.457648,0.000000
2.620000,-0.203200,0.998475,-1.168311,2.645590,0.077537,0.276171,-0.229396,-1.006338,-2.667353,-5.613192,1.006691,-1.480698,13.670050,-21.971927,28.001765,-0.080465,0.018383,0.000000,0.090314,0.446089,-0.000000
2.630000,-0.176755,0.999200,-1.165683,2.643016,0.067524,0.249423,-0.284843,-0.997371,-2.680763,-5.473881,0.784753,-1.201397,14.170780,-22.364981,27.873126,-0.079659,0.022800,0.000000,0.070830,0.434432,0.000000
2.640000,-0.150340,0.999825,-1.163323,2.639894,0.057590,0.222555,-0.338874,-0.990643,-2.691381,-5.329776,0.559391,-0.923235,14.653956,-22.695844,27.688769,-0.079048,0.027100,0.000000,0.051169,0.422697,0.000000
2.650000,-0.123958,1.000352,-1.161232,2.636238,0.047711,0.195595,-0.391439,-0.986184,-2.699227,-5.180802,0.330837,-0.647621,15.124398,-22.987618,27.396814,-0.078635,0.031282,0.000000,0.031336,0.410861,0.000000
2.660000,-0.097615,1.000779,-1.159411,2.632065,0.037866,0.168571,-0.442490,-0.984026,-2.704334,-5.027288,0.099639,-0.375299,15.547567,-23.185400,27.110024,-0.078422,0.035344,0.000000,0.011355,0.398932,0.000000
2.670000,-0.071316,1.001109,-1.157860,2.627388,0.028031,0.141509,-0.491984,-0.984191,-2.706733,-4.869851,-0.132871,-0.105421,15.914527,-23.222238,26.962538,-0.078408,0.039286,0.000000,-0.008693,0.386944,-0.000000
2.680000,-0.045067,1.001340,-1.156580,2.622225,0.018182,0.114436,-0.539887,-0.986683,-2.706442,-4.708998,-0.364806,0.163952,16.237735,-23.108606,26.927604,-0.078595,0.043107,0.000000,-0.028695,0.374929,-0.000000
2.690000,-0.018872,1.001472,-1.155571,2.616591,0.008297,0.087380,-0.586164,-0.991487,-2.703454,-4.545096,-0.595044,0.433131,16.526956,-22.931039,26.833396,-0.078982,0.046809,0.000000,-0.048586,0.362904,-0.000000
2.700000,0.007265,1.001506,-1.154833,2.610502,-0.001647,0.060367,-0.630788,-0.998584,-2.697780,-4.378458,-0.823427,0.700620,16.779086,-22.731263,26.631402,-0.079567,0.050389,0.000000,-0.068366,0.350875,0.000000
2.710000,0.033338,1.001440,-1.154364,2.603975,-0.011674,0.033424,-0.673733,-1.007956,-2.689442,-4.209514,-1.049669,0.965759,16.988735,-22.447732,26.441249,-0.080350,0.053849,0.000000,-0.088031,0.338856,0.000000
2.720000,0.059344,1.001272,-1.154164,2.597027,-0.021807,0.006578,-0.714979,-1.019577,-2.678464,-4.038684,-1.272381,1.229445,17.163523,-21.970429,26.383095,-0.081328,0.057189,0.000000,-0.107498,0.326870,-0.000000
2.730000,0.085279,1.001003,-1.154233,2.589675,-0.032066,-0.020145,-0.754507,-1.033403,-2.664853,-3.866244,-1.489077,1.493421,17.305913,-21.314580,26.423648,-0.082500,0.060409,0.000000,-0.126602,0.314933,0.000000
2.740000,0.111138,1.000631,-1.154567,2.581937,-0.042475,-0.046719,-0.792304,-1.049359,-2.648596,-3.692565,-1.698673,1.757918,17.405761,-20.627839,26.406576,-0.083861,0.063509,0.000000,-0.145279,0.303061,-0.000000
2.750000,0.136918,1.000154,-1.155167,2.573829,-0.053053,-0.073117,-0.828358,-1.067377,-2.629695,-3.518129,-1.901634,2.021553,17.463307,-19.941694,26.290535,-0.085406,0.066492,0.000000,-0.163578,0.291274,-0.000000
2.760000,0.162614,0.999570,-1.156030,2.565370,-0.063822,-0.099313,-0.862666,-1.087392,-2.608165,-3.343299,-2.097507,2.283729,17.485960,-19.157193,26.180660,-0.087133,0.069357,0.000000,-0.181477,0.279583,0.000000
2.770000,0.188225,0.998877,-1.157153,2.556576,-0.074801,-0.125280,-0.895224,-1.109327,-2.584020,-3.168410,-2.284778,2.545166,17.471064,-18.212144,26.173811,-0.089036,0.072105,0.000000,-0.198879,0.268003,-0.000000
2.780000,0.213746,0.998074,-1.158535,2.547465,-0.086009,-0.150993,-0.926034,-1.133087,-2.557262,-2.993878,-2.461750,2.807205,17.415847,-17.138353,26.236898,-0.091111,0.074738,0.000000,-0.215674,0.256564,0.000000
2.790000,0.239174,0.997157,-1.160173,2.538055,-0.097463,-0.176425,-0.955102,-1.158562,-2.527876,-2.820093,-2.627545,3.069904,17.325484,-16.017567,26.240641,-0.093351,0.077258,0.000000,-0.231808,0.245285,0.000000
2.800000,0.264507,0.996125,-1.162064,2.528363,-0.109180,-0.201551,-0.982436,-1.185638,-2.495864,-2.647368,-2.782101,3.332018,17.204621,-14.876352,26.155811,-0.095748,0.079666,0.000000,-0.247282,0.234170,0.000000
2.810000,0.289741,0.994974,-1.164204,2.518407,-0.121176,-0.226343,-1.008049,-1.214204,-2.461236,-2.476000,-2.925072,3.593020,17.049940,-13.662862,26.065619,-0.098297,0.081963,0.000000,-0.262077,0.223229,0.000000
2.820000,0.314875,0.993701,-1.166591,2.508202,-0.133464,-0.250775,-1.031956,-1.244140,-2.424003,-2.306370,-3.055358,3.853330,16.851344,-12.313306,26.030140,-0.100991,0.084152,0.000000,-0.276116,0.212482,0.000000
2.830000,0.339906,0.992304,-1.169220,2.497767,-0.146058,-0.274823,-1.054177,-1.275311,-2.384169,-2.138973,-3.171338,4.113623,16.609873,-10.842876,26.018285,-0.103820,0.086235,0.000000,-0.289283,0.201962,0.000000
2.840000,0.364830,0.990780,-1.172087,2.487119,-0.158970,-0.298459,-1.074736,-1.307566,-2.341731,-1.974172,-3.272216,4.373696,16.340100,-9.342715,25.946886,-0.106777,0.088213,0.000000,-0.301520,0.191687,0.000000
2.850000,0.389648,0.989125,-1.175189,2.476273,-0.172210,-0.321657,-1.093660,-1.340755,-2.296695,-1.812171,-3.358192,4.632561,16.045580,-7.854034,25.807083,-0.109852,0.090091,0.000000,-0.312836,0.181657,-0.000000
2.860000,0.414356,0.987336,-1.178520,2.465246,-0.185785,-0.344393,-1.110979,-1.374730,-2.249079,-1.653260,-3.429297,4.889837,15.717115,-6.319019,25.647748,-0.113035,0.091869,0.000000,-0.323232,0.171882,0.000000
2.870000,0.438953,0.985409,-1.182077,2.454053,-0.199704,-0.366639,-1.126725,-1.409341,-2.198898,-1.497829,-3.484573,5.145515,15.348773,-4.644130,25.473303,-0.116317,0.093550,0.000000,-0.332629,0.162384,0.000000
2.880000,0.463437,0.983342,-1.185853,2.442711,-0.213972,-0.388371,-1.140936,-1.444422,-2.146169,-1.346285,-3.522179,5.399303,14.943190,-2.847846,25.259009,-0.119689,0.095138,0.000000,-0.340868,0.153187,0.000000
2.890000,0.487807,0.981130,-1.189844,2.431234,-0.228593,-0.409562,-1.153651,-1.479785,-2.090912,-1.198965,-3.541530,5.650696,14.509244,-1.064444,24.994277,-0.123136,0.096636,0.000000,-0.347887,0.144306,0.000000
2.900000,0.512062,0.978770,-1.194044,2.419638,-0.243568,-0.430189,-1.164915,-1.515252,-2.033155,-1.056100,-3.543468,5.899189,14.055529,0.664687,24.694090,-0.126647,0.098046,0.000000,-0.353737,0.135749,-0.000000
2.910000,0.536200,0.976259,-1.198448,2.407936,-0.258898,-0.450225,-1.174773,-1.550654,-1.972929,-0.917855,-3.528236,6.144577,13.576497,2.423763,24.356444,-0.130212,0.099373,0.000000,-0.358423,0.127522,-0.000000
2.920000,0.560220,0.973592,-1.203049,2.396143,-0.274581,-0.469647,-1.183272,-1.585817,-1.910264,-0.784570,-3.494993,6.386318,13.049979,4.293020,23.927206,-0.133817,0.100619,0.000000,-0.361849,0.119644,-0.000000
2.930000,0.584123,0.970767,-1.207841,2.384271,-0.290614,-0.488431,-1.190465,-1.620554,-1.845202,-0.656855,-3.442376,6.623122,12.476079,6.244015,23.394012,-0.137449,0.101787,0.000000,-0.363863,0.112150,0.000000
2.940000,0.607906,0.967780,-1.212817,2.372333,-0.306992,-0.506551,-1.196409,-1.654664,-1.777801,-0.535049,-3.370113,6.854198,11.887106,8.159382,22.823581,-0.141095,0.102883,0.000000,-0.364403,0.105059,-0.000000
2.950000,0.631569,0.964627,-1.217972,2.360343,-0.323707,-0.523987,-1.201165,-1.687956,-1.708118,-0.419113,-3.279188,7.079593,11.301059,9.986623,22.261242,-0.144738,0.103909,0.000000,-0.363518,0.098365,-0.000000
2.960000,0.655113,0.961306,-1.223297,2.348310,-0.340751,-0.540714,-1.204792,-1.720248,-1.636209,-0.309027,-3.170380,7.299423,10.696456,11.796699,21.652218,-0.148366,0.104871,0.000000,-0.361240,0.092068,-0.000000
2.970000,0.678536,0.957812,-1.228786,2.336247,-0.358112,-0.556711,-1.207346,-1.751364,-1.562130,-0.205184,-3.043254,7.512638,10.030308,13.703216,20.867307,-0.151964,0.105771,0.000000,-0.357479,0.086191,-0.000000
2.980000,0.701838,0.954143,-1.234431,2.324163,-0.375778,-0.571956,-1.208895,-1.781113,-1.485957,-0.108421,-2.896316,7.716769,9.296628,15.664317,19.911223,-0.155516,0.106614,0.000000,-0.352027,0.080785,-0.000000
2.990000,0.725019,0.950296,-1.240225,2.312069,-0.393735,-0.586430,-1.209514,-1.809290,-1.407794,-0.019251,-2.729968,7.910862,8.559048,17.516401,18.952077,-0.159004,0.107406,0.000000,-0.344847,0.075889,0.000000
3.000000,0.748079,0.946269,-1.246160,2.299973,-0.411964,-0.600112,-1.209280,-1.835713,-1.327739,0.062760,-2.545988,8.095811,7.923008,19.327400,18.044458,-0.162413,0.108151,0.000000,-0.336048,0.071479,-0.000000
3.010000,0.771018,0.942057,-1.252227,2.287883,-0.430449,-0.612985,-1.208259,-1.860210,-1.245878,0.139209,-2.343420,8.271751,7.340635,21.187127,17.068306,-0.165725,0.108855,0.000000,-0.325491,0.067421,0.000000
3.020000,0.793837,0.937660,-1.258420,2.275808,-0.449168,-0.625030,-1.206496,-1.882581,-1.162304,0.209572,-2.122245,8.437177,6.526366,22.845609,15.889088,-0.168923,0.109518,0.000000,-0.313083,0.063750,0.000000
3.030000,0.816534,0.933074,-1.264728,2.263753,-0.468100,-0.636231,-1.204068,-1.902655,-1.077135,0.269736,-1.886508,8.589533,5.514302,24.267314,14.535185,-0.171987,0.110148,0.000000,-0.299064,0.060814,0.000000
3.040000,0.839112,0.928298,-1.271144,2.251726,-0.487221,-0.646573,-1.201101,-1.920311,-0.990514,0.319858,-1.636899,8.727880,4.694842,25.784781,13.181120,-0.174903,0.110753,0.000000,-0.283408,0.058608,0.000000
3.050000,0.861569,0.923329,-1.277659,2.239731,-0.506507,-0.656041,-1.197671,-1.935393,-0.902577,0.363633,-1.370812,8.853155,3.931429,27.320615,11.892528,-0.177654,0.111338,0.000000,-0.265825,0.056820,0.000000
3.060000,0.883906,0.918168,-1.284265,2.227773,-0.525929,-0.664624,-1.193829,-1.947727,-0.813451,0.398487,-1.090487,8.965731,2.981751,28.646575,10.548518,-0.180219,0.111907,0.000000,-0.246432,0.055699,0.000000
3.070000,0.906124,0.912811,-1.290952,2.215855,-0.545461,-0.672310,-1.189701,-1.957203,-0.723263,0.423268,-0.797880,9.064126,2.337539,30.051671,8.982507,-0.182581,0.112470,0.000000,-0.225301,0.055356,0.000000
3.080000,0.928223,0.907258,-1.297711,2.203979,-0.565073,-0.679089,-1.185363,-1.963685,-0.632168,0.445238,-0.489453,9.145381,2.103180,31.606136,7.223417,-0.184723,0.113033,0.000000,-0.201981,0.055105,-0.000000
3.090000,0.950204,0.901509,-1.304534,2.192147,-0.584735,-0.684954,-1.180796,-1.966992,-0.540355,0.465332,-0.165758,9.208594,1.587213,32.878842,5.495654,-0.186619,0.113592,0.000000,-0.176408,0.054845,0.000000
3.100000,0.972066,0.895564,-1.311410,2.180363,-0.604413,-0.689896,-1.176057,-1.967000,-0.447996,0.476982,0.168124,9.255294,0.738928,33.900628,3.883115,-0.188249,0.114149,0.000000,-0.148967,0.055211,0.000000
3.110000,0.993811,0.889421,-1.318332,2.168626,-0.624075,-0.693913,-1.171257,-1.963629,-0.355249,0.480110,0.512255,9.286256,0.029539,34.946258,2.234525,-0.189596,0.114716,0.000000,-0.119576,0.056241,-0.000000
3.120000,1.015439,0.883082,-1.325289,2.156938,-0.643686,-0.697001,-1.166454,-1.956755,-0.262271,0.477573,0.867049,9.299985,-0.583422,35.768358,0.351091,-0.190638,0.115295,0.000000,-0.088081,0.057663,-0.000000
3.130000,1.036950,0.876547,-1.332272,2.145297,-0.663210,-0.699159,-1.161705,-1.946288,-0.169249,0.468442,1.227622,9.293278,-1.292397,36.229379,-1.720685,-0.191355,0.115890,0.000000,-0.054792,0.059540,0.000000
3.140000,1.058345,0.869818,-1.339272,2.133704,-0.682612,-0.700386,-1.157086,-1.932203,-0.076406,0.451725,1.591636,9.265571,-1.991070,36.683322,-3.709365,-0.191731,0.116508,0.000000,-0.019843,0.061975,-0.000000
3.150000,1.079624,0.862895,-1.346279,2.122155,-0.701854,-0.700687,-1.152671,-1.914455,0.016062,0.428620,1.961288,9.219091,-2.468873,37.328414,-5.557622,-0.191748,0.117153,0.000000,0.017013,0.064893,-0.000000
3.160000,1.100788,0.855781,-1.353286,2.110650,-0.720901,-0.700065,-1.148513,-1.892977,0.107976,0.402347,2.338205,9.154419,-2.819239,37.897858,-7.440550,-0.191387,0.117830,0.000000,0.055995,0.067992,-0.000000
3.170000,1.121837,0.848477,-1.360281,2.099185,-0.739714,-0.698527,-1.144624,-1.867691,0.199150,0.372236,2.719246,9.070280,-3.561203,37.916097,-9.463018,-0.190625,0.118539,0.000000,0.096897,0.071322,0.000000
3.180000,1.142772,0.840987,-1.367256,2.087758,-0.758255,-0.696082,-1.141068,-1.838592,0.289382,0.331123,3.096527,8.965158,-4.659731,37.461663,-11.559110,-0.189445,0.119283,0.000000,0.139033,0.075597,0.000000
3.190000,1.163592,0.833312,-1.374202,2.076364,-0.776485,-0.692740,-1.138001,-1.805761,0.378454,0.279041,3.468479,8.839098,-5.408462,37.156485,-13.583839,-0.187840,0.120079,0.000000,0.182266,0.080848,0.000000
3.200000,1.184299,0.825457,-1.381111,2.064998,-0.794370,-0.688513,-1.135488,-1.769222,0.466164,0.222954,3.839656,8.693481,-5.879167,36.995677,-15.520298,-0.185796,0.120930,0.000000,0.227034,0.086392,-0.000000
3.210000,1.204892,0.817425,-1.387973,2.053654,-0.811870,-0.683417,-1.133542,-1.728968,0.552323,0.161458,4.208392,8.528692,-6.530381,36.564517,-17.451565,-0.183295,0.121837,0.000000,0.273180,0.092379,-0.000000
3.220000,1.225372,0.809219,-1.394779,2.042327,-0.828949,-0.677467,-1.132259,-1.685055,0.636738,0.092346,4.570947,8.344450,-6.991319,35.978500,-19.389877,-0.180328,0.122809,0.000000,0.320320,0.099045,-0.000000
3.230000,1.245739,0.800846,-1.401522,2.031009,-0.845571,-0.670682,-1.131695,-1.637549,0.719212,0.021631,4.927962,8.140894,-7.077451,35.372048,-21.292375,-0.176885,0.123851,0.000000,0.368473,0.105760,0.000000
3.240000,1.265992,0.792308,-1.408193,2.019693,-0.861700,-0.663082,-1.131826,-1.586495,0.799556,-0.049203,5.278388,7.918603,-7.331260,34.554569,-23.131286,-0.172955,0.124958,0.000000,0.417471,0.112351,0.000000
3.250000,1.286133,0.783612,-1.414784,2.008372,-0.877301,-0.654691,-1.132679,-1.531981,0.877584,-0.124994,5.619054,7.678268,-7.847152,33.608981,-24.924651,-0.168532,0.126132,0.000000,0.466904,0.119333,0.000000
3.260000,1.306160,0.774762,-1.421287,1.997039,-0.892340,-0.645531,-1.134326,-1.474114,0.953121,-0.206146,5.950567,7.420110,-8.243999,32.661824,-26.673786,-0.163613,0.127379,0.000000,0.516740,0.126749,0.000000
3.270000,1.326073,0.765765,-1.427694,1.985686,-0.906783,-0.635628,-1.136802,-1.412970,1.025987,-0.289874,6.272290,7.144793,-8.424296,31.375942,-28.301061,-0.158194,0.128702,0.000000,0.566779,0.134291,-0.000000
3.280000,1.345873,0.756626,-1.433999,1.974303,-0.920599,-0.625011,-1.140123,-1.348668,1.096017,-0.374632,6.578086,6.854088,-8.513899,29.690292,-29.784769,-0.152275,0.130099,0.000000,0.616170,0.141789,-0.000000
3.290000,1.365559,0.747353,-1.440194,1.962883,-0.933757,-0.613708,-1.144295,-1.281408,1.163068,-0.460152,6.866096,6.549097,-8.609553,28.088048,-31.214895,-0.145868,0.131571,0.000000,0.664508,0.149203,0.000000
3.300000,1.385131,0.737951,-1.446273,1.951417,-0.946227,-0.601750,-1.149326,-1.211347,1.226999,-0.546823,7.139847,6.229790,-8.720708,26.671562,-32.647787,-0.138983,0.133115,0.000000,0.711996,0.156545,0.000000
3.310000,1.404588,0.728428,-1.452229,1.939897,-0.957984,-0.589168,-1.155231,-1.138611,1.287664,-0.634566,7.399527,5.896142,-8.784279,25.114859,-34.004827,-0.131627,0.134732,0.000000,0.758458,0.163776,0.000000
3.320000,1.423929,0.718792,-1.458057,1.928313,-0.968999,-0.575996,-1.162018,-1.063356,1.344922,-0.722508,7.642144,5.549694,-8.740015,23.264227,-35.115794,-0.123813,0.136419,0.000000,0.803307,0.170786,0.000000
3.330000,1.443154,0.709048,-1.463749,1.916657,-0.979251,-0.562270,-1.169681,-0.985768,1.398658,-0.809366,7.864812,5.193826,-8.610904,21.235568,-35.984600,-0.115561,0.138174,0.000000,0.845923,0.177444,-0.000000
3.340000,1.462262,0.699207,-1.469302,1.904919,-0.988715,-0.548023,-1.178205,-0.906060,1.448798,-0.894726,8.066856,4.830002,-8.473860,19.225274,-36.825393,-0.106896,0.139992,0.000000,0.885963,0.183688,-0.000000
3.350000,1.481252,0.689274,-1.474710,1.893092,-0.997372,-0.533294,-1.187576,-0.824431,1.495258,-0.978844,8.249317,4.457318,-8.309554,17.248702,-37.710778,-0.097843,0.141868,0.000000,0.923318,0.189495,-0.000000
3.360000,1.500124,0.679259,-1.479968,1.881168,-1.005203,-0.518118,-1.197782,-0.741073,1.537944,-1.060917,8.411830,4.075786,-8.069444,15.188975,-38.482176,-0.088432,0.143799,0.000000,0.957697,0.194735,0.000000
3.370000,1.518876,0.669170,-1.485072,1.869137,-1.012193,-0.502535,-1.208794,-0.656194,1.576774,-1.140232,8.553097,3.687674,-7.819174,13.026159,-38.946912,-0.078693,0.145778,0.000000,0.988680,0.199323,-0.000000
3.380000,1.537507,0.659015,-1.490019,1.856992,-1.018327,-0.486583,-1.220586,-0.570011,1.611698,-1.217301,8.672353,3.296848,-7.564233,10.796930,-39.134012,-0.068662,0.147797,0.000000,1.015918,0.203355,-0.000000
3.390000,1.556016,0.648803,-1.494804,1.844725,-1.023594,-0.470301,-1.233140,-0.482747,1.642711,-1.291517,8.769036,2.904994,-7.214575,8.540659,-39.288884,-0.058379,0.149853,0.000000,1.039135,0.206762,-0.000000
3.400000,1.574401,0.638543,-1.499425,1.832329,-1.027982,-0.453728,-1.246417,-0.394631,1.669798,-1.361592,8.843166,2.511070,-6.866588,6.365911,-39.526527,-0.047884,0.151939,0.000000,1.058167,0.209347,0.000000
3.410000,1.592662,0.628244,-1.503878,1.819797,-1.031486,-0.436905,-1.260372,-0.305884,1.692932,-1.428849,8.896354,2.114464,-6.574064,4.254038,-39.670033,-0.037221,0.154044,0.000000,1.073062,0.211236,0.000000
3.420000,1.610797,0.617914,-1.508163,1.807122,-1.034100,-0.419870,-1.274994,-0.216704,1.712087,-1.493074,8.928247,1.717670,-6.032918,1.916130,-39.411300,-0.026429,0.156165,0.000000,1.083640,0.212432,-0.000000
3.430000,1.628805,0.607562,-1.512276,1.794297,-1.035820,-0.402663,-1.290234,-0.127319,1.727285,-1.549507,8.934676,1.326238,-5.212139,-0.623229,-38.793010,-0.015554,0.158293,0.000000,1.089297,0.212459,-0.000000
3.440000,1.646683,0.597197,-1.516216,1.781317,-1.036646,-0.385324,-1.305984,-0.038010,1.738612,-1.597316,8.915782,0.941810,-4.540142,-2.948099,-38.224619,-0.004649,0.160414,0.000000,1.090027,0.211246,-0.000000
3.450000,1.664431,0.586829,-1.519982,1.768177,-1.036580,-0.367891,-1.322180,0.050997,1.746122,-1.640310,8.875714,0.561745,-4.082840,-5.124353,-37.789284,0.006241,0.162517,0.000000,1.086351,0.209208,-0.000000
3.460000,1.682047,0.576466,-1.523574,1.754873,-1.035626,-0.350402,-1.338790,0.139504,1.749847,-1.678973,8.813295,0.186024,-3.553218,-7.404669,-37.210360,0.017072,0.164597,0.000000,1.078156,0.206413,-0.000000
3.470000,1.699528,0.566116,-1.526990,1.741401,-1.033790,-0.332894,-1.355759,0.227262,1.749842,-1.711374,8.727621,-0.182462,-2.878189,-9.464861,-36.321374,0.027798,0.166645,0.000000,1.065408,0.202702,-0.000000
3.480000,1.716875,0.555790,-1.530232,1.727758,-1.031081,-0.315405,-1.373018,0.314057,1.746197,-1.736537,8.623998,-0.540404,-2.178040,-11.171527,-35.212868,0.038375,0.168652,0.000000,1.048882,0.198047,0.000000
3.490000,1.734084,0.545495,-1.533298,1.713941,-1.027509,-0.297970,-1.390490,0.399742,1.739034,-1.754935,8.504190,-0.886719,-1.534190,-12.973255,-34.098681,0.048771,0.170608,0.000000,1.028944,0.192559,0.000000
3.500000,1.751153,0.535240,-1.536191,1.699948,-1.023086,-0.280624,-1.408116,0.484140,1.728463,-1.767221,8.364533,-1.222377,-0.828007,-15.045665,-33.025147,0.058949,0.172507,0.000000,1.005308,0.186328,-0.000000
3.510000,1.768083,0.525033,-1.538911,1.685779,-1.017826,-0.263401,-1.425834,0.567033,1.714587,-1.771495,8.203277,-1.547222,-0.026389,-17.054908,-31.856453,0.068873,0.174341,0.000000,0.977944,0.179168,-0.000000
3.520000,1.784869,0.514883,-1.541459,1.671432,-1.011746,-0.246332,-1.443546,0.648206,1.697519,-1.767748,8.023435,-1.859506,0.531282,-18.597253,-30.485997,0.078505,0.176098,0.000000,0.947430,0.171153,-0.000000
3.530000,1.801511,0.504798,-1.543838,1.656908,-1.004862,-0.229450,-1.461189,0.727502,1.677396,-1.760870,7.831332,-2.156942,0.819832,-19.768211,-28.959736,0.087819,0.177774,0.000000,0.914748,0.162956,0.000000
3.540000,1.818007,0.494786,-1.546048,1.642208,-0.997196,-0.212784,-1.478764,0.804833,1.654380,-1.751352,7.628070,-2.438701,1.299611,-21.078348,-27.427903,0.096798,0.179370,0.000000,0.880238,0.154687,-0.000000
3.550000,1.834355,0.484854,-1.548093,1.627333,-0.988766,-0.196363,-1.496216,0.880063,1.628622,-1.734877,7.409765,-2.705500,1.982286,-22.542025,-25.944601,0.105422,0.180882,0.000000,0.843635,0.145855,-0.000000
3.560000,1.850554,0.475011,-1.549975,1.612284,-0.979594,-0.180212,-1.513461,0.953028,1.600270,-1.711706,7.177230,-2.957593,2.554110,-23.811939,-24.418445,0.113669,0.182303,0.000000,0.805234,0.136528,-0.000000
3.570000,1.866601,0.465262,-1.551697,1.597063,-0.969705,-0.164357,-1.530451,1.023608,1.569471,-1.683795,6.933526,-3.193869,3.082158,-24.900912,-22.733709,0.121526,0.183630,0.000000,0.765592,0.126992,0.000000
3.580000,1.882495,0.455616,-1.553263,1.581675,-0.959122,-0.148823,-1.547137,1.091698,1.536392,-1.650063,6.679212,-3.412267,3.676892,-25.912362,-20.934288,0.128981,0.184862,0.000000,0.724982,0.117200,-0.000000
3.590000,1.898234,0.446080,-1.554674,1.566121,-0.947871,-0.133629,-1.563452,1.157192,1.501225,-1.610257,6.415279,-3.612555,4.214300,-26.795409,-19.188403,0.136026,0.185994,0.000000,0.683689,0.107160,-0.000000
3.600000,1.913818,0.436659,-1.555935,1.550405,-0.935978,-0.118798,-1.579342,1.220004,1.464141,-1.565777,6.143304,-3.796035,4.669483,-27.639373,-17.473307,0.142656,0.187025,0.000000,0.642015,0.097033,0.000000
3.610000,1.929243,0.427360,-1.557050,1.534534,-0.923471,-0.104347,-1.594767,1.280058,1.425304,-1.516868,5.862492,-3.962021,5.127980,-28.470922,-15.694402,0.148868,0.187955,0.000000,0.600005,0.086884,-0.000000
3.620000,1.944508,0.418190,-1.558022,1.518510,-0.910377,-0.090292,-1.609680,1.337254,1.384901,-1.463217,5.573885,-4.109923,5.584725,-28.965407,-13.974144,0.154658,0.188783,0.000000,0.557902,0.076711,0.000000
3.630000,1.959613,0.409153,-1.558856,1.502340,-0.896726,-0.076649,-1.624032,1.391536,1.343106,-1.405173,5.283183,-4.241504,6.003221,-29.096792,-12.368580,0.160028,0.189508,0.000000,0.516412,0.066533,-0.000000
3.640000,1.974555,0.400255,-1.559555,1.486029,-0.882546,-0.063430,-1.637783,1.442917,1.300071,-1.343153,4.991949,-4.357295,6.395849,-29.315145,-10.718476,0.164988,0.190131,0.000000,0.475758,0.056398,0.000000
3.650000,1.989333,0.391502,-1.560124,1.469584,-0.867868,-0.050647,-1.650895,1.491375,1.255960,-1.277256,4.696881,-4.455874,6.795323,-29.691641,-8.960818,0.169545,0.190652,0.000000,0.435640,0.046357,0.000000
3.660000,2.003947,0.382898,-1.560568,1.453012,-0.852719,-0.038311,-1.663328,1.536855,1.210953,-1.207246,4.398116,-4.536511,7.187070,-29.921244,-7.222466,0.173703,0.191072,0.000000,0.396134,0.036407,-0.000000
3.670000,2.018394,0.374447,-1.560891,1.436318,-0.837131,-0.026428,-1.675040,1.579337,1.165230,-1.133515,4.098456,-4.600323,7.485644,-29.909423,-5.665000,0.177470,0.191392,0.000000,0.357554,0.026573,0.000000
3.680000,2.032673,0.366155,-1.561097,1.419511,-0.821132,-0.015006,-1.685998,1.618824,1.118947,-1.057534,3.799928,-4.649811,7.689373,-29.762585,-4.266186,0.180856,0.191612,0.000000,0.320078,0.016962,-0.000000
3.690000,2.046784,0.358025,-1.561191,1.402598,-0.804754,-0.004049,-1.696190,1.655336,1.072234,-0.979727,3.503204,-4.685647,7.912708,-29.590754,-2.828813,0.183874,0.191737,0.000000,0.283757,0.007605,0.000000
3.700000,2.060725,0.350060,-1.561178,1.385587,-0.788026,0.006439,-1.705593,1.688888,1.025234,-0.899279,3.208113,-4.706388,8.180593,-29.401972,-1.292744,0.186534,0.191768,0.000000,0.248590,-0.001561,-0.000000
3.710000,2.074496,0.342264,-1.561062,1.368486,-0.770976,0.016455,-1.714176,1.719498,0.978106,-0.816116,2.915165,-4.711501,8.413260,-29.131745,0.195963,0.188848,0.191706,0.000000,0.214625,-0.010539,-0.000000
3.720000,2.088095,0.334640,-1.560848,1.351303,-0.753636,0.026001,-1.721915,1.747192,0.931004,-0.731014,2.625478,-4.702468,8.560241,-28.753658,1.469900,0.190828,0.191554,0.000000,0.181923,-0.019283,0.000000
3.730000,2.101522,0.327192,-1.560542,1.334048,-0.736032,0.035076,-1.728796,1.772007,0.884057,-0.644911,2.340091,-4.682103,8.645286,-28.296444,2.561223,0.192488,0.191313,0.000000,0.150500,-0.027761,0.000000
3.740000,2.114776,0.319920,-1.560147,1.316728,-0.718195,0.043682,-1.734814,1.793993,0.837362,-0.558109,2.059549,-4.651244,8.731067,-27.800904,3.679119,0.193840,0.190988,0.000000,0.120355,-0.035968,0.000000
3.750000,2.127856,0.312828,-1.559668,1.299351,-0.700153,0.051823,-1.739958,1.813198,0.791032,-0.470289,1.784073,-4.608521,8.836140,-27.262128,4.883804,0.194897,0.190581,0.000000,0.091502,-0.043921,-0.000000
3.760000,2.140763,0.305917,-1.559110,1.281928,-0.681931,0.059503,-1.744219,1.829675,0.745191,-0.381386,1.514307,-4.553568,8.918296,-26.662257,6.025883,0.195672,0.190093,0.000000,0.063972,-0.051631,0.000000
3.770000,2.153495,0.299189,-1.558478,1.264467,-0.663559,0.066727,-1.747586,1.843485,0.699960,-0.291923,1.250828,-4.488003,8.928338,-26.033022,6.947109,0.196178,0.189528,0.000000,0.037744,-0.059088,0.000000
3.780000,2.166052,0.292646,-1.557776,1.246977,-0.645062,0.073502,-1.750058,1.854691,0.655431,-0.202819,0.993646,-4.414626,8.882369,-25.390864,7.688147,0.196428,0.188889,0.000000,0.012716,-0.066264,-0.000000
3.790000,2.178434,0.286288,-1.557008,1.229466,-0.626465,0.079835,-1.751643,1.863358,0.611668,-0.114276,0.743011,-4.334240,8.845509,-24.700776,8.450180,0.196433,0.188177,0.000000,-0.011149,-0.073167,-0.000000
3.800000,2.190641,0.280116,-1.556179,1.211944,-0.607795,0.085735,-1.752343,1.869552,0.568747,-0.025909,0.499631,-4.245622,8.806543,-23.942825,9.268061,0.196206,0.187397,0.000000,-0.033795,-0.079825,-0.000000
3.810000,2.202673,0.274132,-1.555293,1.194419,-0.589074,0.091210,-1.752161,1.873350,0.526755,0.061855,0.264154,-4.148879,8.724964,-23.150435,10.004204,0.195758,0.186550,0.000000,-0.055202,-0.086207,0.000000
3.820000,2.214530,0.268335,-1.554355,1.176901,-0.570328,0.096270,-1.751106,1.874835,0.485769,0.148591,0.036622,-4.045538,8.645625,-22.387318,10.579978,0.195103,0.185639,0.000000,-0.075442,-0.092314,-0.000000
3.830000,2.226211,0.262725,-1.553368,1.159397,-0.551578,0.100926,-1.749189,1.874083,0.445845,0.234767,-0.183592,-3.937280,8.584486,-21.652747,11.037529,0.194250,0.184668,0.000000,-0.094648,-0.098235,0.000000
3.840000,2.237718,0.257303,-1.552337,1.141917,-0.532846,0.105187,-1.746411,1.871163,0.407023,0.320280,-0.396433,-3.824787,8.478740,-20.870935,11.474179,0.193210,0.183637,0.000000,-0.112865,-0.103983,-0.000000
3.850000,2.249050,0.252068,-1.551264,1.124469,-0.514154,0.109066,-1.742783,1.866154,0.369349,0.404342,-0.601011,-3.707796,8.330546,-20.017634,11.917768,0.191993,0.182549,0.000000,-0.130034,-0.109483,0.000000
3.860000,2.260207,0.247020,-1.550155,1.107061,-0.495523,0.112574,-1.738324,1.859143,0.332867,0.486891,-0.796786,-3.586432,8.183709,-19.152065,12.303663,0.190610,0.181407,0.000000,-0.146137,-0.114740,0.000000
3.870000,2.271191,0.242158,-1.549013,1.089702,-0.476971,0.115723,-1.733046,1.850218,0.297620,0.568016,-0.984052,-3.461723,8.015005,-18.345443,12.557476,0.189071,0.180212,0.000000,-0.161255,-0.119793,0.000000
3.880000,2.282001,0.237481,-1.547841,1.072400,-0.458519,0.118526,-1.726964,1.839462,0.263633,0.647191,-1.163695,-3.335282,7.807220,-17.586703,12.699229,0.187385,0.178967,0.000000,-0.175536,-0.124626,0.000000
3.890000,2.292639,0.232988,-1.546642,1.055163,-0.440182,0.120996,-1.720102,1.826944,0.230915,0.724161,-1.335786,-3.207738,7.598750,-16.789933,12.829667,0.185560,0.177675,0.000000,-0.189021,-0.129233,-0.000000
3.900000,2.303104,0.228677,-1.545421,1.037998,-0.421980,0.123145,-1.712480,1.812746,0.199478,0.799166,-1.499493,-3.078689,7.410677,-15.932757,12.969978,0.183605,0.176337,0.000000,-0.201643,-0.133637,-0.000000
3.910000,2.313399,0.224548,-1.544179,1.020913,-0.403927,0.124986,-1.704118,1.796954,0.169341,0.872374,-1.654441,-2.948339,7.216839,-15.078955,13.055247,0.181527,0.174956,0.000000,-0.213388,-0.137865,-0.000000
3.920000,2.323523,0.220599,-1.542921,1.003916,-0.386041,0.126532,-1.695033,1.779657,0.140511,0.943503,-1.801072,-2.817584,6.974710,-14.291889,13.045762,0.179337,0.173534,0.000000,-0.224334,-0.141910,0.000000
3.930000,2.333477,0.216827,-1.541649,0.987013,-0.368334,0.127796,-1.685248,1.760933,0.112989,1.011868,-1.940279,-2.687423,6.696656,-13.556707,12.967748,0.177040,0.172072,0.000000,-0.234607,-0.145727,-0.000000
3.940000,2.343263,0.213232,-1.540365,0.970211,-0.350822,0.128791,-1.674796,1.740852,0.086763,1.077436,-2.072206,-2.558229,6.440848,-12.796486,12.875528,0.174645,0.170573,0.000000,-0.244237,-0.149324,0.000000
3.950000,2.352881,0.209811,-1.539073,0.953517,-0.333517,0.129531,-1.663700,1.719489,0.061825,1.140685,-2.196209,-2.429913,6.189693,-11.993049,12.761893,0.172156,0.169039,0.000000,-0.253170,-0.152750,0.000000
3.960000,2.362333,0.206562,-1.537775,0.936937,-0.316432,0.130028,-1.651982,1.696927,0.038165,1.201230,-2.312067,-2.302991,5.908405,-11.202006,12.596696,0.169581,0.167472,0.000000,-0.261404,-0.155978,0.000000
3.970000,2.371620,0.203482,-1.536472,0.920477,-0.299579,0.130294,-1.639675,1.673247,0.015765,1.258853,-2.420249,-2.177979,5.662407,-10.473717,12.414196,0.166927,0.165874,0.000000,-0.269001,-0.158998,0.000000
3.980000,2.380743,0.200570,-1.535169,0.904143,-0.282967,0.130343,-1.626805,1.648522,-0.005395,1.314478,-2.521542,-2.054707,5.468378,-9.793759,12.230576,0.164201,0.164247,0.000000,-0.276039,-0.161900,-0.000000
3.990000,2.389703,0.197823,-1.533866,0.887941,-0.266608,0.130187,-1.613385,1.622817,-0.025329,1.368221,-2.616124,-1.933367,5.235886,-9.100455,12.002380,0.161406,0.162592,0.000000,-0.282543,-0.164700,-0.000000
4.000000,2.398502,0.195238,-1.532565,0.871876,-0.250511,0.129837,-1.599440,1.596200,-0.044062,1.419196,-2.703551,-1.814660,4.953340,-8.381418,11.722229,0.158549,0.160910,0.000000,-0.288487,-0.167322,0.000000
4.010000,2.407140,0.192813,-1.531269,0.855952,-0.234684,0.129305,-1.585001,1.568746,-0.061623,1.467288,-2.783752,-1.698923,4.684332,-7.680197,11.424951,0.155636,0.159203,0.000000,-0.293869,-0.169763,0.000000
4.020000,2.415621,0.190544,-1.529979,0.840176,-0.219136,0.128604,-1.570095,1.540525,-0.078041,1.512882,-2.857155,-1.586161,4.440430,-7.029755,11.127611,0.152672,0.157473,0.000000,-0.298732,-0.172059,-0.000000
4.030000,2.423944,0.188430,-1.528697,0.824550,-0.203874,0.127744,-1.554744,1.511603,-0.093346,1.556096,-2.924347,-1.476371,4.200843,-6.417655,10.823423,0.149661,0.155721,0.000000,-0.303132,-0.174220,0.000000
4.040000,2.432112,0.186467,-1.527424,0.809081,-0.188904,0.126737,-1.538973,1.482038,-0.107568,1.596899,-2.985508,-1.369692,3.956962,-5.803661,10.497535,0.146609,0.153949,0.000000,-0.307087,-0.176247,0.000000
4.050000,2.440125,0.184652,-1.526162,0.793771,-0.174233,0.125593,-1.522806,1.451892,-0.120740,1.635236,-3.040421,-1.266420,3.709999,-5.181124,10.141713,0.143519,0.152157,0.000000,-0.310580,-0.178136,0.000000
4.060000,2.447987,0.182982,-1.524912,0.778625,-0.159866,0.124322,-1.506268,1.421229,-0.132896,1.671099,-3.089130,-1.166858,3.466039,-4.577835,9.770531,0.140397,0.150349,0.000000,-0.313614,-0.179891,-0.000000
4.070000,2.455698,0.181454,-1.523675,0.763646,-0.145808,0.122935,-1.489384,1.390110,-0.144077,1.704556,-3.131977,-1.071009,3.230502,-4.011287,9.417864,0.137247,0.148524,0.000000,-0.316220,-0.181516,-0.000000
4.080000,2.463260,0.180066,-1.522453,0.748837,-0.132064,0.121441,-1.472177,1.358590,-0.154317,1.735709,-3.169356,-0.978501,3.002664,-3.472963,9.084388,0.134072,0.146684,0.000000,-0.318427,-0.183013,-0.000000
4.090000,2.470675,0.178813,-1.521247,0.734202,-0.118636,0.119849,-1.454670,1.326723,-0.163647,1.764610,-3.201437,-0.889322,2.776568,-2.941613,8.729398,0.130878,0.144830,0.000000,-0.320247,-0.184386,-0.000000
4.100000,2.477944,0.177693,-1.520056,0.719744,-0.105529,0.118168,-1.436885,1.294561,-0.172103,1.791241,-3.228188,-0.803913,2.548624,-2.414371,8.339941,0.127667,0.142964,0.000000,-0.321678,-0.185637,-0.000000
4.110000,2.485070,0.176703,-1.518883,0.705464,-0.092745,0.116407,-1.418845,1.262159,-0.179725,1.815582,-3.249724,-0.722523,2.323849,-1.905527,7.947698,0.124444,0.141087,0.000000,-0.322728,-0.186765,0.000000
4.120000,2.492053,0.175838,-1.517728,0.691367,-0.080286,0.114573,-1.400573,1.229567,-0.186554,1.837718,-3.266299,-0.644959,2.113665,-1.422522,7.589932,0.121212,0.139200,0.000000,-0.323414,-0.187773,0.000000
4.130000,2.498897,0.175097,-1.516592,0.677453,-0.068154,0.112676,-1.382091,1.196833,-0.192624,1.857855,-3.278175,-0.570724,1.917669,-0.960637,7.260633,0.117975,0.137303,0.000000,-0.323750,-0.188673,0.000000
4.140000,2.505602,0.174475,-1.515475,0.663725,-0.056350,0.110721,-1.363416,1.164003,-0.197968,1.876071,-3.285512,-0.499746,1.721303,-0.510774,6.914866,0.114737,0.135400,0.000000,-0.323746,-0.189467,0.000000
4.150000,2.512171,0.173970,-1.514377,0.650185,-0.044874,0.108716,-1.344569,1.131123,-0.202619,1.892282,-3.288390,-0.432427,1.520518,-0.072178,6.540560,0.111500,0.133489,0.000000,-0.323407,-0.190151,-0.000000
4.160000,2.518606,0.173578,-1.513300,0.636833,-0.033727,0.106669,-1.325570,1.098235,-0.206617,1.906481,-3.286955,-0.368935,1.325863,0.349335,6.171049,0.108269,0.131573,0.000000,-0.322745,-0.190723,0.000000
4.170000,2.524908,0.173295,-1.512244,0.623673,-0.022909,0.104584,-1.306439,1.065384,-0.209998,1.918799,-3.281403,-0.309006,1.147505,0.752093,5.840579,0.105045,0.129652,0.000000,-0.321769,-0.191190,-0.000000
4.180000,2.531079,0.173119,-1.511209,0.610705,-0.012419,0.102469,-1.287194,1.032607,-0.212797,1.929432,-3.271913,-0.252123,0.982706,1.138298,5.541451,0.101833,0.127728,0.000000,-0.320485,-0.191561,-0.000000
4.190000,2.537122,0.173047,-1.510195,0.597929,-0.002257,0.100328,-1.267851,0.999945,-0.215040,1.938453,-3.258637,-0.198177,0.818795,1.510086,5.231814,0.098635,0.125801,0.000000,-0.318902,-0.191841,0.000000
4.200000,2.543038,0.173074,-1.509202,0.585348,0.007580,0.098168,-1.248425,0.967435,-0.216760,1.945807,-3.241712,-0.147487,0.653133,1.867295,4.901493,0.095455,0.123872,0.000000,-0.317031,-0.192024,0.000000
4.210000,2.548829,0.173198,-1.508231,0.572961,0.017092,0.095993,-1.228935,0.935111,-0.217990,1.951516,-3.221291,-0.100147,0.494590,2.208865,4.580638,0.092295,0.121942,0.000000,-0.314883,-0.192112,0.000000
4.220000,2.554497,0.173416,-1.507282,0.560769,0.026282,0.093808,-1.209395,0.903009,-0.218763,1.955699,-3.197534,-0.055874,0.349804,2.535569,4.297065,0.089157,0.120013,0.000000,-0.312465,-0.192110,0.000000
4.230000,2.560045,0.173724,-1.506355,0.548773,0.035152,0.091618,-1.189821,0.871160,-0.219108,1.958512,-3.170580,-0.014206,0.216548,2.848175,4.043160,0.086045,0.118085,0.000000,-0.309781,-0.192025,0.000000
4.240000,2.565473,0.174119,-1.505450,0.536973,0.043705,0.089426,-1.170225,0.839597,-0.219047,1.960030,-3.140571,0.024989,0.086492,3.145895,3.784523,0.082962,0.116158,0.000000,-0.306841,-0.191861,0.000000
4.250000,2.570784,0.174598,-1.504567,0.525368,0.051944,0.087237,-1.150620,0.808349,-0.218608,1.960242,-3.107662,0.061485,-0.044743,3.427766,3.512222,0.079908,0.114234,0.000000,-0.303656,-0.191618,-0.000000
4.260000,2.575980,0.175158,-1.503705,0.513960,0.059872,0.085054,-1.131020,0.777444,-0.217818,1.959135,-3.072016,0.095233,-0.171288,3.694714,3.250541,0.076888,0.112314,0.000000,-0.300238,-0.191291,0.000000
4.270000,2.581063,0.175796,-1.502866,0.502748,0.067493,0.082880,-1.111437,0.746909,-0.216703,1.956816,-3.033768,0.126496,-0.281127,3.949796,3.023251,0.073904,0.110397,0.000000,-0.296596,-0.190888,0.000000
4.280000,2.586035,0.176508,-1.502048,0.491731,0.074810,0.080720,-1.091884,0.716769,-0.215288,1.953513,-2.993020,0.155698,-0.375891,4.192922,2.823622,0.070956,0.108485,0.000000,-0.292731,-0.190422,0.000000
4.290000,2.590898,0.177292,-1.501251,0.480910,0.081828,0.078575,-1.072367,0.687048,-0.213589,1.949298,-2.949909,0.182968,-0.471809,4.420354,2.621467,0.068049,0.106579,0.000000,-0.288654,-0.189899,-0.000000
4.300000,2.595653,0.178144,-1.500476,0.470284,0.088551,0.076448,-1.052898,0.657770,-0.211628,1.944077,-2.904613,0.208128,-0.570610,4.632540,2.410921,0.065183,0.104679,0.000000,-0.284379,-0.189309,0.000000
4.310000,2.600303,0.179063,-1.499722,0.459852,0.094984,0.074342,-1.033486,0.628956,-0.209427,1.937886,-2.857259,0.231186,-0.661575,4.832195,2.212561,0.062361,0.102785,0.000000,-0.279917,-0.188654,-0.000000
4.320000,2.604850,0.180044,-1.498989,0.449614,0.101130,0.072259,-1.014140,0.600625,-0.207005,1.930845,-2.807969,0.252379,-0.743185,5.017802,2.040098,0.059585,0.100898,0.000000,-0.275275,-0.187942,-0.000000
4.330000,2.609296,0.181085,-1.498277,0.439570,0.106996,0.070202,-0.994869,0.572797,-0.204379,1.923022,-2.756903,0.271988,-0.819519,5.188385,1.887001,0.056856,0.099019,0.000000,-0.270464,-0.187175,0.000000
4.340000,2.613642,0.182184,-1.497585,0.429717,0.112586,0.068172,-0.975679,0.545487,-0.201565,1.914455,-2.704201,0.290119,-0.892123,5.346645,1.735933,0.054176,0.097148,0.000000,-0.265496,-0.186354,0.000000
4.350000,2.617890,0.183337,-1.496914,0.420056,0.117906,0.066171,-0.956580,0.518713,-0.198577,1.905180,-2.649970,0.306707,-0.960064,5.494205,1.583999,0.051546,0.095287,0.000000,-0.260379,-0.185483,0.000000
4.360000,2.622043,0.184542,-1.496262,0.410585,0.122960,0.064200,-0.937576,0.492488,-0.195431,1.895253,-2.594317,0.321799,-1.022865,5.629362,1.442495,0.048968,0.093434,0.000000,-0.255122,-0.184565,-0.000000
4.370000,2.626102,0.185796,-1.495630,0.401304,0.127756,0.062262,-0.918675,0.466826,-0.192141,1.884722,-2.537382,0.335557,-1.082865,5.748952,1.318013,0.046444,0.091591,0.000000,-0.249737,-0.183602,0.000000
4.380000,2.630069,0.187097,-1.495017,0.392212,0.132297,0.060357,-0.899881,0.441740,-0.188720,1.873596,-2.479338,0.348159,-1.140264,5.853675,1.206683,0.043973,0.089758,0.000000,-0.244239,-0.182593,0.000000
4.390000,2.633946,0.188442,-1.494422,0.383307,0.136590,0.058488,-0.881203,0.417240,-0.185178,1.861917,-2.420309,0.359691,-1.192394,5.948130,1.099703,0.041559,0.087935,0.000000,-0.238637,-0.181540,-0.000000
4.400000,2.637735,0.189829,-1.493847,0.374588,0.140642,0.056654,-0.862643,0.393334,-0.181526,1.849748,-2.360375,0.370153,-1.241623,6.032885,0.995010,0.039201,0.086124,0.000000,-0.232939,-0.180448,0.000000
4.410000,2.641438,0.191255,-1.493289,0.366054,0.144457,0.054857,-0.844208,0.370032,-0.177775,1.837085,-2.299651,0.379591,-1.289920,6.105163,0.897946,0.036900,0.084324,0.000000,-0.227156,-0.179317,-0.000000
4.420000,2.645056,0.192718,-1.492750,0.357704,0.148042,0.053098,-0.825901,0.347341,-0.173934,1.823950,-2.238272,0.388112,-1.330604,6.164806,0.812814,0.034658,0.082535,0.000000,-0.221299,-0.178146,0.000000
4.430000,2.648592,0.194216,-1.492227,0.349536,0.151404,0.051378,-0.807729,0.325267,-0.170012,1.810472,-2.176355,0.395847,-1.363190,6.212902,0.737342,0.032474,0.080759,0.000000,-0.215379,-0.176947,0.000000
4.440000,2.652047,0.195746,-1.491722,0.341549,0.154548,0.049698,-0.789692,0.303814,-0.166017,1.796686,-2.114014,0.402859,-1.397587,6.249933,0.665182,0.030350,0.078994,0.000000,-0.209407,-0.175721,-0.000000
4.450000,2.655423,0.197307,-1.491233,0.333742,0.157480,0.048058,-0.771795,0.282986,-0.161955,1.782521,-2.051356,0.409151,-1.433986,6.277096,0.595987,0.028286,0.077243,0.000000,-0.203393,-0.174462,0.000000
4.460000,2.658722,0.198896,-1.490761,0.326113,0.160207,0.046459,-0.754042,0.262787,-0.157834,1.768006,-1.988472,0.414779,-1.466176,6.294378,0.533234,0.026282,0.075504,0.000000,-0.197346,-0.173172,-0.000000
4.470000,2.661945,0.200511,-1.490304,0.318661,0.162736,0.044901,-0.736435,0.243217,-0.153660,1.753197,-1.925469,0.419815,-1.497140,6.298789,0.475690,0.024339,0.073778,0.000000,-0.191275,-0.171855,0.000000
4.480000,2.665095,0.202151,-1.489863,0.311385,0.165072,0.043386,-0.718978,0.224277,-0.149438,1.738064,-1.862496,0.424292,-1.529499,6.290381,0.421366,0.022457,0.072066,0.000000,-0.185196,-0.170507,-0.000000
4.490000,2.668173,0.203813,-1.489437,0.304282,0.167221,0.041913,-0.701674,0.205967,-0.145174,1.722607,-1.799661,0.428243,-1.559232,6.273844,0.371289,0.020635,0.070367,0.000000,-0.179119,-0.169128,-0.000000
4.500000,2.671181,0.205495,-1.489025,0.297351,0.169191,0.040482,-0.684525,0.188284,-0.140873,1.706879,-1.737019,0.431718,-1.586507,6.250887,0.326459,0.018875,0.068682,0.000000,-0.173049,-0.167722,0.000000
4.510000,2.674120,0.207196,-1.488627,0.290591,0.170987,0.039095,-0.667536,0.171227,-0.136539,1.690877,-1.674644,0.434772,-1.614582,6.218676,0.285300,0.017174,0.067012,0.000000,-0.166995,-0.166289,0.000000
4.520000,2.676992,0.208915,-1.488243,0.284000,0.172616,0.037752,-0.650708,0.154791,-0.132177,1.674587,-1.612646,0.437424,-1.642095,6.174223,0.244050,0.015535,0.065356,0.000000,-0.160966,-0.164827,0.000000
4.530000,2.679800,0.210649,-1.487872,0.277577,0.174083,0.036452,-0.634044,0.138974,-0.127791,1.658035,-1.551159,0.439653,-1.668144,6.118639,0.202419,0.013955,0.063715,0.000000,-0.154977,-0.163338,-0.000000
4.540000,2.682544,0.212396,-1.487514,0.271319,0.175395,0.035196,-0.617547,0.123768,-0.123384,1.641224,-1.490273,0.441473,-1.695580,6.056464,0.164513,0.012435,0.062089,0.000000,-0.149037,-0.161822,0.000000
4.550000,2.685226,0.214157,-1.487168,0.265226,0.176558,0.033984,-0.601220,0.109168,-0.118961,1.624124,-1.430030,0.442943,-1.725517,5.989286,0.131446,0.010974,0.060478,0.000000,-0.143149,-0.160276,0.000000
4.560000,2.687848,0.215928,-1.486834,0.259295,0.177578,0.032816,-0.585065,0.095167,-0.114525,1.606714,-1.370487,0.444102,-1.756436,5.914499,0.099708,0.009572,0.058883,0.000000,-0.137321,-0.158697,-0.000000
4.570000,2.690412,0.217708,-1.486512,0.253525,0.178462,0.031693,-0.569085,0.081758,-0.110079,1.588995,-1.311740,0.444937,-1.787265,5.829222,0.065300,0.008228,0.057304,0.000000,-0.131562,-0.157084,0.000000
4.580000,2.692919,0.219497,-1.486200,0.247913,0.179214,0.030615,-0.553285,0.068933,-0.105627,1.570969,-1.253903,0.445408,-1.819436,5.734603,0.028372,0.006941,0.055741,0.000000,-0.125883,-0.155439,0.000000
4.590000,2.695370,0.221292,-1.485899,0.242459,0.179840,0.029581,-0.537666,0.056680,-0.101171,1.552606,-1.197048,0.445505,-1.854823,5.635165,-0.006602,0.005710,0.054195,0.000000,-0.120292,-0.153759,-0.000000
4.600000,2.697768,0.223094,-1.485609,0.237160,0.180347,0.028591,-0.522233,0.044992,-0.096717,1.533872,-1.141200,0.445275,-1.889911,5.532196,-0.036563,0.004535,0.052666,0.000000,-0.114792,-0.152038,-0.000000
4.610000,2.700114,0.224899,-1.485328,0.232014,0.180740,0.027647,-0.506989,0.033856,-0.092266,1.514808,-1.086404,0.444774,-1.924295,5.423216,-0.065341,0.003415,0.051155,0.000000,-0.109388,-0.150281,0.000000
4.620000,2.702408,0.226708,-1.485056,0.227020,0.181024,0.026746,-0.491937,0.023264,-0.087821,1.495386,-1.032735,0.443969,-1.969335,5.306417,-0.102369,0.002347,0.049661,0.000000,-0.104088,-0.148486,0.000000
4.630000,2.704654,0.228520,-1.484793,0.222176,0.181205,0.025890,-0.477081,0.013202,-0.083386,1.475421,-0.980276,0.442726,-2.026064,5.183079,-0.147089,0.001333,0.048185,0.000000,-0.098900,-0.146633,0.000000
4.640000,2.706852,0.230333,-1.484538,0.217479,0.181288,0.025078,-0.462428,0.003658,-0.078967,1.454865,-0.929074,0.441027,-2.079353,5.056341,-0.187486,0.000370,0.046728,0.000000,-0.093829,-0.144718,-0.000000
4.650000,2.709004,0.232146,-1.484291,0.212927,0.181279,0.024311,-0.447984,-0.005380,-0.074566,1.433834,-0.879149,0.438976,-2.126764,4.926854,-0.222290,-0.000544,0.045291,0.000000,-0.088878,-0.142752,0.000000
4.660000,2.711110,0.233958,-1.484052,0.208519,0.181181,0.023587,-0.433751,-0.013925,-0.070187,1.412330,-0.830537,0.436581,-2.178955,4.793183,-0.260009,-0.001408,0.043873,0.000000,-0.084051,-0.140734,0.000000
4.670000,2.713174,0.235769,-1.483819,0.204252,0.181000,0.022907,-0.419737,-0.021991,-0.065834,1.390255,-0.783285,0.433776,-2.240211,4.655197,-0.302957,-0.002225,0.042476,0.000000,-0.079352,-0.138656,-0.000000
4.680000,2.715195,0.237578,-1.483594,0.200124,0.180741,0.022270,-0.405946,-0.029591,-0.061512,1.367526,-0.737433,0.430522,-2.307224,4.513857,-0.348633,-0.002995,0.041100,0.000000,-0.074787,-0.136508,0.000000
4.690000,2.717176,0.239384,-1.483374,0.196133,0.180408,0.021677,-0.392386,-0.036739,-0.057224,1.344111,-0.693008,0.426804,-2.375316,4.370161,-0.394989,-0.003720,0.039746,0.000000,-0.070358,-0.134286,-0.000000
4.700000,2.719118,0.241186,-1.483160,0.192276,0.180006,0.021126,-0.379064,-0.043451,-0.052975,1.320019,-0.650029,0.422622,-2.443932,4.225004,-0.441245,-0.004402,0.038414,0.000000,-0.066067,-0.131993,0.000000
4.710000,2.721022,0.242984,-1.482951,0.188552,0.179539,0.020617,-0.365986,-0.049740,-0.048771,1.295232,-0.608508,0.417979,-2.516314,4.078388,-0.489037,-0.005042,0.037106,0.000000,-0.061916,-0.129624,-0.000000
4.720000,2.722889,0.244777,-1.482748,0.184957,0.179011,0.020151,-0.353160,-0.055621,-0.044616,1.269693,-0.568462,0.412841,-2.594806,3.929204,-0.541897,-0.005640,0.035822,0.000000,-0.057908,-0.127176,0.000000
4.730000,2.724721,0.246564,-1.482548,0.181489,0.178427,0.019725,-0.340592,-0.061109,-0.040514,1.243336,-0.529924,0.407141,-2.678502,3.778020,-0.599954,-0.006200,0.034562,0.000000,-0.054045,-0.124640,0.000000
4.740000,2.726519,0.248346,-1.482353,0.178145,0.177789,0.019340,-0.328293,-0.066219,-0.036473,1.216123,-0.492901,0.400842,-2.764590,3.627319,-0.658682,-0.006721,0.033329,0.000000,-0.050330,-0.122013,-0.000000
4.750000,2.728284,0.250120,-1.482162,0.174923,0.177102,0.018996,-0.316270,-0.070967,-0.032498,1.188044,-0.457377,0.393967,-2.852644,3.477273,-0.714940,-0.007206,0.032122,0.000000,-0.046759,-0.119293,0.000000
4.760000,2.730017,0.251888,-1.481973,0.171820,0.176370,0.018690,-0.304532,-0.075367,-0.028594,1.159070,-0.423356,0.386544,-2.944632,3.326963,-0.772174,-0.007657,0.030943,0.000000,-0.043335,-0.116477,-0.000000
4.770000,2.731720,0.253648,-1.481788,0.168832,0.175595,0.018424,-0.293088,-0.079434,-0.024767,1.129151,-0.390838,0.378524,-3.041781,3.177979,-0.839033,-0.008073,0.029792,0.000000,-0.040058,-0.113561,-0.000000
4.780000,2.733394,0.255400,-1.481605,0.165958,0.174781,0.018195,-0.281949,-0.083184,-0.021023,1.098234,-0.359796,0.369763,-3.143922,3.031447,-0.914825,-0.008458,0.028672,0.000000,-0.036925,-0.110538,-0.000000
4.790000,2.735040,0.257143,-1.481424,0.163193,0.173931,0.018003,-0.271124,-0.086630,-0.017371,1.066273,-0.330209,0.360227,-3.249514,2.886030,-0.988023,-0.008812,0.027582,0.000000,-0.033935,-0.107403,-0.000000
4.800000,2.736658,0.258878,-1.481245,0.160535,0.173049,0.017848,-0.260623,-0.089788,-0.013819,1.033244,-0.302076,0.350002,-3.355354,2.740608,-1.056810,-0.009136,0.026524,0.000000,-0.031087,-0.104155,0.000000
4.810000,2.738250,0.260604,-1.481067,0.157981,0.172136,0.017727,-0.250459,-0.092672,-0.010371,0.999166,-0.275397,0.339091,-3.462714,2.596920,-1.129008,-0.009433,0.025498,0.000000,-0.028382,-0.100794,-0.000000
4.820000,2.739818,0.262321,-1.480890,0.155526,0.171195,0.017640,-0.240640,-0.095296,-0.007037,0.963990,-0.250137,0.327422,-3.580783,2.459259,-1.207694,-0.009704,0.024508,0.000000,-0.025817,-0.097315,0.000000
4.830000,2.741361,0.264028,-1.480714,0.153168,0.170230,0.017586,-0.231179,-0.097674,-0.003823,0.927550,-0.226212,0.314937,-3.709442,2.327700,-1.290176,-0.009950,0.023552,0.000000,-0.023383,-0.093702,0.000000
4.840000,2.742881,0.265726,-1.480538,0.150903,0.169242,0.017564,-0.222089,-0.099820,-0.000738,0.889801,-0.203583,0.301619,-3.836078,2.197400,-1.372811,-0.010172,0.022633,0.000000,-0.021077,-0.089950,0.000000
4.850000,2.744379,0.267413,-1.480363,0.148726,0.168233,0.017571,-0.213383,-0.101746,0.002209,0.850829,-0.182264,0.287481,-3.959436,2.068296,-1.455562,-0.010371,0.021753,0.000000,-0.018901,-0.086067,-0.000000
4.860000,2.745855,0.269090,-1.480187,0.146635,0.167207,0.017608,-0.205073,-0.103465,0.005011,0.810612,-0.162217,0.272508,-4.087911,1.944285,-1.540656,-0.010550,0.020912,0.000000,-0.016850,-0.082052,0.000000
4.870000,2.747312,0.270757,-1.480011,0.144625,0.166164,0.017672,-0.197171,-0.104990,0.007660,0.769070,-0.143378,0.256668,-4.222093,1.826020,-1.628189,-0.010708,0.020112,0.000000,-0.014919,-0.077895,0.000000
4.880000,2.748748,0.272413,-1.479834,0.142691,0.165107,0.017761,-0.189691,-0.106333,0.010145,0.726170,-0.125697,0.239944,-4.358874,1.712639,-1.717278,-0.010848,0.019354,0.000000,-0.013104,-0.073594,-0.000000
4.890000,2.750165,0.274059,-1.479655,0.140831,0.164037,0.017874,-0.182647,-0.107504,0.012458,0.681893,-0.109125,0.222322,-4.497934,1.604414,-1.807768,-0.010970,0.018640,0.000000,-0.011398,-0.069147,0.000000
4.900000,2.751565,0.275694,-1.479476,0.139039,0.162957,0.018010,-0.176053,-0.108515,0.014591,0.636212,-0.093609,0.203788,-4.639551,1.501859,-1.899660,-0.011076,0.017971,0.000000,-0.009797,-0.064551,-0.000000
4.910000,2.752946,0.277318,-1.479295,0.137310,0.161867,0.018166,-0.169923,-0.109376,0.016534,0.589102,-0.079088,0.184329,-4.783588,1.405343,-1.992874,-0.011166,0.017349,0.000000,-0.008295,-0.059804,-0.000000
4.920000,2.754311,0.278932,-1.479113,0.135640,0.160769,0.018341,-0.164271,-0.110097,0.018278,0.540540,-0.065502,0.163931,-4.929898,1.315219,-2.087317,-0.011242,0.016775,0.000000,-0.006886,-0.054904,-0.000000
4.930000,2.755659,0.280534,-1.478928,0.134024,0.159665,0.018532,-0.159112,-0.110686,0.019813,0.490504,-0.052784,0.142583,-5.078337,1.231839,-2.182876,-0.011304,0.016251,0.000000,-0.005564,-0.049849,-0.000000
4.940000,2.756991,0.282125,-1.478742,0.132458,0.158556,0.018737,-0.154461,-0.111153,0.021130,0.438973,-0.040865,0.120273,-5.228771,1.155556,-2.279459,-0.011353,0.015778,0.000000,-0.004321,-0.044636,-0.000000
4.950000,2.758308,0.283705,-1.478554,0.130935,0.157442,0.018954,-0.150333,-0.111504,0.022218,0.385929,-0.029673,0.096993,-5.381066,1.086721,-2.376976,-0.011390,0.015358,0.000000,-0.003151,-0.039266,0.000000
4.960000,2.759610,0.285274,-1.478363,0.129451,0.156326,0.019181,-0.146743,-0.111746,0.023069,0.331352,-0.019131,0.072734,-5.535067,1.025688,-2.475324,-0.011416,0.014993,0.000000,-0.002045,-0.033735,-0.000000
4.970000,2.760897,0.286831,-1.478170,0.128000,0.155207,0.019416,-0.143706,-0.111886,0.023673,0.275227,-0.009159,0.047487,80.508377,70.824559,-17.556327,-0.011431,0.014683,0.000000,-0.000996,-0.028045,-0.000000
4.980000,2.762170,0.288378,-1.477975,0.126577,0.154088,0.019655,-0.141238,-0.111929,0.024019,1.941519,1.397361,-0.278393,165.327624,140.403954,-32.213101,-0.011436,0.014432,0.000000,0.143051,-0.198754,-0.000000
4.990000,2.763429,0.289913,-1.477777,0.125176,0.152969,0.019896,-0.104875,-0.083939,0.018105,3.581780,2.798920,-0.596775,79.288840,70.072654,-16.187818,-0.008572,0.010710,0.000000,0.286292,-0.366388,0.000000
5.000000,2.764673,0.291437,-1.477577,0.124480,0.152409,0.020017,-0.069602,-0.055951,0.012084,3.527296,2.798814,-0.602149,-5.448341,-0.010650,-0.537397,-0.005710,0.007104,0.000000,0.285974,-0.360417,-0.000000
