time,x,y,z,vx,vy,vz,ax,ay,az,jx,jy,jz,sx,sy,sz,roll,pitch,yaw,p,q,r
0.000000,-2.462413,-1.655391,-1.472566,0.004278,0.022625,0.000646,-0.308466,-0.883326,-0.027953,3.644638,17.694243,0.066341,19.377013,-187.775295,20.779586,-0.089504,0.031344,0.000000,1.781691,-0.368411,0.000000
0.010000,-2.462386,-1.655206,-1.472561,0.001379,0.014646,0.000373,-0.271130,-0.715329,-0.026295,3.814919,15.948192,0.261011,14.758574,-161.889392,18.188130,-0.072568,0.027557,0.000000,1.609536,-0.385798,0.000000
0.020000,-2.462385,-1.655093,-1.472559,-0.001139,0.008264,0.000126,-0.232314,-0.563544,-0.022816,3.941357,14.447590,0.430764,10.604416,-138.663085,15.794959,-0.057234,0.023622,0.000000,1.461066,-0.398925,-0.000000
0.030000,-2.462407,-1.655036,-1.472559,-0.003264,0.003329,-0.000078,-0.192434,-0.425646,-0.017756,4.028475,13.166510,0.577543,6.890320,-117.962684,13.591678,-0.043275,0.019578,0.000000,1.334078,-0.408218,0.000000
0.040000,-2.462449,-1.655022,-1.472560,-0.004986,-0.000288,-0.000225,-0.151861,-0.299564,-0.011335,4.080550,12.080362,0.703203,3.592067,-99.654500,11.569893,-0.030488,0.015461,0.000000,1.226346,-0.414079,0.000000
0.050000,-2.462505,-1.655038,-1.472563,-0.006300,-0.002696,-0.000301,-0.110926,-0.183466,-0.003756,4.101621,11.165892,0.809518,0.685438,-83.604842,9.721210,-0.018691,0.011303,0.000000,1.135680,-0.416888,-0.000000
0.060000,-2.462573,-1.655072,-1.472566,-0.007204,-0.003985,-0.000297,-0.069919,-0.075747,0.004796,4.095483,10.401183,0.898176,-1.853785,-69.680022,8.037234,-0.007725,0.007131,0.000000,1.059961,-0.416998,0.000000
0.070000,-2.462648,-1.655114,-1.472568,-0.007699,-0.004234,-0.000203,-0.029095,0.024988,0.014154,4.065690,9.765654,0.970783,-4.049822,-57.746348,6.509571,0.002551,0.002970,0.000000,0.997163,-0.414743,-0.000000
0.080000,-2.462726,-1.655154,-1.472570,-0.007787,-0.003505,-0.000011,0.011327,0.119932,0.024163,4.015550,9.240064,1.028861,-5.926890,-47.670131,5.129827,0.012255,-0.001157,0.000000,0.945368,-0.410433,-0.000000
0.090000,-2.462802,-1.655181,-1.472568,-0.007474,-0.001851,0.000282,0.051158,0.210096,0.034687,3.948134,8.806506,1.073845,-7.509210,-39.317682,3.889606,0.021489,-0.005233,0.000000,0.902779,-0.404359,-0.000000
0.100000,-2.462874,-1.655188,-1.472564,-0.006767,0.000684,0.000684,0.090241,0.296314,0.045601,3.866268,8.448410,1.107090,-8.820998,-32.555309,2.780515,0.030336,-0.009242,0.000000,0.867719,-0.396787,0.000000
0.110000,-2.462936,-1.655165,-1.472554,-0.005672,0.004064,0.001195,0.128444,0.379264,0.056794,3.772535,8.150545,1.129864,-9.886475,-27.249324,1.794159,0.038863,-0.013169,0.000000,0.838644,-0.387965,0.000000
0.120000,-2.462986,-1.655104,-1.472539,-0.004201,0.008260,0.001820,0.165660,0.459479,0.068168,3.669279,7.899015,1.143354,-10.729860,-23.266036,0.922144,0.047124,-0.017003,0.000000,0.814138,-0.378118,0.000000
0.130000,-2.463019,-1.654997,-1.472518,-0.002363,0.013246,0.002559,0.201805,0.537357,0.079634,3.558598,7.681261,1.148660,-11.375370,-20.471756,0.156076,0.055157,-0.020737,0.000000,0.792921,-0.367451,0.000000
0.140000,-2.463032,-1.654836,-1.472488,-0.000169,0.019000,0.003413,0.236814,0.613179,0.091117,3.442350,7.486062,1.146801,-11.847224,-18.732793,-0.512441,0.062989,-0.024362,0.000000,0.773846,-0.356148,-0.000000
0.150000,-2.463022,-1.654614,-1.472449,0.002370,0.025503,0.004381,0.270639,0.687120,0.102549,3.322151,7.303533,1.138709,-12.169643,-17.915459,-1.091800,0.070638,-0.027872,0.000000,0.755906,-0.344368,0.000000
0.160000,-2.462984,-1.654324,-1.472400,0.005240,0.032737,0.005463,0.303248,0.759263,0.113873,3.199375,7.125126,1.125234,-12.366843,-17.886061,-1.590396,0.078108,-0.031265,0.000000,0.738228,-0.332252,-0.000000
0.170000,-2.462916,-1.653957,-1.472339,0.008430,0.040683,0.006658,0.334622,0.829612,0.125039,3.075151,6.943631,1.107142,-12.463044,-18.510912,-2.016624,0.085401,-0.034537,0.000000,0.720082,-0.319914,-0.000000
0.180000,-2.462814,-1.653508,-1.472266,0.011928,0.049323,0.007963,0.364749,0.898106,0.136003,2.950370,6.753173,1.085115,-12.482466,-19.656321,-2.378877,0.092506,-0.037686,0.000000,0.700873,-0.307449,-0.000000
0.190000,-2.462676,-1.652969,-1.472180,0.015721,0.058638,0.009377,0.393629,0.964631,0.146730,2.825677,6.549215,1.059750,-12.449325,-21.188598,-2.685550,0.099413,-0.040712,0.000000,0.680149,-0.294926,-0.000000
0.200000,-2.462499,-1.652333,-1.472078,0.019797,0.068608,0.010897,0.421265,1.029035,0.157188,2.701478,6.328557,1.031561,-12.387843,-22.974054,-2.945038,0.106103,-0.043614,0.000000,0.657597,-0.282390,-0.000000
0.210000,-2.462279,-1.651594,-1.471961,0.024140,0.079220,0.012520,0.447757,1.090817,0.167358,2.586821,6.059615,1.001435,-12.546712,-24.128323,-3.177255,0.112525,-0.046402,0.000000,0.630003,-0.270780,-0.000000
0.220000,-2.462015,-1.650746,-1.471828,0.028745,0.090427,0.014243,0.472996,1.150187,0.177210,2.460589,5.812219,0.968636,-12.698190,-25.360310,-3.377664,0.118699,-0.049063,0.000000,0.604526,-0.257922,-0.000000
0.230000,-2.461704,-1.649784,-1.471676,0.033596,0.102215,0.016063,0.496964,1.207020,0.186724,2.332893,5.552289,0.933964,-12.839008,-26.628245,-3.553250,0.124611,-0.051596,0.000000,0.577693,-0.244862,0.000000
0.240000,-2.461342,-1.648700,-1.471506,0.038680,0.114558,0.017976,0.519649,1.261190,0.195884,2.203856,5.279674,0.897631,-12.965897,-27.890356,-3.710997,0.130248,-0.053998,0.000000,0.549506,-0.231617,0.000000
0.250000,-2.460929,-1.647491,-1.471316,0.043984,0.127430,0.019980,0.541037,1.312572,0.204672,2.073632,4.994641,0.859780,-13.075590,-29.104872,-3.857888,0.135597,-0.056267,0.000000,0.520004,-0.218205,-0.000000
0.260000,-2.460462,-1.646150,-1.471106,0.049496,0.140803,0.022068,0.561118,1.360926,0.213087,1.942408,4.686996,0.821646,-13.164729,-29.955257,-4.030218,0.140632,-0.058402,0.000000,0.488179,-0.204658,0.000000
0.270000,-2.459939,-1.644673,-1.470875,0.055202,0.154642,0.024240,0.579883,1.406285,0.221099,1.810413,4.383594,0.780486,-13.230147,-30.708150,-4.202071,0.145358,-0.060401,0.000000,0.456738,-0.190984,-0.000000
0.280000,-2.459357,-1.643056,-1.470621,0.061089,0.168919,0.026489,0.597325,1.448575,0.228691,1.677895,4.073185,0.737595,-13.268585,-31.355428,-4.376842,0.149765,-0.062262,0.000000,0.424557,-0.177218,-0.000000
0.290000,-2.458716,-1.641293,-1.470345,0.067144,0.183603,0.028812,0.613440,1.487729,0.235845,1.545142,3.756865,0.692928,-13.276787,-31.888965,-4.557926,0.153847,-0.063985,0.000000,0.391753,-0.163392,0.000000
0.300000,-2.458014,-1.639382,-1.470045,0.073354,0.198663,0.031204,0.628228,1.523696,0.242543,1.412471,3.435812,0.646404,-13.251496,-32.300634,-4.748717,0.157598,-0.065569,0.000000,0.358447,-0.149540,-0.000000
0.310000,-2.457249,-1.637319,-1.469720,0.079705,0.214067,0.033661,0.641680,1.556394,0.248780,1.279209,3.107566,0.599175,-13.163549,-32.488369,-4.984562,0.161011,-0.067012,0.000000,0.324411,-0.135602,0.000000
0.320000,-2.456419,-1.635100,-1.469371,0.086183,0.229781,0.036178,0.653816,1.585843,0.254519,1.148167,2.782272,0.548098,-13.038766,-32.549488,-5.232992,0.164086,-0.068317,0.000000,0.290622,-0.121846,0.000000
0.330000,-2.455525,-1.632722,-1.468997,0.092777,0.245773,0.038749,0.664648,1.612039,0.259734,1.018557,2.456987,0.494475,-12.877062,-32.487370,-5.493487,0.166823,-0.069483,0.000000,0.256799,-0.108201,0.000000
0.340000,-2.454564,-1.630184,-1.468596,0.099472,0.262011,0.041371,0.674193,1.634987,0.264399,0.890749,2.132925,0.438189,-12.678350,-32.305392,-5.765532,0.169222,-0.070512,0.000000,0.223063,-0.094706,-0.000000
0.350000,-2.453535,-1.627482,-1.468169,0.106256,0.278462,0.044036,0.682470,1.654706,0.268488,0.765113,1.811267,0.379128,-12.442546,-32.006932,-6.048607,0.171285,-0.071405,0.000000,0.189527,-0.081398,-0.000000
0.360000,-2.452438,-1.624614,-1.467715,0.113117,0.295095,0.046738,0.689497,1.671212,0.271982,0.641380,1.492067,0.318079,-12.153344,-31.567689,-6.364845,0.173013,-0.072164,0.000000,0.156208,-0.068259,0.000000
0.370000,-2.451272,-1.621579,-1.467234,0.120042,0.311876,0.049473,0.695308,1.684563,0.274839,0.521440,1.179032,0.252818,-11.828864,-31.022108,-6.688305,0.174410,-0.072792,0.000000,0.123439,-0.055466,-0.000000
0.380000,-2.450037,-1.618376,-1.466726,0.127020,0.328776,0.052233,0.699937,1.694813,0.277028,0.404914,0.871957,0.184300,-11.471008,-30.376955,-7.015695,0.175483,-0.073291,0.000000,0.091214,-0.042989,0.000000
0.390000,-2.448732,-1.615003,-1.466190,0.134037,0.345762,0.055011,0.703419,1.702026,0.278514,0.292125,0.571803,0.112502,-11.081676,-29.638996,-7.343724,0.176237,-0.073666,0.000000,0.059627,-0.030863,-0.000000
0.400000,-2.447356,-1.611461,-1.465625,0.141084,0.362806,0.057800,0.705793,1.706275,0.279267,0.183379,0.279464,0.037434,-10.662770,-28.814997,-7.669102,0.176678,-0.073919,0.000000,0.028770,-0.019123,-0.000000
0.410000,-2.445910,-1.607747,-1.465033,0.148150,0.379878,0.060594,0.707098,1.707642,0.279256,0.078713,-0.004395,-0.040552,-10.209914,-27.907635,-7.996336,0.176815,-0.074056,0.000000,-0.001284,-0.007777,-0.000000
0.420000,-2.444393,-1.603863,-1.464414,0.155223,0.396950,0.063383,0.707383,1.706219,0.278445,-0.021016,-0.278631,-0.122110,-9.732052,-26.928267,-8.313381,0.176656,-0.074079,0.000000,-0.030428,0.003090,-0.000000
0.430000,-2.442806,-1.599808,-1.463766,0.162294,0.413994,0.066160,0.706694,1.702103,0.276803,-0.115853,-0.542745,-0.206771,-9.231855,-25.884161,-8.615990,0.176210,-0.073994,0.000000,-0.058600,0.013473,-0.000000
0.440000,-2.441147,-1.595583,-1.463090,0.169354,0.430983,0.068916,0.705083,1.695399,0.274300,-0.205588,-0.796123,-0.294368,-8.711993,-24.782585,-8.899915,0.175487,-0.073807,0.000000,-0.085729,0.023349,-0.000000
0.450000,-2.439419,-1.591189,-1.462388,0.176393,0.447894,0.071643,0.702600,1.686218,0.270907,-0.290037,-1.038229,-0.384693,-8.175133,-23.630806,-9.160911,0.174499,-0.073522,0.000000,-0.111751,0.032691,0.000000
0.460000,-2.437620,-1.586626,-1.461658,0.183403,0.464700,0.074331,0.699300,1.674676,0.266595,-0.369054,-1.268405,-0.477752,-7.623676,-22.440909,-9.388265,0.173256,-0.073145,0.000000,-0.136591,0.041483,-0.000000
0.470000,-2.435751,-1.581895,-1.460901,0.190376,0.481379,0.076972,0.695238,1.660890,0.261345,-0.442483,-1.486711,-0.572645,-7.060593,-21.214755,-9.584987,0.171771,-0.072682,0.000000,-0.160232,0.049697,-0.000000
0.480000,-2.433812,-1.576999,-1.460118,0.197305,0.497911,0.079555,0.690469,1.644983,0.255136,-0.510236,-1.692602,-0.669338,-6.488588,-19.959020,-9.747625,0.170056,-0.072138,0.000000,-0.182608,0.057320,-0.000000
0.490000,-2.431805,-1.571938,-1.459310,0.204184,0.514272,0.082071,0.685052,1.627081,0.247953,-0.572234,-1.885815,-0.767472,-5.910362,-18.680382,-9.872722,0.168123,-0.071521,0.000000,-0.203676,0.064339,-0.000000
0.500000,-2.429729,-1.566714,-1.458477,0.211004,0.530446,0.084511,0.679044,1.607310,0.239783,-0.628431,-2.066155,-0.866655,-5.328617,-17.385518,-9.956825,0.165987,-0.070835,0.000000,-0.223401,0.070744,0.000000
0.510000,-2.427585,-1.561329,-1.457620,0.217763,0.546413,0.086864,0.672504,1.585805,0.230611,-0.678679,-2.233122,-0.967094,-4.749208,-16.090482,-9.980469,0.163660,-0.070088,0.000000,-0.241726,0.076517,0.000000
0.520000,-2.425374,-1.555786,-1.456740,0.224453,0.562157,0.089120,0.665490,1.562691,0.220441,-0.723280,-2.387533,-1.066826,-4.171298,-14.791426,-9.958170,0.161157,-0.069286,0.000000,-0.258690,0.081673,0.000000
0.530000,-2.423096,-1.550087,-1.455838,0.231071,0.577662,0.091269,0.658058,1.538097,0.209276,-0.762118,-2.528956,-1.166100,-3.597205,-13.493881,-9.888433,0.158491,-0.068435,0.000000,-0.274247,0.086202,0.000000
0.540000,-2.420753,-1.544234,-1.454915,0.237613,0.592914,0.093302,0.650266,1.512155,0.197122,-0.795244,-2.657434,-1.264432,-3.029245,-12.203376,-9.769763,0.155676,-0.067542,0.000000,-0.288387,0.090104,-0.000000
0.550000,-2.418344,-1.538230,-1.453973,0.244075,0.607901,0.095208,0.642172,1.484992,0.183992,-0.822731,-2.773065,-1.361327,-2.469734,-10.925439,-9.600665,0.152728,-0.066613,0.000000,-0.301106,0.093384,0.000000
0.560000,-2.415871,-1.532077,-1.453012,0.250455,0.622610,0.096979,0.633832,1.456741,0.169894,-0.844469,-2.875506,-1.457031,-1.926174,-9.678171,-9.360475,0.149660,-0.065655,0.000000,-0.312368,0.096032,-0.000000
0.570000,-2.413335,-1.525778,-1.452034,0.256751,0.637032,0.098603,0.625300,1.427523,0.154860,-0.861065,-2.966141,-1.549222,-1.395061,-8.452990,-9.069216,0.146485,-0.064673,0.000000,-0.322277,0.098096,0.000000
0.580000,-2.410737,-1.519337,-1.451040,0.262961,0.651158,0.100073,0.616628,1.397459,0.138920,-0.872418,-3.044652,-1.638248,-0.878078,-7.253889,-8.727741,0.143219,-0.063674,0.000000,-0.330806,0.099571,0.000000
0.590000,-2.408076,-1.512756,-1.450033,0.269083,0.664979,0.101379,0.607869,1.366669,0.122108,-0.878679,-3.111319,-1.723612,-0.376905,-6.084855,-8.336905,0.139874,-0.062663,0.000000,-0.337978,0.100472,-0.000000
0.600000,-2.405355,-1.506039,-1.449013,0.275118,0.678489,0.102512,0.599071,1.335271,0.104462,-0.880014,-3.166463,-1.804825,0.106775,-4.949881,-7.897560,0.136463,-0.061646,0.000000,-0.343823,0.100816,-0.000000
0.610000,-2.402574,-1.499188,-1.447983,0.281065,0.691682,0.103466,0.590287,1.303383,0.086019,-0.876362,-3.209871,-1.882058,0.565081,-3.867417,-7.394044,0.133002,-0.060630,0.000000,-0.348328,0.100603,-0.000000
0.620000,-2.399734,-1.492206,-1.446944,0.286924,0.704555,0.104231,0.581559,1.271109,0.066838,-0.868503,-3.243300,-1.953293,1.003290,-2.825222,-6.845747,0.129501,-0.059618,0.000000,-0.351649,0.099904,0.000000
0.630000,-2.396836,-1.485097,-1.445899,0.292696,0.717104,0.104800,0.572931,1.238551,0.046973,-0.856366,-3.266517,-2.018834,1.420481,-1.825514,-6.255546,0.125973,-0.058617,0.000000,-0.353780,0.098719,0.000000
0.640000,-2.393881,-1.477865,-1.444849,0.298383,0.729326,0.105168,0.564445,1.205811,0.026482,-0.840166,-3.279959,-2.078274,1.815731,-0.870513,-5.626315,0.122429,-0.057630,0.000000,-0.354769,0.097074,-0.000000
0.650000,-2.390869,-1.470512,-1.443796,0.303986,0.741220,0.105328,0.556141,1.172983,0.005429,-0.820128,-3.284084,-2.131239,2.188117,0.037563,-4.960930,0.118881,-0.056662,0.000000,-0.354672,0.094994,-0.000000
0.660000,-2.387801,-1.463042,-1.442743,0.309507,0.752785,0.105275,0.548057,1.140165,-0.016125,-0.796238,-3.278802,-2.177780,2.530534,0.882111,-4.252216,0.115340,-0.055718,0.000000,-0.353495,0.092486,0.000000
0.670000,-2.384679,-1.455457,-1.441692,0.314948,0.764023,0.105004,0.540227,1.107434,-0.038103,-0.769321,-3.265965,-2.216635,2.849000,1.677056,-3.514329,0.111814,-0.054801,0.000000,-0.351423,0.089631,0.000000
0.680000,-2.381503,-1.447762,-1.440644,0.320312,0.774934,0.104512,0.532681,1.074871,-0.060432,-0.739339,-3.245428,-2.247983,3.143350,2.421939,-2.751376,0.108314,-0.053915,0.000000,-0.348460,0.086433,0.000000
0.690000,-2.378273,-1.439960,-1.439602,0.325602,0.785521,0.103795,0.525450,1.042550,-0.083037,-0.706535,-3.217695,-2.271593,3.413418,3.116304,-1.967463,0.104848,-0.053063,0.000000,-0.344671,0.082920,0.000000
0.700000,-2.374991,-1.432053,-1.438569,0.330822,0.795786,0.102850,0.518559,1.010540,-0.105838,-0.671152,-3.183272,-2.287276,3.659039,3.759692,-1.166697,0.101423,-0.052248,0.000000,-0.340121,0.079122,-0.000000
0.710000,-2.371657,-1.424045,-1.437546,0.335975,0.805733,0.101677,0.512037,0.978910,-0.128756,-0.633231,-3.142195,-2.294975,3.874873,4.339603,-0.350882,0.098048,-0.051474,0.000000,-0.334829,0.075047,-0.000000
0.720000,-2.368271,-1.415939,-1.436536,0.341064,0.815366,0.100275,0.505901,0.947714,-0.151710,-0.593504,-3.096110,-2.294368,4.066563,4.869096,0.473292,0.094729,-0.050741,0.000000,-0.328972,0.070773,0.000000
0.730000,-2.364836,-1.407739,-1.435541,0.346094,0.824689,0.098643,0.500172,0.917005,-0.174616,-0.551979,-3.044978,-2.285496,4.234578,5.349186,1.301438,0.091471,-0.050052,0.000000,-0.322562,0.066304,0.000000
0.740000,-2.361350,-1.399447,-1.434564,0.351069,0.833708,0.096783,0.494867,0.886830,-0.197392,-0.508890,-2.989288,-2.268341,4.379386,5.780890,2.129168,0.088279,-0.049410,0.000000,-0.315662,0.061668,0.000000
0.750000,-2.357814,-1.391066,-1.433606,0.355993,0.842428,0.094696,0.489999,0.857233,-0.219955,-0.464467,-2.929518,-2.242929,4.501456,6.165225,2.952094,0.085159,-0.048815,0.000000,-0.308334,0.056890,0.000000
0.760000,-2.354230,-1.382599,-1.432671,0.360870,0.850854,0.092385,0.485583,0.828255,-0.242222,-0.418798,-2.865825,-2.209150,4.597808,6.495307,3.761276,0.082114,-0.048268,0.000000,-0.300605,0.051981,0.000000
0.770000,-2.350597,-1.374050,-1.431759,0.365706,0.858995,0.089853,0.481626,0.799926,-0.264112,-0.372428,-2.799407,-2.167544,4.672781,6.781020,4.557435,0.079148,-0.047772,0.000000,-0.292610,0.047000,0.000000
0.780000,-2.346916,-1.365420,-1.430874,0.370505,0.866855,0.087104,0.478136,0.772276,-0.285546,-0.325411,-2.730346,-2.118057,4.727265,7.024347,5.336741,0.076263,-0.047326,0.000000,-0.284366,0.041953,0.000000
0.790000,-2.343187,-1.356713,-1.430018,0.375270,0.874443,0.084144,0.475119,0.745327,-0.306447,-0.277948,-2.659055,-2.060878,4.762152,7.227272,6.095364,0.073461,-0.046931,0.000000,-0.275925,0.036861,0.000000
0.800000,-2.339411,-1.347932,-1.429192,0.380009,0.881764,0.080977,0.472578,0.719101,-0.326739,-0.230230,-2.585929,-1.996232,4.778331,7.391779,6.829473,0.070745,-0.046587,0.000000,-0.267335,0.031745,-0.000000
0.810000,-2.335587,-1.339079,-1.428399,0.384724,0.888827,0.077611,0.470515,0.693615,-0.346344,-0.182383,-2.511222,-1.924020,4.775244,7.516850,7.526065,0.068115,-0.046294,0.000000,-0.258627,0.026615,0.000000
0.820000,-2.331716,-1.330156,-1.427641,0.389420,0.895639,0.074053,0.468930,0.668880,-0.365196,-0.134717,-2.435571,-1.845404,4.755408,7.607838,8.191605,0.065572,-0.046053,0.000000,-0.249877,0.021506,0.000000
0.830000,-2.327799,-1.321167,-1.426919,0.394104,0.902207,0.070310,0.467820,0.644906,-0.383230,-0.087327,-2.359171,-1.760300,4.719893,7.667094,8.823386,0.063118,-0.045863,0.000000,-0.241105,0.016426,-0.000000
0.840000,-2.323834,-1.312113,-1.426235,0.398778,0.908540,0.066391,0.467182,0.621698,-0.400382,-0.040367,-2.282327,-1.669058,4.669765,7.696970,9.418701,0.060750,-0.045724,0.000000,-0.232348,0.011388,0.000000
0.850000,-2.319823,-1.302997,-1.425591,0.403449,0.914644,0.062306,0.467011,0.599260,-0.416592,0.006023,-2.205322,-1.572057,4.606094,7.699818,9.974844,0.058470,-0.045635,0.000000,-0.223636,0.006407,-0.000000
0.860000,-2.315765,-1.293821,-1.424989,0.408120,0.920527,0.058063,0.467300,0.577590,-0.431800,0.051700,-2.128471,-1.469258,4.530281,7.679443,10.477922,0.056277,-0.045595,0.000000,-0.215002,0.001492,0.000000
0.870000,-2.311661,-1.284587,-1.424431,0.412796,0.926198,0.053673,0.468042,0.556689,-0.445961,0.096575,-2.051873,-1.362143,4.443019,7.636564,10.937782,0.054170,-0.045604,0.000000,-0.206461,-0.003343,-0.000000
0.880000,-2.307509,-1.275298,-1.423916,0.417482,0.931664,0.049147,0.469229,0.536551,-0.459029,0.140525,-1.975807,-1.250651,4.345337,7.573354,11.353086,0.052148,-0.045662,0.000000,-0.198041,-0.008091,-0.000000
0.890000,-2.303311,-1.265955,-1.423448,0.422183,0.936932,0.044496,0.470849,0.517171,-0.470961,0.183451,-1.900466,-1.135234,4.238260,7.491987,11.722496,0.050209,-0.045766,0.000000,-0.189758,-0.012744,-0.000000
0.900000,-2.299066,-1.256560,-1.423027,0.426901,0.942010,0.039732,0.472894,0.498539,-0.481722,0.225263,-1.826021,-1.016358,4.122818,7.394635,12.044675,0.048352,-0.045917,0.000000,-0.181631,-0.017293,-0.000000
0.910000,-2.294773,-1.247115,-1.422654,0.431642,0.946905,0.034866,0.475350,0.480645,-0.491274,0.265821,-1.752800,-0.894069,4.001598,7.288015,12.307345,0.046575,-0.046112,0.000000,-0.173688,-0.021730,-0.000000
0.920000,-2.290433,-1.237622,-1.422330,0.436409,0.951625,0.029910,0.478206,0.463479,-0.499595,0.305203,-1.680504,-0.769885,3.873876,7.169201,12.521447,0.044878,-0.046351,0.000000,-0.165902,-0.026058,-0.000000
0.930000,-2.286045,-1.228083,-1.422056,0.441207,0.956177,0.024878,0.481450,0.447030,-0.506665,0.343279,-1.609451,-0.643802,3.740486,7.039809,12.686984,0.043257,-0.046633,0.000000,-0.158301,-0.030268,-0.000000
0.940000,-2.281608,-1.218499,-1.421832,0.446039,0.960568,0.019781,0.485067,0.431286,-0.512467,0.379997,-1.539738,-0.516307,3.602265,6.901458,12.803956,0.041711,-0.046957,0.000000,-0.150891,-0.034356,0.000000
0.950000,-2.277124,-1.208872,-1.421660,0.450910,0.964805,0.014633,0.489045,0.416231,-0.516988,0.415311,-1.471446,-0.387885,3.460049,6.755764,12.872366,0.040238,-0.047321,0.000000,-0.143678,-0.038320,-0.000000
0.960000,-2.272590,-1.199204,-1.421540,0.455822,0.968895,0.009446,0.493368,0.401849,-0.520219,0.449104,-1.404873,-0.258659,3.316782,6.610182,12.883054,0.038837,-0.047723,0.000000,-0.136686,-0.042151,-0.000000
0.970000,-2.268007,-1.189495,-1.421472,0.460778,0.972844,0.004233,0.498022,0.388129,-0.522162,0.481544,-1.339519,-0.129973,3.170935,6.459776,12.846304,0.037504,-0.048164,0.000000,-0.129867,-0.045861,0.000000
0.980000,-2.263374,-1.179747,-1.421455,0.465783,0.976660,-0.000993,0.502994,0.375054,-0.522820,0.512516,-1.275690,-0.001887,3.023083,6.305448,12.763241,0.036239,-0.048641,0.000000,-0.123246,-0.049442,0.000000
0.990000,-2.258691,-1.169962,-1.421491,0.470839,0.980347,-0.006220,0.508268,0.362610,-0.522203,0.542001,-1.213420,0.125141,2.873807,6.148101,12.634988,0.035038,-0.049153,0.000000,-0.116822,-0.052893,0.000000
1.000000,-2.253957,-1.160141,-1.421580,0.475949,0.983914,-0.011433,0.513829,0.350780,-0.520323,0.569989,-1.152735,0.250666,2.723684,5.988636,12.462669,0.033901,-0.049699,0.000000,-0.110594,-0.056212,0.000000
1.010000,-2.249172,-1.150284,-1.421720,0.481117,0.987365,-0.016622,0.519661,0.339547,-0.517193,0.596393,-1.093867,0.374513,2.575336,5.833400,12.240805,0.032826,-0.050277,0.000000,-0.104582,-0.059392,-0.000000
1.020000,-2.244335,-1.140394,-1.421912,0.486343,0.990707,-0.021773,0.525752,0.328898,-0.512840,0.621405,-1.036313,0.495640,2.427047,5.677183,11.977930,0.031809,-0.050887,0.000000,-0.098734,-0.062449,-0.000000
1.030000,-2.239445,-1.130470,-1.422155,0.491632,0.993945,-0.026875,0.532085,0.318816,-0.507290,0.644935,-0.980326,0.613941,2.279143,5.520222,11.675975,0.030850,-0.051526,0.000000,-0.093071,-0.065374,-0.000000
1.040000,-2.234502,-1.120515,-1.422449,0.496986,0.997085,-0.031915,0.538645,0.309286,-0.500572,0.666990,-0.925911,0.729035,2.131953,5.362753,11.336874,0.029947,-0.052195,0.000000,-0.087590,-0.068167,0.000000
1.050000,-2.229505,-1.110529,-1.422793,0.502406,1.000132,-0.036882,0.545419,0.300292,-0.492721,0.687578,-0.873072,0.840561,1.985803,5.205012,10.962558,0.029098,-0.052890,0.000000,-0.082288,-0.070828,-0.000000
1.060000,-2.224454,-1.100513,-1.423187,0.507895,1.003093,-0.041766,0.552391,0.291817,-0.483772,0.706648,-0.821963,0.948328,1.842604,5.051081,10.551119,0.028301,-0.053611,0.000000,-0.077177,-0.073351,-0.000000
1.070000,-2.219347,-1.090467,-1.423628,0.513455,1.005970,-0.046554,0.559548,0.283848,-0.473769,0.724364,-0.772223,1.051652,1.700907,4.896877,10.108798,0.027554,-0.054357,0.000000,-0.072221,-0.075749,0.000000
1.080000,-2.214184,-1.080394,-1.424117,0.519087,1.008771,-0.051238,0.566874,0.276368,-0.462755,0.740672,-0.724027,1.150409,1.560846,4.742165,9.637998,0.026856,-0.055126,0.000000,-0.067432,-0.078014,0.000000
1.090000,-2.208965,-1.070292,-1.424653,0.524793,1.011499,-0.055806,0.574356,0.269362,-0.450777,0.755587,-0.677382,1.244325,1.422554,4.586710,9.141122,0.026205,-0.055918,0.000000,-0.062809,-0.080148,-0.000000
1.100000,-2.203688,-1.060164,-1.425233,0.530574,1.014160,-0.060250,0.581981,0.262815,-0.437885,0.769129,-0.632296,1.333152,1.286166,4.430275,8.620572,0.025599,-0.056729,0.000000,-0.058351,-0.082148,0.000000
1.110000,-2.198353,-1.050009,-1.425857,0.536433,1.016757,-0.064561,0.589734,0.256710,-0.424131,0.781279,-0.588848,1.416714,1.152775,4.274332,8.077512,0.025037,-0.057561,0.000000,-0.054063,-0.084012,0.000000
1.120000,-2.192959,-1.039829,-1.426524,0.542369,1.019296,-0.068730,0.597602,0.251033,-0.409569,0.792148,-0.546891,1.494695,1.021438,4.116729,7.515734,0.024517,-0.058410,0.000000,-0.049929,-0.085746,0.000000
1.130000,-2.187506,-1.029623,-1.427231,0.548385,1.021779,-0.072750,0.605573,0.245767,-0.394256,0.801715,-0.506521,1.566975,0.892170,3.957023,6.937791,0.024038,-0.059276,0.000000,-0.045957,-0.087347,-0.000000
1.140000,-2.181991,-1.019393,-1.427978,0.554481,1.024212,-0.076613,0.613632,0.240897,-0.378249,0.809999,-0.467759,1.633406,0.764988,3.794770,6.346237,0.023597,-0.060157,0.000000,-0.042147,-0.088812,-0.000000
1.150000,-2.176416,-1.009139,-1.428763,0.560658,1.026598,-0.080313,0.621769,0.236406,-0.361608,0.817022,-0.430635,1.693863,0.639907,3.629524,5.743624,0.023194,-0.061052,0.000000,-0.038502,-0.090142,0.000000
1.160000,-2.170778,-0.998862,-1.429584,0.566917,1.028942,-0.083843,0.629969,0.232279,-0.344393,0.822789,-0.395166,1.748209,0.517329,3.460486,5.133531,0.022827,-0.061960,0.000000,-0.035022,-0.091333,-0.000000
1.170000,-2.165077,-0.988561,-1.430439,0.573257,1.031245,-0.087199,0.638220,0.228497,-0.326664,0.827358,-0.361422,1.796468,0.396837,3.287611,4.517363,0.022493,-0.062879,0.000000,-0.031712,-0.092389,0.000000
1.180000,-2.159312,-0.978237,-1.431327,0.579681,1.033513,-0.090375,0.646512,0.225045,-0.308484,0.830732,-0.329428,1.838544,0.278402,3.110498,3.897545,0.022192,-0.063807,0.000000,-0.028576,-0.093306,-0.000000
1.190000,-2.153483,-0.967891,-1.432246,0.586188,1.035747,-0.093367,0.654831,0.221903,-0.289914,0.832933,-0.299228,1.874415,0.161990,2.928746,3.276507,0.021921,-0.064745,0.000000,-0.025617,-0.094084,-0.000000
1.200000,-2.147588,-0.957522,-1.433194,0.592778,1.037952,-0.096172,0.663167,0.219054,-0.271016,0.833979,-0.270870,1.904078,0.047572,2.741955,2.656677,0.021679,-0.065689,0.000000,-0.022840,-0.094720,-0.000000
1.210000,-2.141627,-0.947132,-1.434169,0.599451,1.040129,-0.098787,0.671507,0.216480,-0.251854,0.833891,-0.244333,1.927447,-0.064899,2.547855,2.043335,0.021464,-0.066639,0.000000,-0.020244,-0.095215,0.000000
1.220000,-2.135599,-0.936719,-1.435169,0.606208,1.042282,-0.101209,0.679841,0.214161,-0.232488,0.832688,-0.219848,1.944837,-0.175438,2.348142,1.435707,0.021274,-0.067593,0.000000,-0.017851,-0.095567,-0.000000
1.230000,-2.129503,-0.926286,-1.436193,0.613048,1.044413,-0.103436,0.688157,0.212076,-0.212978,0.830389,-0.197389,1.956187,-0.284072,2.142645,0.835871,0.021106,-0.068550,0.000000,-0.015659,-0.095776,0.000000
1.240000,-2.123338,-0.915831,-1.437237,0.619971,1.046524,-0.105468,0.696445,0.210206,-0.193384,0.827013,-0.177015,1.961587,-0.390831,1.931192,0.245908,0.020960,-0.069509,0.000000,-0.013676,-0.095840,-0.000000
1.250000,-2.117103,-0.905356,-1.438301,0.626977,1.048618,-0.107304,0.704694,0.208529,-0.173765,0.822578,-0.158786,1.961145,-0.495745,1.713610,-0.332105,0.020832,-0.070467,0.000000,-0.011908,-0.095759,-0.000000
1.260000,-2.110798,-0.894859,-1.439383,0.634065,1.050695,-0.108943,0.712893,0.207024,-0.154182,0.817112,-0.142661,1.954826,-0.599049,1.487122,-0.891901,0.020721,-0.071424,0.000000,-0.010352,-0.095532,0.000000
1.270000,-2.104422,-0.884342,-1.440480,0.641234,1.052759,-0.110388,0.721032,0.205668,-0.134687,0.810613,-0.128948,1.943172,-0.700539,1.254480,-1.436101,0.020624,-0.072378,0.000000,-0.009041,-0.095159,-0.000000
1.280000,-2.097973,-0.873804,-1.441590,0.648485,1.054809,-0.111638,0.729102,0.204437,-0.115336,0.803107,-0.117591,1.926161,-0.800221,1.015832,-1.963141,0.020539,-0.073327,0.000000,-0.007969,-0.094640,0.000000
1.290000,-2.091452,-0.863246,-1.442712,0.655816,1.056848,-0.112695,0.737091,0.203308,-0.096181,0.794614,-0.108651,1.903972,-0.898098,0.771325,-2.471454,0.020464,-0.074270,0.000000,-0.007144,-0.093975,0.000000
1.300000,-2.084857,-0.852667,-1.443843,0.663227,1.058876,-0.113562,0.744991,0.202256,-0.077273,0.785151,-0.102184,1.876800,-0.994174,0.521106,-2.959473,0.020396,-0.075206,0.000000,-0.006574,-0.093165,0.000000
1.310000,-2.078187,-0.842068,-1.444982,0.670716,1.060893,-0.114241,0.752791,0.201257,-0.058663,0.774745,-0.098146,1.844658,-1.088670,0.262761,-3.420650,0.020332,-0.076134,0.000000,-0.006256,-0.092208,-0.000000
1.320000,-2.071442,-0.831449,-1.446127,0.678282,1.062901,-0.114736,0.760483,0.200284,-0.040395,0.763394,-0.096831,1.808240,-1.181346,-0.000688,-3.859011,0.020270,-0.077050,0.000000,-0.006220,-0.091109,0.000000
1.330000,-2.064621,-0.820810,-1.447276,0.685925,1.064899,-0.115051,0.768056,0.199312,-0.022513,0.751125,-0.098175,1.767557,-1.272179,-0.268781,-4.273604,0.020206,-0.077956,0.000000,-0.006461,-0.089867,0.000000
1.340000,-2.057723,-0.810151,-1.448428,0.693643,1.066887,-0.115188,0.775502,0.198312,-0.005057,0.737957,-0.102221,1.722851,-1.361145,-0.541056,-4.663470,0.020139,-0.078848,0.000000,-0.006985,-0.088485,-0.000000
1.350000,-2.050748,-0.799472,-1.449580,0.701434,1.068865,-0.115153,0.782812,0.197258,0.011932,0.723908,-0.109008,1.674373,-1.448221,-0.817054,-5.027656,0.020066,-0.079725,0.000000,-0.007797,-0.086963,-0.000000
1.360000,-2.043694,-0.788774,-1.450730,0.709298,1.070832,-0.114951,0.789978,0.196123,0.028416,0.709003,-0.118497,1.622180,-1.533507,-1.098220,-5.359990,0.019983,-0.080587,0.000000,-0.008895,-0.085303,-0.000000
1.370000,-2.036562,-0.778056,-1.451878,0.717233,1.072787,-0.114587,0.796990,0.194879,0.044365,0.693250,-0.130896,1.567030,-1.616842,-1.381953,-5.665370,0.019887,-0.081431,0.000000,-0.010299,-0.083512,0.000000
1.380000,-2.029349,-0.767318,-1.453021,0.725238,1.074729,-0.114066,0.803840,0.193496,0.059747,0.676673,-0.146143,1.508963,-1.698188,-1.667559,-5.943480,0.019776,-0.082257,0.000000,-0.012005,-0.081589,0.000000
1.390000,-2.022057,-0.756561,-1.454159,0.733310,1.076656,-0.113394,0.810520,0.191946,0.074535,0.659293,-0.164251,1.448253,-1.777509,-1.954346,-6.194004,0.019646,-0.083063,0.000000,-0.014015,-0.079539,0.000000
1.400000,-2.014683,-0.745785,-1.455289,0.741448,1.078567,-0.112577,0.817023,0.190201,0.088704,0.641130,-0.185231,1.385176,-1.854766,-2.241619,-6.416624,0.019494,-0.083848,0.000000,-0.016330,-0.077365,0.000000
1.410000,-2.007228,-0.734990,-1.456410,0.749650,1.080460,-0.111622,0.823340,0.188233,0.102230,0.622204,-0.209047,1.319820,-1.929914,-2.529595,-6.606127,0.019318,-0.084610,0.000000,-0.018946,-0.075070,-0.000000
1.420000,-1.999690,-0.724176,-1.457521,0.757914,1.082331,-0.110535,0.829465,0.186011,0.115095,0.602538,-0.235779,1.252928,-2.002923,-2.816559,-6.767692,0.019114,-0.085349,0.000000,-0.021872,-0.072662,0.000000
1.430000,-1.992069,-0.713343,-1.458620,0.766238,1.084179,-0.109322,0.835389,0.183507,0.127283,0.582153,-0.265372,1.184559,-2.073757,-3.101702,-6.901603,0.018880,-0.086063,0.000000,-0.025101,-0.070143,-0.000000
1.440000,-1.984365,-0.702493,-1.459707,0.774621,1.086000,-0.107991,0.841105,0.180694,0.138782,0.561071,-0.297804,1.114987,-2.142377,-3.384221,-7.008141,0.018611,-0.086752,0.000000,-0.028631,-0.067519,-0.000000
1.450000,-1.976576,-0.691624,-1.460780,0.783060,1.087792,-0.106549,0.846608,0.177542,0.149580,0.539313,-0.333045,1.044486,-2.208747,-3.663309,-7.087590,0.018306,-0.087413,0.000000,-0.032457,-0.064794,-0.000000
1.460000,-1.968703,-0.680737,-1.461838,0.791552,1.089550,-0.105002,0.851889,0.174024,0.159668,0.516899,-0.371062,0.973163,-2.272725,-3.938026,-7.136136,0.017961,-0.088047,0.000000,-0.036577,-0.061972,0.000000
1.470000,-1.960745,-0.669833,-1.462879,0.800097,1.091271,-0.103358,0.856944,0.170112,0.169042,0.493862,-0.411795,0.901667,-2.334393,-4.207718,-7.158660,0.017574,-0.088653,0.000000,-0.040981,-0.059063,0.000000
1.480000,-1.952701,-0.658912,-1.463904,0.808690,1.092951,-0.101623,0.861765,0.165779,0.177701,0.470219,-0.455197,0.830074,-2.393724,-4.471595,-7.155946,0.017141,-0.089229,0.000000,-0.045665,-0.056070,-0.000000
1.490000,-1.944571,-0.647974,-1.464912,0.817331,1.094585,-0.099806,0.866346,0.160999,0.185644,0.445995,-0.501205,0.758630,-2.450695,-4.728867,-7.128777,0.016659,-0.089774,0.000000,-0.050619,-0.052999,0.000000
1.500000,-1.936355,-0.637020,-1.465900,0.826016,1.096169,-0.097913,0.870683,0.155746,0.192875,0.421213,-0.549749,0.687577,-2.505281,-4.978747,-7.077939,0.016127,-0.090288,0.000000,-0.055836,-0.049856,-0.000000
1.510000,-1.928051,-0.626051,-1.466870,0.834744,1.097698,-0.095951,0.874769,0.149995,0.199396,0.395892,-0.600792,0.617031,-2.557322,-5.219451,-7.001277,0.015542,-0.090771,0.000000,-0.061309,-0.046645,0.000000
1.520000,-1.919660,-0.615066,-1.467819,0.843511,1.099167,-0.093927,0.878599,0.143723,0.205218,0.370069,-0.654153,0.547493,-2.606946,-5.451305,-6.902874,0.014900,-0.091221,0.000000,-0.067019,-0.043376,0.000000
1.530000,-1.911180,-0.604067,-1.468748,0.852315,1.100571,-0.091849,0.882168,0.136905,0.210350,0.343761,-0.709786,0.479042,-2.654146,-5.673641,-6.783873,0.014201,-0.091639,0.000000,-0.072957,-0.040053,-0.000000
1.540000,-1.902613,-0.593055,-1.469656,0.861153,1.101903,-0.089723,0.885473,0.129520,0.214803,0.316994,-0.767592,0.411880,-2.698914,-5.885791,-6.645418,0.013440,-0.092022,0.000000,-0.079113,-0.036682,-0.000000
1.550000,-1.893957,-0.582030,-1.470542,0.870024,1.103159,-0.087555,0.888507,0.121546,0.218592,0.289791,-0.827466,0.346195,-2.741241,-6.087088,-6.488654,0.012618,-0.092372,0.000000,-0.085474,-0.033269,0.000000
1.560000,-1.885213,-0.570992,-1.471407,0.878923,1.104332,-0.085353,0.891267,0.112963,0.221732,0.262173,-0.889355,0.282102,-2.781023,-6.275347,-6.313141,0.011730,-0.092688,0.000000,-0.092031,-0.029818,-0.000000
1.570000,-1.876379,-0.559943,-1.472249,0.887848,1.105416,-0.083122,0.893749,0.103753,0.224240,0.234174,-0.953000,0.219914,-2.818362,-6.451602,-6.121801,0.010776,-0.092968,0.000000,-0.098757,-0.026338,-0.000000
1.580000,-1.867456,-0.548884,-1.473069,0.896797,1.106405,-0.080870,0.895949,0.093898,0.226137,0.205814,-1.018346,0.159714,-2.853262,-6.615373,-5.915970,0.009755,-0.093214,0.000000,-0.105643,-0.022832,0.000000
1.590000,-1.858443,-0.537816,-1.473867,0.905766,1.107292,-0.078602,0.897864,0.083381,0.227442,0.177117,-1.085264,0.101639,-2.885728,-6.766176,-5.696986,0.008663,-0.093425,0.000000,-0.112676,-0.019307,-0.000000
1.600000,-1.849340,-0.526739,-1.474641,0.914753,1.108071,-0.076323,0.899491,0.072187,0.228177,0.148108,-1.153624,0.045814,-2.915765,-6.903530,-5.466187,0.007501,-0.093600,0.000000,-0.119839,-0.015767,-0.000000
1.610000,-1.840148,-0.515655,-1.475393,0.923755,1.108734,-0.074040,0.900825,0.060303,0.228366,0.118809,-1.223355,-0.007658,-2.943360,-7.025284,-5.224714,0.006266,-0.093740,0.000000,-0.127124,-0.012216,-0.000000
1.620000,-1.830865,-0.504564,-1.476122,0.932769,1.109274,-0.071758,0.901866,0.047716,0.228032,0.089248,-1.294157,-0.058659,-2.968537,-7.132830,-4.974125,0.004958,-0.093845,0.000000,-0.134499,-0.008661,0.000000
1.630000,-1.821492,-0.493469,-1.476828,0.941791,1.109686,-0.069481,0.902610,0.034417,0.227201,0.059447,-1.365963,-0.107114,-2.991302,-7.225890,-4.715783,0.003576,-0.093914,0.000000,-0.141955,-0.005105,0.000000
1.640000,-1.812029,-0.482371,-1.477512,0.950820,1.109960,-0.067215,0.903054,0.020394,0.225899,0.029430,-1.438626,-0.152953,-3.011660,-7.304186,-4.451048,0.002119,-0.093947,0.000000,-0.149477,-0.001553,0.000000
1.650000,-1.802476,-0.471271,-1.478173,0.959851,1.110091,-0.064965,0.903197,0.005642,0.224151,-0.000779,-1.511997,-0.196119,-3.029619,-7.367442,-4.181284,0.000586,-0.093945,0.000000,-0.157048,0.001991,-0.000000
1.660000,-1.792832,-0.460170,-1.478811,0.968883,1.110071,-0.062733,0.903038,-0.009848,0.221986,-0.031150,-1.585983,-0.236525,-3.045301,-7.413875,-3.908915,-0.001023,-0.093907,0.000000,-0.164659,0.005523,-0.000000
1.670000,-1.783098,-0.449070,-1.479427,0.977911,1.109892,-0.060526,0.902574,-0.026079,0.219430,-0.061671,-1.660290,-0.274241,-3.058582,-7.444897,-3.634109,-0.002707,-0.093834,0.000000,-0.172279,0.009041,0.000000
1.680000,-1.773274,-0.437973,-1.480022,0.986933,1.109547,-0.058346,0.901804,-0.043055,0.216510,-0.092314,-1.734829,-0.309203,-3.069453,-7.460414,-3.358098,-0.004468,-0.093726,0.000000,-0.179898,0.012541,-0.000000
1.690000,-1.763360,-0.426880,-1.480594,0.995946,1.109028,-0.056197,0.900727,-0.060776,0.213255,-0.123052,-1.809446,-0.341403,-3.077907,-7.460332,-3.082113,-0.006305,-0.093583,0.000000,-0.187501,0.016020,0.000000
1.700000,-1.753355,-0.415793,-1.481146,1.004947,1.108329,-0.054082,0.899343,-0.079243,0.209691,-0.153864,-1.883984,-0.370849,-3.083936,-7.444558,-2.807386,-0.008218,-0.093406,0.000000,-0.195071,0.019474,-0.000000
1.710000,-1.743261,-0.404714,-1.481676,1.013932,1.107441,-0.052004,0.897650,-0.098455,0.205848,-0.184715,-1.958330,-0.397477,-3.087729,-7.411854,-2.537229,-0.010206,-0.093194,0.000000,-0.202598,0.022900,-0.000000
1.720000,-1.733077,-0.393644,-1.482186,1.022899,1.106357,-0.049966,0.895649,-0.118409,0.201751,-0.215601,-2.032219,-0.421512,-3.089056,-7.363412,-2.270537,-0.012270,-0.092948,0.000000,-0.210055,0.026298,0.000000
1.730000,-1.722803,-0.382587,-1.482676,1.031844,1.105070,-0.047970,0.893338,-0.139098,0.197426,-0.246488,-2.105546,-0.442902,-3.087886,-7.299278,-2.008289,-0.014407,-0.092668,0.000000,-0.217432,0.029665,0.000000
1.740000,-1.712440,-0.371544,-1.483145,1.040764,1.103573,-0.046018,0.890719,-0.160517,0.192901,-0.277350,-2.178153,-0.461696,-3.084187,-7.219498,-1.751459,-0.016618,-0.092355,0.000000,-0.224713,0.032998,0.000000
1.750000,-1.701988,-0.360516,-1.483596,1.049657,1.101857,-0.044112,0.887791,-0.182658,0.188201,-0.308163,-2.249884,-0.477953,-3.077925,-7.124119,-1.501026,-0.018901,-0.092008,0.000000,-0.231884,0.036295,-0.000000
1.760000,-1.691447,-0.349507,-1.484028,1.058519,1.099917,-0.042255,0.884556,-0.205512,0.183352,-0.338891,-2.320613,-0.491632,-3.069305,-7.012447,-1.260735,-0.021255,-0.091629,0.000000,-0.238934,0.039553,-0.000000
1.770000,-1.680817,-0.338519,-1.484441,1.067347,1.097745,-0.040446,0.881014,-0.229066,0.178376,-0.369530,-2.390115,-0.503071,-3.058030,-6.885360,-1.028455,-0.023679,-0.091217,0.000000,-0.245839,0.042774,0.000000
1.780000,-1.670100,-0.327553,-1.484837,1.076138,1.095333,-0.038687,0.877166,-0.253309,0.173298,-0.400042,-2.458269,-0.512230,-3.044038,-6.742996,-0.804822,-0.026172,-0.090773,0.000000,-0.252589,0.045954,0.000000
1.790000,-1.659295,-0.316613,-1.485215,1.084890,1.092676,-0.036980,0.873013,-0.278227,0.168139,-0.430401,-2.524924,-0.519198,-3.027269,-6.585492,-0.590475,-0.028731,-0.090298,0.000000,-0.259170,0.049092,0.000000
1.800000,-1.648402,-0.305701,-1.485577,1.093598,1.089767,-0.035325,0.868558,-0.303802,0.162921,-0.460578,-2.589929,-0.524072,-3.007661,-6.412986,-0.386050,-0.031355,-0.089791,0.000000,-0.265568,0.052185,-0.000000
1.810000,-1.637423,-0.294819,-1.485922,1.102260,1.086598,-0.033722,0.863803,-0.330019,0.157665,-0.490535,-2.653151,-0.526832,-2.985401,-6.225185,-0.195267,-0.034041,-0.089254,0.000000,-0.271772,0.055230,0.000000
1.820000,-1.626357,-0.283969,-1.486251,1.110873,1.083164,-0.032172,0.858748,-0.356859,0.152390,-0.520265,-2.714403,-0.527876,-2.960149,-6.022710,-0.015304,-0.036789,-0.088686,0.000000,-0.277762,0.058231,-0.000000
1.830000,-1.615206,-0.273156,-1.486566,1.119434,1.079459,-0.030674,0.853398,-0.384301,0.147114,-0.549728,-2.773557,-0.527175,-2.931815,-5.805750,0.153577,-0.039596,-0.088089,0.000000,-0.283527,0.061183,0.000000
1.840000,-1.603969,-0.262381,-1.486865,1.127940,1.075476,-0.029229,0.847755,-0.412323,0.141852,-0.578891,-2.830470,-0.524842,-2.900308,-5.574496,0.311116,-0.042459,-0.087462,0.000000,-0.289054,0.064085,0.000000
1.850000,-1.592647,-0.251648,-1.487150,1.136388,1.071211,-0.027837,0.841821,-0.440902,0.136622,-0.607723,-2.885000,-0.520992,-2.865535,-5.329136,0.457053,-0.045376,-0.086806,0.000000,-0.294331,0.066935,-0.000000
1.860000,-1.581241,-0.240958,-1.487422,1.144775,1.066656,-0.026497,0.835602,-0.470014,0.131438,-0.636185,-2.937019,-0.515622,-2.827545,-5.069552,0.588132,-0.048345,-0.086122,0.000000,-0.299345,0.069729,0.000000
1.870000,-1.569752,-0.230315,-1.487680,1.153099,1.061809,-0.025208,0.829099,-0.499633,0.126314,-0.664256,-2.986359,-0.509135,-2.786090,-4.796281,0.707454,-0.051362,-0.085410,0.000000,-0.304080,0.072469,0.000000
1.880000,-1.558179,-0.219723,-1.487926,1.161356,1.056662,-0.023970,0.822318,-0.529732,0.121260,-0.691895,-3.032900,-0.501512,-2.741063,-4.509551,0.815127,-0.054425,-0.084671,0.000000,-0.308524,0.075152,-0.000000
1.890000,-1.546525,-0.209183,-1.488160,1.169544,1.051213,-0.022783,0.815263,-0.560282,0.116287,-0.719065,-3.076506,-0.492871,-2.692355,-4.209591,0.911256,-0.057532,-0.083905,0.000000,-0.312667,0.077775,0.000000
1.900000,-1.534789,-0.198700,-1.488382,1.177661,1.045455,-0.021644,0.807938,-0.591252,0.111405,-0.745730,-3.117048,-0.483325,-2.639858,-3.896628,0.995947,-0.060678,-0.083113,0.000000,-0.316494,0.080335,0.000000
1.910000,-1.522972,-0.188275,-1.488593,1.185702,1.039386,-0.020554,0.800349,-0.622610,0.106624,-0.771973,-3.154246,-0.472891,-2.580346,-3.574694,1.066815,-0.063860,-0.082295,0.000000,-0.319980,0.082843,0.000000
1.920000,-1.511075,-0.177913,-1.488793,1.193667,1.033002,-0.019511,0.792501,-0.654326,0.101949,-0.797464,-3.188329,-0.461914,-2.517210,-3.239748,1.126763,-0.067076,-0.081453,0.000000,-0.323146,0.085267,-0.000000
1.930000,-1.499099,-0.167616,-1.488983,1.201551,1.026299,-0.018515,0.784402,-0.686366,0.097388,-0.822306,-3.218996,-0.450390,-2.450724,-2.891552,1.176204,-0.070322,-0.080586,0.000000,-0.325965,0.087619,-0.000000
1.940000,-1.487044,-0.157388,-1.489164,1.209354,1.019273,-0.017563,0.776057,-0.718694,0.092943,-0.846468,-3.246115,-0.438423,-2.381162,-2.529869,1.215549,-0.073594,-0.079696,0.000000,-0.328422,0.089896,0.000000
1.950000,-1.474912,-0.147232,-1.489335,1.217072,1.011924,-0.016656,0.767475,-0.751276,0.088620,-0.869920,-3.269548,-0.426112,-2.308798,-2.154461,1.245210,-0.076889,-0.078784,0.000000,-0.330506,0.092097,0.000000
1.960000,-1.462703,-0.137151,-1.489497,1.224703,1.004247,-0.015790,0.758667,-0.784080,0.084423,-0.892119,-3.289887,-0.413476,-2.246945,-1.746656,1.263714,-0.080204,-0.077850,0.000000,-0.332276,0.094167,-0.000000
1.970000,-1.450418,-0.127148,-1.489651,1.232244,0.996242,-0.014967,0.749634,-0.817060,0.080351,-0.914264,-3.305264,-0.400782,-2.181240,-1.326909,1.273588,-0.083533,-0.076894,0.000000,-0.333542,0.096230,0.000000
1.980000,-1.438058,-0.117227,-1.489797,1.239694,0.987906,-0.014183,0.740384,-0.850171,0.076407,-0.935727,-3.316392,-0.388030,-2.110360,-0.897238,1.275473,-0.086873,-0.075919,0.000000,-0.334380,0.098224,0.000000
1.990000,-1.425625,-0.107391,-1.489935,1.247051,0.979238,-0.013438,0.730922,-0.883373,0.072591,-0.956449,-3.323183,-0.375297,-2.032980,-0.459663,1.270014,-0.090219,-0.074923,0.000000,-0.334779,0.100142,0.000000
2.000000,-1.413118,-0.097643,-1.490065,1.254312,0.970238,-0.012731,0.721257,-0.916620,0.068901,-0.976360,-3.325566,-0.362653,-1.947777,-0.016203,1.257850,-0.093567,-0.073908,0.000000,-0.334734,0.101978,-0.000000
2.010000,-1.400539,-0.087987,-1.490189,1.261476,0.960905,-0.012060,0.711388,-0.949857,0.065337,-0.996293,-3.322331,-0.350146,-1.830222,0.401742,1.239260,-0.096911,-0.072874,0.000000,-0.334123,0.103818,-0.000000
2.020000,-1.387889,-0.078426,-1.490307,1.268540,0.951241,-0.011424,0.701336,-0.983053,0.061897,-1.013975,-3.316202,-0.337869,-1.705040,0.825131,1.215295,-0.100248,-0.071822,0.000000,-0.333222,0.105431,0.000000
2.030000,-1.375168,-0.068964,-1.490418,1.275502,0.941245,-0.010821,0.691113,-1.016167,0.058579,-1.030373,-3.305805,-0.325856,-1.573748,1.255539,1.186645,-0.103574,-0.070755,0.000000,-0.331892,0.106916,0.000000
2.040000,-1.362379,-0.059602,-1.490523,1.282361,0.930918,-0.010252,0.680733,-1.049155,0.055379,-1.045435,-3.291062,-0.314149,-1.437865,1.694545,1.153995,-0.106885,-0.069673,0.000000,-0.330126,0.108269,-0.000000
2.050000,-1.349521,-0.050346,-1.490623,1.289116,0.920262,-0.009713,0.670209,-1.081973,0.052295,-1.059121,-3.271880,-0.302787,-1.298909,2.143727,1.118032,-0.110175,-0.068577,0.000000,-0.327916,0.109486,0.000000
2.060000,-1.336597,-0.041198,-1.490718,1.295765,0.909279,-0.009205,0.659560,-1.114584,0.049322,-1.070974,-3.248832,-0.291811,-1.169344,2.621921,1.079781,-0.113442,-0.067471,0.000000,-0.325319,0.110521,0.000000
2.070000,-1.323606,-0.032162,-1.490807,1.302307,0.897972,-0.008727,0.648794,-1.146934,0.046457,-1.082014,-3.220175,-0.281213,-1.038403,3.111333,1.039551,-0.116680,-0.066353,0.000000,-0.322163,0.111477,-0.000000
2.080000,-1.310551,-0.023240,-1.490892,1.308741,0.886342,-0.008276,0.637924,-1.178971,0.043696,-1.091738,-3.186569,-0.271024,-0.906264,3.611426,0.997988,-0.119884,-0.065226,0.000000,-0.318513,0.112304,0.000000
2.090000,-1.297432,-0.014436,-1.490973,1.315065,0.874393,-0.007852,0.626963,-1.210648,0.041035,-1.100136,-3.147912,-0.261255,-0.773104,4.121667,0.955739,-0.123049,-0.064091,0.000000,-0.314363,0.113002,-0.000000
2.100000,-1.284250,-0.005753,-1.491049,1.321280,0.862130,-0.007455,0.615925,-1.241912,0.038470,-1.107198,-3.104104,-0.251909,-0.639100,4.641517,0.913450,-0.126169,-0.062949,0.000000,-0.309701,0.113569,0.000000
2.110000,-1.271007,0.002806,-1.491122,1.327383,0.849557,-0.007083,0.604828,-1.272720,0.035995,-1.112497,-3.055771,-0.243040,-0.515021,5.188601,0.873176,-0.129242,-0.061803,0.000000,-0.304593,0.113962,-0.000000
2.120000,-1.257703,0.011237,-1.491191,1.333376,0.836678,-0.006735,0.593680,-1.303010,0.033608,-1.117019,-3.001122,-0.234505,-0.389158,5.742000,0.833981,-0.132260,-0.060651,0.000000,-0.298863,0.114281,-0.000000
2.130000,-1.244340,0.019538,-1.491257,1.339257,0.823499,-0.006410,0.582492,-1.332724,0.031304,-1.120270,-2.940919,-0.226355,-0.260393,6.298957,0.796339,-0.135217,-0.059497,0.000000,-0.292587,0.114477,0.000000
2.140000,-1.230918,0.027706,-1.491319,1.345026,0.810025,-0.006108,0.571279,-1.361809,0.029079,-1.122214,-2.875140,-0.218572,-0.127607,6.856712,0.760724,-0.138109,-0.058341,0.000000,-0.285766,0.114545,-0.000000
2.150000,-1.217440,0.035738,-1.491379,1.350682,0.796265,-0.005828,0.560052,-1.390209,0.026931,-1.122805,-2.803791,-0.211132,0.010318,7.412506,0.727609,-0.140931,-0.057185,0.000000,-0.278402,0.114480,-0.000000
2.160000,-1.203905,0.043630,-1.491436,1.356227,0.782223,-0.005569,0.548817,-1.417855,0.024855,-1.122950,-2.725816,-0.204113,0.178831,7.936060,0.700089,-0.143675,-0.056028,0.000000,-0.270390,0.114376,0.000000
2.170000,-1.190315,0.051381,-1.491491,1.361659,0.767910,-0.005331,0.537599,-1.444708,0.022848,-1.120300,-2.643855,-0.197237,0.351741,8.455505,0.675695,-0.146337,-0.054874,0.000000,-0.262000,0.113994,0.000000
2.180000,-1.176672,0.058988,-1.491543,1.366979,0.753332,-0.005112,0.526417,-1.470715,0.020909,-1.115907,-2.556717,-0.190589,0.527189,8.971452,0.654580,-0.148913,-0.053724,0.000000,-0.253111,0.113441,-0.000000
2.190000,-1.162976,0.066447,-1.491593,1.372188,0.738498,-0.004913,0.515287,-1.495825,0.019036,-1.109754,-2.464435,-0.184134,0.703314,9.484513,0.636897,-0.151397,-0.052580,0.000000,-0.243730,0.112714,-0.000000
2.200000,-1.149229,0.073757,-1.491641,1.377285,0.723419,-0.004731,0.504227,-1.519986,0.017226,-1.101844,-2.367035,-0.177839,0.878256,9.995298,0.622799,-0.153786,-0.051444,0.000000,-0.233861,0.111816,0.000000
2.210000,-1.135431,0.080915,-1.491687,1.382272,0.708102,-0.004568,0.493261,-1.543157,0.015477,-1.091739,-2.265313,-0.171757,1.038526,10.524065,0.614748,-0.156074,-0.050318,0.000000,-0.223584,0.110701,0.000000
2.220000,-1.121584,0.087918,-1.491732,1.387150,0.692559,-0.004422,0.482398,-1.565275,0.013790,-1.080566,-2.157442,-0.165635,1.195315,11.049372,0.610304,-0.158256,-0.049204,0.000000,-0.212721,0.109483,-0.000000
2.230000,-1.107688,0.094765,-1.491776,1.391921,0.676800,-0.004292,0.471655,-1.586288,0.012165,-1.067845,-2.044343,-0.159539,1.348188,11.569425,0.609338,-0.160327,-0.048102,0.000000,-0.201365,0.108113,0.000000
2.240000,-1.093746,0.101453,-1.491818,1.396584,0.660837,-0.004178,0.461046,-1.606145,0.010600,-1.053617,-1.926077,-0.153437,1.496707,12.082429,0.611720,-0.162281,-0.047014,0.000000,-0.189522,0.106597,-0.000000
2.250000,-1.079757,0.107981,-1.491860,1.401142,0.644682,-0.004080,0.450587,-1.624793,0.009096,-1.037927,-1.802724,-0.147294,1.640436,12.586588,0.617320,-0.164116,-0.045942,0.000000,-0.177202,0.104938,-0.000000
2.260000,-1.065723,0.114346,-1.491900,1.405596,0.628346,-0.003996,0.440291,-1.642181,0.007653,-1.020946,-1.674278,-0.141155,1.781988,13.077525,0.627902,-0.165824,-0.044887,0.000000,-0.164403,0.103154,0.000000
2.270000,-1.051645,0.120548,-1.491940,1.409948,0.611842,-0.003926,0.430173,-1.658262,0.006273,-1.002444,-1.541098,-0.134812,1.917503,13.556344,0.641211,-0.167402,-0.043850,0.000000,-0.151165,0.101222,0.000000
2.280000,-1.037524,0.126583,-1.491979,1.414200,0.595185,-0.003870,0.420246,-1.672988,0.004958,-0.982619,-1.403197,-0.128323,2.046172,14.021567,0.656883,-0.168846,-0.042834,0.000000,-0.137487,0.099161,0.000000
2.290000,-1.023362,0.132451,-1.492017,1.418354,0.578387,-0.003827,0.410525,-1.686311,0.003707,-0.961546,-1.260717,-0.121667,2.167184,14.471717,0.674557,-0.170150,-0.041839,0.000000,-0.123383,0.096980,0.000000
2.300000,-1.009158,0.138150,-1.492055,1.422412,0.561464,-0.003796,0.401019,-1.698187,0.002525,-0.939304,-1.113818,-0.114826,2.279731,14.905314,0.693871,-0.171312,-0.040866,0.000000,-0.108869,0.094686,0.000000
2.310000,-0.994914,0.143680,-1.492093,1.426375,0.544428,-0.003776,0.391742,-1.708571,0.001411,-0.915966,-0.962481,-0.107814,2.382587,15.316067,0.715174,-0.172326,-0.039917,0.000000,-0.093940,0.092286,0.000000
2.320000,-0.980630,0.149038,-1.492131,1.430247,0.527297,-0.003767,0.382703,-1.717423,0.000369,-0.891667,-0.807345,-0.100552,2.475409,15.707901,0.737305,-0.173190,-0.038993,0.000000,-0.078660,0.089795,0.000000
2.330000,-0.966309,0.154225,-1.492168,1.434030,0.510085,-0.003769,0.373912,-1.724705,-0.000599,-0.866493,-0.648389,-0.093067,2.557436,16.079926,0.759816,-0.173898,-0.038095,0.000000,-0.063024,0.087219,0.000000
2.340000,-0.951950,0.159240,-1.492206,1.437726,0.492808,-0.003779,0.365376,-1.730379,-0.001491,-0.840557,-0.485815,-0.085356,2.627909,16.431252,0.782256,-0.174449,-0.037222,0.000000,-0.047050,0.084572,0.000000
2.350000,-0.937555,0.164081,-1.492244,1.441338,0.475483,-0.003798,0.357103,-1.734410,-0.002305,-0.813976,-0.319835,-0.077423,2.686070,16.760993,0.804176,-0.174838,-0.036377,0.000000,-0.030755,0.081864,0.000000
2.360000,-0.923124,0.168749,-1.492282,1.444869,0.458126,-0.003825,0.349100,-1.736767,-0.003039,-0.786668,-0.150849,-0.069244,2.725819,17.072764,0.824333,-0.175063,-0.035560,0.000000,-0.014176,0.079087,-0.000000
2.370000,-0.908658,0.173244,-1.492320,1.448321,0.440753,-0.003859,0.341371,-1.737417,-0.003690,-0.759265,0.021339,-0.060905,2.752391,17.360619,0.843168,-0.175121,-0.034771,0.000000,0.002709,0.076305,0.000000
2.380000,-0.894157,0.177565,-1.492359,1.451698,0.423383,-0.003898,0.333916,-1.736331,-0.004256,-0.731664,0.196279,-0.052386,2.765680,17.623117,0.860331,-0.175008,-0.034010,0.000000,0.019862,0.073506,0.000000
2.390000,-0.879624,0.181712,-1.492398,1.455001,0.406033,-0.003944,0.326738,-1.733483,-0.004737,-0.703997,0.373712,-0.043706,2.765581,17.858815,0.875470,-0.174723,-0.033278,0.000000,0.037259,0.070704,-0.000000
2.400000,-0.865058,0.185685,-1.492438,1.458233,0.388720,-0.003993,0.319836,-1.728850,-0.005130,-0.676397,0.553361,-0.034885,2.751987,18.066275,0.888231,-0.174262,-0.032574,0.000000,0.054878,0.067912,-0.000000
2.410000,-0.850459,0.189486,-1.492478,1.461398,0.371462,-0.004046,0.313210,-1.722406,-0.005433,-0.648909,0.735229,-0.025876,2.722436,18.236709,0.896388,-0.173624,-0.031899,0.000000,0.072723,0.065134,0.000000
2.420000,-0.835830,0.193115,-1.492519,1.464498,0.354277,-0.004101,0.306856,-1.714140,-0.005647,-0.621888,0.918323,-0.016883,2.679468,18.376921,0.901693,-0.172807,-0.031252,0.000000,0.090702,0.062405,0.000000
2.430000,-0.821170,0.196572,-1.492560,1.467536,0.337185,-0.004158,0.300771,-1.704036,-0.005771,-0.595363,1.102665,-0.007852,2.623268,18.486369,0.904027,-0.171810,-0.030632,0.000000,0.108823,0.059729,-0.000000
2.440000,-0.806479,0.199859,-1.492602,1.470515,0.320203,-0.004216,0.294947,-1.692083,-0.005804,-0.569466,1.287946,0.001187,2.554019,18.564512,0.903265,-0.170630,-0.030039,0.000000,0.127059,0.057118,-0.000000
2.450000,-0.791760,0.202976,-1.492645,1.473436,0.303350,-0.004274,0.289379,-1.678275,-0.005747,-0.544326,1.473849,0.010203,2.471904,18.610809,0.899287,-0.169268,-0.029473,0.000000,0.145383,0.054584,-0.000000
2.460000,-0.777011,0.205926,-1.492688,1.476303,0.286643,-0.004331,0.284058,-1.662602,-0.005599,-0.520013,1.660327,0.019251,2.375655,18.617829,0.889717,-0.167722,-0.028931,0.000000,0.163794,0.052135,-0.000000
2.470000,-0.762234,0.208710,-1.492731,1.479118,0.270104,-0.004386,0.278975,-1.645069,-0.005363,-0.496789,1.846406,0.028087,2.267085,18.592764,0.876961,-0.165992,-0.028415,0.000000,0.182204,0.049797,-0.000000
2.480000,-0.747429,0.211329,-1.492775,1.481883,0.253748,-0.004438,0.274118,-1.625676,-0.005038,-0.474711,2.032076,0.036780,2.146554,18.535913,0.861175,-0.164078,-0.027921,0.000000,0.200614,0.047576,0.000000
2.490000,-0.732596,0.213786,-1.492820,1.484601,0.237596,-0.004486,0.269477,-1.604430,-0.004628,-0.453897,2.217020,0.045301,2.014424,18.447580,0.842511,-0.161980,-0.027450,0.000000,0.218995,0.045482,-0.000000
2.500000,-0.717737,0.216082,-1.492865,1.487273,0.221666,-0.004530,0.265036,-1.581339,-0.004133,-0.434460,2.400924,0.053621,1.871057,18.328066,0.821125,-0.159698,-0.026999,0.000000,0.237321,0.043528,-0.000000
2.510000,-0.702851,0.218220,-1.492911,1.489902,0.205976,-0.004569,0.260784,-1.556418,-0.003555,-0.416321,2.583215,0.061798,1.711995,18.184321,0.795085,-0.157234,-0.026568,0.000000,0.255537,0.041705,-0.000000
2.520000,-0.687939,0.220202,-1.492957,1.492490,0.190544,-0.004601,0.256704,-1.529680,-0.002898,-0.400038,2.764209,0.069609,1.543008,18.009184,0.766885,-0.154588,-0.026154,0.000000,0.273678,0.040070,0.000000
2.530000,-0.673001,0.222031,-1.493003,1.495037,0.175388,-0.004627,0.252778,-1.501141,-0.002164,-0.385491,2.943292,0.077129,1.365046,17.802144,0.736934,-0.151761,-0.025756,0.000000,0.291686,0.038610,0.000000
2.540000,-0.658038,0.223711,-1.493049,1.497546,0.160527,-0.004644,0.248988,-1.470821,-0.001356,-0.372764,3.120144,0.084343,1.179059,17.562688,0.705640,-0.148755,-0.025372,0.000000,0.309528,0.037334,-0.000000
2.550000,-0.643050,0.225243,-1.493096,1.500017,0.145977,-0.004653,0.245316,-1.438746,-0.000478,-0.361933,3.294436,0.091239,0.985998,17.290303,0.673414,-0.145571,-0.025000,0.000000,0.327173,0.036250,0.000000
2.560000,-0.628038,0.226631,-1.493142,1.502452,0.131758,-0.004654,0.241743,-1.404941,0.000468,-0.353058,3.465985,0.097857,0.786644,16.980777,0.639460,-0.142212,-0.024639,0.000000,0.344602,0.035363,0.000000
2.570000,-0.613002,0.227879,-1.493189,1.504852,0.117884,-0.004644,0.238248,-1.369437,0.001478,-0.346210,3.634105,0.104082,0.582139,16.637752,0.605538,-0.138680,-0.024285,0.000000,0.361748,0.034682,-0.000000
2.580000,-0.597941,0.228990,-1.493235,1.507217,0.104374,-0.004624,0.234812,-1.332271,0.002549,-0.341429,3.798628,0.109970,0.373454,16.261168,0.572205,-0.134978,-0.023938,0.000000,0.378592,0.034211,0.000000
2.590000,-0.582857,0.229968,-1.493281,1.509549,0.091244,-0.004593,0.231413,-1.293478,0.003676,-0.338752,3.959217,0.115530,0.161562,15.850967,0.540018,-0.131109,-0.023594,0.000000,0.395098,0.033953,0.000000
2.600000,-0.567750,0.230817,-1.493327,1.511846,0.078510,-0.004550,0.228030,-1.253101,0.004858,-0.338205,4.115535,0.120776,-0.052567,15.407089,0.509532,-0.127077,-0.023252,0.000000,0.411231,0.033912,-0.000000
2.610000,-0.552621,0.231540,-1.493372,1.514109,0.066187,-0.004495,0.224643,-1.211177,0.006091,-0.339686,4.267772,0.125736,-0.271013,14.916181,0.481101,-0.122885,-0.022910,0.000000,0.427004,0.034077,-0.000000
2.620000,-0.537468,0.232142,-1.493417,1.516338,0.054291,-0.004428,0.221229,-1.167762,0.007372,-0.343489,4.414345,0.130417,-0.489378,14.393107,0.455509,-0.118539,-0.022564,0.000000,0.442257,0.034479,0.000000
2.630000,-0.522294,0.232627,-1.493460,1.518533,0.042837,-0.004348,0.217766,-1.122908,0.008699,-0.349469,4.555532,0.134858,-0.706317,13.839435,0.433338,-0.114042,-0.022214,0.000000,0.457012,0.035103,-0.000000
2.640000,-0.507098,0.233000,-1.493503,1.520694,0.031838,-0.004254,0.214232,-1.076670,0.010068,-0.357606,4.691037,0.139097,-0.920482,13.256734,0.415169,-0.109400,-0.021857,0.000000,0.471235,0.035947,-0.000000
2.650000,-0.491880,0.233265,-1.493545,1.522818,0.021308,-0.004146,0.210607,-1.029107,0.011480,-0.367865,4.820576,0.143177,-1.130530,12.646574,0.401584,-0.104619,-0.021490,0.000000,0.484892,0.037008,-0.000000
2.660000,-0.476641,0.233428,-1.493586,1.524905,0.011260,-0.004024,0.206867,-0.980280,0.012931,-0.380315,4.943880,0.147061,-1.332173,12.010573,0.395302,-0.099704,-0.021112,0.000000,0.497950,0.038294,-0.000000
2.670000,-0.461382,0.233492,-1.493626,1.526955,0.001706,-0.003888,0.202994,-0.930251,0.014421,-0.394618,5.060704,0.151005,-1.527367,11.350244,0.394505,-0.094662,-0.020720,0.000000,0.510377,0.039770,-0.000000
2.680000,-0.446102,0.233464,-1.493664,1.528965,-0.007341,-0.003736,0.198968,-0.879088,0.015951,-0.410837,5.170809,0.154970,-1.715126,10.667149,0.399512,-0.089499,-0.020312,0.000000,0.522145,0.041442,-0.000000
2.690000,-0.430803,0.233347,-1.493701,1.530934,-0.015872,-0.003568,0.194771,-0.826858,0.017521,-0.428893,5.273976,0.159016,-1.894464,9.962852,0.410643,-0.084222,-0.019887,0.000000,0.533224,0.043304,-0.000000
2.700000,-0.415484,0.233148,-1.493735,1.532859,-0.023875,-0.003385,0.190384,-0.773632,0.019132,-0.448695,5.370001,0.163205,-2.064395,9.238915,0.428217,-0.078837,-0.019443,0.000000,0.543587,0.045345,0.000000
2.710000,-0.400146,0.232871,-1.493768,1.534741,-0.031342,-0.003186,0.185790,-0.719483,0.020784,-0.470311,5.458610,0.167463,-2.219761,8.499021,0.456094,-0.073352,-0.018977,0.000000,0.553203,0.047574,-0.000000
2.720000,-0.384789,0.232523,-1.493799,1.536575,-0.038262,-0.002969,0.180973,-0.664485,0.022482,-0.493240,5.539830,0.172191,-2.364261,7.742353,0.490619,-0.067775,-0.018488,0.000000,0.562066,0.049938,0.000000
2.730000,-0.369415,0.232108,-1.493828,1.538359,-0.044629,-0.002736,0.175920,-0.608712,0.024229,-0.517558,5.613406,0.177297,-2.497418,6.970214,0.531680,-0.062114,-0.017975,0.000000,0.570146,0.052445,-0.000000
2.740000,-0.354022,0.231632,-1.493854,1.540092,-0.050434,-0.002485,0.170618,-0.552243,0.026029,-0.543149,5.679188,0.182846,-2.618760,6.183908,0.579161,-0.056375,-0.017437,0.000000,0.577422,0.055084,-0.000000
2.750000,-0.338613,0.231101,-1.493877,1.541771,-0.055671,-0.002215,0.165053,-0.495155,0.027888,-0.569893,5.737041,0.188901,-2.727810,5.384739,0.632949,-0.050568,-0.016871,0.000000,0.583877,0.057842,-0.000000
2.760000,-0.323187,0.230521,-1.493898,1.543392,-0.060335,-0.001926,0.159216,-0.437526,0.029808,-0.597719,5.787089,0.195382,-2.822693,4.567819,0.696550,-0.044700,-0.016278,0.000000,0.589520,0.060713,-0.000000
2.770000,-0.307745,0.229896,-1.493916,1.544954,-0.064421,-0.001619,0.153096,-0.379441,0.031798,-0.626366,5.828642,0.202689,-2.904507,3.741399,0.765786,-0.038781,-0.015656,0.000000,0.594275,0.063669,-0.000000
2.780000,-0.292288,0.229234,-1.493930,1.546453,-0.067923,-0.001290,0.146686,-0.320981,0.033864,-0.655764,5.861892,0.210715,-2.972949,2.907542,0.840101,-0.032818,-0.015003,0.000000,0.598160,0.066704,0.000000
2.790000,-0.276816,0.228540,-1.493941,1.547887,-0.070839,-0.000941,0.139979,-0.262231,0.036014,-0.685779,5.886775,0.219506,-3.027716,2.068308,0.918938,-0.026820,-0.014321,0.000000,0.601166,0.069803,-0.000000
2.800000,-0.261331,0.227819,-1.493949,1.549252,-0.073167,-0.000570,0.132969,-0.203274,0.038257,-0.716272,5.903247,0.229107,-3.068505,1.225760,1.001739,-0.020797,-0.013607,0.000000,0.603289,0.072952,0.000000
2.810000,-0.245832,0.227078,-1.493953,1.550545,-0.074904,-0.000175,0.125651,-0.144196,0.040598,-0.747242,5.911089,0.239412,-3.091474,0.386943,1.091509,-0.014758,-0.012861,0.000000,0.604504,0.076152,-0.000000
2.820000,-0.230320,0.226323,-1.493952,1.551764,-0.076051,0.000243,0.118023,-0.085080,0.043048,-0.778212,5.910764,0.250786,-3.100293,-0.451677,1.183694,-0.008710,-0.012083,0.000000,0.604858,0.079353,-0.000000
2.830000,-0.214797,0.225559,-1.493948,1.552905,-0.076606,0.000686,0.110086,-0.026009,0.045617,-0.809201,5.902061,0.263090,-3.095090,-1.288648,1.277298,-0.002663,-0.011274,0.000000,0.604331,0.082558,-0.000000
2.840000,-0.199262,0.224793,-1.493939,1.553965,-0.076571,0.001155,0.101840,0.032934,0.048313,-0.840068,5.885001,0.276333,-3.075997,-2.122520,1.371330,0.003374,-0.010432,0.000000,0.602926,0.085752,-0.000000
2.850000,-0.183718,0.224030,-1.493925,1.554940,-0.075948,0.001653,0.093286,0.091664,0.051146,-0.870675,5.859625,0.290515,-3.043143,-2.951842,1.464795,0.009392,-0.009559,0.000000,0.600649,0.088922,0.000000
2.860000,-0.168164,0.223276,-1.493905,1.555829,-0.074739,0.002179,0.084427,0.150098,0.054125,-0.900930,5.825975,0.305540,-2.995530,-3.774921,1.558818,0.015384,-0.008654,0.000000,0.597506,0.092059,-0.000000
2.870000,-0.152601,0.222537,-1.493881,1.556628,-0.072947,0.002736,0.075269,0.208156,0.057260,-0.930591,5.784141,0.321587,-2.934554,-4.590577,1.650029,0.021339,-0.007718,0.000000,0.593510,0.095137,0.000000
2.880000,-0.137031,0.221819,-1.493851,1.557334,-0.070577,0.003325,0.065818,0.265754,0.060560,-0.959577,5.734193,0.338527,-2.860485,-5.397389,1.737174,0.027251,-0.006751,0.000000,0.588670,0.098148,0.000000
2.890000,-0.121455,0.221128,-1.493814,1.557943,-0.067634,0.003947,0.056080,0.322813,0.064034,-0.987758,5.676227,0.356313,-2.773591,-6.193936,1.819001,0.033110,-0.005754,0.000000,0.582999,0.101081,-0.000000
2.900000,-0.105873,0.220468,-1.493772,1.558454,-0.064123,0.004606,0.046066,0.379252,0.067689,-1.015007,5.610353,0.374885,-2.674140,-6.978797,1.894258,0.038908,-0.004728,0.000000,0.576512,0.103922,-0.000000
2.910000,-0.090286,0.219847,-1.493722,1.558864,-0.060051,0.005302,0.035783,0.434993,0.071534,-1.041252,5.536622,0.394163,-2.561095,-7.748704,1.961919,0.044638,-0.003674,0.000000,0.569217,0.106665,0.000000
2.920000,-0.074696,0.219269,-1.493665,1.559169,-0.055426,0.006037,0.025245,0.489959,0.075574,-1.066248,5.455344,0.414083,-2.436190,-8.504308,2.020477,0.050290,-0.002593,0.000000,0.561150,0.109284,0.000000
2.930000,-0.059103,0.218740,-1.493601,1.559368,-0.050255,0.006814,0.014462,0.544075,0.079817,-1.089937,5.366587,0.434538,-2.299854,-9.244414,2.068650,0.055858,-0.001486,0.000000,0.552319,0.111775,-0.000000
2.940000,-0.043509,0.218266,-1.493529,1.559458,-0.044547,0.007634,0.003450,0.597267,0.084267,-1.112208,5.270512,0.455417,-2.152515,-9.967826,2.105160,0.061334,-0.000355,0.000000,0.542745,0.114126,0.000000
2.950000,-0.027914,0.217851,-1.493448,1.559436,-0.038313,0.008500,-0.007777,0.649462,0.088926,-1.132953,5.167291,0.476598,-1.994603,-10.673349,2.128724,0.066711,0.000800,0.000000,0.532448,0.116326,0.000000
2.960000,-0.012321,0.217501,-1.493359,1.559302,-0.031562,0.009413,-0.019204,0.700589,0.093800,-1.152111,5.057050,0.498023,-1.825423,-11.358310,2.136072,0.071981,0.001976,0.000000,0.521443,0.118370,-0.000000
2.970000,0.003271,0.217221,-1.493260,1.559052,-0.024305,0.010377,-0.030813,0.750580,0.098887,-1.169479,4.940125,0.519358,-1.646663,-12.023172,2.128159,0.077137,0.003173,0.000000,0.509765,0.120237,0.000000
2.980000,0.018860,0.217017,-1.493151,1.558685,-0.016554,0.011392,-0.042587,0.799369,0.104187,-1.185014,4.816657,0.540532,-1.458890,-12.666921,2.103947,0.082174,0.004388,0.000000,0.497429,0.121922,0.000000
2.990000,0.034445,0.216892,-1.493032,1.558199,-0.008322,0.012461,-0.054507,0.846892,0.109697,-1.198629,4.686861,0.561379,-1.262670,-13.288543,2.062400,0.087084,0.005619,0.000000,0.484458,0.123418,-0.000000
3.000000,0.050024,0.216852,-1.492902,1.557594,0.000379,0.013587,-0.066553,0.893086,0.115412,-1.210241,4.550963,0.581719,-1.058567,-13.887022,2.002481,0.091861,0.006865,0.000000,0.470875,0.124715,0.000000
3.010000,0.065596,0.216901,-1.492760,1.556868,0.009535,0.014770,-0.078705,0.937892,0.121330,-1.219818,4.409173,0.601528,-0.846091,-14.460637,1.919003,0.096499,0.008123,0.000000,0.456702,0.125809,-0.000000
3.020000,0.081161,0.217044,-1.492606,1.556020,0.019132,0.016014,-0.090942,0.981251,0.127440,-1.227188,4.261802,0.620218,-0.626993,-15.009167,1.815588,0.100993,0.009392,0.000000,0.441964,0.126684,0.000000
3.030000,0.096716,0.217285,-1.492439,1.555049,0.029155,0.017319,-0.103242,1.023110,0.133731,-1.232338,4.109076,0.637772,-0.401972,-15.531686,1.691708,0.105337,0.010669,0.000000,0.426685,0.127336,0.000000
3.040000,0.112261,0.217629,-1.492259,1.553955,0.039589,0.018689,-0.115581,1.063416,0.140191,-1.235210,3.951258,0.653982,-0.171721,-16.027266,1.546835,0.109525,0.011952,0.000000,0.410888,0.127759,0.000000
3.050000,0.127795,0.218078,-1.492065,1.552737,0.050418,0.020124,-0.127938,1.102119,0.146805,-1.235757,3.788624,0.668637,0.063064,-16.494978,1.380440,0.113553,0.013239,0.000000,0.394598,0.127947,-0.000000
3.060000,0.143315,0.218638,-1.491857,1.551396,0.061626,0.021625,-0.140289,1.139173,0.153560,-1.233982,3.621440,0.681753,0.302833,-16.933532,1.186050,0.117415,0.014527,0.000000,0.377839,0.127900,-0.000000
3.070000,0.158822,0.219312,-1.491633,1.549932,0.073196,0.023195,-0.152610,1.174534,0.160434,-1.229742,3.450036,0.692550,0.545604,-17.342407,0.969810,0.121108,0.015814,0.000000,0.360634,0.127601,-0.000000
3.080000,0.174314,0.220103,-1.491393,1.548344,0.085111,0.024834,-0.164876,1.208160,0.167404,-1.223062,3.274694,0.701077,0.790542,-17.720722,0.731918,0.124627,0.017097,0.000000,0.343008,0.127052,-0.000000
3.090000,0.189789,0.221015,-1.491136,1.546634,0.097354,0.026544,-0.177063,1.240015,0.174447,-1.213926,3.095726,0.707117,1.036810,-18.067593,0.472575,0.127967,0.018374,0.000000,0.324989,0.126249,-0.000000
3.100000,0.205246,0.222051,-1.490862,1.544803,0.109905,0.028324,-0.189146,1.270064,0.181537,-1.202324,2.913450,0.710457,1.283572,-18.382137,0.191980,0.131125,0.019642,0.000000,0.306600,0.125189,-0.000000
3.110000,0.220684,0.223214,-1.490569,1.542852,0.122749,0.030174,-0.201102,1.298274,0.188649,-1.188303,2.728180,0.711168,1.531186,-18.663123,-0.116781,0.134098,0.020899,0.000000,0.287873,0.123875,-0.000000
3.120000,0.236103,0.224507,-1.490258,1.540782,0.135865,0.032096,-0.212904,1.324619,0.195750,-1.171758,2.540286,0.708373,1.777476,-18.910060,-0.445524,0.136881,0.022141,0.000000,0.268828,0.122294,-0.000000
3.130000,0.251500,0.225933,-1.489927,1.538594,0.149235,0.034089,-0.224529,1.349072,0.202805,-1.152761,2.350095,0.702194,2.021461,-19.122106,-0.793178,0.139473,0.023367,0.000000,0.249496,0.120450,0.000000
3.140000,0.266874,0.227493,-1.489576,1.536292,0.162840,0.036152,-0.235951,1.371614,0.209782,-1.131340,2.157963,0.692450,2.262160,-19.298421,-1.158673,0.141871,0.024573,0.000000,0.229907,0.118345,0.000000
3.150000,0.282225,0.229190,-1.489204,1.533876,0.176661,0.038284,-0.247147,1.392226,0.216642,-1.107532,1.964249,0.678965,2.498589,-19.438166,-1.540939,0.144071,0.025757,0.000000,0.210091,0.115979,0.000000
3.160000,0.297551,0.231027,-1.488810,1.531350,0.190678,0.040484,-0.258094,1.410895,0.223351,-1.081429,1.769297,0.661874,2.730863,-19.539820,-1.946366,0.146072,0.026916,0.000000,0.190081,0.113361,0.000000
3.170000,0.312852,0.233004,-1.488394,1.528715,0.204872,0.042751,-0.268768,1.427610,0.229866,-1.052985,1.573549,0.640325,2.956770,-19.603307,-2.365509,0.147872,0.028047,0.000000,0.169906,0.110482,0.000000
3.180000,0.328125,0.235125,-1.487955,1.525975,0.219224,0.045081,-0.279147,1.442364,0.236144,-1.022319,1.377361,0.614525,3.175194,-19.627867,-2.796383,0.149469,0.029149,0.000000,0.149603,0.107351,0.000000
3.190000,0.343371,0.237389,-1.487492,1.523133,0.233713,0.047473,-0.289208,1.455157,0.242142,-0.989510,1.181124,0.584365,3.385020,-19.612746,-3.237005,0.150864,0.030218,0.000000,0.129206,0.103976,0.000000
3.200000,0.358588,0.239799,-1.487005,1.520192,0.248320,0.049923,-0.298930,1.465988,0.247816,-0.954651,0.985241,0.549759,3.585130,-19.557184,-3.685389,0.152053,0.031252,0.000000,0.108755,0.100363,-0.000000
3.210000,0.373774,0.242356,-1.486493,1.517156,0.263026,0.052428,-0.308294,1.474863,0.253125,-0.917873,0.790069,0.510908,3.775161,-19.459189,-4.146381,0.153039,0.032248,0.000000,0.088287,0.096525,0.000000
3.220000,0.388930,0.245060,-1.485956,1.514028,0.277811,0.054984,-0.317281,1.481793,0.258019,-0.879221,0.596141,0.467126,3.953152,-19.319391,-4.610332,0.153819,0.033204,0.000000,0.067845,0.092462,0.000000
3.230000,0.404055,0.247912,-1.485393,1.510812,0.292655,0.057587,-0.325873,1.486792,0.262452,-0.838854,0.403822,0.418701,4.117898,-19.137184,-5.074420,0.154396,0.034118,0.000000,0.047473,0.088192,0.000000
3.240000,0.419146,0.250913,-1.484804,1.507512,0.307540,0.060231,-0.334053,1.489877,0.266377,-0.796911,0.213541,0.365647,4.268189,-18.911964,-5.535827,0.154769,0.034988,0.000000,0.027214,0.083726,-0.000000
3.250000,0.434205,0.254063,-1.484189,1.504132,0.322447,0.062912,-0.341807,1.491071,0.269749,-0.753543,0.025729,0.308003,4.402818,-18.643125,-5.991731,0.154941,0.035813,0.000000,0.007116,0.079081,0.000000
3.260000,0.449229,0.257362,-1.483546,1.500677,0.337356,0.065624,-0.349119,1.490399,0.272524,-0.708880,-0.159313,0.246024,4.519781,-18.326574,-6.443974,0.154912,0.036589,0.000000,-0.012782,0.074269,0.000000
3.270000,0.464218,0.260810,-1.482876,1.497151,0.352249,0.068360,-0.355981,1.487896,0.274655,-0.663172,-0.340811,0.179371,4.618764,-17.965619,-6.884504,0.154686,0.037315,0.000000,-0.032404,0.069316,0.000000
3.280000,0.479171,0.264407,-1.482179,1.493559,0.367108,0.071115,-0.362380,1.483596,0.276097,-0.616568,-0.518476,0.108385,4.698657,-17.560082,-7.309929,0.154265,0.037991,0.000000,-0.051709,0.064237,0.000000
3.290000,0.494089,0.268152,-1.481454,1.489905,0.381915,0.073880,-0.368310,1.477540,0.276809,-0.569266,-0.691863,0.033234,4.758348,-17.109784,-7.716858,0.153653,0.038615,0.000000,-0.070643,0.059056,0.000000
3.300000,0.508969,0.272045,-1.480701,1.486194,0.396653,0.076648,-0.373764,1.469774,0.276749,-0.521472,-0.860522,-0.045880,4.796729,-16.614546,-8.101899,0.152853,0.039186,0.000000,-0.089150,0.053793,0.000000
3.310000,0.523813,0.276085,-1.479921,1.482431,0.411305,0.079412,-0.378735,1.460341,0.275878,-0.473114,-1.024577,-0.128786,4.805306,-16.059703,-8.460000,0.151871,0.039703,0.000000,-0.107233,0.048445,-0.000000
3.320000,0.538618,0.280271,-1.479113,1.478621,0.425854,0.082163,-0.383226,1.449302,0.274162,-0.425112,-1.182218,-0.215059,4.791255,-15.461337,-8.789635,0.150711,0.040166,0.000000,-0.124692,0.043109,-0.000000
3.330000,0.553385,0.284602,-1.478278,1.474768,0.440286,0.084893,-0.387238,1.436717,0.271566,-0.377365,-1.333664,-0.304473,4.754369,-14.821042,-9.087617,0.149379,0.040575,0.000000,-0.141537,0.037778,-0.000000
3.340000,0.568113,0.289076,-1.477415,1.470878,0.454584,0.087592,-0.390775,1.422651,0.268063,-0.330101,-1.478504,-0.396695,4.694441,-14.140414,-9.350758,0.147882,0.040931,0.000000,-0.157712,0.032479,0.000000
3.350000,0.582802,0.293693,-1.476526,1.466954,0.468734,0.090251,-0.393842,1.407171,0.263624,-0.283553,-1.616343,-0.491361,4.611265,-13.421047,-9.575871,0.146227,0.041232,0.000000,-0.173163,0.027239,0.000000
3.360000,0.597452,0.298450,-1.475610,1.463002,0.482723,0.092861,-0.396444,1.390339,0.258224,-0.237476,-1.747647,-0.588519,4.492548,-12.643181,-9.748571,0.144420,0.041481,0.000000,-0.187928,0.022035,0.000000
3.370000,0.612062,0.303347,-1.474669,1.459027,0.496537,0.095412,-0.398596,1.372244,0.251849,-0.193237,-1.870050,-0.686689,4.351650,-11.832382,-9.878238,0.142471,0.041678,0.000000,-0.201737,0.017017,-0.000000
3.380000,0.626633,0.308380,-1.473702,1.455032,0.510164,0.097895,-0.400314,1.352966,0.244487,-0.150512,-1.984199,-0.785934,4.189843,-10.992859,-9.963057,0.140389,0.041825,0.000000,-0.214648,0.012154,0.000000
3.390000,0.641163,0.313549,-1.472711,1.451022,0.523593,0.100299,-0.401612,1.332589,0.236128,-0.109505,-2.089826,-0.885795,4.008402,-10.128824,-10.001210,0.138182,0.041924,0.000000,-0.226621,0.007472,0.000000
3.400000,0.655653,0.318852,-1.471697,1.447001,0.536812,0.102614,-0.402510,1.311199,0.226770,-0.070406,-2.186708,-0.985796,3.808599,-9.244487,-9.990883,0.135860,0.041977,0.000000,-0.237619,0.002993,0.000000
3.410000,0.670103,0.324285,-1.470659,1.442973,0.549813,0.104831,-0.403025,1.288881,0.216407,-0.033161,-2.274959,-1.086088,3.585909,-8.336548,-9.914007,0.133432,0.041985,0.000000,-0.247651,-0.001286,0.000000
3.420000,0.684512,0.329847,-1.469600,1.438942,0.562587,0.106939,-0.403181,1.265730,0.205052,0.001521,-2.353737,-1.184635,3.348114,-7.417646,-9.787007,0.130910,0.041952,0.000000,-0.256600,-0.005281,-0.000000
3.430000,0.698882,0.335536,-1.468521,1.434910,0.575126,0.108929,-0.403003,1.241837,0.192719,0.033758,-2.423293,-1.281662,3.097198,-6.492912,-9.610056,0.128304,0.041880,0.000000,-0.264493,-0.009004,-0.000000
3.440000,0.713211,0.341349,-1.467422,1.430883,0.587422,0.110790,-0.402514,1.217295,0.179425,0.063428,-2.483593,-1.376670,2.835145,-5.567474,-9.383328,0.125624,0.041771,0.000000,-0.271321,-0.012440,0.000000
3.450000,0.727499,0.347283,-1.466306,1.426861,0.599470,0.112514,-0.401743,1.192196,0.165194,0.090430,-2.534657,-1.469163,2.563937,-4.646462,-9.106997,0.122881,0.041630,0.000000,-0.277078,-0.015575,0.000000
3.460000,0.741748,0.353337,-1.465173,1.422849,0.611264,0.114091,-0.400716,1.166636,0.150046,0.114614,-2.576208,-1.559244,2.287308,-3.743743,-8.766111,0.120086,0.041458,0.000000,-0.281742,-0.018395,-0.000000
3.470000,0.755956,0.359508,-1.464024,1.418848,0.622801,0.115512,-0.399460,1.140702,0.134021,0.136080,-2.609187,-1.645002,2.005277,-2.854639,-8.377820,0.117249,0.041260,0.000000,-0.285390,-0.020902,-0.000000
3.480000,0.770125,0.365792,-1.462863,1.414860,0.634077,0.116769,-0.398004,1.114482,0.117159,0.154707,-2.633360,-1.726649,1.719614,-1.983212,-7.944150,0.114382,0.041039,0.000000,-0.288006,-0.023085,0.000000
3.490000,0.784254,0.372189,-1.461690,1.410888,0.645090,0.117853,-0.396375,1.088063,0.099503,0.170466,-2.648924,-1.803741,1.432088,-1.133521,-7.467126,0.111493,0.040797,0.000000,-0.289614,-0.024939,-0.000000
3.500000,0.798343,0.378693,-1.460506,1.406933,0.655838,0.118756,-0.394604,1.061531,0.081101,0.183348,-2.656117,-1.875854,1.144470,-0.309626,-6.948774,0.108593,0.040538,0.000000,-0.290242,-0.026466,0.000000
3.510000,0.812392,0.385304,-1.459315,1.402996,0.666320,0.119473,-0.392720,1.034974,0.061999,0.193203,-2.654657,-1.943019,0.862525,0.470292,-6.380161,0.105692,0.040265,0.000000,-0.289872,-0.027650,0.000000
3.520000,0.826403,0.392019,-1.458118,1.399079,0.676537,0.119994,-0.390749,1.008463,0.042260,0.200430,-2.646188,-2.003827,0.583536,1.218022,-5.775613,0.102798,0.039983,0.000000,-0.288667,-0.028529,-0.000000
3.530000,0.840374,0.398834,-1.456916,1.395182,0.686490,0.120316,-0.388720,0.982074,0.021944,0.204888,-2.630412,-2.058423,0.308783,1.931235,-5.138496,0.099921,0.039693,0.000000,-0.286612,-0.029092,0.000000
3.540000,0.854306,0.405748,-1.455712,1.391305,0.696180,0.120431,-0.386661,0.955878,0.001113,0.206624,-2.607686,-2.106499,0.039546,2.607599,-4.472179,0.097069,0.039399,0.000000,-0.283751,-0.029346,-0.000000
3.550000,0.868200,0.412757,-1.454508,1.387448,0.705608,0.120337,-0.384597,0.929943,-0.020164,0.205701,-2.578390,-2.147780,-0.222897,3.244784,-3.780028,0.094249,0.039104,0.000000,-0.280135,-0.029298,-0.000000
3.560000,0.882055,0.419859,-1.453306,1.383613,0.714779,0.120027,-0.382557,0.904337,-0.041821,0.202017,-2.542354,-2.182213,-0.472804,3.825954,-3.060652,0.091469,0.038812,0.000000,-0.275759,-0.028941,0.000000
3.570000,0.895872,0.427052,-1.452108,1.379797,0.723696,0.119499,-0.380565,0.879114,-0.063784,0.196076,-2.501364,-2.209144,-0.713903,4.365059,-2.322761,0.088735,0.038524,0.000000,-0.270811,-0.028328,0.000000
3.580000,0.909651,0.434332,-1.450917,1.376001,0.732363,0.118751,-0.378643,0.854327,-0.085979,0.187770,-2.455195,-2.228620,-0.945459,4.861544,-1.570303,0.086055,0.038244,0.000000,-0.265282,-0.027449,-0.000000
3.590000,0.923393,0.441698,-1.449734,1.372224,0.740784,0.117779,-0.376817,0.830026,-0.108331,0.177201,-2.404277,-2.240515,-1.166740,5.314855,-0.807229,0.083432,0.037974,0.000000,-0.259227,-0.026318,0.000000
3.600000,0.937096,0.449147,-1.448562,1.368464,0.748965,0.116584,-0.375107,0.806256,-0.130763,0.164472,-2.349044,-2.244742,-1.377012,5.724437,-0.037488,0.080872,0.037716,0.000000,-0.252701,-0.024949,0.000000
3.610000,0.950762,0.456677,-1.447403,1.364721,0.756911,0.115164,-0.373536,0.783063,-0.153199,0.149537,-2.289457,-2.241193,-1.571425,6.077652,0.733379,0.078379,0.037474,0.000000,-0.245713,-0.023338,-0.000000
3.620000,0.964390,0.464285,-1.446259,1.360993,0.764628,0.113520,-0.372122,0.760478,-0.175562,0.132900,-2.227096,-2.230007,-1.753866,6.387509,1.503207,0.075959,0.037249,0.000000,-0.238431,-0.021539,0.000000
3.630000,0.977982,0.471969,-1.445133,1.357278,0.772123,0.111653,-0.370884,0.738531,-0.197774,0.114500,-2.161848,-2.211145,-1.924105,6.654932,2.268241,0.073612,0.037043,0.000000,-0.230853,-0.019549,0.000000
3.640000,0.991536,0.479726,-1.444027,1.353575,0.779401,0.109565,-0.369838,0.717249,-0.219759,0.094459,-2.094135,-2.184671,-2.081913,6.880847,3.024725,0.071342,0.036857,0.000000,-0.223032,-0.017382,0.000000
3.650000,1.005053,0.487556,-1.442943,1.349881,0.786470,0.107259,-0.369000,0.696655,-0.241442,0.072904,-2.024367,-2.150691,-2.227060,7.066179,3.768904,0.069152,0.036695,0.000000,-0.215015,-0.015052,-0.000000
3.660000,1.018534,0.495455,-1.441883,1.346194,0.793337,0.104738,-0.368385,0.676771,-0.262746,0.049838,-1.952647,-2.109090,-2.356220,7.204357,4.490546,0.067043,0.036556,0.000000,-0.206821,-0.012560,0.000000
3.670000,1.031977,0.503422,-1.440849,1.342513,0.800008,0.102005,-0.368007,0.657606,-0.283600,0.025684,-1.880071,-2.060654,-2.472640,7.304721,5.193166,0.065016,0.036443,0.000000,-0.198567,-0.009954,-0.000000
3.680000,1.045384,0.511455,-1.439843,1.338833,0.806491,0.099067,-0.367875,0.639172,-0.303936,0.000428,-1.806673,-2.005300,-2.576469,7.369112,5.873800,0.063072,0.036357,0.000000,-0.190260,-0.007230,-0.000000
3.690000,1.058754,0.519551,-1.438868,1.335154,0.812794,0.095929,-0.368002,0.621474,-0.323684,-0.025804,-1.732803,-1.943262,-2.667858,7.399374,6.529487,0.061211,0.036299,0.000000,-0.181941,-0.004403,-0.000000
3.700000,1.072087,0.527710,-1.437925,1.331472,0.818923,0.092596,-0.368394,0.604516,-0.342779,-0.052889,-1.658793,-1.874803,-2.746956,7.397349,7.157265,0.059433,0.036269,0.000000,-0.173645,-0.001487,-0.000000
3.710000,1.085383,0.535929,-1.437017,1.327785,0.824887,0.089075,-0.369063,0.588299,-0.361156,-0.080777,-1.584855,-1.799854,-2.812051,7.362290,7.744943,0.057738,0.036269,0.000000,-0.165395,0.001516,0.000000
3.720000,1.098643,0.544207,-1.436144,1.324090,0.830692,0.085375,-0.370012,0.572818,-0.378757,-0.109173,-1.511526,-1.719601,-2.865383,7.298948,8.299917,0.056125,0.036300,0.000000,-0.157250,0.004573,0.000000
3.730000,1.111865,0.552542,-1.435310,1.320384,0.836345,0.081503,-0.371248,0.558066,-0.395530,-0.138046,-1.438963,-1.633971,-2.907329,7.209482,8.820355,0.054592,0.036361,0.000000,-0.149224,0.007681,0.000000
3.740000,1.125050,0.560934,-1.434515,1.316664,0.841855,0.077467,-0.372774,0.544035,-0.411420,-0.167283,-1.367416,-1.543316,-2.938267,7.096052,9.304425,0.053140,0.036454,0.000000,-0.141343,0.010830,0.000000
3.750000,1.138198,0.569379,-1.433761,1.312928,0.847228,0.073278,-0.374594,0.530713,-0.426381,-0.196776,-1.297114,-1.448009,-2.958575,6.960818,9.750294,0.051765,0.036578,0.000000,-0.133628,0.014009,-0.000000
3.760000,1.151309,0.577878,-1.433050,1.309171,0.852472,0.068943,-0.376710,0.518087,-0.440362,-0.226450,-1.228322,-1.348053,-2.967898,6.807371,10.146275,0.050466,0.036734,0.000000,-0.126104,0.017213,-0.000000
3.770000,1.164382,0.586428,-1.432382,1.305393,0.857593,0.064474,-0.379123,0.506142,-0.453329,-0.256134,-1.161090,-1.244779,-2.967437,6.636264,10.501598,0.049242,0.036923,0.000000,-0.118779,0.020423,0.000000
3.780000,1.177417,0.595029,-1.431761,1.301588,0.862597,0.059880,-0.381833,0.494859,-0.465246,-0.285767,-1.095649,-1.138159,-2.957657,6.449483,10.815636,0.048090,0.037143,0.000000,-0.111671,0.023635,-0.000000
3.790000,1.190413,0.603680,-1.431185,1.297755,0.867492,0.055172,-0.384838,0.484222,-0.476082,-0.315258,-1.032146,-1.028606,-2.939027,6.249011,11.087764,0.047008,0.037396,0.000000,-0.104793,0.026840,0.000000
3.800000,1.203372,0.612379,-1.430658,1.293890,0.872284,0.050362,-0.388137,0.474210,-0.485810,-0.344520,-0.970708,-0.916545,-2.912014,6.036835,11.317356,0.045993,0.037681,0.000000,-0.098156,0.030032,-0.000000
3.810000,1.216291,0.621125,-1.430178,1.289991,0.876978,0.045460,-0.391727,0.464799,-0.494403,-0.373465,-0.911597,-0.802054,-2.877263,5.818870,11.494971,0.045044,0.037997,0.000000,-0.091782,0.033202,-0.000000
3.820000,1.229171,0.629918,-1.429749,1.286055,0.881581,0.040478,-0.395605,0.455970,-0.501846,-0.402032,-0.854533,-0.686395,-2.835042,5.592688,11.629878,0.044157,0.038345,0.000000,-0.085644,0.036345,0.000000
3.830000,1.242012,0.638756,-1.429369,1.282078,0.886099,0.035427,-0.399767,0.447701,-0.508127,-0.430142,-0.799766,-0.569597,-2.785795,5.359792,11.722531,0.043330,0.038725,0.000000,-0.079763,0.039453,-0.000000
3.840000,1.254813,0.647640,-1.429040,1.278058,0.890537,0.030319,-0.404206,0.439967,-0.513236,-0.457726,-0.747355,-0.452083,-2.729967,5.121685,11.773385,0.042561,0.039135,0.000000,-0.074141,0.042521,-0.000000
3.850000,1.267573,0.656567,-1.428763,1.273993,0.894900,0.025166,-0.408919,0.432746,-0.517167,-0.484721,-0.697344,-0.334268,-2.668005,4.879869,11.782894,0.041846,0.039576,0.000000,-0.068783,0.045543,-0.000000
3.860000,1.280292,0.665537,-1.428537,1.269879,0.899194,0.019979,-0.413898,0.426010,-0.519918,-0.511044,-0.649955,-0.216294,-2.600936,4.640649,11.744739,0.041184,0.040047,0.000000,-0.063704,0.048514,-0.000000
3.870000,1.292970,0.674551,-1.428363,1.265714,0.903422,0.014771,-0.419138,0.419739,-0.521495,-0.536696,-0.604750,-0.099203,-2.528552,4.400140,11.666976,0.040571,0.040547,0.000000,-0.058864,0.051431,-0.000000
3.880000,1.305607,0.683606,-1.428242,1.261496,0.907590,0.009553,-0.424630,0.413907,-0.521906,-0.561599,-0.561953,0.016918,-2.451226,4.159256,11.550887,0.040006,0.041076,0.000000,-0.054281,0.054288,0.000000
3.890000,1.318200,0.692702,-1.428172,1.257221,0.911702,0.004337,-0.430367,0.408491,-0.521161,-0.585705,-0.521563,0.131692,-2.369332,3.918913,11.397756,0.039485,0.041633,0.000000,-0.049953,0.057080,-0.000000
3.900000,1.330751,0.701839,-1.428155,1.252887,0.915761,-0.000866,-0.436341,0.403468,-0.519278,-0.608971,-0.483570,0.244754,-2.283245,3.680027,11.208864,0.039006,0.042218,0.000000,-0.045878,0.059804,-0.000000
3.910000,1.343258,0.711017,-1.428189,1.248493,0.919772,-0.006045,-0.442543,0.398810,-0.516271,-0.631329,-0.448129,0.355926,-2.194053,3.447905,10.981165,0.038566,0.042830,0.000000,-0.042068,0.062454,0.000000
3.920000,1.355720,0.720235,-1.428276,1.244036,0.923739,-0.011188,-0.448965,0.394498,-0.512167,-0.652809,-0.414799,0.464462,-2.101328,3.218533,10.720803,0.038164,0.043468,0.000000,-0.038481,0.065030,-0.000000
3.930000,1.368138,0.729492,-1.428413,1.239513,0.927663,-0.016284,-0.455596,0.390507,-0.506991,-0.673345,-0.383748,0.570239,-2.005355,2.992287,10.429590,0.037796,0.044131,0.000000,-0.035132,0.067526,-0.000000
3.940000,1.380510,0.738788,-1.428601,1.234923,0.931550,-0.021324,-0.462428,0.386815,-0.500773,-0.692906,-0.354941,0.672957,-1.906423,2.769545,10.109341,0.037460,0.044819,0.000000,-0.032016,0.069939,0.000000
3.950000,1.392836,0.748123,-1.428839,1.230264,0.935401,-0.026297,-0.469451,0.383401,-0.493543,-0.711464,-0.328344,0.772335,-1.804816,2.550685,9.761868,0.037155,0.045531,0.000000,-0.029130,0.072266,-0.000000
3.960000,1.405115,0.757496,-1.429127,1.225534,0.939219,-0.031192,-0.476654,0.380240,-0.485337,-0.728968,-0.304039,0.868187,-1.701488,2.339263,9.387038,0.036877,0.046265,0.000000,-0.026480,0.074499,0.000000
3.970000,1.417347,0.766907,-1.429463,1.220730,0.943006,-0.036000,-0.484027,0.377313,-0.476192,-0.745457,-0.281686,0.960085,-1.595978,2.132088,8.988849,0.036625,0.047021,0.000000,-0.024035,0.076642,-0.000000
3.980000,1.429530,0.776356,-1.429846,1.215853,0.946766,-0.040713,-0.491559,0.374599,-0.466149,-0.760881,-0.261384,1.047893,-1.488489,1.929149,8.569353,0.036396,0.047799,0.000000,-0.021802,0.078689,-0.000000
3.990000,1.441664,0.785842,-1.430277,1.210899,0.950499,-0.045320,-0.499241,0.372078,-0.455249,-0.775221,-0.243089,1.131408,-1.379226,1.730432,8.130602,0.036188,0.048596,0.000000,-0.019779,0.080636,-0.000000
4.000000,1.453748,0.795366,-1.430753,1.205867,0.954208,-0.049815,-0.507060,0.369731,-0.443536,-0.788460,-0.226761,1.210447,-1.268395,1.535927,7.674647,0.035999,0.049412,0.000000,-0.017960,0.082479,0.000000
4.010000,1.465781,0.804926,-1.431273,1.200757,0.957894,-0.054188,-0.515006,0.367536,-0.431055,-0.800570,-0.212426,1.284845,-1.156549,1.347382,7.203654,0.035828,0.050246,0.000000,-0.016350,0.084215,0.000000
4.020000,1.477762,0.814524,-1.431836,1.195567,0.961559,-0.058434,-0.523068,0.365476,-0.417855,-0.811572,-0.199879,1.354472,-1.043500,1.162809,6.719547,0.035672,0.051097,0.000000,-0.014929,0.085843,-0.000000
4.030000,1.489692,0.824157,-1.432441,1.190295,0.965204,-0.062543,-0.531234,0.363532,-0.403982,-0.821437,-0.189158,1.419199,-0.929412,0.981980,6.224363,0.035529,0.051964,0.000000,-0.013700,0.087358,-0.000000
4.040000,1.501568,0.833828,-1.433086,1.184942,0.968830,-0.066511,-0.539493,0.361687,-0.389487,-0.830157,-0.180227,1.478929,-0.814445,0.804669,5.720140,0.035397,0.052845,0.000000,-0.012661,0.088758,-0.000000
4.050000,1.513390,0.843534,-1.433771,1.179505,0.972438,-0.070331,-0.547833,0.359922,-0.374421,-0.837723,-0.173053,1.533579,-0.698761,0.630647,5.208916,0.035275,0.053740,0.000000,-0.011810,0.090039,-0.000000
4.060000,1.525158,0.853276,-1.434492,1.173985,0.976029,-0.073998,-0.556243,0.358220,-0.358834,-0.844125,-0.167613,1.583022,-0.582662,0.459907,4.694455,0.035160,0.054646,0.000000,-0.011144,0.091197,-0.000000
4.070000,1.536870,0.863054,-1.435250,1.168380,0.979603,-0.077506,-0.564712,0.356564,-0.342777,-0.849369,-0.163856,1.627381,-0.466154,0.291975,4.176857,0.035051,0.055564,0.000000,-0.010660,0.092232,-0.000000
4.080000,1.548525,0.872868,-1.436042,1.162690,0.983160,-0.080852,-0.573227,0.354937,-0.326303,-0.853447,-0.161765,1.666555,-0.349381,0.126597,3.657948,0.034946,0.056492,0.000000,-0.010357,0.093140,0.000000
4.090000,1.560123,0.882718,-1.436867,1.156916,0.986701,-0.084031,-0.581777,0.353323,-0.309464,-0.856356,-0.161316,1.700541,-0.232489,-0.036482,3.139554,0.034844,0.057428,0.000000,-0.010233,0.093918,0.000000
4.100000,1.571663,0.892602,-1.437722,1.151055,0.990226,-0.087040,-0.590350,0.351706,-0.292310,-0.858097,-0.162488,1.729354,-0.115622,-0.197517,2.623501,0.034741,0.058371,0.000000,-0.010287,0.094564,-0.000000
4.110000,1.583144,0.902522,-1.438607,1.145108,0.993735,-0.089876,-0.598935,0.350069,-0.274895,-0.858669,-0.165218,1.752912,0.001059,-0.357831,2.114469,0.034637,0.059320,0.000000,-0.010514,0.095074,0.000000
4.120000,1.594565,0.912477,-1.439519,1.139076,0.997228,-0.092537,-0.607520,0.348396,-0.257268,-0.858076,-0.169591,1.771535,0.117427,-0.516479,1.611082,0.034530,0.060273,0.000000,-0.010923,0.095449,0.000000
4.130000,1.605925,0.922467,-1.440457,1.132958,1.000703,-0.095021,-0.616093,0.346672,-0.239481,-0.856322,-0.175542,1.785157,0.233338,-0.673582,1.114816,0.034418,0.061229,0.000000,-0.011507,0.095684,0.000000
4.140000,1.617224,0.932491,-1.441419,1.126754,1.004161,-0.097327,-0.624642,0.344880,-0.221582,-0.853411,-0.183058,1.793860,0.348650,-0.829265,0.627148,0.034299,0.062187,0.000000,-0.012267,0.095779,0.000000
4.150000,1.628460,0.942550,-1.442403,1.120465,1.007600,-0.099453,-0.633157,0.343005,-0.203620,-0.849351,-0.192123,1.797734,0.463219,-0.983651,0.149555,0.034172,0.063146,0.000000,-0.013202,0.095732,0.000000
4.160000,1.639633,0.952643,-1.443407,1.114091,1.011021,-0.101399,-0.641625,0.341033,-0.185644,-0.844152,-0.202667,1.796751,0.576947,-1.138387,-0.312986,0.034035,0.064103,0.000000,-0.014306,0.095541,0.000000
4.170000,1.650742,0.962770,-1.444430,1.107633,1.014421,-0.103166,-0.650036,0.338947,-0.167700,-0.837818,-0.214819,1.791360,0.689641,-1.291885,-0.762927,0.033886,0.065057,0.000000,-0.015591,0.095207,0.000000
4.180000,1.661785,0.972931,-1.445470,1.101091,1.017799,-0.104753,-0.658378,0.336731,-0.149832,-0.830363,-0.228500,1.781537,0.801153,-1.444084,-1.199219,0.033723,0.066007,0.000000,-0.017050,0.094727,-0.000000
4.190000,1.672763,0.983126,-1.446525,1.094466,1.021155,-0.106163,-0.666640,0.334372,-0.132084,-0.821799,-0.243696,1.767425,0.911334,-1.594918,-1.620816,0.033544,0.066952,0.000000,-0.018682,0.094102,0.000000
4.200000,1.683674,0.993354,-1.447593,1.087758,1.024486,-0.107395,-0.674810,0.331853,-0.114497,-0.812141,-0.260394,1.749174,1.020036,-1.744325,-2.026668,0.033348,0.067890,0.000000,-0.020486,0.093332,0.000000
4.210000,1.694518,1.003616,-1.448672,1.080970,1.027791,-0.108453,-0.682879,0.329159,-0.097115,-0.801405,-0.278522,1.726801,1.127136,-1.893636,-2.412027,0.033134,0.068819,0.000000,-0.022456,0.092416,-0.000000
4.220000,1.705294,1.013910,-1.449761,1.074101,1.031069,-0.109338,-0.690835,0.326277,-0.079974,-0.789605,-0.298198,1.700826,1.232457,-2.041223,-2.779998,0.032899,0.069739,0.000000,-0.024602,0.091356,0.000000
4.230000,1.716000,1.024237,-1.450858,1.067154,1.034316,-0.110054,-0.698668,0.323191,-0.063110,-0.776762,-0.319340,1.671261,1.335848,-2.186851,-3.129987,0.032641,0.070647,0.000000,-0.026916,0.090153,-0.000000
4.240000,1.726636,1.034596,-1.451962,1.060128,1.037532,-0.110602,-0.706367,0.319885,-0.046560,-0.762895,-0.341928,1.638288,1.437158,-2.330285,-3.461398,0.032360,0.071542,0.000000,-0.029396,0.088808,-0.000000
4.250000,1.737202,1.044987,-1.453070,1.053027,1.040713,-0.110986,-0.713922,0.316347,-0.030355,-0.748026,-0.365938,1.602097,1.536234,-2.471291,-3.773636,0.032053,0.072424,0.000000,-0.032040,0.087323,-0.000000
4.260000,1.747697,1.055410,-1.454181,1.045850,1.043858,-0.111210,-0.721324,0.312562,-0.014530,-0.732176,-0.391309,1.562742,1.632873,-2.610549,-4.062597,0.031718,0.073289,0.000000,-0.034841,0.085699,0.000000
4.270000,1.758119,1.065864,-1.455293,1.038601,1.046963,-0.111278,-0.728563,0.308517,0.000890,-0.715375,-0.418098,1.520755,1.726983,-2.746799,-4.331625,0.031355,0.074138,0.000000,-0.037802,0.083940,0.000000
4.280000,1.768468,1.076349,-1.456406,1.031280,1.050027,-0.111194,-0.735628,0.304196,0.015877,-0.697646,-0.446233,1.476177,1.818418,-2.879694,-4.580554,0.030962,0.074968,0.000000,-0.040917,0.082049,0.000000
4.290000,1.778744,1.086865,-1.457517,1.023889,1.053046,-0.110962,-0.742512,0.299588,0.030406,-0.679016,-0.475680,1.429211,1.907035,-3.008888,-4.809220,0.030537,0.075779,0.000000,-0.044181,0.080029,-0.000000
4.300000,1.788946,1.097410,-1.458625,1.016430,1.056018,-0.110587,-0.749206,0.294678,0.044454,-0.659515,-0.506398,1.380061,1.992688,-3.134036,-5.017456,0.030078,0.076569,0.000000,-0.047589,0.077883,0.000000
4.310000,1.799073,1.107985,-1.459728,1.008905,1.058939,-0.110074,-0.755700,0.289456,0.057999,-0.639167,-0.538335,1.328811,2.075085,-3.255058,-5.202089,0.029584,0.077337,0.000000,-0.051134,0.075614,0.000000
4.320000,1.809124,1.118589,-1.460826,1.001317,1.061806,-0.109429,-0.761986,0.283908,0.071024,-0.618017,-0.571471,1.275952,2.154246,-3.371308,-5.366330,0.029055,0.078082,0.000000,-0.054813,0.073229,-0.000000
4.330000,1.819099,1.129221,-1.461916,0.993666,1.064616,-0.108656,-0.768058,0.278022,0.083513,-0.596093,-0.605744,1.221552,2.230046,-3.482407,-5.510383,0.028488,0.078802,0.000000,-0.058617,0.070733,-0.000000
4.340000,1.828997,1.139881,-1.462998,0.985956,1.067365,-0.107760,-0.773906,0.271789,0.095451,-0.573428,-0.641101,1.165811,2.302356,-3.587976,-5.634450,0.027882,0.079497,0.000000,-0.062541,0.068129,0.000000
4.350000,1.838818,1.150568,-1.464071,0.978189,1.070051,-0.106749,-0.779524,0.265197,0.106825,-0.550058,-0.677484,1.108929,2.371052,-3.687636,-5.738735,0.027236,0.080165,0.000000,-0.066577,0.065423,0.000000
4.360000,1.848561,1.161282,-1.465133,0.970367,1.072668,-0.105626,-0.784905,0.258236,0.117625,-0.526010,-0.714847,1.051011,2.435757,-3.780644,-5.821136,0.026550,0.080805,0.000000,-0.070718,0.062619,-0.000000
4.370000,1.858225,1.172021,-1.466183,0.962492,1.075214,-0.104398,-0.790042,0.250897,0.127843,-0.501344,-0.753091,0.992467,2.496625,-3.867029,-5.884444,0.025822,0.081417,0.000000,-0.074952,0.059727,-0.000000
4.380000,1.867810,1.182786,-1.467221,0.954567,1.077685,-0.103071,-0.794930,0.243171,0.137473,-0.476090,-0.792164,0.933384,2.553557,-3.946457,-5.929141,0.025051,0.082000,0.000000,-0.079272,0.056750,0.000000
4.390000,1.877316,1.193575,-1.468244,0.946594,1.080076,-0.101650,-0.799562,0.235051,0.146510,-0.450287,-0.831996,0.873945,2.606458,-4.018594,-5.955714,0.024236,0.082552,0.000000,-0.083670,0.053696,0.000000
4.400000,1.886742,1.204387,-1.469253,0.938576,1.082384,-0.100143,-0.803934,0.226529,0.154951,-0.423975,-0.872511,0.814328,2.655232,-4.083105,-5.964648,0.023377,0.083074,0.000000,-0.088135,0.050571,0.000000
4.410000,1.896087,1.215222,-1.470247,0.930516,1.084605,-0.098553,-0.808040,0.217599,0.162796,-0.397185,-0.913665,0.754649,2.699487,-4.138801,-5.954921,0.022473,0.083564,0.000000,-0.092661,0.047379,-0.000000
4.420000,1.905352,1.226079,-1.471224,0.922416,1.086735,-0.096889,-0.811876,0.208254,0.170045,-0.369986,-0.955298,0.695218,2.739459,-4.186307,-5.928709,0.021524,0.084022,0.000000,-0.097231,0.044131,-0.000000
4.430000,1.914536,1.236956,-1.472184,0.914280,1.088769,-0.095155,-0.815438,0.198491,0.176701,-0.342410,-0.997363,0.636128,2.775086,-4.225392,-5.886682,0.020528,0.084447,0.000000,-0.101836,0.040833,-0.000000
4.440000,1.923638,1.247854,-1.473127,0.906109,1.090703,-0.093357,-0.818723,0.188306,0.182769,-0.314499,-1.039777,0.577535,2.806308,-4.255828,-5.829507,0.019487,0.084838,0.000000,-0.106468,0.037491,0.000000
4.450000,1.932658,1.258770,-1.474051,0.897906,1.092534,-0.091501,-0.821727,0.177695,0.188254,-0.286299,-1.082450,0.519586,2.833066,-4.277384,-5.757855,0.018399,0.085196,0.000000,-0.111115,0.034113,-0.000000
4.460000,1.941596,1.269704,-1.474957,0.889675,1.094256,-0.089594,-0.824448,0.166656,0.193163,-0.257841,-1.125339,0.462395,2.854989,-4.288693,-5.671670,0.017265,0.085521,0.000000,-0.115771,0.030703,0.000000
4.470000,1.950451,1.280655,-1.475843,0.881418,1.095865,-0.087640,-0.826883,0.155188,0.197505,-0.229200,-1.168244,0.406164,2.872365,-4.290802,-5.572435,0.016084,0.085810,0.000000,-0.120414,0.027273,-0.000000
4.480000,1.959224,1.291621,-1.476710,0.873138,1.097358,-0.085645,-0.829031,0.143291,0.201290,-0.200409,-1.211124,0.350987,2.885170,-4.283620,-5.460908,0.014856,0.086066,0.000000,-0.125038,0.023829,0.000000
4.490000,1.967914,1.302602,-1.477556,0.864838,1.098730,-0.083616,-0.830891,0.130966,0.204529,-0.171512,-1.253885,0.296984,2.893384,-4.267056,-5.337847,0.013583,0.086287,0.000000,-0.129633,0.020376,-0.000000
4.500000,1.976521,1.313595,-1.478382,0.856521,1.099976,-0.081556,-0.832462,0.118214,0.207234,-0.142556,-1.296434,0.244266,2.896983,-4.241019,-5.204010,0.012264,0.086474,0.000000,-0.134188,0.016922,-0.000000
4.510000,1.985044,1.324601,-1.479187,0.848190,1.101093,-0.079473,-0.833742,0.105038,0.209419,-0.113575,-1.338721,0.192935,2.895619,-4.204216,-5.060105,0.010899,0.086626,0.000000,-0.138696,0.013473,0.000000
4.520000,1.993484,1.335617,-1.479971,0.839848,1.102075,-0.077370,-0.834733,0.091441,0.211097,-0.084645,-1.380540,0.143093,2.889636,-4.157906,-4.906946,0.009490,0.086743,0.000000,-0.143136,0.010038,0.000000
4.530000,2.001841,1.346642,-1.480734,0.831496,1.102920,-0.075252,-0.835435,0.077428,0.212286,-0.055798,-1.421848,0.094825,2.879051,-4.102147,-4.745298,0.008037,0.086826,0.000000,-0.147502,0.006623,-0.000000
4.540000,2.010114,1.357675,-1.481476,0.823140,1.103623,-0.073126,-0.835850,0.063006,0.212999,-0.027079,-1.462552,0.048212,2.863881,-4.036994,-4.575924,0.006540,0.086876,0.000000,-0.151784,0.003235,-0.000000
4.550000,2.018304,1.368714,-1.482197,0.814780,1.104179,-0.070994,-0.835977,0.048180,0.213256,0.001465,-1.502557,0.003329,2.844144,-3.962506,-4.399589,0.005001,0.086891,0.000000,-0.155973,-0.000121,0.000000
4.560000,2.026410,1.379758,-1.482896,0.806421,1.104585,-0.068862,-0.835821,0.032957,0.213072,0.029801,-1.541814,-0.039740,2.819547,-3.877642,-4.217523,0.003421,0.086873,0.000000,-0.160062,-0.003440,0.000000
4.570000,2.034432,1.390805,-1.483574,0.798065,1.104837,-0.066734,-0.835382,0.017346,0.212467,0.057855,-1.580128,-0.080982,2.790455,-3.783689,-4.029966,0.001801,0.086823,0.000000,-0.164032,-0.006712,0.000000
4.580000,2.042371,1.401854,-1.484231,0.789714,1.104931,-0.064614,-0.834665,0.001358,0.211459,0.085595,-1.617458,-0.120324,2.756924,-3.680839,-3.837628,0.000141,0.086739,0.000000,-0.167879,-0.009932,0.000000
4.590000,2.050227,1.412903,-1.484866,0.781373,1.104863,-0.062506,-0.833672,-0.014999,0.210067,0.112979,-1.653716,-0.157721,2.719011,-3.569283,-3.641215,-0.001557,0.086624,0.000000,-0.171593,-0.013097,0.000000
4.600000,2.057999,1.423951,-1.485481,0.773042,1.104629,-0.060414,-0.832407,-0.031713,0.208311,0.139961,-1.688816,-0.193137,2.676770,-3.449212,-3.441434,-0.003290,0.086478,0.000000,-0.175167,-0.016199,0.000000
4.610000,2.065688,1.434995,-1.486075,0.764725,1.104227,-0.058341,-0.830874,-0.048772,0.206211,0.166512,-1.722707,-0.226509,2.629950,-3.319944,-3.239792,-0.005059,0.086300,0.000000,-0.178595,-0.019234,0.000000
4.620000,2.073293,1.446035,-1.486648,0.756425,1.103653,-0.056291,-0.829078,-0.066162,0.203788,0.192560,-1.755227,-0.257890,2.578951,-3.182649,-3.036099,-0.006862,0.086093,0.000000,-0.181861,-0.022196,0.000000
4.630000,2.080816,1.457067,-1.487201,0.748145,1.102903,-0.054266,-0.827024,-0.083872,0.201060,0.218077,-1.786334,-0.287226,2.523866,-3.037626,-2.830965,-0.008696,0.085857,0.000000,-0.184963,-0.025081,-0.000000
4.640000,2.088256,1.468092,-1.487733,0.739886,1.101974,-0.052270,-0.824718,-0.101884,0.198050,0.243024,-1.815954,-0.314507,2.464789,-2.885172,-2.625000,-0.010561,0.085592,0.000000,-0.187894,-0.027884,0.000000
4.650000,2.095614,1.479106,-1.488246,0.731651,1.100864,-0.050306,-0.822166,-0.120185,0.194777,0.267360,-1.844014,-0.339726,2.401813,-2.725586,-2.418813,-0.012453,0.085299,0.000000,-0.190646,-0.030601,0.000000
4.660000,2.102889,1.490109,-1.488739,0.723443,1.099570,-0.048376,-0.819373,-0.138759,0.191263,0.291061,-1.870467,-0.362846,2.334699,-2.558564,-2.213975,-0.014373,0.084980,0.000000,-0.193218,-0.033229,-0.000000
4.670000,2.110083,1.501097,-1.489214,0.715264,1.098088,-0.046482,-0.816347,-0.157589,0.187527,0.314057,-1.895191,-0.383965,2.263912,-2.385079,-2.010017,-0.016317,0.084635,0.000000,-0.195596,-0.035761,0.000000
4.680000,2.117195,1.512070,-1.489669,0.707117,1.096417,-0.044626,-0.813094,-0.176657,0.183590,0.336327,-1.918148,-0.403051,2.189587,-2.205501,-1.807430,-0.018284,0.084265,0.000000,-0.197779,-0.038196,-0.000000
4.690000,2.124225,1.523025,-1.490106,0.699003,1.094554,-0.042810,-0.809623,-0.195946,0.179473,0.357837,-1.939281,-0.420120,2.111858,-2.020203,-1.606705,-0.020272,0.083871,0.000000,-0.199763,-0.040529,0.000000
4.700000,2.131175,1.533960,-1.490526,0.690925,1.092498,-0.041037,-0.805940,-0.215437,0.175194,0.378553,-1.958535,-0.435193,2.030857,-1.829555,-1.408334,-0.022279,0.083455,0.000000,-0.201543,-0.042759,-0.000000
4.710000,2.138044,1.544874,-1.490927,0.682885,1.090245,-0.039307,-0.802054,-0.235110,0.170776,0.398459,-1.975869,-0.448257,1.946332,-1.633590,-1.213800,-0.024302,0.083016,0.000000,-0.203117,-0.044883,-0.000000
4.720000,2.144833,1.555764,-1.491312,0.674885,1.087795,-0.037622,-0.797974,-0.254947,0.166236,0.417487,-1.991206,-0.459436,1.858851,-1.433059,-1.022482,-0.026340,0.082557,0.000000,-0.204478,-0.046895,0.000000
4.730000,2.151542,1.566629,-1.491680,0.666926,1.085146,-0.035983,-0.793708,-0.274928,0.161593,0.435627,-2.004517,-0.468719,1.768595,-1.228377,-0.834751,-0.028391,0.082078,0.000000,-0.205625,-0.048796,-0.000000
4.740000,2.158172,1.577467,-1.492032,0.659011,1.082296,-0.034390,-0.789265,-0.295031,0.156868,0.452851,-2.015761,-0.476144,1.675745,-1.019956,-0.650977,-0.030452,0.081581,0.000000,-0.206557,-0.050583,-0.000000
4.750000,2.164722,1.588275,-1.492368,0.651142,1.079245,-0.032846,-0.784654,-0.315236,0.152077,0.469134,-2.024905,-0.481753,1.580482,-0.808209,-0.471531,-0.032521,0.081067,0.000000,-0.207270,-0.052255,0.000000
4.760000,2.171194,1.599051,-1.492689,0.643319,1.075991,-0.031349,-0.779885,-0.335522,0.147239,0.484471,-2.031921,-0.485553,1.482528,-0.593430,-0.297712,-0.034597,0.080536,0.000000,-0.207764,-0.053811,-0.000000
4.770000,2.177589,1.609794,-1.492995,0.635544,1.072534,-0.029901,-0.774968,-0.355867,0.142371,0.498798,-2.036770,-0.487682,1.382580,-0.376165,-0.128847,-0.036676,0.079990,0.000000,-0.208037,-0.055246,-0.000000
4.780000,2.183906,1.620501,-1.493287,0.627820,1.068873,-0.028502,-0.769912,-0.376250,0.137491,0.512117,-2.039437,-0.488148,1.280875,-0.156843,0.034805,-0.038757,0.079431,0.000000,-0.208089,-0.056562,-0.000000
4.790000,2.190145,1.631171,-1.493565,0.620146,1.065009,-0.027151,-0.764729,-0.396649,0.132614,0.524410,-2.039902,-0.487004,1.177650,0.064108,0.192989,-0.040837,0.078858,0.000000,-0.207919,-0.057757,-0.000000
4.800000,2.196309,1.641800,-1.493830,0.612526,1.060941,-0.025849,-0.759428,-0.417041,0.127756,0.535665,-2.038151,-0.484307,1.073143,0.286263,0.345446,-0.042914,0.078275,0.000000,-0.207527,-0.058831,-0.000000
4.810000,2.202396,1.652389,-1.494082,0.604958,1.056668,-0.024596,-0.754019,-0.437404,0.122933,0.545888,-2.034170,-0.480082,0.967139,0.509101,0.491092,-0.044987,0.077681,0.000000,-0.206914,-0.059787,-0.000000
4.820000,2.208408,1.662933,-1.494322,0.597446,1.052193,-0.023390,-0.748513,-0.457717,0.118159,0.555026,-2.027964,-0.474469,0.860384,0.732297,0.630600,-0.047052,0.077078,0.000000,-0.206082,-0.060619,0.000000
4.830000,2.214345,1.673432,-1.494550,0.589988,1.047514,-0.022232,-0.742922,-0.477956,0.113448,0.563094,-2.019525,-0.467491,0.753169,0.955436,0.763815,-0.049108,0.076468,0.000000,-0.205030,-0.061331,-0.000000
4.840000,2.220208,1.683883,-1.494767,0.582587,1.042634,-0.021121,-0.737255,-0.498100,0.108813,0.570089,-2.008856,-0.459214,0.645787,1.178099,0.890580,-0.051152,0.075851,0.000000,-0.203762,-0.061923,-0.000000
4.850000,2.225997,1.694284,-1.494973,0.575243,1.037553,-0.020056,-0.731524,-0.518126,0.104268,0.576010,-1.995966,-0.449702,0.538530,1.399872,1.010742,-0.053182,0.075228,0.000000,-0.202278,-0.062396,-0.000000
4.860000,2.231713,1.704633,-1.495168,0.567957,1.032272,-0.019036,-0.725738,-0.538011,0.099824,0.580870,-1.980849,-0.438992,0.431459,1.619987,1.123410,-0.055197,0.074601,0.000000,-0.200579,-0.062753,0.000000
4.870000,2.237356,1.714929,-1.495354,0.560729,1.026793,-0.018059,-0.719910,-0.557735,0.095492,0.584652,-1.963556,-0.427223,0.325127,1.838420,1.229253,-0.057193,0.073971,0.000000,-0.198672,-0.062993,0.000000
4.880000,2.242928,1.725168,-1.495530,0.553559,1.021118,-0.017125,-0.714049,-0.577275,0.091283,0.587376,-1.944088,-0.414430,0.219856,2.054799,1.328206,-0.059169,0.073340,0.000000,-0.196557,-0.063119,0.000000
4.890000,2.248428,1.735350,-1.495696,0.546448,1.015248,-0.016233,-0.708166,-0.596610,0.087206,0.589054,-1.922468,-0.400682,0.115967,2.268749,1.420204,-0.061124,0.072707,0.000000,-0.194238,-0.063133,-0.000000
4.900000,2.253857,1.745473,-1.495854,0.539396,1.009186,-0.015381,-0.702271,-0.615718,0.083272,0.589701,-1.898722,-0.386050,0.013780,2.479899,1.505182,-0.063054,0.072075,0.000000,-0.191718,-0.063038,-0.000000
4.910000,2.259216,1.755533,-1.496004,0.532402,1.002935,-0.014567,-0.696375,-0.634577,0.079488,0.589331,-1.872856,-0.370576,-0.086240,2.687248,1.582417,-0.064957,0.071444,0.000000,-0.188998,-0.062835,0.000000
4.920000,2.264505,1.765531,-1.496146,0.525468,0.996496,-0.013790,-0.690488,-0.653168,0.075863,0.587978,-1.844961,-0.354395,-0.183932,2.891126,1.652583,-0.066833,0.070816,0.000000,-0.186087,-0.062531,-0.000000
4.930000,2.269725,1.775463,-1.496280,0.518593,0.989872,-0.013049,-0.684619,-0.671470,0.072403,0.585661,-1.815046,-0.337548,-0.278992,3.091234,1.715693,-0.068678,0.070191,0.000000,-0.182988,-0.062127,-0.000000
4.940000,2.274877,1.785328,-1.496407,0.511776,0.983067,-0.012342,-0.678778,-0.689462,0.069114,0.582408,-1.783150,-0.320105,-0.371116,3.287276,1.771762,-0.070492,0.069571,0.000000,-0.179703,-0.061627,-0.000000
4.950000,2.279961,1.795123,-1.496527,0.505017,0.976084,-0.011666,-0.672974,-0.707126,0.066002,0.578249,-1.749315,-0.302136,-0.459999,3.478955,1.820806,-0.072272,0.068956,0.000000,-0.176238,-0.061034,-0.000000
4.960000,2.284978,1.804849,-1.496640,0.498316,0.968926,-0.011021,-0.667216,-0.724442,0.063073,0.573200,-1.713555,-0.283689,-0.544843,3.665173,1.862252,-0.074016,0.068347,0.000000,-0.172594,-0.060351,0.000000
4.970000,2.289928,1.814501,-1.496747,0.491672,0.961596,-0.010404,-0.661512,-0.741391,0.060330,0.567343,-1.675992,-0.264888,-0.625899,3.846531,1.896775,-0.075723,0.067746,0.000000,-0.168783,-0.059588,-0.000000
4.980000,2.294811,1.824080,-1.496849,0.485086,0.954099,-0.009814,-0.655872,-0.757956,0.057776,0.560695,-1.636641,-0.245776,-0.702924,4.022832,1.924462,-0.077391,0.067152,0.000000,-0.164806,-0.058746,0.000000
4.990000,2.299630,1.833583,-1.496944,0.478555,0.946439,-0.009248,-0.650301,-0.774118,0.055415,0.553299,-1.595553,-0.226421,-0.775677,4.193875,1.945400,-0.079019,0.066568,0.000000,-0.160668,-0.057830,0.000000
5.000000,2.304383,1.843008,-1.497034,0.472079,0.938618,-0.008705,-0.644808,-0.789861,0.053248,0.545197,-1.552781,-0.206891,-0.843913,4.359462,1.959676,-0.080604,0.065992,0.000000,-0.156374,-0.056846,0.000000
5.010000,2.309071,1.852355,-1.497118,0.465658,0.930643,-0.008182,-0.639400,-0.805168,0.051278,0.536407,-1.508349,-0.187229,-0.906645,4.518557,1.966849,-0.082146,0.065427,0.000000,-0.151926,-0.055795,-0.000000
5.020000,2.313696,1.861621,-1.497197,0.459291,0.922516,-0.007679,-0.634082,-0.820023,0.049504,0.527047,-1.462392,-0.167551,-0.964465,4.671901,1.967599,-0.083642,0.064873,0.000000,-0.147337,-0.054690,0.000000
5.030000,2.318257,1.870805,-1.497272,0.452976,0.914244,-0.007192,-0.628861,-0.834411,0.047927,0.517134,-1.414931,-0.147898,-1.017222,4.819396,1.962077,-0.085092,0.064330,0.000000,-0.142607,-0.053532,0.000000
5.040000,2.322756,1.879905,-1.497341,0.446714,0.905830,-0.006720,-0.623741,-0.848317,0.046546,0.506720,-1.366024,-0.128330,-1.064762,4.960947,1.950434,-0.086494,0.063799,0.000000,-0.137743,-0.052329,0.000000
5.050000,2.327192,1.888921,-1.497406,0.440501,0.897279,-0.006260,-0.618728,-0.861727,0.045360,0.495857,-1.315732,-0.108909,-1.106935,5.096457,1.932823,-0.087846,0.063280,0.000000,-0.132749,-0.051084,0.000000
5.060000,2.331566,1.897850,-1.497466,0.434339,0.888597,-0.005812,-0.613825,-0.874627,0.044367,0.484565,-1.264086,-0.089675,-1.142705,5.225084,1.908928,-0.089148,0.062773,0.000000,-0.127628,-0.049800,0.000000
5.070000,2.335879,1.906692,-1.497522,0.428224,0.879788,-0.005372,-0.609037,-0.887004,0.043565,0.472982,-1.211218,-0.070728,-1.172912,5.347567,1.879424,-0.090399,0.062280,0.000000,-0.122391,-0.048493,-0.000000
5.080000,2.340131,1.915446,-1.497574,0.422157,0.870859,-0.004940,-0.604367,-0.898847,0.042951,0.461125,-1.157155,-0.052104,-1.197511,5.463902,1.844521,-0.091596,0.061799,0.000000,-0.117041,-0.047163,0.000000
5.090000,2.344322,1.924109,-1.497621,0.416137,0.861813,-0.004513,-0.599816,-0.910144,0.042522,0.449051,-1.101960,-0.033855,-1.216458,5.574084,1.804427,-0.092739,0.061332,0.000000,-0.111582,-0.045816,0.000000
5.100000,2.348453,1.932681,-1.497664,0.410161,0.852658,-0.004089,-0.595386,-0.920883,0.042273,0.436815,-1.045694,-0.016032,-1.229709,5.678106,1.759351,-0.093827,0.060879,0.000000,-0.106021,-0.044458,-0.000000
5.110000,2.352525,1.941162,-1.497703,0.404229,0.843398,-0.003667,-0.591080,-0.931054,0.042200,0.424439,-0.988397,0.001331,-1.236303,5.775414,1.709109,-0.094859,0.060439,0.000000,-0.100358,-0.043092,-0.000000
5.120000,2.356538,1.949549,-1.497737,0.398339,0.834039,-0.003244,-0.586898,-0.940647,0.042298,0.412067,-0.930181,0.018152,-1.237226,5.866620,1.654352,-0.095834,0.060013,0.000000,-0.094605,-0.041731,-0.000000
5.130000,2.360492,1.957842,-1.497768,0.392490,0.824587,-0.002820,-0.582839,-0.949654,0.042561,0.399713,-0.871084,0.034404,-1.232545,5.951785,1.595335,-0.096751,0.059601,0.000000,-0.088765,-0.040379,-0.000000
5.140000,2.364388,1.966040,-1.497794,0.386682,0.815047,-0.002392,-0.578903,-0.958066,0.042984,0.387434,-0.811166,0.050046,-1.222331,6.030973,1.532316,-0.097609,0.059202,0.000000,-0.082841,-0.039039,0.000000
5.150000,2.368226,1.974143,-1.497816,0.380912,0.805427,-0.001960,-0.575090,-0.965875,0.043560,0.375285,-0.750485,0.065038,-1.206650,6.104244,1.465552,-0.098407,0.058816,0.000000,-0.076839,-0.037719,-0.000000
5.160000,2.372006,1.982149,-1.497833,0.375179,0.795732,-0.001521,-0.571397,-0.973074,0.044282,0.363286,-0.689089,0.079357,-1.184723,6.171386,1.395012,-0.099146,0.058444,0.000000,-0.070763,-0.036420,-0.000000
5.170000,2.375730,1.990057,-1.497846,0.369483,0.785968,-0.001074,-0.567823,-0.979655,0.045144,0.351570,-0.627064,0.092941,-1.157571,6.232770,1.321276,-0.099822,0.058084,0.000000,-0.064619,-0.035155,-0.000000
5.180000,2.379396,1.997868,-1.497854,0.363823,0.776141,-0.000617,-0.564365,-0.985613,0.046139,0.340151,-0.564453,0.105772,-1.125365,6.288492,1.244636,-0.100438,0.057737,0.000000,-0.058411,-0.033926,0.000000
5.190000,2.383006,2.005580,-1.497858,0.358196,0.766258,-0.000151,-0.561019,-0.990942,0.047257,0.329079,-0.501313,0.117825,-1.088279,6.338645,1.165383,-0.100991,0.057402,0.000000,-0.052144,-0.032738,-0.000000
5.200000,2.386560,2.013193,-1.497857,0.352602,0.756324,0.000328,-0.557782,-0.995638,0.048492,0.318401,-0.437698,0.129072,-1.046485,6.383327,1.083811,-0.101480,0.057079,0.000000,-0.045822,-0.031595,-0.000000
5.210000,2.390058,2.020706,-1.497852,0.347040,0.746347,0.000820,-0.554650,-0.999695,0.049836,0.308138,-0.373666,0.139500,-0.999486,6.422694,1.000068,-0.101907,0.056767,0.000000,-0.039450,-0.030501,-0.000000
5.220000,2.393501,2.028120,-1.497841,0.341508,0.736332,0.001325,-0.551617,-1.003110,0.051280,0.298396,-0.309265,0.149074,-0.948206,6.456772,0.914607,-0.102269,0.056466,0.000000,-0.033032,-0.029464,0.000000
5.230000,2.396889,2.035433,-1.497825,0.336007,0.726287,0.001846,-0.548680,-1.005879,0.052815,0.289187,-0.244548,0.157787,-0.892897,6.485651,0.827737,-0.102567,0.056174,0.000000,-0.026573,-0.028488,-0.000000
5.240000,2.400221,2.042645,-1.497804,0.330535,0.716217,0.002382,-0.545832,-1.008000,0.054432,0.280551,-0.179569,0.165625,-0.833815,6.509417,0.739768,-0.102801,0.055893,0.000000,-0.020076,-0.027575,-0.000000
5.250000,2.403500,2.049757,-1.497777,0.325090,0.706129,0.002934,-0.543067,-1.009470,0.056124,0.272523,-0.114377,0.172580,-0.771213,6.528161,0.651010,-0.102969,0.055620,0.000000,-0.013546,-0.026729,-0.000000
5.260000,2.406723,2.056768,-1.497745,0.319673,0.696030,0.003504,-0.540379,-1.010287,0.057881,0.265122,-0.049039,0.178642,-0.704971,6.542392,0.561811,-0.103071,0.055355,0.000000,-0.006990,-0.025953,-0.000000
5.270000,2.409893,2.063678,-1.497707,0.314282,0.685926,0.004092,-0.537762,-1.010450,0.059694,0.258416,0.016436,0.183814,-0.635762,6.551725,0.472438,-0.103108,0.055098,0.000000,-0.000408,-0.025252,-0.000000
5.280000,2.413009,2.070486,-1.497663,0.308918,0.675823,0.004698,-0.535209,-1.009958,0.061554,0.252416,0.081980,0.188092,-0.563889,6.556194,0.383194,-0.103080,0.054847,0.000000,0.006194,-0.024628,0.000000
5.290000,2.416071,2.077194,-1.497613,0.303578,0.665729,0.005323,-0.532711,-1.008810,0.063453,0.247147,0.147544,0.191479,-0.489650,6.555837,0.294386,-0.102985,0.054602,0.000000,0.012811,-0.024083,0.000000
5.300000,2.419081,2.083801,-1.497557,0.298263,0.655649,0.005968,-0.530263,-1.007007,0.065381,0.242630,0.213080,0.193982,-0.413347,6.550691,0.206318,-0.102823,0.054362,0.000000,0.019440,-0.023620,0.000000
5.310000,2.422037,2.090307,-1.497494,0.292973,0.645591,0.006631,-0.527856,-1.004549,0.067330,0.238883,0.278513,0.195599,-0.335211,6.541519,0.119537,-0.102596,0.054127,0.000000,0.026071,-0.023240,-0.000000
5.320000,2.424940,2.096713,-1.497424,0.287706,0.635560,0.007314,-0.525483,-1.001437,0.069290,0.235928,0.343862,0.196366,-0.255619,6.527541,0.034077,-0.102302,0.053895,0.000000,0.032708,-0.022946,0.000000
5.330000,2.427791,2.103019,-1.497348,0.282463,0.625564,0.008017,-0.523135,-0.997673,0.071254,0.233774,0.409047,0.196286,-0.174879,6.508703,-0.049789,-0.101942,0.053665,0.000000,0.039343,-0.022737,-0.000000
5.340000,2.430590,2.109224,-1.497264,0.277243,0.615609,0.008739,-0.520805,-0.993257,0.073213,0.232433,0.474020,0.195377,-0.093299,6.484952,-0.131785,-0.101515,0.053437,0.000000,0.045969,-0.022616,-0.000000
5.350000,2.433336,2.115331,-1.497173,0.272047,0.605701,0.009481,-0.518484,-0.988193,0.075159,0.231910,0.538730,0.193658,-0.011188,6.456235,-0.211636,-0.101022,0.053210,0.000000,0.052583,-0.022583,0.000000
5.360000,2.436031,2.121339,-1.497074,0.266873,0.595847,0.010242,-0.516164,-0.982484,0.077083,0.232214,0.603094,0.191134,0.071047,6.423357,-0.288622,-0.100463,0.052983,0.000000,0.059175,-0.022638,0.000000
5.370000,2.438674,2.127248,-1.496968,0.261723,0.586054,0.011023,-0.513837,-0.976132,0.078979,0.233335,0.667141,0.187874,0.153209,6.385302,-0.362968,-0.099839,0.052755,0.000000,0.065748,-0.022781,-0.000000
5.380000,2.441265,2.133060,-1.496854,0.256597,0.576327,0.011822,-0.511494,-0.969142,0.080838,0.235277,0.730782,0.183884,0.235000,6.341912,-0.434453,-0.099149,0.052525,0.000000,0.072293,-0.023011,-0.000000
5.390000,2.443806,2.138775,-1.496731,0.251494,0.566673,0.012639,-0.509128,-0.961518,0.082654,0.238033,0.793961,0.179195,0.316126,6.293029,-0.502857,-0.098393,0.052292,0.000000,0.078803,-0.023329,0.000000
5.400000,2.446295,2.144394,-1.496601,0.246414,0.557098,0.013475,-0.506731,-0.953265,0.084420,0.241596,0.856624,0.173838,0.396289,6.238494,-0.567959,-0.097573,0.052056,0.000000,0.085272,-0.023732,-0.000000
5.410000,2.448734,2.149917,-1.496462,0.241359,0.547610,0.014328,-0.504294,-0.944388,0.086129,0.245958,0.918681,0.167823,0.475095,6.178931,-0.628921,-0.096688,0.051815,0.000000,0.091691,-0.024220,-0.000000
5.420000,2.451122,2.155346,-1.496314,0.236329,0.538213,0.015197,-0.501809,-0.934893,0.087775,0.251097,0.980147,0.161244,0.552357,6.113304,-0.686217,-0.095739,0.051569,0.000000,0.098061,-0.024791,0.000000
5.430000,2.453461,2.160682,-1.496158,0.231323,0.528914,0.016083,-0.499269,-0.924787,0.089352,0.257000,1.040926,0.154112,0.627793,6.041360,-0.739701,-0.094727,0.051317,0.000000,0.104370,-0.025442,0.000000
5.440000,2.455749,2.165925,-1.495992,0.226343,0.519719,0.016984,-0.496667,-0.914077,0.090855,0.263646,1.100953,0.146464,0.701119,5.962846,-0.789229,-0.093652,0.051057,0.000000,0.110612,-0.026173,-0.000000
5.450000,2.457988,2.171076,-1.495818,0.221390,0.510634,0.017900,-0.493994,-0.902771,0.092280,0.271014,1.160160,0.138341,0.772049,5.877507,-0.834657,-0.092515,0.050791,0.000000,0.116778,-0.026979,0.000000
5.460000,2.460177,2.176138,-1.495634,0.216464,0.501666,0.018829,-0.491244,-0.890877,0.093620,0.279080,1.218457,0.129756,0.840251,5.785660,-0.875105,-0.091317,0.050515,0.000000,0.122860,-0.027859,-0.000000
5.470000,2.462317,2.181110,-1.495441,0.211565,0.492819,0.019772,-0.488410,-0.878405,0.094873,0.287811,1.275823,0.120820,0.905497,5.686412,-0.911252,-0.090058,0.050231,0.000000,0.128853,-0.028810,0.000000
5.480000,2.464408,2.185995,-1.495239,0.206696,0.484099,0.020726,-0.485486,-0.865364,0.096035,0.297179,1.332159,0.111545,0.967507,5.579439,-0.943046,-0.088740,0.049937,0.000000,0.134746,-0.029826,0.000000
5.490000,2.466451,2.190793,-1.495027,0.201856,0.475513,0.021692,-0.482465,-0.851766,0.097103,0.307150,1.387385,0.101974,1.026004,5.464417,-0.970430,-0.087363,0.049632,0.000000,0.140531,-0.030907,-0.000000
5.500000,2.468445,2.195505,-1.494805,0.197047,0.467066,0.022668,-0.479341,-0.837621,0.098074,0.317687,1.441420,0.092151,1.080710,5.341023,-0.993351,-0.085930,0.049316,0.000000,0.146198,-0.032046,0.000000
5.510000,2.470392,2.200134,-1.494573,0.192270,0.458763,0.023653,-0.476109,-0.822942,0.098945,0.328751,1.494165,0.082092,1.131323,5.209228,-1.010986,-0.084440,0.048988,0.000000,0.151737,-0.033240,-0.000000
5.520000,2.472291,2.204681,-1.494332,0.187525,0.450609,0.024647,-0.472764,-0.807742,0.099715,0.340300,1.545561,0.071912,1.177592,5.068378,-1.024142,-0.082895,0.048649,0.000000,0.157139,-0.034484,0.000000
5.530000,2.474143,2.209147,-1.494080,0.182815,0.442609,0.025647,-0.469302,-0.792035,0.100383,0.352288,1.595501,0.061624,1.219241,4.918113,-1.032859,-0.081298,0.048296,0.000000,0.162394,-0.035773,-0.000000
5.540000,2.475947,2.213534,-1.493819,0.178139,0.434770,0.026654,-0.465717,-0.775837,0.100948,0.364668,1.643890,0.051270,1.255994,4.758073,-1.037177,-0.079648,0.047931,0.000000,0.167490,-0.037103,-0.000000
5.550000,2.477705,2.217843,-1.493547,0.173501,0.427094,0.027666,-0.462007,-0.759163,0.101408,0.377390,1.690629,0.040895,1.287576,4.587900,-1.037134,-0.077948,0.047552,0.000000,0.172416,-0.038467,-0.000000
5.560000,2.479417,2.222076,-1.493266,0.168900,0.419588,0.028682,-0.458168,-0.742030,0.101765,0.390403,1.735614,0.030514,1.313676,4.407224,-1.032075,-0.076200,0.047159,0.000000,0.177162,-0.039860,0.000000
5.570000,2.481084,2.226235,-1.492974,0.164338,0.412255,0.029701,-0.454198,-0.724457,0.102019,0.403646,1.778738,0.020236,1.334059,4.215697,-1.022820,-0.074406,0.046752,0.000000,0.181715,-0.041276,-0.000000
5.580000,2.482704,2.230322,-1.492672,0.159816,0.405100,0.030722,-0.450095,-0.706462,0.102170,0.417064,1.819890,0.010071,1.348454,4.012958,-1.009493,-0.072567,0.046331,0.000000,0.186062,-0.042709,-0.000000
5.590000,2.484280,2.234338,-1.492359,0.155336,0.398127,0.031744,-0.445857,-0.688066,0.102221,0.430595,1.858958,0.000059,1.356590,3.798651,-0.992219,-0.070685,0.045896,0.000000,0.190192,-0.044151,0.000000
5.600000,2.485811,2.238285,-1.492037,0.150900,0.391340,0.032766,-0.441483,-0.669290,0.102172,0.444174,1.895824,-0.009761,1.358198,3.572417,-0.971122,-0.068764,0.045446,0.000000,0.194092,-0.045597,0.000000
5.610000,2.487298,2.242165,-1.491704,0.146507,0.384743,0.033787,-0.436973,-0.650157,0.102026,0.457742,1.930378,-0.019371,1.352864,3.333575,-0.945812,-0.066804,0.044981,0.000000,0.197750,-0.047040,-0.000000
5.620000,2.488741,2.245981,-1.491361,0.142161,0.378338,0.034806,-0.432328,-0.630691,0.101786,0.471214,1.962468,-0.028688,1.340476,3.082129,-0.916992,-0.064809,0.044503,0.000000,0.201149,-0.048471,-0.000000
5.630000,2.490142,2.249733,-1.491008,0.137861,0.372130,0.035823,-0.427549,-0.610916,0.101453,0.484527,1.991978,-0.037700,1.320782,2.817758,-0.884850,-0.062782,0.044010,0.000000,0.204278,-0.049883,-0.000000
5.640000,2.491499,2.253424,-1.490644,0.133610,0.366121,0.036835,-0.422639,-0.590860,0.101033,0.497605,2.018779,-0.046375,1.293528,2.540144,-0.849574,-0.060725,0.043503,0.000000,0.207121,-0.051268,0.000000
5.650000,2.492814,2.257056,-1.490271,0.129409,0.360313,0.037843,-0.417598,-0.570550,0.100527,0.510371,2.042736,-0.054682,1.258461,2.248968,-0.811350,-0.058641,0.042983,0.000000,0.209666,-0.052618,-0.000000
5.660000,2.494087,2.260631,-1.489888,0.125258,0.354710,0.038845,-0.412432,-0.550015,0.099940,0.522770,2.063741,-0.062602,1.214743,1.943159,-0.770119,-0.056533,0.042449,0.000000,0.211901,-0.053928,0.000000
5.670000,2.495319,2.264151,-1.489494,0.121160,0.349314,0.039841,-0.407145,-0.529286,0.099277,0.534665,2.081585,-0.070087,1.162776,1.623242,-0.726347,-0.054404,0.041903,0.000000,0.213804,-0.055183,-0.000000
5.680000,2.496511,2.267618,-1.489091,0.117116,0.344125,0.040831,-0.401741,-0.508394,0.098540,0.545998,2.096158,-0.077122,1.102379,1.288989,-0.680253,-0.052258,0.041344,0.000000,0.215363,-0.056377,0.000000
5.690000,2.497662,2.271034,-1.488678,0.113126,0.339146,0.041812,-0.396227,-0.487374,0.097736,0.556684,2.107316,-0.083685,1.033369,0.940173,-0.632055,-0.050098,0.040774,0.000000,0.216564,-0.057501,0.000000
5.700000,2.498773,2.274401,-1.488255,0.109192,0.334378,0.042785,-0.390610,-0.466260,0.096868,0.566636,2.114913,-0.089756,0.955565,0.576567,-0.581970,-0.047928,0.040193,0.000000,0.217392,-0.058547,-0.000000
5.710000,2.499846,2.277722,-1.487822,0.105314,0.329821,0.043749,-0.384896,-0.445087,0.095942,0.575857,2.118877,-0.095316,0.866468,0.195938,-0.530284,-0.045751,0.039602,0.000000,0.217838,-0.059514,-0.000000
5.720000,2.500880,2.280999,-1.487380,0.101494,0.325476,0.044704,-0.379095,-0.423895,0.094964,0.584039,2.118871,-0.100354,0.768497,-0.199689,-0.477140,-0.043572,0.039002,0.000000,0.217870,-0.060371,0.000000
5.730000,2.501876,2.284232,-1.486928,0.097732,0.321343,0.045648,-0.373218,-0.402723,0.093937,0.591197,2.114833,-0.104855,0.661753,-0.610297,-0.422748,-0.041395,0.038394,0.000000,0.217480,-0.061119,-0.000000
