time,x,y,z,vx,vy,vz,ax,ay,az,jx,jy,jz,sx,sy,sz,roll,pitch,yaw,p,q,r
0.000000,-2.763760,-2.166243,-1.477213,0.004278,0.022623,0.000641,-0.308401,-0.883190,-0.027955,3.643486,17.694649,0.149157,18.160143,-191.673440,-14.865068,-0.089490,0.031338,0.000000,1.780988,-0.368033,-0.000000
0.010000,-2.763732,-2.166058,-1.477208,0.001379,0.014645,0.000367,-0.271136,-0.715378,-0.027183,3.802067,15.911278,0.007562,13.636043,-165.454393,-13.457601,-0.072567,0.027555,0.000000,1.607524,-0.385169,-0.000000
0.020000,-2.763731,-2.165945,-1.477206,-0.001141,0.008260,0.000093,-0.232503,-0.564135,-0.027757,3.917768,14.376708,-0.120070,9.580056,-141.891095,-12.072809,-0.057265,0.023629,0.000000,1.456347,-0.397651,0.000000
0.030000,-2.763753,-2.165888,-1.477207,-0.003268,0.003315,-0.000192,-0.192908,-0.427101,-0.029539,3.995146,13.065045,-0.233977,5.967397,-120.851068,-10.712997,-0.043371,0.019603,0.000000,1.325745,-0.405958,0.000000
0.040000,-2.763795,-2.165874,-1.477210,-0.004997,-0.000322,-0.000501,-0.152713,-0.302173,-0.032392,4.038511,11.951718,-0.334421,2.773281,-102.201838,-9.380474,-0.030688,0.015515,0.000000,1.213868,-0.410553,0.000000
0.050000,-2.763852,-2.165891,-1.477217,-0.006322,-0.002763,-0.000843,-0.112237,-0.187484,-0.036183,4.051924,11.013481,-0.421686,-0.027077,-85.810927,-8.077544,-0.019038,0.011399,0.000000,1.118801,-0.411882,-0.000000
0.060000,-2.763920,-2.165926,-1.477227,-0.007241,-0.004100,-0.001227,-0.071762,-0.081393,-0.040782,4.039199,10.228413,-0.496078,-2.458461,-71.545860,-6.806516,-0.008262,0.007285,0.000000,1.038628,-0.410369,-0.000000
0.070000,-2.763996,-2.165969,-1.477241,-0.007758,-0.004414,-0.001661,-0.031529,0.017526,-0.046063,4.003902,9.575919,-0.557930,-4.545655,-59.274161,-5.569695,0.001778,0.003199,0.000000,0.971470,-0.406414,0.000000
0.080000,-2.764074,-2.166011,-1.477260,-0.007874,-0.003770,-0.002151,0.008252,0.110503,-0.051900,3.949351,9.036727,-0.607594,-6.313445,-48.863353,-4.369388,0.011205,-0.000837,0.000000,0.915518,-0.400389,-0.000000
0.090000,-2.764152,-2.166042,-1.477285,-0.007595,-0.002221,-0.002701,0.047404,0.198579,-0.058175,3.878615,8.592890,-0.645447,-7.786615,-40.180960,-3.207902,0.020120,-0.004804,0.000000,0.869052,-0.392640,0.000000
0.100000,-2.764225,-2.166052,-1.477315,-0.006928,0.000188,-0.003315,0.085780,0.282623,-0.064771,3.794518,8.227788,-0.671889,-8.989950,-33.094506,-2.087544,0.028612,-0.008687,0.000000,0.830459,-0.383487,-0.000000
0.110000,-2.764289,-2.166035,-1.477351,-0.005882,0.003421,-0.003997,0.123259,0.363346,-0.071576,3.699633,7.926122,-0.687343,-9.948234,-27.471515,-1.010619,0.036751,-0.012473,0.000000,0.798241,-0.373219,-0.000000
0.120000,-2.764341,-2.165981,-1.477395,-0.004466,0.007446,-0.004747,0.159745,0.441310,-0.078483,3.596287,7.673921,-0.692254,-10.686251,-23.179511,0.020564,0.044593,-0.016153,0.000000,0.771025,-0.362099,-0.000000
0.130000,-2.764377,-2.165884,-1.477446,-0.002691,0.012239,-0.005566,0.195163,0.516947,-0.085388,3.486560,7.458537,-0.687092,-11.228787,-20.086017,1.003700,0.052184,-0.019720,0.000000,0.747565,-0.350358,0.000000
0.140000,-2.764394,-2.165734,-1.477506,-0.000567,0.017778,-0.006454,0.229461,0.590566,-0.092193,3.372281,7.268647,-0.672348,-11.600626,-18.058558,1.936483,0.059553,-0.023169,0.000000,0.726747,-0.338203,-0.000000
0.150000,-2.764387,-2.165526,-1.477576,0.001895,0.024045,-0.007410,0.262599,0.662371,-0.098805,3.255033,7.094254,-0.648537,-11.826553,-16.964657,2.816604,0.066724,-0.026495,0.000000,0.707592,-0.325809,-0.000000
0.160000,-2.764355,-2.165251,-1.477655,0.004681,0.031020,-0.008430,0.294556,0.732473,-0.105135,3.136153,6.926684,-0.616199,-11.931352,-16.671838,3.641758,0.073708,-0.029699,0.000000,0.689252,-0.313323,0.000000
0.170000,-2.764293,-2.164903,-1.477744,0.007782,0.038688,-0.009511,0.325320,0.800903,-0.111102,3.016727,6.758588,-0.575893,-11.939808,-17.047626,4.409638,0.080509,-0.032779,0.000000,0.671017,-0.300866,0.000000
0.180000,-2.764198,-2.164475,-1.477845,0.011184,0.047033,-0.010650,0.354891,0.867623,-0.116628,2.897596,6.583944,-0.528205,-11.876705,-17.959542,5.117938,0.087127,-0.035736,0.000000,0.652308,-0.288530,-0.000000
0.190000,-2.764068,-2.163960,-1.477958,0.014876,0.056035,-0.011842,0.383275,0.932544,-0.121644,2.779349,6.398052,-0.473741,-11.766828,-19.275113,5.764351,0.093553,-0.038572,0.000000,0.632679,-0.276380,-0.000000
0.200000,-2.763900,-2.163352,-1.478082,0.018845,0.065677,-0.013081,0.410483,0.995535,-0.126083,2.662332,6.197538,-0.413132,-11.634963,-20.861861,6.346569,0.099776,-0.041289,0.000000,0.611816,-0.264453,0.000000
0.210000,-2.763690,-2.162644,-1.478219,0.023079,0.075947,-0.014362,0.436623,1.056118,-0.129885,2.555564,5.950726,-0.346794,-11.731270,-21.839005,6.856299,0.105752,-0.043898,0.000000,0.586593,-0.253652,-0.000000
0.220000,-2.763437,-2.161831,-1.478370,0.027571,0.086802,-0.015677,0.461591,1.114516,-0.133003,2.437769,5.727025,-0.275965,-11.827560,-22.914003,7.297955,0.111505,-0.046390,0.000000,0.563923,-0.241850,-0.000000
0.230000,-2.763138,-2.160906,-1.478533,0.032307,0.098230,-0.017019,0.485375,1.170621,-0.135391,2.319022,5.492255,-0.201067,-11.921020,-24.046009,7.669964,0.117028,-0.048765,0.000000,0.540410,-0.230053,0.000000
0.240000,-2.762790,-2.159865,-1.478710,0.037274,0.110207,-0.018382,0.507968,1.224322,-0.137013,2.199367,5.246051,-0.122803,-12.008837,-25.194175,7.970752,0.122311,-0.051023,0.000000,0.516018,-0.218262,0.000000
0.250000,-2.762392,-2.158700,-1.478901,0.042462,0.122708,-0.019757,0.529360,1.275504,-0.137838,2.078874,4.988454,-0.041895,-12.088199,-26.317656,8.198746,0.127345,-0.053163,0.000000,0.490750,-0.206478,-0.000000
0.260000,-2.761940,-2.157409,-1.479105,0.047857,0.135711,-0.021136,0.549544,1.323940,-0.137835,1.957773,4.709349,0.041767,-12.159630,-27.108699,8.331062,0.132112,-0.055187,0.000000,0.463613,-0.194725,-0.000000
0.270000,-2.761434,-2.155985,-1.479323,0.053449,0.149181,-0.022511,0.568513,1.369666,-0.137000,1.835878,4.434611,0.125434,-12.216572,-27.826045,8.390046,0.136616,-0.057092,0.000000,0.437119,-0.182963,0.000000
0.280000,-2.760871,-2.154424,-1.479555,0.059224,0.163095,-0.023873,0.586260,1.412610,-0.135326,1.713500,4.153101,0.209327,-12.255803,-28.461529,8.376736,0.140853,-0.058880,0.000000,0.410162,-0.171219,0.000000
0.290000,-2.760249,-2.152721,-1.479801,0.065170,0.177424,-0.025215,0.602782,1.452708,-0.132815,1.590832,3.865680,0.292731,-12.274103,-29.006985,8.292166,0.144818,-0.060551,0.000000,0.382805,-0.159503,-0.000000
0.300000,-2.759567,-2.150874,-1.480060,0.071275,0.192140,-0.026527,0.618077,1.489907,-0.129475,1.468099,3.573289,0.374937,-12.268249,-29.454249,8.137374,0.148508,-0.062104,0.000000,0.355116,-0.147826,-0.000000
0.310000,-2.758823,-2.148877,-1.480331,0.077528,0.207213,-0.027802,0.632135,1.524125,-0.125312,1.344688,3.273578,0.456179,-12.213036,-29.709989,7.889879,0.151916,-0.063539,0.000000,0.326851,-0.136122,-0.000000
0.320000,-2.758016,-2.146729,-1.480615,0.083914,0.222613,-0.029031,0.644973,1.555372,-0.120361,1.222949,2.975634,0.533566,-12.129919,-29.861636,7.577113,0.155044,-0.064858,0.000000,0.298838,-0.124598,-0.000000
0.330000,-2.757144,-2.144424,-1.480912,0.090423,0.238311,-0.030206,0.656598,1.583634,-0.114653,1.102184,2.676684,0.607516,-12.018369,-29.911455,7.202991,0.157892,-0.066062,0.000000,0.270787,-0.113178,0.000000
0.340000,-2.756207,-2.141961,-1.481219,0.097042,0.254276,-0.031321,0.667021,1.608906,-0.108224,0.982679,2.377737,0.677435,-11.877857,-29.861707,6.771428,0.160460,-0.067151,0.000000,0.242766,-0.101879,-0.000000
0.350000,-2.755203,-2.139338,-1.481538,0.103759,0.270479,-0.032369,0.676256,1.631192,-0.101119,0.864725,2.079775,0.742766,-11.707853,-29.714659,6.286341,0.162748,-0.068126,0.000000,0.214839,-0.090719,0.000000
0.360000,-2.754132,-2.136551,-1.481867,0.110563,0.286890,-0.033342,0.684316,1.650498,-0.093379,0.748092,1.782911,0.803618,-11.494446,-29.451114,5.735947,0.164757,-0.068990,0.000000,0.186997,-0.079667,-0.000000
0.370000,-2.752992,-2.133599,-1.482204,0.117442,0.303480,-0.034235,0.691226,1.666860,-0.085066,0.634335,1.490095,0.858040,-11.252127,-29.097423,5.141780,0.166489,-0.069742,0.000000,0.159472,-0.068857,-0.000000
0.380000,-2.751782,-2.130481,-1.482551,0.124384,0.320218,-0.035042,0.697011,1.680313,-0.076239,0.523142,1.201246,0.906327,-10.982006,-28.658478,4.509679,0.167947,-0.070387,0.000000,0.132242,-0.058255,-0.000000
0.390000,-2.750504,-2.127195,-1.482905,0.131379,0.337076,-0.035758,0.701698,1.690901,-0.066961,0.414784,0.917193,0.948127,-10.685193,-28.139169,3.845481,0.169135,-0.070925,0.000000,0.105359,-0.047877,-0.000000
0.400000,-2.749155,-2.123739,-1.483266,0.138415,0.354026,-0.036379,0.705317,1.698676,-0.057299,0.309523,0.638714,0.983149,-10.362797,-27.544389,3.155024,0.170055,-0.071359,0.000000,0.078879,-0.037743,-0.000000
0.410000,-2.747735,-2.120114,-1.483632,0.145482,0.371041,-0.036903,0.707897,1.703696,-0.047320,0.207400,0.366458,1.011289,-10.010640,-26.876951,2.440858,0.170714,-0.071691,0.000000,0.052846,-0.027851,-0.000000
0.420000,-2.746245,-2.116318,-1.484003,0.152569,0.388091,-0.037325,0.709477,1.706028,-0.037097,0.109150,0.101301,1.032065,-9.635767,-26.144078,1.712509,0.171114,-0.071925,0.000000,0.027325,-0.018269,0.000000
0.430000,-2.744684,-2.112352,-1.484378,0.159668,0.405152,-0.037644,0.710093,1.705747,-0.026703,0.014755,-0.156222,1.045513,-9.239934,-25.350917,0.976219,0.171262,-0.072063,0.000000,0.002358,-0.008992,-0.000000
0.440000,-2.743052,-2.108215,-1.484756,0.166768,0.422198,-0.037859,0.709786,1.702931,-0.016211,-0.075584,-0.405534,1.051584,-8.824899,-24.502614,0.238227,0.171163,-0.072109,0.000000,-0.022008,-0.000037,-0.000000
0.450000,-2.741349,-2.103908,-1.485135,0.173861,0.439203,-0.037968,0.708596,1.697666,-0.005696,-0.161685,-0.646108,1.050293,-8.392418,-23.604315,-0.495228,0.170824,-0.072065,0.000000,-0.045726,0.008576,-0.000000
0.460000,-2.739575,-2.099431,-1.485515,0.180937,0.456143,-0.037973,0.706566,1.690041,0.004766,-0.243427,-0.877368,1.041369,-7.943084,-22.663750,-1.209148,0.170251,-0.071936,0.000000,-0.068746,0.016837,0.000000
0.470000,-2.737730,-2.094786,-1.485894,0.187989,0.472996,-0.037873,0.703742,1.680150,0.015108,-0.320553,-1.099134,1.025772,-7.479961,-21.683163,-1.907123,0.169452,-0.071725,0.000000,-0.091036,0.024714,-0.000000
0.480000,-2.735815,-2.089972,-1.486272,0.195010,0.489739,-0.037671,0.700171,1.668092,0.025259,-0.392986,-1.310914,1.003297,-7.004949,-20.667385,-2.583984,0.168433,-0.071436,0.000000,-0.112546,0.032197,-0.000000
0.490000,-2.733830,-2.084991,-1.486647,0.201991,0.506351,-0.037369,0.695899,1.653966,0.035152,-0.460618,-1.512381,0.974180,-6.519946,-19.621245,-3.234564,0.167203,-0.071073,0.000000,-0.133236,0.039270,-0.000000
0.500000,-2.731775,-2.079845,-1.487019,0.208925,0.522812,-0.036969,0.690975,1.637879,0.044721,-0.523358,-1.703254,0.938710,-6.026853,-18.549571,-3.853695,0.165771,-0.070641,0.000000,-0.153066,0.045921,0.000000
0.510000,-2.729651,-2.074536,-1.487387,0.215808,0.539102,-0.036476,0.685448,1.619939,0.053899,-0.581101,-1.883146,0.896552,-5.528414,-17.461149,-4.419126,0.164145,-0.070143,0.000000,-0.171993,0.052135,-0.000000
0.520000,-2.727459,-2.069064,-1.487748,0.222633,0.555205,-0.035893,0.679369,1.600253,0.062634,-0.633874,-2.052246,0.849697,-5.025581,-16.356369,-4.944864,0.162334,-0.069585,0.000000,-0.189992,0.057898,-0.000000
0.530000,-2.725199,-2.063432,-1.488104,0.229394,0.571102,-0.035225,0.672788,1.578931,0.070876,-0.681604,-2.210234,0.797797,-4.520148,-15.239575,-5.427833,0.160348,-0.068971,0.000000,-0.207024,0.063200,-0.000000
0.540000,-2.722872,-2.057643,-1.488453,0.236087,0.586778,-0.034477,0.665754,1.556086,0.078575,-0.724274,-2.357012,0.741294,-4.013911,-14.115111,-5.864959,0.158197,-0.068306,0.000000,-0.223060,0.068032,0.000000
0.550000,-2.720478,-2.051697,-1.488793,0.242707,0.602219,-0.033655,0.658319,1.531829,0.085688,-0.761886,-2.492525,0.680661,-3.508668,-12.987324,-6.253165,0.155891,-0.067595,0.000000,-0.238072,0.072386,0.000000
0.560000,-2.718018,-2.045599,-1.489126,0.249252,0.617411,-0.032765,0.650534,1.506275,0.092167,-0.794370,-2.616540,0.615603,-3.008414,-11.866158,-6.569164,0.153439,-0.066843,0.000000,-0.252026,0.076251,-0.000000
0.570000,-2.715493,-2.039350,-1.489448,0.255717,0.632341,-0.031814,0.642448,1.479535,0.097990,-0.821970,-2.729614,0.548551,-2.512476,-10.749672,-6.832566,0.150854,-0.066054,0.000000,-0.264925,0.079631,0.000000
0.580000,-2.712904,-2.032953,-1.489762,0.262100,0.646998,-0.030807,0.634111,1.451720,0.103130,-0.844639,-2.831561,0.479129,-2.022378,-9.641525,-7.042771,0.148144,-0.065233,0.000000,-0.276743,0.082520,-0.000000
0.590000,-2.710251,-2.026411,-1.490064,0.268399,0.661372,-0.029753,0.625572,1.422941,0.107567,-0.862442,-2.922484,0.407875,-1.539648,-8.545376,-7.199178,0.145323,-0.064387,0.000000,-0.287468,0.084917,-0.000000
0.600000,-2.707536,-2.019727,-1.490357,0.274611,0.675454,-0.028659,0.616878,1.393307,0.111283,-0.875461,-3.002521,0.335327,-1.065811,-7.464885,-7.301184,0.142399,-0.063519,0.000000,-0.297092,0.086824,0.000000
0.610000,-2.704759,-2.012903,-1.490638,0.280736,0.689235,-0.027530,0.608080,1.362929,0.114263,-0.883662,-3.071542,0.261309,-0.605701,-6.411394,-7.329875,0.139385,-0.062634,0.000000,-0.305592,0.088234,0.000000
0.620000,-2.701921,-2.005943,-1.490907,0.286772,0.702710,-0.026375,0.599220,1.331911,0.116510,-0.887466,-3.130479,0.188090,-0.157131,-5.379939,-7.305207,0.136291,-0.061738,0.000000,-0.313020,0.089175,-0.000000
0.630000,-2.699024,-1.998850,-1.491165,0.292720,0.715872,-0.025202,0.590345,1.300354,0.118026,-0.886847,-3.179223,0.115377,0.278776,-4.373236,-7.228822,0.133128,-0.060836,0.000000,-0.319360,0.089642,-0.000000
0.640000,-2.696067,-1.991627,-1.491411,0.298579,0.728716,-0.024017,0.581498,1.268359,0.118821,-0.881937,-3.218035,0.043680,0.700899,-3.394004,-7.102363,0.129907,-0.059931,0.000000,-0.324624,0.089646,0.000000
0.650000,-2.693053,-1.984277,-1.491645,0.304350,0.741238,-0.022828,0.572720,1.236025,0.118905,-0.872879,-3.247204,-0.026509,1.108115,-2.444960,-6.927469,0.126639,-0.059029,0.000000,-0.328829,0.089198,0.000000
0.660000,-2.689981,-1.976803,-1.491868,0.310034,0.753435,-0.021641,0.564055,1.203450,0.118291,-0.859670,-3.266678,-0.095219,1.495318,-1.538066,-6.693002,0.123334,-0.058134,0.000000,-0.331964,0.088296,0.000000
0.670000,-2.686852,-1.969209,-1.492078,0.315632,0.765306,-0.020464,0.555539,1.170721,0.117009,-0.842850,-3.277667,-0.160794,1.865860,-0.665665,-6.414951,0.120003,-0.057251,0.000000,-0.334131,0.086987,-0.000000
0.680000,-2.683668,-1.961498,-1.492277,0.321145,0.776849,-0.019303,0.547210,1.137925,0.115086,-0.822410,-3.280112,-0.223384,2.219108,0.170656,-6.096521,0.116655,-0.056383,0.000000,-0.335323,0.085273,-0.000000
0.690000,-2.680430,-1.953673,-1.492464,0.326577,0.788065,-0.018165,0.539103,1.105146,0.112553,-0.798527,-3.274380,-0.282600,2.554429,0.969311,-5.740922,0.113300,-0.055535,0.000000,-0.335575,0.083169,0.000000
0.700000,-2.677137,-1.945738,-1.492640,0.331928,0.798953,-0.017054,0.531250,1.072464,0.109446,-0.771384,-3.260856,-0.338089,2.871191,1.728714,-5.351360,0.109946,-0.054710,0.000000,-0.334924,0.080695,0.000000
0.710000,-2.673791,-1.937695,-1.492805,0.337203,0.809514,-0.015977,0.523687,1.039958,0.105802,-0.741008,-3.239569,-0.389746,3.164740,2.437860,-4.925455,0.106604,-0.053913,0.000000,-0.333375,0.077854,0.000000
0.720000,-2.670393,-1.929549,-1.492960,0.342403,0.819752,-0.014940,0.516440,1.007695,0.101666,-0.707974,-3.211816,-0.436758,3.438955,3.105735,-4.472685,0.103282,-0.053145,0.000000,-0.331056,0.074705,0.000000
0.730000,-2.666943,-1.921301,-1.493104,0.347533,0.829669,-0.013946,0.509536,0.975743,0.097082,-0.672294,-3.177593,-0.479123,3.693694,3.731905,-3.996942,0.099986,-0.052412,0.000000,-0.327973,0.071250,-0.000000
0.740000,-2.663443,-1.912956,-1.493239,0.352595,0.839269,-0.012999,0.503002,0.944164,0.092099,-0.634165,-3.137319,-0.516633,3.928817,4.315937,-3.502114,0.096724,-0.051714,0.000000,-0.324173,0.067510,0.000000
0.750000,-2.659892,-1.904517,-1.493365,0.357594,0.848554,-0.012105,0.496860,0.913015,0.086766,-0.593784,-3.091416,-0.549115,4.144183,4.857398,-2.992095,0.093505,-0.051056,0.000000,-0.319706,0.063509,0.000000
0.760000,-2.656291,-1.895986,-1.493481,0.362534,0.857530,-0.011265,0.491135,0.882356,0.081135,-0.551215,-3.039997,-0.576384,4.336279,5.347851,-2.472119,0.090333,-0.050439,0.000000,-0.314588,0.059254,0.000000
0.770000,-2.652641,-1.887367,-1.493590,0.367418,0.866203,-0.010483,0.485842,0.852231,0.075256,-0.506973,-2.984244,-0.598472,4.508749,5.795847,-1.944568,0.087215,-0.049867,0.000000,-0.308948,0.054801,0.000000
0.780000,-2.648943,-1.878663,-1.493691,0.372252,0.874577,-0.009761,0.481001,0.822685,0.069183,-0.461104,-2.924220,-0.615263,4.661864,6.201932,-1.413169,0.084156,-0.049340,0.000000,-0.302801,0.050155,0.000000
0.790000,-2.645196,-1.869877,-1.493786,0.377040,0.882659,-0.009100,0.476625,0.793759,0.062969,-0.413799,-2.860343,-0.626735,4.795895,6.566655,-0.881647,0.081160,-0.048861,0.000000,-0.296197,0.045340,-0.000000
0.800000,-2.641402,-1.861011,-1.493873,0.381786,0.890454,-0.008502,0.472729,0.765490,0.056666,-0.365249,-2.793023,-0.632907,4.911115,6.890562,-0.353729,0.078233,-0.048431,0.000000,-0.289186,0.040375,-0.000000
0.810000,-2.637561,-1.852069,-1.493956,0.386496,0.897971,-0.007967,0.469324,0.737912,0.050331,-0.315550,-2.722450,-0.633573,5.005552,7.168750,0.160259,0.075378,-0.048051,0.000000,-0.281794,0.035272,0.000000
0.820000,-2.633672,-1.843052,-1.494033,0.391174,0.905215,-0.007495,0.466421,0.711050,0.044012,-0.265098,-2.649535,-0.629442,5.081995,7.407884,0.663998,0.072598,-0.047723,0.000000,-0.274126,0.030075,-0.000000
0.830000,-2.629737,-1.833965,-1.494106,0.395826,0.912194,-0.007086,0.464025,0.684928,0.037759,-0.213968,-2.574418,-0.620337,5.140992,7.609178,1.154571,0.069896,-0.047448,0.000000,-0.266202,0.024793,0.000000
0.840000,-2.625756,-1.824809,-1.494175,0.400456,0.918916,-0.006739,0.462143,0.659567,0.031621,-0.162334,-2.497473,-0.606404,5.183088,7.773846,1.629059,0.067275,-0.047227,0.000000,-0.258068,0.019445,-0.000000
0.850000,-2.621728,-1.815588,-1.494241,0.405071,0.925388,-0.006453,0.460779,0.634984,0.025646,-0.110361,-2.419060,-0.587819,5.208831,7.903103,2.084543,0.064735,-0.047059,0.000000,-0.249766,0.014048,0.000000
0.860000,-2.617655,-1.806302,-1.494304,0.409674,0.931618,-0.006226,0.459937,0.611191,0.019884,-0.058171,-2.339424,-0.564410,5.217785,7.995614,2.508599,0.062280,-0.046945,0.000000,-0.241326,0.008614,0.000000
0.870000,-2.613535,-1.796956,-1.494366,0.414271,0.937614,-0.006055,0.459616,0.588198,0.014372,-0.006012,-2.259142,-0.537301,5.211598,8.055455,2.908980,0.059909,-0.046886,0.000000,-0.232818,0.003175,0.000000
0.880000,-2.609369,-1.787551,-1.494425,0.418868,0.943385,-0.005938,0.459816,0.566010,0.009150,0.046012,-2.178419,-0.506315,5.190938,8.084151,3.283931,0.057624,-0.046882,0.000000,-0.224264,-0.002262,0.000000
0.890000,-2.605158,-1.778089,-1.494484,0.423469,0.948937,-0.005871,0.460535,0.544630,0.004257,0.097761,-2.097558,-0.471713,5.156471,8.083230,3.631698,0.055424,-0.046931,0.000000,-0.215701,-0.007682,-0.000000
0.900000,-2.600900,-1.768573,-1.494543,0.428080,0.954280,-0.005851,0.461770,0.524058,-0.000273,0.149098,-2.016848,-0.433777,5.108865,8.054217,3.950528,0.053310,-0.047035,0.000000,-0.207160,-0.013069,0.000000
0.910000,-2.596596,-1.759004,-1.494602,0.432706,0.959421,-0.005875,0.463515,0.504291,-0.004404,0.199893,-1.936560,-0.392406,5.048881,7.998571,4.228578,0.051281,-0.047193,0.000000,-0.198672,-0.018414,0.000000
0.920000,-2.592246,-1.749385,-1.494661,0.437352,0.964369,-0.005938,0.465766,0.485324,-0.008112,0.250032,-1.856957,-0.348860,4.977079,7.917895,4.475418,0.049336,-0.047404,0.000000,-0.190270,-0.023699,-0.000000
0.930000,-2.587849,-1.739717,-1.494721,0.442023,0.969130,-0.006036,0.468513,0.467149,-0.011373,0.299397,-1.778280,-0.303003,4.894116,7.813724,4.690529,0.047475,-0.047667,0.000000,-0.181977,-0.028914,-0.000000
0.940000,-2.583405,-1.730003,-1.494781,0.446724,0.973714,-0.006164,0.471751,0.449755,-0.014166,0.347879,-1.700756,-0.255157,4.800646,7.687591,4.873391,0.045696,-0.047983,0.000000,-0.173819,-0.034049,-0.000000
0.950000,-2.578914,-1.720244,-1.494844,0.451460,0.978128,-0.006317,0.475468,0.433129,-0.016471,0.395377,-1.624596,-0.205645,4.697326,7.541033,5.023487,0.043998,-0.048349,0.000000,-0.165819,-0.039094,0.000000
0.960000,-2.574376,-1.710441,-1.494908,0.456235,0.982379,-0.006492,0.479654,0.417257,-0.018270,0.441764,-1.550058,-0.154448,4.585598,7.377101,5.131466,0.042379,-0.048765,0.000000,-0.158000,-0.044037,-0.000000
0.970000,-2.569789,-1.700597,-1.494974,0.461054,0.986476,-0.006681,0.484299,0.402123,-0.019557,0.487025,-1.477181,-0.102730,4.465233,7.195627,5.206722,0.040837,-0.049230,0.000000,-0.150372,-0.048873,0.000000
0.980000,-2.565154,-1.690712,-1.495042,0.465923,0.990424,-0.006881,0.489390,0.387707,-0.020323,0.531042,-1.406200,-0.050421,4.336791,6.997959,5.249818,0.039371,-0.049743,0.000000,-0.142956,-0.053591,0.000000
0.990000,-2.560471,-1.680789,-1.495111,0.470844,0.994232,-0.007086,0.494916,0.373992,-0.020564,0.573736,-1.337271,0.002161,4.200831,6.785446,5.261316,0.037977,-0.050302,0.000000,-0.135767,-0.058184,-0.000000
1.000000,-2.555737,-1.670828,-1.495183,0.475822,0.997906,-0.007291,0.500861,0.360955,-0.020280,0.615035,-1.270536,0.054702,4.057912,6.559437,5.241778,0.036655,-0.050907,0.000000,-0.128820,-0.062644,-0.000000
1.010000,-2.550954,-1.660831,-1.495257,0.480862,1.001453,-0.007490,0.507211,0.348572,-0.019469,0.654831,-1.206206,0.107150,3.909644,6.323396,5.185335,0.035400,-0.051555,0.000000,-0.122133,-0.066961,0.000000
1.020000,-2.546120,-1.650799,-1.495333,0.485968,1.004880,-0.007678,0.513952,0.336822,-0.018139,0.693161,-1.144199,0.158599,3.755407,6.076298,5.099770,0.034211,-0.052246,0.000000,-0.115701,-0.071136,-0.000000
1.030000,-2.541234,-1.640734,-1.495411,0.491143,1.008192,-0.007851,0.521069,0.325680,-0.016300,0.729921,-1.084714,0.209052,3.595632,5.819230,4.986433,0.033085,-0.052978,0.000000,-0.109542,-0.075158,0.000000
1.040000,-2.536297,-1.630636,-1.495490,0.496390,1.011395,-0.008003,0.528545,0.315119,-0.013962,0.765057,-1.027844,0.258239,3.430748,5.553284,4.846673,0.032019,-0.053750,0.000000,-0.103663,-0.079022,-0.000000
1.050000,-2.531306,-1.620506,-1.495571,0.501715,1.014496,-0.008129,0.536364,0.305114,-0.011140,0.798520,-0.973674,0.305902,3.261186,5.279548,4.681841,0.031011,-0.054559,0.000000,-0.098073,-0.082721,-0.000000
1.060000,-2.526262,-1.610346,-1.495652,0.507119,1.017499,-0.008224,0.544509,0.295636,-0.007849,0.830228,-0.922353,0.351939,3.088345,5.001059,4.489710,0.030057,-0.055404,0.000000,-0.092785,-0.086247,-0.000000
1.070000,-2.521164,-1.600156,-1.495735,0.512606,1.020411,-0.008284,0.552963,0.286658,-0.004108,0.860231,-0.873759,0.395783,2.911568,4.716720,4.275645,0.029154,-0.056284,0.000000,-0.087787,-0.089602,0.000000
1.080000,-2.516010,-1.589938,-1.495818,0.518179,1.023234,-0.008305,0.561708,0.278151,0.000060,0.888448,-0.828035,0.437385,2.731169,4.427384,4.041435,0.028300,-0.057197,0.000000,-0.083091,-0.092778,-0.000000
1.090000,-2.510800,-1.579692,-1.495901,0.523841,1.025975,-0.008282,0.570726,0.270087,0.004631,0.914843,-0.785225,0.476551,2.547459,4.133902,3.788868,0.027491,-0.058140,0.000000,-0.078703,-0.095768,0.000000
1.100000,-2.505533,-1.569419,-1.495984,0.529594,1.028637,-0.008211,0.579999,0.262437,0.009582,0.939387,-0.745368,0.513107,2.360751,3.837125,3.519732,0.026725,-0.059112,0.000000,-0.074625,-0.098570,0.000000
1.110000,-2.500208,-1.559120,-1.496065,0.535442,1.031225,-0.008089,0.589507,0.255169,0.014885,0.962023,-0.708545,0.546928,2.172036,3.539279,3.234996,0.025998,-0.060111,0.000000,-0.070864,-0.101174,0.000000
1.120000,-2.494824,-1.548795,-1.496145,0.541385,1.033742,-0.007912,0.599233,0.248256,0.020511,0.982789,-0.674649,0.577800,1.980863,3.239671,2.937368,0.025307,-0.061136,0.000000,-0.067410,-0.103584,-0.000000
1.130000,-2.489380,-1.538445,-1.496223,0.547427,1.036191,-0.007678,0.609157,0.241666,0.026431,1.001632,-0.643756,0.605639,1.787461,2.938986,2.628737,0.024649,-0.062183,0.000000,-0.064270,-0.105791,0.000000
1.140000,-2.483875,-1.528071,-1.496298,0.553569,1.038576,-0.007383,0.619259,0.235371,0.032613,1.018532,-0.615871,0.630345,1.592060,2.637905,2.310992,0.024020,-0.063251,0.000000,-0.061443,-0.107792,0.000000
1.150000,-2.478308,-1.517674,-1.496371,0.559813,1.040900,-0.007025,0.629521,0.229339,0.039027,1.033468,-0.590997,0.651835,1.394888,2.337111,1.986020,0.023419,-0.064339,0.000000,-0.058930,-0.109582,-0.000000
1.160000,-2.472678,-1.507253,-1.496439,0.566160,1.043164,-0.006601,0.639922,0.223540,0.045638,1.046411,-0.569156,0.669989,1.196511,2.038057,1.657177,0.022841,-0.065443,0.000000,-0.056734,-0.111157,0.000000
1.170000,-2.466984,-1.496811,-1.496502,0.572612,1.045371,-0.006111,0.650442,0.217946,0.052415,1.057378,-0.550265,0.684901,0.996780,1.740561,1.324706,0.022283,-0.066562,0.000000,-0.054844,-0.112516,0.000000
1.180000,-2.461226,-1.486346,-1.496561,0.579169,1.047523,-0.005553,0.661063,0.212525,0.059325,1.066343,-0.534338,0.696477,0.795882,1.445213,0.990316,0.021743,-0.067693,0.000000,-0.053264,-0.113654,0.000000
1.190000,-2.455401,-1.475860,-1.496613,0.585833,1.049622,-0.004924,0.671762,0.207249,0.066334,1.073293,-0.521351,0.704706,0.594006,1.152601,0.655717,0.021217,-0.068835,0.000000,-0.051989,-0.114569,-0.000000
1.200000,-2.449509,-1.465354,-1.496659,0.592604,1.051669,-0.004226,0.682522,0.202089,0.073408,1.078220,-0.511275,0.709596,0.391338,0.863314,0.322617,0.020702,-0.069984,0.000000,-0.051019,-0.115257,0.000000
1.210000,-2.443548,-1.454827,-1.496697,0.599484,1.053664,-0.003456,0.693320,0.197014,0.080513,1.081115,-0.504087,0.711048,0.188119,0.578329,-0.004205,0.020195,-0.071139,0.000000,-0.050349,-0.115714,0.000000
1.220000,-2.437518,-1.444281,-1.496728,0.606471,1.055609,-0.002615,0.704137,0.191997,0.087618,1.081979,-0.499711,0.709390,-0.015523,0.297799,-0.326484,0.019694,-0.072298,0.000000,-0.049973,-0.115941,0.000000
1.230000,-2.431418,-1.433715,-1.496750,0.613566,1.057504,-0.001704,0.714953,0.187011,0.094691,1.080804,-0.498115,0.704538,-0.219405,0.022264,-0.642887,0.019195,-0.073458,0.000000,-0.049886,-0.115935,0.000000
1.240000,-2.425247,-1.423131,-1.496762,0.620770,1.059349,-0.000722,0.725746,0.182026,0.101699,1.077590,-0.499247,0.696557,-0.423345,-0.247735,-0.952079,0.018695,-0.074616,0.000000,-0.050084,-0.115694,-0.000000
1.250000,-2.419003,-1.412528,-1.496764,0.628081,1.061145,0.000330,0.736498,0.177017,0.108612,1.072338,-0.503049,0.685525,-0.627163,-0.511656,-1.252727,0.018192,-0.075771,0.000000,-0.050561,-0.115216,-0.000000
1.260000,-2.412685,-1.401908,-1.496755,0.635500,1.062890,0.001450,0.747187,0.171956,0.115398,1.065053,-0.509471,0.671380,-0.830800,-0.768631,-1.539577,0.017683,-0.076920,0.000000,-0.051312,-0.114500,0.000000
1.270000,-2.406292,-1.391271,-1.496734,0.643025,1.064583,0.002637,0.757792,0.166819,0.122030,1.055729,-0.518413,0.654594,-1.033936,-1.018487,-1.815696,0.017165,-0.078061,0.000000,-0.052325,-0.113547,-0.000000
1.280000,-2.399824,-1.380616,-1.496702,0.650655,1.066226,0.003890,0.768294,0.161580,0.128480,1.044377,-0.529815,0.635104,-1.236374,-1.260723,-2.080230,0.016636,-0.079191,0.000000,-0.053595,-0.112356,0.000000
1.290000,-2.393279,-1.369946,-1.496656,0.658390,1.067815,0.005206,0.778673,0.156215,0.134723,1.031004,-0.543600,0.613031,-1.437920,-1.494837,-2.332326,0.016092,-0.080308,0.000000,-0.055113,-0.110927,0.000000
1.300000,-2.386656,-1.359260,-1.496598,0.666228,1.069349,0.006584,0.788908,0.150700,0.140733,1.015622,-0.559683,0.588502,-1.638376,-1.720329,-2.571130,0.015533,-0.081409,0.000000,-0.056870,-0.109261,-0.000000
1.310000,-2.379954,-1.348559,-1.496525,0.674168,1.070828,0.008020,0.798979,0.145013,0.146484,0.998248,-0.577998,0.561495,-1.837723,-1.936150,-2.791722,0.014954,-0.082492,0.000000,-0.058860,-0.107359,-0.000000
1.320000,-2.373172,-1.337844,-1.496437,0.682207,1.072249,0.009513,0.808866,0.139133,0.151956,0.978880,-0.598399,0.532535,-2.035565,-2.142414,-2.997814,0.014355,-0.083556,0.000000,-0.061065,-0.105223,-0.000000
1.330000,-2.366309,-1.327115,-1.496334,0.690344,1.073610,0.011058,0.818550,0.133039,0.157128,0.957543,-0.620813,0.501588,-2.231685,-2.338687,-3.189048,0.013732,-0.084596,0.000000,-0.063478,-0.102855,-0.000000
1.340000,-2.359365,-1.316372,-1.496216,0.698577,1.074909,0.012654,0.828010,0.126710,0.161981,0.934253,-0.645138,0.468804,-2.425865,-2.524535,-3.365070,0.013084,-0.085612,0.000000,-0.066088,-0.100257,-0.000000
1.350000,-2.352338,-1.305617,-1.496081,0.706904,1.076143,0.014297,0.837228,0.120130,0.166498,0.909032,-0.671267,0.434338,-2.617885,-2.699525,-3.525522,0.012410,-0.086601,0.000000,-0.068883,-0.097432,-0.000000
1.360000,-2.345227,-1.294849,-1.495930,0.715321,1.077311,0.015983,0.846185,0.113279,0.170661,0.881909,-0.699127,0.398204,-2.807669,-2.862301,-3.666428,0.011706,-0.087560,0.000000,-0.071854,-0.094383,-0.000000
1.370000,-2.338031,-1.284071,-1.495761,0.723826,1.078408,0.017709,0.854860,0.106142,0.174458,0.852894,-0.728516,0.360901,-2.994841,-3.013463,-3.791497,0.010972,-0.088488,0.000000,-0.074980,-0.091116,0.000000
1.380000,-2.330750,-1.273281,-1.495575,0.732417,1.079433,0.019471,0.863236,0.098704,0.177875,0.822022,-0.759356,0.322426,-3.179165,-3.152690,-3.900817,0.010206,-0.089382,0.000000,-0.078251,-0.087633,0.000000
1.390000,-2.323382,-1.262482,-1.495372,0.741090,1.080381,0.021265,0.871295,0.090951,0.180903,0.789321,-0.791529,0.282937,-3.360406,-3.279660,-3.994476,0.009407,-0.090240,0.000000,-0.081655,-0.083940,-0.000000
1.400000,-2.315928,-1.251674,-1.495150,0.749842,1.081250,0.023087,0.879017,0.082869,0.183531,0.754824,-0.824908,0.242589,-3.538330,-3.394053,-4.072562,0.008573,-0.091060,0.000000,-0.085177,-0.080042,-0.000000
1.410000,-2.308385,-1.240858,-1.494910,0.758669,1.082037,0.024934,0.886385,0.074448,0.185751,0.718568,-0.859418,0.201428,-3.712753,-3.494254,-4.132397,0.007703,-0.091840,0.000000,-0.088808,-0.075943,0.000000
1.420000,-2.300754,-1.230034,-1.494651,0.767568,1.082738,0.026801,0.893382,0.065678,0.187558,0.680584,-0.894807,0.159867,-3.883380,-3.581392,-4.177174,0.006796,-0.092578,0.000000,-0.092521,-0.071652,0.000000
1.430000,-2.293034,-1.219203,-1.494374,0.776536,1.083350,0.028684,0.899991,0.056549,0.188947,0.640914,-0.931002,0.117933,-4.049972,-3.655306,-4.207319,0.005852,-0.093273,0.000000,-0.096308,-0.067173,0.000000
1.440000,-2.285223,-1.208367,-1.494077,0.785567,1.083868,0.030579,0.906195,0.047056,0.189916,0.599599,-0.967869,0.075768,-4.212285,-3.715832,-4.223258,0.004870,-0.093921,0.000000,-0.100154,-0.062514,0.000000
1.450000,-2.277322,-1.197526,-1.493762,0.794658,1.084290,0.032481,0.911978,0.037190,0.190462,0.556683,-1.005273,0.033514,-4.370079,-3.762808,-4.225419,0.003849,-0.094522,0.000000,-0.104043,-0.057682,-0.000000
1.460000,-2.269330,-1.186681,-1.493428,0.803805,1.084611,0.034387,0.917324,0.026948,0.190586,0.512211,-1.043140,-0.008762,-4.523062,-3.794524,-4.212539,0.002789,-0.095074,0.000000,-0.107967,-0.052682,0.000000
1.470000,-2.261246,-1.175834,-1.493074,0.813003,1.084827,0.036291,0.922217,0.016327,0.190288,0.466237,-1.081187,-0.050770,-4.671047,-3.812554,-4.186940,0.001689,-0.095575,0.000000,-0.111896,-0.047524,0.000000
1.480000,-2.253070,-1.164985,-1.492702,0.822248,1.084936,0.038191,0.926644,0.005324,0.189571,0.418808,-1.119346,-0.092461,-4.813801,-3.816922,-4.149256,0.000551,-0.096024,0.000000,-0.115822,-0.042216,-0.000000
1.490000,-2.244801,-1.154136,-1.492311,0.831534,1.084932,0.040081,0.930589,-0.006060,0.188440,0.369979,-1.157480,-0.133717,-4.951088,-3.807655,-4.100121,-0.000627,-0.096419,0.000000,-0.119731,-0.036765,-0.000000
1.500000,-2.236439,-1.143287,-1.491900,0.840858,1.084813,0.041958,0.934039,-0.017825,0.186899,0.319805,-1.195453,-0.174427,-5.082672,-3.784779,-4.040166,-0.001844,-0.096759,0.000000,-0.123607,-0.031180,-0.000000
1.510000,-2.227983,-1.132440,-1.491471,0.850213,1.084575,0.043818,0.936980,-0.029969,0.184953,0.268340,-1.233194,-0.214509,-5.208174,-3.746717,-3.969449,-0.003099,-0.097042,0.000000,-0.127443,-0.025468,-0.000000
1.520000,-2.219434,-1.121596,-1.491024,0.859596,1.084213,0.045656,0.939401,-0.042487,0.182611,0.215656,-1.270415,-0.253810,-5.327521,-3.695296,-3.889251,-0.004392,-0.097268,0.000000,-0.131208,-0.019641,-0.000000
1.530000,-2.210791,-1.110756,-1.490558,0.869000,1.083724,0.047469,0.941290,-0.055375,0.179880,0.161810,-1.307056,-0.292265,-5.440494,-3.630737,-3.800276,-0.005723,-0.097435,0.000000,-0.134896,-0.013705,-0.000000
1.540000,-2.202054,-1.099922,-1.490075,0.878420,1.083104,0.049252,0.942634,-0.068626,0.176769,0.106868,-1.342987,-0.329789,-5.546875,-3.553263,-3.703228,-0.007090,-0.097542,0.000000,-0.138494,-0.007670,-0.000000
1.550000,-2.193223,-1.089095,-1.489574,0.887851,1.082350,0.051003,0.943424,-0.082232,0.173288,0.050896,-1.378079,-0.366305,-5.646448,-3.463098,-3.598811,-0.008492,-0.097588,0.000000,-0.141988,-0.001545,0.000000
1.560000,-2.184297,-1.078275,-1.489055,0.897286,1.081458,0.052717,0.943649,-0.096185,0.169447,-0.006046,-1.412265,-0.401727,-5.738775,-3.359000,-3.488137,-0.009929,-0.097572,0.000000,-0.145372,0.004661,-0.000000
1.570000,-2.175277,-1.067466,-1.488519,0.906722,1.080425,0.054391,0.943300,-0.110474,0.165257,-0.063866,-1.445284,-0.436030,-5.823884,-3.242835,-3.371453,-0.011399,-0.097494,0.000000,-0.148618,0.010938,-0.000000
1.580000,-2.166163,-1.056667,-1.487967,0.916150,1.079248,0.056021,0.942369,-0.125087,0.160730,-0.122499,-1.477083,-0.469138,-5.901584,-3.115004,-3.249412,-0.012901,-0.097353,0.000000,-0.151722,0.017277,-0.000000
1.590000,-2.156954,-1.045881,-1.487399,0.925567,1.077922,0.057604,0.940847,-0.140011,0.155878,-0.181872,-1.507546,-0.501002,-5.971684,-2.975909,-3.122669,-0.014433,-0.097149,0.000000,-0.154671,0.023669,-0.000000
1.600000,-2.147652,-1.035109,-1.486815,0.934965,1.076446,0.059138,0.938729,-0.155233,0.150714,-0.241907,-1.536565,-0.531578,-6.033992,-2.825953,-2.991877,-0.015994,-0.096880,0.000000,-0.157457,0.030104,-0.000000
1.610000,-2.138255,-1.024353,-1.486216,0.944340,1.074817,0.060618,0.936007,-0.170738,0.145252,-0.302536,-1.564077,-0.560783,-6.088035,-2.664374,-2.858843,-0.017582,-0.096546,0.000000,-0.160072,0.036574,0.000000
1.620000,-2.128765,-1.013614,-1.485603,0.953684,1.073031,0.062042,0.932677,-0.186509,0.139503,-0.363653,-1.589871,-0.588694,-6.133938,-2.492879,-2.722928,-0.019195,-0.096148,0.000000,-0.162496,0.043067,0.000000
1.630000,-2.119182,-1.002893,-1.484976,0.962991,1.071086,0.063407,0.928733,-0.202529,0.133482,-0.425188,-1.613903,-0.615233,-6.171547,-2.312012,-2.584644,-0.020831,-0.095685,0.000000,-0.164726,0.049575,0.000000
1.640000,-2.109505,-0.992192,-1.484335,0.972256,1.068979,0.064710,0.924172,-0.218781,0.127203,-0.487056,-1.636082,-0.640380,-6.200704,-2.122319,-2.444504,-0.022489,-0.095156,0.000000,-0.166752,0.056088,-0.000000
1.650000,-2.099737,-0.981514,-1.483682,0.981472,1.066710,0.065950,0.918991,-0.235244,0.120679,-0.549173,-1.656322,-0.664119,-6.221254,-1.924342,-2.303020,-0.024166,-0.094563,0.000000,-0.168568,0.062597,0.000000
1.660000,-2.089876,-0.970859,-1.483016,0.990634,1.064274,0.067123,0.913188,-0.251901,0.113926,-0.611464,-1.674573,-0.686375,-6.232725,-1.717859,-2.162294,-0.025859,-0.093904,0.000000,-0.170169,0.069094,-0.000000
1.670000,-2.079924,-0.960229,-1.482340,0.999734,1.061671,0.068228,0.906761,-0.268729,0.106957,-0.673812,-1.690690,-0.707292,-6.235314,-1.504276,-2.021055,-0.027568,-0.093181,0.000000,-0.171542,0.075566,-0.000000
1.680000,-2.069882,-0.949626,-1.481652,1.008767,1.058899,0.069262,0.899711,-0.285707,0.099785,-0.736141,-1.704637,-0.726796,-6.228904,-1.284231,-1.879622,-0.029290,-0.092392,0.000000,-0.172684,0.082007,0.000000
1.690000,-2.059749,-0.939052,-1.480955,1.017726,1.055956,0.070223,0.892039,-0.302814,0.092425,-0.798360,-1.716355,-0.744885,-6.213377,-1.058363,-1.738314,-0.031021,-0.091540,0.000000,-0.173590,0.088405,0.000000
1.700000,-2.049527,-0.928507,-1.480248,1.026606,1.052842,0.071110,0.883745,-0.320027,0.084892,-0.860377,-1.725787,-0.761563,-6.188615,-0.827309,-1.597449,-0.032761,-0.090624,0.000000,-0.174257,0.094752,-0.000000
1.710000,-2.039217,-0.917995,-1.479533,1.035399,1.049556,0.071920,0.874832,-0.337322,0.077200,-0.922116,-1.732900,-0.776770,-6.154116,-0.591356,-1.459032,-0.034505,-0.089644,0.000000,-0.174683,0.101040,-0.000000
1.720000,-2.028820,-0.907517,-1.478810,1.044100,1.046096,0.072653,0.865304,-0.354677,0.069361,-0.983445,-1.737617,-0.790672,-6.110194,-0.351538,-1.321488,-0.036253,-0.088602,0.000000,-0.174860,0.107257,0.000000
1.730000,-2.018335,-0.897074,-1.478080,1.052703,1.042462,0.073307,0.855165,-0.372067,0.061391,-1.044288,-1.739920,-0.803203,-6.056779,-0.108536,-1.184930,-0.038002,-0.087498,0.000000,-0.174789,0.113394,0.000000
1.740000,-2.007766,-0.886668,-1.477344,1.061202,1.038654,0.073880,0.844420,-0.389467,0.053302,-1.104549,-1.739780,-0.814374,-5.993800,0.136969,-1.049468,-0.039748,-0.086333,0.000000,-0.174468,0.119443,-0.000000
1.750000,-1.997112,-0.876301,-1.476603,1.069590,1.034673,0.074373,0.833076,-0.406854,0.045108,-1.164132,-1.737174,-0.824196,-5.921187,0.384296,-0.915216,-0.041490,-0.085107,0.000000,-0.173897,0.125395,-0.000000
1.760000,-1.986374,-0.865975,-1.475857,1.077861,1.030517,0.074782,0.821140,-0.424202,0.036823,-1.222959,-1.732089,-0.832625,-5.838415,0.632737,-0.783747,-0.043225,-0.083823,0.000000,-0.173075,0.131242,0.000000
1.770000,-1.975555,-0.855692,-1.475107,1.086010,1.026189,0.075109,0.808620,-0.441488,0.028460,-1.280888,-1.724517,-0.839810,-5.745924,0.881639,-0.653532,-0.044951,-0.082480,0.000000,-0.172004,0.136972,0.000000
1.780000,-1.964655,-0.845452,-1.474355,1.094032,1.021688,0.075351,0.795525,-0.458684,0.020031,-1.337845,-1.714457,-0.845699,-5.643699,1.130325,-0.524503,-0.046665,-0.081081,0.000000,-0.170684,0.142576,0.000000
1.790000,-1.953675,-0.835258,-1.473600,1.101919,1.017015,0.075509,0.781866,-0.475768,0.011550,-1.393730,-1.701914,-0.850304,-5.531725,1.378117,-0.396592,-0.048364,-0.079626,0.000000,-0.169118,0.148047,-0.000000
1.800000,-1.942617,-0.825112,-1.472845,1.109667,1.012173,0.075582,0.767655,-0.492715,0.003029,-1.448447,-1.686900,-0.853635,-5.409988,1.624336,-0.269734,-0.050046,-0.078117,0.000000,-0.167308,0.153376,-0.000000
1.810000,-1.931482,-0.815016,-1.472089,1.117270,1.007162,0.075570,0.752901,-0.509498,-0.005518,-1.501916,-1.669421,-0.855664,-5.277995,1.867971,-0.144820,-0.051709,-0.076555,0.000000,-0.165257,0.158555,0.000000
1.820000,-1.920272,-0.804970,-1.471334,1.124723,1.001984,0.075472,0.737621,-0.526095,-0.014080,-1.553995,-1.649535,-0.856491,-5.136267,2.108717,-0.020705,-0.053351,-0.074942,0.000000,-0.162972,0.163572,0.000000
1.830000,-1.908988,-0.794976,-1.470580,1.132021,0.996641,0.075288,0.721826,-0.542481,-0.022644,-1.604609,-1.627259,-0.856080,-4.984850,2.345938,0.102794,-0.054968,-0.073280,0.000000,-0.160456,0.168420,0.000000
1.840000,-1.897632,-0.785037,-1.469828,1.139158,0.991135,0.075019,0.705534,-0.558632,-0.031197,-1.653660,-1.602630,-0.854436,-4.823786,2.578995,0.225864,-0.056559,-0.071569,0.000000,-0.157715,0.173091,-0.000000
1.850000,-1.886205,-0.775154,-1.469080,1.146130,0.985469,0.074664,0.688759,-0.574526,-0.039728,-1.701053,-1.575695,-0.851564,-4.653119,2.807252,0.348688,-0.058121,-0.069813,0.000000,-0.154753,0.177576,-0.000000
1.860000,-1.874710,-0.765329,-1.468335,1.152932,0.979645,0.074224,0.671518,-0.590138,-0.048225,-1.746711,-1.546481,-0.847453,-4.472370,3.029517,0.471202,-0.059653,-0.068013,0.000000,-0.151576,0.181869,0.000000
1.870000,-1.863147,-0.755562,-1.467596,1.159559,0.973667,0.073700,0.653831,-0.605448,-0.056673,-1.790492,-1.515100,-0.842128,-4.282171,3.245774,0.593870,-0.061152,-0.066170,0.000000,-0.148196,0.185958,-0.000000
1.880000,-1.851519,-0.745856,-1.466862,1.166007,0.967537,0.073091,0.635715,-0.620433,-0.065063,-1.832324,-1.481588,-0.835574,-4.082629,3.455454,0.716909,-0.062617,-0.064287,0.000000,-0.144617,0.189837,-0.000000
1.890000,-1.839828,-0.736212,-1.466134,1.172272,0.961259,0.072399,0.617191,-0.635073,-0.073381,-1.872114,-1.446014,-0.827788,-3.873853,3.657987,0.840535,-0.064044,-0.062366,0.000000,-0.140849,0.193497,0.000000
1.900000,-1.828075,-0.726631,-1.465414,1.178350,0.954837,0.071624,0.598280,-0.649347,-0.081615,-1.909770,-1.408454,-0.818761,-3.655950,3.852803,0.964962,-0.065433,-0.060410,0.000000,-0.136899,0.196932,-0.000000
1.910000,-1.816261,-0.717115,-1.464702,1.184236,0.948274,0.070767,0.579002,-0.663234,-0.089752,-1.945346,-1.368791,-0.808509,-3.425419,4.034407,1.091006,-0.066781,-0.058420,0.000000,-0.132758,0.200148,0.000000
1.920000,-1.804390,-0.707666,-1.463999,1.189929,0.941574,0.069829,0.559381,-0.676717,-0.097781,-1.978412,-1.327573,-0.796964,-3.186421,4.207757,1.218209,-0.068088,-0.056399,0.000000,-0.128481,0.203103,0.000000
1.930000,-1.792464,-0.698284,-1.463306,1.195423,0.934741,0.068812,0.539441,-0.689779,-0.105687,-2.009048,-1.284663,-0.784140,-2.939503,4.372889,1.346713,-0.069350,-0.054349,0.000000,-0.124055,0.205809,0.000000
1.940000,-1.780483,-0.688972,-1.462623,1.200716,0.927780,0.067716,0.519208,-0.702405,-0.113459,-2.037177,-1.240143,-0.770025,-2.685218,4.529836,1.476661,-0.070568,-0.052274,0.000000,-0.119490,0.208258,0.000000
1.950000,-1.768450,-0.679729,-1.461952,1.205806,0.920694,0.066543,0.498706,-0.714577,-0.121083,-2.062729,-1.194094,-0.754602,-2.424115,4.678631,1.608193,-0.071740,-0.050175,0.000000,-0.114795,0.210445,-0.000000
1.960000,-1.756367,-0.670558,-1.461292,1.210690,0.913490,0.065295,0.477968,-0.726289,-0.128547,-2.085131,-1.147265,-0.737903,-2.169563,4.836189,1.742659,-0.072864,-0.048055,0.000000,-0.110044,0.212316,0.000000
1.970000,-1.744237,-0.661460,-1.460646,1.215365,0.906170,0.063973,0.457012,-0.737517,-0.135837,-2.105524,-1.098157,-0.719797,-1.907722,4.983595,1.878846,-0.073940,-0.045918,0.000000,-0.105090,0.213985,0.000000
1.980000,-1.732061,-0.652435,-1.460013,1.219829,0.898741,0.062579,0.435866,-0.748247,-0.142939,-2.123258,-1.047634,-0.700320,-1.637575,5.118817,2.016748,-0.074966,-0.043765,0.000000,-0.100019,0.215390,-0.000000
1.990000,-1.719841,-0.643485,-1.459395,1.224081,0.891207,0.061115,0.414556,-0.758466,-0.149839,-2.138244,-0.995828,-0.679456,-1.358101,5.239822,2.156361,-0.075940,-0.041599,0.000000,-0.094846,0.216524,0.000000
2.000000,-1.707580,-0.634611,-1.458791,1.228120,0.883573,0.059583,0.393111,-0.768160,-0.156523,-2.150385,-0.942892,-0.657187,-1.068280,5.344576,2.297678,-0.076862,-0.039423,0.000000,-0.089585,0.217379,-0.000000
2.010000,-1.695279,-0.625814,-1.458203,1.231944,0.875845,0.057985,0.371549,-0.777307,-0.162979,-2.160486,-0.887750,-0.633589,-0.744002,5.399535,2.443012,-0.077730,-0.037238,0.000000,-0.084130,0.218037,-0.000000
2.020000,-1.682942,-0.617095,-1.457631,1.235551,0.868029,0.056324,0.349912,-0.785914,-0.169190,-2.166264,-0.833549,-0.608426,-0.410167,5.438035,2.589754,-0.078545,-0.035050,0.000000,-0.078795,0.218272,0.000000
2.030000,-1.670569,-0.608454,-1.457077,1.238942,0.860129,0.054602,0.328235,-0.793977,-0.175142,-2.168664,-0.779038,-0.581790,-0.068580,5.461902,2.737617,-0.079306,-0.032860,0.000000,-0.073455,0.218180,-0.000000
2.040000,-1.658163,-0.599892,-1.456540,1.242116,0.852151,0.052822,0.306550,-0.801494,-0.180821,-2.167616,-0.724354,-0.553671,0.278949,5.472962,2.886310,-0.080014,-0.030674,0.000000,-0.068124,0.217757,-0.000000
2.050000,-1.645727,-0.591411,-1.456021,1.245073,0.844101,0.050987,0.284894,-0.808464,-0.186211,-2.163071,-0.669615,-0.524062,0.630613,5.473039,3.035544,-0.080669,-0.028492,0.000000,-0.062812,0.216998,0.000000
2.060000,-1.633263,-0.583011,-1.455520,1.247814,0.835984,0.049099,0.263306,-0.814892,-0.191298,-2.154543,-0.615495,-0.493046,0.973151,5.478398,3.187238,-0.081271,-0.026321,0.000000,-0.057587,0.215859,-0.000000
2.070000,-1.620772,-0.574692,-1.455039,1.250339,0.827805,0.047162,0.241815,-0.820774,-0.196067,-2.143090,-0.560722,-0.460417,1.317611,5.474657,3.338623,-0.081821,-0.024162,0.000000,-0.052323,0.214446,0.000000
2.080000,-1.608257,-0.566455,-1.454577,1.252650,0.819570,0.045179,0.220455,-0.826107,-0.200501,-2.128185,-0.506032,-0.426277,1.663587,5.461875,3.489140,-0.082318,-0.022019,0.000000,-0.047092,0.212707,-0.000000
2.090000,-1.595720,-0.558300,-1.454135,1.254749,0.811285,0.043153,0.199262,-0.830895,-0.204587,-2.109815,-0.451515,-0.390639,2.010675,5.440107,3.638229,-0.082763,-0.019895,0.000000,-0.041902,0.210643,-0.000000
2.100000,-1.583162,-0.550229,-1.453714,1.256636,0.802954,0.041088,0.178271,-0.835138,-0.208309,-2.087970,-0.397260,-0.353519,2.358469,5.409413,3.785329,-0.083156,-0.017793,0.000000,-0.036761,0.208255,0.000000
2.110000,-1.570587,-0.542241,-1.453314,1.258315,0.794584,0.038988,0.157520,-0.838847,-0.211654,-2.062190,-0.343934,-0.315024,2.695096,5.384433,3.932002,-0.083499,-0.015717,0.000000,-0.031733,0.205498,-0.000000
2.120000,-1.557997,-0.534338,-1.452934,1.259787,0.786179,0.036856,0.137038,-0.842018,-0.214605,-2.033551,-0.290258,-0.274985,3.033022,5.348854,4.075308,-0.083791,-0.013669,0.000000,-0.026693,0.202480,0.000000
2.130000,-1.545392,-0.526518,-1.452577,1.261057,0.777745,0.034697,0.116860,-0.844654,-0.217149,-2.001522,-0.236998,-0.233532,3.373247,5.300950,4.214427,-0.084033,-0.011654,0.000000,-0.021714,0.199149,0.000000
2.140000,-1.532776,-0.518783,-1.452241,1.262126,0.769288,0.032515,0.097019,-0.846760,-0.219271,-1.966075,-0.184285,-0.190713,3.716770,5.238991,4.348540,-0.084225,-0.009673,0.000000,-0.016809,0.195504,0.000000
2.150000,-1.520151,-0.511132,-1.451926,1.262998,0.760812,0.030313,0.077550,-0.848342,-0.220958,-1.927173,-0.132270,-0.146581,4.064590,5.161249,4.476827,-0.084369,-0.007731,0.000000,-0.011990,0.191540,0.000000
2.160000,-1.507517,-0.503567,-1.451634,1.263678,0.752322,0.028097,0.058477,-0.849394,-0.222199,-1.885683,-0.079863,-0.101275,4.440863,5.034270,4.600407,-0.084464,-0.005829,0.000000,-0.007147,0.187345,-0.000000
2.170000,-1.494878,-0.496086,-1.451365,1.264169,0.743825,0.025871,0.039849,-0.849944,-0.222980,-1.839378,-0.030220,-0.054685,4.820595,4.891936,4.716285,-0.084513,-0.003972,0.000000,-0.002593,0.182697,0.000000
2.180000,-1.482234,-0.488690,-1.451117,1.264477,0.735325,0.023639,0.021702,-0.850004,-0.223289,-1.789265,0.017932,-0.006979,5.201950,4.736405,4.823404,-0.084516,-0.002163,0.000000,0.001801,0.177697,-0.000000
2.190000,-1.469589,-0.481379,-1.450892,1.264605,0.726827,0.021407,0.004076,-0.849590,-0.223116,-1.735339,0.064472,0.041750,5.583090,4.569833,4.920708,-0.084477,-0.000406,0.000000,0.006024,0.172343,-0.000000
2.200000,-1.456943,-0.474153,-1.450689,1.264560,0.718335,0.019178,-0.012992,-0.848720,-0.222451,-1.677610,0.109299,0.091399,5.962180,4.394377,5.007139,-0.084396,0.001295,0.000000,0.010070,0.166635,-0.000000
2.210000,-1.444298,-0.467013,-1.450508,1.264347,0.709854,0.016959,-0.029458,-0.847417,-0.221285,-1.615624,0.151714,0.141848,6.325137,4.227917,5.081775,-0.084277,0.002937,0.000000,0.013870,0.160527,-0.000000
2.220000,-1.431656,-0.459956,-1.450350,1.263973,0.701388,0.014754,-0.045292,-0.845692,-0.219612,-1.550575,0.193134,0.192985,6.683870,4.054961,5.143410,-0.084120,0.004516,0.000000,0.017568,0.154137,-0.000000
2.230000,-1.419019,-0.452985,-1.450213,1.263444,0.692941,0.012569,-0.060458,-0.843560,-0.217424,-1.481962,0.232792,0.244670,7.038040,3.875739,5.190969,-0.083926,0.006029,0.000000,0.021088,0.147412,0.000000
2.240000,-1.406388,-0.446097,-1.450098,1.262766,0.684518,0.010408,-0.074920,-0.841042,-0.214717,-1.409831,0.270628,0.296754,7.387311,3.690482,5.223381,-0.083698,0.007473,0.000000,0.024428,0.140356,-0.000000
2.250000,-1.393764,-0.439294,-1.450005,1.261948,0.676122,0.008276,-0.088643,-0.838154,-0.211488,-1.334233,0.306583,0.349083,7.731345,3.499422,5.239572,-0.083438,0.008845,0.000000,0.027584,0.132971,0.000000
2.260000,-1.381149,-0.432575,-1.449932,1.260996,0.667756,0.006180,-0.101595,-0.834914,-0.207734,-1.255391,0.340787,0.401556,8.074054,3.298027,5.236761,-0.083147,0.010141,0.000000,0.030570,0.125276,-0.000000
2.270000,-1.368545,-0.425939,-1.449881,1.259919,0.659425,0.004123,-0.113739,-0.831345,-0.203457,-1.172963,0.372740,0.453834,8.410331,3.091874,5.215793,-0.082828,0.011358,0.000000,0.033340,0.117235,-0.000000
2.280000,-1.355951,-0.419386,-1.449850,1.258724,0.651130,0.002112,-0.125043,-0.827467,-0.198659,-1.087208,0.402611,0.505808,8.739319,2.881777,5.175803,-0.082481,0.012493,0.000000,0.035913,0.108870,0.000000
2.290000,-1.343371,-0.412916,-1.449839,1.257421,0.642876,0.000152,-0.135473,-0.823300,-0.193343,-0.998204,0.430365,0.557284,9.060161,2.668551,5.115928,-0.082110,0.013542,0.000000,0.038286,0.100184,-0.000000
2.300000,-1.330803,-0.406529,-1.449847,1.256018,0.634665,-0.001753,-0.144996,-0.818866,-0.187515,-0.906035,0.455975,0.608058,9.371999,2.453010,5.035304,-0.081716,0.014502,0.000000,0.040460,0.091184,0.000000
2.310000,-1.318251,-0.400223,-1.449873,1.254524,0.626500,-0.003597,-0.153584,-0.814186,-0.181183,-0.810899,0.479598,0.658076,9.676552,2.231469,4.929076,-0.081301,0.015371,0.000000,0.042451,0.081883,0.000000
2.320000,-1.305713,-0.393998,-1.449918,1.252949,0.618382,-0.005375,-0.161204,-0.809282,-0.174358,-0.712656,0.500804,0.706744,9.970070,2.009792,4.800859,-0.080868,0.016144,0.000000,0.044220,0.072264,-0.000000
2.330000,-1.293192,-0.387855,-1.449981,1.251303,0.610315,-0.007083,-0.167828,-0.804177,-0.167053,-0.611538,0.519798,0.754019,10.251381,1.789345,4.650280,-0.080417,0.016820,0.000000,0.045789,0.062346,0.000000
2.340000,-1.280687,-0.381792,-1.450060,1.249596,0.602299,-0.008715,-0.173426,-0.798893,-0.159283,-0.507673,0.536600,0.799674,10.519311,1.571493,4.476962,-0.079953,0.017394,0.000000,0.047160,0.052136,-0.000000
2.350000,-1.268200,-0.375809,-1.450155,1.247838,0.594337,-0.010267,-0.177973,-0.793452,-0.151065,-0.401200,0.551241,0.843481,10.772687,1.357600,4.280531,-0.079475,0.017865,0.000000,0.048340,0.041645,0.000000
2.360000,-1.255731,-0.369905,-1.450265,1.246040,0.586431,-0.011735,-0.181441,-0.787879,-0.142418,-0.292205,0.563475,0.885444,11.008668,1.156471,4.054592,-0.078987,0.018229,0.000000,0.049301,0.030875,-0.000000
2.370000,-1.243279,-0.364080,-1.450389,1.244213,0.578580,-0.013114,-0.183809,-0.782189,-0.133364,-0.181008,0.574058,0.924764,11.227953,0.961121,3.805526,-0.078489,0.018483,0.000000,0.050127,0.019855,0.000000
2.380000,-1.230846,-0.358333,-1.450527,1.242368,0.570787,-0.014401,-0.185054,-0.776404,-0.123931,-0.067705,0.582718,0.961479,11.429574,0.772005,3.533695,-0.077985,0.018626,0.000000,0.050788,0.008589,-0.000000
2.390000,-1.218432,-0.352664,-1.450677,1.240516,0.563052,-0.015591,-0.185157,-0.770541,-0.114144,0.047521,0.589520,0.995363,11.612562,0.589578,3.239462,-0.077474,0.018655,0.000000,0.051293,-0.002907,-0.000000
2.400000,-1.206036,-0.347072,-1.450838,1.238668,0.555377,-0.016682,-0.184098,-0.764619,-0.104034,0.164481,0.594534,1.026195,11.775948,0.414294,2.923188,-0.076959,0.018567,0.000000,0.051649,-0.014620,0.000000
2.410000,-1.193659,-0.341556,-1.451010,1.236838,0.547760,-0.017671,-0.181862,-0.758655,-0.093628,0.282938,0.597921,1.054029,11.919617,0.244348,2.578310,-0.076442,0.018361,0.000000,0.051871,-0.026528,-0.000000
2.420000,-1.181299,-0.336117,-1.451191,1.235035,0.540203,-0.018554,-0.178435,-0.752667,-0.082965,0.402763,0.599549,1.078002,12.041641,0.082730,2.212964,-0.075922,0.018035,0.000000,0.051951,-0.038622,0.000000
2.430000,-1.168958,-0.330752,-1.451381,1.233273,0.532707,-0.019330,-0.173803,-0.746670,-0.072081,0.523695,0.599606,1.098224,12.140949,-0.069828,1.828358,-0.075403,0.017586,0.000000,0.051907,-0.050879,-0.000000
2.440000,-1.156634,-0.325462,-1.451578,1.231563,0.525270,-0.019995,-0.167958,-0.740679,-0.061014,0.645502,0.598185,1.114509,12.216465,-0.212596,1.425703,-0.074885,0.017014,0.000000,0.051748,-0.063276,0.000000
2.450000,-1.144326,-0.320247,-1.451780,1.229918,0.517893,-0.020549,-0.160891,-0.734710,-0.049804,0.767941,0.595389,1.126682,12.267118,-0.344843,1.006208,-0.074368,0.016316,0.000000,0.051485,-0.075791,-0.000000
2.460000,-1.132035,-0.315104,-1.451988,1.228349,0.510576,-0.020991,-0.152598,-0.728775,-0.038491,0.890723,0.591447,1.134847,12.292717,-0.468893,0.564356,-0.073855,0.015493,0.000000,0.051140,-0.088394,0.000000
2.470000,-1.119759,-0.310035,-1.452200,1.226870,0.503317,-0.021319,-0.143076,-0.722885,-0.027122,1.013666,0.586189,1.138224,12.291197,-0.580587,0.108908,-0.073346,0.014544,0.000000,0.050699,-0.101068,0.000000
2.480000,-1.107497,-0.305038,-1.452414,1.225492,0.496118,-0.021533,-0.132326,-0.717054,-0.015742,1.136453,0.579880,1.136987,12.261377,-0.678818,-0.358103,-0.072841,0.013466,0.000000,0.050188,-0.113779,-0.000000
2.490000,-1.095249,-0.300112,-1.452630,1.224228,0.488976,-0.021634,-0.120349,-0.711291,-0.004398,1.258795,0.572661,1.131030,12.202075,-0.762481,-0.834642,-0.072342,0.012262,0.000000,0.049620,-0.126496,0.000000
2.500000,-1.083012,-0.295258,-1.452846,1.223089,0.481892,-0.021622,-0.107152,-0.705604,0.006862,1.380392,0.564683,1.120269,12.112110,-0.830470,-1.318676,-0.071849,0.010930,0.000000,0.049010,-0.139185,-0.000000
2.510000,-1.070787,-0.290474,-1.453062,1.222088,0.474864,-0.021497,-0.092743,-0.700003,0.017993,1.501104,0.555717,1.104857,11.985928,-0.871829,-1.813688,-0.071363,0.009471,0.000000,0.048334,-0.151829,-0.000000
2.520000,-1.058570,-0.285761,-1.453276,1.221238,0.467892,-0.021262,-0.077135,-0.694490,0.028943,1.620198,0.546862,1.084233,11.827255,-0.896511,-2.311452,-0.070882,0.007886,0.000000,0.047705,-0.164348,-0.000000
2.530000,-1.046361,-0.281116,-1.453487,1.220550,0.460974,-0.020919,-0.060345,-0.689067,0.039661,1.737539,0.537842,1.058628,11.635445,-0.904617,-2.809259,-0.070408,0.006176,0.000000,0.047095,-0.176723,0.000000
2.540000,-1.034159,-0.276541,-1.453694,1.220035,0.454110,-0.020470,-0.042391,-0.683733,0.050099,1.852794,0.528824,1.028056,11.409852,-0.896247,-3.304400,-0.069940,0.004343,0.000000,0.046518,-0.188913,0.000000
2.550000,-1.021960,-0.272034,-1.453896,1.219706,0.447299,-0.019918,-0.023297,-0.678490,0.060206,1.965621,0.519972,0.992558,11.149830,-0.871505,-3.794166,-0.069478,0.002389,0.000000,0.045991,-0.200876,0.000000
2.560000,-1.009764,-0.267595,-1.454092,1.219573,0.440540,-0.019267,-0.003086,-0.673335,0.069935,2.075805,0.511262,0.952287,10.851423,-0.825784,-4.278053,-0.069021,0.000317,0.000000,0.045510,-0.212582,0.000000
2.570000,-0.997568,-0.263223,-1.454281,1.219648,0.433832,-0.018521,0.018209,-0.668263,0.079236,2.182680,0.503298,0.907132,10.517699,-0.764468,-4.750877,-0.068567,-0.001871,0.000000,0.045136,-0.223953,0.000000
2.580000,-0.985370,-0.258918,-1.454462,1.219940,0.427174,-0.017684,0.040555,-0.663267,0.088062,2.286040,0.496023,0.857316,10.148419,-0.688235,-5.209658,-0.068118,-0.004172,0.000000,0.044863,-0.234960,-0.000000
2.590000,-0.973168,-0.254679,-1.454635,1.220462,0.420566,-0.016762,0.063917,-0.658339,0.096367,2.385529,0.489581,0.802996,9.743341,-0.597762,-5.651418,-0.067670,-0.006580,0.000000,0.044702,-0.245556,0.000000
2.600000,-0.960960,-0.250506,-1.454797,1.221222,0.414007,-0.015759,0.088252,-0.653472,0.104107,2.480787,0.484113,0.744355,9.302226,-0.493725,-6.073176,-0.067223,-0.009092,0.000000,0.044667,-0.255693,-0.000000
2.610000,-0.948743,-0.246399,-1.454949,1.222230,0.407497,-0.014681,0.113522,-0.648652,0.111239,2.571881,0.479862,0.681510,8.814017,-0.379634,-6.469462,-0.066776,-0.011704,0.000000,0.044782,-0.265369,0.000000
2.620000,-0.936515,-0.242356,-1.455091,1.223495,0.401034,-0.013536,0.139673,-0.643871,0.117725,2.657433,0.476688,0.614940,8.290613,-0.252988,-6.840093,-0.066327,-0.014410,0.000000,0.045027,-0.274433,0.000000
2.630000,-0.924272,-0.238378,-1.455220,1.225026,0.394619,-0.012329,0.166652,-0.639114,0.123526,2.737579,0.474843,0.544803,7.733097,-0.114118,-7.182397,-0.065875,-0.017203,0.000000,0.045428,-0.282888,-0.000000
2.640000,-0.912013,-0.234464,-1.455337,1.226831,0.388252,-0.011068,0.194405,-0.634369,0.128610,2.811984,0.474445,0.471395,7.142552,0.036645,-7.493699,-0.065418,-0.020078,0.000000,0.045992,-0.290690,0.000000
2.650000,-0.899735,-0.230613,-1.455441,1.228917,0.381932,-0.009760,0.222872,-0.629620,0.132944,2.880324,0.475614,0.395041,6.520062,0.198970,-7.771324,-0.064954,-0.023027,0.000000,0.046730,-0.297797,0.000000
2.660000,-0.887434,-0.226825,-1.455532,1.231290,0.375660,-0.008412,0.251994,-0.624854,0.136498,2.942622,0.478209,0.315748,5.858152,0.378916,-8.003956,-0.064483,-0.026044,0.000000,0.047625,-0.304204,-0.000000
2.670000,-0.875108,-0.223100,-1.455609,1.233958,0.369435,-0.007032,0.281702,-0.620050,0.139252,2.997773,0.482941,0.234702,5.167512,0.568980,-8.198622,-0.064001,-0.029121,0.000000,0.048741,-0.309792,-0.000000
2.680000,-0.862754,-0.219436,-1.455673,1.236926,0.363259,-0.005629,0.311926,-0.615188,0.141187,3.045883,0.489619,0.151907,4.450274,0.768049,-8.353708,-0.063507,-0.032250,0.000000,0.050058,-0.314565,-0.000000
2.690000,-0.850368,-0.215834,-1.455722,1.240198,0.357132,-0.004211,0.342595,-0.610250,0.142286,3.086697,0.498328,0.067766,3.708568,0.975008,-8.467597,-0.062999,-0.035422,0.000000,0.051579,-0.318493,-0.000000
2.700000,-0.837949,-0.212293,-1.455757,1.243779,0.351054,-0.002786,0.373635,-0.605215,0.142539,3.119980,0.509142,-0.017302,2.944526,1.188746,-8.538674,-0.062475,-0.038629,0.000000,0.053308,-0.321551,0.000000
2.710000,-0.825492,-0.208813,-1.455778,1.247672,0.345028,-0.001363,0.404971,-0.600062,0.141933,3.145754,0.521944,-0.103360,2.154382,1.412634,-8.552682,-0.061933,-0.041863,0.000000,0.055232,-0.323737,0.000000
2.720000,-0.812994,-0.205393,-1.455784,1.251879,0.339053,0.000050,0.436523,-0.594768,0.140472,3.163273,0.537207,-0.188772,1.346888,1.640524,-8.522195,-0.061370,-0.045114,0.000000,0.057386,-0.324981,-0.000000
2.730000,-0.800453,-0.202032,-1.455777,1.256403,0.333133,0.001443,0.468210,-0.589311,0.138159,3.172643,0.554763,-0.273656,0.524897,1.870753,-8.447146,-0.060784,-0.048372,0.000000,0.059752,-0.325294,0.000000
2.740000,-0.787865,-0.198730,-1.455755,1.261244,0.327268,0.002810,0.499949,-0.583665,0.135002,3.173732,0.574625,-0.357566,-0.308737,2.101658,-8.327466,-0.060174,-0.051628,0.000000,0.062327,-0.324667,0.000000
2.750000,-0.775227,-0.195486,-1.455721,1.266402,0.321460,0.004141,0.531656,-0.577810,0.131012,3.166439,0.596792,-0.440056,-1.151160,2.331577,-8.163088,-0.059537,-0.054874,0.000000,0.065104,-0.323098,0.000000
2.760000,-0.762536,-0.192300,-1.455673,1.271876,0.315712,0.005428,0.563250,-0.571719,0.126201,3.150785,0.621522,-0.521193,-2.001926,2.551900,-7.940957,-0.058871,-0.058099,0.000000,0.068110,-0.320593,-0.000000
2.770000,-0.749789,-0.189172,-1.455612,1.277666,0.310027,0.006662,0.594644,-0.565373,0.120597,3.126499,0.648129,-0.599311,-2.855478,2.768762,-7.675584,-0.058174,-0.061294,0.000000,0.071261,-0.317142,-0.000000
2.780000,-0.736982,-0.186100,-1.455540,1.283768,0.304406,0.007837,0.625752,-0.558749,0.114225,3.093676,0.676883,-0.674565,-3.708668,2.981350,-7.368490,-0.057445,-0.064449,0.000000,0.074584,-0.312763,-0.000000
2.790000,-0.724112,-0.183083,-1.455456,1.290180,0.298853,0.008944,0.656489,-0.551828,0.107116,3.052337,0.707739,-0.746547,-4.558348,3.188852,-7.021200,-0.056682,-0.067556,0.000000,0.078072,-0.307470,-0.000000
2.800000,-0.711177,-0.180122,-1.455361,1.296897,0.293370,0.009977,0.686770,-0.544588,0.099306,3.002532,0.740641,-0.814860,-5.401370,3.390456,-6.635235,-0.055883,-0.070606,0.000000,0.081713,-0.301283,0.000000
2.810000,-0.698173,-0.177216,-1.455256,1.303914,0.287962,0.010928,0.716509,-0.537009,0.090828,2.944120,0.775466,-0.879565,-6.228956,3.586849,-6.201074,-0.055047,-0.073588,0.000000,0.085495,-0.294199,-0.000000
2.820000,-0.685098,-0.174363,-1.455143,1.311225,0.282631,0.011792,0.745625,-0.529072,0.081730,2.877742,0.812285,-0.939261,-7.044275,3.775536,-5.732638,-0.054173,-0.076496,0.000000,0.089417,-0.286307,0.000000
2.830000,-0.671948,-0.171563,-1.455021,1.318824,0.277382,0.012561,0.774037,-0.520757,0.072059,2.803283,0.850948,-0.994113,-7.844869,3.955521,-5.232800,-0.053259,-0.079320,0.000000,0.093465,-0.277607,0.000000
2.840000,-0.658720,-0.168815,-1.454892,1.326703,0.272217,0.013231,0.801664,-0.512047,0.061865,2.720902,0.891363,-1.043822,-8.628277,4.125809,-4.704437,-0.052303,-0.082053,0.000000,0.097626,-0.268131,0.000000
2.850000,-0.645413,-0.166118,-1.454757,1.334854,0.267142,0.013797,0.828429,-0.502925,0.051200,2.630783,0.933429,-1.088116,-9.392040,4.285404,-4.150423,-0.051306,-0.084687,0.000000,0.101890,-0.257914,0.000000
2.860000,-0.632022,-0.163472,-1.454616,1.343268,0.262160,0.014254,0.854252,-0.493371,0.040119,2.532886,0.977222,-1.127007,-10.127413,4.428517,-3.567256,-0.050265,-0.087216,0.000000,0.106266,-0.246965,-0.000000
2.870000,-0.618547,-0.160875,-1.454472,1.351936,0.257276,0.014598,0.879063,-0.483375,0.028680,2.428033,1.022173,-1.159682,-10.838993,4.559533,-2.964971,-0.049180,-0.089631,0.000000,0.110693,-0.235388,-0.000000
2.880000,-0.604983,-0.158326,-1.454325,1.360846,0.252494,0.014826,0.902790,-0.472924,0.016945,2.316191,1.068371,-1.186255,-11.525089,4.678043,-2.347222,-0.048051,-0.091927,0.000000,0.115183,-0.223190,-0.000000
2.890000,-0.591329,-0.155824,-1.454176,1.369988,0.247819,0.014936,0.925364,-0.462004,0.004976,2.197622,1.115690,-1.206587,-12.184012,4.783638,-1.717668,-0.046876,-0.094098,0.000000,0.119726,-0.210411,0.000000
2.900000,-0.577582,-0.153369,-1.454026,1.379349,0.243256,0.014925,0.946721,-0.450607,-0.007165,2.072607,1.164000,-1.220581,-12.814073,4.875909,-1.079964,-0.045656,-0.096138,0.000000,0.124310,-0.197090,0.000000
2.910000,-0.563741,-0.150959,-1.453878,1.388918,0.238809,0.014793,0.966793,-0.438720,-0.019415,1.941172,1.213293,-1.228203,-13.406739,4.951157,-0.436974,-0.044390,-0.098042,0.000000,0.128939,-0.183241,0.000000
2.920000,-0.549803,-0.148593,-1.453731,1.398681,0.234483,0.014537,0.985525,-0.426339,-0.031708,1.804271,1.263124,-1.229353,-13.968001,5.012668,0.206756,-0.043077,-0.099805,0.000000,0.133571,-0.168968,0.000000
2.930000,-0.535767,-0.146269,-1.453587,1.408624,0.230284,0.014158,1.002860,-0.413456,-0.043980,1.661919,1.313501,-1.224078,-14.497008,5.060435,0.847474,-0.041718,-0.101423,0.000000,0.138212,-0.154279,0.000000
2.940000,-0.521630,-0.143986,-1.453448,1.418733,0.226216,0.013658,1.018746,-0.400067,-0.056168,1.514442,1.364287,-1.212426,-14.992908,5.094453,1.481425,-0.040313,-0.102892,0.000000,0.142852,-0.139211,-0.000000
2.950000,-0.507392,-0.141744,-1.453315,1.428994,0.222284,0.013036,1.033133,-0.386169,-0.068208,1.362174,1.415344,-1.194484,-15.454851,5.114717,2.104858,-0.038861,-0.104208,0.000000,0.147485,-0.123801,0.000000
2.960000,-0.493050,-0.139540,-1.453188,1.439391,0.218494,0.012294,1.045973,-0.371759,-0.080035,1.205258,1.466638,-1.170191,-15.876875,5.118615,2.709321,-0.037363,-0.105369,0.000000,0.152110,-0.108067,-0.000000
2.970000,-0.478604,-0.137374,-1.453069,1.449908,0.214851,0.011436,1.057225,-0.356836,-0.091592,1.044525,1.517788,-1.140146,-16.263864,5.109066,3.296333,-0.035819,-0.106370,0.000000,0.156698,-0.092086,-0.000000
2.980000,-0.464051,-0.135243,-1.452960,1.460530,0.211359,0.010463,1.066851,-0.341403,-0.102819,0.880099,1.568776,-1.104333,-16.615592,5.086385,3.862718,-0.034229,-0.107211,0.000000,0.161254,-0.075870,-0.000000
2.990000,-0.449393,-0.133146,-1.452860,1.471240,0.208024,0.009381,1.074816,-0.325462,-0.113660,0.712332,1.619473,-1.062971,-16.931832,5.050883,4.405297,-0.032594,-0.107888,0.000000,0.165771,-0.059450,0.000000
3.000000,-0.434626,-0.131082,-1.452772,1.482021,0.204851,0.008192,1.081087,-0.309015,-0.124061,0.541581,1.669752,-1.016317,-17.212358,5.002874,4.920893,-0.030914,-0.108400,0.000000,0.170242,-0.042856,0.000000
3.010000,-0.419752,-0.129048,-1.452697,1.492856,0.201845,0.006901,1.085637,-0.292068,-0.133966,0.368099,1.719556,-0.964297,-17.454278,4.940985,5.397309,-0.029190,-0.108745,0.000000,0.174669,-0.026108,0.000000
3.020000,-0.404769,-0.127044,-1.452635,1.503727,0.199012,0.005514,1.088442,-0.274627,-0.143331,0.192496,1.768608,-0.908075,-17.660360,4.867422,5.841491,-0.027421,-0.108922,0.000000,0.179032,-0.009249,0.000000
3.030000,-0.389677,-0.125068,-1.452587,1.514619,0.196355,0.004036,1.089481,-0.256698,-0.152113,0.015011,1.816868,-0.847582,-17.830702,4.782706,6.251365,-0.025609,-0.108930,0.000000,0.183334,0.007703,-0.000000
3.040000,-0.374477,-0.123117,-1.452554,1.525511,0.193879,0.002474,1.088737,-0.238292,-0.160270,-0.163999,1.864227,-0.783169,-17.965408,4.687357,6.624856,-0.023755,-0.108767,0.000000,0.187570,0.024725,-0.000000
3.050000,-0.359167,-0.121189,-1.452538,1.536387,0.191590,0.000833,1.086197,-0.219417,-0.167765,-0.344179,1.910581,-0.715213,-18.064576,4.581895,6.959892,-0.021858,-0.108435,0.000000,0.191735,0.041792,-0.000000
3.060000,-0.343749,-0.119284,-1.452538,1.547229,0.189492,-0.000879,1.081851,-0.200084,-0.174559,-0.525201,1.955846,-0.643652,-18.127599,4.466499,7.242905,-0.019920,-0.107931,0.000000,0.195827,0.058883,0.000000
3.070000,-0.328223,-0.117399,-1.452555,1.558018,0.187590,-0.002656,1.075692,-0.180304,-0.180629,-0.706645,1.999896,-0.569979,-18.155373,4.342071,7.484723,-0.017942,-0.107257,0.000000,0.199839,0.075980,0.000000
3.080000,-0.312589,-0.115532,-1.452591,1.568737,0.185888,-0.004489,1.067717,-0.160090,-0.185951,-0.888191,2.042659,-0.494097,-18.148086,4.209174,7.684679,-0.015924,-0.106412,0.000000,0.203770,0.093061,-0.000000
3.090000,-0.296848,-0.113680,-1.452645,1.579367,0.184390,-0.006372,1.057929,-0.139456,-0.190505,-1.069490,2.084053,-0.416427,-18.105923,4.068369,7.842108,-0.013867,-0.105396,0.000000,0.207614,0.110106,0.000000
3.100000,-0.281002,-0.111843,-1.452719,1.589889,0.183100,-0.008297,1.046329,-0.118414,-0.194275,-1.250194,2.124002,-0.337398,-18.029073,3.920218,7.956342,-0.011772,-0.104209,0.000000,0.211369,0.127094,-0.000000
3.110000,-0.265051,-0.110018,-1.452811,1.600287,0.182023,-0.010255,1.032928,-0.096981,-0.197245,-1.429954,2.162403,-0.256978,-17.917800,3.766093,8.014880,-0.009640,-0.102854,0.000000,0.215026,0.144001,-0.000000
3.120000,-0.248997,-0.108202,-1.452924,1.610542,0.181162,-0.012239,1.017735,-0.075171,-0.199413,-1.608432,2.199267,-0.176716,-17.772204,3.605646,8.030340,-0.007471,-0.101330,0.000000,0.218590,0.160820,-0.000000
3.130000,-0.232841,-0.106394,-1.453056,1.620636,0.180521,-0.014241,1.000765,-0.053001,-0.200779,-1.785284,2.234496,-0.096512,-17.592463,3.439340,8.003507,-0.005268,-0.099638,0.000000,0.222053,0.177523,-0.000000
3.140000,-0.216585,-0.104591,-1.453209,1.630551,0.180103,-0.016252,0.982036,-0.030487,-0.201345,-1.960168,2.268036,-0.016784,-17.378757,3.267637,7.935163,-0.003031,-0.097779,0.000000,0.225410,0.194091,0.000000
3.150000,-0.200230,-0.102791,-1.453381,1.640271,0.179912,-0.018265,0.961569,-0.007646,-0.201118,-2.132747,2.299833,0.062056,-17.131262,3.091000,7.826090,-0.000760,-0.095756,0.000000,0.228655,0.210500,0.000000
3.160000,-0.183780,-0.100992,-1.453574,1.649777,0.179951,-0.020272,0.939389,0.015503,-0.200104,-2.302704,2.329780,0.140005,-16.849593,2.911433,7.666964,0.001542,-0.093570,0.000000,0.231778,0.226728,-0.000000
3.170000,-0.167236,-0.099191,-1.453787,1.659053,0.180223,-0.022265,0.915525,0.038943,-0.198324,-2.469652,2.357979,0.215720,-16.534561,2.727667,7.469914,0.003875,-0.091222,0.000000,0.234788,0.242755,-0.000000
3.180000,-0.150600,-0.097387,-1.454019,1.668082,0.180731,-0.024236,0.890007,0.062656,-0.195797,-2.633285,2.384320,0.289283,-16.186412,2.539978,7.236961,0.006237,-0.088716,0.000000,0.237671,0.258554,-0.000000
3.190000,-0.133875,-0.095576,-1.454271,1.676848,0.181477,-0.026178,0.862871,0.086623,-0.192546,-2.793271,2.408766,0.360346,-15.805394,2.348638,6.970127,0.008628,-0.086052,0.000000,0.240421,0.274098,0.000000
3.200000,-0.117064,-0.093756,-1.454543,1.685334,0.182464,-0.028085,0.834155,0.110825,-0.188599,-2.949284,2.431281,0.428580,-15.391754,2.153922,6.671432,0.011045,-0.083234,0.000000,0.243031,0.289362,0.000000
3.210000,-0.100169,-0.091926,-1.454833,1.693526,0.183694,-0.029948,0.803899,0.135242,-0.183982,-3.101089,2.451765,0.493939,-14.943443,1.957861,6.336227,0.013488,-0.080265,0.000000,0.245486,0.304323,-0.000000
3.220000,-0.083194,-0.090082,-1.455141,1.701407,0.185169,-0.031762,0.772149,0.159854,-0.178732,-3.248149,2.470350,0.555512,-14.463285,1.758755,5.974021,0.015954,-0.077149,0.000000,0.247796,0.318936,0.000000
3.230000,-0.066142,-0.088221,-1.455468,1.708964,0.186892,-0.033521,0.738952,0.184642,-0.172885,-3.390250,2.486930,0.613339,-13.951808,1.556665,5.587650,0.018443,-0.073887,0.000000,0.249943,0.333176,0.000000
3.240000,-0.049016,-0.086343,-1.455812,1.716182,0.188863,-0.035218,0.704361,0.209586,-0.166479,-3.527083,2.501474,0.667194,-13.409541,1.351649,5.179954,0.020953,-0.070485,0.000000,0.251919,0.347012,-0.000000
3.250000,-0.031820,-0.084443,-1.456172,1.723047,0.191084,-0.036849,0.668429,0.234665,-0.159555,-3.658340,2.513953,0.716877,-12.837012,1.143766,4.753769,0.023481,-0.066947,0.000000,0.253715,0.360410,0.000000
3.260000,-0.014556,-0.082520,-1.456548,1.729546,0.193556,-0.038408,0.631212,0.259857,-0.152155,-3.783893,2.524289,0.762302,-12.230480,0.934353,4.309794,0.026026,-0.063276,0.000000,0.255316,0.373353,0.000000
3.270000,0.002770,-0.080571,-1.456940,1.735667,0.196281,-0.039890,0.592772,0.285143,-0.144324,-3.903045,2.532573,0.803126,-11.595265,0.722033,3.853268,0.028587,-0.059479,0.000000,0.256724,0.385765,-0.000000
3.280000,0.020156,-0.078594,-1.457346,1.741398,0.199260,-0.041293,0.553173,0.310502,-0.136108,-4.015706,2.538720,0.839336,-10.932418,0.506711,3.387292,0.031160,-0.055560,0.000000,0.257923,0.397629,0.000000
3.290000,0.037597,-0.076585,-1.457766,1.746727,0.202492,-0.042611,0.512481,0.335910,-0.127553,-4.121605,2.542697,0.870851,-10.242991,0.288287,2.914964,0.033744,-0.051524,0.000000,0.258903,0.408910,0.000000
3.300000,0.055089,-0.074543,-1.458198,1.751644,0.205978,-0.043843,0.470764,0.361348,-0.118706,-4.220481,2.544475,0.897624,-9.528034,0.066664,2.439385,0.036337,-0.047379,0.000000,0.259654,0.419571,-0.000000
3.310000,0.072628,-0.072465,-1.458642,1.756139,0.209719,-0.044985,0.428093,0.386793,-0.109617,-4.312294,2.544060,0.919536,-8.783301,-0.159263,1.966243,0.038937,-0.043129,0.000000,0.260168,0.429597,0.000000
3.320000,0.090210,-0.070348,-1.459097,1.760203,0.213714,-0.046035,0.384544,0.412222,-0.100331,-4.396307,2.541324,0.936842,-8.015789,-0.388461,1.495732,0.041540,-0.038783,0.000000,0.260427,0.438900,0.000000
3.330000,0.107831,-0.068190,-1.459562,1.763827,0.217963,-0.046991,0.340193,0.437612,-0.090896,-4.472539,2.536279,0.949468,-7.227198,-0.620903,1.030636,0.044144,-0.034346,0.000000,0.260423,0.447471,-0.000000
3.340000,0.125485,-0.065988,-1.460037,1.767004,0.222466,-0.047852,0.295119,0.462940,-0.081357,-4.540787,2.528895,0.957482,-6.419228,-0.856564,0.573737,0.046748,-0.029827,0.000000,0.260149,0.455274,0.000000
3.350000,0.143169,-0.063740,-1.460519,1.769727,0.227221,-0.048618,0.249404,0.488182,-0.071761,-4.600865,2.519138,0.960980,-5.593578,-1.095417,0.127819,0.049346,-0.025233,0.000000,0.259593,0.462279,-0.000000
3.360000,0.160878,-0.061443,-1.461009,1.771991,0.232229,-0.049287,0.203128,0.513316,-0.062155,-4.652811,2.507106,0.959829,-4.746756,-1.340726,-0.297875,0.051939,-0.020573,0.000000,0.258760,0.468475,0.000000
3.370000,0.178608,-0.059094,-1.461505,1.773788,0.237487,-0.049861,0.156377,0.538316,-0.052579,-4.695986,2.492461,0.954786,-3.886289,-1.588773,-0.707815,0.054521,-0.015854,0.000000,0.257614,0.473783,-0.000000
3.380000,0.196352,-0.056692,-1.462006,1.775117,0.242995,-0.050339,0.109237,0.563157,-0.043073,-4.730499,2.475323,0.945731,-3.014514,-1.839130,-1.100007,0.057090,-0.011086,0.000000,0.256160,0.478201,0.000000
3.390000,0.214108,-0.054234,-1.462511,1.775972,0.248750,-0.050723,0.061796,0.587814,-0.033677,-4.756247,2.455672,0.932852,-2.133766,-2.091369,-1.472462,0.059643,-0.006278,0.000000,0.254395,0.481706,-0.000000
3.400000,0.231870,-0.051716,-1.463020,1.776352,0.254750,-0.051013,0.014141,0.612262,-0.024428,-4.773152,2.433491,0.916355,-1.246380,-2.345060,-1.823186,0.062177,-0.001438,0.000000,0.252312,0.484279,-0.000000
3.410000,0.249634,-0.049138,-1.463531,1.776255,0.260994,-0.051212,-0.033639,0.636476,-0.015365,-4.781314,2.408834,0.896116,-0.350811,-2.601463,-2.141321,0.064688,0.003424,0.000000,0.249915,0.485918,0.000000
3.420000,0.267394,-0.046496,-1.464044,1.775679,0.267479,-0.051321,-0.081455,0.660430,-0.006516,-4.780336,2.381535,0.873214,0.546249,-2.858255,-2.434829,0.067174,0.008298,0.000000,0.247190,0.486573,-0.000000
3.430000,0.285146,-0.043787,-1.464557,1.774626,0.274202,-0.051343,-0.129216,0.684098,0.002090,-4.770393,2.351670,0.847505,1.441989,-3.114801,-2.702804,0.069631,0.013174,0.000000,0.244143,0.486255,0.000000
3.440000,0.302885,-0.041011,-1.465070,1.773095,0.281160,-0.051280,-0.176833,0.707455,0.010426,-4.751510,2.319242,0.819247,2.333598,-3.370467,-2.944339,0.072056,0.018043,0.000000,0.240776,0.484958,0.000000
3.450000,0.320606,-0.038163,-1.465582,1.771090,0.288350,-0.051135,-0.224217,0.730474,0.018467,-4.723744,2.284265,0.788709,3.218264,-3.624617,-3.158528,0.074445,0.022895,0.000000,0.237091,0.482682,-0.000000
3.460000,0.338305,-0.035243,-1.466093,1.768612,0.295768,-0.050912,-0.271279,0.753131,0.026189,-4.687213,2.246754,0.755794,4.094070,-3.876528,-3.334976,0.076796,0.027720,0.000000,0.233090,0.479433,-0.000000
3.470000,0.355977,-0.032247,-1.466600,1.765666,0.303411,-0.050613,-0.317932,0.775401,0.033578,-4.641945,2.206740,0.721679,4.957203,-4.125664,-3.483429,0.079106,0.032509,0.000000,0.228786,0.475216,0.000000
3.480000,0.373617,-0.029174,-1.467105,1.762255,0.311275,-0.050241,-0.364089,0.797258,0.040618,-4.588121,2.164252,0.686218,5.804742,-4.371402,-3.604143,0.081371,0.037251,0.000000,0.224184,0.470045,-0.000000
3.490000,0.391220,-0.026021,-1.467605,1.758386,0.319355,-0.049801,-0.409666,0.818678,0.047299,-4.525912,2.119326,0.649688,6.633767,-4.613116,-3.697375,0.083589,0.041938,0.000000,0.219293,0.463939,0.000000
3.500000,0.408783,-0.022786,-1.468101,1.754064,0.327647,-0.049297,-0.454580,0.839637,0.053609,-4.455517,2.072005,0.612362,7.441358,-4.850184,-3.763380,0.085756,0.046559,0.000000,0.214120,0.456920,0.000000
3.510000,0.426300,-0.019467,-1.468591,1.749297,0.336146,-0.048730,-0.498749,0.860110,0.059541,-4.377010,2.022318,0.574189,8.220660,-5.081448,-3.794314,0.087870,0.051107,0.000000,0.208674,0.448997,0.000000
3.520000,0.443767,-0.016063,-1.469075,1.744092,0.344847,-0.048107,-0.542095,0.880075,0.065093,-4.291017,1.970372,0.536199,8.973170,-5.306882,-3.799526,0.089929,0.055571,0.000000,0.202977,0.440241,-0.000000
3.530000,0.461180,-0.012570,-1.469553,1.738458,0.353746,-0.047430,-0.584544,0.899510,0.070265,-4.197644,1.916202,0.498280,9.696449,-5.525928,-3.780265,0.091929,0.059945,0.000000,0.197036,0.430668,-0.000000
3.540000,0.478535,-0.008987,-1.470023,1.732404,0.362836,-0.046703,-0.626024,0.918392,0.075059,-4.097194,1.859876,0.460671,10.388059,-5.738026,-3.737778,0.093869,0.064219,0.000000,0.190865,0.420314,-0.000000
3.550000,0.495827,-0.005312,-1.470487,1.725941,0.372112,-0.045930,-0.666466,0.936701,0.079480,-3.989996,1.801466,0.423598,11.045562,-5.942618,-3.673315,0.095746,0.068385,0.000000,0.184478,0.409220,0.000000
3.560000,0.513053,-0.001544,-1.470942,1.719078,0.381568,-0.045114,-0.705799,0.954414,0.083532,-3.876069,1.740996,0.387082,11.658039,-6.137766,-3.583278,0.097557,0.072438,0.000000,0.177882,0.397394,0.000000
3.570000,0.530207,0.002319,-1.471389,1.711828,0.391198,-0.044260,-0.743967,0.971514,0.087225,-3.756584,1.678678,0.351779,12.232571,-6.324460,-3.474354,0.099303,0.076369,0.000000,0.171108,0.384967,-0.000000
3.580000,0.547288,0.006280,-1.471827,1.704203,0.400996,-0.043371,-0.780912,0.987982,0.090571,-3.631549,1.614536,0.317652,12.767758,-6.502308,-3.348384,0.100979,0.080173,0.000000,0.164163,0.371946,-0.000000
3.590000,0.564290,0.010340,-1.472256,1.696214,0.410955,-0.042450,-0.816581,1.003799,0.093583,-3.501364,1.548662,0.284862,13.262200,-6.670921,-3.207210,0.102585,0.083844,0.000000,0.157063,0.358381,0.000000
3.600000,0.581211,0.014500,-1.472676,1.687876,0.421070,-0.041501,-0.850924,1.018949,0.096273,-3.366445,1.481150,0.253553,13.714497,-6.829910,-3.052672,0.104120,0.087377,0.000000,0.149821,0.344321,0.000000
3.610000,0.598047,0.018762,-1.473086,1.679200,0.431332,-0.040526,-0.883891,1.033416,0.098659,-3.226838,1.412037,0.223826,14.113611,-6.977347,-2.886062,0.105581,0.090766,0.000000,0.142446,0.329779,0.000000
3.620000,0.614794,0.023127,-1.473486,1.670203,0.441736,-0.039528,-0.915448,1.047185,0.100756,-3.083888,1.341569,0.195839,14.468961,-7.114568,-2.709840,0.106968,0.094008,0.000000,0.134967,0.314900,-0.000000
3.630000,0.631450,0.027597,-1.473877,1.660896,0.452273,-0.038511,-0.945558,1.060243,0.102582,-2.937605,1.269780,0.169654,14.780328,-7.241371,-2.525913,0.108280,0.097099,0.000000,0.127391,0.299691,0.000000
3.640000,0.648011,0.032173,-1.474257,1.651296,0.462938,-0.037478,-0.974191,1.072577,0.104155,-2.788429,1.196777,0.145340,15.047490,-7.357553,-2.336189,0.109516,0.100036,0.000000,0.119732,0.284203,0.000000
3.650000,0.664475,0.036856,-1.474626,1.641417,0.473722,-0.036429,-1.001319,1.084175,0.105495,-2.636804,1.122665,0.122944,15.270230,-7.462913,-2.142579,0.110675,0.102817,0.000000,0.112001,0.268488,0.000000
3.660000,0.680838,0.041648,-1.474985,1.631275,0.484619,-0.035368,-1.026917,1.095026,0.106622,-2.482861,1.047496,0.102622,15.440442,-7.555758,-1.950197,0.111756,0.105438,0.000000,0.104208,0.252563,-0.000000
3.670000,0.697099,0.046549,-1.475333,1.620884,0.495621,-0.034297,-1.050971,1.105122,0.107554,-2.327789,0.971520,0.084084,15.566756,-7.637560,-1.757353,0.112759,0.107899,0.000000,0.096375,0.236551,-0.000000
3.680000,0.713255,0.051560,-1.475671,1.610261,0.506719,-0.033218,-1.073469,1.114454,0.108310,-2.171670,0.894782,0.067471,15.649920,-7.708300,-1.565561,0.113683,0.110199,0.000000,0.088507,0.220465,-0.000000
3.690000,0.729304,0.056684,-1.475998,1.599420,0.517907,-0.032132,-1.094402,1.123016,0.108909,-2.014932,0.817391,0.052765,15.690678,-7.767958,-1.376339,0.114529,0.112337,0.000000,0.080616,0.204350,0.000000
3.700000,0.745243,0.061919,-1.476314,1.588378,0.529177,-0.031040,-1.113767,1.130800,0.109371,-1.857995,0.739459,0.039931,15.689777,-7.816515,-1.191201,0.115295,0.114313,0.000000,0.072712,0.188250,0.000000
3.710000,0.761071,0.067267,-1.476619,1.577150,0.540520,-0.029945,-1.131561,1.137803,0.109716,-1.701064,0.661047,0.029129,15.642700,-7.852668,-1.016900,0.115983,0.116127,0.000000,0.064802,0.172189,0.000000
3.720000,0.776785,0.072730,-1.476912,1.565752,0.551930,-0.028846,-1.147790,1.144020,0.109960,-1.545038,0.582385,0.019805,15.556099,-7.877838,-0.849074,0.116591,0.117781,0.000000,0.056902,0.156252,0.000000
3.730000,0.792385,0.078306,-1.477195,1.554199,0.563398,-0.027746,-1.162465,1.149450,0.110118,-1.390070,0.503526,0.012123,15.431365,-7.892164,-0.688598,0.117121,0.119274,0.000000,0.049016,0.140458,0.000000
3.740000,0.807869,0.083998,-1.477467,1.542508,0.574917,-0.026644,-1.175597,1.154090,0.110207,-1.236533,0.424578,0.006006,15.269888,-7.895784,-0.536347,0.117572,0.120610,0.000000,0.041153,0.124841,-0.000000
3.750000,0.823235,0.089805,-1.477728,1.530692,0.586477,-0.025542,-1.187201,1.157941,0.110243,-1.084790,0.345646,0.001366,15.073057,-7.888835,-0.393195,0.117944,0.121789,0.000000,0.033321,0.109438,-0.000000
3.760000,0.838482,0.095727,-1.477978,1.518769,0.598073,-0.024439,-1.197298,1.161003,0.110242,-0.935074,0.266797,-0.001678,14.839458,-7.870465,-0.265418,0.118238,0.122815,0.000000,0.025526,0.094271,0.000000
3.770000,0.853610,0.101766,-1.478217,1.506751,0.609695,-0.023337,-1.205911,1.163278,0.110213,-0.787983,0.188226,-0.003735,14.573630,-7.841923,-0.147828,0.118455,0.123689,0.000000,0.017776,0.079393,-0.000000
3.780000,0.868617,0.107921,-1.478445,1.494655,0.621336,-0.022235,-1.213067,1.164769,0.110171,-0.643703,0.109991,-0.004669,14.277305,-7.803469,-0.040638,0.118594,0.124415,0.000000,0.010079,0.064823,0.000000
3.790000,0.883503,0.114193,-1.478662,1.482495,0.632988,-0.021134,-1.218796,1.165479,0.110123,-0.502532,0.032189,-0.004583,13.952219,-7.755362,0.055939,0.118657,0.124996,0.000000,0.002439,0.050586,-0.000000
3.800000,0.898267,0.120581,-1.478868,1.470284,0.644643,-0.020033,-1.223129,1.165414,0.110082,-0.364749,-0.045085,-0.003586,13.600104,-7.697862,0.141688,0.118643,0.125435,0.000000,-0.005138,0.036709,-0.000000
3.810000,0.912909,0.127086,-1.479062,1.458037,0.656293,-0.018932,-1.226102,1.164579,0.110056,-0.230579,-0.121763,-0.001620,13.221785,-7.630585,0.212200,0.118554,0.125736,0.000000,-0.012646,0.023212,0.000000
3.820000,0.927428,0.133707,-1.479246,1.445766,0.667932,-0.017832,-1.227754,1.162982,0.110052,-0.100351,-0.197696,0.000810,12.820017,-7.554511,0.271972,0.118390,0.125904,0.000000,-0.020079,0.010121,0.000000
3.830000,0.941824,0.140444,-1.479419,1.433486,0.679550,-0.016731,-1.228123,1.160628,0.110074,0.025750,-0.272825,0.003784,12.396643,-7.469978,0.321306,0.118153,0.125941,0.000000,-0.027432,-0.002546,-0.000000
3.840000,0.956097,0.147298,-1.479581,1.421208,0.691142,-0.015630,-1.227253,1.157528,0.110129,0.147516,-0.347068,0.007202,11.953509,-7.377324,0.360503,0.117842,0.125854,0.000000,-0.034701,-0.014773,0.000000
3.850000,0.970248,0.154267,-1.479732,1.408945,0.702699,-0.014528,-1.225188,1.153690,0.110219,0.264760,-0.420346,0.010962,11.492459,-7.276887,0.389862,0.117459,0.125646,0.000000,-0.041879,-0.026542,0.000000
3.860000,0.984276,0.161352,-1.479871,1.396708,0.714213,-0.013426,-1.221974,1.149124,0.110350,0.377289,-0.492593,0.015060,11.015920,-7.168713,0.407352,0.117005,0.125321,0.000000,-0.048963,-0.037836,-0.000000
3.870000,0.998182,0.168551,-1.480000,1.384509,0.725679,-0.012321,-1.217658,1.143842,0.110521,0.485005,-0.563709,0.019183,10.525085,-7.053467,0.415893,0.116480,0.124885,0.000000,-0.055948,-0.048651,-0.000000
3.880000,1.011967,0.175865,-1.480118,1.372358,0.737088,-0.011215,-1.212290,1.137854,0.110734,0.587749,-0.633640,0.023350,10.021726,-6.931523,0.416070,0.115886,0.124343,0.000000,-0.062829,-0.058971,0.000000
3.890000,1.025630,0.183293,-1.480224,1.360267,0.748433,-0.010106,-1.205920,1.131173,0.110988,0.685404,-0.702319,0.027479,9.507617,-6.803254,0.408472,0.115224,0.123700,0.000000,-0.069601,-0.068785,-0.000000
3.900000,1.039172,0.190833,-1.480320,1.348243,0.759709,-0.008995,-1.198600,1.123812,0.111283,0.777871,-0.769685,0.031495,8.984534,-6.669033,0.393684,0.114494,0.122960,0.000000,-0.076261,-0.078087,0.000000
3.910000,1.052595,0.198487,-1.480404,1.336298,0.770907,-0.007881,-1.190381,1.115784,0.111617,0.865010,-0.835683,0.035349,8.455777,-6.529175,0.371827,0.113699,0.122129,0.000000,-0.082804,-0.086862,-0.000000
3.920000,1.065898,0.206251,-1.480478,1.324438,0.782022,-0.006763,-1.181317,1.107103,0.111989,0.946900,-0.900254,0.038933,7.921405,-6.384121,0.344010,0.112839,0.121213,0.000000,-0.089225,-0.095120,0.000000
3.930000,1.079084,0.214127,-1.480540,1.312674,0.793047,-0.005641,-1.171461,1.097784,0.112395,1.023424,-0.963349,0.042211,7.383004,-6.234250,0.310878,0.111915,0.120217,0.000000,-0.095521,-0.102850,0.000000
3.940000,1.092152,0.222112,-1.480590,1.301012,0.803976,-0.004515,-1.160867,1.087841,0.112832,1.094552,-1.024924,0.045135,6.842161,-6.079944,0.273074,0.110929,0.119145,0.000000,-0.101687,-0.110049,-0.000000
3.950000,1.105105,0.230206,-1.480630,1.289459,0.814802,-0.003384,-1.149588,1.077291,0.113296,1.160265,-1.084935,0.047659,6.300461,-5.921584,0.231243,0.109882,0.118004,0.000000,-0.107720,-0.116714,0.000000
3.960000,1.117942,0.238408,-1.480658,1.278022,0.825520,-0.002249,-1.137680,1.066148,0.113783,1.220481,-1.143341,0.049711,5.761556,-5.759623,0.186964,0.108775,0.116798,0.000000,-0.113615,-0.122839,-0.000000
3.970000,1.130665,0.246716,-1.480675,1.266707,0.836123,-0.001108,-1.125196,1.054429,0.114289,1.275411,-1.200113,0.051347,5.224715,-5.594360,0.139831,0.107610,0.115534,0.000000,-0.119368,-0.128442,-0.000000
3.980000,1.143276,0.255130,-1.480680,1.255520,0.846607,0.000037,-1.112190,1.042151,0.114809,1.324987,-1.255218,0.052500,4.691273,-5.426168,0.090371,0.106388,0.114216,0.000000,-0.124976,-0.133517,0.000000
3.990000,1.155776,0.263648,-1.480674,1.244465,0.856964,0.001188,-1.098714,1.029331,0.115337,1.369252,-1.308628,0.053149,4.162563,-5.255418,0.039115,0.105111,0.112850,0.000000,-0.130436,-0.138067,0.000000
4.000000,1.168166,0.272269,-1.480656,1.233547,0.867191,0.002344,-1.084822,1.015985,0.115870,1.408259,-1.360319,0.053278,3.639919,-5.082483,-0.013409,0.103780,0.111441,0.000000,-0.135743,-0.142096,0.000000
4.010000,1.180448,0.280991,-1.480627,1.222770,0.877282,0.003505,-1.070568,1.002130,0.116401,1.441976,-1.410269,0.052812,3.127173,-4.907787,-0.065012,0.102396,0.109995,0.000000,-0.140897,-0.145602,0.000000
4.020000,1.192622,0.289814,-1.480586,1.212137,0.887232,0.004672,-1.056000,0.987785,0.116925,1.470719,-1.458468,0.051902,2.622855,-4.731644,-0.117028,0.100962,0.108516,0.000000,-0.145892,-0.148612,-0.000000
4.030000,1.204691,0.298735,-1.480534,1.201651,0.897037,0.005844,-1.041170,0.972967,0.117437,1.494465,-1.504899,0.050472,2.127993,-4.554418,-0.169131,0.099479,0.107009,0.000000,-0.150726,-0.151124,0.000000
4.040000,1.216656,0.307754,-1.480469,1.191314,0.906690,0.007021,-1.026127,0.957693,0.117932,1.513313,-1.549554,0.048521,1.643615,-4.376474,-0.220994,0.097948,0.105480,0.000000,-0.155397,-0.153147,0.000000
4.050000,1.228518,0.316868,-1.480393,1.181129,0.916189,0.008202,-1.010920,0.941982,0.118406,1.527375,-1.592427,0.046054,1.170749,-4.198179,-0.272293,0.096372,0.103933,0.000000,-0.159903,-0.154690,0.000000
4.060000,1.240279,0.326077,-1.480305,1.171096,0.925528,0.009389,-0.995596,0.925850,0.118851,1.536666,-1.633507,0.043010,0.713048,-4.020165,-0.320989,0.094751,0.102373,0.000000,-0.164241,-0.155755,0.000000
4.070000,1.251940,0.335378,-1.480206,1.161217,0.934705,0.010579,-0.980201,0.909317,0.119264,1.541563,-1.672820,0.039561,0.268594,-3.842497,-0.368677,0.093088,0.100805,0.000000,-0.168412,-0.156376,-0.000000
4.080000,1.263503,0.344771,-1.480094,1.151492,0.943714,0.011774,-0.964779,0.892400,0.119641,1.542085,-1.710359,0.035640,-0.161908,-3.665509,-0.415242,0.091383,0.099234,0.000000,-0.172414,-0.156555,-0.000000
4.090000,1.274970,0.354252,-1.479970,1.141921,0.952551,0.012972,-0.949374,0.875116,0.119975,1.538374,-1.746133,0.031260,-0.577750,-3.489533,-0.460567,0.089640,0.097663,0.000000,-0.176245,-0.156306,-0.000000
4.100000,1.286342,0.363821,-1.479834,1.132504,0.961215,0.014173,-0.934026,0.857483,0.120264,1.530581,-1.780154,0.026433,-0.978226,-3.314902,-0.504535,0.087859,0.096096,0.000000,-0.179905,-0.155642,0.000000
4.110000,1.297621,0.373476,-1.479687,1.123240,0.969700,0.015377,-0.918776,0.839519,0.120502,1.518761,-1.812411,0.021124,-1.360067,-3.142590,-0.545765,0.086042,0.094539,0.000000,-0.183392,-0.154567,-0.000000
4.120000,1.308808,0.383215,-1.479527,1.114128,0.978004,0.016583,-0.903663,0.821241,0.120685,1.503320,-1.842984,0.015466,-1.725442,-2.972211,-0.585560,0.084192,0.092995,0.000000,-0.186712,-0.153123,0.000000
4.130000,1.319904,0.393035,-1.479355,1.105167,0.986124,0.017791,-0.888722,0.802665,0.120810,1.484309,-1.871863,0.009418,-2.073961,-2.804018,-0.623961,0.082309,0.091467,0.000000,-0.189862,-0.151312,-0.000000
4.140000,1.330912,0.402936,-1.479171,1.096353,0.994056,0.018999,-0.873988,0.783809,0.120872,1.461898,-1.899072,0.002992,-2.405229,-2.638266,-0.661006,0.080395,0.089959,0.000000,-0.192844,-0.149152,-0.000000
4.150000,1.341832,0.412916,-1.478975,1.087686,1.001799,0.020208,-0.859495,0.764689,0.120869,1.436263,-1.924637,-0.003798,-2.718856,-2.475210,-0.696733,0.078452,0.088475,0.000000,-0.195658,-0.146659,0.000000
4.160000,1.352666,0.422972,-1.478767,1.079163,1.009349,0.021416,-0.845274,0.745322,0.120795,1.407487,-1.948558,-0.010962,-3.012068,-2.315811,-0.730606,0.076482,0.087018,0.000000,-0.198303,-0.143842,0.000000
4.170000,1.363415,0.433102,-1.478547,1.070780,1.016705,0.022624,-0.831354,0.725723,0.120648,1.375976,-1.970932,-0.018432,-3.287144,-2.159529,-0.763311,0.074487,0.085591,0.000000,-0.200788,-0.140742,-0.000000
4.180000,1.374082,0.443305,-1.478314,1.062534,1.023863,0.023829,-0.817763,0.705908,0.120425,1.341805,-1.991760,-0.026224,-3.543983,-2.006533,-0.794955,0.072467,0.084197,0.000000,-0.203111,-0.137365,0.000000
4.190000,1.384666,0.453579,-1.478070,1.054423,1.030822,0.025032,-0.804526,0.685893,0.120123,1.305157,-2.011074,-0.034328,-3.782484,-1.856989,-0.825649,0.070425,0.082838,0.000000,-0.205275,-0.133731,0.000000
4.200000,1.395171,0.463921,-1.477814,1.046443,1.037580,0.026231,-0.791668,0.665692,0.119738,1.266217,-2.028912,-0.042734,-4.002546,-1.711066,-0.855502,0.068362,0.081516,0.000000,-0.207283,-0.129856,0.000000
4.210000,1.405596,0.474330,-1.477545,1.038589,1.044136,0.027426,-0.779210,0.645320,0.119267,1.225086,-2.045281,-0.051431,-4.201996,-1.569609,-0.884738,0.066280,0.080235,0.000000,-0.209135,-0.125754,0.000000
4.220000,1.415943,0.484803,-1.477265,1.030857,1.050486,0.028616,-0.767172,0.624791,0.118708,1.182146,-2.060286,-0.060422,-4.383057,-1.432024,-0.913338,0.064180,0.078996,0.000000,-0.210839,-0.121460,-0.000000
4.230000,1.426213,0.495339,-1.476973,1.023244,1.056631,0.029800,-0.755573,0.604119,0.118058,1.137486,-2.073935,-0.069696,-4.545883,-1.298397,-0.941396,0.062064,0.077802,0.000000,-0.212397,-0.116987,-0.000000
4.240000,1.436408,0.505935,-1.476669,1.015744,1.062568,0.030977,-0.744428,0.583317,0.117313,1.091288,-2.086268,-0.079248,-4.690625,-1.168812,-0.969009,0.059933,0.076653,0.000000,-0.213811,-0.112351,-0.000000
4.250000,1.446529,0.516589,-1.476354,1.008354,1.068297,0.032146,-0.733752,0.562398,0.116472,1.043733,-2.097325,-0.089075,-4.817436,-1.043352,-0.996270,0.057788,0.075551,0.000000,-0.215086,-0.107572,0.000000
4.260000,1.456576,0.527300,-1.476026,1.001067,1.073816,0.033306,-0.723558,0.541374,0.115531,0.994933,-2.107124,-0.099149,-4.924806,-0.922739,-1.023895,0.055631,0.074498,0.000000,-0.216222,-0.102660,0.000000
4.270000,1.466550,0.538065,-1.475687,0.993881,1.079124,0.034456,-0.713856,0.520259,0.114488,0.945221,-2.115766,-0.109525,-5.014753,-0.806344,-1.051283,0.053464,0.073495,0.000000,-0.217229,-0.097652,-0.000000
4.280000,1.476453,0.548882,-1.475337,0.986789,1.084221,0.035596,-0.704656,0.499063,0.113340,0.894695,-2.123265,-0.120173,-5.087632,-0.694173,-1.078454,0.051287,0.072542,0.000000,-0.218108,-0.092558,-0.000000
4.290000,1.486286,0.559749,-1.474976,0.979786,1.089105,0.036723,-0.695964,0.477797,0.112084,0.843524,-2.129663,-0.131093,-5.143801,-0.586234,-1.105429,0.049102,0.071642,0.000000,-0.218864,-0.087394,0.000000
4.300000,1.496049,0.570663,-1.474603,0.972868,1.093776,0.037837,-0.687787,0.456473,0.110717,0.791873,-2.135003,-0.142281,-5.183614,-0.482533,-1.132225,0.046910,0.070793,0.000000,-0.219499,-0.082178,-0.000000
4.310000,1.505744,0.581624,-1.474219,0.966028,1.098234,0.038937,-0.680129,0.435101,0.109238,0.739857,-2.139305,-0.153704,-5.206222,-0.383652,-1.159699,0.044713,0.069996,0.000000,-0.220017,-0.076923,-0.000000
4.320000,1.515370,0.592627,-1.473824,0.959263,1.102478,0.040021,-0.672990,0.413690,0.107642,0.687747,-2.142665,-0.165437,-5.213335,-0.288953,-1.186932,0.042510,0.069253,0.000000,-0.220425,-0.071657,0.000000
4.330000,1.524929,0.603672,-1.473419,0.952567,1.106508,0.041089,-0.666374,0.392251,0.105928,0.635640,-2.145098,-0.177441,-5.205455,-0.198372,-1.213841,0.040304,0.068562,0.000000,-0.220726,-0.066391,0.000000
4.340000,1.534422,0.614757,-1.473002,0.945934,1.110323,0.042139,-0.660277,0.370791,0.104092,0.583686,-2.146646,-0.189713,-5.183086,-0.111845,-1.240343,0.038096,0.067924,0.000000,-0.220924,-0.061139,-0.000000
4.350000,1.543848,0.625878,-1.472576,0.939360,1.113924,0.043171,-0.654699,0.349321,0.102133,0.532025,-2.147348,-0.202247,-5.146733,-0.029308,-1.266356,0.035886,0.067338,0.000000,-0.221023,-0.055918,0.000000
4.360000,1.553209,0.637035,-1.472139,0.932838,1.117310,0.044182,-0.649636,0.327847,0.100047,0.480767,-2.147225,-0.215008,-5.096171,0.048806,-1.292554,0.033676,0.066805,0.000000,-0.221024,-0.050738,0.000000
4.370000,1.562505,0.648224,-1.471692,0.926365,1.120481,0.045171,-0.645082,0.306379,0.097832,0.430113,-2.146363,-0.228062,-5.032721,0.123118,-1.318003,0.031466,0.066323,0.000000,-0.220936,-0.045622,0.000000
4.380000,1.571737,0.659443,-1.471236,0.919935,1.123437,0.046138,-0.641031,0.284922,0.095485,0.380154,-2.144775,-0.241365,-4.956974,0.193750,-1.342530,0.029258,0.065891,0.000000,-0.220761,-0.040578,0.000000
4.390000,1.580904,0.670692,-1.470770,0.913543,1.126179,0.047080,-0.637476,0.263485,0.093004,0.331012,-2.142499,-0.254908,-4.869523,0.260829,-1.365958,0.027051,0.065510,0.000000,-0.220502,-0.035620,-0.000000
4.400000,1.590008,0.681966,-1.470294,0.907184,1.128707,0.047997,-0.634408,0.242075,0.090386,0.282801,-2.139570,-0.268680,-4.770960,0.324477,-1.388113,0.024848,0.065178,0.000000,-0.220163,-0.030760,-0.000000
4.410000,1.599048,0.693265,-1.469810,0.900853,1.131021,0.048888,-0.631816,0.220696,0.087630,0.235616,-2.136006,-0.282648,-4.661577,0.384434,-1.409264,0.022648,0.064895,0.000000,-0.219745,-0.026007,-0.000000
4.420000,1.608025,0.704586,-1.469317,0.894546,1.133121,0.049750,-0.629691,0.199356,0.084732,0.189589,-2.131875,-0.296840,-4.542305,0.441257,-1.428737,0.020453,0.064658,0.000000,-0.219256,-0.021377,0.000000
4.430000,1.616939,0.715927,-1.468815,0.888258,1.135008,0.050582,-0.628021,0.178061,0.081692,0.144801,-2.127190,-0.311217,-4.413772,0.495116,-1.446299,0.018263,0.064467,0.000000,-0.218697,-0.016877,-0.000000
4.440000,1.625790,0.727285,-1.468305,0.881984,1.136682,0.051383,-0.626791,0.156814,0.078507,0.101342,-2.121982,-0.325759,-4.276608,0.546184,-1.461722,0.016079,0.064320,0.000000,-0.218071,-0.012516,-0.000000
4.450000,1.634579,0.738660,-1.467787,0.875721,1.138145,0.052151,-0.625989,0.135623,0.075176,0.059295,-2.116275,-0.340443,-4.131442,0.594631,-1.474774,0.013902,0.064216,0.000000,-0.217381,-0.008305,0.000000
4.460000,1.643304,0.750048,-1.467262,0.869463,1.139395,0.052886,-0.625600,0.114491,0.071698,0.018740,-2.110088,-0.355245,-3.978973,0.640386,-1.485237,0.011732,0.064153,0.000000,-0.216628,-0.004250,-0.000000
4.470000,1.651968,0.761447,-1.466730,0.863207,1.140435,0.053585,-0.625609,0.093422,0.068071,-0.020259,-2.103464,-0.370138,-3.819753,0.683893,-1.492868,0.009570,0.064130,0.000000,-0.215818,-0.000359,0.000000
4.480000,1.660569,0.772856,-1.466191,0.856950,1.141264,0.054247,-0.626000,0.072423,0.064295,-0.057634,-2.096417,-0.385092,-3.654401,0.725353,-1.497436,0.007416,0.064145,0.000000,-0.214952,0.003362,0.000000
4.490000,1.669107,0.784272,-1.465645,0.850686,1.141883,0.054870,-0.626756,0.051495,0.060369,-0.093328,-2.088963,-0.400076,-3.483539,0.764968,-1.498709,0.005271,0.064197,0.000000,-0.214032,0.006906,0.000000
4.500000,1.677582,0.795693,-1.465093,0.844413,1.142294,0.055454,-0.627861,0.030645,0.056294,-0.127289,-2.081123,-0.415055,-3.307788,0.802938,-1.496456,0.003135,0.064283,0.000000,-0.213060,0.010268,0.000000
4.510000,1.685995,0.807117,-1.464536,0.838128,1.142496,0.055996,-0.629296,0.009874,0.052068,-0.159454,-2.072907,-0.430010,-3.128163,0.839392,-1.490007,0.001010,0.064402,0.000000,-0.212038,0.013443,0.000000
4.520000,1.694345,0.818542,-1.463973,0.831826,1.142492,0.056495,-0.631044,-0.010812,0.047694,-0.189822,-2.064336,-0.444861,-2.944841,0.874613,-1.479622,-0.001105,0.064551,0.000000,-0.210968,0.016430,-0.000000
4.530000,1.702631,0.829966,-1.463406,0.825506,1.142281,0.056949,-0.633086,-0.031411,0.043171,-0.218341,-2.055418,-0.459588,-2.758395,0.908811,-1.465124,-0.003209,0.064729,0.000000,-0.209851,0.019224,0.000000
4.540000,1.710855,0.841387,-1.462835,0.819164,1.141864,0.057358,-0.635404,-0.051919,0.038503,-0.244981,-2.046162,-0.474149,-2.569399,0.942195,-1.446336,-0.005302,0.064935,0.000000,-0.208689,0.021823,-0.000000
4.550000,1.719015,0.852802,-1.462259,0.812797,1.141242,0.057719,-0.637979,-0.072333,0.033689,-0.269722,-2.036576,-0.488500,-2.378425,0.974977,-1.423079,-0.007383,0.065165,0.000000,-0.207483,0.024225,-0.000000
4.560000,1.727111,0.864211,-1.461680,0.806403,1.140417,0.058031,-0.640792,-0.092650,0.028733,-0.292521,-2.026668,-0.502627,-2.186662,1.007481,-1.394376,-0.009452,0.065419,0.000000,-0.206235,0.026425,-0.000000
4.570000,1.735143,0.875610,-1.461099,0.799980,1.139390,0.058293,-0.643823,-0.112866,0.023638,-0.313425,-2.016432,-0.516408,-1.993989,1.039789,-1.360947,-0.011508,0.065693,0.000000,-0.204945,0.028430,0.000000
4.580000,1.743110,0.886998,-1.460515,0.793526,1.138160,0.058503,-0.647054,-0.132978,0.018406,-0.332399,-2.005873,-0.529830,-1.800906,1.072096,-1.322712,-0.013550,0.065987,0.000000,-0.203613,0.030237,-0.000000
4.590000,1.751013,0.898373,-1.459929,0.787039,1.136731,0.058661,-0.650465,-0.152982,0.013042,-0.349443,-1.994990,-0.542846,-1.607907,1.104598,-1.279592,-0.015580,0.066297,0.000000,-0.202241,0.031845,0.000000
4.600000,1.758851,0.909732,-1.459342,0.780516,1.135101,0.058764,-0.654037,-0.172876,0.007551,-0.364559,-1.983779,-0.555405,-1.415491,1.137491,-1.231506,-0.017595,0.066623,0.000000,-0.200829,0.033257,0.000000
4.610000,1.766623,0.921074,-1.458754,0.773958,1.133273,0.058811,-0.657749,-0.192657,0.001935,-0.377726,-1.972249,-0.567499,-1.224912,1.171268,-1.177368,-0.019596,0.066962,0.000000,-0.199378,0.034470,0.000000
4.620000,1.774330,0.932397,-1.458166,0.767361,1.131248,0.058802,-0.661585,-0.212320,-0.003797,-0.389029,-1.960365,-0.578981,-1.035817,1.205792,-1.118229,-0.021583,0.067312,0.000000,-0.197886,0.035494,0.000000
4.630000,1.781970,0.943698,-1.457578,0.760725,1.129027,0.058735,-0.665524,-0.231863,-0.009642,-0.398449,-1.948131,-0.589847,-0.848610,1.241223,-1.054132,-0.023554,0.067671,0.000000,-0.196355,0.036329,-0.000000
4.640000,1.789544,0.954977,-1.456991,0.754050,1.126612,0.058609,-0.669548,-0.251281,-0.015592,-0.406009,-1.935537,-0.600047,-0.663695,1.277721,-0.985120,-0.025509,0.068038,0.000000,-0.194784,0.036976,0.000000
4.650000,1.797051,0.966230,-1.456406,0.747334,1.124002,0.058423,-0.673638,-0.270572,-0.021641,-0.411732,-1.922572,-0.609533,-0.481476,1.315446,-0.911237,-0.027449,0.068410,0.000000,-0.193174,0.037440,0.000000
4.660000,1.804491,0.977456,-1.455823,0.740577,1.121201,0.058176,-0.677776,-0.289732,-0.027781,-0.415616,-1.909241,-0.618297,-0.303178,1.355003,-0.831492,-0.029373,0.068786,0.000000,-0.191525,0.037722,0.000000
4.670000,1.811863,0.988653,-1.455243,0.733779,1.118208,0.057867,-0.681944,-0.308756,-0.034004,-0.417770,-1.895487,-0.626193,-0.128284,1.396052,-0.747090,-0.031280,0.069165,0.000000,-0.189834,0.037832,-0.000000
4.680000,1.819166,0.999820,-1.454666,0.726938,1.115026,0.057495,-0.686125,-0.327640,-0.040302,-0.418194,-1.881314,-0.633224,0.042902,1.438698,-0.658201,-0.033169,0.069543,0.000000,-0.188101,0.037773,-0.000000
4.690000,1.826401,1.010953,-1.454093,0.720056,1.111656,0.057061,-0.690302,-0.346381,-0.046665,-0.416926,-1.866707,-0.639343,0.210076,1.483047,-0.564995,-0.035042,0.069920,0.000000,-0.186327,0.037549,-0.000000
4.700000,1.833567,1.022052,-1.453525,0.713132,1.108099,0.056562,-0.694458,-0.364973,-0.053085,-0.414007,-1.851648,-0.644510,0.372935,1.529205,-0.467642,-0.036896,0.070294,0.000000,-0.184511,0.037165,-0.000000
4.710000,1.840664,1.033115,-1.452962,0.706167,1.104357,0.055999,-0.698577,-0.383412,-0.059553,-0.409451,-1.836138,-0.648718,0.530374,1.577817,-0.365422,-0.038732,0.070663,0.000000,-0.182655,0.036623,-0.000000
4.720000,1.847690,1.044139,-1.452405,0.699161,1.100431,0.055371,-0.702642,-0.401694,-0.066056,-0.403380,-1.820109,-0.651846,0.682987,1.628382,-0.259504,-0.040549,0.071026,0.000000,-0.180751,0.035937,0.000000
4.730000,1.854647,1.055123,-1.451855,0.692115,1.096323,0.054677,-0.706639,-0.419813,-0.072586,-0.395808,-1.803564,-0.653897,0.830569,1.680939,-0.150168,-0.042347,0.071382,0.000000,-0.178803,0.035109,0.000000
4.740000,1.861533,1.066065,-1.451312,0.685028,1.092035,0.053919,-0.710554,-0.437763,-0.079130,-0.386786,-1.786483,-0.654838,0.972914,1.735527,-0.037694,-0.044125,0.071729,0.000000,-0.176810,0.034145,-0.000000
4.750000,1.868347,1.076963,-1.450777,0.677904,1.087569,0.053095,-0.714370,-0.455541,-0.085679,-0.376368,-1.768846,-0.654641,1.109816,1.792186,0.077640,-0.045883,0.072065,0.000000,-0.174770,0.033051,0.000000
4.760000,1.875091,1.087815,-1.450250,0.670741,1.082925,0.052205,-0.718076,-0.473139,-0.092220,-0.364580,-1.750655,-0.653302,1.240356,1.851517,0.196173,-0.047620,0.072390,0.000000,-0.172685,0.031830,-0.000000
4.770000,1.881762,1.098621,-1.449733,0.663543,1.078107,0.051251,-0.721658,-0.490552,-0.098741,-0.351548,-1.731834,-0.650738,1.365128,1.912927,0.316930,-0.049336,0.072702,0.000000,-0.170548,0.030496,-0.000000
4.780000,1.888361,1.109377,-1.449225,0.656309,1.073115,0.050231,-0.725103,-0.507773,-0.105230,-0.337297,-1.712389,-0.646957,1.484014,1.976387,0.439557,-0.051031,0.073000,0.000000,-0.168363,0.029053,0.000000
4.790000,1.894888,1.120082,-1.448728,0.649041,1.067952,0.049146,-0.728400,-0.524797,-0.111676,-0.321888,-1.692300,-0.641942,1.596896,2.041867,0.563699,-0.052703,0.073284,0.000000,-0.166126,0.027506,-0.000000
4.800000,1.901342,1.130735,-1.448243,0.641741,1.062620,0.047997,-0.731537,-0.541617,-0.118065,-0.305380,-1.671545,-0.635679,1.703656,2.109336,0.689002,-0.054353,0.073551,0.000000,-0.163838,0.025862,-0.000000
4.810000,1.907723,1.141334,-1.447769,0.634411,1.057120,0.046785,-0.734504,-0.558226,-0.124385,-0.287811,-1.650127,-0.628170,1.803562,2.179269,0.815390,-0.055980,0.073801,0.000000,-0.161500,0.024126,0.000000
4.820000,1.914030,1.151877,-1.447307,0.627052,1.051456,0.045510,-0.737290,-0.574617,-0.130624,-0.269302,-1.627976,-0.619382,1.897183,2.251070,0.942193,-0.057583,0.074034,0.000000,-0.159105,0.022310,-0.000000
4.830000,1.920264,1.162363,-1.446859,0.619666,1.045629,0.044173,-0.739887,-0.590783,-0.136769,-0.249888,-1.605099,-0.609326,1.984477,2.324648,1.069023,-0.059162,0.074248,0.000000,-0.156656,0.020417,0.000000
4.840000,1.926423,1.172789,-1.446424,0.612255,1.039641,0.042775,-0.742285,-0.606717,-0.142807,-0.229634,-1.581478,-0.598003,2.065399,2.399911,1.195489,-0.060716,0.074443,0.000000,-0.154152,0.018454,0.000000
4.850000,1.932509,1.183155,-1.446003,0.604821,1.033495,0.041317,-0.744477,-0.622410,-0.148725,-0.208602,-1.557096,-0.585419,2.139906,2.476769,1.321202,-0.062245,0.074617,0.000000,-0.151591,0.016428,-0.000000
4.860000,1.938520,1.193459,-1.445598,0.597366,1.027194,0.039801,-0.746455,-0.637856,-0.154511,-0.186835,-1.531952,-0.571581,2.207395,2.555491,1.445722,-0.063747,0.074772,0.000000,-0.148974,0.014343,-0.000000
4.870000,1.944456,1.203698,-1.445207,0.589892,1.020739,0.038227,-0.748211,-0.653047,-0.160152,-0.164450,-1.505997,-0.556507,2.268451,2.635579,1.568717,-0.065224,0.074905,0.000000,-0.146297,0.012211,0.000000
4.880000,1.950317,1.213873,-1.444833,0.582402,1.014133,0.036598,-0.749742,-0.667973,-0.165637,-0.141487,-1.479236,-0.540213,2.323099,2.716898,1.689803,-0.066673,0.075016,0.000000,-0.143561,0.010034,-0.000000
4.890000,1.956104,1.223981,-1.444476,0.574898,1.007380,0.034915,-0.751039,-0.682629,-0.170952,-0.118010,-1.451656,-0.522719,2.371363,2.799313,1.808596,-0.068095,0.075106,0.000000,-0.140766,0.007820,0.000000
4.900000,1.961815,1.234020,-1.444135,0.567382,1.000482,0.033180,-0.752100,-0.697004,-0.176087,-0.094081,-1.423247,-0.504050,2.413270,2.882688,1.924714,-0.069488,0.075173,0.000000,-0.137910,0.005575,0.000000
4.910000,1.967452,1.243990,-1.443812,0.559857,0.993441,0.031394,-0.752920,-0.711091,-0.181029,-0.069744,-1.394006,-0.484221,2.448295,2.967054,2.037433,-0.070853,0.075217,0.000000,-0.134994,0.003301,-0.000000
4.920000,1.973013,1.253888,-1.443507,0.552325,0.986261,0.029560,-0.753494,-0.724881,-0.185768,-0.045112,-1.363911,-0.463297,2.477080,3.052087,2.146752,-0.072188,0.075239,0.000000,-0.132015,0.001011,-0.000000
4.930000,1.978498,1.263715,-1.443221,0.544788,0.978945,0.027679,-0.753821,-0.738366,-0.190292,-0.020223,-1.332962,-0.441299,2.499716,3.137633,2.252328,-0.073493,0.075238,0.000000,-0.128974,-0.001293,0.000000
4.940000,1.983908,1.273467,-1.442954,0.537249,0.971495,0.025755,-0.753898,-0.751538,-0.194590,0.004863,-1.301157,-0.418264,2.516296,3.223533,2.353820,-0.074767,0.075213,0.000000,-0.125871,-0.003606,0.000000
4.950000,1.989243,1.283144,-1.442706,0.529711,0.963915,0.023788,-0.753723,-0.764386,-0.198654,0.030083,-1.268491,-0.394237,2.526912,3.309632,2.450885,-0.076010,0.075165,0.000000,-0.122704,-0.005921,0.000000
4.960000,1.994502,1.292745,-1.442478,0.522176,0.956208,0.021783,-0.753296,-0.776904,-0.202472,0.055402,-1.234963,-0.369240,2.531139,3.395754,2.542600,-0.077221,0.075094,0.000000,-0.119474,-0.008236,0.000000
4.970000,1.999687,1.302268,-1.442271,0.514646,0.948378,0.019740,-0.752615,-0.789083,-0.206036,0.080710,-1.200576,-0.343376,2.529649,3.481765,2.629277,-0.078399,0.075000,0.000000,-0.116181,-0.010542,0.000000
4.980000,2.004795,1.311712,-1.442084,0.507124,0.940428,0.017663,-0.751682,-0.800913,-0.209337,0.105976,-1.165329,-0.316672,2.522599,3.567512,2.710645,-0.079545,0.074883,0.000000,-0.112823,-0.012835,0.000000
4.990000,2.009829,1.321076,-1.441918,0.499613,0.932361,0.015554,-0.750496,-0.812387,-0.212366,0.131144,-1.129227,-0.289182,2.510143,3.652839,2.786432,-0.080656,0.074743,0.000000,-0.109401,-0.015111,0.000000
5.000000,2.014788,1.330359,-1.441773,0.492115,0.924181,0.013416,-0.749059,-0.823495,-0.215118,0.156161,-1.092274,-0.260963,2.492437,3.737595,2.856368,-0.081732,0.074580,0.000000,-0.105915,-0.017367,-0.000000
5.010000,2.019671,1.339559,-1.441649,0.484633,0.915892,0.011253,-0.747373,-0.834229,-0.217583,0.180994,-1.054471,-0.232044,2.469193,3.821465,2.919411,-0.082774,0.074394,0.000000,-0.102363,-0.019598,-0.000000
5.020000,2.024480,1.348676,-1.441548,0.477168,0.907498,0.009066,-0.745440,-0.844581,-0.219757,0.205549,-1.015840,-0.202561,2.441064,3.904474,2.976156,-0.083779,0.074186,0.000000,-0.098748,-0.021797,0.000000
5.030000,2.029215,1.357709,-1.441468,0.469725,0.899002,0.006858,-0.743263,-0.854543,-0.221633,0.229799,-0.976385,-0.172543,2.408261,3.986489,3.026428,-0.084749,0.073957,0.000000,-0.095069,-0.023963,0.000000
5.040000,2.033875,1.366656,-1.441411,0.462304,0.890408,0.004634,-0.740845,-0.864106,-0.223206,0.253699,-0.936114,-0.142055,2.370993,4.067375,3.070049,-0.085681,0.073706,0.000000,-0.091325,-0.026093,0.000000
5.050000,2.038461,1.375517,-1.441375,0.454909,0.881721,0.002395,-0.738191,-0.873263,-0.224472,0.277205,-0.895041,-0.111164,2.329469,4.146999,3.106843,-0.086575,0.073433,0.000000,-0.087516,-0.028181,-0.000000
5.060000,2.042973,1.384290,-1.441363,0.447541,0.872944,0.000146,-0.735303,-0.882005,-0.225428,0.300288,-0.853170,-0.079905,2.283566,4.224999,3.135735,-0.087431,0.073140,0.000000,-0.083643,-0.030227,-0.000000
5.070000,2.047412,1.392975,-1.441373,0.440203,0.864082,-0.002112,-0.732186,-0.890324,-0.226070,0.322879,-0.810536,-0.048433,2.233869,4.301495,3.157559,-0.088247,0.072826,0.000000,-0.079706,-0.032226,-0.000000
5.080000,2.051777,1.401571,-1.441405,0.432898,0.855139,-0.004375,-0.728847,-0.898213,-0.226396,0.344954,-0.767146,-0.016778,2.180627,4.376382,3.172247,-0.089025,0.072493,0.000000,-0.075706,-0.034175,-0.000000
5.090000,2.056070,1.410078,-1.441460,0.425627,0.846120,-0.006639,-0.725289,-0.905664,-0.226405,0.366480,-0.723014,0.014988,2.124092,4.449552,3.179736,-0.089761,0.072140,0.000000,-0.071641,-0.036072,0.000000
5.100000,2.060290,1.418494,-1.441538,0.418393,0.837028,-0.008902,-0.721519,-0.912671,-0.226096,0.387426,-0.678161,0.046792,2.064515,4.520900,3.179957,-0.090457,0.071769,0.000000,-0.067514,-0.037916,-0.000000
5.110000,2.064438,1.426818,-1.441638,0.411197,0.827868,-0.011160,-0.717543,-0.919225,-0.225469,0.407769,-0.632595,0.078601,2.001951,4.590109,3.171887,-0.091111,0.071379,0.000000,-0.063323,-0.039704,0.000000
5.120000,2.068514,1.435051,-1.441761,0.404043,0.818645,-0.013410,-0.713366,-0.925320,-0.224524,0.427465,-0.586356,0.110249,1.936869,4.657309,3.156537,-0.091723,0.070972,0.000000,-0.059070,-0.041433,-0.000000
5.130000,2.072519,1.443191,-1.441906,0.396931,0.809363,-0.015649,-0.708996,-0.930950,-0.223264,0.446499,-0.539455,0.141707,1.869545,4.722418,3.133956,-0.092293,0.070547,0.000000,-0.054754,-0.043103,-0.000000
5.140000,2.076453,1.451238,-1.442074,0.389863,0.800027,-0.017874,-0.704438,-0.936107,-0.221691,0.464849,-0.491915,0.172904,1.800254,4.785354,3.104197,-0.092818,0.070106,0.000000,-0.050377,-0.044713,0.000000
5.150000,2.080316,1.459191,-1.442264,0.382843,0.790642,-0.020082,-0.699701,-0.940786,-0.219807,0.482498,-0.443756,0.203767,1.729268,4.846037,3.067311,-0.093300,0.069649,0.000000,-0.045939,-0.046261,0.000000
5.160000,2.084110,1.467050,-1.442475,0.375870,0.781213,-0.022270,-0.694791,-0.944980,-0.217617,0.499431,-0.394998,0.234264,1.656842,4.904279,3.022407,-0.093737,0.069177,0.000000,-0.041439,-0.047746,-0.000000
5.170000,2.087834,1.474815,-1.442709,0.368947,0.771744,-0.024433,-0.689715,-0.948684,-0.215124,0.515632,-0.345674,0.264235,1.583274,4.960119,2.970595,-0.094129,0.068690,0.000000,-0.036880,-0.049168,-0.000000
5.180000,2.091489,1.482485,-1.442964,0.362076,0.762241,-0.026571,-0.684480,-0.951892,-0.212334,0.531093,-0.295803,0.293653,1.508843,5.013489,2.912039,-0.094474,0.068190,0.000000,-0.032261,-0.050527,0.000000
5.190000,2.095076,1.490060,-1.443240,0.355258,0.752708,-0.028679,-0.679095,-0.954598,-0.209253,0.545807,-0.245412,0.322453,1.433825,5.064322,2.846909,-0.094774,0.067676,0.000000,-0.027583,-0.051822,-0.000000
5.200000,2.098594,1.497539,-1.443538,0.348495,0.743151,-0.030755,-0.673567,-0.956799,-0.205887,0.559769,-0.194526,0.350570,1.358498,5.112549,2.775369,-0.095026,0.067149,0.000000,-0.022848,-0.053053,0.000000
5.210000,2.102046,1.504923,-1.443855,0.341787,0.733574,-0.032796,-0.667903,-0.958487,-0.202243,0.572970,-0.143173,0.377973,1.283329,5.158163,2.696741,-0.095230,0.066610,0.000000,-0.018056,-0.054219,0.000000
5.220000,2.105430,1.512211,-1.444193,0.335137,0.723983,-0.034799,-0.662110,-0.959660,-0.198330,0.585428,-0.091374,0.404523,1.208383,5.201029,2.612140,-0.095387,0.066060,0.000000,-0.013208,-0.055324,0.000000
5.230000,2.108749,1.519403,-1.444551,0.328545,0.714382,-0.036762,-0.656196,-0.960314,-0.194156,0.597139,-0.039161,0.430197,1.133914,5.241070,2.521838,-0.095494,0.065499,0.000000,-0.008305,-0.056367,0.000000
5.240000,2.112001,1.526498,-1.444928,0.322014,0.704778,-0.038681,-0.650170,-0.960442,-0.189729,0.608109,0.013438,0.454941,1.060177,5.278213,2.426103,-0.095553,0.064927,0.000000,-0.003348,-0.057348,0.000000
5.250000,2.115189,1.533498,-1.445325,0.315542,0.695175,-0.040555,-0.644037,-0.960044,-0.185060,0.618346,0.066393,0.478702,0.987426,5.312380,2.325207,-0.095561,0.064347,0.000000,0.001661,-0.058269,0.000000
5.260000,2.118313,1.540402,-1.445739,0.309133,0.685579,-0.042382,-0.637805,-0.959114,-0.180158,0.627844,0.119664,0.501456,0.916348,5.343763,2.218749,-0.095519,0.063757,0.000000,0.006720,-0.059129,-0.000000
5.270000,2.121372,1.547210,-1.446172,0.302787,0.675995,-0.044158,-0.631482,-0.957649,-0.175035,0.636658,0.173246,0.523092,0.846713,5.371987,2.107752,-0.095427,0.063159,0.000000,0.011829,-0.059933,0.000000
5.280000,2.124368,1.553922,-1.446622,0.296504,0.666428,-0.045882,-0.625074,-0.955648,-0.169700,0.644784,0.227093,0.543597,0.778720,5.396946,1.992568,-0.095282,0.062553,0.000000,0.016985,-0.060682,0.000000
5.290000,2.127302,1.560538,-1.447090,0.290285,0.656884,-0.047551,-0.618589,-0.953107,-0.164167,0.652239,0.281174,0.562930,0.712570,5.418533,1.873549,-0.095087,0.061940,0.000000,0.022187,-0.061377,0.000000
5.300000,2.130174,1.567060,-1.447573,0.284132,0.647368,-0.049164,-0.612032,-0.950024,-0.158446,0.659042,0.335452,0.581056,0.648465,5.436639,1.751048,-0.094839,0.061320,0.000000,0.027431,-0.062019,-0.000000
5.310000,2.132985,1.573486,-1.448073,0.278045,0.637885,-0.050720,-0.605410,-0.946397,-0.152550,0.665189,0.389877,0.597957,0.587281,5.451609,1.625003,-0.094538,0.060694,0.000000,0.032714,-0.062608,0.000000
5.320000,2.135736,1.579817,-1.448587,0.272024,0.628441,-0.052215,-0.598730,-0.942226,-0.146491,0.670765,0.444452,0.613566,0.528462,5.462828,1.496231,-0.094184,0.060062,0.000000,0.038038,-0.063153,-0.000000
5.330000,2.138426,1.586055,-1.449117,0.266071,0.619042,-0.053649,-0.591997,-0.937508,-0.140283,0.675766,0.499120,0.627874,0.472125,5.470132,1.365134,-0.093777,0.059425,0.000000,0.043396,-0.063653,0.000000
5.340000,2.141057,1.592198,-1.449660,0.260184,0.609693,-0.055020,-0.585217,-0.932243,-0.133938,0.680216,0.553841,0.640862,0.418390,5.473360,1.232116,-0.093316,0.058784,0.000000,0.048787,-0.064109,0.000000
5.350000,2.143630,1.598249,-1.450217,0.254366,0.600399,-0.056327,-0.578394,-0.926431,-0.127470,0.684143,0.608573,0.652511,0.367374,5.472347,1.097580,-0.092801,0.058138,0.000000,0.054205,-0.064525,0.000000
5.360000,2.146145,1.604207,-1.450786,0.248617,0.591166,-0.057569,-0.571536,-0.920072,-0.120892,0.687540,0.663251,0.662813,0.320033,5.467495,0.961844,-0.092232,0.057488,0.000000,0.059646,-0.064898,0.000000
5.370000,2.148602,1.610072,-1.451368,0.242936,0.582000,-0.058745,-0.564645,-0.913166,-0.114218,0.690516,0.717882,0.671750,0.275546,5.458007,0.825406,-0.091608,0.056834,0.000000,0.065110,-0.065241,-0.000000
5.380000,2.151004,1.615847,-1.451961,0.237324,0.572905,-0.059853,-0.557727,-0.905715,-0.107462,0.693061,0.772395,0.679320,0.233930,5.443652,0.688679,-0.090930,0.056178,0.000000,0.070589,-0.065551,0.000000
5.390000,2.153349,1.621531,-1.452565,0.231781,0.563887,-0.060894,-0.550785,-0.897719,-0.100636,0.695204,0.826738,0.685524,0.195201,5.424198,0.552077,-0.090196,0.055518,0.000000,0.076080,-0.065830,0.000000
5.400000,2.155640,1.627125,-1.453179,0.226308,0.554952,-0.061866,-0.543824,-0.889181,-0.093756,0.696975,0.880861,0.690364,0.159376,5.399412,0.416013,-0.089408,0.054856,0.000000,0.081577,-0.066082,0.000000
5.410000,2.157876,1.632630,-1.453802,0.220905,0.546105,-0.062769,-0.536847,-0.880103,-0.086834,0.698366,0.934686,0.693836,0.127357,5.369626,0.281177,-0.088565,0.054191,0.000000,0.087072,-0.066305,0.000000
5.420000,2.160058,1.638047,-1.454434,0.215571,0.537352,-0.063602,-0.529858,-0.870488,-0.079883,0.699492,0.988209,0.695979,0.098165,5.333975,0.147671,-0.087667,0.053525,0.000000,0.092563,-0.066510,-0.000000
5.430000,2.162187,1.643377,-1.455074,0.210308,0.528697,-0.064366,-0.522858,-0.860340,-0.072918,0.700339,1.041345,0.696795,0.071708,5.292158,0.015875,-0.086714,0.052856,0.000000,0.098043,-0.066695,0.000000
5.440000,2.164264,1.648622,-1.455721,0.205114,0.520147,-0.065061,-0.515852,-0.849663,-0.065952,0.700935,1.094030,0.696304,0.047895,5.243875,-0.113831,-0.085706,0.052186,0.000000,0.103504,-0.066862,0.000000
5.450000,2.166290,1.653781,-1.456375,0.199991,0.511706,-0.065685,-0.508840,-0.838461,-0.058997,0.701305,1.146200,0.694527,0.026632,5.188823,-0.241069,-0.084644,0.051514,0.000000,0.108938,-0.067013,0.000000
5.460000,2.168264,1.658856,-1.457034,0.194937,0.503379,-0.066241,-0.501827,-0.826741,-0.052066,0.701441,1.197766,0.691468,0.008687,5.127152,-0.364854,-0.083527,0.050841,0.000000,0.114336,-0.067148,0.000000
5.470000,2.170189,1.663849,-1.457699,0.189954,0.495173,-0.066727,-0.494812,-0.814508,-0.045171,0.701448,1.248698,0.687213,-0.006998,5.058056,-0.485485,-0.082357,0.050166,0.000000,0.119694,-0.067276,-0.000000
5.480000,2.172064,1.668760,-1.458369,0.185041,0.487091,-0.067144,-0.487798,-0.801769,-0.038326,0.701308,1.298901,0.681770,-0.020618,4.981178,-0.602658,-0.081134,0.049491,0.000000,0.125001,-0.067394,0.000000
5.490000,2.173890,1.673591,-1.459042,0.180198,0.479139,-0.067494,-0.480786,-0.788533,-0.031540,0.701042,1.348294,0.675173,-0.032372,4.896164,-0.716067,-0.079857,0.048814,0.000000,0.130248,-0.067504,0.000000
5.500000,2.175668,1.678343,-1.459718,0.175425,0.471322,-0.067775,-0.473778,-0.774806,-0.024826,0.700666,1.396796,0.667462,-0.042457,4.802657,-0.825406,-0.078529,0.048136,0.000000,0.135425,-0.067608,0.000000
5.510000,2.177399,1.683018,-1.460397,0.170723,0.463645,-0.067990,-0.466774,-0.760600,-0.018195,0.700167,1.444309,0.658646,-0.050297,4.700538,-0.929529,-0.077149,0.047458,0.000000,0.140521,-0.067703,-0.000000
5.520000,2.179083,1.687617,-1.461078,0.166090,0.456112,-0.068140,-0.459775,-0.745924,-0.011656,0.699630,1.490765,0.648849,-0.056957,4.589185,-1.029075,-0.075719,0.046778,0.000000,0.145527,-0.067797,-0.000000
5.530000,2.180721,1.692141,-1.461760,0.161527,0.448728,-0.068224,-0.452781,-0.730789,-0.005221,0.699031,1.536060,0.638080,-0.062729,4.468213,-1.123842,-0.074239,0.046098,0.000000,0.150431,-0.067888,-0.000000
5.540000,2.182313,1.696592,-1.462442,0.157034,0.441497,-0.068244,-0.445794,-0.715207,0.001102,0.698377,1.580096,0.626389,-0.067905,4.337236,-1.213628,-0.072710,0.045417,0.000000,0.155221,-0.067975,0.000000
5.550000,2.183861,1.700971,-1.463125,0.152611,0.434425,-0.068202,-0.438814,-0.699191,0.007304,0.697674,1.622770,0.613825,-0.072776,4.195868,-1.298230,-0.071135,0.044735,0.000000,0.159886,-0.068059,-0.000000
5.560000,2.185366,1.705281,-1.463806,0.148258,0.427515,-0.068099,-0.431841,-0.682756,0.013376,0.696897,1.663979,0.600404,-0.077013,4.043685,-1.376496,-0.069513,0.044052,0.000000,0.164414,-0.068137,0.000000
5.570000,2.186827,1.709522,-1.464486,0.143974,0.420771,-0.067935,-0.424876,-0.665917,0.019310,0.696105,1.703609,0.586271,-0.081606,3.880347,-1.449290,-0.067847,0.043369,0.000000,0.168789,-0.068214,0.000000
5.580000,2.188245,1.713697,-1.465165,0.139761,0.414198,-0.067713,-0.417919,-0.648690,0.025099,0.695263,1.741547,0.571437,-0.086922,3.705472,-1.516526,-0.066138,0.042685,0.000000,0.173000,-0.068286,0.000000
5.590000,2.189622,1.717807,-1.465840,0.135616,0.407799,-0.067434,-0.410971,-0.631092,0.030736,0.694363,1.777678,0.555959,-0.093329,3.518681,-1.578120,-0.064388,0.042000,0.000000,0.177033,-0.068352,-0.000000
5.600000,2.190958,1.721853,-1.466513,0.131541,0.401577,-0.067099,-0.404032,-0.613143,0.036216,0.693391,1.811880,0.539894,-0.101195,3.319594,-1.633984,-0.062598,0.041315,0.000000,0.180873,-0.068409,0.000000
5.610000,2.192253,1.725839,-1.467182,0.127535,0.395537,-0.066710,-0.397104,-0.594861,0.041532,0.692319,1.844042,0.523263,-0.110534,3.107469,-1.683119,-0.060771,0.040629,0.000000,0.184507,-0.068455,0.000000
5.620000,2.193509,1.729765,-1.467847,0.123599,0.389681,-0.066269,-0.390186,-0.576269,0.046680,0.691157,1.874002,0.506210,-0.122111,2.882331,-1.726465,-0.058909,0.039943,0.000000,0.187917,-0.068491,0.000000
5.630000,2.194726,1.733633,-1.468507,0.119732,0.384012,-0.065777,-0.383281,-0.557389,0.051655,0.689867,1.901644,0.488753,-0.136338,2.643844,-1.764049,-0.057013,0.039257,0.000000,0.191089,-0.068511,-0.000000
5.640000,2.195904,1.737445,-1.469163,0.115933,0.378534,-0.065236,-0.376389,-0.538244,0.056454,0.688420,1.926834,0.470948,-0.153626,2.391672,-1.795897,-0.055088,0.038571,0.000000,0.194007,-0.068512,-0.000000
5.650000,2.197044,1.741204,-1.469812,0.112204,0.373248,-0.064648,-0.369513,-0.518861,0.061073,0.686783,1.949431,0.452854,-0.174386,2.125480,-1.822035,-0.053134,0.037885,0.000000,0.196655,-0.068491,-0.000000
5.660000,2.198148,1.744911,-1.470455,0.108543,0.368157,-0.064015,-0.362654,-0.499264,0.065510,0.684930,1.969328,0.434497,-0.199297,1.844111,-1.841747,-0.051155,0.037199,0.000000,0.199021,-0.068445,0.000000
5.670000,2.199216,1.748568,-1.471092,0.104951,0.363264,-0.063339,-0.355815,-0.479484,0.069762,0.682795,1.986301,0.416004,-0.228470,1.548150,-1.855892,-0.049155,0.036514,0.000000,0.201081,-0.068366,-0.000000
5.680000,2.200247,1.752177,-1.471722,0.101427,0.358568,-0.062621,-0.348999,-0.459549,0.073829,0.680345,2.000241,0.397397,-0.262284,1.237361,-1.864589,-0.047135,0.035830,0.000000,0.202820,-0.068251,-0.000000
5.690000,2.201244,1.755740,-1.472344,0.097971,0.354073,-0.061863,-0.342210,-0.439490,0.077710,0.677533,2.010998,0.378730,-0.301118,0.911508,-1.867954,-0.045099,0.035148,0.000000,0.204224,-0.068095,0.000000
5.700000,2.202207,1.759259,-1.472959,0.094582,0.349779,-0.061067,-0.335450,-0.419340,0.081404,0.674305,2.018420,0.360056,-0.345350,0.570356,-1.866106,-0.043052,0.034467,0.000000,0.205274,-0.067892,0.000000
5.710000,2.203136,1.762736,-1.473566,0.091261,0.345686,-0.060235,-0.328724,-0.399132,0.084911,0.670693,2.022437,0.341407,-0.397542,0.211565,-1.858694,-0.040995,0.033789,0.000000,0.205962,-0.067644,-0.000000
5.720000,2.204032,1.766174,-1.474164,0.088008,0.341796,-0.059370,-0.322038,-0.378903,0.088232,0.666432,2.022694,0.322877,-0.455622,-0.162739,-1.846359,-0.038934,0.033113,0.000000,0.206251,-0.067325,0.000000
