time,x,y,z,vx,vy,vz,ax,ay,az,jx,jy,jz,sx,sy,sz,roll,pitch,yaw,p,q,r
0.000000,-2.713982,0.235134,-1.500451,-0.016498,-0.007773,0.004067,0.174546,0.140131,0.165113,-0.603906,-2.031313,-5.313621,33.908386,12.349867,121.000387,0.014526,-0.018095,0.000000,-0.218514,0.072553,0.000000
0.010000,-2.714139,0.235063,-1.500402,-0.014777,-0.006471,0.005472,0.170155,0.120380,0.117694,-0.278855,-1.923987,-4.202537,31.121399,9.191642,101.566894,0.012418,-0.017554,0.000000,-0.203821,0.036369,0.000000
0.020000,-2.714278,0.235004,-1.500343,-0.013084,-0.005362,0.006455,0.168878,0.101553,0.080449,0.018911,-1.845999,-3.275453,28.451096,6.477781,84.182413,0.010436,-0.017355,0.000000,-0.193194,0.003898,0.000000
0.030000,-2.714400,0.234955,-1.500274,-0.011390,-0.004438,0.007109,0.170446,0.083377,0.051638,0.290553,-1.793035,-2.512418,25.896476,4.182662,68.739210,0.008543,-0.017465,0.000000,-0.185905,-0.025269,0.000000
0.040000,-2.714506,0.234915,-1.500201,-0.009667,-0.003693,0.007511,0.174606,0.065622,0.029717,0.537223,-1.761036,-1.894557,23.456501,2.280661,55.129599,0.006709,-0.017851,0.000000,-0.181329,-0.051453,0.000000
0.050000,-2.714594,0.234881,-1.500125,-0.007890,-0.003125,0.007722,0.181112,0.048099,0.013323,0.760065,-1.746197,-1.404077,21.130516,0.746159,43.245399,0.004909,-0.018485,0.000000,-0.178919,-0.074908,0.000000
0.060000,-2.714663,0.234852,-1.500047,-0.006038,-0.002731,0.007792,0.189731,0.030653,0.001267,0.960210,-1.744973,-1.024257,18.917153,-0.446470,32.979336,0.003124,-0.019341,0.000000,-0.178197,-0.095837,0.000000
0.070000,-2.714714,0.234826,-1.499969,-0.004089,-0.002512,0.007758,0.200244,0.013165,-0.007479,1.138781,-1.754072,-0.739456,16.815569,-1.322848,24.223473,0.001341,-0.020394,0.000000,-0.178735,-0.114411,0.000000
0.080000,-2.714745,0.234801,-1.499892,-0.002027,-0.002468,0.007650,0.212439,-0.004453,-0.013791,1.296890,-1.770461,-0.535113,14.824774,-1.908594,16.870039,-0.000453,-0.021622,0.000000,-0.180154,-0.130776,-0.000000
0.090000,-2.714754,0.234776,-1.499817,0.000165,-0.002601,0.007488,0.226117,-0.022259,-0.018404,1.435642,-1.791361,-0.397740,12.943762,-2.229321,10.811236,-0.002264,-0.023002,0.000000,-0.182115,-0.145063,0.000000
0.100000,-2.714741,0.234748,-1.499743,0.002500,-0.002914,0.007286,0.241091,-0.040286,-0.021927,1.556130,-1.814250,-0.314930,11.171694,-2.310694,5.939483,-0.004096,-0.024516,0.000000,-0.184321,-0.157392,0.000000
0.110000,-2.714704,0.234717,-1.499671,0.004990,-0.003408,0.007052,0.257182,-0.058543,-0.024847,1.659436,-1.836862,-0.275353,9.507419,-2.178290,2.146811,-0.005951,-0.026144,0.000000,-0.186508,-0.167880,-0.000000
0.120000,-2.714641,0.234679,-1.499602,0.007646,-0.004086,0.006790,0.274226,-0.077016,-0.027544,1.746634,-1.857189,-0.268756,7.950021,-1.857747,-0.674471,-0.007826,-0.027868,0.000000,-0.188449,-0.176644,0.000000
0.130000,-2.714550,0.234634,-1.499535,0.010477,-0.004949,0.006500,0.292065,-0.095673,-0.030301,1.818789,-1.873476,-0.285964,6.498538,-1.374690,-2.632132,-0.009718,-0.029672,0.000000,-0.189951,-0.183798,0.000000
0.140000,-2.714430,0.234580,-1.499472,0.013490,-0.005999,0.006183,0.310555,-0.114467,-0.033315,1.876955,-1.884226,-0.318879,5.152047,-0.754746,-3.833936,-0.011623,-0.031539,0.000000,-0.190855,-0.189460,0.000000
0.150000,-2.714280,0.234514,-1.499412,0.016690,-0.007238,0.005833,0.329561,-0.133335,-0.036708,1.922177,-1.888200,-0.360482,3.909669,-0.023550,-4.387646,-0.013533,-0.033457,0.000000,-0.191034,-0.193750,-0.000000
0.160000,-2.714096,0.234434,-1.499355,0.020082,-0.008666,0.005447,0.348959,-0.152205,-0.040534,1.955482,-1.884411,-0.404828,2.769513,0.793366,-4.400870,-0.015441,-0.035411,0.000000,-0.190393,-0.196789,0.000000
0.170000,-2.713877,0.234340,-1.499303,0.023670,-0.010282,0.005021,0.368634,-0.170995,-0.044797,1.977904,-1.872132,-0.447056,1.731755,1.670267,-3.981588,-0.017338,-0.037389,0.000000,-0.188867,-0.198700,0.000000
0.180000,-2.713622,0.234228,-1.499255,0.027456,-0.012085,0.004550,0.388484,-0.189618,-0.049455,1.990454,-1.850891,-0.483377,0.794990,2.581571,-3.237426,-0.019215,-0.039382,0.000000,-0.186420,-0.199604,0.000000
0.190000,-2.713328,0.234097,-1.499212,0.031440,-0.014074,0.004031,0.408414,-0.207982,-0.054436,1.994137,-1.820471,-0.511081,-0.041729,3.501658,-2.276056,-0.021063,-0.041379,0.000000,-0.183044,-0.199623,0.000000
0.200000,-2.712993,0.233946,-1.499175,0.035624,-0.016244,0.003460,0.428340,-0.225997,-0.059643,1.989948,-1.780914,-0.528540,-0.779541,4.404902,-1.205901,-0.022873,-0.043373,0.000000,-0.178758,-0.198872,0.000000
0.210000,-2.712615,0.233772,-1.499143,0.040007,-0.018593,0.002836,0.448219,-0.243699,-0.065457,1.985606,-1.761697,-0.646520,-1.286160,4.688830,-2.334516,-0.024647,-0.045356,0.000000,-0.176266,-0.197626,-0.000000
0.220000,-2.712192,0.233574,-1.499118,0.044588,-0.021116,0.002152,0.467939,-0.260795,-0.070981,1.953370,-1.638916,-0.390763,-3.969313,14.758749,34.022537,-0.026358,-0.047322,0.000000,-0.164279,-0.195311,-0.000000
0.230000,-2.711722,0.233349,-1.499100,0.049364,-0.023804,0.001425,0.487329,-0.276707,-0.074215,1.931214,-1.573777,-0.374755,-0.411676,-1.897832,-31.434698,-0.027954,-0.049264,0.000000,-0.157579,-0.192970,-0.000000
0.240000,-2.711204,0.233097,-1.499090,0.054334,-0.026650,0.000659,0.506614,-0.292528,-0.079520,1.921584,-1.573821,-0.625884,-2.690193,7.031964,0.849903,-0.029532,-0.051183,0.000000,-0.156637,-0.190480,0.000000
0.250000,-2.710635,0.232816,-1.499087,0.059496,-0.029653,-0.000166,0.525659,-0.307771,-0.085216,1.887746,-1.477003,-0.524684,-2.883498,7.191688,-0.198488,-0.031049,-0.053073,0.000000,-0.146956,-0.187338,0.000000
0.260000,-2.710013,0.232503,-1.499093,0.064846,-0.032803,-0.001044,0.544377,-0.322173,-0.090474,1.855220,-1.402660,-0.526657,-3.143078,7.648610,-0.028007,-0.032481,-0.054930,0.000000,-0.139258,-0.183809,0.000000
0.270000,-2.709337,0.232159,-1.499108,0.070382,-0.036094,-0.001975,0.562794,-0.335811,-0.095730,1.829384,-1.324342,-0.523711,-2.470141,8.032849,0.451905,-0.033833,-0.056754,0.000000,-0.131191,-0.180987,-0.000000
0.280000,-2.708605,0.231781,-1.499133,0.076101,-0.039516,-0.002959,0.580938,-0.348645,-0.100950,1.796433,-1.241620,-0.521092,-4.126412,8.507820,0.065265,-0.035103,-0.058549,0.000000,-0.122700,-0.177456,-0.000000
0.290000,-2.707815,0.231368,-1.499168,0.082000,-0.043064,-0.003994,0.598695,-0.360629,-0.106155,1.756213,-1.154725,-0.519111,-3.451077,8.844528,0.495279,-0.036286,-0.060303,0.000000,-0.113807,-0.173200,0.000000
0.300000,-2.706964,0.230919,-1.499213,0.088074,-0.046726,-0.005082,0.616096,-0.371729,-0.111314,1.723647,-1.064613,-0.512624,-3.513509,9.196886,0.635432,-0.037378,-0.062019,0.000000,-0.104626,-0.169749,-0.000000
0.310000,-2.706053,0.230433,-1.499269,0.094320,-0.050495,-0.006220,0.633149,-0.381906,-0.116408,1.686697,-0.970127,-0.505907,-3.546475,9.543630,0.769061,-0.038377,-0.063698,0.000000,-0.095030,-0.165872,-0.000000
0.320000,-2.705077,0.229909,-1.499338,0.100736,-0.054361,-0.007409,0.649856,-0.391133,-0.121423,1.655798,-0.875219,-0.496714,-2.941776,9.583817,1.008288,-0.039279,-0.065341,0.000000,-0.085422,-0.162628,-0.000000
0.330000,-2.704037,0.229346,-1.499418,0.107317,-0.058315,-0.008648,0.666251,-0.399393,-0.126341,1.621376,-0.775382,-0.487028,-3.947888,10.385260,0.925265,-0.040084,-0.066952,0.000000,-0.075345,-0.159046,0.000000
0.340000,-2.702931,0.228743,-1.499511,0.114059,-0.062345,-0.009936,0.682268,-0.406623,-0.131163,1.583273,-0.670584,-0.477037,-3.351763,10.421223,1.131520,-0.040784,-0.068523,0.000000,-0.064796,-0.155111,0.000000
0.350000,-2.701756,0.228099,-1.499617,0.120961,-0.066443,-0.011271,0.697943,-0.412807,-0.135874,1.551723,-0.565732,-0.464949,-3.269738,10.696634,1.224530,-0.041380,-0.070059,0.000000,-0.054271,-0.151858,-0.000000
0.360000,-2.700511,0.227414,-1.499736,0.128017,-0.070598,-0.012653,0.713294,-0.417922,-0.140462,1.518484,-0.456784,-0.452587,-3.169544,10.962130,1.304011,-0.041868,-0.071562,0.000000,-0.043361,-0.148450,0.000000
0.370000,-2.699195,0.226687,-1.499870,0.135226,-0.074798,-0.014080,0.728333,-0.421944,-0.144918,1.490281,-0.347717,-0.438372,-2.667363,10.973744,1.480848,-0.042247,-0.073033,0.000000,-0.032466,-0.145571,0.000000
0.380000,-2.697806,0.225918,-1.500018,0.142583,-0.079033,-0.015551,0.743095,-0.424862,-0.149230,1.461006,-0.234737,-0.424190,-3.191371,11.623963,1.351806,-0.042516,-0.074476,0.000000,-0.021201,-0.142597,-0.000000
0.390000,-2.696343,0.225106,-1.500181,0.150086,-0.083292,-0.017064,0.757548,-0.426625,-0.153403,1.430529,-0.117800,-0.410234,-2.700784,11.635694,1.494533,-0.042670,-0.075887,0.000000,-0.009561,-0.139513,0.000000
0.400000,-2.694804,0.224252,-1.500359,0.157733,-0.087562,-0.018619,0.771726,-0.427221,-0.157429,1.405322,-0.000995,-0.394820,-2.539453,11.848723,1.529550,-0.042708,-0.077271,0.000000,0.002043,-0.136978,0.000000
0.410000,-2.693187,0.223355,-1.500554,0.165520,-0.091832,-0.020212,0.785652,-0.426633,-0.161301,1.380118,0.119006,-0.379684,-2.369935,12.052954,1.550897,-0.042628,-0.078629,0.000000,0.013949,-0.134451,-0.000000
0.420000,-2.691493,0.222415,-1.500764,0.173445,-0.096091,-0.021844,0.799345,-0.424842,-0.165018,1.359145,0.239136,-0.363332,-1.949454,12.065023,1.664292,-0.042429,-0.079964,0.000000,0.025847,-0.132366,0.000000
0.430000,-2.689718,0.221433,-1.500991,0.181506,-0.100325,-0.023512,0.812836,-0.421840,-0.168570,1.338506,0.362240,-0.347557,-2.181287,12.556835,1.487283,-0.042110,-0.081279,0.000000,0.038030,-0.130320,0.000000
0.440000,-2.687862,0.220409,-1.501234,0.189701,-0.104523,-0.025215,0.826115,-0.417587,-0.171972,1.318085,0.488338,-0.332539,-1.775169,12.566025,1.568583,-0.041667,-0.082573,0.000000,0.050499,-0.128298,-0.000000
0.450000,-2.685924,0.219343,-1.501495,0.198028,-0.108672,-0.026951,0.839214,-0.412075,-0.175217,1.301945,0.614329,-0.316683,-1.580020,12.724906,1.547696,-0.041100,-0.083849,0.000000,0.062944,-0.126719,0.000000
0.460000,-2.683901,0.218235,-1.501773,0.206485,-0.112760,-0.028719,0.852156,-0.405291,-0.178309,1.286724,0.742653,-0.301644,-1.383511,12.873785,1.514467,-0.040408,-0.085109,0.000000,0.075613,-0.125232,0.000000
0.470000,-2.681794,0.217088,-1.502069,0.215071,-0.116774,-0.030517,0.864961,-0.397222,-0.181247,1.275018,0.871178,-0.285910,-1.035416,12.891537,1.576509,-0.039588,-0.086357,0.000000,0.088290,-0.124108,-0.000000
0.480000,-2.679599,0.215900,-1.502384,0.223784,-0.120701,-0.032343,0.877659,-0.387860,-0.184031,1.264383,1.001752,-0.271284,-1.094158,13.223358,1.345707,-0.038641,-0.087594,0.000000,0.101167,-0.123088,0.000000
0.490000,-2.677317,0.214674,-1.502716,0.232624,-0.124527,-0.034197,0.890252,-0.377180,-0.186677,1.254710,1.134347,-0.257926,-0.761950,13.230896,1.379344,-0.037564,-0.088820,0.000000,0.114243,-0.122159,0.000000
0.500000,-2.674946,0.213410,-1.503068,0.241589,-0.128240,-0.036076,0.902766,-0.365175,-0.189187,1.248461,1.266862,-0.244184,-0.565380,13.332886,1.312710,-0.036356,-0.090040,0.000000,0.127303,-0.121579,0.000000
0.510000,-2.672485,0.212110,-1.503438,0.250679,-0.131826,-0.037980,0.915224,-0.351837,-0.191566,1.243530,1.400863,-0.231720,-0.371356,13.423309,1.236043,-0.035018,-0.091254,0.000000,0.140509,-0.121124,0.000000
0.520000,-2.669932,0.210774,-1.503827,0.259893,-0.135272,-0.039907,0.927647,-0.337158,-0.193820,1.241483,1.534900,-0.218958,-0.087243,13.422597,1.260070,-0.033546,-0.092465,0.000000,0.153714,-0.120962,-0.000000
0.530000,-2.667287,0.209405,-1.504236,0.269232,-0.138565,-0.041856,0.940058,-0.321135,-0.195951,1.240755,1.670126,-0.207702,-0.060586,13.621641,0.988560,-0.031943,-0.093675,0.000000,0.167037,-0.120922,-0.000000
0.540000,-2.664547,0.208003,-1.504665,0.278694,-0.141690,-0.043826,0.952466,-0.303752,-0.197980,1.241235,1.806464,-0.198079,0.204713,13.602563,0.991298,-0.030205,-0.094885,0.000000,0.180472,-0.120989,0.000000
0.550000,-2.661713,0.206572,-1.505113,0.288281,-0.144635,-0.045815,0.964893,-0.285007,-0.199911,1.244415,1.942479,-0.188365,0.381535,13.639058,0.895340,-0.028334,-0.096097,0.000000,0.193869,-0.121328,0.000000
0.560000,-2.658781,0.205111,-1.505581,0.297992,-0.147386,-0.047824,0.977358,-0.264900,-0.201753,1.248942,2.079054,-0.180197,0.552039,13.659814,0.794142,-0.026328,-0.097313,0.000000,0.207322,-0.121787,-0.000000
0.570000,-2.655752,0.203625,-1.506069,0.307828,-0.149929,-0.049850,0.989879,-0.243427,-0.203514,1.255702,2.215501,-0.171971,0.770328,13.640221,0.796366,-0.024187,-0.098534,0.000000,0.220757,-0.122470,0.000000
0.580000,-2.652624,0.202113,-1.506578,0.317790,-0.152250,-0.051894,1.002476,-0.220589,-0.205198,1.263728,2.352080,-0.165415,0.832806,13.673347,0.513058,-0.021912,-0.099763,0.000000,0.234203,-0.123263,-0.000000
0.590000,-2.649396,0.200580,-1.507107,0.327878,-0.154336,-0.053954,1.015158,-0.196385,-0.206828,1.272904,2.488650,-0.160606,1.029502,13.624539,0.504015,-0.019503,-0.101000,0.000000,0.247645,-0.124153,-0.000000
0.600000,-2.646066,0.199028,-1.507657,0.338094,-0.156173,-0.056030,1.027941,-0.170819,-0.208409,1.284045,2.624627,-0.155798,1.168649,13.581333,0.403039,-0.016960,-0.102247,0.000000,0.261019,-0.125236,0.000000
0.610000,-2.642634,0.197458,-1.508228,0.348437,-0.157748,-0.058122,1.040842,-0.143894,-0.209949,1.296319,2.760110,-0.152466,1.300193,13.519235,0.305973,-0.014283,-0.103506,0.000000,0.274336,-0.126416,-0.000000
0.620000,-2.639097,0.195874,-1.508820,0.358911,-0.159046,-0.060229,1.053873,-0.115618,-0.211458,1.310202,2.895017,-0.149230,1.456436,13.452338,0.297708,-0.011473,-0.104777,0.000000,0.287585,-0.127752,0.000000
0.630000,-2.635455,0.194278,-1.509433,0.369515,-0.160055,-0.062351,1.067049,-0.085997,-0.212939,1.325027,3.028953,-0.147426,1.506153,13.331629,0.062794,-0.008532,-0.106061,0.000000,0.300725,-0.129165,0.000000
0.640000,-2.631706,0.192673,-1.510067,0.380252,-0.160762,-0.064488,1.080377,-0.055043,-0.214412,1.340663,3.161724,-0.147050,1.637832,13.226113,0.058500,-0.005459,-0.107360,0.000000,0.313734,-0.130639,0.000000
0.650000,-2.627850,0.191064,-1.510722,0.391123,-0.161152,-0.066639,1.093867,-0.022766,-0.215879,1.357586,3.293353,-0.146606,1.726607,13.089673,-0.012988,-0.002257,-0.108675,0.000000,0.326611,-0.132238,0.000000
0.660000,-2.623884,0.189451,-1.511400,0.402130,-0.161213,-0.068805,1.107530,0.010819,-0.217347,1.375162,3.423393,-0.147176,1.803243,12.931930,-0.074265,0.001072,-0.110005,0.000000,0.339310,-0.133887,0.000000
0.670000,-2.619807,0.187840,-1.512098,0.413275,-0.160931,-0.070986,1.121374,0.045697,-0.218822,1.393763,3.552080,-0.147823,1.898793,12.785566,-0.077314,0.004528,-0.111353,0.000000,0.351851,-0.135630,0.000000
0.680000,-2.615618,0.186234,-1.512819,0.424558,-0.160295,-0.073182,1.135407,0.081853,-0.220306,1.412759,3.678691,-0.149185,1.897860,12.532536,-0.193405,0.008109,-0.112718,0.000000,0.364159,-0.137400,0.000000
0.690000,-2.611315,0.184636,-1.513562,0.435983,-0.159290,-0.075392,1.149630,0.119263,-0.221808,1.432002,3.802993,-0.151154,1.964672,12.340926,-0.173534,0.011811,-0.114101,0.000000,0.376210,-0.139182,0.000000
0.700000,-2.606897,0.183050,-1.514327,0.447552,-0.157905,-0.077618,1.164049,0.157907,-0.223328,1.451873,3.925297,-0.152805,1.990967,12.099690,-0.178355,0.015632,-0.115502,0.000000,0.388030,-0.141022,0.000000
0.710000,-2.602363,0.181479,-1.515115,0.459265,-0.156128,-0.079859,1.178667,0.197760,-0.224865,1.471761,4.044862,-0.154453,2.002534,11.834774,-0.162346,0.019570,-0.116921,0.000000,0.399546,-0.142858,0.000000
0.720000,-2.597712,0.179928,-1.515924,0.471126,-0.153946,-0.082115,1.193486,0.238797,-0.226417,1.492044,4.162151,-0.156117,2.034188,11.594819,-0.153367,0.023622,-0.118360,0.000000,0.410800,-0.144726,-0.000000
0.730000,-2.592940,0.178401,-1.516757,0.483135,-0.151348,-0.084387,1.208507,0.280992,-0.227985,1.512026,4.276169,-0.157163,1.959172,11.204223,-0.051914,0.027785,-0.119817,0.000000,0.421693,-0.146564,0.000000
0.740000,-2.588048,0.176903,-1.517612,0.495296,-0.148322,-0.086675,1.223725,0.324308,-0.229558,1.531537,4.386655,-0.157358,1.958347,10.913868,0.002885,0.032055,-0.121292,0.000000,0.432200,-0.148358,-0.000000
0.750000,-2.583034,0.175436,-1.518490,0.507611,-0.144858,-0.088979,1.239138,0.368715,-0.231130,1.550991,4.494159,-0.156904,1.912322,10.558477,0.105331,0.036428,-0.122785,0.000000,0.442373,-0.150148,0.000000
0.760000,-2.577896,0.174007,-1.519392,0.520080,-0.140945,-0.091298,1.254742,0.414178,-0.232690,1.569691,4.597764,-0.154864,1.849629,10.179077,0.239320,0.040901,-0.124297,0.000000,0.452124,-0.151875,0.000000
0.770000,-2.572632,0.172619,-1.520317,0.532706,-0.136571,-0.093632,1.270531,0.460659,-0.234228,1.588156,4.697849,-0.152651,1.817099,9.814266,0.273310,0.045469,-0.125825,0.000000,0.461487,-0.153575,0.000000
0.780000,-2.567241,0.171277,-1.521265,0.545491,-0.131728,-0.095982,1.286501,0.508120,-0.235734,1.605485,4.793555,-0.147929,1.645322,9.322238,0.677878,0.050129,-0.127371,0.000000,0.470387,-0.155188,-0.000000
0.790000,-2.561722,0.169986,-1.522236,0.558437,-0.126406,-0.098347,1.302636,0.556515,-0.237176,1.621488,4.884615,-0.140326,1.576471,8.905712,0.781475,0.054875,-0.128933,0.000000,0.478803,-0.156702,-0.000000
0.800000,-2.556072,0.168751,-1.523232,0.571544,-0.120595,-0.100725,1.318929,0.605799,-0.238538,1.636765,4.971419,-0.131635,1.451690,8.431269,1.027328,0.059704,-0.130510,0.000000,0.486768,-0.158155,0.000000
0.810000,-2.550290,0.167576,-1.524251,0.584816,-0.114287,-0.103117,1.335366,0.655926,-0.239796,1.650417,5.053226,-0.119293,1.308546,7.933078,1.314133,0.064609,-0.132101,0.000000,0.494227,-0.159491,0.000000
0.820000,-2.544375,0.166467,-1.525294,0.598252,-0.107474,-0.105521,1.351935,0.706847,-0.240925,1.663180,5.130065,-0.106465,1.209872,7.423837,1.385045,0.069586,-0.133706,0.000000,0.501168,-0.160745,0.000000
0.830000,-2.538325,0.165428,-1.526361,0.611855,-0.100148,-0.107935,1.368623,0.758509,-0.241908,1.673902,5.201476,-0.088793,0.930834,6.853960,2.158651,0.074631,-0.135323,0.000000,0.507580,-0.161862,0.000000
0.840000,-2.532137,0.164465,-1.527453,0.625625,-0.092301,-0.110358,1.385405,0.810857,-0.242682,1.682379,5.267202,-0.065779,0.793705,6.294156,2.319996,0.079736,-0.136952,0.000000,0.513454,-0.162833,-0.000000
0.850000,-2.525811,0.163584,-1.528568,0.639563,-0.083928,-0.112788,1.402266,0.863834,-0.243220,1.689454,5.327217,-0.041185,0.587064,5.697756,2.733449,0.084898,-0.138590,0.000000,0.518765,-0.163692,-0.000000
0.860000,-2.519345,0.162789,-1.529708,0.653670,-0.075023,-0.115222,1.419185,0.917382,-0.243484,1.693949,5.381194,-0.010562,0.359467,5.078506,3.193688,0.090110,-0.140237,0.000000,0.523528,-0.164387,0.000000
0.870000,-2.512738,0.162085,-1.530873,0.667947,-0.065579,-0.117657,1.436141,0.971436,-0.243432,1.697013,5.428564,0.020928,0.205041,4.405907,3.306731,0.095366,-0.141891,0.000000,0.527651,-0.164962,0.000000
0.880000,-2.505986,0.161479,-1.532062,0.682393,-0.055593,-0.120089,1.453115,1.025932,-0.243039,1.697039,5.469536,0.059814,-0.203918,3.784708,4.481785,0.100661,-0.143551,0.000000,0.531227,-0.165355,0.000000
0.890000,-2.499089,0.160975,-1.533275,0.697009,-0.045059,-0.122516,1.470070,1.080805,-0.242208,1.693807,5.503876,0.106683,-0.398914,3.064270,4.698301,0.105989,-0.145214,0.000000,0.534258,-0.165558,0.000000
0.900000,-2.492045,0.160580,-1.534512,0.711794,-0.033975,-0.124932,1.486985,1.135984,-0.240902,1.688621,5.530862,0.155571,-0.687084,2.343210,5.282379,0.111344,-0.146880,0.000000,0.536626,-0.165617,-0.000000
0.910000,-2.484853,0.160298,-1.535773,0.726749,-0.022339,-0.127332,1.503831,1.191398,-0.239066,1.679940,5.550672,0.212822,-0.993643,1.597120,5.911921,0.116720,-0.148546,0.000000,0.538431,-0.165478,-0.000000
0.920000,-2.477510,0.160135,-1.537058,0.741871,-0.010147,-0.129711,1.520578,1.246971,-0.236645,1.669232,5.562556,0.271503,-1.206406,0.792111,6.081710,0.122110,-0.150212,0.000000,0.539538,-0.165187,-0.000000
0.930000,-2.470015,0.160096,-1.538367,0.757160,0.002601,-0.132063,1.537202,1.302624,-0.233602,1.654587,5.566782,0.339852,-1.726717,0.049089,7.600163,0.127508,-0.151874,0.000000,0.540085,-0.164682,-0.000000
0.940000,-2.462366,0.160189,-1.539700,0.772614,0.015906,-0.134381,1.553656,1.358281,-0.229812,1.635789,5.563105,0.418469,-1.978410,-0.805919,7.871592,0.132910,-0.153532,0.000000,0.540083,-0.163960,-0.000000
0.950000,-2.454562,0.160416,-1.541055,0.788232,0.029766,-0.136657,1.569910,1.413857,-0.225229,1.614502,5.550718,0.499524,-2.338370,-1.659118,8.597426,0.138308,-0.155182,0.000000,0.539370,-0.163069,0.000000
0.960000,-2.446601,0.160786,-1.542433,0.804012,0.044182,-0.138883,1.585930,1.469267,-0.219784,1.588879,5.529753,0.590801,-2.715208,-2.540709,9.359469,0.143695,-0.156824,0.000000,0.538081,-0.161952,-0.000000
0.970000,-2.438481,0.161302,-1.543832,0.819950,0.059151,-0.141049,1.601681,1.524422,-0.213411,1.560832,5.499791,0.683993,-2.966752,-3.454318,9.573722,0.149067,-0.158454,0.000000,0.536079,-0.160672,-0.000000
0.980000,-2.430201,0.161971,-1.545253,0.836044,0.074669,-0.143148,1.617131,1.579232,-0.206065,1.528022,5.460618,0.788457,-3.599187,-4.384799,11.330106,0.154415,-0.160072,0.000000,0.533496,-0.159152,-0.000000
0.990000,-2.421760,0.162797,-1.546695,0.852291,0.090734,-0.145167,1.632224,1.633603,-0.197601,1.490251,5.411956,0.904707,-3.884993,-5.354629,11.625607,0.159735,-0.161675,0.000000,0.530342,-0.157386,0.000000
1.000000,-2.413155,0.163787,-1.548156,0.868687,0.107340,-0.147096,1.646928,1.687438,-0.187967,1.449683,5.353448,1.023499,-4.300811,-6.349588,12.427178,0.165019,-0.163260,0.000000,0.526458,-0.155444,0.000000
1.010000,-2.404385,0.164946,-1.549637,0.885228,0.124481,-0.148922,1.661200,1.740637,-0.177090,1.404084,5.284571,1.153359,-4.729317,-7.379433,13.243824,0.170262,-0.164826,0.000000,0.521949,-0.153249,-0.000000
1.020000,-2.395450,0.166278,-1.551134,0.901910,0.142150,-0.150633,1.675002,1.793099,-0.164897,1.355910,5.206233,1.285596,-4.994411,-8.342853,13.494228,0.175456,-0.166370,0.000000,0.516772,-0.150900,-0.000000
1.030000,-2.386347,0.167790,-1.552649,0.918727,0.160340,-0.152215,1.688300,1.844723,-0.151338,1.302333,5.116574,1.429340,-5.724305,-9.595214,15.261770,0.180595,-0.167890,0.000000,0.510923,-0.148277,-0.000000
1.040000,-2.377075,0.169487,-1.554178,0.935674,0.179041,-0.153655,1.701030,1.895391,-0.136269,1.243192,5.015235,1.584881,-6.015594,-10.627548,15.549096,0.185672,-0.169383,0.000000,0.504399,-0.145374,-0.000000
1.050000,-2.367633,0.171373,-1.555721,0.952745,0.198244,-0.154936,1.713156,1.944994,-0.119638,1.181261,4.903500,1.742758,-6.459305,-11.774216,16.316182,0.190681,-0.170848,0.000000,0.497163,-0.142303,0.000000
1.060000,-2.358020,0.173453,-1.557276,0.969935,0.217937,-0.156042,1.724636,1.993417,-0.101376,1.113920,4.779030,1.910876,-6.908724,-12.964668,17.065554,0.195613,-0.172281,0.000000,0.489151,-0.138946,-0.000000
1.070000,-2.348234,0.175733,-1.558842,0.987236,0.238108,-0.156958,1.735427,2.040548,-0.081415,1.044012,4.645583,2.081781,-7.169587,-13.884693,17.339849,0.200462,-0.173680,0.000000,0.480587,-0.135450,-0.000000
1.080000,-2.338275,0.178217,-1.560415,1.004641,0.258744,-0.157665,1.745497,2.086280,-0.059707,0.968502,4.497984,2.262381,-7.934707,-15.644663,18.780505,0.205222,-0.175044,0.000000,0.471123,-0.131641,0.000000
1.090000,-2.328141,0.180910,-1.561994,1.022143,0.279829,-0.158145,1.754778,2.130457,-0.036133,0.887299,4.335739,2.452587,-8.206809,-16.651915,19.020386,0.209881,-0.176368,0.000000,0.460724,-0.127508,-0.000000
1.100000,-2.317831,0.183815,-1.563577,1.039734,0.301347,-0.158381,1.763236,2.172965,-0.010653,0.803556,4.163526,2.644588,-8.637831,-17.951269,19.603001,0.214434,-0.177651,0.000000,0.449671,-0.123219,-0.000000
1.110000,-2.307346,0.186938,-1.565161,1.057405,0.323282,-0.158352,1.770830,2.213673,0.016784,0.714586,3.975705,2.843655,-9.063219,-19.300775,20.122124,0.218871,-0.178889,0.000000,0.437540,-0.118602,0.000000
1.120000,-2.296683,0.190282,-1.566743,1.075148,0.345614,-0.158039,1.777521,2.252459,0.046230,0.623171,3.780342,3.046097,-9.306281,-20.082285,20.430692,0.223184,-0.180081,0.000000,0.425010,-0.113856,0.000000
1.130000,-2.285843,0.193852,-1.568321,1.092952,0.368324,-0.157421,1.783276,2.289219,0.077723,0.526649,3.567549,3.253623,-9.998321,-22.489247,21.064514,0.227367,-0.181223,0.000000,0.411172,-0.108750,-0.000000
1.140000,-2.274824,0.197650,-1.569890,1.110810,0.391391,-0.156477,1.788036,2.323748,0.111318,0.425050,3.336702,3.465592,-10.229121,-23.373337,21.239101,0.231403,-0.182312,0.000000,0.395939,-0.103268,-0.000000
1.150000,-2.263626,0.201680,-1.571449,1.128710,0.414791,-0.155187,1.791772,2.355931,0.147038,0.321374,3.097399,3.678774,-10.592145,-24.798334,21.458584,0.235284,-0.183344,0.000000,0.380128,-0.097634,0.000000
1.160000,-2.252249,0.205947,-1.572993,1.146642,0.438501,-0.153529,1.794448,2.385631,0.184897,0.213332,2.839960,3.893290,-10.936505,-26.263685,21.565906,0.239000,-0.184318,0.000000,0.362795,-0.091618,0.000000
1.170000,-2.240693,0.210451,-1.574518,1.164595,0.462495,-0.151482,1.796033,2.412716,0.224917,0.103424,2.576030,4.111026,-11.114548,-26.938288,21.831244,0.242539,-0.185230,0.000000,0.345066,-0.085487,-0.000000
1.180000,-2.228958,0.215197,-1.576021,1.182559,0.486747,-0.149024,1.796503,2.437083,0.267110,-0.010416,2.292471,4.326773,-11.650964,-29.786752,21.295923,0.245895,-0.186078,0.000000,0.325524,-0.078932,0.000000
1.190000,-2.217042,0.220187,-1.577497,1.200521,0.511227,-0.146133,1.795812,2.458494,0.311440,-0.128004,1.988688,4.539267,-11.787159,-30.550489,21.318226,0.249043,-0.186856,0.000000,0.304028,-0.071932,-0.000000
1.200000,-2.204947,0.225423,-1.578942,1.218471,0.535906,-0.142788,1.793941,2.476841,0.357898,-0.246681,1.677923,4.751606,-12.016666,-32.018788,20.995569,0.251974,-0.187562,0.000000,0.281873,-0.064789,-0.000000
1.210000,-2.192673,0.230906,-1.580351,1.236396,0.560753,-0.138968,1.790870,2.491983,0.406446,-0.367829,1.347703,4.956968,-12.206127,-33.506548,20.509264,0.254673,-0.188192,0.000000,0.257625,-0.057223,0.000000
1.220000,-2.180219,0.236638,-1.581720,1.254284,0.585735,-0.134652,1.786578,2.503787,0.457055,-0.490679,1.012601,5.165547,-12.357014,-34.011252,20.744413,0.257126,-0.188744,0.000000,0.232893,-0.049486,0.000000
1.230000,-2.167587,0.242621,-1.583043,1.272123,0.610818,-0.129820,1.781052,2.512163,0.509713,-0.614830,0.657043,5.362169,-12.466064,-37.111324,18.544070,0.259322,-0.189214,0.000000,0.205697,-0.041309,-0.000000
1.240000,-2.154777,0.248855,-1.584315,1.289901,0.635966,-0.124451,1.774279,2.516855,0.564249,-0.739854,0.280617,5.544891,-12.531297,-37.662136,18.422239,0.261230,-0.189597,0.000000,0.175835,-0.032674,0.000000
1.250000,-2.141790,0.255340,-1.585530,1.307605,0.661142,-0.118529,1.766253,2.517769,0.620615,-0.865303,-0.100362,5.726374,-12.549726,-39.030402,17.407704,0.262837,-0.189890,0.000000,0.145155,-0.023849,0.000000
1.260000,-2.128625,0.262078,-1.586683,1.325222,0.686308,-0.112033,1.756976,2.514780,0.678710,-0.989917,-0.499828,5.890141,-12.502954,-40.371612,16.184819,0.264124,-0.190090,0.000000,0.111736,-0.014621,0.000000
1.270000,-2.115285,0.269066,-1.587769,1.342740,0.711424,-0.104949,1.746446,2.507768,0.738445,-1.116460,-0.903163,6.057534,-12.662635,-40.753056,16.433063,0.265070,-0.190192,0.000000,0.077513,-0.005101,0.000000
1.280000,-2.101771,0.276306,-1.588780,1.360147,0.736450,-0.097259,1.734658,2.496653,0.799774,-1.240173,-1.324494,6.200758,-12.066526,-43.515700,12.162100,0.265663,-0.190194,0.000000,0.040189,0.004791,0.000000
1.290000,-2.088083,0.283795,-1.589712,1.377429,0.761343,-0.088949,1.721656,2.481214,0.862364,-1.360317,-1.763749,6.317238,-12.088020,-43.848917,11.955548,0.265863,-0.190091,0.000000,-0.000460,0.015056,0.000000
1.300000,-2.074223,0.291532,-1.590557,1.394576,0.786060,-0.080008,1.707449,2.461379,0.926128,-1.480588,-2.205194,6.432228,-11.821519,-44.895816,10.176879,0.265651,-0.189881,0.000000,-0.042252,0.025593,0.000000
1.310000,-2.060192,0.299515,-1.591310,1.411574,0.810556,-0.070423,1.692063,2.437064,0.990902,-1.595826,-2.659396,6.518715,-11.474887,-45.825840,8.193542,0.265006,-0.189560,0.000000,-0.087163,0.036427,-0.000000
1.320000,-2.045992,0.307742,-1.591963,1.428413,0.834786,-0.060187,1.675524,2.408170,1.056523,-1.712264,-3.120414,6.605738,-11.551068,-46.457288,8.126494,0.263903,-0.189125,0.000000,-0.133885,0.047645,-0.000000
1.330000,-2.031624,0.316210,-1.592511,1.445081,0.858704,-0.049290,1.657844,2.374626,1.122895,-1.821366,-3.590215,6.658505,-10.251225,-47.485318,2.373289,0.262318,-0.188572,0.000000,-0.183768,0.059068,-0.000000
1.340000,-2.017091,0.324915,-1.592947,1.461567,0.882262,-0.037728,1.639126,2.336340,1.189562,-1.922160,-4.067694,6.674309,-10.150450,-47.888366,1.841237,0.260216,-0.187901,0.000000,-0.236919,0.070654,-0.000000
1.350000,-2.002393,0.333854,-1.593264,1.477860,0.905414,-0.025499,1.619399,2.293263,1.256386,-2.022014,-4.548360,6.685838,-9.556579,-48.319891,-0.623094,0.257574,-0.187109,0.000000,-0.292041,0.082535,0.000000
1.360000,-1.987534,0.343022,-1.593455,1.493951,0.928111,-0.012601,1.598725,2.245365,1.323144,-2.111512,-5.031561,6.660957,-8.857054,-48.564568,-3.247470,0.254365,-0.186195,0.000000,-0.350116,0.094353,0.000000
1.370000,-1.972515,0.352414,-1.593513,1.509832,0.950305,0.000963,1.577151,2.192605,1.389607,-2.203773,-5.521603,6.630902,-9.075887,-49.154121,-3.866854,0.250563,-0.185156,0.000000,-0.410785,0.106905,-0.000000
1.380000,-1.957338,0.362026,-1.593433,1.525492,0.971947,0.015190,1.554699,2.134945,1.455620,-2.282143,-6.008575,6.560487,-6.572353,-48.203114,-10.262817,0.246140,-0.183989,0.000000,-0.474119,0.119080,0.000000
1.390000,-1.942006,0.371851,-1.593207,1.540923,0.992988,0.030072,1.531563,2.072452,1.520666,-2.345319,-6.490372,6.447443,-6.567016,-48.390413,-11.257157,0.241072,-0.182703,0.000000,-0.539969,0.130735,0.000000
1.400000,-1.926521,0.381884,-1.592830,1.556121,1.013380,0.045599,1.507782,2.005129,1.584559,-2.408936,-6.973509,6.325825,-5.634598,-47.941261,-14.170816,0.235334,-0.181294,0.000000,-0.608082,0.142902,0.000000
1.410000,-1.910884,0.392117,-1.592293,1.571077,1.033075,0.061759,1.483441,1.933028,1.647032,-2.457469,-7.444963,6.162934,-4.619806,-47.213857,-17.191361,0.228905,-0.179766,0.000000,-0.677925,0.154473,-0.000000
1.420000,-1.895100,0.402543,-1.591592,1.585788,1.052025,0.078534,1.458623,1.856184,1.707816,-2.506286,-7.925371,5.993157,-4.596034,-47.962957,-17.951888,0.221764,-0.178120,0.000000,-0.750823,0.166459,-0.000000
1.430000,-1.879170,0.413154,-1.590721,1.600248,1.070183,0.095909,1.433376,1.774595,1.766738,-2.537908,-8.385250,5.778989,-1.704548,-43.950676,-24.918166,0.213887,-0.176357,0.000000,-0.824359,0.177580,0.000000
1.440000,-1.863096,0.423944,-1.589672,1.614455,1.087502,0.113861,1.407930,1.688565,1.823233,-2.551165,-8.821298,5.518816,-1.485553,-44.102692,-25.915975,0.205277,-0.174490,0.000000,-0.897887,0.187634,0.000000
1.450000,-1.846881,0.434902,-1.588442,1.628406,1.103939,0.132365,1.382348,1.598148,1.877108,-2.562878,-9.259120,5.250615,-0.308541,-42.549153,-28.910083,0.195922,-0.172523,0.000000,-0.973186,0.197755,0.000000
1.460000,-1.830529,0.446019,-1.587023,1.642102,1.119451,0.151394,1.356726,1.503531,1.928132,-2.559625,-9.659386,4.949718,0.873077,-40.500206,-31.724602,0.185825,-0.170462,0.000000,-1.045927,0.206794,0.000000
1.470000,-1.814040,0.457287,-1.585412,1.655541,1.133996,0.170917,1.331188,1.404786,1.975972,-2.546162,-10.096321,4.612075,1.909991,-43.911110,-35.339483,0.174977,-0.168316,0.000000,-1.124767,0.215322,-0.000000
1.480000,-1.797419,0.468696,-1.583603,1.668726,1.147532,0.190901,1.305847,1.301820,2.020305,-2.519537,-10.475178,4.252695,3.420171,-31.735927,-36.506465,0.163352,-0.166093,0.000000,-1.197496,0.222582,0.000000
1.490000,-1.780666,0.480235,-1.581593,1.681659,1.160022,0.211311,1.280843,1.195519,2.060962,-2.479478,-10.789926,3.873156,4.505451,-34.153316,-39.838657,0.151055,-0.163810,0.000000,-1.262634,0.228413,0.000000
1.500000,-1.763786,0.491893,-1.579376,1.694344,1.171432,0.232107,1.256292,1.085877,2.097648,-2.428660,-11.132440,3.460189,5.746567,-31.360782,-42.278882,0.138081,-0.161475,0.000000,-1.331289,0.233329,0.000000
1.510000,-1.746780,0.503659,-1.576949,1.706787,1.181729,0.253250,1.232335,0.973030,2.130113,-2.360061,-11.432239,3.029261,7.081385,-28.593870,-44.540270,0.124452,-0.159106,0.000000,-1.393860,0.236046,0.000000
1.520000,-1.729651,0.515523,-1.574310,1.718993,1.190883,0.274695,1.209063,0.857325,2.158107,-2.295261,-11.704012,2.563834,6.741370,-25.717025,-47.881477,0.110219,-0.156713,0.000000,-1.451740,0.239538,0.000000
1.530000,-1.712401,0.527473,-1.571455,1.730971,1.198867,0.296396,1.186514,0.739051,2.181351,-2.207133,-11.945707,2.085562,10.907333,-22.599463,-47.724834,0.095437,-0.154298,0.000000,-1.503759,0.239875,0.000000
1.540000,-1.695033,0.539497,-1.568381,1.742727,1.205656,0.318306,1.165008,0.618516,2.199789,-2.094704,-12.155989,1.597022,10.699864,-19.457275,-50.596561,0.080166,-0.151906,0.000000,-1.549153,0.236794,0.000000
1.550000,-1.677547,0.551582,-1.565088,1.754274,1.211230,0.340375,1.144593,0.496037,2.213185,-1.985846,-12.334303,1.079728,11.934468,-16.167843,-52.188225,0.064477,-0.149543,0.000000,-1.587417,0.234176,0.000000
1.560000,-1.659948,0.563717,-1.561573,1.765623,1.215572,0.362552,1.125337,0.371954,2.221372,-1.863807,-12.476228,0.556032,13.004829,-12.721567,-53.510908,0.048447,-0.147220,0.000000,-1.617279,0.229419,0.000000
1.570000,-1.642236,0.575890,-1.557837,1.776785,1.218665,0.384785,1.107395,0.246587,2.224184,-1.720970,-12.593228,0.001063,15.028198,-10.160537,-56.482809,0.032154,-0.144958,0.000000,-1.639946,0.221998,0.000000
1.580000,-1.624413,0.588086,-1.553878,1.787776,1.220500,0.407017,1.090926,0.120232,2.221404,-1.574468,-12.668603,-0.552649,14.244373,-4.887772,-54.192464,0.015681,-0.142780,0.000000,-1.652693,0.213508,0.000000
1.590000,-1.606481,0.600295,-1.549697,1.798609,1.221068,0.429194,1.075909,-0.006638,2.213155,-1.425717,-12.700995,-1.101545,16.022341,-2.091618,-56.522310,-0.000865,-0.140690,0.000000,-1.655257,0.204114,0.000000
1.600000,-1.588441,0.612504,-1.545294,1.809299,1.220367,0.451261,1.062481,-0.133705,2.199278,-1.258779,-12.705965,-1.674047,16.823618,1.611574,-56.968142,-0.017398,-0.138707,0.000000,-1.649589,0.192325,0.000000
1.610000,-1.570295,0.624698,-1.540672,1.819864,1.218395,0.473161,1.050724,-0.260579,2.179733,-1.092141,-12.661466,-2.234072,17.465082,5.506801,-57.014603,-0.033819,-0.136844,0.000000,-1.632925,0.179934,-0.000000
1.620000,-1.552044,0.636867,-1.535832,1.830320,1.215157,0.494837,1.040738,-0.386949,2.154435,-0.900799,-12.612225,-2.832105,19.841573,6.071550,-60.594977,-0.050042,-0.135117,0.000000,-1.610996,0.164703,-0.000000
1.630000,-1.533689,0.648997,-1.530776,1.840685,1.210658,0.516230,1.032681,-0.512614,2.123192,-0.715490,-12.503741,-3.404081,17.175070,15.674672,-53.699656,-0.065998,-0.133545,0.000000,-1.577337,0.149543,0.000000
1.640000,-1.515231,0.661076,-1.525508,1.850979,1.204909,0.537283,1.026393,-0.636806,2.086473,-0.538462,-12.333893,-3.944920,19.170434,16.538277,-56.405721,-0.081550,-0.132118,0.000000,-1.532493,0.134757,-0.000000
1.650000,-1.496670,0.673091,-1.520032,1.861219,1.197927,0.557941,1.021998,-0.759303,2.044163,-0.340516,-12.158350,-4.514644,19.449798,20.299587,-55.530892,-0.096637,-0.130850,0.000000,-1.483450,0.117753,0.000000
1.660000,-1.478006,0.685031,-1.514351,1.871426,1.189730,0.578147,1.019571,-0.879844,1.996289,-0.144551,-11.944841,-5.057503,19.695980,23.713050,-54.402419,-0.111195,-0.129752,0.000000,-1.427263,0.100608,0.000000
1.670000,-1.459241,0.696882,-1.508470,1.881617,1.180339,0.597848,1.019111,-0.997980,1.942940,0.052789,-11.672238,-5.614835,19.785202,29.499612,-55.672161,-0.125147,-0.128824,0.000000,-1.361430,0.083671,-0.000000
1.680000,-1.440374,0.708634,-1.502396,1.891814,1.169780,0.616988,1.020631,-1.113240,1.884103,0.251442,-11.382321,-6.141773,19.929222,28.420867,-49.639304,-0.138415,-0.128067,0.000000,-1.292502,0.066311,0.000000
1.690000,-1.421405,0.720274,-1.496133,1.902037,1.158083,0.635514,1.024141,-1.225589,1.820230,0.450422,-11.078241,-6.634411,19.819076,33.670451,-50.226060,-0.150992,-0.127486,0.000000,-1.221641,0.048693,-0.000000
1.700000,-1.402333,0.731792,-1.489688,1.912304,1.145279,0.653376,1.029633,-1.334604,1.751368,0.647726,-10.720493,-7.134043,19.653951,36.554483,-48.304873,-0.162822,-0.127079,0.000000,-1.143960,0.031780,0.000000
1.710000,-1.383158,0.743176,-1.483068,1.922636,1.131403,0.670525,1.037070,-1.439972,1.677670,0.838728,-10.349613,-7.601530,19.293851,39.171060,-46.185384,-0.173872,-0.126840,0.000000,-1.065721,0.015570,0.000000
1.720000,-1.363880,0.754416,-1.476280,1.933052,1.116493,0.686914,1.046456,-1.541383,1.599328,1.040275,-9.923163,-8.066630,20.255955,44.554757,-45.817657,-0.184114,-0.126767,0.000000,-0.981832,-0.001435,-0.000000
1.730000,-1.344497,0.765502,-1.469332,1.943572,1.100590,0.702496,1.057824,-1.638429,1.516462,1.227919,-9.491344,-8.496578,17.231972,41.727745,-40.118210,-0.193515,-0.126863,0.000000,-0.899494,-0.016789,0.000000
1.740000,-1.325008,0.776425,-1.462233,1.954214,1.083739,0.717229,1.070955,-1.731218,1.429530,1.399571,-9.058288,-8.888632,17.830096,46.395699,-39.273927,-0.202113,-0.127103,0.000000,-0.819601,-0.030328,0.000000
1.750000,-1.305412,0.787174,-1.454990,1.964997,1.065981,0.731074,1.085851,-1.819408,1.338697,1.577826,-8.577277,-9.273177,17.056607,48.228436,-36.619698,-0.209893,-0.127485,0.000000,-0.736443,-0.044208,0.000000
1.760000,-1.285708,0.797742,-1.447614,1.975937,1.047367,0.743991,1.102448,-1.902762,1.244179,1.739681,-8.091402,-9.625890,16.138014,49.838106,-33.931070,-0.216853,-0.127999,0.000000,-0.655840,-0.056165,0.000000
1.770000,-1.265893,0.808119,-1.440114,1.987051,1.027943,0.755946,1.120680,-1.981110,1.146268,1.907997,-7.572720,-9.951742,16.695129,52.959848,-31.205290,-0.223006,-0.128639,0.000000,-0.574733,-0.068721,0.000000
1.780000,-1.245966,0.818298,-1.432499,1.998356,1.007762,0.766906,1.140535,-2.054216,1.045239,2.056179,-7.051875,-10.249321,12.901446,51.142762,-28.300598,-0.228359,-0.129400,0.000000,-0.496781,-0.078951,0.000000
1.790000,-1.225925,0.828272,-1.424779,2.009866,0.986876,0.776841,1.161724,-2.122159,0.941378,2.182234,-6.532416,-10.518039,13.118978,53.619422,-25.458590,-0.232954,-0.130251,0.000000,-0.422399,-0.086768,0.000000
1.800000,-1.205768,0.838033,-1.416965,2.021595,0.965337,0.785725,1.184204,-2.184765,0.834973,2.311319,-5.987993,-10.758196,11.865640,54.319530,-22.546691,-0.236807,-0.131187,0.000000,-0.348745,-0.094943,0.000000
1.810000,-1.185492,0.847576,-1.409068,2.033554,0.943198,0.793533,1.207886,-2.241953,0.726305,2.422821,-5.449786,-10.970584,10.578220,54.685665,-19.650583,-0.239944,-0.132197,0.000000,-0.279139,-0.101296,0.000000
1.820000,-1.165096,0.856895,-1.401098,2.045756,0.920516,0.800245,1.232629,-2.293638,0.615680,2.524095,-4.882153,-11.148636,9.517044,57.440525,-16.231342,-0.242389,-0.133270,0.000000,-0.209999,-0.106775,-0.000000
1.830000,-1.144577,0.865985,-1.393067,2.058210,0.897345,0.805841,1.258315,-2.339659,0.503416,2.609833,-4.330334,-11.300935,7.617119,52.842230,-14.240143,-0.244161,-0.134392,0.000000,-0.145695,-0.110775,-0.000000
1.840000,-1.123931,0.874841,-1.384985,2.070925,0.873740,0.810308,1.284770,-2.380323,0.389743,2.679306,-3.798527,-11.428056,6.421075,54.856031,-10.916637,-0.245321,-0.135547,0.000000,-0.086402,-0.113298,-0.000000
1.850000,-1.103157,0.883459,-1.376865,2.083907,0.849756,0.813633,1.311864,-2.415536,0.274972,2.736835,-3.245633,-11.521726,4.927529,54.315529,-8.097699,-0.245890,-0.136725,0.000000,-0.028092,-0.114970,0.000000
1.860000,-1.082252,0.891835,-1.368717,2.097164,0.825448,0.815805,1.339458,-2.445326,0.159374,2.779651,-2.714662,-11.593814,3.431027,53.465216,-5.417076,-0.245900,-0.137914,0.000000,0.025435,-0.115414,-0.000000
1.870000,-1.061213,0.899967,-1.360552,2.110698,0.800868,0.816818,1.367390,-2.469729,0.043258,2.803527,-2.162099,-11.621887,1.533453,55.439879,-1.095087,-0.245382,-0.139101,0.000000,0.078011,-0.114596,0.000000
1.880000,-1.040037,0.907852,-1.352384,2.124512,0.776071,0.816670,1.395486,-2.488679,-0.073019,2.814309,-1.639561,-11.634567,0.625801,48.986777,-1.482087,-0.244358,-0.140273,0.000000,0.125549,-0.112767,0.000000
1.890000,-1.018722,0.915488,-1.344223,2.138608,0.751111,0.815358,1.423634,-2.502646,-0.189396,2.812075,-1.151140,-11.633893,-1.270243,50.256554,2.496243,-0.242889,-0.141422,0.000000,0.167994,-0.109959,0.000000
1.900000,-0.997264,0.922873,-1.336081,2.152984,0.726035,0.812883,1.451660,-2.511627,-0.305546,2.790530,-0.648495,-11.592552,-2.845365,48.661443,4.863972,-0.240999,-0.142535,0.000000,0.209405,-0.106001,0.000000
1.910000,-0.975661,0.930008,-1.327969,2.167640,0.700895,0.809248,1.479394,-2.515701,-0.421215,2.753479,-0.168809,-11.538255,-4.450128,47.033646,7.065903,-0.238714,-0.143601,0.000000,0.247133,-0.100939,0.000000
1.920000,-0.953910,0.936891,-1.319900,2.182571,0.675737,0.804461,1.506686,-2.515078,-0.536151,2.702591,0.289697,-11.441583,-5.838225,44.854681,11.194574,-0.236070,-0.144611,0.000000,0.280914,-0.095370,0.000000
1.930000,-0.932009,0.943523,-1.311884,2.197772,0.650608,0.798529,1.533387,-2.509958,-0.650028,2.634402,0.732253,-11.336902,-7.801107,43.641591,9.689593,-0.233104,-0.145558,0.000000,0.312159,-0.088553,0.000000
1.940000,-0.909954,0.949904,-1.303933,2.213236,0.625552,0.791463,1.559315,-2.500487,-0.762879,2.548873,1.157863,-11.226821,-9.189008,41.248309,13.372735,-0.229835,-0.146427,0.000000,0.340969,-0.080500,-0.000000
1.950000,-0.887743,0.956034,-1.296058,2.228955,0.600612,0.783276,1.584321,-2.486888,-0.874420,2.449737,1.558649,-11.078896,-10.746228,39.102969,15.129716,-0.226297,-0.147211,0.000000,0.366157,-0.072014,0.000000
1.960000,-0.865374,0.961916,-1.288271,2.244919,0.575827,0.773980,1.608266,-2.469387,-0.984444,2.336872,1.937628,-10.923804,-12.224312,36.826569,16.737445,-0.222520,-0.147902,0.000000,0.388784,-0.062701,0.000000
1.970000,-0.842844,0.967552,-1.280582,2.261116,0.551237,0.763592,1.630977,-2.448200,-1.092774,2.201651,2.296260,-10.736548,-14.423001,34.740767,19.849537,-0.218531,-0.148492,0.000000,0.408609,-0.052157,0.000000
1.980000,-0.820151,0.972942,-1.273003,2.277533,0.526875,0.752131,1.652269,-2.423549,-1.199167,2.056747,2.629136,-10.544936,-14.538927,31.817942,18.426425,-0.214356,-0.148969,0.000000,0.425881,-0.041156,0.000000
1.990000,-0.797293,0.978090,-1.265543,2.294157,0.502776,0.739615,1.672086,-2.395708,-1.303672,1.903101,2.935339,-10.351350,-16.577720,29.559378,21.122742,-0.210021,-0.149333,0.000000,0.440675,-0.029750,-0.000000
2.000000,-0.774267,0.982998,-1.258214,2.310970,0.478971,0.726065,1.690255,-2.364915,-1.406087,1.728700,3.218901,-10.130111,-17.901055,26.998913,22.255660,-0.205551,-0.149574,0.000000,0.452957,-0.017248,0.000000
2.010000,-0.751073,0.987670,-1.251025,2.327956,0.455487,0.711501,1.706636,-2.331417,-1.506277,1.545556,3.476285,-9.906722,-19.151834,24.412963,23.233723,-0.200970,-0.149684,0.000000,0.463023,-0.004360,0.000000
2.020000,-0.727708,0.992109,-1.243987,2.345096,0.432350,0.695947,1.721090,-2.295481,-1.604123,1.341858,3.706518,-9.658170,-21.159006,21.686993,25.652246,-0.196300,-0.149659,0.000000,0.470470,0.009617,-0.000000
2.030000,-0.704170,0.996319,-1.237109,2.362370,0.409585,0.679427,1.733453,-2.257372,-1.699451,1.131372,3.911170,-9.410961,-20.915636,19.243152,23.746614,-0.191566,-0.149488,0.000000,0.476001,0.023856,0.000000
2.040000,-0.680460,1.000302,-1.230402,2.379758,0.387209,0.661966,1.743702,-2.217342,-1.792361,0.915243,4.090200,-9.167274,-22.724313,16.505045,25.787994,-0.186786,-0.149172,0.000000,0.479700,0.038303,0.000000
2.050000,-0.656575,1.004064,-1.223873,2.397237,0.365243,0.643588,1.751689,-2.175660,-1.882712,0.680682,4.241780,-8.902437,-23.755575,13.870562,26.352466,-0.181980,-0.148704,0.000000,0.481076,0.053719,0.000000
2.060000,-0.632515,1.007609,-1.217533,2.414784,0.343701,0.624320,1.757299,-2.132578,-1.970419,0.439680,4.370641,-8.638286,-24.721363,11.314573,26.835989,-0.177169,-0.148079,0.000000,0.480938,0.069389,-0.000000
2.070000,-0.608279,1.010940,-1.211390,2.432375,0.322595,0.604189,1.760429,-2.088380,-2.055433,0.183824,4.462732,-8.362578,-26.161514,7.681333,27.931168,-0.172372,-0.147292,0.000000,0.478003,0.085864,0.000000
2.080000,-0.583867,1.014062,-1.205452,2.449984,0.301936,0.583221,1.760959,-2.043381,-2.137675,-0.077506,4.536404,-8.087499,-26.085284,7.077488,27.060927,-0.167612,-0.146336,0.000000,0.474001,0.102540,0.000000
2.090000,-0.559279,1.016980,-1.199728,2.467585,0.281730,0.561444,1.758866,-1.997705,-2.217192,-0.343296,4.592846,-7.814290,-27.342955,3.640910,27.934387,-0.162895,-0.145211,0.000000,0.469057,0.119370,-0.000000
2.100000,-0.534516,1.019698,-1.194226,2.485152,0.261983,0.538887,1.754046,-1.951651,-2.293925,-0.621772,4.614305,-7.532118,-28.061556,1.236245,28.127071,-0.158240,-0.143914,0.000000,0.461623,0.136905,-0.000000
2.110000,-0.509577,1.022221,-1.188953,2.502657,0.242697,0.515575,1.746418,-1.905473,-2.367838,-0.904868,4.617633,-7.250458,-28.715717,-1.087336,28.278812,-0.153665,-0.142438,0.000000,0.453212,0.154626,-0.000000
2.120000,-0.484463,1.024554,-1.183917,2.520071,0.223873,0.491539,1.735914,-1.859417,-2.438923,-1.197425,4.587929,-6.965943,-29.621483,-4.330548,28.537059,-0.149184,-0.140782,0.000000,0.442605,0.172900,0.000000
2.130000,-0.459176,1.026700,-1.179124,2.537365,0.205508,0.466806,1.722458,-1.813765,-2.507158,-1.493654,4.542002,-6.681528,-29.608745,-4.826255,28.337408,-0.144815,-0.138941,0.000000,0.431196,0.191320,0.000000
2.140000,-0.433716,1.028665,-1.174583,2.554510,0.187596,0.441405,1.706033,-1.768622,-2.572556,-1.792697,4.481316,-6.397685,-30.354502,-7.813883,28.507018,-0.140562,-0.136915,0.000000,0.419102,0.209848,0.000000
2.150000,-0.408086,1.030454,-1.170298,2.571476,0.170133,0.415365,1.686577,-1.724248,-2.635105,-2.099134,4.390385,-6.112154,-30.757792,-9.842810,28.515385,-0.136440,-0.134701,0.000000,0.405080,0.228841,-0.000000
2.160000,-0.382287,1.032069,-1.166277,2.588231,0.153108,0.388713,1.664042,-1.680859,-2.694796,-2.408394,4.284455,-5.825931,-31.106832,-11.767422,28.533270,-0.132462,-0.132295,0.000000,0.390343,0.247974,0.000000
2.170000,-0.356322,1.033517,-1.162526,2.604746,0.136512,0.361478,1.638396,-1.638658,-2.751639,-2.721275,4.151304,-5.543303,-31.436937,-14.420804,28.179107,-0.128639,-0.129696,0.000000,0.373975,0.267376,0.000000
2.180000,-0.330193,1.034801,-1.159050,2.620989,0.120330,0.333690,1.609609,-1.597873,-2.805653,-3.036462,4.005307,-5.258415,-31.589428,-14.749082,28.804370,-0.124985,-0.126903,0.000000,0.357032,0.286908,-0.000000
2.190000,-0.303903,1.035925,-1.155854,2.636928,0.104549,0.305375,1.577662,-1.558586,-2.856797,-3.353310,3.848034,-4.971005,-31.792670,-17.118866,28.489117,-0.121500,-0.123913,0.000000,0.339618,0.306544,0.000000
2.200000,-0.277456,1.036893,-1.152944,2.652531,0.089153,0.276563,1.542536,-1.520999,-2.905088,-3.671922,3.666925,-4.686991,-31.897254,-18.656413,28.505248,-0.118197,-0.120725,0.000000,0.320807,0.326373,-0.000000
2.210000,-0.250854,1.037709,-1.150324,2.667768,0.074123,0.247283,1.504219,-1.485279,-2.950523,-3.991651,3.474908,-4.399729,-31.952656,-20.077169,28.567805,-0.115085,-0.117339,0.000000,0.301522,0.346306,0.000000
2.220000,-0.224102,1.038377,-1.148000,2.682605,0.059440,0.217562,1.462709,-1.451575,-2.993111,-4.309984,3.262540,-4.119082,-31.787334,-22.040779,27.936484,-0.112171,-0.113753,0.000000,0.281107,0.366264,-0.000000
2.230000,-0.197203,1.038899,-1.145974,2.697011,0.045084,0.187430,1.418017,-1.420054,-3.032884,-4.628948,3.041546,-3.833120,-31.998068,-22.129177,29.272358,-0.109464,-0.109967,0.000000,0.260338,0.386319,-0.000000
2.240000,-0.170163,1.039280,-1.144252,2.710955,0.031032,0.156914,1.370129,-1.390765,-3.069750,-4.948058,2.813498,-3.541041,-31.729834,-23.802584,28.774326,-0.106965,-0.105980,0.000000,0.239310,0.406458,0.000000
2.250000,-0.142986,1.039521,-1.142837,2.724403,0.017261,0.126044,1.319067,-1.363846,-3.103729,-5.264058,2.568763,-3.254331,-31.544122,-24.785649,28.946986,-0.104681,-0.101792,0.000000,0.217362,0.426551,0.000000
2.260000,-0.115677,1.039626,-1.141733,2.737326,0.003747,0.094849,1.264852,-1.339410,-3.134809,-5.578676,2.317051,-2.960913,-31.300404,-25.662782,29.195329,-0.102619,-0.097402,0.000000,0.195114,0.446659,0.000000
2.270000,-0.088241,1.039596,-1.140941,2.749690,-0.009536,0.063358,1.207509,-1.317543,-3.162983,-5.889230,2.054741,-2.675327,-30.867041,-26.658773,28.460737,-0.100781,-0.092811,0.000000,0.172380,0.466712,-0.000000
2.280000,-0.060685,1.039436,-1.140466,2.761466,-0.022613,0.031599,1.147075,-1.298333,-3.188281,-6.197220,1.786807,-2.380391,-30.722894,-26.904722,30.550440,-0.099172,-0.088020,0.000000,0.149380,0.486721,-0.000000
2.290000,-0.033014,1.039145,-1.140310,2.772621,-0.035511,-0.000398,1.083574,-1.281820,-3.210552,-6.502128,1.514582,-2.074922,-30.180972,-27.643137,30.014349,-0.097794,-0.083029,0.000000,0.126185,0.506678,0.000000
2.300000,-0.005235,1.038726,-1.140475,2.783127,-0.048259,-0.032602,1.017053,-1.268067,-3.229808,-6.801207,1.235376,-1.775389,-29.691822,-28.056440,30.435152,-0.096649,-0.077838,0.000000,0.102687,0.526505,0.000000
2.310000,0.022646,1.038180,-1.140963,2.792952,-0.060882,-0.064984,0.947564,-1.257116,-3.246018,-7.095682,0.954376,-1.465404,-29.141720,-28.335777,30.939091,-0.095740,-0.072450,0.000000,0.079131,0.546222,0.000000
2.320000,0.050622,1.037509,-1.141775,2.802069,-0.073410,-0.097512,0.875163,-1.249004,-3.259150,-7.383362,0.667104,-1.162252,-28.433172,-28.893070,30.310748,-0.095068,-0.066864,0.000000,0.055278,0.565786,0.000000
2.330000,0.078685,1.036712,-1.142913,2.810446,-0.085872,-0.130156,0.799916,-1.243768,-3.269215,-7.665175,0.381227,-0.846190,-27.920337,-28.256265,32.928350,-0.094634,-0.061083,0.000000,0.031538,0.585186,0.000000
2.340000,0.106828,1.035791,-1.144379,2.818058,-0.098295,-0.162885,0.721881,-1.241368,-3.276022,-7.940552,0.098212,-0.515917,-27.094211,-28.534678,32.515698,-0.094436,-0.055108,0.000000,0.007984,0.604419,-0.000000
2.350000,0.135044,1.034746,-1.146171,2.824875,-0.110709,-0.195666,0.641135,-1.241816,-3.279561,-8.207267,-0.187311,-0.190489,-26.287992,-28.343237,33.192468,-0.094475,-0.048942,0.000000,-0.015679,0.623426,0.000000
2.360000,0.163323,1.033577,-1.148292,2.830871,-0.123141,-0.228466,0.557758,-1.245093,-3.279791,-8.466750,-0.467320,0.145649,-25.431190,-28.007110,33.886919,-0.094749,-0.042584,0.000000,-0.038987,0.642282,-0.000000
2.370000,0.191658,1.032283,-1.150740,2.836022,-0.135620,-0.261251,0.471843,-1.251179,-3.276637,-8.714139,-0.750452,0.485951,-24.196570,-28.243144,34.329564,-0.095256,-0.036040,0.000000,-0.062571,0.660670,0.000000
2.380000,0.220041,1.030864,-1.153517,2.840300,-0.148174,-0.293987,0.383500,-1.260068,-3.270040,-8.953838,-1.024311,0.835510,-23.736833,-26.498819,35.592582,-0.095998,-0.029311,0.000000,-0.085561,0.678942,-0.000000
2.390000,0.248461,1.029319,-1.156620,2.843684,-0.160830,-0.326639,0.292792,-1.271626,-3.259892,-9.185380,-1.287276,1.194874,-22.396870,-26.436062,36.134000,-0.096965,-0.022398,0.000000,-0.107865,0.697100,0.000000
2.400000,0.276911,1.027647,-1.160049,2.846149,-0.173615,-0.359173,0.199842,-1.285818,-3.246127,-9.402919,-1.549608,1.559577,-21.261254,-25.653196,36.962533,-0.098156,-0.015305,0.000000,-0.130256,0.714738,0.000000
2.410000,0.305381,1.025847,-1.163803,2.847673,-0.186555,-0.391550,0.104779,-1.302618,-3.228638,-9.607405,-1.809963,1.940602,-20.000392,-24.945912,37.951238,-0.099571,-0.008036,0.000000,-0.152746,0.731954,0.000000
2.420000,0.333861,1.023916,-1.167879,2.848238,-0.199676,-0.423733,0.007706,-1.321874,-3.207387,-9.806145,-2.034784,2.306753,-19.370280,-21.409726,36.537830,-0.101200,-0.000592,0.000000,-0.172573,0.749352,0.000000
2.430000,0.362343,1.021852,-1.172277,2.847821,-0.213000,-0.455685,-0.091281,-1.343350,-3.182411,-9.986897,-2.267381,2.697776,-16.756601,-25.134060,41.707091,-0.103026,0.007026,0.000000,-0.193354,0.766009,0.000000
2.440000,0.390815,1.019655,-1.176992,2.846406,-0.226551,-0.487367,-0.191965,-1.367261,-3.153333,-10.148424,-2.508531,3.115481,-15.905479,-21.651375,40.564933,-0.105071,0.014807,0.000000,-0.215212,0.781907,-0.000000
2.450000,0.419267,1.017321,-1.182023,2.843977,-0.240352,-0.518738,-0.294229,-1.393370,-3.120168,-10.301635,-2.712076,3.519820,-14.357141,-20.455165,41.565055,-0.107319,0.022751,0.000000,-0.234334,0.797875,0.000000
2.460000,0.447691,1.014847,-1.187366,2.840517,-0.254425,-0.549757,-0.397923,-1.421406,-3.082864,-10.434253,-2.890167,3.942933,-12.700985,-18.649363,42.523983,-0.109752,0.030854,0.000000,-0.251920,0.813043,-0.000000
2.470000,0.476074,1.012231,-1.193017,2.836014,-0.268787,-0.580381,-0.502902,-1.451396,-3.041321,-10.560452,-3.116922,4.365327,-11.997754,-23.278339,42.462430,-0.112376,0.039112,0.000000,-0.273519,0.828497,0.000000
2.480000,0.504407,1.009470,-1.198972,2.830455,-0.283460,-0.610569,-0.609049,-1.483520,-2.995503,-10.662864,-3.283894,4.802824,-8.457402,-9.991777,45.044971,-0.115207,0.047526,0.000000,-0.290989,0.842972,0.000000
2.490000,0.532680,1.006561,-1.205227,2.823830,-0.298461,-0.640276,-0.716071,-1.516829,-2.945209,-10.740114,-3.385278,5.255654,-7.517668,-13.705447,44.992316,-0.118178,0.056081,0.000000,-0.303876,0.856416,-0.000000
2.500000,0.560880,1.003500,-1.211776,2.816131,-0.313801,-0.669458,-0.823831,-1.551425,-2.890404,-10.808477,-3.528534,5.706851,-5.612295,-11.507429,45.751922,-0.121301,0.064776,0.000000,-0.320330,0.870053,0.000000
2.510000,0.588999,1.000284,-1.218614,2.807351,-0.329494,-0.698069,-0.932179,-1.587339,-2.831061,-10.858339,-3.653451,6.162250,-3.752035,-9.853731,46.291884,-0.124582,0.073609,0.000000,-0.335793,0.883183,0.000000
2.520000,0.617024,0.996909,-1.225735,2.797486,-0.345551,-0.726064,-1.040886,-1.624144,-2.767063,-10.877827,-3.692151,6.641396,-0.717756,-1.376803,48.573288,-0.127992,0.082573,0.000000,-0.345192,0.895034,-0.000000
2.530000,0.644945,0.993371,-1.233133,2.786533,-0.361978,-0.753394,-1.149698,-1.661286,-2.698263,-10.884720,-3.754281,7.113476,-0.670143,-11.145401,45.796671,-0.131494,0.091658,0.000000,-0.356739,0.906850,0.000000
2.540000,0.672751,0.989668,-1.240801,2.774492,-0.378780,-0.780014,-1.258544,-1.699349,-2.624832,-10.879294,-3.843918,7.576187,2.351010,-3.231359,47.685989,-0.135137,0.100868,0.000000,-0.370782,0.918621,0.000000
2.550000,0.700431,0.985794,-1.248731,2.761363,-0.395966,-0.805875,-1.367169,-1.737820,-2.546657,-10.842507,-3.848643,8.058700,4.430536,-1.223083,47.842992,-0.138885,0.110194,0.000000,-0.378827,0.929103,-0.000000
2.560000,0.727975,0.981747,-1.256915,2.747150,-0.413536,-0.830931,-1.475324,-1.776262,-2.463648,-10.784528,-3.833941,8.544098,6.657676,1.412637,48.071980,-0.142710,0.119629,0.000000,-0.385815,0.939000,0.000000
2.570000,0.755370,0.977522,-1.265347,2.731859,-0.431491,-0.855132,-1.582827,-1.814634,-2.375862,-10.713932,-3.845535,9.009190,7.970816,-1.031813,46.034750,-0.146613,0.129167,0.000000,-0.395109,0.948770,0.000000
2.580000,0.782608,0.973116,-1.274015,2.715496,-0.449829,-0.878433,-1.689503,-1.852955,-2.283411,-10.614432,-3.797920,9.487646,11.952561,10.652525,49.667134,-0.150598,0.138806,0.000000,-0.400330,0.957445,-0.000000
2.590000,0.809677,0.968525,-1.282912,2.698073,-0.468547,-0.900784,-1.795011,-1.890359,-2.186056,-10.484861,-3.686535,9.979563,13.463467,8.926265,47.568755,-0.154603,0.148531,0.000000,-0.401062,0.964991,0.000000
2.600000,0.836566,0.963744,-1.292027,2.679601,-0.487633,-0.922138,-1.899160,-1.926803,-2.083918,-10.340726,-3.596149,10.447990,15.874408,11.863556,47.205922,-0.158628,0.158338,0.000000,-0.403616,0.972212,0.000000
2.610000,0.863265,0.958771,-1.301351,2.660095,-0.507079,-0.942447,-2.001704,-1.962044,-1.977112,-10.163053,-3.445084,10.911440,18.428430,15.049343,46.480387,-0.162657,0.168217,0.000000,-0.401635,0.977769,0.000000
2.620000,0.889765,0.953601,-1.310873,2.639573,-0.526869,-0.961664,-2.102436,-1.995867,-1.865633,-9.983441,-3.325482,11.386421,18.699237,12.083899,47.487416,-0.166676,0.178161,0.000000,-0.402742,0.984471,-0.000000
2.630000,0.916054,0.948232,-1.320581,2.618053,-0.546992,-0.979744,-2.201230,-2.028297,-1.749463,-9.763783,-3.135988,11.839617,25.272815,25.914707,43.087415,-0.170692,0.188174,0.000000,-0.398283,0.988736,0.000000
2.640000,0.942122,0.942660,-1.330464,2.595556,-0.567427,-0.996639,-2.297563,-2.058313,-1.628932,-9.502234,-2.872169,12.267648,25.826004,23.603997,43.490147,-0.174619,0.198217,0.000000,-0.387672,0.990241,0.000000
2.650000,0.967962,0.936883,-1.340509,2.572110,-0.588150,-1.012308,-2.391284,-2.085891,-1.504078,-9.236958,-2.636538,12.700176,28.437309,26.742761,41.977175,-0.178459,0.208289,0.000000,-0.379666,0.992587,0.000000
2.660000,0.993562,0.930897,-1.350706,2.547740,-0.609136,-1.026707,-2.482185,-2.110977,-1.375044,-8.938933,-2.378785,13.102797,30.983673,29.127648,40.132817,-0.182206,0.218381,0.000000,-0.369641,0.992733,-0.000000
2.670000,1.018913,0.924699,-1.361039,2.522477,-0.630359,-1.039795,-2.569992,-2.133037,-1.241955,-8.619022,-2.014396,13.517028,33.171491,39.533115,41.103729,-0.185817,0.228477,0.000000,-0.350907,0.992290,0.000000
2.680000,1.044008,0.918289,-1.371497,2.496351,-0.651784,-1.051533,-2.654473,-2.151384,-1.104848,-8.271889,-1.676662,13.891110,36.254819,27.867619,33.627395,-0.189232,0.238567,0.000000,-0.333826,0.989776,0.000000
2.690000,1.068838,0.911663,-1.382065,2.469399,-0.673377,-1.061881,-2.735338,-2.166714,-0.964294,-7.897629,-1.372305,14.220687,38.411536,37.232263,33.840712,-0.192503,0.248624,0.000000,-0.318946,0.984883,0.000000
2.700000,1.093394,0.904821,-1.392730,2.441657,-0.695106,-1.070807,-2.812359,-2.178424,-0.820396,-7.502306,-0.968355,14.553719,40.821462,39.312248,31.146405,-0.195576,0.258633,0.000000,-0.295383,0.979054,0.000000
2.710000,1.117668,0.897761,-1.403477,2.413166,-0.716932,-1.078278,-2.885292,-2.186034,-0.673364,-7.080242,-0.547661,14.847436,43.201519,41.892130,28.263900,-0.198403,0.268576,0.000000,-0.269430,0.970748,0.000000
2.720000,1.141655,0.890482,-1.414291,2.383966,-0.738813,-1.084265,-2.953916,-2.189531,-0.523489,-6.642001,-0.157711,15.124761,44.801227,38.910281,26.485983,-0.200976,0.278433,0.000000,-0.245540,0.961257,0.000000
2.730000,1.165345,0.882984,-1.425157,2.354102,-0.760710,-1.088739,-3.018039,-2.188976,-0.371007,-6.176782,0.289588,15.362183,48.238876,50.616240,20.943520,-0.203292,0.288186,0.000000,-0.215416,0.948904,0.000000
2.740000,1.188735,0.875268,-1.436060,2.323621,-0.782576,-1.091678,-3.077360,-2.183516,-0.216394,-5.684980,0.796864,15.556744,49.733336,47.955461,18.623584,-0.205259,0.297799,0.000000,-0.178393,0.933393,0.000000
2.750000,1.211816,0.867333,-1.446985,2.292572,-0.804364,-1.093061,-3.131699,-2.173194,-0.059937,-5.179330,1.272440,15.728170,51.747481,49.980845,14.944627,-0.206869,0.307249,0.000000,-0.142922,0.916177,0.000000
2.760000,1.234584,0.859181,-1.457916,2.261005,-0.826024,-1.092872,-3.180874,-2.157974,0.097975,-4.652553,1.773473,15.846377,53.613150,51.500113,10.878576,-0.208102,0.316509,0.000000,-0.103102,0.895513,0.000000
2.770000,1.257034,0.850813,-1.468837,2.228972,-0.847506,-1.091098,-3.224688,-2.137571,0.257032,-4.107268,2.313806,15.965514,55.394447,55.266218,10.775098,-0.208914,0.325549,0.000000,-0.058345,0.873006,0.000000
2.780000,1.279162,0.842232,-1.479733,2.196529,-0.868757,-1.087728,-3.262965,-2.111716,0.417042,-3.545698,2.851508,16.016291,56.893332,52.199046,-0.711816,-0.209261,0.334343,0.000000,-0.011011,0.846512,0.000000
2.790000,1.300964,0.833439,-1.490587,2.163732,-0.889723,-1.082757,-3.295553,-2.080572,0.577098,-2.969406,3.382687,15.994222,58.363696,55.278331,-1.557432,-0.209126,0.342840,0.000000,0.038813,0.815551,-0.000000
2.800000,1.322436,0.824438,-1.501383,2.130638,-0.910350,-1.076187,-3.322307,-2.043934,0.736945,-2.379219,3.945446,15.966322,59.618295,55.959305,-6.201212,-0.208466,0.351009,0.000000,0.093807,0.782107,0.000000
2.810000,1.343576,0.815233,-1.512105,2.097306,-0.930583,-1.068020,-3.343118,-2.001699,0.896186,-1.781875,4.501670,15.873318,60.604934,56.358874,-10.971688,-0.207241,0.358814,0.000000,0.151722,0.744482,0.000000
2.820000,1.364381,0.805828,-1.522738,2.063795,-0.950365,-1.058267,-3.357851,-1.953801,1.054368,-1.160532,5.082048,15.759894,62.868640,58.594344,-13.125575,-0.205413,0.366208,0.000000,0.214908,0.702263,0.000000
2.830000,1.384851,0.796228,-1.533265,2.030169,-0.969639,-1.046937,-3.366341,-1.900108,1.211156,-0.541180,5.650021,15.581198,60.943675,54.923653,-22.665262,-0.202934,0.373147,0.000000,0.281047,0.655937,0.000000
2.840000,1.404985,0.786437,-1.543671,1.996489,-0.988349,-1.034051,-3.368697,-1.840864,1.365755,0.073069,6.201522,15.334807,62.640361,56.424044,-25.202732,-0.199783,0.379587,0.000000,0.349953,0.605251,-0.000000
2.850000,1.424781,0.776463,-1.553941,1.962816,-1.006438,-1.019631,-3.364810,-1.776007,1.517799,0.704372,6.768352,15.065098,62.815667,55.809962,-30.148486,-0.195916,0.385479,0.000000,0.424170,0.549338,0.000000
2.860000,1.444241,0.766311,-1.564059,1.929214,-1.023850,-1.003705,-3.354653,-1.705585,1.666846,1.326043,7.313509,14.735659,62.683528,54.816143,-35.063435,-0.191293,0.390774,0.000000,0.500920,0.489013,0.000000
2.870000,1.463366,0.755988,-1.574010,1.895744,-1.040531,-0.986306,-3.338199,-1.629641,1.812404,1.968350,7.878865,14.370142,64.573127,56.620126,-38.681813,-0.185872,0.395416,0.000000,0.584279,0.421718,0.000000
2.880000,1.482157,0.745503,-1.583780,1.862471,-1.056425,-0.967470,-3.315356,-1.548128,1.954057,2.592244,8.411630,13.948585,60.130803,49.839066,-45.636096,-0.179603,0.399343,0.000000,0.669329,0.350222,0.000000
2.890000,1.500616,0.734862,-1.593355,1.829457,-1.071477,-0.947240,-3.286438,-1.461546,2.091183,3.193800,8.906949,13.470913,61.319674,50.787007,-49.222593,-0.172484,0.402522,0.000000,0.755409,0.274618,0.000000
2.900000,1.518747,0.724076,-1.602721,1.796763,-1.085639,-0.925662,-3.251418,-1.369926,2.223372,3.807860,9.412869,12.958967,60.279208,48.753363,-53.798695,-0.164472,0.404892,0.000000,0.847387,0.191806,0.000000
2.910000,1.536553,0.713153,-1.611864,1.764449,-1.098859,-0.902790,-3.210380,-1.273437,2.350207,4.396701,9.879985,12.400834,58.919478,46.375205,-58.142177,-0.155536,0.406400,0.000000,0.939959,0.105045,-0.000000
2.920000,1.554037,0.702102,-1.620772,1.732575,-1.111092,-0.878678,-3.163414,-1.172268,2.471219,4.999005,10.355632,11.793581,60.078570,47.019566,-62.945054,-0.145650,0.406988,0.000000,1.038363,0.009627,0.000000
2.930000,1.571206,0.690934,-1.629433,1.701200,-1.122289,-0.853386,-3.110523,-1.066495,2.585958,5.567602,10.784014,11.149574,53.559644,38.566235,-65.809716,-0.134774,0.406587,0.000000,1.135709,-0.088735,-0.000000
2.940000,1.588063,0.679660,-1.637836,1.670382,-1.132409,-0.826981,-3.052199,-0.956774,2.694100,6.098310,11.160509,10.471455,53.985307,38.408082,-70.107716,-0.122945,0.405192,0.000000,1.230655,-0.189280,-0.000000
2.950000,1.604616,0.668290,-1.645970,1.640174,-1.141412,-0.799528,-2.988514,-0.843255,2.795241,6.634390,11.536953,9.751115,51.761412,35.141305,-73.581843,-0.110146,0.402745,0.000000,1.328988,-0.297428,0.000000
2.960000,1.620869,0.656836,-1.653823,1.610629,-1.149262,-0.771100,-2.919653,-0.726217,2.889054,7.132877,11.864038,9.007142,49.275316,31.636454,-76.633454,-0.096380,0.399206,0.000000,1.423629,-0.406946,-0.000000
2.970000,1.636831,0.645309,-1.661389,1.581798,-1.155926,-0.741772,-2.845831,-0.605981,2.975167,7.631886,12.181899,8.205934,49.164486,30.558087,-82.130627,-0.081667,0.394540,0.000000,1.519039,-0.523846,0.000000
2.980000,1.652507,0.633721,-1.668656,1.553729,-1.161372,-0.711624,-2.767170,-0.482767,3.053152,8.087620,12.446331,7.395529,41.912199,22.261523,-79.850860,-0.066023,0.388700,0.000000,1.607862,-0.639772,-0.000000
2.990000,1.667908,0.622085,-1.675619,1.526469,-1.165574,-0.680736,-2.684245,-0.357254,3.123076,8.496515,12.653985,6.581206,41.184509,20.611113,-84.394987,-0.049540,0.381727,0.000000,1.688188,-0.753117,0.000000
3.000000,1.683040,0.610414,-1.682269,1.500058,-1.168510,-0.649191,-2.597236,-0.229714,3.184598,8.899388,12.846590,5.721043,38.026850,16.533017,-86.142567,-0.032269,0.373601,0.000000,1.764504,-0.870434,0.000000
3.010000,1.697912,0.598719,-1.688600,1.474537,-1.170162,-0.617073,-2.506415,-0.100505,3.237533,9.258854,12.987845,4.865063,34.722169,12.371777,-87.349800,-0.014287,0.364327,0.000000,1.830087,-0.983331,0.000000
3.020000,1.712534,0.587015,-1.694609,1.449941,-1.170516,-0.584469,-2.412100,0.029957,3.281674,9.601504,13.099924,3.953610,32.938408,9.385660,-92.587995,0.004304,0.353924,0.000000,1.886574,-1.097187,0.000000
3.030000,1.726914,0.575313,-1.700289,1.426305,-1.169560,-0.551470,-2.314540,0.161321,3.316690,9.899419,13.161785,3.062655,26.602559,2.959657,-85.466317,0.023398,0.342409,0.000000,1.929328,-1.203188,0.000000
3.040000,1.741063,0.563628,-1.705637,1.403659,-1.167288,-0.518164,-2.214274,0.293016,3.343037,10.150490,13.172132,2.199286,24.458387,-0.238683,-89.452530,0.042840,0.329886,0.000000,1.957079,-1.299470,0.000000
3.050000,1.754990,0.551972,-1.710651,1.382028,-1.163700,-0.484639,-2.111584,0.424671,3.360498,10.381074,13.151440,1.294553,20.792633,-4.550582,-89.123436,0.062496,0.316403,0.000000,1.971328,-1.391684,0.000000
3.060000,1.768707,0.540359,-1.715329,1.361435,-1.158797,-0.450984,-2.006796,0.555893,3.369064,10.570300,13.085939,0.421542,17.126060,-8.776350,-88.230699,0.082214,0.302036,0.000000,1.969661,-1.472321,0.000000
3.070000,1.782223,0.528801,-1.719671,1.341898,-1.152585,-0.417287,-1.900294,0.686231,3.368736,10.724236,12.973918,-0.494674,13.580647,-13.394243,-92.213503,0.101829,0.286881,0.000000,1.950458,-1.544422,0.000000
3.080000,1.795548,0.517311,-1.723675,1.323433,-1.145076,-0.383639,-1.792439,0.815243,3.359347,10.840254,12.822987,-1.364034,9.620350,-16.772541,-81.509250,0.121171,0.271032,0.000000,1.915768,-1.602744,0.000000
3.090000,1.808695,0.505903,-1.727344,1.306052,-1.136286,-0.350128,-1.683616,0.942566,3.341659,10.918239,12.634201,-2.178917,6.057766,-21.195714,-84.165831,0.140097,0.254636,0.000000,1.866669,-1.646673,0.000000
3.100000,1.821673,0.494590,-1.730678,1.289763,-1.126232,-0.316834,-1.574190,1.067776,3.315624,10.960836,12.401357,-3.022689,2.389635,-25.127109,-81.776465,0.158449,0.237806,0.000000,1.801319,-1.679336,0.000000
3.110000,1.834494,0.483383,-1.733682,1.274569,-1.114939,-0.283842,-1.464515,1.190491,3.281401,10.968510,12.135761,-3.816054,-1.190328,-28.848001,-78.973626,0.176086,0.220670,0.000000,1.724032,-1.697752,0.000000
3.120000,1.847168,0.472295,-1.736357,1.260472,-1.102432,-0.251233,-1.354967,1.310299,3.239228,10.934066,11.816800,-4.620682,-5.352320,-34.065690,-79.826864,0.192876,0.203361,0.000000,1.631638,-1.703091,0.000000
3.130000,1.859707,0.461338,-1.738708,1.247468,-1.088744,-0.219084,-1.245934,1.426750,3.189194,10.868746,11.472896,-5.368055,-7.686669,-34.659642,-69.532148,0.208694,0.186009,0.000000,1.531623,-1.695219,0.000000
3.140000,1.872121,0.450524,-1.740740,1.235551,-1.073909,-0.187472,-1.137687,1.539690,3.132094,10.773888,11.106962,-6.052239,-11.605180,-39.356281,-69.347932,0.223493,0.168746,0.000000,1.426451,-1.675180,0.000000
3.150000,1.884422,0.439864,-1.742459,1.224711,-1.057963,-0.156465,-1.030592,1.648716,3.068113,10.639883,10.693741,-6.736347,-14.839394,-42.395469,-65.345635,0.237190,0.151690,0.000000,1.312228,-1.644035,0.000000
3.160000,1.896619,0.429368,-1.743872,1.214934,-1.040948,-0.126132,-0.924950,1.753532,2.997591,10.484536,10.265976,-7.359934,-17.793162,-45.061845,-61.037182,0.249738,0.134949,0.000000,1.197129,-1.603860,0.000000
3.170000,1.908724,0.419048,-1.744984,1.206206,-1.022908,-0.096534,-0.821127,1.853793,2.920923,10.269889,9.775391,-7.972013,-23.574082,-51.134288,-59.691445,0.261101,0.118633,0.000000,1.074241,-1.551436,0.000000
3.180000,1.920746,0.408913,-1.745805,1.198504,-1.003889,-0.067733,-0.719572,1.949050,2.838382,10.045846,9.283597,-8.518421,-21.161408,-47.126494,-49.508622,0.271238,0.102850,0.000000,0.955417,-1.493871,0.000000
3.190000,1.932697,0.398973,-1.746342,1.191807,-0.983942,-0.039783,-0.620217,2.039492,2.750800,9.816053,8.795559,-8.995069,-26.323912,-52.342049,-47.464383,0.280231,0.087634,0.000000,0.842386,-1.432817,0.000000
3.200000,1.944586,0.389237,-1.746604,1.186091,-0.963117,-0.012733,-0.523455,2.124749,2.658514,9.533105,8.253715,-9.453093,-28.690328,-54.090542,-42.457808,0.288071,0.073065,0.000000,0.726432,-1.363555,-0.000000
3.210000,1.956422,0.379714,-1.746600,1.181328,-0.941466,0.013373,-0.429570,2.204595,2.561950,9.240875,7.714102,-9.851217,-30.861984,-55.520658,-37.424659,0.294785,0.059198,0.000000,0.617164,-1.292489,0.000000
3.220000,1.968216,0.370411,-1.746339,1.177489,-0.919043,0.038494,-0.338799,2.278847,2.461636,8.906000,7.128212,-10.203853,-34.983304,-59.937605,-32.829099,0.300411,0.046073,0.000000,0.508254,-1.216261,0.000000
3.230000,1.979975,0.361335,-1.745833,1.174541,-0.895908,0.062595,-0.251463,2.347202,2.358056,8.564906,6.551417,-10.502117,-33.171758,-55.327907,-26.811347,0.304978,0.033732,0.000000,0.407338,-1.140377,0.000000
3.240000,1.991709,0.352495,-1.745091,1.172449,-0.872118,0.085646,-0.167502,2.409934,2.251779,8.220882,5.988510,-10.745393,-36.714701,-58.907445,-22.111503,0.308588,0.022158,0.000000,0.314841,-1.065791,0.000000
3.250000,2.003427,0.343895,-1.744124,1.171178,-0.847729,0.107623,-0.087185,2.466819,2.143298,7.840651,5.388465,-10.942150,-38.194385,-59.372248,-16.980865,0.311278,0.011371,0.000000,0.224195,-0.988864,-0.000000
3.260000,2.015135,0.335542,-1.742942,1.170692,-0.822801,0.128506,-0.010697,2.517751,2.033089,7.455010,4.798004,-11.092003,-39.499732,-59.605265,-12.027331,0.313098,0.001376,0.000000,0.140867,-0.913869,0.000000
3.270000,2.026843,0.327440,-1.741557,1.170951,-0.797394,0.148281,0.061826,2.562700,1.921701,7.045770,4.188625,-11.174006,-41.740354,-61.335671,-5.333331,0.314109,-0.007838,0.000000,0.062007,-0.838880,0.000000
3.280000,2.038557,0.319595,-1.739980,1.171915,-0.771568,0.166938,0.130210,2.601569,1.809726,6.632938,3.590873,-11.218857,-40.778400,-58.149793,-3.686387,0.314360,-0.016274,0.000000,-0.010338,-0.766551,0.000000
3.290000,2.050283,0.312010,-1.738222,1.173542,-0.745382,0.184474,0.194486,2.634575,1.697432,6.219096,3.008208,-11.229065,-42.544269,-59.253178,2.574199,0.313923,-0.023969,0.000000,-0.076336,-0.697174,0.000000
3.300000,2.062030,0.304689,-1.736295,1.175791,-0.718896,0.200888,0.254523,2.661679,1.585372,5.787600,2.414199,-11.176002,-43.144169,-58.611396,7.059738,0.312846,-0.030937,0.000000,-0.138298,-0.628923,0.000000
3.310000,2.073801,0.297633,-1.734208,1.178618,-0.692168,0.216184,0.310260,2.682924,1.474002,5.359726,1.836692,-11.091822,-43.487604,-57.729332,11.256935,0.311177,-0.037202,0.000000,-0.194723,-0.564156,-0.000000
3.320000,2.085604,0.290846,-1.731975,1.181981,-0.665257,0.230372,0.361621,2.698375,1.363795,4.908421,1.252225,-10.937621,-45.692443,-58.287126,18.080416,0.308964,-0.042788,0.000000,-0.247200,-0.499887,0.000000
3.330000,2.097442,0.284329,-1.729605,1.185835,-0.638220,0.243466,0.408474,2.708047,1.255311,4.468535,0.689314,-10.761765,-42.225298,-54.239559,17.006403,0.306249,-0.047712,0.000000,-0.294780,-0.439770,0.000000
3.340000,2.109322,0.278082,-1.727109,1.190136,-0.611114,0.255484,0.451048,2.712249,1.148606,4.043125,0.150875,-10.568598,-43.894854,-54.275591,23.067479,0.303084,-0.052029,0.000000,-0.337706,-0.383835,0.000000
3.350000,2.121247,0.272106,-1.724498,1.194842,-0.583993,0.266445,0.489260,2.711047,1.044170,3.600163,-0.388424,-10.313851,-43.613140,-52.707648,26.360397,0.299505,-0.055757,0.000000,-0.377500,-0.328649,0.000000
3.360000,2.133220,0.266402,-1.721783,1.199907,-0.556911,0.276376,0.523100,2.704559,0.942338,3.169031,-0.906251,-10.049174,-43.192068,-51.029421,29.183195,0.295545,-0.058921,0.000000,-0.413882,-0.276960,0.000000
3.370000,2.145246,0.260968,-1.718974,1.205289,-0.529919,0.285302,0.552608,2.692964,0.843491,2.731224,-1.410367,-9.706700,-43.764636,-49.584461,36.689763,0.291243,-0.061552,0.000000,-0.445824,-0.227005,0.000000
3.380000,2.157327,0.255803,-1.716081,1.210945,-0.503068,0.293258,0.577773,2.676422,0.748164,2.306398,-1.893586,-9.370392,-41.162893,-47.034831,30.443508,0.286636,-0.063673,0.000000,-0.475543,-0.180161,0.000000
3.390000,2.169465,0.250906,-1.713112,1.216831,-0.476406,0.300276,0.598790,2.655168,0.656021,1.896531,-2.354531,-9.046696,-41.382001,-45.328397,36.847009,0.281739,-0.065320,0.000000,-0.503240,-0.136332,0.000000
3.400000,2.181664,0.246274,-1.710078,1.222907,-0.449980,0.306390,0.615684,2.629386,0.567497,1.484100,-2.798229,-8.656500,-40.500684,-43.206989,38.552005,0.276584,-0.066516,0.000000,-0.527309,-0.094034,-0.000000
3.410000,2.193924,0.241905,-1.706987,1.229131,-0.423833,0.311639,0.628511,2.599287,0.482839,1.082598,-3.217766,-8.273922,-39.587726,-40.985892,39.911007,0.271198,-0.067283,0.000000,-0.549432,-0.053991,0.000000
3.420000,2.206247,0.237796,-1.703848,1.235464,-0.398008,0.316060,0.637384,2.565082,0.402222,0.694431,-3.620466,-7.840864,-38.224116,-39.255931,44.716006,0.265605,-0.067647,0.000000,-0.568900,-0.016663,0.000000
3.430000,2.218634,0.233944,-1.700669,1.241866,-0.372544,0.319698,0.642425,2.526968,0.325963,0.314340,-3.996658,-7.421215,-37.788593,-35.966303,39.106725,0.259826,-0.067634,0.000000,-0.586647,0.019106,0.000000
3.440000,2.231084,0.230344,-1.697457,1.248300,-0.347480,0.322593,0.643698,2.485242,0.253719,-0.057257,-4.345507,-7.020454,-36.327879,-34.089838,42.956063,0.253877,-0.067257,0.000000,-0.602773,0.053455,0.000000
3.450000,2.243600,0.226993,-1.694219,1.254728,-0.322851,0.324786,0.641334,2.440114,0.185722,-0.413675,-4.675910,-6.579595,-35.139705,-31.697800,43.222133,0.247778,-0.066539,0.000000,-0.616760,0.085455,0.000000
3.460000,2.256179,0.223886,-1.690963,1.261115,-0.298689,0.326322,0.635454,2.391788,0.122052,-0.760307,-4.985967,-6.155126,-33.921355,-29.415516,43.182970,0.241544,-0.065498,0.000000,-0.629909,0.116165,0.000000
3.470000,2.268822,0.221017,-1.687695,1.267426,-0.275025,0.327242,0.626190,2.340544,0.062740,-1.089597,-5.255971,-5.702463,-32.181599,-25.457784,45.803099,0.235194,-0.064154,0.000000,-0.639307,0.144660,-0.000000
3.480000,2.281527,0.218383,-1.684420,1.273628,-0.251886,0.327592,0.613693,2.286704,0.007920,-1.409097,-5.513456,-5.271477,-31.721574,-26.069424,40.309662,0.228756,-0.062527,0.000000,-0.648843,0.172128,0.000000
3.490000,2.294294,0.215978,-1.681145,1.279689,-0.229299,0.327414,0.598038,2.230305,-0.042788,-1.718882,-5.759815,-4.866502,-29.979168,-22.327576,42.172087,0.222216,-0.060623,0.000000,-0.658692,0.198677,0.000000
3.500000,2.307120,0.213795,-1.677873,1.285578,-0.207288,0.326750,0.579380,2.171652,-0.089318,-2.010781,-5.967582,-4.441627,-28.650256,-20.108837,41.254274,0.215595,-0.058461,0.000000,-0.665224,0.223308,-0.000000
3.510000,2.320005,0.211830,-1.674611,1.291267,-0.185873,0.325641,0.557854,2.110984,-0.131698,-2.292392,-6.162860,-4.036433,-27.333557,-17.982030,40.199972,0.208910,-0.056054,0.000000,-0.671803,0.247079,0.000000
3.520000,2.332945,0.210076,-1.671362,1.296726,-0.165074,0.324129,0.533603,2.048544,-0.170048,-2.554338,-6.318436,-3.634093,-25.383130,-14.084204,39.810036,0.202171,-0.053416,0.000000,-0.675453,0.269035,0.000000
3.530000,2.345938,0.208526,-1.668130,1.301931,-0.144907,0.322254,0.506795,1.984640,-0.204443,-2.806943,-6.464514,-3.249792,-25.149295,-15.169782,37.012974,0.195399,-0.050563,0.000000,-0.679345,0.290322,-0.000000
3.540000,2.358982,0.207176,-1.664918,1.306854,-0.125386,0.320053,0.477491,1.919271,-0.235114,-3.050729,-6.602941,-2.885547,-23.279119,-11.573313,36.250999,0.188582,-0.047499,0.000000,-0.683637,0.311028,-0.000000
3.550000,2.372074,0.206017,-1.661730,1.311473,-0.106525,0.317563,0.445850,1.852722,-0.262172,-3.275380,-6.704264,-2.528858,-21.984073,-9.650677,34.634914,0.181737,-0.044237,0.000000,-0.685239,0.330120,0.000000
3.560000,2.385211,0.205043,-1.658568,1.315764,-0.088335,0.314821,0.411989,1.785219,-0.285747,-3.495525,-6.793396,-2.188656,-20.822901,-7.776103,32.992355,0.174877,-0.040786,0.000000,-0.686649,0.349087,0.000000
3.570000,2.398388,0.204248,-1.655434,1.319706,-0.070824,0.311859,0.376078,1.716949,-0.306033,-3.680634,-6.856231,-1.872948,-17.391171,-5.200168,30.523070,0.168009,-0.037159,0.000000,-0.686607,0.365000,0.000000
3.580000,2.411604,0.203624,-1.652331,1.323279,-0.053998,0.308710,0.338359,1.648135,-0.323246,-3.868377,-6.905987,-1.570307,-20.197969,-4.775265,30.007323,0.161146,-0.033379,0.000000,-0.686101,0.381487,0.000000
3.590000,2.424853,0.203165,-1.649260,1.326466,-0.037862,0.305404,0.298686,1.578865,-0.337480,-4.060609,-6.943917,-1.280789,-17.051384,-2.420676,27.498837,0.154288,-0.029426,0.000000,-0.685212,0.398731,0.000000
3.600000,2.438132,0.202865,-1.646223,1.329247,-0.022421,0.301970,0.257279,1.509343,-0.348955,-4.219663,-6.958058,-1.017135,-15.958465,-0.820498,25.615252,0.147447,-0.025320,0.000000,-0.682934,0.413100,0.000000
3.610000,2.451436,0.202715,-1.643221,1.331606,-0.007676,0.298434,0.214300,1.439730,-0.357863,-4.374278,-6.962418,-0.767352,-14.821868,0.651783,23.749416,0.140630,-0.021073,0.000000,-0.680357,0.427344,0.000000
3.620000,2.464762,0.202709,-1.640255,1.333528,0.006374,0.294821,0.169842,1.370200,-0.364412,-4.514814,-6.938683,-0.547601,-13.428683,3.388469,20.771987,0.133847,-0.016692,0.000000,-0.675872,0.440541,0.000000
3.630000,2.478105,0.202840,-1.637325,1.334999,0.019729,0.291153,0.124034,1.300969,-0.368851,-4.645858,-6.909472,-0.339894,-12.786742,2.420015,20.788726,0.127112,-0.012185,0.000000,-0.671347,0.453077,0.000000
3.640000,2.491461,0.203101,-1.634432,1.336005,0.032394,0.287450,0.076955,1.232018,-0.371243,-4.767737,-6.876472,-0.143347,-11.448421,4.869381,17.946942,0.120420,-0.007558,0.000000,-0.666897,0.464974,0.000000
3.650000,2.504824,0.203485,-1.631576,1.336534,0.044371,0.283734,0.028727,1.163536,-0.371826,-4.876070,-6.818271,0.024036,-10.361781,6.060548,16.110572,0.113782,-0.002821,0.000000,-0.660598,0.475792,0.000000
3.660000,2.518190,0.203986,-1.628757,1.336576,0.055667,0.280019,-0.020526,1.095678,-0.370786,-4.972404,-6.751336,0.181615,-9.239734,7.237255,14.388809,0.107209,0.002016,0.000000,-0.653758,0.485640,0.000000
3.670000,2.531554,0.204596,-1.625976,1.336120,0.066287,0.276323,-0.070711,1.028541,-0.368333,-5.063988,-6.674464,0.302566,-8.753100,8.201902,10.801304,0.100708,0.006947,0.000000,-0.646481,0.495187,0.000000
3.680000,2.544911,0.205310,-1.623231,1.335159,0.076240,0.272656,-0.121753,0.962228,-0.364743,-5.140663,-6.585926,0.418636,-6.573387,9.497370,12.453116,0.094283,0.011966,0.000000,-0.638210,0.503412,-0.000000
3.690000,2.558255,0.206119,-1.620522,1.333683,0.085535,0.269032,-0.173471,0.896860,-0.359962,-5.202071,-6.486261,0.531767,-6.038297,10.348508,9.182500,0.087947,0.017056,0.000000,-0.628963,0.510276,0.000000
3.700000,2.571582,0.207018,-1.617850,1.331687,0.094181,0.265460,-0.225784,0.832529,-0.354238,-5.258666,-6.378516,0.611004,-4.955537,11.266248,7.674572,0.081705,0.022210,0.000000,-0.619258,0.516719,-0.000000
3.710000,2.584887,0.208001,-1.615213,1.329166,0.102189,0.261950,-0.278600,0.769322,-0.347753,-5.302655,-6.261338,0.684150,-3.898287,12.121329,6.253034,0.075565,0.027420,0.000000,-0.608677,0.521990,-0.000000
3.720000,2.598164,0.209060,-1.612611,1.326114,0.109571,0.258507,-0.331807,0.707326,-0.340660,-5.337166,-6.136642,0.729748,-2.953143,12.844543,3.571833,0.069533,0.032677,0.000000,-0.597529,0.526306,0.000000
3.730000,2.611408,0.210190,-1.610043,1.322529,0.116340,0.255138,-0.385306,0.646617,-0.333169,-5.360654,-6.003876,0.770385,-1.744735,13.699763,4.590351,0.063617,0.037969,0.000000,-0.585556,0.529545,0.000000
3.740000,2.624613,0.211385,-1.607508,1.318407,0.122508,0.251845,-0.438983,0.587274,-0.325257,-5.373163,-5.863587,0.807817,-0.812055,14.311089,2.210741,0.057825,0.043285,0.000000,-0.572794,0.531708,0.000000
3.750000,2.637774,0.212638,-1.605005,1.313749,0.128090,0.248633,-0.492740,0.529363,-0.317106,-5.376491,-5.717534,0.820815,0.197543,14.926908,1.099763,0.052163,0.048617,0.000000,-0.559509,0.532856,0.000000
3.760000,2.650886,0.213945,-1.602535,1.308553,0.133101,0.245504,-0.546474,0.472942,-0.308847,-5.368545,-5.565776,0.829797,1.210444,15.476095,0.097374,0.046637,0.053953,0.000000,-0.545569,0.532842,0.000000
3.770000,2.663943,0.215298,-1.600095,1.302820,0.137554,0.242457,-0.600092,0.418070,-0.300592,-5.353977,-5.407640,0.817402,1.874157,16.082683,-1.966741,0.041254,0.059283,0.000000,-0.530972,0.532011,0.000000
3.780000,2.676941,0.216694,-1.597685,1.296551,0.141467,0.239491,-0.653512,0.364802,-0.292500,-5.327469,-5.245547,0.803248,3.430156,16.325031,-0.831218,0.036019,0.064598,0.000000,-0.515851,0.529922,0.000000
3.790000,2.689873,0.218126,-1.595305,1.289751,0.144856,0.236606,-0.706600,0.313170,-0.284523,-5.288945,-5.080125,0.789017,4.096308,16.810107,-2.601874,0.030938,0.069884,0.000000,-0.500270,0.526580,0.000000
3.800000,2.702734,0.219589,-1.592953,1.282421,0.147736,0.233800,-0.759273,0.263217,-0.276791,-5.244120,-4.910027,0.756599,5.040447,17.141196,-3.268799,0.026016,0.075132,0.000000,-0.484149,0.522408,0.000000
3.810000,2.715519,0.221079,-1.590629,1.274567,0.150126,0.231069,-0.811446,0.214977,-0.269388,-5.188970,-4.737349,0.723130,5.956124,17.420682,-3.842968,0.021256,0.080332,0.000000,-0.467637,0.517117,0.000000
3.820000,2.728223,0.222590,-1.588331,1.266194,0.152042,0.228411,-0.863025,0.168481,-0.262381,-5.125346,-4.561462,0.676038,6.793748,17.714756,-5.143214,0.016664,0.085474,0.000000,-0.450701,0.510781,0.000000
3.830000,2.740841,0.224118,-1.586060,1.257308,0.153501,0.225820,-0.913923,0.123753,-0.255863,-5.052568,-4.383923,0.629323,7.758554,17.784011,-4.173732,0.012243,0.090546,0.000000,-0.433469,0.503439,0.000000
3.840000,2.753368,0.225659,-1.583815,1.247918,0.154523,0.223292,-0.964046,0.080806,-0.249785,-4.970844,-4.205260,0.584343,8.552705,17.974778,-5.232822,0.007996,0.095540,0.000000,-0.416009,0.495134,0.000000
3.850000,2.765798,0.227207,-1.581594,1.238030,0.155123,0.220823,-1.013314,0.039655,-0.244220,-4.881366,-4.024869,0.528502,9.368286,18.061894,-5.501768,0.003924,0.100446,0.000000,-0.398278,0.485863,0.000000
3.860000,2.778127,0.228760,-1.579398,1.227655,0.155322,0.218406,-1.061648,0.000309,-0.239209,-4.784052,-3.844291,0.473480,10.147029,18.100545,-5.704055,0.000031,0.105254,0.000000,-0.380430,0.475731,0.000000
3.870000,2.790350,0.230312,-1.577226,1.216801,0.155136,0.216036,-1.108965,-0.037226,-0.234773,-4.677998,-3.662505,0.412685,11.002771,18.197150,-6.237861,-0.003684,0.109957,0.000000,-0.362373,0.464585,-0.000000
3.880000,2.802461,0.231861,-1.575077,1.205479,0.154583,0.213708,-1.155186,-0.072945,-0.230949,-4.565273,-3.481586,0.353268,11.534934,17.978206,-5.628886,-0.007217,0.114544,0.000000,-0.344327,0.452709,-0.000000
3.890000,2.814458,0.233403,-1.572952,1.193701,0.153683,0.211416,-1.200250,-0.106863,-0.227699,-4.446282,-3.302013,0.296126,12.313949,17.982870,-5.998512,-0.010570,0.119009,0.000000,-0.326353,0.440167,0.000000
3.900000,2.826334,0.234934,-1.570849,1.181478,0.152452,0.209152,-1.244085,-0.138984,-0.225043,-4.319589,-3.122505,0.235251,12.962645,17.859816,-5.959792,-0.013744,0.123345,0.000000,-0.308333,0.426757,-0.000000
3.910000,2.838086,0.236451,-1.568769,1.168824,0.150909,0.206913,-1.286625,-0.169320,-0.222986,-4.187437,-2.944847,0.176271,13.568264,17.699885,-5.877628,-0.016738,0.127543,0.000000,-0.290459,0.412773,0.000000
3.920000,2.849709,0.237951,-1.566711,1.155750,0.149071,0.204691,-1.327805,-0.197884,-0.221518,-4.047346,-2.768312,0.117401,14.338800,17.568764,-5.840978,-0.019553,0.131598,0.000000,-0.272670,0.397962,0.000000
3.930000,2.861199,0.239431,-1.564675,1.142272,0.146957,0.202480,-1.367558,-0.224694,-0.220631,-3.902990,-2.594270,0.060601,14.522638,17.233378,-5.510841,-0.022192,0.135503,0.000000,-0.255114,0.382721,-0.000000
3.940000,2.872553,0.240889,-1.562661,1.128404,0.144583,0.200276,-1.405853,-0.249780,-0.220297,-3.754897,-2.423084,0.006345,15.195567,17.031950,-5.382514,-0.024656,0.139254,0.000000,-0.237840,0.367118,0.000000
3.950000,2.883766,0.242322,-1.560669,1.114160,0.141967,0.198073,-1.442632,-0.273163,-0.220500,-3.600108,-2.254008,-0.046527,15.649752,16.745459,-5.137759,-0.026949,0.142845,0.000000,-0.220780,0.350861,0.000000
3.960000,2.894835,0.243728,-1.558699,1.099557,0.139126,0.195865,-1.477847,-0.294871,-0.221219,-3.442307,-2.088138,-0.096956,16.054269,16.432971,-4.873038,-0.029073,0.146273,0.000000,-0.204054,0.334334,-0.000000
3.970000,2.905756,0.245104,-1.556752,1.084609,0.136075,0.193647,-1.511453,-0.314935,-0.222424,-3.277771,-1.925351,-0.143252,16.700362,16.111721,-4.450163,-0.031031,0.149532,0.000000,-0.187663,0.317210,0.000000
3.980000,2.916526,0.246449,-1.554827,1.069333,0.132832,0.191415,-1.543398,-0.333390,-0.224077,-3.111500,-1.766160,-0.187313,16.542444,15.722520,-4.360654,-0.032828,0.152619,0.000000,-0.171656,0.299960,0.000000
3.990000,2.927142,0.247760,-1.552924,1.053746,0.129413,0.189164,-1.573680,-0.350272,-0.226163,-2.944100,-1.610800,-0.229021,17.078391,15.354767,-3.909270,-0.034466,0.155535,0.000000,-0.156061,0.282650,0.000000
4.000000,2.937600,0.249037,-1.551043,1.037865,0.125832,0.186890,-1.602259,-0.365618,-0.228641,-2.771317,-1.459203,-0.266034,17.324531,14.952887,-3.559191,-0.035950,0.158274,0.000000,-0.140885,0.264911,0.000000
4.010000,2.947898,0.250276,-1.549186,1.021707,0.122105,0.184590,-1.629105,-0.379469,-0.231477,-2.597661,-1.311678,-0.300677,17.526330,14.535452,-3.209836,-0.037285,0.160836,0.000000,-0.126151,0.247153,-0.000000
4.020000,2.958033,0.251478,-1.547352,1.005289,0.118247,0.182259,-1.654196,-0.391867,-0.234630,-2.419759,-1.168674,-0.328750,17.924987,14.076273,-2.556515,-0.038475,0.163220,0.000000,-0.111923,0.229122,0.000000
4.030000,2.968003,0.252641,-1.545541,0.988629,0.114273,0.179896,-1.677501,-0.402857,-0.238047,-2.241861,-1.029916,-0.355000,17.644425,13.673572,-2.697613,-0.039525,0.165422,0.000000,-0.098154,0.211161,0.000000
4.040000,2.977805,0.253763,-1.543754,0.971745,0.110195,0.177498,-1.699036,-0.412480,-0.241726,-2.064519,-0.895516,-0.379596,17.941344,13.191070,-2.066619,-0.040440,0.167447,0.000000,-0.084855,0.193320,-0.000000
4.050000,2.987437,0.254845,-1.541991,0.954654,0.106028,0.175061,-1.718780,-0.420784,-0.245615,-1.884208,-0.766014,-0.397642,17.991482,12.721291,-1.697043,-0.041224,0.169291,0.000000,-0.072098,0.175343,0.000000
4.060000,2.996898,0.255884,-1.540253,0.937375,0.101783,0.172585,-1.736724,-0.427814,-0.249674,-1.704662,-0.640885,-0.413730,18.003038,12.248167,-1.339966,-0.041883,0.170957,0.000000,-0.059810,0.157517,0.000000
4.070000,3.006184,0.256880,-1.538540,0.919926,0.097475,0.170067,-1.752866,-0.433622,-0.253863,-1.523424,-0.521580,-0.422789,18.150089,11.665298,-0.648558,-0.042422,0.172444,0.000000,-0.048155,0.139691,-0.000000
4.080000,3.015296,0.257833,-1.536852,0.902324,0.093115,0.167507,-1.767198,-0.438259,-0.258126,-1.343635,-0.406477,-0.430413,17.799398,11.356062,-0.882853,-0.042848,0.173754,0.000000,-0.036945,0.122074,0.000000
4.090000,3.024230,0.258742,-1.535190,0.884588,0.088714,0.164904,-1.779746,-0.441765,-0.262468,-1.165754,-0.295550,-0.436919,17.860820,10.774951,-0.242436,-0.043163,0.174889,0.000000,-0.026173,0.104703,0.000000
4.100000,3.032987,0.259607,-1.533554,0.866735,0.084283,0.162258,-1.790510,-0.444191,-0.266839,-0.987286,-0.190529,-0.436803,17.738314,10.282789,0.086851,-0.043373,0.175850,0.000000,-0.016030,0.087428,-0.000000
4.110000,3.041565,0.260428,-1.531944,0.848783,0.079834,0.159568,-1.799499,-0.445589,-0.271202,-0.810838,-0.089885,-0.435252,17.587632,9.792271,0.396585,-0.043485,0.176640,0.000000,-0.006339,0.070412,-0.000000
4.120000,3.049962,0.261204,-1.530362,0.830751,0.075375,0.156834,-1.806728,-0.446010,-0.275520,-0.635223,0.004825,-0.427294,17.488347,9.201981,1.022093,-0.043502,0.177261,0.000000,0.002729,0.053621,0.000000
4.130000,3.058180,0.261935,-1.528808,0.812655,0.070916,0.154057,-1.812212,-0.445507,-0.279746,-0.462051,0.095252,-0.418442,17.140132,8.885263,0.740522,-0.043432,0.177714,0.000000,0.011363,0.037112,0.000000
4.140000,3.066215,0.262622,-1.527281,0.794512,0.066468,0.151239,-1.815979,-0.444118,-0.283889,-0.291653,0.181489,-0.409080,16.977921,8.310352,1.301589,-0.043276,0.178005,0.000000,0.019577,0.020906,0.000000
4.150000,3.074070,0.263265,-1.525783,0.776341,0.062037,0.148380,-1.818050,-0.441897,-0.287905,-0.122941,0.261917,-0.393926,16.718130,7.828520,1.554622,-0.043042,0.178134,0.000000,0.027196,0.004985,0.000000
4.160000,3.081742,0.263863,-1.524314,0.758157,0.057632,0.145482,-1.818448,-0.438893,-0.291766,0.042822,0.338171,-0.377952,16.436867,7.356119,1.785426,-0.042734,0.178105,0.000000,0.034402,-0.010620,-0.000000
4.170000,3.089233,0.264417,-1.522874,0.739977,0.053261,0.142545,-1.817202,-0.435155,-0.295445,0.205780,0.408444,-0.356911,16.145184,6.764609,2.276155,-0.042356,0.177923,0.000000,0.041006,-0.025854,-0.000000
4.180000,3.096542,0.264928,-1.521463,0.721818,0.048931,0.139573,-1.814343,-0.430736,-0.298904,0.365528,0.474854,-0.335505,15.800746,6.520735,1.997691,-0.041915,0.177589,0.000000,0.047237,-0.040766,0.000000
4.190000,3.103669,0.265396,-1.520082,0.703696,0.044649,0.136568,-1.809903,-0.425670,-0.302156,0.521854,0.537569,-0.314107,15.467462,5.958020,2.424034,-0.041413,0.177108,0.000000,0.053114,-0.055344,0.000000
4.200000,3.110616,0.265822,-1.518732,0.685625,0.040420,0.133531,-1.803917,-0.420005,-0.305169,0.674772,0.594602,-0.288323,15.106449,5.515650,2.586026,-0.040855,0.176482,0.000000,0.058430,-0.069521,0.000000
4.210000,3.117382,0.266205,-1.517412,0.667622,0.036251,0.130465,-1.796420,-0.413789,-0.307923,0.824074,0.648004,-0.262228,14.731209,5.087617,2.728924,-0.040245,0.175717,0.000000,0.063403,-0.083351,0.000000
4.220000,3.123969,0.266547,-1.516123,0.649702,0.032146,0.127374,-1.787450,-0.407066,-0.310401,0.969161,0.695663,-0.232894,14.303284,4.522382,3.039108,-0.039589,0.174816,0.000000,0.067819,-0.096732,0.000000
4.230000,3.130376,0.266848,-1.514865,0.631878,0.028111,0.124258,-1.777049,-0.399886,-0.312581,1.110503,0.740096,-0.203517,13.963529,4.368485,2.830422,-0.038890,0.173782,0.000000,0.071935,-0.109767,0.000000
4.240000,3.136607,0.267109,-1.513638,0.614165,0.024150,0.121123,-1.765253,-0.392273,-0.314473,1.247996,0.781521,-0.174401,13.513459,3.841212,3.086639,-0.038151,0.172620,0.000000,0.075776,-0.122454,0.000000
4.250000,3.142660,0.267331,-1.512442,0.596578,0.020267,0.117970,-1.752105,-0.384274,-0.316059,1.380898,0.817617,-0.142661,13.085266,3.456867,3.162156,-0.037376,0.171333,0.000000,0.079106,-0.134679,0.000000
4.260000,3.148539,0.267515,-1.511278,0.579128,0.016465,0.114803,-1.737648,-0.375931,-0.317328,1.509797,0.850541,-0.111021,12.650755,3.084733,3.221281,-0.036569,0.169925,0.000000,0.082146,-0.146547,-0.000000
4.270000,3.154243,0.267661,-1.510146,0.561829,0.012749,0.111625,-1.721927,-0.367279,-0.318273,1.633497,0.878936,-0.077753,12.128844,2.640270,3.373440,-0.035735,0.168402,0.000000,0.084759,-0.157918,0.000000
4.280000,3.159776,0.267770,-1.509046,0.544693,0.009121,0.108438,-1.704991,-0.358362,-0.318884,1.753205,0.904313,-0.044785,11.812907,2.438616,3.215930,-0.034875,0.166766,0.000000,0.087097,-0.168941,0.000000
4.290000,3.165138,0.267844,-1.507977,0.527733,0.005583,0.105248,-1.686876,-0.349202,-0.319171,1.868908,0.926861,-0.012342,11.285321,2.028882,3.327214,-0.033993,0.165022,0.000000,0.089182,-0.179622,0.000000
4.300000,3.170331,0.267882,-1.506941,0.510960,0.002137,0.102056,-1.667631,-0.339839,-0.319126,1.979240,0.945311,0.021230,10.821918,1.707585,3.328369,-0.033093,0.163173,0.000000,0.090882,-0.189804,0.000000
4.310000,3.175357,0.267887,-1.505936,0.494384,-0.001214,0.098867,-1.647304,-0.330304,-0.318748,2.085351,0.961070,0.054361,10.356436,1.401729,3.317746,-0.032177,0.161225,0.000000,0.092341,-0.199625,-0.000000
4.320000,3.180219,0.267858,-1.504963,0.478017,-0.004468,0.095682,-1.625943,-0.320631,-0.318038,2.185959,0.972979,0.087747,9.806600,1.025760,3.336160,-0.031247,0.159181,0.000000,0.093442,-0.208952,0.000000
4.330000,3.184919,0.267798,-1.504023,0.461868,-0.007626,0.092507,-1.603599,-0.310852,-0.316995,2.282355,0.982539,0.120596,9.473554,0.889803,3.231001,-0.030308,0.157045,0.000000,0.094333,-0.217921,0.000000
4.340000,3.189457,0.267706,-1.503113,0.445948,-0.010685,0.089343,-1.580310,-0.300987,-0.315628,2.374574,0.989944,0.152765,8.927728,0.549584,3.222598,-0.029361,0.154821,0.000000,0.095033,-0.226539,-0.000000
4.350000,3.193838,0.267584,-1.502236,0.430265,-0.013645,0.086195,-1.556127,-0.291066,-0.313940,2.461275,0.993946,0.184836,8.453588,0.296835,3.167936,-0.028409,0.152514,0.000000,0.095417,-0.234667,0.000000
4.360000,3.198064,0.267433,-1.501389,0.414828,-0.016506,0.083066,-1.531098,-0.281115,-0.311934,2.543667,0.995876,0.216244,7.981092,0.058300,3.105901,-0.027454,0.150127,0.000000,0.095615,-0.242430,-0.000000
4.370000,3.202136,0.267254,-1.500574,0.399646,-0.019268,0.079958,-1.505273,-0.271159,-0.309618,2.620496,0.994852,0.246867,7.427393,-0.228788,3.023600,-0.026498,0.147665,0.000000,0.095541,-0.249709,0.000000
4.380000,3.206057,0.267048,-1.499790,0.384725,-0.021930,0.076874,-1.478702,-0.261223,-0.306999,2.693110,0.992016,0.276818,7.096957,-0.335319,2.965501,-0.025543,0.145132,0.000000,0.095304,-0.256630,-0.000000
4.390000,3.209831,0.266816,-1.499037,0.370074,-0.024492,0.073819,-1.451424,-0.251323,-0.304084,2.761583,0.987541,0.306030,6.554990,-0.589932,2.869621,-0.024592,0.142532,0.000000,0.094919,-0.263200,-0.000000
4.400000,3.213460,0.266559,-1.498314,0.355699,-0.026956,0.070794,-1.423489,-0.241482,-0.300882,2.824589,0.980534,0.334242,6.088764,-0.777121,2.777902,-0.023646,0.139869,0.000000,0.094300,-0.269293,-0.000000
4.410000,3.216946,0.266277,-1.497621,0.341606,-0.029322,0.067802,-1.394946,-0.231718,-0.297401,2.883377,0.971951,0.361658,5.627243,-0.952255,2.682552,-0.022706,0.137146,0.000000,0.093536,-0.275025,0.000000
4.420000,3.220293,0.265973,-1.496957,0.327802,-0.031591,0.064847,-1.365840,-0.222049,-0.293654,2.936760,0.961392,0.387676,5.090784,-1.143181,2.541389,-0.021776,0.134368,0.000000,0.092590,-0.280286,-0.000000
4.430000,3.223503,0.265646,-1.496324,0.314291,-0.033764,0.061930,-1.336224,-0.212494,-0.289650,2.986061,0.949432,0.412916,4.771455,-1.246225,2.506618,-0.020855,0.131540,0.000000,0.091515,-0.285195,0.000000
4.440000,3.226580,0.265298,-1.495719,0.301079,-0.035841,0.059054,-1.306132,-0.203065,-0.285398,3.031379,0.936212,0.437367,4.251841,-1.410559,2.361670,-0.019946,0.128664,0.000000,0.090322,-0.289759,0.000000
4.450000,3.229526,0.264929,-1.495142,0.288170,-0.037825,0.056223,-1.275614,-0.193776,-0.280908,3.071462,0.921384,0.460319,3.806723,-1.538578,2.249722,-0.019049,0.125745,0.000000,0.088978,-0.293862,0.000000
4.460000,3.232344,0.264542,-1.494594,0.275568,-0.039717,0.053437,-1.244716,-0.184641,-0.276194,3.107491,0.905469,0.482422,3.367763,-1.655038,2.137465,-0.018166,0.122787,0.000000,0.087532,-0.297609,0.000000
4.470000,3.235038,0.264135,-1.494073,0.263277,-0.041519,0.050699,-1.213482,-0.175671,-0.271266,3.138540,0.888205,0.502758,2.874238,-1.783923,1.961375,-0.017299,0.119794,0.000000,0.085958,-0.300915,-0.000000
4.480000,3.237611,0.263711,-1.493580,0.251299,-0.043231,0.048012,-1.181958,-0.166879,-0.266141,3.165649,0.870079,0.522316,2.549376,-1.839167,1.951000,-0.016448,0.116769,0.000000,0.084301,-0.303869,-0.000000
4.490000,3.240065,0.263271,-1.493113,0.239639,-0.044857,0.045377,-1.150181,-0.158272,-0.260822,3.188917,0.851212,0.541126,2.073944,-1.944849,1.778576,-0.015613,0.113717,0.000000,0.082571,-0.306477,-0.000000
4.500000,3.242405,0.262815,-1.492672,0.228297,-0.046397,0.042796,-1.118196,-0.149859,-0.255325,3.207415,0.831318,0.558157,1.658045,-2.020027,1.659923,-0.014796,0.110640,0.000000,0.080742,-0.308656,-0.000000
4.510000,3.244632,0.262343,-1.492257,0.217275,-0.047855,0.040271,-1.086045,-0.141648,-0.249662,3.222088,0.810800,0.574316,1.249637,-2.086000,1.542095,-0.013998,0.107544,0.000000,0.078850,-0.310485,0.000000
4.520000,3.246751,0.261858,-1.491867,0.206576,-0.049231,0.037804,-1.053770,-0.133645,-0.243845,3.232172,0.789592,0.588725,0.795376,-2.150276,1.368575,-0.013220,0.104431,0.000000,0.076889,-0.311895,-0.000000
4.530000,3.248765,0.261359,-1.491501,0.196200,-0.050528,0.035395,-1.021414,-0.125857,-0.237890,3.238588,0.767906,0.602293,0.489859,-2.185396,1.345909,-0.012461,0.101307,0.000000,0.074878,-0.312963,-0.000000
4.540000,3.250676,0.260847,-1.491159,0.186148,-0.051749,0.033046,-0.989010,-0.118288,-0.231802,3.241441,0.745834,0.615062,0.054389,-2.231544,1.178984,-0.011722,0.098173,0.000000,0.072825,-0.313698,0.000000
4.550000,3.252489,0.260324,-1.490840,0.176420,-0.052895,0.030759,-0.956600,-0.110942,-0.225595,3.239937,0.723336,0.626117,-0.327301,-2.262843,1.061602,-0.011005,0.095034,0.000000,0.070727,-0.314025,-0.000000
4.560000,3.254206,0.259790,-1.490543,0.167016,-0.053968,0.028535,-0.924223,-0.103822,-0.219282,3.234894,0.700574,0.636292,-0.701738,-2.286787,0.946474,-0.010308,0.091893,0.000000,0.068599,-0.314015,-0.000000
4.570000,3.255830,0.259245,-1.490269,0.157935,-0.054972,0.026374,-0.891916,-0.096931,-0.212875,3.225728,0.677640,0.644800,-1.109437,-2.300340,0.781652,-0.009633,0.088754,0.000000,0.066448,-0.313614,-0.000000
4.580000,3.257365,0.258691,-1.490015,0.149177,-0.055908,0.024278,-0.859719,-0.090270,-0.206388,3.213166,0.654559,0.652482,-1.401164,-2.314712,0.755775,-0.008979,0.085621,0.000000,0.064278,-0.312882,0.000000
4.590000,3.258815,0.258127,-1.489783,0.140740,-0.056778,0.022246,-0.827664,-0.083840,-0.199828,3.197306,0.631399,0.659388,-1.790521,-2.314670,0.599087,-0.008347,0.082497,0.000000,0.062094,-0.311827,-0.000000
4.600000,3.260181,0.257555,-1.489570,0.132623,-0.057585,0.020281,-0.795787,-0.077642,-0.193207,3.177547,0.608275,0.664687,-2.138156,-2.310735,0.488277,-0.007737,0.079386,0.000000,0.059908,-0.310393,-0.000000
4.610000,3.261468,0.256976,-1.489377,0.124824,-0.058332,0.018382,-0.764124,-0.071674,-0.186536,3.154520,0.585232,0.669166,-2.478527,-2.300230,0.380640,-0.007149,0.076290,0.000000,0.057723,-0.308633,0.000000
4.620000,3.262679,0.256389,-1.489202,0.117340,-0.059020,0.016551,-0.732709,-0.065937,-0.179829,3.127885,0.562258,0.672054,-2.835223,-2.290310,0.223523,-0.006583,0.073214,0.000000,0.055539,-0.306517,0.000000
4.630000,3.263816,0.255795,-1.489046,0.110169,-0.059651,0.014786,-0.701576,-0.060429,-0.173098,3.098088,0.539513,0.674198,-3.122760,-2.257718,0.206409,-0.006038,0.070161,0.000000,0.053371,-0.304080,-0.000000
4.640000,3.264883,0.255196,-1.488906,0.103307,-0.060229,0.013089,-0.670757,-0.055146,-0.166347,3.065210,0.517054,0.675652,-3.463742,-2.236624,0.057964,-0.005515,0.067134,0.000000,0.051224,-0.301328,-0.000000
4.650000,3.265883,0.254591,-1.488784,0.096752,-0.060755,0.011459,-0.640284,-0.050087,-0.159590,3.028937,0.494824,0.675583,-3.777871,-2.205214,-0.044194,-0.005014,0.064136,0.000000,0.049094,-0.298232,0.000000
4.660000,3.266819,0.253981,-1.488677,0.090500,-0.061232,0.009897,-0.610188,-0.045248,-0.152838,2.989669,0.472920,0.674677,-4.085216,-2.170162,-0.145402,-0.004533,0.061170,0.000000,0.046990,-0.294825,0.000000
4.670000,3.267694,0.253366,-1.488586,0.084547,-0.061661,0.008402,-0.580501,-0.040627,-0.146101,2.947157,0.451477,0.672601,-4.405877,-2.122285,-0.261273,-0.004074,0.058240,0.000000,0.044925,-0.291084,-0.000000
4.680000,3.268511,0.252748,-1.488509,0.078889,-0.062045,0.006975,-0.551254,-0.036218,-0.139389,2.901784,0.430391,0.669630,-4.667356,-2.094636,-0.332336,-0.003635,0.055349,0.000000,0.042889,-0.287042,0.000000
4.690000,3.269273,0.252126,-1.488446,0.073521,-0.062386,0.005614,-0.522475,-0.032018,-0.132711,2.853625,0.409688,0.665790,-4.973896,-2.040668,-0.443983,-0.003216,0.052500,0.000000,0.040885,-0.282706,0.000000
4.700000,3.269983,0.251500,-1.488396,0.068438,-0.062686,0.004320,-0.494192,-0.028022,-0.126077,2.802414,0.389548,0.660827,-5.257146,-1.991485,-0.540093,-0.002817,0.049696,0.000000,0.038930,-0.278047,0.000000
4.710000,3.270643,0.250872,-1.488359,0.063635,-0.062947,0.003093,-0.466436,-0.024225,-0.119497,2.748463,0.369885,0.655019,-5.535087,-1.939454,-0.634286,-0.002437,0.046940,0.000000,0.037018,-0.273096,-0.000000
4.720000,3.271256,0.250242,-1.488334,0.059107,-0.063171,0.001930,-0.439232,-0.020622,-0.112981,2.691703,0.350779,0.648027,-5.813187,-1.882694,-0.751438,-0.002076,0.044235,0.000000,0.035155,-0.267843,0.000000
4.730000,3.271826,0.249609,-1.488320,0.054849,-0.063360,0.000833,-0.412610,-0.017208,-0.106539,2.632279,0.332213,0.640254,-6.070469,-1.830274,-0.802728,-0.001734,0.041584,0.000000,0.033341,-0.262302,-0.000000
4.740000,3.272354,0.248974,-1.488317,0.050853,-0.063516,-0.000201,-0.386596,-0.013976,-0.100178,2.570251,0.314204,0.631723,-6.337317,-1.770005,-0.915749,-0.001409,0.038990,0.000000,0.031577,-0.256477,-0.000000
4.750000,3.272844,0.248339,-1.488324,0.047114,-0.063640,-0.001171,-0.361214,-0.010922,-0.093909,2.505573,0.296807,0.622048,-6.594219,-1.710356,-1.006844,-0.001102,0.036456,0.000000,0.029869,-0.250364,0.000000
4.760000,3.273297,0.247702,-1.488341,0.043627,-0.063735,-0.002079,-0.336493,-0.008038,-0.087740,2.438352,0.280012,0.611542,-6.846608,-1.649470,-1.097910,-0.000812,0.033984,0.000000,0.028217,-0.243972,0.000000
4.770000,3.273717,0.247064,-1.488366,0.040382,-0.063801,-0.002926,-0.312455,-0.005319,-0.081681,2.368681,0.263812,0.600057,-7.089297,-1.589655,-1.195424,-0.000537,0.031577,0.000000,0.026620,-0.237309,-0.000000
4.780000,3.274106,0.246426,-1.488399,0.037375,-0.063842,-0.003713,-0.289127,-0.002760,-0.075742,2.296528,0.248241,0.587707,-7.340742,-1.524441,-1.274457,-0.000279,0.029239,0.000000,0.025082,-0.230371,-0.000000
4.790000,3.274465,0.245787,-1.488440,0.034597,-0.063857,-0.004442,-0.266533,-0.000352,-0.069930,2.221934,0.233304,0.574497,-7.574712,-1.463900,-1.371100,-0.000036,0.026971,0.000000,0.023603,-0.223163,-0.000000
4.800000,3.274798,0.245149,-1.488488,0.032042,-0.063849,-0.005112,-0.244696,0.001908,-0.064255,2.145027,0.218970,0.560315,-7.808371,-1.401968,-1.461912,0.000193,0.024776,0.000000,0.022181,-0.215696,0.000000
4.810000,3.275107,0.244510,-1.488542,0.029701,-0.063819,-0.005727,-0.223641,0.004029,-0.058727,2.065732,0.205305,0.545169,-8.039873,-1.339670,-1.554537,0.000408,0.022658,0.000000,0.020823,-0.207962,0.000000
4.820000,3.275393,0.243872,-1.488602,0.027566,-0.063769,-0.006287,-0.203389,0.006016,-0.053354,1.984310,0.192096,0.529343,-8.251589,-1.294187,-1.623438,0.000610,0.020618,0.000000,0.019507,-0.199988,0.000000
4.830000,3.275659,0.243235,-1.488667,0.025630,-0.063699,-0.006795,-0.183962,0.007874,-0.048144,1.900551,0.179590,0.512435,-8.499885,-1.206922,-1.758498,0.000799,0.018659,0.000000,0.018259,-0.191753,0.000000
4.840000,3.275906,0.242598,-1.488738,0.023884,-0.063612,-0.007251,-0.165385,0.009610,-0.043109,1.814482,0.167785,0.494425,-8.705507,-1.162680,-1.831103,0.000975,0.016784,0.000000,0.017078,-0.183259,-0.000000
4.850000,3.276137,0.241963,-1.488812,0.022320,-0.063508,-0.007658,-0.147679,0.011230,-0.038257,1.726392,0.156400,0.475706,-8.920204,-1.106407,-1.925646,0.001140,0.014994,0.000000,0.015937,-0.174536,0.000000
4.860000,3.276353,0.241328,-1.488891,0.020928,-0.063388,-0.008017,-0.130865,0.012740,-0.033598,1.636133,0.145605,0.455977,-9.130936,-1.053062,-2.020194,0.001294,0.013294,0.000000,0.014853,-0.165568,-0.000000
4.870000,3.276556,0.240695,-1.488972,0.019699,-0.063253,-0.008330,-0.114963,0.014144,-0.029141,1.543785,0.135329,0.435299,-9.338070,-1.002509,-2.115524,0.001437,0.011684,0.000000,0.013819,-0.156364,0.000000
4.880000,3.276748,0.240063,-1.489057,0.018625,-0.063105,-0.008600,-0.099996,0.015448,-0.024895,1.449383,0.125544,0.413664,-9.541696,-0.955123,-2.211712,0.001571,0.010167,0.000000,0.012833,-0.146928,0.000000
4.890000,3.276929,0.239433,-1.489144,0.017696,-0.062945,-0.008829,-0.085982,0.016657,-0.020871,1.352963,0.116215,0.391062,-9.741886,-0.911284,-2.308814,0.001694,0.008746,0.000000,0.011890,-0.137265,0.000000
4.900000,3.277102,0.238805,-1.489234,0.016902,-0.062772,-0.009018,-0.072943,0.017774,-0.017077,1.254555,0.107306,0.367483,-9.938905,-0.871321,-2.407054,0.001809,0.007423,0.000000,0.010988,-0.127378,0.000000
4.910000,3.277268,0.238178,-1.489324,0.016234,-0.062589,-0.009171,-0.060898,0.018804,-0.013524,1.154195,0.098775,0.342917,-10.132653,-0.835660,-2.506344,0.001914,0.006199,0.000000,0.010123,-0.117272,0.000000
4.920000,3.277427,0.237553,-1.489417,0.015681,-0.062397,-0.009290,-0.049866,0.019751,-0.010222,1.051912,0.090577,0.317352,-10.323294,-0.804655,-2.606830,0.002011,0.005078,0.000000,0.009289,-0.106950,0.000000
4.930000,3.277582,0.236930,-1.489510,0.015233,-0.062195,-0.009376,-0.039866,0.020617,-0.007181,0.947739,0.082665,0.290776,-10.510885,-0.778679,-2.708597,0.002100,0.004061,0.000000,0.008483,-0.096417,0.000000
4.940000,3.277732,0.236309,-1.489604,0.014880,-0.061984,-0.009434,-0.030917,0.021405,-0.004410,0.841705,0.074986,0.263175,-10.695410,-0.758108,-2.811745,0.002181,0.003150,0.000000,0.007699,-0.085677,0.000000
4.950000,3.277880,0.235690,-1.489699,0.014611,-0.061767,-0.009466,-0.023038,0.022117,-0.001921,0.733834,0.067483,0.234537,-10.877648,-0.743303,-2.916252,0.002254,0.002348,0.000000,0.006932,-0.074733,0.000000
4.960000,3.278025,0.235074,-1.489793,0.014416,-0.061542,-0.009474,-0.016247,0.022755,0.000277,0.624159,0.060099,0.204846,-11.056892,-0.734650,-3.022323,0.002320,0.001656,0.000000,0.006175,-0.063592,0.000000
4.970000,3.278168,0.234459,-1.489888,0.014283,-0.061312,-0.009461,-0.010561,0.023319,0.002173,0.512705,0.052769,0.174085,-11.233520,-0.732517,-3.129998,0.002378,0.001077,0.000000,0.005423,-0.052256,0.000000
4.980000,3.278310,0.233847,-1.489983,0.014201,-0.061076,-0.009431,-0.005998,0.023810,0.003755,0.399497,0.045426,0.142240,-11.407588,-0.737273,-3.239371,0.002428,0.000612,0.000000,0.004668,-0.040730,-0.000000
4.990000,3.278452,0.233238,-1.490077,0.014159,-0.060836,-0.009387,-0.002577,0.024227,0.005014,0.284562,0.037999,0.109292,-11.579132,-0.749287,-3.350552,0.002471,0.000263,0.000000,0.003903,-0.029019,0.000000
5.000000,3.278594,0.232631,-1.490170,0.014146,-0.060592,-0.009332,-0.000313,0.024570,0.005937,0.167923,0.030415,0.075222,-11.748186,-0.768926,-3.463671,0.002506,0.000032,0.000000,0.003121,-0.017128,0.000000
