time,x,y,z,vx,vy,vz,ax,ay,az,jx,jy,jz,sx,sy,sz,roll,pitch,yaw,p,q,r
0.000000,-3.282790,0.236784,-1.498265,-0.016523,-0.004858,0.006227,0.176531,0.045783,0.010215,-0.654793,0.720015,-0.516796,16.943951,-8.629537,11.499655,0.004671,-0.018012,0.000000,0.073218,0.067744,0.000000
0.010000,-3.282947,0.236738,-1.498203,-0.014787,-0.004366,0.006305,0.170836,0.052585,0.005583,-0.483910,0.643624,-0.413482,17.208950,-6.698961,9.205253,0.005362,-0.017423,0.000000,0.065413,0.050075,0.000000
0.020000,-3.283086,0.236697,-1.498140,-0.013100,-0.003809,0.006341,0.166860,0.058714,0.001873,-0.311073,0.585060,-0.331867,17.336277,-5.061064,7.157968,0.005985,-0.017011,0.000000,0.059441,0.032282,0.000000
0.030000,-3.283209,0.236662,-1.498076,-0.011444,-0.003193,0.006344,0.164616,0.064336,-0.001119,-0.137611,0.541488,-0.269542,17.335562,-3.697627,5.344978,0.006556,-0.016777,0.000000,0.055003,0.014483,0.000000
0.040000,-3.283315,0.236634,-1.498013,-0.009802,-0.002523,0.006321,0.164105,0.069585,-0.003574,0.035243,0.510254,-0.224229,17.216354,-2.590435,3.753504,0.007090,-0.016721,0.000000,0.051822,-0.003208,0.000000
0.050000,-3.283405,0.236612,-1.497950,-0.008156,-0.001802,0.006274,0.165315,0.074574,-0.005653,0.206360,0.488886,-0.193778,16.989025,-1.721258,2.370493,0.007596,-0.016840,0.000000,0.049644,-0.020685,0.000000
0.060000,-3.283478,0.236598,-1.497887,-0.006490,-0.001032,0.006208,0.168223,0.079388,-0.007493,0.374696,0.475096,-0.176167,16.662415,-1.071891,1.183339,0.008085,-0.017133,0.000000,0.048232,-0.037846,-0.000000
0.070000,-3.283535,0.236591,-1.497826,-0.004786,-0.000215,0.006125,0.172797,0.084094,-0.009213,0.539311,0.466776,-0.169502,16.246487,-0.624111,0.179127,0.008563,-0.017596,0.000000,0.047370,-0.054601,0.000000
0.080000,-3.283574,0.236594,-1.497765,-0.003029,0.000649,0.006024,0.178994,0.088736,-0.010913,0.699360,0.462002,-0.172017,15.750889,-0.359697,-0.654978,0.009034,-0.018224,0.000000,0.046861,-0.070866,-0.000000
0.090000,-3.283595,0.236605,-1.497705,-0.001201,0.001560,0.005906,0.186766,0.093340,-0.012678,0.854095,0.459032,-0.182077,15.185240,-0.260418,-1.331792,0.009500,-0.019011,0.000000,0.046527,-0.086564,0.000000
0.100000,-3.283598,0.236625,-1.497647,0.000712,0.002516,0.005770,0.196056,0.097917,-0.014575,1.002867,0.456304,-0.198172,14.559566,-0.308113,-1.864183,0.009964,-0.019953,0.000000,0.046210,-0.101629,0.000000
0.110000,-3.283580,0.236655,-1.497590,0.002725,0.003518,0.005614,0.206802,0.102462,-0.016657,1.145119,0.452440,-0.218922,13.883103,-0.484501,-2.264965,0.010424,-0.021042,0.000000,0.045769,-0.116005,-0.000000
0.120000,-3.283543,0.236695,-1.497535,0.004852,0.004565,0.005436,0.218935,0.106958,-0.018965,1.280393,0.446245,-0.243075,13.165676,-0.771387,-2.546981,0.010879,-0.022271,0.000000,0.045084,-0.129644,-0.000000
0.130000,-3.283483,0.236747,-1.497481,0.007108,0.005657,0.005234,0.232385,0.111376,-0.021526,1.408328,0.436705,-0.269508,12.416935,-1.150553,-2.723081,0.011325,-0.023632,0.000000,0.044052,-0.142509,0.000000
0.140000,-3.283400,0.236809,-1.497430,0.009504,0.006792,0.005005,0.247077,0.115678,-0.024359,1.528659,0.422987,-0.297227,11.646530,-1.603782,-2.806135,0.011758,-0.025119,0.000000,0.042591,-0.154573,0.000000
0.150000,-3.283292,0.236883,-1.497381,0.012053,0.007970,0.004746,0.262932,0.119820,-0.027472,1.641219,0.404443,-0.325364,10.864171,-2.112860,-2.809023,0.012175,-0.026721,0.000000,0.040635,-0.165819,-0.000000
0.160000,-3.283158,0.236968,-1.497335,0.014766,0.009188,0.004454,0.279875,0.123749,-0.030865,1.745940,0.380605,-0.353176,10.079794,-2.659526,-2.744044,0.012569,-0.028432,0.000000,0.038140,-0.176240,0.000000
0.170000,-3.282996,0.237066,-1.497292,0.017654,0.010444,0.004128,0.297825,0.127413,-0.034533,1.842841,0.351188,-0.380060,9.302632,-3.225622,-2.624742,0.012936,-0.030244,0.000000,0.035079,-0.185841,-0.000000
0.180000,-3.282805,0.237177,-1.497253,0.020726,0.011735,0.003763,0.316706,0.130754,-0.038462,1.932049,0.316089,-0.405532,8.542553,-3.792908,-2.463711,0.013269,-0.032147,0.000000,0.031444,-0.194635,0.000000
0.190000,-3.282581,0.237301,-1.497217,0.023991,0.013058,0.003358,0.336441,0.133716,-0.042637,2.013782,0.275387,-0.429239,7.809292,-4.343170,-2.273874,0.013563,-0.034134,0.000000,0.027244,-0.202648,0.000000
0.200000,-3.282324,0.237439,-1.497186,0.027457,0.014408,0.002909,0.356958,0.136244,-0.047040,2.088353,0.229343,-0.450952,7.112167,-4.858161,-2.067611,0.013812,-0.036198,0.000000,0.022510,-0.209912,-0.000000
0.210000,-3.282031,0.237589,-1.497159,0.031133,0.015781,0.002416,0.378245,0.138387,-0.051706,2.169695,0.201461,-0.483449,6.728463,-4.863872,-2.112691,0.014022,-0.038336,0.000000,0.019605,-0.217790,0.000000
0.220000,-3.281701,0.237754,-1.497138,0.035024,0.017174,0.001875,0.400142,0.139936,-0.056522,2.200667,0.094022,-0.471871,1.836110,-12.584543,2.178583,0.014170,-0.040533,0.000000,0.008715,-0.220719,-0.000000
0.230000,-3.281330,0.237933,-1.497122,0.039137,0.018576,0.001286,0.422357,0.140458,-0.061249,2.256171,0.034576,-0.487117,9.345427,0.829798,-5.298390,0.014215,-0.042761,0.000000,0.002660,-0.226012,0.000000
0.240000,-3.280917,0.238126,-1.497112,0.043474,0.019983,0.000648,0.445378,0.140840,-0.066382,2.339908,0.029232,-0.532332,5.022917,-5.960257,-1.473656,0.014245,-0.045065,0.000000,0.002038,-0.233989,0.000000
0.250000,-3.280460,0.238333,-1.497109,0.048046,0.021391,-0.000042,0.468959,0.140725,-0.071717,2.377008,-0.049928,-0.535883,4.780457,-5.808482,-1.500944,0.014224,-0.047422,0.000000,-0.005977,-0.237414,0.000000
0.260000,-3.279956,0.238554,-1.497113,0.052855,0.022795,-0.000786,0.492960,0.139928,-0.077151,2.422607,-0.109726,-0.550763,4.409652,-5.906034,-1.392954,0.014134,-0.049817,0.000000,-0.012039,-0.241624,-0.000000
0.270000,-3.279402,0.238789,-1.497125,0.057907,0.024188,-0.001586,0.517404,0.138547,-0.082722,2.465894,-0.165739,-0.562988,4.188417,-5.523778,-1.131550,0.013985,-0.052254,0.000000,-0.017703,-0.245591,0.000000
0.280000,-3.278797,0.239037,-1.497145,0.063205,0.025564,-0.002441,0.542264,0.136601,-0.088411,2.505120,-0.224985,-0.575061,3.658481,-6.328140,-1.285626,0.013779,-0.054728,0.000000,-0.023680,-0.249129,0.000000
0.290000,-3.278137,0.239300,-1.497174,0.068753,0.026918,-0.003354,0.567493,0.134035,-0.094224,2.540420,-0.287510,-0.587093,3.469113,-5.937910,-1.040422,0.013510,-0.057235,0.000000,-0.029972,-0.252251,0.000000
0.300000,-3.277421,0.239576,-1.497212,0.074556,0.028243,-0.004326,0.593068,0.130870,-0.100143,2.574016,-0.345655,-0.596551,3.188776,-5.921251,-0.931115,0.013181,-0.059773,0.000000,-0.035805,-0.255197,0.000000
0.310000,-3.276645,0.239864,-1.497261,0.080615,0.029533,-0.005357,0.618959,0.127113,-0.106154,2.603769,-0.405644,-0.605442,2.913393,-5.888121,-0.820384,0.012793,-0.062338,0.000000,-0.041808,-0.257742,0.000000
0.320000,-3.275808,0.240166,-1.497320,0.086936,0.030783,-0.006449,0.645147,0.122773,-0.112246,2.633748,-0.461652,-0.612724,2.936053,-5.489476,-0.661053,0.012347,-0.064929,0.000000,-0.047393,-0.260303,0.000000
0.330000,-3.274906,0.240480,-1.497390,0.093519,0.031987,-0.007603,0.671619,0.117874,-0.118406,2.659412,-0.519131,-0.619191,2.193688,-6.008927,-0.633173,0.011845,-0.067543,0.000000,-0.053110,-0.262421,0.000000
0.340000,-3.273936,0.240806,-1.497472,0.100369,0.033139,-0.008818,0.698319,0.112384,-0.124627,2.680655,-0.578151,-0.624880,2.206100,-5.611431,-0.479345,0.011284,-0.070176,0.000000,-0.058964,-0.264086,0.000000
0.350000,-3.272897,0.241143,-1.497566,0.107486,0.034233,-0.010095,0.725236,0.106329,-0.130898,2.702284,-0.632843,-0.628991,1.971576,-5.504786,-0.368420,0.010667,-0.072826,0.000000,-0.064366,-0.265789,0.000000
0.360000,-3.271786,0.241490,-1.497674,0.114874,0.035263,-0.011436,0.752351,0.099724,-0.137204,2.720183,-0.687863,-0.632145,1.737640,-5.384716,-0.256696,0.009996,-0.075491,0.000000,-0.069785,-0.267114,0.000000
0.370000,-3.270599,0.241848,-1.497795,0.122534,0.036225,-0.012840,0.779642,0.092585,-0.143536,2.738234,-0.739460,-0.634072,1.748180,-5.041556,-0.134247,0.009273,-0.078169,0.000000,-0.074844,-0.268453,0.000000
0.380000,-3.269334,0.242214,-1.497931,0.130468,0.037113,-0.014307,0.807102,0.084935,-0.149882,2.752531,-0.790939,-0.634947,1.107556,-5.255589,-0.040978,0.008500,-0.080859,0.000000,-0.079875,-0.269417,0.000000
0.390000,-3.267989,0.242590,-1.498082,0.138676,0.037922,-0.015837,0.834679,0.076765,-0.156232,2.762915,-0.842332,-0.634779,1.095439,-4.911295,0.080354,0.007676,-0.083556,0.000000,-0.084881,-0.269992,0.000000
0.400000,-3.266560,0.242973,-1.498248,0.147162,0.038647,-0.017431,0.862363,0.068102,-0.162573,2.773366,-0.890063,-0.633387,0.869004,-4.742871,0.192334,0.006803,-0.086259,0.000000,-0.089506,-0.270578,-0.000000
0.410000,-3.265044,0.243362,-1.498430,0.155924,0.039283,-0.019089,0.890134,0.058966,-0.168896,2.780401,-0.936984,-0.630836,0.637849,-4.566014,0.306057,0.005886,-0.088966,0.000000,-0.094036,-0.270829,0.000000
0.420000,-3.263440,0.243758,-1.498630,0.164964,0.039825,-0.020809,0.917971,0.049375,-0.175187,2.787037,-0.980674,-0.627372,0.591494,-4.242141,0.398094,0.004924,-0.091676,0.000000,-0.098230,-0.271047,0.000000
0.430000,-3.261744,0.244158,-1.498847,0.174284,0.040269,-0.022592,0.945862,0.039355,-0.181439,2.790176,-1.023303,-0.622636,0.032619,-4.284485,0.549534,0.003921,-0.094386,0.000000,-0.102305,-0.270927,0.000000
0.440000,-3.259954,0.244563,-1.499082,0.183882,0.040611,-0.024438,0.973761,0.028911,-0.187636,2.789642,-1.064889,-0.616610,-0.042078,-3.959131,0.644170,0.002878,-0.097093,0.000000,-0.106265,-0.270456,0.000000
0.450000,-3.258066,0.244970,-1.499336,0.193759,0.040846,-0.026345,1.001654,0.018070,-0.193768,2.788492,-1.103075,-0.609655,-0.287845,-3.749046,0.758299,0.001797,-0.099795,0.000000,-0.109875,-0.269935,-0.000000
0.460000,-3.256078,0.245379,-1.499609,0.203915,0.040971,-0.028313,1.029519,0.006854,-0.199824,2.783951,-1.139741,-0.601373,-0.542467,-3.533013,0.874388,0.000681,-0.102490,0.000000,-0.113324,-0.269096,-0.000000
0.470000,-3.253986,0.245789,-1.499902,0.214349,0.040982,-0.030341,1.057331,-0.004713,-0.205794,2.778346,-1.173254,-0.592387,-0.656152,-3.217065,0.945895,-0.000468,-0.105177,0.000000,-0.116452,-0.268164,0.000000
0.480000,-3.251790,0.246199,-1.500216,0.225061,0.040875,-0.032428,1.085074,-0.016605,-0.211667,2.769199,-1.205079,-0.581971,-1.176977,-3.148393,1.138013,-0.001647,-0.107853,0.000000,-0.119405,-0.266904,0.000000
0.490000,-3.249484,0.246606,-1.500551,0.236050,0.040649,-0.034574,1.112702,-0.028810,-0.217428,2.756330,-1.235222,-0.570095,-1.320670,-2.830306,1.213587,-0.002856,-0.110514,0.000000,-0.122185,-0.265302,0.000000
0.500000,-3.247068,0.247011,-1.500908,0.247315,0.040298,-0.036776,1.140197,-0.041298,-0.223067,2.742098,-1.262082,-0.557497,-1.603595,-2.589522,1.328700,-0.004090,-0.113158,0.000000,-0.124636,-0.263585,-0.000000
0.510000,-3.244537,0.247412,-1.501287,0.258854,0.039822,-0.039035,1.167531,-0.054045,-0.228573,2.724267,-1.286932,-0.543463,-1.896950,-2.344123,1.445020,-0.005348,-0.115784,0.000000,-0.126885,-0.261542,0.000000
0.520000,-3.241890,0.247807,-1.501689,0.270665,0.039217,-0.041347,1.194678,-0.067026,-0.233935,2.704749,-1.308619,-0.528901,-2.073221,-2.026908,1.499144,-0.006626,-0.118389,0.000000,-0.128818,-0.259353,0.000000
0.530000,-3.239123,0.248196,-1.502114,0.282746,0.038481,-0.043713,1.221613,-0.080211,-0.239145,2.681408,-1.328178,-0.512817,-2.598341,-1.885075,1.718321,-0.007923,-0.120970,0.000000,-0.130542,-0.256822,0.000000
0.540000,-3.236234,0.248576,-1.502563,0.295096,0.037612,-0.046130,1.248292,-0.093582,-0.244186,2.654070,-1.345605,-0.495183,-2.804942,-1.564713,1.776228,-0.009237,-0.123524,0.000000,-0.132058,-0.253936,0.000000
0.550000,-3.233220,0.248948,-1.503037,0.307711,0.036608,-0.048596,1.274689,-0.107111,-0.249048,2.624720,-1.359752,-0.477027,-3.131734,-1.298490,1.886651,-0.010563,-0.126049,0.000000,-0.133253,-0.250879,0.000000
0.560000,-3.230079,0.249308,-1.503535,0.320589,0.035469,-0.051110,1.300773,-0.120770,-0.253721,2.591429,-1.371492,-0.457435,-3.469309,-1.027428,1.996624,-0.011901,-0.128541,0.000000,-0.134216,-0.247475,0.000000
0.570000,-3.226807,0.249657,-1.504059,0.333726,0.034193,-0.053670,1.326511,-0.134530,-0.258196,2.555845,-1.380090,-0.437421,-3.705692,-0.711903,2.039301,-0.013247,-0.130998,0.000000,-0.134875,-0.243874,0.000000
0.580000,-3.223403,0.249992,-1.504609,0.347118,0.032778,-0.056273,1.351875,-0.148363,-0.262465,2.516093,-1.386144,-0.415956,-4.247939,-0.498759,2.254196,-0.014598,-0.133418,0.000000,-0.135292,-0.239909,0.000000
0.590000,-3.219864,0.250312,-1.505185,0.360762,0.031225,-0.058918,1.376818,-0.162245,-0.266510,2.472011,-1.389633,-0.393027,-4.512447,-0.177596,2.297060,-0.015952,-0.135795,0.000000,-0.135468,-0.235566,-0.000000
0.600000,-3.216187,0.250616,-1.505787,0.374653,0.029533,-0.061603,1.401308,-0.176145,-0.270324,2.425330,-1.389855,-0.369741,-4.882252,0.113411,2.393314,-0.017306,-0.138129,0.000000,-0.135334,-0.231002,0.000000
0.610000,-3.212370,0.250902,-1.506417,0.388786,0.027702,-0.064324,1.425310,-0.190033,-0.273900,2.374351,-1.387284,-0.345214,-5.261126,0.409834,2.484890,-0.018658,-0.140415,0.000000,-0.134938,-0.226064,-0.000000
0.620000,-3.208411,0.251169,-1.507074,0.403157,0.025733,-0.067080,1.448787,-0.203880,-0.277228,2.320598,-1.381566,-0.320321,-5.544109,0.726655,2.519695,-0.020004,-0.142650,0.000000,-0.134247,-0.220891,-0.000000
0.630000,-3.204306,0.251416,-1.507758,0.417760,0.023625,-0.069868,1.471706,-0.217654,-0.280303,2.262320,-1.372901,-0.294274,-6.114295,1.006908,2.689453,-0.021342,-0.144832,0.000000,-0.133283,-0.215323,0.000000
0.640000,-3.200055,0.251641,-1.508471,0.432589,0.021380,-0.072685,1.494017,-0.231328,-0.283110,2.199378,-1.361250,-0.267100,-6.420908,1.332337,2.717027,-0.022668,-0.146956,0.000000,-0.132045,-0.209350,-0.000000
0.650000,-3.195654,0.251843,-1.509212,0.447638,0.018999,-0.075529,1.515685,-0.244868,-0.285644,2.133424,-1.346305,-0.239721,-6.824753,1.649386,2.783920,-0.023981,-0.149020,0.000000,-0.130501,-0.203118,0.000000
0.660000,-3.191101,0.252021,-1.509982,0.462901,0.016483,-0.078397,1.536669,-0.258243,-0.287901,2.062853,-1.328161,-0.211510,-7.236009,1.973005,2.842459,-0.025277,-0.151018,0.000000,-0.128663,-0.196483,-0.000000
0.670000,-3.186395,0.252172,-1.510780,0.478369,0.013835,-0.081286,1.556932,-0.271421,-0.289874,1.989188,-1.306894,-0.183035,-7.550169,2.288404,2.865191,-0.026554,-0.152950,0.000000,-0.126539,-0.189584,-0.000000
0.680000,-3.181533,0.252297,-1.511608,0.494037,0.011056,-0.084194,1.576437,-0.284370,-0.291560,1.910736,-1.282228,-0.153942,-8.142355,2.645869,2.952211,-0.027807,-0.154810,0.000000,-0.124104,-0.182263,-0.000000
0.690000,-3.176514,0.252393,-1.512464,0.509895,0.008148,-0.087116,1.595130,-0.297054,-0.292951,1.827395,-1.254101,-0.124309,-8.473211,2.973411,2.958339,-0.029035,-0.156595,0.000000,-0.121353,-0.174509,0.000000
0.700000,-3.171335,0.252460,-1.513350,0.525937,0.005115,-0.090052,1.612975,-0.309441,-0.294046,1.740816,-1.222682,-0.094690,-8.895666,3.318335,2.977767,-0.030233,-0.158301,0.000000,-0.118300,-0.166473,0.000000
0.710000,-3.165995,0.252495,-1.514265,0.542152,0.001960,-0.092996,1.629930,-0.321495,-0.294844,1.649480,-1.187636,-0.064939,-9.321124,3.670523,2.983300,-0.031400,-0.159924,0.000000,-0.114915,-0.158009,0.000000
0.720000,-3.160491,0.252498,-1.515210,0.558532,-0.001313,-0.095947,1.645954,-0.333183,-0.295344,1.554857,-1.149449,-0.034947,-9.652216,3.988408,3.000658,-0.032531,-0.161462,0.000000,-0.111245,-0.149261,0.000000
0.730000,-3.154823,0.252468,-1.516184,0.575068,-0.004702,-0.098902,1.661011,-0.344471,-0.295544,1.455414,-1.107419,-0.005231,-10.237538,4.419031,2.939822,-0.033623,-0.162910,0.000000,-0.107221,-0.140071,-0.000000
0.740000,-3.148989,0.252404,-1.517188,0.591749,-0.008201,-0.101857,1.675046,-0.355319,-0.295450,1.351103,-1.061467,0.024057,-10.574855,4.751530,2.928156,-0.034674,-0.164263,0.000000,-0.102834,-0.130431,0.000000
0.750000,-3.142988,0.252304,-1.518221,0.608565,-0.011807,-0.104810,1.688023,-0.365690,-0.295063,1.243500,-1.012196,0.053177,-10.993170,5.124213,2.880871,-0.035679,-0.165519,0.000000,-0.098142,-0.120495,0.000000
0.760000,-3.136818,0.252167,-1.519284,0.625506,-0.015513,-0.107758,1.699900,-0.375549,-0.294390,1.131277,-0.958870,0.081402,-11.408057,5.504585,2.813832,-0.036635,-0.166673,0.000000,-0.093072,-0.110121,-0.000000
0.770000,-3.130478,0.251993,-1.520376,0.642559,-0.019316,-0.110697,1.710638,-0.384858,-0.293434,1.015750,-0.902430,0.109883,-11.737558,5.820300,2.829226,-0.037540,-0.167722,0.000000,-0.087718,-0.099453,0.000000
0.780000,-3.123966,0.251781,-1.521498,0.659714,-0.023209,-0.113625,1.720200,-0.393583,-0.292197,0.895682,-0.841694,0.136869,-12.276032,6.328551,2.563774,-0.038388,-0.168662,0.000000,-0.081957,-0.088341,0.000000
0.790000,-3.117283,0.251529,-1.522649,0.676959,-0.027185,-0.116540,1.728536,-0.401677,-0.290702,0.771093,-0.776573,0.162131,-12.598516,6.660181,2.536958,-0.039177,-0.169488,0.000000,-0.075779,-0.076778,0.000000
0.800000,-3.110427,0.251237,-1.523829,0.694281,-0.031240,-0.119439,1.735612,-0.409104,-0.288955,0.643388,-0.708170,0.187119,-12.982204,7.057162,2.406971,-0.039903,-0.170198,0.000000,-0.069293,-0.064922,0.000000
0.810000,-3.103397,0.250904,-1.525038,0.711667,-0.035365,-0.122318,1.741390,-0.415825,-0.286968,0.511562,-0.635303,0.209993,-13.354992,7.461407,2.253740,-0.040562,-0.170787,0.000000,-0.062377,-0.052641,0.000000
0.820000,-3.096193,0.250529,-1.526275,0.729104,-0.039554,-0.125177,1.745833,-0.421801,-0.284753,0.376569,-0.559442,0.232955,-13.666774,7.765005,2.249729,-0.041150,-0.171251,0.000000,-0.055180,-0.040061,0.000000
0.830000,-3.088815,0.250113,-1.527541,0.746579,-0.043799,-0.128013,1.748908,-0.426997,-0.282319,0.237744,-0.478866,0.253124,-14.096616,8.352127,1.778649,-0.041664,-0.171587,0.000000,-0.047519,-0.027066,-0.000000
0.840000,-3.081262,0.249653,-1.528835,0.764078,-0.048091,-0.130823,1.750575,-0.431362,-0.279702,0.095197,-0.393481,0.270215,-14.384716,8.671001,1.723646,-0.042098,-0.171791,0.000000,-0.039383,-0.013658,0.000000
0.850000,-3.073533,0.249151,-1.530157,0.781586,-0.052423,-0.133606,1.750803,-0.434858,-0.276914,-0.050113,-0.304981,0.286804,-14.699729,9.083092,1.504900,-0.042450,-0.171860,0.000000,-0.030942,0.000032,0.000000
0.860000,-3.065630,0.248605,-1.531507,0.799089,-0.056785,-0.136361,1.749562,-0.437445,-0.273978,-0.198598,-0.211827,0.299973,-14.993379,9.497747,1.260358,-0.042716,-0.171789,0.000000,-0.022033,0.014096,0.000000
0.870000,-3.057552,0.248015,-1.532885,0.816572,-0.061169,-0.139085,1.746822,-0.439084,-0.270913,-0.349869,-0.115489,0.313189,-15.261295,9.818440,1.250550,-0.042890,-0.171576,0.000000,-0.012809,0.028442,0.000000
0.880000,-3.049299,0.247381,-1.534289,0.834020,-0.065564,-0.141779,1.742556,-0.439739,-0.267729,-0.503832,-0.014440,0.322209,-15.527801,10.392515,0.546933,-0.042970,-0.171219,0.000000,-0.003102,0.043136,0.000000
0.890000,-3.040871,0.246704,-1.535720,0.851418,-0.069960,-0.144440,1.736737,-0.439357,-0.264484,-0.660274,0.091371,0.326706,-15.752794,10.720237,0.481369,-0.042951,-0.170712,0.000000,0.007100,0.058165,0.000000
0.900000,-3.032270,0.245982,-1.537178,0.868750,-0.074347,-0.147068,1.729344,-0.437902,-0.261195,-0.818840,0.200373,0.330681,-15.960195,11.128492,0.180545,-0.042827,-0.170053,0.000000,0.017628,0.073433,0.000000
0.910000,-3.023497,0.245217,-1.538661,0.886000,-0.078714,-0.149664,1.720355,-0.435334,-0.257888,-0.979185,0.313976,0.330006,-16.138181,11.536018,-0.143431,-0.042596,-0.169241,0.000000,0.028643,0.088976,0.000000
0.920000,-3.014551,0.244408,-1.540171,0.903152,-0.083050,-0.152226,1.709752,-0.431613,-0.254591,-1.141825,0.430567,0.329377,-16.352420,11.835055,-0.152910,-0.042253,-0.168271,0.000000,0.039968,0.104770,0.000000
0.930000,-3.005434,0.243556,-1.541706,0.920189,-0.087343,-0.154755,1.697515,-0.426706,-0.251320,-1.305453,0.551788,0.323375,-16.367564,12.409699,-1.054014,-0.041795,-0.167143,0.000000,0.051791,0.120780,-0.000000
0.940000,-2.996147,0.242661,-1.543266,0.937096,-0.091580,-0.157253,1.683641,-0.420562,-0.248144,-1.469740,0.677649,0.311686,-16.517891,12.706936,-1.114484,-0.041216,-0.165853,0.000000,0.064115,0.136979,0.000000
0.950000,-2.986693,0.241725,-1.544851,0.953857,-0.095750,-0.159719,1.668115,-0.413145,-0.245084,-1.635419,0.806360,0.299612,-16.580832,13.088050,-1.469986,-0.040512,-0.164400,0.000000,0.076747,0.153353,0.000000
0.960000,-2.977071,0.240747,-1.546460,0.970453,-0.099838,-0.162155,1.650933,-0.404420,-0.242172,-1.801013,0.939343,0.282170,-16.606318,13.461354,-1.837885,-0.039679,-0.162783,0.000000,0.089847,0.169838,-0.000000
0.970000,-2.967284,0.239728,-1.548094,0.986870,-0.103833,-0.164563,1.632089,-0.394349,-0.239439,-1.968115,1.075132,0.264516,-16.737035,13.738834,-1.868490,-0.038714,-0.161000,0.000000,0.103252,0.186506,-0.000000
0.980000,-2.957334,0.238670,-1.549751,1.003089,-0.107721,-0.166944,1.611575,-0.382903,-0.236902,-2.134137,1.215006,0.241117,-16.459269,14.235172,-2.816278,-0.037613,-0.159050,0.000000,0.117111,0.203192,0.000000
0.990000,-2.947223,0.237574,-1.551432,1.019096,-0.111487,-0.169302,1.589412,-0.370036,-0.234637,-2.298635,1.358898,0.211757,-16.506850,14.496196,-2.877653,-0.036370,-0.156934,0.000000,0.131416,0.219852,0.000000
1.000000,-2.936953,0.236441,-1.553137,1.034872,-0.115117,-0.171638,1.565600,-0.355718,-0.232665,-2.463540,1.505259,0.182084,-16.396200,14.817903,-3.232564,-0.034984,-0.154650,0.000000,0.145993,0.236583,0.000000
1.010000,-2.926526,0.235272,-1.554865,1.050402,-0.118596,-0.173956,1.540149,-0.339919,-0.231015,-2.626226,1.655054,0.147199,-16.242089,15.122255,-3.584046,-0.033449,-0.152200,0.000000,0.160953,0.253199,0.000000
1.020000,-2.915946,0.234070,-1.556616,1.065670,-0.121910,-0.176259,1.513072,-0.322608,-0.229720,-2.789246,1.807497,0.111905,-16.251753,15.378872,-3.626072,-0.031764,-0.149583,0.000000,0.176199,0.269872,-0.000000
1.030000,-2.905214,0.232835,-1.558390,1.080658,-0.125043,-0.178552,1.484376,-0.303759,-0.228795,-2.948952,1.962894,0.071504,-15.680061,15.697631,-4.455913,-0.029924,-0.146800,0.000000,0.191775,0.286312,0.000000
1.040000,-2.894334,0.231569,-1.560187,1.095352,-0.127980,-0.180837,1.454107,-0.283341,-0.228308,-3.104827,2.121066,0.025964,-15.593593,15.917552,-4.493104,-0.027927,-0.143855,0.000000,0.207656,0.302456,0.000000
1.050000,-2.883308,0.230276,-1.562007,1.109735,-0.130705,-0.183119,1.422281,-0.261331,-0.228273,-3.259811,2.281305,-0.019597,-15.291655,16.141950,-4.769791,-0.025770,-0.140749,0.000000,0.223751,0.318513,-0.000000
1.060000,-2.872140,0.228956,-1.563850,1.123792,-0.133201,-0.185404,1.388927,-0.237707,-0.228714,-3.410390,2.443719,-0.069050,-14.944387,16.341222,-5.019921,-0.023451,-0.137484,0.000000,0.240077,0.334185,-0.000000
1.070000,-2.860833,0.227613,-1.565715,1.137509,-0.135453,-0.187695,1.354075,-0.212450,-0.229654,-3.559736,2.608086,-0.119008,-14.795812,16.523644,-5.059332,-0.020968,-0.134064,0.000000,0.256594,0.349726,-0.000000
1.080000,-2.849391,0.226248,-1.567604,1.150869,-0.137445,-0.189999,1.317751,-0.185540,-0.231105,-3.703606,2.774013,-0.172074,-13.968247,16.657172,-5.550582,-0.018319,-0.130490,0.000000,0.273262,0.364749,0.000000
1.090000,-2.837817,0.224865,-1.569515,1.163859,-0.139159,-0.192319,1.280024,-0.156965,-0.233106,-3.841458,2.941223,-0.228005,-13.719858,16.784206,-5.534695,-0.015503,-0.126770,0.000000,0.290043,0.379185,0.000000
1.100000,-2.826115,0.223466,-1.571450,1.176465,-0.140578,-0.194663,1.240928,-0.126712,-0.235662,-3.976833,3.109563,-0.283423,-13.225107,16.874473,-5.634942,-0.012518,-0.122906,0.000000,0.306905,0.393328,0.000000
1.110000,-2.814289,0.222054,-1.573409,1.188673,-0.141687,-0.197034,1.200510,-0.094772,-0.238778,-4.105840,3.278541,-0.339874,-12.688879,16.932375,-5.678310,-0.009364,-0.118905,0.000000,0.323792,0.406807,0.000000
1.120000,-2.802343,0.220633,-1.575391,1.200471,-0.142468,-0.199440,1.158820,-0.061139,-0.242463,-4.231583,3.448253,-0.397107,-12.338878,16.988562,-5.729080,-0.006042,-0.114771,0.000000,0.340703,0.419916,0.000000
1.130000,-2.790281,0.219206,-1.577397,1.211846,-0.142904,-0.201886,1.115903,-0.025807,-0.246718,-4.350090,3.617868,-0.453631,-11.353298,16.928318,-5.565229,-0.002551,-0.110509,0.000000,0.357542,0.432237,0.000000
1.140000,-2.778108,0.217776,-1.579429,1.222785,-0.142979,-0.204376,1.071845,0.011217,-0.251531,-4.460863,3.787023,-0.508831,-10.911817,16.912697,-5.495392,0.001109,-0.106129,0.000000,0.374265,0.443710,0.000000
1.150000,-2.765827,0.216347,-1.581485,1.233279,-0.142674,-0.206918,1.026698,0.049932,-0.256892,-4.567231,3.955865,-0.563070,-10.241139,16.833613,-5.310601,0.004934,-0.101636,0.000000,0.390873,0.454658,0.000000
1.160000,-2.753443,0.214924,-1.583567,1.243316,-0.141975,-0.209516,0.980527,0.090330,-0.262780,-4.665916,4.123560,-0.613928,-9.541039,16.716049,-5.040061,0.008925,-0.097038,0.000000,0.407278,0.464731,-0.000000
1.170000,-2.740962,0.213509,-1.585676,1.252886,-0.140862,-0.212175,0.933400,0.132400,-0.269176,-4.758416,4.290212,-0.665389,-8.905156,16.591328,-5.055630,0.013079,-0.092343,0.000000,0.423476,0.474110,0.000000
1.180000,-2.728387,0.212108,-1.587811,1.261981,-0.139321,-0.214901,0.885386,0.176128,-0.276066,-4.842895,4.454906,-0.710921,-7.984534,16.340142,-4.032619,0.017394,-0.087559,0.000000,0.439375,0.482552,0.000000
1.190000,-2.715724,0.210724,-1.589974,1.270591,-0.137334,-0.217698,0.836570,0.221490,-0.283370,-4.919005,4.617210,-0.749525,-7.282223,16.130313,-3.861799,0.021866,-0.082694,0.000000,0.454934,0.490021,0.000000
1.200000,-2.702977,0.209363,-1.592165,1.278710,-0.134886,-0.220570,0.787028,0.268465,-0.291054,-4.988033,4.777229,-0.786313,-6.469967,15.849492,-3.296552,0.026491,-0.077758,0.000000,0.470148,0.496688,0.000000
1.210000,-2.690152,0.208028,-1.594386,1.286330,-0.131960,-0.223520,0.736838,0.317024,-0.299063,-5.048739,4.934061,-0.814076,-5.638210,15.524205,-2.620736,0.031267,-0.072760,0.000000,0.484944,0.502381,0.000000
1.220000,-2.677252,0.206725,-1.596636,1.293445,-0.128540,-0.226552,0.686084,0.367136,-0.307342,-5.100430,5.087699,-0.841938,-4.725869,15.181459,-2.570463,0.036189,-0.067709,0.000000,0.499295,0.507105,-0.000000
1.230000,-2.664284,0.205459,-1.598917,1.300050,-0.124612,-0.229668,0.634856,0.418764,-0.315858,-5.143802,5.237233,-0.857497,-3.945803,14.716889,-0.515896,0.041251,-0.062615,0.000000,0.513154,0.510851,0.000000
1.240000,-2.651253,0.204235,-1.601230,1.306140,-0.120160,-0.232869,0.583236,0.471865,-0.324444,-5.178673,5.382170,-0.859406,-2.994712,14.277222,-0.222652,0.046450,-0.057486,0.000000,0.526496,0.513620,0.000000
1.250000,-2.638163,0.203058,-1.603575,1.311713,-0.115170,-0.236157,0.531316,0.526393,-0.333043,-5.203890,5.522490,-0.858515,-2.074296,13.764039,0.784211,0.051780,-0.052334,0.000000,0.539281,0.515376,-0.000000
1.260000,-2.625020,0.201933,-1.605953,1.316766,-0.109628,-0.239530,0.479186,0.582297,-0.341557,-5.220502,5.657450,-0.842048,-1.143140,13.203617,1.919050,0.057234,-0.047168,0.000000,0.551514,0.516173,0.000000
1.270000,-2.611830,0.200867,-1.608365,1.321297,-0.103519,-0.242987,0.426945,0.639521,-0.349894,-5.225753,5.786246,-0.825417,-0.002658,12.562343,2.007231,0.062807,-0.041998,0.000000,0.563046,0.515833,0.000000
1.280000,-2.598596,0.199865,-1.610813,1.325305,-0.096833,-0.246527,0.374699,0.698001,-0.357996,-5.222566,5.908845,-0.789320,0.639905,11.949097,5.243901,0.068493,-0.036834,0.000000,0.574005,0.514579,0.000000
1.290000,-2.585325,0.198932,-1.613296,1.328791,-0.089555,-0.250145,0.322521,0.757675,-0.365605,-5.210897,6.024737,-0.732138,1.796672,11.204818,5.613444,0.074286,-0.031685,0.000000,0.584400,0.512444,0.000000
1.300000,-2.572022,0.198076,-1.615816,1.331756,-0.081676,-0.253837,0.270522,0.818470,-0.372638,-5.187431,6.132889,-0.671770,2.801017,10.431806,7.062958,0.080178,-0.026561,0.000000,0.594031,0.509190,0.000000
1.310000,-2.558692,0.197301,-1.618373,1.334202,-0.073183,-0.257596,0.218800,0.880306,-0.378960,-5.155297,6.232947,-0.589552,3.809262,9.598448,8.632016,0.086164,-0.021471,0.000000,0.603037,0.505097,0.000000
1.320000,-2.545340,0.196614,-1.620968,1.336133,-0.064066,-0.261414,0.167464,0.943102,-0.384438,-5.109527,6.324926,-0.505901,5.172403,8.760298,8.846807,0.092237,-0.016426,0.000000,0.611288,0.499754,0.000000
1.330000,-2.531971,0.196022,-1.623602,1.337553,-0.054318,-0.265282,0.116636,1.006773,-0.388988,-5.055470,6.407384,-0.396917,5.636515,7.720636,12.982803,0.098388,-0.011436,0.000000,0.618885,0.493665,0.000000
1.340000,-2.518590,0.195530,-1.626274,1.338468,-0.043928,-0.269189,0.066381,1.071216,-0.392280,-4.993192,6.479692,-0.260988,6.999010,6.758547,13.466825,0.104612,-0.006506,0.000000,0.625858,0.486889,0.000000
1.350000,-2.505203,0.195145,-1.628986,1.338883,-0.032891,-0.273123,0.016822,1.136334,-0.394207,-4.916931,6.542118,-0.121089,8.079952,5.688849,15.262748,0.110902,-0.001649,0.000000,0.632048,0.478911,0.000000
1.360000,-2.491814,0.194874,-1.631737,1.338807,-0.021200,-0.277068,-0.031925,1.202019,-0.394606,-4.830580,6.593025,0.044868,9.191333,4.551385,17.140178,0.117251,0.003128,0.000000,0.637577,0.470131,0.000000
1.370000,-2.478429,0.194724,-1.634527,1.338248,-0.008849,-0.281009,-0.079753,1.268161,-0.393312,-4.733058,6.633573,0.214509,10.318338,3.480605,17.563372,0.123651,0.007816,0.000000,0.642359,0.460468,-0.000000
1.380000,-2.465051,0.194700,-1.637357,1.337215,0.004165,-0.284928,-0.126548,1.334647,-0.390216,-4.624106,6.661015,0.412396,11.475519,1.995016,22.040952,0.130096,0.012406,0.000000,0.646464,0.449931,0.000000
1.390000,-2.451686,0.194809,-1.640225,1.335721,0.017844,-0.288806,-0.172196,1.401335,-0.384959,-4.503520,6.674618,0.639766,12.643143,0.782554,22.655574,0.136578,0.016889,0.000000,0.649925,0.438551,0.000000
1.400000,-2.438338,0.195059,-1.643133,1.333776,0.032192,-0.292620,-0.216579,1.468099,-0.377418,-4.371163,6.675873,0.872118,13.834305,-0.609869,24.589891,0.143092,0.021256,0.000000,0.652625,0.426298,0.000000
1.410000,-2.425012,0.195455,-1.646077,1.331394,0.047206,-0.296346,-0.259574,1.534804,-0.367413,-4.225652,6.662679,1.132668,15.068847,-2.061375,26.567776,0.149629,0.025499,0.000000,0.654732,0.413098,0.000000
1.420000,-2.411712,0.196005,-1.649059,1.328589,0.062887,-0.299959,-0.301067,1.601301,-0.354776,-4.071581,6.634227,1.394652,15.945223,-3.619418,26.744361,0.156183,0.029610,0.000000,0.655840,0.399346,-0.000000
1.430000,-2.398441,0.196715,-1.652076,1.325378,0.079231,-0.303433,-0.340955,1.667438,-0.339413,-3.902555,6.590502,1.686758,17.869342,-5.136397,31.697462,0.162744,0.033581,0.000000,0.656423,0.384505,0.000000
1.440000,-2.385205,0.197592,-1.655127,1.321776,0.096234,-0.306737,-0.379066,1.733059,-0.320931,-3.718105,6.530852,2.009777,18.825446,-6.825882,31.965619,0.169310,0.037399,0.000000,0.656529,0.368558,0.000000
1.450000,-2.372007,0.198642,-1.658210,1.317803,0.113890,-0.309841,-0.415289,1.797997,-0.299230,-3.524300,6.453931,2.333723,20.136331,-8.549033,33.737146,0.175871,0.041057,0.000000,0.655592,0.351987,0.000000
1.460000,-2.358851,0.199872,-1.661323,1.313477,0.132191,-0.312711,-0.449498,1.862051,-0.274172,-3.315139,6.353099,2.680817,21.476924,-10.470658,35.391546,0.182417,0.044545,0.000000,0.653393,0.334281,0.000000
1.470000,-2.345739,0.201288,-1.664464,1.308820,0.151128,-0.315312,-0.481565,1.925088,-0.245582,-3.096745,6.254953,3.038708,22.419268,-10.292634,36.431108,0.188944,0.047854,0.000000,0.652313,0.315972,-0.000000
1.480000,-2.332675,0.202896,-1.667628,1.303853,0.170689,-0.317610,-0.511377,1.987031,-0.213336,-2.862194,6.123450,3.414561,24.499795,-16.052871,38.725609,0.195455,0.050974,0.000000,0.649077,0.296394,0.000000
1.490000,-2.319663,0.204704,-1.670815,1.298600,0.190863,-0.319566,-0.538752,2.047430,-0.177232,-2.611054,5.956441,3.807423,25.513213,-16.223540,39.556024,0.201917,0.053892,0.000000,0.643509,0.275473,-0.000000
1.500000,-2.306704,0.206716,-1.674018,1.293087,0.211632,-0.321142,-0.563569,2.106178,-0.137168,-2.350053,5.789178,4.207418,26.904861,-18.367635,40.680278,0.208330,0.056596,0.000000,0.638822,0.253777,0.000000
1.510000,-2.293802,0.208938,-1.677236,1.287338,0.232980,-0.322296,-0.585664,2.163101,-0.093053,-2.065502,5.591373,4.616912,28.460822,-20.554497,41.570865,0.214686,0.059071,0.000000,0.632190,0.229919,-0.000000
1.520000,-2.280958,0.211377,-1.680463,1.281383,0.254888,-0.322989,-0.604953,2.217985,-0.044772,-1.795055,5.383909,5.041724,27.127054,-21.569953,42.987253,0.220976,0.061310,0.000000,0.625716,0.207581,0.000000
1.530000,-2.268175,0.214038,-1.683694,1.275248,0.277333,-0.323177,-0.621444,2.270675,0.007784,-1.491512,5.146733,5.468173,33.625998,-25.888659,42.255487,0.227194,0.063314,0.000000,0.617246,0.181977,-0.000000
1.540000,-2.255453,0.216926,-1.686925,1.268965,0.300292,-0.322819,-0.634655,2.320812,0.064585,-1.152932,4.878744,5.893614,32.572304,-27.079139,43.169591,0.233313,0.065032,0.000000,0.606590,0.152769,0.000000
1.550000,-2.242796,0.220045,-1.690149,1.262566,0.323740,-0.321871,-0.644572,2.368225,0.125691,-0.827308,4.599747,6.327599,34.055095,-29.351353,43.212981,0.239326,0.066460,0.000000,0.595792,0.124689,0.000000
1.560000,-2.230202,0.223402,-1.693360,1.256085,0.347647,-0.320291,-0.651115,2.412703,0.191094,-0.479008,4.291687,6.751620,35.419687,-31.650710,42.883693,0.245220,0.067588,0.000000,0.582678,0.093970,0.000000
1.570000,-2.217674,0.227000,-1.696552,1.249556,0.371984,-0.318035,-0.654122,2.454031,0.260817,-0.120721,3.972374,7.196691,36.400106,-32.800141,44.791442,0.250982,0.068393,0.000000,0.569673,0.061963,-0.000000
1.580000,-2.205211,0.230843,-1.699718,1.243015,0.396717,-0.315060,-0.653479,2.492047,0.334943,0.252397,3.623352,7.619364,38.217428,-37.017993,39.657462,0.256604,0.068859,0.000000,0.553852,0.027747,0.000000
1.590000,-2.192814,0.234935,-1.702851,1.236499,0.421812,-0.311323,-0.649025,2.526393,0.413104,0.639898,3.244084,8.015122,39.095777,-38.232141,40.755141,0.262047,0.068958,0.000000,0.534875,-0.008829,0.000000
1.600000,-2.180481,0.239280,-1.705942,1.230047,0.447232,-0.306784,-0.640657,2.556902,0.495307,1.035500,2.853798,8.422416,40.183030,-40.411127,39.352797,0.267301,0.068671,0.000000,0.515531,-0.047016,-0.000000
1.610000,-2.168213,0.243881,-1.708984,1.223699,0.472937,-0.301404,-0.628292,2.583372,0.581420,1.438668,2.436369,8.795938,41.090892,-42.549583,37.502471,0.272346,0.067976,0.000000,0.492864,-0.087245,0.000000
1.620000,-2.156007,0.248740,-1.711967,1.217495,0.498885,-0.295143,-0.611802,2.605601,0.671338,1.863013,2.007780,9.191739,43.122584,-43.653472,39.476317,0.277160,0.066847,0.000000,0.469904,-0.130729,0.000000
1.630000,-2.143862,0.253859,-1.714883,1.211477,0.525034,-0.287964,-0.591037,2.623437,0.765079,2.287362,1.553119,9.539714,41.707948,-47.278412,30.004733,0.281730,0.065252,0.000000,0.442965,-0.175966,0.000000
1.640000,-2.131776,0.259241,-1.717723,1.205688,0.551338,-0.279831,-0.566066,2.636573,0.861937,2.709667,1.072643,9.834059,43.375957,-48.295079,30.971839,0.286003,0.063177,0.000000,0.411551,-0.222928,0.000000
1.650000,-2.119747,0.264886,-1.720477,1.200170,0.577750,-0.270715,-0.536775,2.644869,0.961837,3.148994,0.583333,10.139933,43.825939,-50.048245,28.009727,0.289960,0.060591,0.000000,0.379146,-0.273410,0.000000
1.660000,-2.107772,0.270796,-1.723134,1.194967,0.604219,-0.260585,-0.503086,2.648190,1.064536,3.589417,0.078613,10.393326,44.187913,-51.561639,24.686633,0.293572,0.057462,0.000000,0.342841,-0.326352,0.000000
1.670000,-2.095847,0.276971,-1.725685,1.190123,0.630696,-0.249416,-0.464981,2.646337,1.169756,4.031840,-0.453760,10.651773,44.318784,-54.219469,24.960414,0.296804,0.053764,0.000000,0.302841,-0.381683,0.000000
1.680000,-2.083968,0.283410,-1.728119,1.185682,0.657128,-0.237182,-0.422443,2.639102,1.277355,4.476270,-0.991223,10.849716,44.543127,-53.225495,14.526120,0.299617,0.049469,0.000000,0.259096,-0.440007,-0.000000
1.690000,-2.072132,0.290113,-1.730425,1.181689,0.683460,-0.223864,-0.375454,2.626510,1.386515,4.921240,-1.531239,10.981997,44.377114,-55.424066,13.912413,0.301972,0.044543,0.000000,0.211298,-0.501316,0.000000
1.700000,-2.060333,0.297079,-1.732593,1.178188,0.709640,-0.209447,-0.324027,2.608392,1.497016,5.363660,-2.093383,11.110097,44.125634,-56.301499,9.659872,0.303828,0.038959,0.000000,0.159009,-0.565097,0.000000
1.710000,-2.048566,0.304305,-1.734610,1.175223,0.735609,-0.193920,-0.268211,2.584641,1.608476,5.798357,-2.657854,11.173220,43.608362,-56.987582,5.099510,0.305136,0.032691,0.000000,0.101909,-0.631158,0.000000
1.720000,-2.036826,0.311790,-1.736467,1.172839,0.761313,-0.177276,-0.208013,2.555181,1.720502,6.242822,-3.236406,11.231436,44.455256,-58.275263,4.415227,0.305852,0.025708,0.000000,0.040401,-0.701396,-0.000000
1.730000,-2.025107,0.319530,-1.738152,1.171078,0.786694,-0.159509,-0.143417,2.519919,1.832847,6.670071,-3.813983,11.216904,40.939262,-57.192241,-7.410133,0.305926,0.017977,0.000000,-0.026661,-0.772967,0.000000
1.740000,-2.013403,0.327522,-1.739654,1.169984,0.811693,-0.140621,-0.074685,2.478916,1.944566,7.077170,-4.387913,11.125339,41.256944,-57.975362,-8.799474,0.305299,0.009495,0.000000,-0.099540,-0.845287,0.000000
1.750000,-2.001705,0.335763,-1.740961,1.169598,0.836253,-0.120621,-0.001848,2.432129,2.055353,7.487729,-4.969198,11.022572,40.018814,-57.827322,-13.882207,0.303919,0.000238,0.000000,-0.177468,-0.921005,0.000000
1.760000,-1.990008,0.344246,-1.742062,1.169960,0.860316,-0.099519,0.074978,2.379580,2.164781,7.874390,-5.539026,10.854086,38.507885,-57.338934,-18.989731,0.301733,-0.009807,0.000000,-0.260552,-0.996643,0.000000
1.770000,-1.978303,0.352967,-1.742948,1.171110,0.883825,-0.077331,0.155686,2.321268,2.272332,8.268540,-6.126601,10.650325,39.101771,-58.934298,-22.575475,0.298680,-0.020651,0.000000,-0.351436,-1.075828,0.000000
1.780000,-1.966583,0.361920,-1.743605,1.173087,0.906722,-0.054080,0.240234,2.257132,2.377579,8.630835,-6.691670,10.385557,33.289413,-54.002242,-30.402395,0.294691,-0.032311,0.000000,-0.446429,-1.153196,0.000000
1.790000,-1.954839,0.371099,-1.744026,1.175926,0.928950,-0.029790,0.328175,2.187532,2.479830,8.957785,-7.230180,10.058726,33.271396,-54.873835,-34.140362,0.289740,-0.044741,0.000000,-0.544930,-1.227521,0.000000
1.800000,-1.943062,0.380497,-1.744198,1.179661,0.950454,-0.004494,0.419413,2.112476,2.578648,9.285465,-7.778032,9.695988,31.038811,-53.446141,-39.210240,0.283767,-0.057934,0.000000,-0.650399,-1.302978,0.000000
1.810000,-1.931242,0.390106,-1.744112,1.184325,0.971181,0.021770,0.513755,2.032085,2.673570,9.578404,-8.296517,9.280532,28.591104,-51.691332,-44.116058,0.276726,-0.071867,0.000000,-0.758256,-1.374058,0.000000
1.820000,-1.919372,0.399918,-1.743759,1.189946,0.991079,0.048962,0.610984,1.946488,2.764076,9.866582,-8.824688,8.811732,27.978880,-52.467446,-49.378411,0.268575,-0.086498,0.000000,-0.873169,-1.443825,0.000000
1.830000,-1.907440,0.409924,-1.743130,1.196554,1.010094,0.077035,0.710949,1.855728,2.849659,10.115649,-9.314934,8.298569,21.776519,-45.498509,-53.220078,0.259265,-0.101790,0.000000,-0.987866,-1.506746,0.000000
1.840000,-1.895437,0.420117,-1.742216,1.204172,1.028178,0.105938,0.813148,1.760341,2.929908,10.322626,-9.762960,7.742965,20.643321,-45.519599,-58.116195,0.248826,-0.117643,0.000000,-1.100569,-1.561260,-0.000000
1.850000,-1.883353,0.430485,-1.741009,1.212823,1.045286,0.135614,0.917385,1.660440,3.004353,10.519143,-10.212277,7.139012,17.592429,-42.861904,-62.392601,0.237239,-0.133990,0.000000,-1.216364,-1.610532,0.000000
1.860000,-1.871177,0.441019,-1.739501,1.222526,1.061372,0.166004,1.023382,1.556257,3.072584,10.674388,-10.618469,6.501424,14.374967,-39.910692,-66.318762,0.224518,-0.150743,0.000000,-1.327272,-1.649420,0.000000
1.870000,-1.858899,0.451709,-1.737687,1.233296,1.076397,0.197044,1.130840,1.448044,3.134154,10.814891,-11.024255,5.802132,12.796176,-39.692221,-72.298040,0.210688,-0.167800,0.000000,-1.438731,-1.679944,0.000000
1.880000,-1.846508,0.462543,-1.735558,1.245147,1.090320,0.228663,1.239524,1.335951,3.188565,10.910837,-11.379731,5.081526,6.348390,-31.325359,-71.737584,0.195776,-0.185057,0.000000,-1.540740,-1.697751,0.000000
1.890000,-1.833993,0.473511,-1.733112,1.258089,1.103106,0.260791,1.348893,1.220643,3.235738,10.959989,-11.680976,4.344160,4.387772,-30.432389,-76.892295,0.179914,-0.202369,0.000000,-1.630934,-1.701938,0.000000
1.900000,-1.821343,0.484601,-1.730341,1.272126,1.114723,0.293352,1.458678,1.102329,3.275254,10.990533,-11.974799,3.555015,0.792264,-26.775344,-79.675781,0.163172,-0.219618,0.000000,-1.715528,-1.694892,0.000000
1.910000,-1.808547,0.495802,-1.727243,1.287262,1.125143,0.326269,1.568539,0.981338,3.306836,10.974942,-12.216245,2.758730,-2.916484,-22.916141,-81.928087,0.145656,-0.236676,0.000000,-1.785341,-1.673631,-0.000000
1.920000,-1.795594,0.507100,-1.723815,1.303496,1.134342,0.359462,1.678134,0.858020,3.330164,10.941286,-12.445816,1.895513,-4.793286,-21.597412,-88.321710,0.127490,-0.253410,0.000000,-1.846409,-1.639960,-0.000000
1.930000,-1.782473,0.518484,-1.720054,1.320823,1.142297,0.392844,1.787194,0.732621,3.344797,10.858567,-12.618836,1.042511,-11.783398,-12.948001,-82.143702,0.108790,-0.269698,0.000000,-1.889461,-1.592250,0.000000
1.940000,-1.769174,0.529942,-1.715958,1.339236,1.148990,0.426330,1.895129,0.605852,3.351090,10.725281,-12.732466,0.206689,-13.890902,-11.161597,-87.312900,0.089765,-0.285403,0.000000,-1.913781,-1.531369,0.000000
1.950000,-1.755685,0.541460,-1.711527,1.358721,1.154410,0.459836,2.001652,0.478001,3.348712,10.572453,-12.830023,-0.682456,-17.650033,-6.951118,-88.102706,0.070549,-0.300415,0.000000,-1.926618,-1.459498,0.000000
1.960000,-1.741996,0.553026,-1.706761,1.379263,1.158548,0.493275,2.106435,0.349430,3.337534,10.378274,-12.877023,-1.552304,-21.298391,-2.759158,-88.366500,0.051292,-0.314635,0.000000,-1.922133,-1.377494,0.000000
1.970000,-1.728096,0.564627,-1.701662,1.400843,1.161398,0.526558,2.209087,0.220575,3.317456,10.145588,-12.888060,-2.472064,-25.114604,0.857223,-93.032996,0.032152,-0.327962,0.000000,-1.903586,-1.283741,-0.000000
1.980000,-1.713975,0.576249,-1.696231,1.423437,1.162959,0.559593,2.309234,0.091823,3.288219,9.878612,-12.853504,-3.359438,-28.263698,6.059996,-84.299404,0.013271,-0.340305,0.000000,-1.869906,-1.183788,-0.000000
1.990000,-1.699624,0.587882,-1.690471,1.447018,1.163236,0.592294,2.406549,-0.036340,3.250419,9.578308,-12.773148,-4.207089,-31.895496,9.695313,-87.678333,-0.005201,-0.351629,0.000000,-1.822659,-1.079575,0.000000
2.000000,-1.685032,0.599510,-1.684386,1.471557,1.162236,0.624573,2.500678,-0.163527,3.203915,9.242035,-12.657171,-5.090402,-35.224623,13.796149,-86.418161,-0.023147,-0.361872,0.000000,-1.764626,-0.968283,0.000000
2.010000,-1.670190,0.611122,-1.677981,1.497020,1.159970,0.656343,2.591304,-0.289357,3.148772,8.878482,-12.502733,-5.934069,-38.338502,17.725799,-84.676743,-0.040462,-0.370999,0.000000,-1.696908,-0.855970,0.000000
2.020000,-1.655088,0.622705,-1.671262,1.523370,1.156455,0.687520,2.678075,-0.413399,3.085101,8.467685,-12.297015,-6.805024,-42.947369,22.769197,-87.105068,-0.057049,-0.378982,0.000000,-1.618948,-0.737780,0.000000
2.030000,-1.639719,0.634247,-1.664233,1.550567,1.151710,0.718016,2.760601,-0.535201,3.012856,8.037874,-12.060984,-7.625667,-42.961218,24.395406,-76.893788,-0.072823,-0.385789,0.000000,-1.535499,-0.622313,0.000000
2.040000,-1.624074,0.645735,-1.656904,1.578568,1.145759,0.747751,2.838785,-0.654530,2.932796,7.591852,-11.796827,-8.389358,-47.070951,29.047273,-78.164064,-0.087748,-0.391476,0.000000,-1.448425,-0.510994,0.000000
2.050000,-1.608146,0.657158,-1.649281,1.607327,1.138629,0.776646,2.912285,-0.770971,2.844979,7.104342,-11.485976,-9.167759,-49.545208,32.460153,-75.100127,-0.101771,-0.396037,0.000000,-1.355818,-0.397679,0.000000
2.060000,-1.591925,0.668504,-1.641374,1.636797,1.130350,0.804625,2.980843,-0.884183,2.749637,6.604392,-11.151884,-9.894210,-51.733319,35.595400,-71.720749,-0.114863,-0.399492,0.000000,-1.262441,-0.289838,0.000000
2.070000,-1.575407,0.679762,-1.633192,1.666927,1.120957,0.831615,3.044195,-0.993804,2.647084,6.058200,-10.763034,-10.615776,-56.188539,40.909984,-71.020378,-0.127002,-0.401865,0.000000,-1.164740,-0.181407,-0.000000
2.080000,-1.558585,0.690920,-1.624745,1.697663,1.110488,0.857544,3.102004,-1.099406,2.537518,5.508238,-10.360229,-11.281693,-53.728107,39.576813,-62.076485,-0.138166,-0.403174,0.000000,-1.069171,-0.080217,0.000000
2.090000,-1.541452,0.701968,-1.616045,1.728949,1.098982,0.882344,3.154371,-1.200985,2.421662,4.958432,-9.947321,-11.887511,-57.490395,44.210323,-60.596466,-0.148398,-0.403512,0.000000,-0.976717,0.013226,0.000000
2.100000,-1.524004,0.712896,-1.607102,1.760731,1.086483,0.905957,3.201022,-1.298174,2.299786,4.370165,-9.487357,-12.479865,-58.834823,46.503387,-56.304781,-0.157693,-0.402906,0.000000,-0.882796,0.105612,0.000000
2.110000,-1.506236,0.723694,-1.597930,1.792950,1.073034,0.928321,3.241797,-1.390727,2.172255,3.783847,-9.020802,-13.018626,-59.869315,48.446429,-51.891402,-0.166069,-0.401400,0.000000,-0.792975,0.190584,-0.000000
2.120000,-1.488144,0.734354,-1.588540,1.825547,1.058684,0.949384,3.276548,-1.478393,2.039525,3.159939,-8.503807,-13.521546,-63.439313,53.280601,-48.215597,-0.173546,-0.399044,0.000000,-0.702278,0.273540,0.000000
2.130000,-1.469724,0.744865,-1.578947,1.858460,1.043484,0.969096,3.305039,-1.560827,1.901999,2.545953,-7.990262,-13.972988,-59.274787,49.334395,-42.042016,-0.180134,-0.395872,0.000000,-0.617009,0.348850,-0.000000
2.140000,-1.450974,0.755221,-1.569163,1.891628,1.027484,0.987410,3.327526,-1.638239,1.760245,1.946177,-7.485009,-14.371320,-62.090963,53.318260,-38.072355,-0.185907,-0.391979,0.000000,-0.537477,0.416505,-0.000000
2.150000,-1.431891,0.765412,-1.559203,1.924990,1.010737,1.004288,3.343840,-1.710361,1.614696,1.317192,-6.938749,-14.730324,-62.224283,54.249484,-33.263033,-0.190882,-0.387400,0.000000,-0.458206,0.482007,0.000000
2.160000,-1.412474,0.775433,-1.549082,1.958484,0.993295,1.019693,3.353930,-1.777063,1.465795,0.701644,-6.401356,-15.042313,-62.088796,54.838363,-28.519323,-0.195091,-0.382184,0.000000,-0.384375,0.540964,0.000000
2.170000,-1.392721,0.785276,-1.538814,1.992048,0.975214,1.033595,3.357780,-1.838239,1.314058,0.064730,-5.827645,-15.295055,-64.054804,58.256436,-22.624148,-0.198570,-0.376380,0.000000,-0.311468,0.596833,0.000000
2.180000,-1.372633,0.794935,-1.528415,2.025618,0.956550,1.045967,3.355296,-1.893683,1.160024,-0.553479,-5.270766,-15.507331,-59.514893,53.026610,-19.854709,-0.201341,-0.370029,0.000000,-0.244267,0.646740,0.000000
2.190000,-1.352209,0.804405,-1.517900,2.059133,0.937358,1.056788,3.346795,-1.943739,1.004038,-1.149236,-4.735510,-15.680270,-60.818348,55.602079,-14.142177,-0.203475,-0.363200,0.000000,-0.182811,0.690819,0.000000
2.200000,-1.331451,0.813681,-1.507285,2.092534,0.917693,1.066043,3.332244,-1.988276,0.846622,-1.758879,-4.173303,-15.795489,-59.866736,55.183780,-9.512576,-0.204998,-0.355929,0.000000,-0.122532,0.732320,0.000000
2.210000,-1.310359,0.822758,-1.496585,2.125758,0.897611,1.073718,3.311696,-2.027288,0.688235,-2.348249,-3.630984,-15.875069,-58.723528,54.488875,-5.081376,-0.205944,-0.348257,0.000000,-0.067249,0.769109,0.000000
2.220000,-1.288936,0.831632,-1.485816,2.158748,0.877166,1.079806,3.285259,-2.060821,0.529375,-2.939632,-3.072815,-15.885159,-58.800536,55.895957,1.745179,-0.206348,-0.340226,0.000000,-0.013969,0.802520,0.000000
2.230000,-1.267185,0.840300,-1.474994,2.191444,0.856413,1.084306,3.252984,-2.088835,0.370614,-3.508504,-2.539231,-15.867853,-54.924852,50.747126,1.653130,-0.206240,-0.331872,0.000000,0.034569,0.832033,-0.000000
2.240000,-1.245108,0.848759,-1.464135,2.223789,0.835406,1.087219,3.215178,-2.111710,0.212089,-4.052272,-2.034073,-15.826297,-54.535283,51.472898,7.944247,-0.205673,-0.323238,0.000000,0.078402,0.857777,0.000000
2.250000,-1.222710,0.857008,-1.453255,2.255729,0.814196,1.088550,3.171938,-2.129468,0.054325,-4.592527,-1.520818,-15.720637,-52.764674,49.927291,11.853143,-0.204676,-0.314356,0.000000,0.120353,0.880815,0.000000
2.260000,-1.199995,0.865043,-1.442369,2.287211,0.792833,1.088309,3.123410,-2.142222,-0.102265,-5.109747,-1.033087,-15.592149,-50.886725,48.205426,15.487134,-0.203280,-0.305257,0.000000,0.158363,0.900892,0.000000
2.270000,-1.176968,0.872864,-1.431494,2.318181,0.771368,1.086510,3.069789,-2.150140,-0.257264,-5.611969,-0.551612,-15.396121,-49.318320,47.463984,22.064316,-0.201518,-0.295972,0.000000,0.193588,0.917732,-0.000000
2.280000,-1.153634,0.880470,-1.420644,2.348590,0.749846,1.083171,3.011249,-2.153348,-0.410151,-6.091129,-0.096890,-15.185579,-46.490665,43.436705,19.960464,-0.199420,-0.286531,0.000000,0.225357,0.932353,0.000000
2.290000,-1.129998,0.887861,-1.409835,2.378390,0.728315,1.078314,2.948049,-2.152180,-0.560954,-6.545949,0.328742,-14.964754,-44.682215,42.270580,25.808515,-0.197022,-0.276955,0.000000,0.253739,0.944859,0.000000
2.300000,-1.106068,0.895036,-1.399083,2.407536,0.706817,1.071960,2.880387,-2.146800,-0.709218,-6.982618,0.742967,-14.684019,-42.417455,39.952310,28.670044,-0.194353,-0.267270,0.000000,0.279612,0.954751,0.000000
2.310000,-1.081850,0.901997,-1.388401,2.435984,0.685393,1.064139,2.808471,-2.137416,-0.854622,-7.396965,1.129750,-14.393370,-40.135431,37.541576,31.222581,-0.191440,-0.257498,0.000000,0.302584,0.963065,0.000000
2.320000,-1.057351,0.908745,-1.377805,2.463692,0.664081,1.054879,2.732550,-2.124275,-0.996858,-7.782326,1.494897,-14.043737,-37.226193,35.322282,36.922899,-0.188312,-0.247662,0.000000,0.322546,0.968271,0.000000
2.330000,-1.032579,0.915280,-1.367308,2.490622,0.642919,1.044214,2.652889,-2.107610,-1.135503,-8.147596,1.832760,-13.692272,-35.831074,32.233098,33.279757,-0.184997,-0.237787,0.000000,0.340044,0.972566,-0.000000
2.340000,-1.007541,0.921604,-1.356925,2.516738,0.621940,1.032180,2.569662,-2.087715,-1.270726,-8.492823,2.142375,-13.343549,-32.909508,29.831731,38.191278,-0.181519,-0.227876,0.000000,0.355162,0.976040,0.000000
2.350000,-0.982247,0.927719,-1.346669,2.542005,0.601174,1.018812,2.483137,-2.064841,-1.402174,-8.808269,2.427929,-12.944113,-30.476900,27.120308,39.904080,-0.177903,-0.217950,0.000000,0.367589,0.976926,0.000000
2.360000,-0.956704,0.933628,-1.336553,2.566390,0.580652,1.004150,2.393550,-2.039245,-1.529619,-9.105611,2.686791,-12.542970,-28.112205,24.407731,41.398209,-0.174174,-0.208025,0.000000,0.377906,0.977247,0.000000
2.370000,-0.930922,0.939333,-1.326590,2.589866,0.560398,0.988233,2.301175,-2.011215,-1.652897,-9.362425,2.913807,-12.106630,-24.102873,21.224934,44.761601,-0.170355,-0.198116,0.000000,0.385351,0.974613,-0.000000
2.380000,-0.904910,0.944837,-1.316792,2.612406,0.540435,0.971106,2.206341,-1.981049,-1.771762,-9.605577,3.116135,-11.670959,-24.555657,19.247751,42.307136,-0.166472,-0.188246,0.000000,0.391036,0.971947,0.000000
2.390000,-0.878677,0.950143,-1.307172,2.633985,0.520783,0.952812,2.109098,-1.948972,-1.886339,-9.836334,3.294083,-11.239370,-20.737760,16.109590,45.064971,-0.162540,-0.178404,0.000000,0.395072,0.969364,0.000000
2.400000,-0.852233,0.955254,-1.297740,2.654581,0.501461,0.933395,2.009761,-1.915277,-1.996436,-10.027696,3.440382,-10.779477,-18.395656,13.388204,45.802343,-0.158580,-0.168610,0.000000,0.396554,0.964214,-0.000000
2.410000,-0.825589,0.960173,-1.288508,2.674174,0.482482,0.912899,1.908592,-1.880187,-2.101928,-10.202328,3.575073,-10.317824,-16.072987,10.968648,46.441953,-0.154609,-0.158875,0.000000,0.397456,0.958778,0.000000
2.420000,-0.798753,0.964904,-1.279485,2.692747,0.463860,0.891372,1.805829,-1.844066,-2.202779,-10.345004,3.636064,-9.851737,-12.914698,3.746373,46.805828,-0.150653,-0.149208,0.000000,0.392794,0.951790,0.000000
2.430000,-0.771737,0.969451,-1.270683,2.710286,0.445602,0.868859,1.701748,-1.807427,-2.298947,-10.470126,3.702841,-9.381030,-12.129170,9.693756,47.311583,-0.146749,-0.139622,0.000000,0.389000,0.944420,-0.000000
2.440000,-0.744551,0.973818,-1.262111,2.726778,0.427715,0.845408,1.596478,-1.769957,-2.390389,-10.578651,3.779273,-8.907172,-9.130227,3.064205,47.377397,-0.142868,-0.130115,0.000000,0.386358,0.936761,-0.000000
2.450000,-0.717205,0.978007,-1.253778,2.742213,0.410204,0.821067,1.490284,-1.732119,-2.477092,-10.656700,3.785776,-8.433477,-6.936891,0.769211,47.396435,-0.139042,-0.120699,0.000000,0.378607,0.927736,0.000000
2.460000,-0.689710,0.982023,-1.245693,2.756582,0.393072,0.795882,1.383407,-1.694354,-2.559094,-10.714995,3.760606,-7.968028,-4.755092,-2.061248,47.115755,-0.135302,-0.111381,0.000000,0.368898,0.918258,0.000000
2.470000,-0.662077,0.985870,-1.237863,2.769879,0.376317,0.769901,1.276054,-1.656697,-2.636347,-10.752193,3.779083,-7.478290,-2.667987,2.143166,49.411056,-0.131647,-0.102167,0.000000,0.362811,0.907933,-0.000000
2.480000,-0.634316,0.989551,-1.230297,2.782102,0.359939,0.743172,1.168435,-1.619032,-2.708740,-10.768007,3.727622,-7.009597,-0.502964,-12.535283,44.266482,-0.128064,-0.093065,0.000000,0.351870,0.897125,-0.000000
2.490000,-0.606439,0.993070,-1.223002,2.793248,0.343932,0.715741,1.060764,-1.582421,-2.776630,-10.762936,3.601981,-6.564933,1.482594,-8.918142,46.066158,-0.124629,-0.084078,0.000000,0.335811,0.885801,0.000000
2.500000,-0.578455,0.996431,-1.215985,2.803318,0.328287,0.687654,0.953241,-1.546788,-2.839948,-10.738342,3.518564,-6.100560,3.450814,-11.391607,45.386224,-0.121332,-0.075213,0.000000,0.323271,0.873756,-0.000000
2.510000,-0.550376,0.999637,-1.209251,2.812314,0.312993,0.658957,0.846041,-1.512108,-2.898670,-10.699033,3.416787,-5.644078,5.259455,-13.047577,44.846566,-0.118167,-0.066474,0.000000,0.309763,0.861539,0.000000
2.520000,-0.522212,1.002692,-1.202807,2.820240,0.298040,0.629696,0.739389,-1.478839,-2.952935,-10.625463,3.220289,-5.213506,8.610293,-22.244844,42.281733,-0.115164,-0.057868,0.000000,0.289553,0.847673,0.000000
2.530000,-0.493975,1.005599,-1.196659,2.827104,0.283410,0.599913,0.633550,-1.447566,-3.002913,-10.544541,3.056006,-4.777131,7.537360,-10.464278,45.018279,-0.112364,-0.049406,0.000000,0.272141,0.834052,-0.000000
2.540000,-0.465674,1.008361,-1.190811,2.832914,0.269085,0.569652,0.528510,-1.417557,-3.048446,-10.458067,2.930855,-4.333942,10.588420,-18.565983,42.582128,-0.109708,-0.041079,0.000000,0.257997,0.820817,0.000000
2.550000,-0.437320,1.010981,-1.185267,2.837678,0.255053,0.538958,0.424508,-1.389307,-3.089697,-10.340130,2.719286,-3.916819,12.149738,-19.715413,41.867630,-0.107230,-0.032897,0.000000,0.237746,0.806037,0.000000
2.560000,-0.408923,1.013463,-1.180033,2.841408,0.241292,0.507872,0.321742,-1.363086,-3.126763,-10.210627,2.523809,-3.497085,13.706290,-20.830650,41.167505,-0.104946,-0.024865,0.000000,0.218988,0.791126,-0.000000
2.570000,-0.380495,1.015808,-1.175111,2.844117,0.227784,0.476437,0.220344,-1.338985,-3.159736,-10.066524,2.289534,-3.101879,15.137249,-24.577879,38.753160,-0.102860,-0.016987,0.000000,0.197716,0.775870,0.000000
2.580000,-0.352044,1.018019,-1.170505,2.845820,0.214504,0.444691,0.120461,-1.317260,-3.188783,-9.907389,2.062592,-2.703545,16.680595,-20.748313,40.939839,-0.100988,-0.009267,0.000000,0.177207,0.760147,0.000000
2.590000,-0.323582,1.020099,-1.166218,2.846532,0.201431,0.412675,0.022245,-1.297688,-3.213786,-9.733788,1.846026,-2.300939,17.995877,-23.989883,38.690480,-0.099312,-0.001708,0.000000,0.157654,0.744001,0.000000
2.600000,-0.295117,1.022048,-1.162252,2.846271,0.188543,0.380428,-0.074172,-1.280479,-3.234897,-9.547388,1.595335,-1.922182,19.307194,-24.697226,37.947931,-0.097844,0.005686,0.000000,0.135856,0.727529,0.000000
2.610000,-0.266660,1.023870,-1.158610,2.845055,0.175813,0.347989,-0.168650,-1.265864,-3.252257,-9.345769,1.323654,-1.551759,20.600129,-25.831885,37.049654,-0.096600,0.012911,0.000000,0.112673,0.710498,0.000000
2.620000,-0.238219,1.025565,-1.155293,2.842905,0.163217,0.315395,-0.261079,-1.253734,-3.265888,-9.139332,1.113887,-1.172766,21.071030,-19.786539,37.866131,-0.095570,0.019964,0.000000,0.094235,0.693697,0.000000
2.630000,-0.209805,1.027135,-1.152303,2.839841,0.150732,0.282684,-0.351378,-1.243791,-3.275783,-8.916286,0.850972,-0.812962,23.539627,-32.894610,34.070749,-0.094730,0.026845,0.000000,0.071993,0.676169,0.000000
2.640000,-0.181425,1.028580,-1.149640,2.835885,0.138331,0.249891,-0.439346,-1.236934,-3.282222,-8.676734,0.530802,-0.473357,23.961661,-27.405162,34.748836,-0.094146,0.033545,0.000000,0.045622,0.657856,0.000000
2.650000,-0.153090,1.029902,-1.147305,2.831062,0.125984,0.217051,-0.524909,-1.232907,-3.285207,-8.433900,0.271711,-0.125454,24.990243,-28.096169,33.947854,-0.093798,0.040063,0.000000,0.023846,0.639803,-0.000000
2.660000,-0.124807,1.031100,-1.145299,2.825395,0.113664,0.184198,-0.607997,-1.231528,-3.284737,-8.182462,0.005514,0.219470,25.860214,-28.092361,33.426959,-0.093671,0.046397,0.000000,0.001556,0.621562,0.000000
2.670000,-0.096585,1.032175,-1.143621,2.818911,0.101344,0.151367,-0.688484,-1.233035,-3.280965,-7.911639,-0.317030,0.528366,27.735097,-33.512605,29.929479,-0.093784,0.052544,0.000000,-0.024769,0.602151,0.000000
2.680000,-0.068431,1.033127,-1.142271,2.811635,0.088992,0.118589,-0.766230,-1.237728,-3.274111,-7.639701,-0.603796,0.851170,26.623659,-23.729658,34.688564,-0.094157,0.058495,0.000000,-0.048540,0.583098,0.000000
2.690000,-0.040354,1.033954,-1.141249,2.803595,0.076581,0.085896,-0.841283,-1.244952,-3.263874,-7.368109,-0.849525,1.190557,28.246509,-28.306054,31.612953,-0.094743,0.064260,0.000000,-0.069404,0.564543,0.000000
2.700000,-0.012362,1.034658,-1.140553,2.794818,0.064084,0.053322,-0.913526,-1.254935,-3.250437,-7.079775,-1.144818,1.497047,28.848059,-27.832880,31.272492,-0.095561,0.069832,0.000000,-0.093896,0.544920,-0.000000
2.710000,0.015540,1.035236,-1.140182,2.785334,0.051473,0.020898,-0.982870,-1.267799,-3.233897,-6.787993,-1.428379,1.810866,29.427935,-27.576865,30.940983,-0.096618,0.075209,0.000000,-0.117691,0.525398,0.000000
2.720000,0.043343,1.035687,-1.140134,2.775171,0.038719,-0.011345,-1.049274,-1.283387,-3.214276,-6.492072,-1.684175,2.110886,29.813241,-24.810355,29.612024,-0.097906,0.080389,0.000000,-0.139445,0.505784,0.000000
2.730000,0.071041,1.036010,-1.140408,2.764358,0.025796,-0.043378,-1.112692,-1.301527,-3.191662,-6.190519,-1.950388,2.414620,30.489015,-28.452923,31.158823,-0.099411,0.085373,0.000000,-0.162205,0.486038,0.000000
2.740000,0.098628,1.036202,-1.141001,2.752927,0.012679,-0.075168,-1.173066,-1.322442,-3.165963,-5.883869,-2.227649,2.723247,30.762172,-25.722337,30.026524,-0.101154,0.090158,0.000000,-0.186063,0.466192,-0.000000
2.750000,0.126097,1.036262,-1.141911,2.740907,-0.000661,-0.106687,-1.230363,-1.345959,-3.137247,-5.574901,-2.475139,3.019923,31.089187,-25.011083,29.859595,-0.103124,0.094744,0.000000,-0.207814,0.446315,-0.000000
2.760000,0.153444,1.036188,-1.143134,2.728330,-0.014249,-0.137903,-1.284548,-1.371929,-3.105552,-5.261473,-2.717033,3.319028,31.373860,-24.028944,29.720533,-0.105311,0.099131,0.000000,-0.229429,0.426318,0.000000
2.770000,0.180662,1.035977,-1.144668,2.715227,-0.028108,-0.168788,-1.335601,-1.400320,-3.070890,-4.949584,-2.961596,3.612171,31.199773,-24.204133,29.152245,-0.107715,0.103319,0.000000,-0.251493,0.406568,0.000000
2.780000,0.207747,1.035625,-1.146508,2.701629,-0.042263,-0.199311,-1.383524,-1.431092,-3.033300,-4.633355,-3.186870,3.907191,32.041995,-20.811241,29.863575,-0.110336,0.107310,0.000000,-0.272425,0.386652,-0.000000
2.790000,0.234693,1.035130,-1.148652,2.687567,-0.056737,-0.229444,-1.428253,-1.463981,-2.992736,-4.313121,-3.390807,4.204684,31.786373,-20.624414,29.397241,-0.113159,0.111099,0.000000,-0.292091,0.366578,0.000000
2.800000,0.261497,1.034489,-1.151096,2.673074,-0.071549,-0.259156,-1.469800,-1.498915,-2.949227,-3.996068,-3.593329,4.497252,31.820976,-19.197301,29.360586,-0.116180,0.114690,0.000000,-0.311968,0.346806,-0.000000
2.810000,0.288153,1.033698,-1.153834,2.658182,-0.086721,-0.288419,-1.508170,-1.535778,-2.902775,-3.678035,-3.776607,4.793421,31.778698,-17.678972,29.379567,-0.119394,0.118082,0.000000,-0.330788,0.327068,-0.000000
2.820000,0.314659,1.032753,-1.156863,2.642921,-0.102271,-0.317202,-1.543363,-1.574414,-2.853398,-3.360675,-3.948753,5.080315,31.679261,-16.501761,28.481662,-0.122794,0.121278,0.000000,-0.349071,0.307348,-0.000000
2.830000,0.341011,1.031651,-1.160176,2.627325,-0.118215,-0.345477,-1.575389,-1.614687,-2.801145,-3.044734,-4.101451,5.373170,31.498152,-14.014064,30.104439,-0.126372,0.124277,0.000000,-0.366329,0.287815,-0.000000
2.840000,0.367205,1.030388,-1.163770,2.611424,-0.134569,-0.373215,-1.604265,-1.656372,-2.745909,-2.730858,-4.233383,5.672663,31.269551,-12.589602,29.307545,-0.130117,0.127081,0.000000,-0.382486,0.268511,0.000000
2.850000,0.393238,1.028958,-1.167639,2.595250,-0.151347,-0.400385,-1.630014,-1.699311,-2.687730,-2.419586,-4.350944,5.963418,30.970501,-10.674390,29.325383,-0.134019,0.129693,0.000000,-0.397893,0.249301,-0.000000
2.860000,0.419109,1.027359,-1.171776,2.578834,-0.168559,-0.426960,-1.652668,-1.743309,-2.626625,-2.111736,-4.445151,6.257594,30.604695,-8.629920,29.317291,-0.138070,0.132113,0.000000,-0.411977,0.230343,-0.000000
2.870000,0.444814,1.025586,-1.176176,2.562207,-0.186216,-0.452908,-1.672261,-1.788183,-2.562594,-1.807562,-4.527650,6.547945,30.203539,-7.392433,28.932052,-0.142258,0.134344,0.000000,-0.425576,0.211561,-0.000000
2.880000,0.470352,1.023634,-1.180832,2.545399,-0.204325,-0.478202,-1.688835,-1.833768,-2.495659,-1.508213,-4.582996,6.839990,29.654930,-3.649309,29.477010,-0.146576,0.136389,0.000000,-0.437542,0.193078,0.000000
2.890000,0.495722,1.021498,-1.185738,2.528440,-0.222892,-0.502812,-1.702444,-1.879744,-2.425787,-1.214368,-4.609763,7.133642,29.118746,-2.159951,29.061054,-0.151003,0.138249,0.000000,-0.447749,0.174927,-0.000000
2.900000,0.520921,1.019174,-1.190886,2.511360,-0.241921,-0.526708,-1.713141,-1.925923,-2.353005,-0.926193,-4.621989,7.422633,28.489482,0.192325,28.913787,-0.155529,0.139928,0.000000,-0.457225,0.157031,0.000000
2.910000,0.545949,1.016658,-1.196269,2.494187,-0.261411,-0.549862,-1.720994,-1.972082,-2.277337,-0.645603,-4.605403,7.710492,27.777203,2.633308,28.697084,-0.160141,0.141429,0.000000,-0.464863,0.139561,-0.000000
2.920000,0.570804,1.013944,-1.201881,2.476949,-0.281361,-0.572245,-1.726065,-2.017990,-2.198799,-0.369397,-4.573752,7.996838,27.297773,4.191933,28.512969,-0.164824,0.142756,0.000000,-0.471742,0.122235,-0.000000
2.930000,0.595487,1.011029,-1.207712,2.459675,-0.301769,-0.593829,-1.728416,-2.063450,-2.117413,-0.103125,-4.511189,8.279508,25.940874,8.343160,28.007606,-0.169568,0.143909,0.000000,-0.476535,0.105456,-0.000000
2.940000,0.619998,1.007907,-1.213754,2.442389,-0.322628,-0.614584,-1.728165,-2.108103,-2.033224,0.152343,-4.416604,8.557723,25.298649,10.088487,27.671205,-0.174347,0.144897,0.000000,-0.479094,0.089272,0.000000
2.950000,0.644335,1.004575,-1.220000,2.425120,-0.343928,-0.634484,-1.725388,-2.151735,-1.946270,0.401301,-4.305144,8.832243,24.326149,12.697411,27.169875,-0.179147,0.145723,0.000000,-0.480625,0.073327,0.000000
2.960000,0.668500,1.001027,-1.226441,2.407890,-0.365658,-0.653500,-1.720183,-2.194096,-1.856608,0.637774,-4.162366,9.098971,23.266028,15.352638,26.540865,-0.183951,0.146390,0.000000,-0.479837,0.058048,-0.000000
2.970000,0.692493,0.997261,-1.233067,2.390724,-0.387805,-0.671607,-1.712644,-2.234935,-1.764283,0.869249,-4.002730,9.366246,22.719943,17.068718,26.528713,-0.188741,0.146904,0.000000,-0.478004,0.042907,-0.000000
2.980000,0.716315,0.993270,-1.239870,2.373644,-0.410351,-0.688777,-1.702851,-2.274038,-1.669326,1.085699,-3.810637,9.621462,20.550925,21.364346,24.485825,-0.193502,0.147267,0.000000,-0.473573,0.028570,0.000000
2.990000,0.739967,0.989052,-1.246840,2.356674,-0.433278,-0.704985,-1.690986,-2.311033,-1.571902,1.286121,-3.585453,9.863079,19.825691,23.171887,24.192398,-0.198203,0.147489,0.000000,-0.466362,0.015104,0.000000
3.000000,0.763449,0.984603,-1.253967,2.339831,-0.456564,-0.720207,-1.677146,-2.345699,-1.472068,1.479467,-3.343044,10.101784,18.533657,25.801625,23.157507,-0.202826,0.147575,0.000000,-0.457812,0.001888,0.000000
3.010000,0.786764,0.979920,-1.261241,2.323137,-0.480184,-0.734419,-1.661456,-2.377788,-1.369926,1.656080,-3.070195,10.324129,17.165569,28.405563,21.958002,-0.207350,0.147531,0.000000,-0.446477,-0.010431,0.000000
3.020000,0.809912,0.974999,-1.268652,2.306608,-0.504110,-0.747598,-1.644040,-2.407045,-1.265573,1.826159,-2.778361,10.546679,16.468661,30.297990,21.886361,-0.211751,0.147362,0.000000,-0.433543,-0.022510,0.000000
3.030000,0.832896,0.969837,-1.276189,2.290262,-0.528315,-0.759723,-1.624999,-2.433254,-1.159069,1.977458,-2.457180,10.747895,13.772293,33.938221,18.316769,-0.216010,0.147074,0.000000,-0.417610,-0.033566,-0.000000
3.040000,0.855718,0.964431,-1.283842,2.274113,-0.552764,-0.770774,-1.604560,-2.456089,-1.050698,2.109028,-2.106822,10.925681,12.912678,35.771705,17.872236,-0.220092,0.146679,0.000000,-0.398488,-0.043516,0.000000
3.050000,0.878379,0.958781,-1.291601,2.258175,-0.577424,-0.780731,-1.582839,-2.475339,-0.940557,2.232387,-1.739067,11.099390,11.377199,38.111731,16.199529,-0.223974,0.146183,0.000000,-0.377467,-0.053102,0.000000
3.060000,0.900882,0.952882,-1.299453,2.242460,-0.602258,-0.789579,-1.559979,-2.490786,-0.828807,2.336735,-1.346723,11.246913,9.799606,40.332646,14.330456,-0.227631,0.145593,0.000000,-0.353323,-0.061638,0.000000
3.070000,0.923229,0.946735,-1.307389,2.226978,-0.627227,-0.797303,-1.536132,-2.502202,-0.715598,2.431163,-0.932847,11.395220,8.779382,42.429867,14.296614,-0.231033,0.144919,0.000000,-0.326739,-0.069556,0.000000
3.080000,0.945423,0.940338,-1.315396,2.211740,-0.652288,-0.803887,-1.511424,-2.509375,-0.601019,2.505898,-0.498397,11.511153,6.155178,44.438573,8.839086,-0.234155,0.144168,0.000000,-0.296936,-0.076383,-0.000000
3.090000,0.967465,0.933689,-1.323463,2.196752,-0.677399,-0.809320,-1.486084,-2.512105,-0.485500,2.560343,-0.044666,11.592151,5.037613,46.276955,8.366358,-0.236960,0.143353,0.000000,-0.263766,-0.082046,0.000000
3.100000,0.989359,0.926790,-1.331578,2.182020,-0.702515,-0.813594,-1.460248,-2.510209,-0.369170,2.604027,0.426700,11.669421,3.393394,47.977172,6.048543,-0.239421,0.142482,0.000000,-0.227902,-0.086967,0.000000
3.110000,1.011106,0.919639,-1.339731,2.167548,-0.727588,-0.816701,-1.434077,-2.503543,-0.252235,2.627028,0.908444,11.712934,1.710895,49.398812,3.587624,-0.241509,0.141567,0.000000,-0.189144,-0.090575,0.000000
3.120000,1.032710,0.912238,-1.347908,2.153339,-0.752569,-0.818637,-1.407722,-2.491910,-0.134918,2.642899,1.423811,11.749595,0.976227,52.622042,2.807598,-0.243188,0.140618,0.000000,-0.145782,-0.093738,0.000000
3.130000,1.054174,0.904588,-1.356099,2.139394,-0.777408,-0.819399,-1.381297,-2.475075,-0.017373,2.636336,1.938802,11.749442,-2.301077,50.313635,-2.880769,-0.244417,0.139641,0.000000,-0.100040,-0.095356,-0.000000
3.140000,1.075499,0.896691,-1.364292,2.125712,-0.802054,-0.818986,-1.355076,-2.453154,0.099934,2.606842,2.450168,11.710367,-3.099805,52.961253,-4.015986,-0.245182,0.138658,0.000000,-0.052023,-0.095314,0.000000
3.150000,1.096689,0.888548,-1.372475,2.112291,-0.826454,-0.817402,-1.329176,-2.425964,0.216816,2.570254,2.988609,11.660990,-4.703784,53.664261,-6.797648,-0.245441,0.137678,0.000000,0.000672,-0.094705,0.000000
3.160000,1.117746,0.880163,-1.380636,2.099127,-0.850555,-0.814652,-1.303723,-2.393383,0.333019,2.518103,3.528435,11.574360,-6.185028,54.236675,-9.674713,-0.245158,0.136709,0.000000,0.056448,-0.093013,0.000000
3.170000,1.138672,0.871538,-1.388764,2.086215,-0.874303,-0.810744,-1.278900,-2.355382,0.448277,2.442424,4.072371,11.475258,-8.490387,54.545206,-10.987697,-0.244303,0.135769,0.000000,0.115159,-0.089008,0.000000
3.180000,1.159471,0.862678,-1.396848,2.073547,-0.897645,-0.805690,-1.254900,-2.311926,0.562387,2.357962,4.619249,11.336957,-8.378466,54.794958,-16.703090,-0.242843,0.134876,0.000000,0.177452,-0.084466,0.000000
3.190000,1.180144,0.853587,-1.404874,2.061114,-0.920524,-0.799502,-1.231762,-2.262994,0.674874,2.265909,5.166931,11.158029,-10.478152,54.673735,-18.241287,-0.240741,0.134030,0.000000,0.243298,-0.079498,0.000000
3.200000,1.200694,0.844269,-1.412834,2.048908,-0.942886,-0.792199,-1.209661,-2.208596,0.785516,2.152494,5.712214,10.964949,-11.738810,54.374093,-21.215190,-0.237968,0.133248,0.000000,0.311871,-0.072223,0.000000
3.210000,1.221123,0.834731,-1.420715,2.036917,-0.964678,-0.783799,-1.188738,-2.148803,0.894042,2.030191,6.244375,10.735164,-12.933087,53.656150,-24.187794,-0.234497,0.132545,0.000000,0.382641,-0.064193,0.000000
3.220000,1.241433,0.824978,-1.428506,2.025129,-0.985844,-0.774326,-1.169114,-2.083603,1.000165,1.892028,6.799612,10.486346,-14.469462,55.763047,-26.105284,-0.230294,0.131935,0.000000,0.459072,-0.054347,0.000000
3.230000,1.261626,0.815016,-1.436198,2.013530,-1.006331,-0.763804,-1.150924,-2.012920,1.103647,1.745626,7.325489,10.201963,-14.790358,49.323242,-30.779935,-0.225315,0.131431,0.000000,0.536039,-0.043682,0.000000
3.240000,1.281704,0.804853,-1.443779,2.002105,-1.026086,-0.752263,-1.134223,-1.937219,1.204081,1.592119,7.817433,9.881757,-16.115270,50.630408,-32.710432,-0.219575,0.131040,0.000000,0.612835,-0.032299,0.000000
3.250000,1.301669,0.794497,-1.451240,1.990840,-1.045059,-0.739734,-1.119129,-1.856496,1.301231,1.425484,8.323693,9.543415,-16.978121,48.984193,-35.482864,-0.213040,0.130776,0.000000,0.694222,-0.019226,0.000000
3.260000,1.321522,0.783955,-1.458570,1.979717,-1.063200,-0.726250,-1.105731,-1.770887,1.394852,1.252926,8.793621,9.176604,-17.735620,46.986730,-38.104280,-0.205696,0.130649,0.000000,0.774668,-0.005391,0.000000
3.270000,1.341264,0.773236,-1.465762,1.968719,-1.080461,-0.711849,-1.094112,-1.680529,1.484658,1.069094,9.281304,8.779463,-18.802161,48.551196,-41.070954,-0.197526,0.130671,0.000000,0.860081,0.009806,-0.000000
3.280000,1.360896,0.762349,-1.472804,1.957829,-1.096794,-0.696571,-1.084360,-1.585430,1.570370,0.881675,9.722732,8.360501,-18.657415,39.639059,-42.692593,-0.188505,0.130851,0.000000,0.942687,0.025616,0.000000
3.290000,1.380420,0.751303,-1.479690,1.947026,-1.112156,-0.680456,-1.076484,-1.486260,1.651802,0.692015,10.113133,7.921330,-19.470292,40.390648,-45.353984,-0.178688,0.131193,0.000000,1.021303,0.041877,-0.000000
3.300000,1.399837,0.740109,-1.486411,1.936292,-1.126506,-0.663550,-1.070549,-1.383101,1.728705,0.494453,10.513099,7.455935,-19.810049,37.597188,-47.463370,-0.168066,0.131706,0.000000,1.102719,0.059139,-0.000000
3.310000,1.419147,0.728777,-1.492959,1.925608,-1.139805,-0.645898,-1.066575,-1.276146,1.800876,0.300814,10.872909,6.975451,-19.935532,34.715992,-49.341054,-0.156648,0.132391,0.000000,1.180305,0.076114,-0.000000
3.320000,1.438349,0.717317,-1.499327,1.914954,-1.152018,-0.627549,-1.064620,-1.165710,1.868095,0.086582,11.210376,6.462935,-21.886351,32.384854,-52.417249,-0.144465,0.133256,0.000000,1.255947,0.095448,0.000000
3.330000,1.457446,0.705740,-1.505508,1.904309,-1.163109,-0.608553,-1.064795,-1.052059,1.930114,-0.115420,11.512410,5.942733,-18.463998,27.987599,-51.568232,-0.131545,0.134315,0.000000,1.326864,0.113477,0.000000
3.340000,1.476435,0.694058,-1.511496,1.893652,-1.173049,-0.588964,-1.066871,-0.935590,1.986939,-0.302680,11.777126,5.417791,-19.985353,25.305906,-54.106909,-0.117947,0.135539,0.000000,1.392131,0.129797,0.000000
3.350000,1.495319,0.682283,-1.517285,1.882965,-1.181812,-0.568833,-1.070920,-0.816600,2.038373,-0.506138,12.014990,4.867425,-19.676597,21.878857,-55.211373,-0.103717,0.136936,0.000000,1.452733,0.147810,0.000000
3.360000,1.514095,0.670426,-1.522871,1.872227,-1.189374,-0.548215,-1.076945,-0.695443,2.084308,-0.697831,12.209617,4.319160,-19.259571,18.240452,-55.967770,-0.088920,0.138505,0.000000,1.505498,0.164399,0.000000
3.370000,1.532763,0.658500,-1.528248,1.861419,-1.195715,-0.527165,-1.084911,-0.572432,2.124608,-0.896649,12.390647,3.734440,-19.891146,16.780186,-59.421143,-0.073619,0.140239,0.000000,1.554007,0.181152,-0.000000
3.380000,1.551323,0.646516,-1.533413,1.850522,-1.200817,-0.505742,-1.094831,-0.447810,2.159054,-1.082811,12.520376,3.163355,-17.307019,9.119947,-54.709820,-0.057875,0.142133,0.000000,1.592276,0.196335,0.000000
3.390000,1.569773,0.634487,-1.538362,1.839517,-1.204668,-0.484002,-1.106514,-0.322212,2.187947,-1.254551,12.596638,2.610333,-17.628415,7.311482,-57.386931,-0.041811,0.144166,0.000000,1.619625,0.209706,-0.000000
3.400000,1.588113,0.622427,-1.543092,1.828386,-1.207259,-0.462002,-1.119945,-0.195911,2.211141,-1.429980,12.656472,2.029408,-16.843099,3.472564,-57.231902,-0.025501,0.146330,0.000000,1.640733,0.222635,0.000000
3.410000,1.606340,0.610346,-1.547601,1.817112,-1.208585,-0.439799,-1.135071,-0.069247,2.228613,-1.593707,12.669646,1.466506,-16.002885,-0.345865,-56.776259,-0.009033,0.148614,0.000000,1.651165,0.233921,-0.000000
3.420000,1.624454,0.598259,-1.551887,1.805679,-1.208644,-0.417449,-1.151799,0.057395,2.240371,-1.750823,12.654139,0.881157,-15.298998,-3.225689,-58.831158,0.007496,0.151002,0.000000,1.653178,0.243367,0.000000
3.430000,1.642453,0.586178,-1.555950,1.794071,-1.207438,-0.395011,-1.170051,0.183687,2.246329,-1.897158,12.595289,0.320544,-13.953561,-8.549864,-53.209044,0.023995,0.153477,0.000000,1.644797,0.251293,0.000000
3.440000,1.660335,0.574115,-1.559788,1.782274,-1.204973,-0.372540,-1.189703,0.309152,2.246889,-2.031896,12.492991,-0.211082,-13.094207,-11.416315,-54.516683,0.040358,0.156025,0.000000,1.626350,0.257677,0.000000
3.450000,1.678098,0.562082,-1.563401,1.770273,-1.201259,-0.350091,-1.210661,0.433464,2.242035,-2.157912,12.363186,-0.756847,-11.989665,-15.006769,-53.167688,0.056497,0.158628,0.000000,1.599963,0.262005,-0.000000
3.460000,1.695740,0.550094,-1.566790,1.758057,-1.196309,-0.327717,-1.232810,0.556336,2.231875,-2.269544,12.206926,-1.271396,-10.789259,-18.232950,-51.500367,0.072334,0.161267,0.000000,1.566403,0.264482,0.000000
3.470000,1.713258,0.538160,-1.569955,1.745613,-1.190139,-0.305471,-1.256049,0.677334,2.216520,-2.377786,11.980481,-1.802681,-10.405423,-25.085709,-52.985109,0.087777,0.163927,0.000000,1.520037,0.265547,0.000000
3.480000,1.730651,0.526295,-1.572900,1.732932,-1.182770,-0.283404,-1.280303,0.795935,2.195968,-2.468147,11.746583,-2.293955,-7.647441,-21.608452,-45.185472,0.102725,0.166592,0.000000,1.470104,0.264575,0.000000
3.490000,1.747916,0.514509,-1.575624,1.720005,-1.174227,-0.261567,-1.305345,0.912270,2.170802,-2.539679,11.509414,-2.741004,-7.105880,-27.765484,-45.952715,0.117174,0.169240,0.000000,1.417918,0.261644,-0.000000
3.500000,1.765051,0.502814,-1.578132,1.706823,-1.164534,-0.240004,-1.331088,1.025877,2.141085,-2.606363,11.208523,-3.197568,-5.778728,-30.423582,-43.585093,0.131045,0.171857,0.000000,1.355580,0.257441,-0.000000
3.510000,1.782052,0.491222,-1.580425,1.693381,-1.153720,-0.218760,-1.357411,1.136438,2.106985,-2.655809,10.900506,-3.618082,-4.432666,-32.845326,-41.119201,0.144283,0.174427,0.000000,1.291608,0.251475,0.000000
3.520000,1.798917,0.479743,-1.582508,1.679673,-1.141816,-0.197878,-1.384185,1.243671,2.068757,-2.697983,10.536623,-4.025274,-3.688649,-38.256545,-39.695024,0.156848,0.176937,0.000000,1.220101,0.244588,0.000000
3.530000,1.815644,0.468389,-1.584384,1.665696,-1.128859,-0.177398,-1.411311,1.347175,2.026596,-2.723018,10.170514,-4.398924,-1.310536,-34.882911,-34.999714,0.168688,0.179374,0.000000,1.148761,0.236098,0.000000
3.540000,1.832230,0.457170,-1.586058,1.651446,-1.114885,-0.157357,-1.438585,1.447101,1.980902,-2.730596,9.806321,-4.737209,-0.525480,-39.584277,-33.254615,0.179829,0.181721,0.000000,1.078601,0.226127,-0.000000
3.550000,1.848672,0.446095,-1.587533,1.636924,-1.099930,-0.137791,-1.465904,1.543110,1.931897,-2.730928,9.393560,-5.058595,0.769847,-41.281281,-30.402925,0.190239,0.183969,0.000000,1.003513,0.215605,-0.000000
3.560000,1.864968,0.435174,-1.588815,1.622129,-1.084036,-0.118730,-1.493181,1.634961,1.879833,-2.723071,8.974141,-5.349695,1.888544,-42.860348,-27.563580,0.199903,0.186112,0.000000,0.929303,0.204791,0.000000
3.570000,1.881114,0.424417,-1.589909,1.607061,-1.067245,-0.100203,-1.520240,1.722520,1.825019,-2.683235,8.534330,-5.607483,5.010373,-44.788263,-24.227838,0.208824,0.188136,0.000000,0.854854,0.191015,0.000000
3.580000,1.897108,0.413832,-1.590821,1.591725,-1.049601,-0.082237,-1.546860,1.805618,1.767768,-2.645294,8.084932,-5.839193,2.536603,-45.049792,-22.119778,0.217004,0.190021,0.000000,0.781410,0.178239,0.000000
3.590000,1.912948,0.403428,-1.591556,1.576125,-1.031148,-0.064855,-1.573167,1.884197,1.708319,-2.611206,7.628300,-6.045039,5.343471,-46.527727,-18.809130,0.224457,0.191791,0.000000,0.709402,0.166684,0.000000
3.600000,1.928630,0.393212,-1.592120,1.560264,-1.011932,-0.048077,-1.598967,1.958132,1.646983,-2.547700,7.157451,-6.217465,6.280726,-47.325683,-15.919419,0.231196,0.193430,0.000000,0.638544,0.152715,0.000000
3.610000,1.944152,0.383191,-1.592520,1.544148,-0.992001,-0.031921,-1.624126,2.027373,1.584053,-2.482985,6.691138,-6.364072,7.172277,-47.740240,-13.078885,0.237240,0.194932,0.000000,0.570730,0.139484,-0.000000
3.620000,1.959512,0.373374,-1.592761,1.527784,-0.971401,-0.016401,-1.648556,2.091795,1.519822,-2.399668,6.186400,-6.476160,8.977152,-51.394308,-9.666377,0.242602,0.196296,0.000000,0.501513,0.125236,0.000000
3.630000,1.974707,0.363765,-1.592850,1.511180,-0.950182,-0.001528,-1.672116,2.151180,1.454607,-2.314224,5.701276,-6.564297,8.085788,-45.544389,-7.981816,0.247287,0.197515,0.000000,0.437070,0.111635,-0.000000
3.640000,1.989735,0.354372,-1.592794,1.494344,-0.928393,0.012689,-1.694841,2.205914,1.388610,-2.227957,5.240070,-6.629580,9.666291,-48.466139,-4.765867,0.251362,0.198601,0.000000,0.377671,0.098789,0.000000
3.650000,2.004593,0.345199,-1.592598,1.477286,-0.906080,0.026243,-1.716613,2.255846,1.322128,-2.125427,4.747792,-6.662642,10.322168,-48.168993,-2.183623,0.254835,0.199551,0.000000,0.317590,0.085210,0.000000
3.660000,2.019280,0.336252,-1.592271,1.460015,-0.883292,0.039131,-1.737346,2.300938,1.255399,-2.020292,4.271592,-6.679978,10.922552,-47.748462,0.158094,0.257728,0.200364,0.000000,0.261367,0.072046,0.000000
3.670000,2.033793,0.327535,-1.591818,1.442543,-0.860077,0.051351,-1.756981,2.341238,1.188724,-1.905089,3.786853,-6.646411,11.886387,-48.493480,5.119938,0.260069,0.201043,0.000000,0.207257,0.059254,0.000000
3.680000,2.048130,0.319052,-1.591246,1.424880,-0.836483,0.062907,-1.775441,2.376728,1.122478,-1.787416,3.316501,-6.607711,11.630927,-45.533507,2.555788,0.261883,0.201591,0.000000,0.156281,0.046641,0.000000
3.690000,2.062290,0.310806,-1.590562,1.407038,-0.812558,0.073802,-1.792726,2.407629,1.056565,-1.668207,2.862805,-6.567052,12.423415,-45.874412,6.984688,0.263205,0.202009,0.000000,0.108418,0.034222,0.000000
3.700000,2.076270,0.302802,-1.589772,1.389029,-0.788346,0.084040,-1.808774,2.433959,0.991314,-1.541051,2.405239,-6.480596,12.774782,-44.934109,8.858920,0.264058,0.202301,0.000000,0.062636,0.022252,0.000000
3.710000,2.090070,0.295040,-1.588883,1.370866,-0.763893,0.093631,-1.823551,2.455773,0.926956,-1.414141,1.958839,-6.388787,13.030146,-43.974813,10.568707,0.264466,0.202472,0.000000,0.019215,0.010700,0.000000
3.720000,2.103687,0.287524,-1.587902,1.352562,-0.739245,0.102583,-1.837015,2.473199,0.863682,-1.276665,1.529314,-6.259664,14.034759,-42.260251,14.176588,0.264456,0.202522,0.000000,-0.020473,-0.000898,-0.000000
3.730000,2.117121,0.280256,-1.586834,1.334131,-0.714444,0.110909,-1.849099,2.486379,0.801764,-1.142465,1.106672,-6.127897,12.782686,-42.266238,12.120440,0.264061,0.202455,0.000000,-0.058615,-0.011866,0.000000
3.740000,2.130369,0.273236,-1.585686,1.315585,-0.689531,0.118622,-1.859882,2.495353,0.741115,-1.012698,0.691197,-5.996354,13.585763,-40.469848,15.231086,0.263288,0.202279,0.000000,-0.095363,-0.022177,0.000000
3.750000,2.143432,0.266465,-1.584463,1.296938,-0.664550,0.125736,-1.869317,2.500272,0.681962,-0.874530,0.294528,-5.832801,13.615814,-39.201286,16.392866,0.262166,0.201996,0.000000,-0.128741,-0.032492,-0.000000
3.760000,2.156308,0.259945,-1.583173,1.278203,-0.639539,0.132267,-1.877384,2.501271,0.624452,-0.738864,-0.092807,-5.667902,13.610425,-37.897833,17.390491,0.260717,0.201608,0.000000,-0.160692,-0.042364,0.000000
3.770000,2.168996,0.253675,-1.581820,1.259395,-0.614537,0.138231,-1.884087,2.498489,0.568702,-0.601550,-0.459972,-5.477844,13.746189,-35.877485,19.796016,0.258963,0.201121,0.000000,-0.189601,-0.051746,0.000000
3.780000,2.181495,0.247654,-1.580410,1.240526,-0.589581,0.143648,-1.889422,2.492101,0.514885,-0.466157,-0.817567,-5.289279,13.322006,-35.647062,17.869609,0.256929,0.200538,0.000000,-0.217338,-0.060853,0.000000
3.790000,2.193806,0.241883,-1.578949,1.221611,-0.564707,0.148535,-1.893420,2.482167,0.462897,-0.333263,-1.165757,-5.104661,13.349166,-33.634572,19.842299,0.254619,0.199863,0.000000,-0.244046,-0.069695,0.000000
3.800000,2.205928,0.236360,-1.577441,1.202662,-0.539949,0.152912,-1.896085,2.468861,0.412873,-0.200150,-1.493184,-4.899746,13.168055,-32.199334,20.312703,0.252058,0.199100,0.000000,-0.268071,-0.078077,-0.000000
3.810000,2.217859,0.231083,-1.575892,1.183693,-0.515341,0.156799,-1.897432,2.452330,0.364886,-0.069624,-1.810898,-4.697472,12.953822,-30.789616,20.652072,0.249260,0.198251,0.000000,-0.291159,-0.086201,0.000000
3.820000,2.229601,0.226052,-1.574307,1.164718,-0.490913,0.160217,-1.897483,2.432735,0.318976,0.059019,-2.103871,-4.482223,12.747601,-28.339946,21.863973,0.246245,0.197322,0.000000,-0.311525,-0.093848,0.000000
3.830000,2.241154,0.221264,-1.572689,1.145748,-0.466695,0.163186,-1.896261,2.410275,0.275223,0.184766,-2.388942,-4.271369,12.396169,-28.691030,20.272516,0.243031,0.196317,0.000000,-0.331296,-0.101278,0.000000
3.840000,2.252516,0.216717,-1.571044,1.126796,-0.442717,0.165728,-1.893799,2.384976,0.233524,0.307291,-2.666861,-4.066723,12.126288,-26.352856,21.158559,0.239620,0.195236,0.000000,-0.350615,-0.108507,0.000000
3.850000,2.263690,0.212409,-1.569376,1.107876,-0.419005,0.167864,-1.890125,2.357028,0.193928,0.427018,-2.920619,-3.852941,11.793589,-24.939661,21.063839,0.236028,0.194085,0.000000,-0.367522,-0.115294,0.000000
3.860000,2.274674,0.208336,-1.567688,1.088998,-0.395585,0.169614,-1.885269,2.326588,0.156445,0.543589,-3.165363,-3.643869,11.447812,-23.554568,20.890967,0.232271,0.192865,0.000000,-0.383840,-0.121885,-0.000000
3.870000,2.285470,0.204496,-1.565985,1.070174,-0.372481,0.170999,-1.879270,2.293804,0.121056,0.655270,-3.387559,-3.433980,10.952676,-21.330609,20.921954,0.228359,0.191581,0.000000,-0.398175,-0.128018,0.000000
3.880000,2.296078,0.200886,-1.564269,1.051416,-0.349716,0.172042,-1.872173,2.258861,0.087749,0.764000,-3.601340,-3.228867,10.792705,-21.442681,20.083192,0.224309,0.190237,0.000000,-0.412025,-0.133996,0.000000
3.890000,2.306498,0.197501,-1.562545,1.032734,-0.327311,0.172761,-1.864000,2.221799,0.056458,0.869714,-3.807516,-3.029507,10.279927,-19.348731,19.929685,0.220119,0.188833,0.000000,-0.425501,-0.139838,0.000000
3.900000,2.316733,0.194338,-1.560815,1.014140,-0.305286,0.173178,-1.854797,2.182790,0.027156,0.970135,-3.992191,-2.831788,9.870232,-18.036352,19.451743,0.215805,0.187373,0.000000,-0.437203,-0.145254,0.000000
3.910000,2.326782,0.191394,-1.559083,0.995642,-0.283661,0.173311,-1.844606,2.141982,-0.000196,1.067409,-4.167524,-2.639340,9.461155,-16.751766,18.933880,0.211377,0.185859,0.000000,-0.448373,-0.150524,0.000000
3.920000,2.336646,0.188664,-1.557350,0.977251,-0.262452,0.173180,-1.833473,2.099505,-0.025657,1.158228,-4.324711,-2.454175,8.818610,-14.964665,18.184042,0.206843,0.184296,0.000000,-0.458223,-0.155370,0.000000
3.930000,2.346327,0.186143,-1.555620,0.958975,-0.241676,0.172804,-1.821450,2.055516,-0.049295,1.246221,-4.472673,-2.273854,8.783068,-14.640956,17.876020,0.202214,0.182685,0.000000,-0.467543,-0.160100,-0.000000
3.940000,2.355826,0.183829,-1.553895,0.940825,-0.221347,0.172200,-1.808556,2.010078,-0.071150,1.331510,-4.612073,-2.098675,8.156181,-12.966878,17.059325,0.197493,0.181027,0.000000,-0.476399,-0.164733,0.000000
3.950000,2.365144,0.181715,-1.552177,0.922807,-0.201479,0.171386,-1.794844,1.963336,-0.091298,1.410338,-4.734463,-1.931976,7.727736,-11.792384,16.369118,0.192690,0.179326,0.000000,-0.484053,-0.168967,0.000000
3.960000,2.374282,0.179797,-1.550468,0.904930,-0.182084,0.170380,-1.780359,1.915417,-0.109806,1.486028,-4.847591,-1.770686,7.304093,-10.651371,15.669396,0.187814,0.177585,0.000000,-0.491167,-0.173068,0.000000
3.970000,2.383243,0.178072,-1.548770,0.887202,-0.163174,0.169195,-1.765146,1.866437,-0.126753,1.555447,-4.945873,-1.620643,6.683335,-9.191536,14.545170,0.182870,0.175804,0.000000,-0.497309,-0.176834,0.000000
3.980000,2.392027,0.176532,-1.547084,0.869630,-0.144758,0.167849,-1.749259,1.816528,-0.142234,1.621873,-5.035334,-1.475447,6.605686,-8.711495,14.498193,0.177869,0.173988,0.000000,-0.502916,-0.180466,0.000000
3.990000,2.400636,0.175175,-1.545413,0.852219,-0.126846,0.166356,-1.732717,1.765757,-0.156276,1.685488,-5.116537,-1.334944,6.014022,-7.351087,13.389956,0.172814,0.172137,0.000000,-0.508031,-0.183980,-0.000000
4.000000,2.409072,0.173994,-1.543758,0.834977,-0.109445,0.164728,-1.715571,1.714246,-0.168974,1.743062,-5.184015,-1.205876,5.605236,-6.332235,12.633700,0.167712,0.170254,0.000000,-0.512234,-0.187174,0.000000
4.010000,2.417336,0.172984,-1.542119,0.817910,-0.092563,0.162980,-1.697865,1.662104,-0.180407,1.797649,-5.242655,-1.081722,5.208462,-5.339510,11.896475,0.162571,0.168341,0.000000,-0.515859,-0.190229,0.000000
4.020000,2.425431,0.172141,-1.540498,0.801022,-0.076205,0.161124,-1.679640,1.609430,-0.190658,1.846292,-5.290343,-0.970703,4.623435,-4.262744,10.600039,0.157397,0.166400,0.000000,-0.518820,-0.192992,-0.000000
4.030000,2.433357,0.171458,-1.538897,0.784318,-0.060376,0.159171,-1.660947,1.556326,-0.199832,1.892288,-5.329263,-0.863569,4.580471,-3.528227,10.837417,0.152196,0.164433,0.000000,-0.521156,-0.195621,0.000000
4.040000,2.441118,0.170931,-1.537315,0.767804,-0.045080,0.157131,-1.641801,1.502873,-0.207938,1.935872,-5.359803,-0.759823,4.035260,-2.524674,9.619300,0.146976,0.162442,0.000000,-0.522886,-0.198132,0.000000
4.050000,2.448714,0.170555,-1.535754,0.751484,-0.030319,0.155015,-1.622250,1.449165,-0.215075,1.973903,-5.380368,-0.668639,3.675221,-1.653239,8.914648,0.141741,0.160429,0.000000,-0.523974,-0.200360,0.000000
4.060000,2.456148,0.170323,-1.534215,0.735360,-0.016097,0.152832,-1.602331,1.395292,-0.221320,2.009340,-5.392679,-0.581336,3.329256,-0.808390,8.242987,0.136498,0.158395,0.000000,-0.524437,-0.202449,-0.000000
4.070000,2.463422,0.170231,-1.532698,0.719438,-0.002414,0.150592,-1.582081,1.341339,-0.226749,2.039747,-5.396582,-0.506528,2.836421,0.017412,7.019072,0.131254,0.156342,0.000000,-0.524361,-0.204291,0.000000
4.080000,2.470538,0.170273,-1.531203,0.703720,0.010730,0.148300,-1.561543,1.287387,-0.231459,2.067837,-5.392543,-0.434644,2.786299,0.785462,7.370909,0.126013,0.154274,0.000000,-0.523639,-0.205993,-0.000000
4.090000,2.477497,0.170444,-1.529732,0.688208,0.023334,0.145965,-1.540731,1.233514,-0.235447,2.093849,-5.380860,-0.365037,2.335109,1.551851,6.255023,0.120783,0.152190,0.000000,-0.522284,-0.207569,0.000000
4.100000,2.484302,0.170738,-1.528284,0.672906,0.035401,0.143593,-1.519683,1.179795,-0.238803,2.115288,-5.361648,-0.306909,2.037716,2.280180,5.673979,0.115569,0.150093,0.000000,-0.520403,-0.208908,-0.000000
4.110000,2.490956,0.171150,-1.526860,0.657815,0.046931,0.141191,-1.498431,1.126305,-0.241591,2.134597,-5.335226,-0.251593,1.756210,2.982296,5.130571,0.110377,0.147984,0.000000,-0.517903,-0.210111,-0.000000
4.120000,2.497459,0.171675,-1.525460,0.642938,0.057928,0.138763,-1.477005,1.073112,-0.243874,2.149825,-5.302255,-0.206632,1.358561,3.623975,4.122713,0.105213,0.145866,0.000000,-0.514919,-0.211095,-0.000000
4.130000,2.503815,0.172307,-1.524085,0.628276,0.068394,0.136315,-1.455440,1.020282,-0.245729,2.163220,-5.262490,-0.163660,1.324628,4.324775,4.484685,0.100081,0.143739,0.000000,-0.511318,-0.211950,0.000000
4.140000,2.510026,0.173041,-1.522734,0.613830,0.078335,0.133850,-1.433746,0.967884,-0.247149,2.175006,-5.216189,-0.122019,0.967303,4.913872,3.589988,0.094988,0.141606,0.000000,-0.507114,-0.212689,0.000000
4.150000,2.516093,0.173872,-1.521408,0.599601,0.087754,0.131373,-1.411953,0.915977,-0.248204,2.183187,-5.164162,-0.089561,0.738161,5.503745,3.164802,0.089940,0.139467,0.000000,-0.502449,-0.213221,-0.000000
4.160000,2.522018,0.174794,-1.520107,0.585591,0.096656,0.128887,-1.390087,0.864621,-0.248944,2.189724,-5.106262,-0.058890,0.523133,6.065627,2.776480,0.084941,0.137324,0.000000,-0.497226,-0.213631,-0.000000
4.170000,2.527805,0.175803,-1.518830,0.571799,0.105048,0.126395,-1.368170,0.813870,-0.249411,2.193248,-5.042998,-0.035750,0.230714,6.588610,2.048883,0.079997,0.135179,0.000000,-0.491534,-0.213858,0.000000
4.180000,2.533455,0.176894,-1.517579,0.558227,0.112936,0.123899,-1.346226,0.763778,-0.249661,2.195366,-4.974456,-0.013772,0.196447,7.115357,2.357865,0.075112,0.133034,0.000000,-0.485320,-0.213970,-0.000000
4.190000,2.538970,0.178060,-1.516352,0.544875,0.120326,0.121402,-1.324266,0.714398,-0.249687,2.196270,-4.900901,0.007619,-0.060948,7.585107,1.731333,0.070292,0.130888,0.000000,-0.478601,-0.213977,0.000000
4.200000,2.544353,0.179298,-1.515151,0.531742,0.127226,0.118906,-1.302310,0.665775,-0.249534,2.194589,-4.822794,0.022608,-0.225893,8.037953,1.464406,0.065542,0.128744,0.000000,-0.471458,-0.213818,0.000000
4.210000,2.549606,0.180603,-1.513974,0.518829,0.133644,0.116412,-1.280378,0.617956,-0.249235,2.191703,-4.740345,0.036759,-0.378595,8.461946,1.229995,0.060865,0.126603,0.000000,-0.463867,-0.213552,0.000000
4.220000,2.554731,0.181970,-1.512823,0.506134,0.139588,0.113922,-1.258484,0.570983,-0.248817,2.186786,-4.653509,0.046008,-0.574504,8.886643,0.760961,0.056266,0.124466,0.000000,-0.455843,-0.213148,0.000000
4.230000,2.559729,0.183393,-1.511696,0.493659,0.145067,0.111436,-1.236645,0.524898,-0.248315,2.180847,-4.562999,0.054937,-0.610503,9.210528,1.033650,0.051749,0.122334,0.000000,-0.447425,-0.212645,0.000000
4.240000,2.564605,0.184870,-1.510594,0.481401,0.150089,0.108956,-1.214869,0.479735,-0.247717,2.174037,-4.469098,0.064006,-0.778458,9.579563,0.646426,0.047319,0.120207,0.000000,-0.438639,-0.212052,0.000000
4.250000,2.569358,0.186394,-1.509517,0.469361,0.154665,0.106482,-1.193171,0.435528,-0.247051,2.165554,-4.371616,0.069128,-0.887623,9.898256,0.518784,0.042978,0.118088,0.000000,-0.429485,-0.211339,0.000000
4.260000,2.573992,0.187961,-1.508464,0.457538,0.158803,0.104015,-1.171561,0.392312,-0.246334,2.156276,-4.271217,0.074070,-0.986347,10.190587,0.412673,0.038730,0.115977,0.000000,-0.420009,-0.210544,0.000000
4.270000,2.578510,0.189568,-1.507436,0.445930,0.162514,0.101555,-1.150050,0.350114,-0.245577,2.145674,-4.167766,0.076897,-1.113107,10.482415,0.215351,0.034579,0.113875,0.000000,-0.410203,-0.209638,0.000000
4.280000,2.582912,0.191210,-1.506433,0.434536,0.165809,0.099104,-1.128649,0.308964,-0.244796,2.134452,-4.061926,0.079687,-1.129258,10.681118,0.347840,0.030527,0.111782,0.000000,-0.400127,-0.208665,0.000000
4.290000,2.587201,0.192883,-1.505454,0.423356,0.168697,0.096660,-1.107362,0.268883,-0.243982,2.122724,-3.953964,0.082725,-1.234694,10.920087,0.203291,0.026577,0.109699,0.000000,-0.389807,-0.207633,0.000000
4.300000,2.591380,0.194583,-1.504500,0.412389,0.171190,0.094224,-1.086198,0.229893,-0.243147,2.109953,-3.843717,0.084326,-1.298797,11.112213,0.178544,0.022732,0.107628,0.000000,-0.379233,-0.206509,0.000000
4.310000,2.595450,0.196306,-1.503570,0.401632,0.173299,0.091797,-1.065165,0.192013,-0.242295,2.096684,-3.731917,0.086049,-1.356567,11.277153,0.166645,0.018993,0.105568,0.000000,-0.368475,-0.205328,0.000000
4.320000,2.599413,0.198048,-1.502664,0.391085,0.175034,0.089378,-1.044267,0.155262,-0.241426,2.082820,-3.617947,0.087692,-1.412518,11.480526,0.166202,0.015363,0.103521,0.000000,-0.357472,-0.204083,0.000000
4.330000,2.603272,0.199805,-1.501782,0.380746,0.176408,0.086968,-1.023510,0.119657,-0.240541,2.068510,-3.503064,0.089461,-1.448466,11.491248,0.189836,0.011844,0.101486,0.000000,-0.346353,-0.202787,-0.000000
4.340000,2.607029,0.201575,-1.500925,0.370614,0.177431,0.084567,-1.002898,0.085203,-0.239636,2.053817,-3.387544,0.091490,-1.491711,11.641488,0.215907,0.008436,0.099465,0.000000,-0.335145,-0.201445,0.000000
4.350000,2.610685,0.203353,-1.500091,0.360688,0.178116,0.082176,-0.982435,0.051912,-0.238710,2.038714,-3.270586,0.093834,-1.525338,11.713894,0.256354,0.005141,0.097458,0.000000,-0.323772,-0.200055,-0.000000
4.360000,2.614243,0.205136,-1.499281,0.350965,0.178473,0.079793,-0.962125,0.019792,-0.237758,2.023282,-3.153346,0.096488,-1.554909,11.762789,0.303054,0.001961,0.095464,0.000000,-0.312349,-0.198625,0.000000
4.370000,2.617705,0.206921,-1.498495,0.341445,0.178515,0.077421,-0.941970,-0.011151,-0.236776,2.007680,-3.035104,0.100171,-1.570085,11.850669,0.408417,-0.001105,0.093485,0.000000,-0.300809,-0.197165,0.000000
4.380000,2.621073,0.208705,-1.497733,0.332125,0.178254,0.075058,-0.921972,-0.040911,-0.235754,1.991782,-2.917059,0.104128,-1.609031,11.753888,0.383245,-0.004055,0.091521,0.000000,-0.289272,-0.195670,0.000000
4.390000,2.624348,0.210485,-1.496994,0.323005,0.177701,0.072706,-0.902135,-0.069494,-0.234693,1.975617,-2.799460,0.108384,-1.618229,11.794400,0.495319,-0.006891,0.089572,0.000000,-0.277764,-0.194143,0.000000
4.400000,2.627533,0.212258,-1.496278,0.314082,0.176868,0.070364,-0.882460,-0.096899,-0.233582,1.959378,-2.681505,0.113826,-1.633932,11.761758,0.566818,-0.009610,0.087638,0.000000,-0.266209,-0.192596,0.000000
4.410000,2.630630,0.214022,-1.495586,0.305355,0.175767,0.068034,-0.862948,-0.123127,-0.232416,1.942923,-2.564186,0.119551,-1.647882,11.711011,0.636400,-0.012215,0.085720,0.000000,-0.254706,-0.191024,0.000000
4.420000,2.633641,0.215773,-1.494918,0.296822,0.174410,0.065716,-0.843601,-0.148183,-0.231184,1.926509,-2.447236,0.127090,-1.643301,11.664361,0.815677,-0.014705,0.083817,0.000000,-0.243232,-0.189440,-0.000000
4.430000,2.636567,0.217509,-1.494272,0.288482,0.172807,0.063411,-0.824419,-0.172074,-0.229874,1.909878,-2.331199,0.134692,-1.682863,11.539950,0.702882,-0.017080,0.081931,0.000000,-0.231840,-0.187834,-0.000000
4.440000,2.639411,0.219228,-1.493649,0.280333,0.170972,0.061119,-0.805404,-0.194811,-0.228491,1.893030,-2.216260,0.142280,-1.678014,11.456753,0.871152,-0.019342,0.080060,0.000000,-0.220550,-0.186206,-0.000000
4.450000,2.642175,0.220928,-1.493050,0.272374,0.168915,0.058841,-0.786558,-0.216402,-0.227022,1.876250,-2.102216,0.151630,-1.687169,11.337775,0.942273,-0.021491,0.078206,0.000000,-0.209345,-0.184573,0.000000
4.460000,2.644859,0.222606,-1.492473,0.264602,0.166648,0.056579,-0.767880,-0.236860,-0.225459,1.859245,-1.989552,0.161044,-1.697785,11.203065,1.007454,-0.023529,0.076368,0.000000,-0.198272,-0.182918,0.000000
4.470000,2.647467,0.224260,-1.491918,0.257016,0.164181,0.054332,-0.749372,-0.256197,-0.223793,1.842442,-1.878106,0.172388,-1.678474,11.073498,1.195437,-0.025457,0.074546,0.000000,-0.187319,-0.181270,0.000000
4.480000,2.650000,0.225889,-1.491386,0.249614,0.161527,0.052103,-0.731033,-0.274428,-0.222012,1.825343,-1.768343,0.183571,-1.742154,10.876609,1.038619,-0.027276,0.072741,0.000000,-0.176529,-0.179598,0.000000
4.490000,2.652460,0.227490,-1.490876,0.242394,0.158697,0.049892,-0.712866,-0.291570,-0.220123,1.807914,-1.660411,0.194465,-1.727959,10.718058,1.205246,-0.028988,0.070953,0.000000,-0.165915,-0.177897,0.000000
4.500000,2.654849,0.229062,-1.490388,0.235356,0.155700,0.047701,-0.694873,-0.307641,-0.218116,1.790644,-1.554111,0.207104,-1.742121,10.529680,1.255584,-0.030595,0.069182,0.000000,-0.155465,-0.176202,0.000000
4.510000,2.657168,0.230603,-1.489922,0.228496,0.152547,0.045531,-0.677055,-0.322659,-0.215982,1.773066,-1.449748,0.219577,-1.758767,10.331474,1.297941,-0.032098,0.067428,0.000000,-0.145203,-0.174482,0.000000
4.520000,2.659419,0.232113,-1.489477,0.221814,0.149250,0.043382,-0.659411,-0.336644,-0.213718,1.755600,-1.347605,0.233593,-1.749314,10.104641,1.446207,-0.033500,0.065690,0.000000,-0.135162,-0.172766,0.000000
4.530000,2.661605,0.233588,-1.489054,0.215307,0.145818,0.041257,-0.641944,-0.349618,-0.211312,1.737764,-1.247495,0.247263,-1.818808,9.916022,1.284954,-0.034802,0.063970,0.000000,-0.125318,-0.171020,-0.000000
4.540000,2.663726,0.235029,-1.488652,0.208975,0.142261,0.039156,-0.624658,-0.361601,-0.208775,1.719512,-1.149503,0.260443,-1.817336,9.671567,1.408484,-0.036007,0.062268,0.000000,-0.115679,-0.169240,0.000000
4.550000,2.665785,0.236433,-1.488271,0.202814,0.138589,0.037082,-0.607554,-0.372616,-0.206098,1.701278,-1.054013,0.274914,-1.844209,9.434253,1.425990,-0.037116,0.060583,0.000000,-0.106289,-0.167458,0.000000
4.560000,2.667783,0.237800,-1.487910,0.196823,0.134812,0.035035,-0.590634,-0.382688,-0.203278,1.682611,-0.960788,0.288980,-1.874864,9.190429,1.434674,-0.038133,0.058917,0.000000,-0.097118,-0.165638,0.000000
4.570000,2.669722,0.239129,-1.487570,0.191000,0.130938,0.033017,-0.573901,-0.391842,-0.200314,1.663908,-0.870405,0.304031,-1.880838,8.903433,1.527147,-0.039060,0.057268,0.000000,-0.088228,-0.163814,0.000000
4.580000,2.671604,0.240418,-1.487250,0.185344,0.126978,0.031029,-0.557357,-0.400104,-0.197200,1.644675,-0.782352,0.318506,-1.966792,8.706800,1.365156,-0.039899,0.055638,0.000000,-0.079562,-0.161945,0.000000
4.590000,2.673429,0.241668,-1.486949,0.179853,0.122939,0.029073,-0.541010,-0.407497,-0.193947,1.624855,-0.696665,0.332265,-1.983160,8.410708,1.433066,-0.040652,0.054027,0.000000,-0.071123,-0.160025,0.000000
4.600000,2.675201,0.242877,-1.486668,0.174523,0.118831,0.027150,-0.524861,-0.414048,-0.190552,1.604868,-0.613997,0.346739,-2.028987,8.140818,1.412694,-0.041322,0.052435,0.000000,-0.062981,-0.158087,0.000000
4.610000,2.676920,0.244044,-1.486406,0.169355,0.114661,0.025262,-0.508915,-0.419785,-0.187015,1.584243,-0.533862,0.360534,-2.079780,7.866804,1.383555,-0.041912,0.050863,0.000000,-0.055082,-0.156094,0.000000
4.620000,2.678589,0.245170,-1.486163,0.164344,0.110438,0.023411,-0.493176,-0.424736,-0.183339,1.563414,-0.456846,0.374739,-2.103272,7.553641,1.418894,-0.042425,0.049310,0.000000,-0.047489,-0.154081,0.000000
4.630000,2.680208,0.246253,-1.485938,0.159490,0.106169,0.021596,-0.477649,-0.428930,-0.179523,1.541817,-0.382424,0.388104,-2.217448,7.330686,1.251786,-0.042863,0.047779,0.000000,-0.040143,-0.151998,0.000000
4.640000,2.681779,0.247293,-1.485731,0.154791,0.101861,0.019821,-0.462343,-0.432393,-0.175580,1.519382,-0.310608,0.400506,-2.253855,7.013853,1.265045,-0.043228,0.046268,0.000000,-0.033046,-0.149839,0.000000
4.650000,2.683304,0.248290,-1.485541,0.150243,0.097523,0.018085,-0.447262,-0.435154,-0.171512,1.496594,-0.242003,0.413057,-2.322262,6.724903,1.207034,-0.043525,0.044779,0.000000,-0.026262,-0.147646,0.000000
4.660000,2.684784,0.249244,-1.485369,0.145845,0.093161,0.016391,-0.432414,-0.437241,-0.167322,1.472950,-0.175975,0.424717,-2.396199,6.437092,1.142635,-0.043754,0.043313,0.000000,-0.019723,-0.145372,0.000000
4.670000,2.686221,0.250153,-1.485213,0.141594,0.088780,0.014739,-0.417805,-0.438686,-0.163018,1.448756,-0.113666,0.436061,-2.454242,6.066312,1.106830,-0.043920,0.041869,0.000000,-0.013546,-0.143046,-0.000000
4.680000,2.687617,0.251019,-1.485074,0.137488,0.084389,0.013131,-0.403442,-0.439522,-0.158605,1.423622,-0.053774,0.446447,-2.573830,5.913082,0.968765,-0.044026,0.040449,0.000000,-0.007599,-0.140631,-0.000000
4.690000,2.688972,0.251841,-1.484951,0.133524,0.079992,0.011567,-0.389336,-0.439769,-0.154093,1.397480,0.003742,0.455786,-2.644464,5.547540,0.916385,-0.044073,0.039054,0.000000,-0.001877,-0.138119,0.000000
4.700000,2.690288,0.252619,-1.484843,0.129700,0.075595,0.010049,-0.375495,-0.439461,-0.149490,1.370634,0.057533,0.464600,-2.737765,5.252544,0.826835,-0.044065,0.037684,0.000000,0.003483,-0.135538,0.000000
4.710000,2.691566,0.253353,-1.484750,0.126013,0.071204,0.008578,-0.361927,-0.438626,-0.144805,1.342712,0.108888,0.472384,-2.837136,4.960170,0.732230,-0.044004,0.036341,0.000000,0.008612,-0.132851,0.000000
4.720000,2.692808,0.254043,-1.484671,0.122461,0.066824,0.007153,-0.348643,-0.437297,-0.140046,1.313969,0.156197,0.479256,-2.922271,4.557862,0.638054,-0.043894,0.035025,0.000000,0.013347,-0.130084,0.000000
4.730000,2.694016,0.254690,-1.484606,0.119039,0.062460,0.005777,-0.335652,-0.435509,-0.135223,1.284039,0.201229,0.485063,-3.064966,4.450057,0.522478,-0.043738,0.033737,0.000000,0.017865,-0.127198,-0.000000
4.740000,2.695190,0.255292,-1.484555,0.115747,0.058116,0.004449,-0.322966,-0.433280,-0.130348,1.252857,0.244051,0.489751,-3.162052,4.057299,0.417497,-0.043537,0.032479,0.000000,0.022174,-0.124188,0.000000
4.750000,2.696331,0.255852,-1.484517,0.112579,0.053796,0.003170,-0.310598,-0.430643,-0.125432,1.220683,0.282855,0.493365,-3.282412,3.760093,0.301984,-0.043296,0.031251,0.000000,0.026091,-0.121077,0.000000
4.760000,2.697442,0.256368,-1.484492,0.109534,0.049504,0.001940,-0.298557,-0.427629,-0.120485,1.187206,0.319447,0.495847,-3.407424,3.467981,0.183470,-0.043016,0.030056,0.000000,0.029797,-0.117835,0.000000
4.770000,2.698522,0.256842,-1.484478,0.106607,0.045244,0.000760,-0.286857,-0.424271,-0.115519,1.152577,0.351379,0.496927,-3.525449,3.005510,0.041714,-0.042702,0.028893,0.000000,0.033046,-0.114475,-0.000000
4.780000,2.699574,0.257273,-1.484476,0.103795,0.041020,-0.000370,-0.275510,-0.420607,-0.110550,1.116548,0.381389,0.496873,-3.681310,2.998833,-0.052917,-0.042356,0.027765,0.000000,0.036111,-0.110973,-0.000000
4.790000,2.700599,0.257663,-1.484485,0.101095,0.036833,-0.001451,-0.264531,-0.416648,-0.105586,1.079061,0.409576,0.495658,-3.810686,2.549689,-0.200696,-0.041980,0.026672,0.000000,0.039003,-0.107320,-0.000000
4.800000,2.701596,0.258010,-1.484505,0.098503,0.032688,-0.002482,-0.253933,-0.412433,-0.100642,1.040264,0.433123,0.492931,-3.955779,2.247222,-0.335386,-0.041578,0.025617,0.000000,0.041437,-0.103532,-0.000000
4.810000,2.702569,0.258317,-1.484535,0.096015,0.028585,-0.003463,-0.243731,-0.407989,-0.095731,0.999970,0.455234,0.489014,-4.105418,1.959039,-0.472227,-0.041151,0.024600,0.000000,0.043735,-0.099589,-0.000000
4.820000,2.703517,0.258582,-1.484574,0.093627,0.024528,-0.004396,-0.233939,-0.403355,-0.090868,0.958118,0.470305,0.483242,-4.263761,1.263024,-0.658693,-0.040706,0.023624,0.000000,0.045333,-0.095485,0.000000
4.830000,2.704442,0.258807,-1.484623,0.091335,0.020519,-0.005281,-0.224574,-0.398583,-0.086070,0.914721,0.484858,0.476335,-4.416405,1.652944,-0.722439,-0.040245,0.022689,0.000000,0.046885,-0.091220,0.000000
4.840000,2.705344,0.258993,-1.484680,0.089134,0.016557,-0.006118,-0.215650,-0.393657,-0.081345,0.869733,0.499110,0.468293,-4.584152,0.984835,-0.910773,-0.039768,0.021798,0.000000,0.048412,-0.086787,0.000000
4.850000,2.706225,0.259139,-1.484745,0.087021,0.012646,-0.006908,-0.207185,-0.388628,-0.076711,0.823040,0.506313,0.458314,-4.753246,0.664167,-1.061282,-0.039279,0.020953,0.000000,0.049235,-0.082176,-0.000000
4.860000,2.707085,0.259246,-1.484818,0.084989,0.008785,-0.007653,-0.199195,-0.383537,-0.072183,0.774641,0.511235,0.446927,-4.927353,0.318145,-1.216610,-0.038784,0.020154,0.000000,0.049832,-0.077386,-0.000000
4.870000,2.707925,0.259314,-1.484898,0.083035,0.004975,-0.008352,-0.191698,-0.378415,-0.067777,0.724477,0.512630,0.433971,-5.106291,-0.041528,-1.375208,-0.038284,0.019405,0.000000,0.050077,-0.072411,0.000000
4.880000,2.708746,0.259345,-1.484985,0.081153,0.001217,-0.009009,-0.184711,-0.373297,-0.063509,0.672499,0.510353,0.419412,-5.290030,-0.416494,-1.537000,-0.037783,0.018706,0.000000,0.049955,-0.067245,-0.000000
4.890000,2.709548,0.259339,-1.485078,0.079339,-0.002491,-0.009623,-0.178254,-0.368221,-0.059395,0.618660,0.504244,0.403220,-5.478515,-0.808384,-1.701883,-0.037286,0.018059,0.000000,0.049449,-0.061884,0.000000
4.900000,2.710333,0.259296,-1.485177,0.077587,-0.006148,-0.010197,-0.172345,-0.363226,-0.055450,0.562912,0.494123,0.385361,-5.671859,-1.218945,-1.870117,-0.036796,0.017468,0.000000,0.048539,-0.056321,0.000000
4.910000,2.711100,0.259216,-1.485282,0.075890,-0.009756,-0.010733,-0.167002,-0.358352,-0.051693,0.505207,0.479797,0.365807,-5.869897,-1.649711,-2.041258,-0.036317,0.016933,0.000000,0.047204,-0.050553,-0.000000
4.920000,2.711851,0.259101,-1.485391,0.074245,-0.013316,-0.011232,-0.162247,-0.353644,-0.048140,0.445498,0.461056,0.344526,-6.072666,-2.102372,-2.215393,-0.035853,0.016457,0.000000,0.045424,-0.044575,0.000000
4.930000,2.712585,0.258950,-1.485506,0.072643,-0.016829,-0.011696,-0.158099,-0.349147,-0.044808,0.383738,0.437671,0.321489,-6.280181,-2.578578,-2.392469,-0.035410,0.016041,0.000000,0.043175,-0.038382,0.000000
4.940000,2.713304,0.258764,-1.485625,0.071080,-0.020299,-0.012129,-0.154579,-0.344907,-0.041716,0.319879,0.409400,0.296667,-6.492500,-3.079976,-2.572462,-0.034991,0.015689,0.000000,0.040430,-0.031969,0.000000
4.950000,2.714007,0.258544,-1.485749,0.069550,-0.023729,-0.012531,-0.151709,-0.340976,-0.038881,0.253878,0.375982,0.270032,-6.709029,-3.608215,-2.755175,-0.034603,0.015402,0.000000,0.037163,-0.025334,-0.000000
4.960000,2.714695,0.258290,-1.485876,0.068044,-0.027120,-0.012907,-0.149509,-0.337406,-0.036322,0.185685,0.337141,0.241555,-6.930448,-4.164945,-2.940709,-0.034250,0.015183,0.000000,0.033347,-0.018471,0.000000
4.970000,2.715368,0.258002,-1.486007,0.066557,-0.030478,-0.013259,-0.148002,-0.334252,-0.034056,0.115254,0.292583,0.211209,-7.156473,-4.751815,-3.128958,-0.033938,0.015034,0.000000,0.028951,-0.011376,-0.000000
4.980000,2.716026,0.257680,-1.486141,0.065082,-0.033807,-0.013589,-0.147212,-0.331574,-0.032104,0.042540,0.241998,0.178967,-7.387062,-5.370479,-3.319879,-0.033673,0.014956,0.000000,0.023944,-0.004047,0.000000
4.990000,2.716669,0.257326,-1.486278,0.063610,-0.037111,-0.013902,-0.147159,-0.329433,-0.030483,-0.032502,0.185062,0.144802,-7.622127,-6.022602,-3.513426,-0.033461,0.014953,0.000000,0.018293,0.003520,-0.000000
5.000000,2.717298,0.256938,-1.486419,0.062136,-0.040397,-0.014200,-0.147870,-0.327895,-0.029214,-0.109917,0.121429,0.108689,-7.861477,-6.709870,-3.709549,-0.033309,0.015027,0.000000,0.011964,0.011328,0.000000
