time,x,y,z,vx,vy,vz,ax,ay,az,jx,jy,jz,sx,sy,sz,roll,pitch,yaw,p,q,r
0.000000,-3.279979,-0.331829,-1.482629,-0.017023,-0.004610,0.010163,0.104435,0.026036,-0.089526,4.997957,1.369555,-3.222081,-12.887691,3.883765,110.083819,0.002630,-0.010549,0.000000,0.137467,-0.501377,0.000000
0.010000,-3.280149,-0.331875,-1.482527,-0.015979,-0.004349,0.009267,0.154414,0.039731,-0.121746,4.869081,1.408393,-2.121243,-135.391274,-31.004694,231.641766,0.004000,-0.015546,0.000000,0.140903,-0.486812,-0.000000
0.020000,-3.280298,-0.331916,-1.482444,-0.013935,-0.003815,0.007728,0.201816,0.054204,-0.131950,2.290132,0.749461,1.410754,-234.823360,-72.448623,272.535482,0.005451,-0.020297,0.000000,0.076114,-0.233131,0.000000
0.030000,-3.280428,-0.331951,-1.482373,-0.011943,-0.003265,0.006628,0.200217,0.054720,-0.093531,0.172613,-0.040580,3.329466,-74.825247,-47.657430,49.299906,0.005524,-0.020214,0.000000,-0.002242,-0.024216,0.000000
0.040000,-3.280537,-0.331981,-1.482311,-0.009931,-0.002721,0.005857,0.205268,0.053392,-0.065361,0.793627,-0.203687,2.396752,57.881318,-14.296996,-84.616944,0.005405,-0.020783,0.000000,-0.019318,-0.085371,-0.000000
0.050000,-3.280626,-0.332006,-1.482256,-0.007837,-0.002197,0.005321,0.216089,0.050647,-0.045596,1.330240,-0.326519,1.637128,49.810417,-10.521203,-68.399703,0.005138,-0.021922,0.000000,-0.032284,-0.138547,-0.000000
0.060000,-3.280694,-0.332025,-1.482205,-0.005609,-0.001708,0.004945,0.231873,0.046862,-0.032618,1.789835,-0.414111,1.028758,42.459637,-7.233148,-54.296043,0.004760,-0.023554,0.000000,-0.041584,-0.184203,-0.000000
0.070000,-3.280738,-0.332040,-1.482157,-0.003200,-0.001260,0.004669,0.251886,0.042364,-0.025021,2.179432,-0.471182,0.551207,35.792417,-4.401312,-42.166117,0.004306,-0.025606,0.000000,-0.047675,-0.222886,0.000000
0.080000,-3.280758,-0.332050,-1.482111,-0.000571,-0.000860,0.004445,0.275462,0.037438,-0.021594,2.505684,-0.502138,0.185436,29.772201,-1.994178,-31.870086,0.003806,-0.028011,0.000000,-0.051009,-0.255187,0.000000
0.090000,-3.280750,-0.332057,-1.482068,0.002309,-0.000511,0.004237,0.302000,0.032322,-0.021312,2.774876,-0.511066,-0.086195,24.362449,0.019772,-23.268093,0.003286,-0.030708,0.000000,-0.052016,-0.281712,0.000000
0.100000,-3.280712,-0.332061,-1.482027,0.005469,-0.000214,0.004019,0.330959,0.027217,-0.023318,2.992933,-0.501742,-0.279926,19.526627,1.672056,-16.220281,0.002766,-0.033644,0.000000,-0.051102,-0.303064,0.000000
0.110000,-3.280641,-0.332061,-1.481988,0.008929,0.000033,0.003771,0.361858,0.022287,-0.026911,3.165409,-0.477625,-0.410601,15.228167,2.994191,-10.586820,0.002264,-0.036769,0.000000,-0.048642,-0.319820,-0.000000
0.120000,-3.280533,-0.332060,-1.481951,0.012706,0.000232,0.003480,0.394268,0.017664,-0.031530,3.297496,-0.441858,-0.491663,11.430461,4.017700,-6.227852,0.001793,-0.040040,0.000000,-0.044975,-0.332524,0.000000
0.130000,-3.280386,-0.332057,-1.481918,0.016814,0.000386,0.003140,0.427808,0.013450,-0.036744,3.394018,-0.397271,-0.535158,8.096988,4.774099,-3.003520,0.001365,-0.043419,0.000000,-0.040402,-0.341678,0.000000
0.140000,-3.280197,-0.332052,-1.481888,0.021262,0.000501,0.002745,0.462148,0.009719,-0.042233,3.459436,-0.346376,-0.551733,5.191339,5.294889,-0.774039,0.000985,-0.046874,0.000000,-0.035190,-0.347740,0.000000
0.150000,-3.279961,-0.332047,-1.481863,0.026057,0.000581,0.002295,0.496997,0.006522,-0.047779,3.497845,-0.291373,-0.550638,2.676838,5.611603,0.600484,0.000661,-0.050374,0.000000,-0.029569,-0.351122,0.000000
0.160000,-3.279676,-0.332041,-1.481842,0.031202,0.000631,0.001790,0.532105,0.003891,-0.053246,3.512973,-0.234144,-0.539723,0.516752,5.755778,1.259969,0.000394,-0.053896,0.000000,-0.023734,-0.352191,-0.000000
0.170000,-3.279337,-0.332034,-1.481827,0.036699,0.000658,0.001230,0.567256,0.001839,-0.058573,3.508180,-0.176258,-0.525439,-1.328804,5.763580,1.365797,0.000186,-0.057418,0.000000,-0.017845,-0.351269,0.000000
0.180000,-3.278942,-0.332027,-1.481818,0.042547,0.000668,0.000618,0.602268,0.000366,-0.063755,3.486396,-0.118873,-0.512407,-2.958392,5.748205,1.435590,0.000037,-0.060921,0.000000,-0.012020,-0.348635,-0.000000
0.190000,-3.278486,-0.332021,-1.481815,0.048744,0.000666,-0.000045,0.636984,-0.000538,-0.068821,3.449012,-0.061293,-0.496727,-4.387269,5.712944,1.478619,-0.000054,-0.064391,0.000000,-0.006188,-0.344458,0.000000
0.200000,-3.277967,-0.332014,-1.481819,0.055287,0.000657,-0.000758,0.671249,-0.000860,-0.073690,3.398651,-0.004614,-0.482835,-5.193780,5.086562,-1.153103,-0.000087,-0.067811,0.000000,-0.000459,-0.338983,-0.000000
0.210000,-3.277380,-0.332008,-1.481830,0.062169,0.000648,-0.001518,0.704957,-0.000630,-0.078478,3.345137,0.040438,-0.519789,-5.463489,3.965153,-6.021066,-0.000064,-0.071170,0.000000,0.004084,-0.332847,0.000000
0.220000,-3.276723,-0.332001,-1.481849,0.069386,0.000645,-0.002328,0.738151,-0.000051,-0.084085,3.289381,0.074689,-0.603256,-6.547545,4.108697,-4.991868,-0.000005,-0.074467,0.000000,0.007528,-0.326096,-0.000000
0.230000,-3.275993,-0.331995,-1.481877,0.076932,0.000647,-0.003200,0.770745,0.000863,-0.090543,3.214186,0.122612,-0.619627,-8.518867,5.582966,2.216497,0.000087,-0.077692,0.000000,0.012339,-0.317849,0.000000
0.240000,-3.275185,-0.331988,-1.481913,0.084801,0.000662,-0.004138,0.802435,0.002401,-0.096478,3.119004,0.186349,-0.558926,-9.585598,6.019050,4.647038,0.000242,-0.080825,0.000000,0.018730,-0.308252,-0.000000
0.250000,-3.274297,-0.331981,-1.481959,0.092981,0.000695,-0.005130,0.833125,0.004590,-0.101722,3.022474,0.242993,-0.526686,-9.500219,5.174686,1.293513,0.000461,-0.083857,0.000000,0.024393,-0.298365,-0.000000
0.260000,-3.273325,-0.331974,-1.482016,0.101463,0.000754,-0.006173,0.862885,0.007261,-0.107012,2.929000,0.289842,-0.533056,-9.520248,4.676738,-0.338294,0.000729,-0.086792,0.000000,0.029059,-0.288490,0.000000
0.270000,-3.272267,-0.331966,-1.482083,0.110239,0.000841,-0.007270,0.891705,0.010387,-0.112383,2.832069,0.336528,-0.533452,-10.041367,4.742211,0.404511,0.001043,-0.089627,0.000000,0.033698,-0.278343,0.000000
0.280000,-3.271120,-0.331957,-1.482161,0.119298,0.000961,-0.008421,0.919526,0.013992,-0.117681,2.728172,0.384687,-0.524966,-10.664894,4.814195,0.931382,0.001403,-0.092359,0.000000,0.038475,-0.267611,0.000000
0.290000,-3.269881,-0.331947,-1.482251,0.128629,0.001121,-0.009624,0.946269,0.018081,-0.122882,2.618771,0.432811,-0.514824,-10.990958,4.751231,1.061621,0.001812,-0.094980,0.000000,0.043239,-0.256382,0.000000
0.300000,-3.268548,-0.331935,-1.482354,0.138223,0.001323,-0.010878,0.971901,0.022648,-0.127977,2.508353,0.479711,-0.503733,-10.989226,4.617883,1.156964,0.002268,-0.097487,0.000000,0.047872,-0.245099,-0.000000
0.310000,-3.267117,-0.331921,-1.482469,0.148067,0.001573,-0.012183,0.996436,0.027675,-0.132957,2.398986,0.525169,-0.491685,-10.937775,4.491128,1.247676,0.002770,-0.099882,0.000000,0.052353,-0.233969,0.000000
0.320000,-3.265587,-0.331904,-1.482597,0.158152,0.001877,-0.013537,1.019881,0.033151,-0.137811,2.289598,0.569534,-0.478780,-11.046986,4.383105,1.305573,0.003315,-0.102166,0.000000,0.056718,-0.222883,-0.000000
0.330000,-3.263954,-0.331883,-1.482740,0.168465,0.002237,-0.014939,1.042228,0.039066,-0.142532,2.178047,0.612831,-0.465573,-11.245100,4.268694,1.325579,0.003904,-0.104340,0.000000,0.060970,-0.211622,0.000000
0.340000,-3.262217,-0.331859,-1.482896,0.178996,0.002658,-0.016388,1.063442,0.045408,-0.147122,2.064696,0.654908,-0.452268,-11.284631,4.138040,1.348134,0.004535,-0.106399,0.000000,0.065097,-0.200222,0.000000
0.350000,-3.260374,-0.331830,-1.483067,0.189734,0.003145,-0.017882,1.083521,0.052164,-0.151578,1.952354,0.695592,-0.438611,-11.118665,3.995511,1.384138,0.005206,-0.108344,0.000000,0.069080,-0.188961,-0.000000
0.360000,-3.258423,-0.331796,-1.483254,0.200667,0.003701,-0.019420,1.102489,0.059320,-0.155894,1.842322,0.734818,-0.424586,-10.926162,3.846602,1.406057,0.005916,-0.110178,0.000000,0.072915,-0.177968,-0.000000
0.370000,-3.256361,-0.331756,-1.483456,0.211784,0.004331,-0.021000,1.120368,0.066860,-0.160070,1.733831,0.772524,-0.410490,-10.848694,3.686353,1.394134,0.006664,-0.111904,0.000000,0.076597,-0.167162,0.000000
0.380000,-3.254187,-0.331709,-1.483674,0.223074,0.005038,-0.022621,1.137166,0.074770,-0.164104,1.625348,0.808545,-0.396703,-10.839898,3.512262,1.357781,0.007448,-0.113522,0.000000,0.080109,-0.156385,0.000000
0.390000,-3.251899,-0.331655,-1.483908,0.234527,0.005826,-0.024282,1.152875,0.083031,-0.168004,1.517033,0.842769,-0.383334,-10.731925,3.331534,1.322968,0.008266,-0.115032,0.000000,0.083442,-0.145649,0.000000
0.400000,-3.249496,-0.331593,-1.484159,0.246131,0.006699,-0.025981,1.167506,0.091626,-0.171771,1.410710,0.875176,-0.370244,-10.492656,3.147552,1.293111,0.009117,-0.116435,0.000000,0.086594,-0.135136,-0.000000
0.410000,-3.246977,-0.331521,-1.484428,0.257877,0.007659,-0.027717,1.181089,0.100535,-0.175408,1.307180,0.905720,-0.357472,-10.243030,2.955057,1.251992,0.009998,-0.117734,0.000000,0.089562,-0.124921,0.000000
0.420000,-3.244339,-0.331440,-1.484714,0.269753,0.008710,-0.029489,1.193650,0.109740,-0.178920,1.205849,0.934277,-0.345204,-10.077724,2.746430,1.194150,0.010908,-0.118933,0.000000,0.092333,-0.114941,0.000000
0.430000,-3.241582,-0.331347,-1.485017,0.281750,0.009854,-0.031296,1.205206,0.119220,-0.182313,1.105625,0.960649,-0.333589,-9.965017,2.522936,1.126324,0.011845,-0.120034,0.000000,0.094888,-0.105085,0.000000
0.440000,-3.238704,-0.331243,-1.485340,0.293857,0.011094,-0.033135,1.215763,0.128953,-0.185592,1.006549,0.984735,-0.322677,-9.792171,2.294658,1.056318,0.012806,-0.121035,0.000000,0.097218,-0.095354,0.000000
0.450000,-3.235704,-0.331125,-1.485680,0.306065,0.012433,-0.035007,1.225337,0.138915,-0.188766,0.909782,1.006542,-0.312462,-9.537323,2.064440,0.982990,0.013789,-0.121941,0.000000,0.099324,-0.085862,-0.000000
0.460000,-3.232582,-0.330994,-1.486040,0.318364,0.013872,-0.036911,1.233958,0.149084,-0.191841,0.815802,1.026024,-0.303017,-9.281282,1.825424,0.902827,0.014792,-0.122753,0.000000,0.101201,-0.076652,-0.000000
0.470000,-3.229337,-0.330848,-1.486418,0.330744,0.015415,-0.038844,1.241653,0.159435,-0.194826,0.724156,1.043051,-0.294406,-9.087532,1.571102,0.821630,0.015813,-0.123474,0.000000,0.102837,-0.067678,0.000000
0.480000,-3.225968,-0.330686,-1.486817,0.343197,0.017061,-0.040807,1.248441,0.169945,-0.197729,0.634052,1.057446,-0.286585,-8.934517,1.303520,0.742516,0.016849,-0.124107,0.000000,0.104214,-0.058859,0.000000
0.490000,-3.222473,-0.330506,-1.487235,0.355713,0.018813,-0.042799,1.254334,0.180584,-0.200558,0.545466,1.069121,-0.279556,-8.746047,1.031339,0.658947,0.017898,-0.124651,0.000000,0.105324,-0.050194,-0.000000
0.500000,-3.218853,-0.330309,-1.487673,0.368284,0.020673,-0.044818,1.259351,0.191327,-0.203321,0.459131,1.078073,-0.273406,-8.507377,0.757022,0.566599,0.018956,-0.125111,0.000000,0.106167,-0.041750,-0.000000
0.510000,-3.215108,-0.330093,-1.488131,0.380900,0.022640,-0.046865,1.263517,0.202146,-0.206026,0.375318,1.084261,-0.268224,-8.272646,0.474907,0.471658,0.020021,-0.125487,0.000000,0.106738,-0.033553,0.000000
0.520000,-3.211235,-0.329856,-1.488610,0.393554,0.024716,-0.048939,1.266857,0.213012,-0.208685,0.293678,1.087571,-0.263973,-8.083567,0.179427,0.387516,0.021090,-0.125782,0.000000,0.107025,-0.025567,0.000000
0.530000,-3.207236,-0.329599,-1.489110,0.406237,0.026900,-0.051039,1.269390,0.223897,-0.211306,0.213647,1.087850,-0.260473,-7.925363,-0.127576,0.314117,0.022161,-0.125998,0.000000,0.107015,-0.017738,0.000000
0.540000,-3.203111,-0.329318,-1.489631,0.418942,0.029194,-0.053165,1.271130,0.234769,-0.213895,0.135171,1.085020,-0.257690,-7.747512,-0.438403,0.235067,0.023231,-0.126137,0.000000,0.106699,-0.010060,-0.000000
0.550000,-3.198858,-0.329015,-1.490173,0.431660,0.031596,-0.055317,1.272094,0.245598,-0.216460,0.058697,1.079082,-0.255772,-7.539734,-0.750919,0.144811,0.024295,-0.126199,0.000000,0.106077,-0.002575,0.000000
0.560000,-3.194477,-0.328687,-1.490737,0.444384,0.034106,-0.057494,1.272304,0.256351,-0.219010,-0.015624,1.070001,-0.254794,-7.337543,-1.069960,0.055850,0.025352,-0.126188,0.000000,0.105146,0.004704,0.000000
0.570000,-3.189970,-0.328333,-1.491323,0.457106,0.036723,-0.059697,1.271781,0.266998,-0.221555,-0.088054,1.057683,-0.254655,-7.169244,-1.399844,-0.016325,0.026398,-0.126105,0.000000,0.103895,0.011802,0.000000
0.580000,-3.185335,-0.327952,-1.491931,0.469819,0.039446,-0.061925,1.270543,0.277505,-0.224103,-0.159009,1.042004,-0.255121,-7.024847,-1.738845,-0.074264,0.027430,-0.125952,0.000000,0.102314,0.018758,0.000000
0.590000,-3.180574,-0.327544,-1.492561,0.482517,0.042273,-0.064179,1.268601,0.287838,-0.226658,-0.228551,1.022906,-0.256140,-6.869352,-2.080730,-0.137174,0.028445,-0.125730,0.000000,0.100397,0.025578,-0.000000
0.600000,-3.175685,-0.327107,-1.493215,0.495191,0.045202,-0.066458,1.265972,0.297963,-0.229226,-0.296396,1.000390,-0.257864,-6.695519,-2.423413,-0.210051,0.029438,-0.125440,0.000000,0.098143,0.032236,-0.000000
0.610000,-3.170670,-0.326640,-1.493891,0.507836,0.048232,-0.068764,1.262673,0.307846,-0.231815,-0.362462,0.974438,-0.260341,-6.527502,-2.770608,-0.278975,0.030407,-0.125085,0.000000,0.095551,0.038725,0.000000
0.620000,-3.165528,-0.326142,-1.494590,0.520445,0.051359,-0.071095,1.258722,0.317452,-0.234433,-0.426946,0.944978,-0.263444,-6.384119,-3.126417,-0.330587,0.031349,-0.124666,0.000000,0.092613,0.045062,0.000000
0.630000,-3.160261,-0.325613,-1.495312,0.533011,0.054581,-0.073452,1.254134,0.326745,-0.237084,-0.490144,0.911909,-0.266953,-6.258195,-3.489402,-0.368431,0.032260,-0.124183,0.000000,0.089321,0.051275,-0.000000
0.640000,-3.154868,-0.325050,-1.496059,0.545528,0.057894,-0.075836,1.248920,0.335690,-0.239772,-0.552110,0.875190,-0.270812,-6.125860,-3.853353,-0.409166,0.033136,-0.123640,0.000000,0.085670,0.057368,0.000000
0.650000,-3.149350,-0.324455,-1.496829,0.557989,0.061295,-0.078248,1.243092,0.344249,-0.242500,-0.612661,0.834842,-0.275136,-5.982181,-4.216091,-0.456784,0.033973,-0.123035,0.000000,0.081662,0.063325,0.000000
0.660000,-3.143708,-0.323825,-1.497624,0.570389,0.064779,-0.080686,1.236666,0.352387,-0.245274,-0.671753,0.790868,-0.279948,-5.843169,-4.581199,-0.499553,0.034769,-0.122372,0.000000,0.077298,0.069142,0.000000
0.670000,-3.137942,-0.323159,-1.498443,0.582723,0.068343,-0.083153,1.229657,0.360066,-0.248099,-0.729524,0.743218,-0.285127,-5.720576,-4.952681,-0.527136,0.035519,-0.121652,0.000000,0.072573,0.074830,0.000000
0.680000,-3.132054,-0.322458,-1.499287,0.594983,0.071980,-0.085648,1.222076,0.367251,-0.250977,-0.786165,0.691814,-0.290491,-5.609197,-5.329098,-0.543010,0.036220,-0.120875,0.000000,0.067480,0.080407,-0.000000
0.690000,-3.126043,-0.321719,-1.500156,0.607164,0.075688,-0.088173,1.213934,0.373903,-0.253909,-0.841708,0.636636,-0.295988,-5.493679,-5.704172,-0.560159,0.036869,-0.120043,0.000000,0.062017,0.085875,0.000000
0.700000,-3.119910,-0.320944,-1.501050,0.619261,0.079458,-0.090727,1.205242,0.379984,-0.256897,-0.896039,0.577731,-0.301694,-5.371026,-6.075291,-0.580150,0.037461,-0.119156,0.000000,0.056190,0.091224,0.000000
0.710000,-3.113658,-0.320130,-1.501970,0.631269,0.083287,-0.093311,1.196013,0.385457,-0.259943,-0.949129,0.515130,-0.307591,-5.251040,-6.445997,-0.594238,0.037993,-0.118217,0.000000,0.050001,0.096450,-0.000000
0.720000,-3.107285,-0.319278,-1.502917,0.643182,0.087168,-0.095926,1.186259,0.390286,-0.263049,-1.001059,0.448811,-0.313579,-5.139956,-6.821244,-0.599092,0.038461,-0.117226,0.000000,0.043448,0.101561,0.000000
0.730000,-3.100794,-0.318387,-1.503889,0.654994,0.091093,-0.098572,1.175992,0.394433,-0.266214,-1.051928,0.378705,-0.319572,-5.034110,-7.199549,-0.597849,0.038862,-0.116184,0.000000,0.036526,0.106565,0.000000
0.740000,-3.094185,-0.317456,-1.504888,0.666701,0.095056,-0.101250,1.165221,0.397860,-0.269440,-1.101742,0.304820,-0.325536,-4.924840,-7.573149,-0.594349,0.039191,-0.115093,0.000000,0.029236,0.111463,-0.000000
0.750000,-3.087460,-0.316486,-1.505914,0.678298,0.099050,-0.103960,1.153957,0.400530,-0.272725,-1.150425,0.227243,-0.331459,-4.810929,-7.939127,-0.587343,0.039446,-0.113953,0.000000,0.021586,0.116247,0.000000
0.760000,-3.080619,-0.315475,-1.506967,0.689781,0.103067,-0.106704,1.142212,0.402405,-0.276069,-1.197960,0.146037,-0.337282,-4.697381,-8.301903,-0.574537,0.039623,-0.112766,0.000000,0.013583,0.120914,-0.000000
0.770000,-3.073664,-0.314425,-1.508048,0.701143,0.107098,-0.109482,1.129998,0.403451,-0.279471,-1.244373,0.061204,-0.342950,-4.585484,-8.666663,-0.559431,0.039718,-0.111533,0.000000,0.005228,0.125467,0.000000
0.780000,-3.066596,-0.313333,-1.509157,0.712380,0.111136,-0.112294,1.117325,0.403629,-0.282928,-1.289670,-0.027296,-0.348471,-4.472773,-9.031424,-0.543392,0.039728,-0.110255,0.000000,-0.003483,0.129906,0.000000
0.790000,-3.059417,-0.312202,-1.510294,0.723489,0.115171,-0.115140,1.104204,0.402905,-0.286440,-1.333828,-0.119424,-0.353818,-4.356827,-9.388003,-0.521415,0.039648,-0.108933,0.000000,-0.012546,0.134229,-0.000000
0.800000,-3.052127,-0.311030,-1.511460,0.734465,0.119194,-0.118023,1.090648,0.401241,-0.290005,-1.376806,-0.215056,-0.358899,-4.238033,-9.734016,-0.490372,0.039477,-0.107568,0.000000,-0.021948,0.138431,0.000000
0.810000,-3.044727,-0.309818,-1.512654,0.745302,0.123196,-0.120941,1.076668,0.398604,-0.293618,-1.418589,-0.314104,-0.363625,-4.117035,-10.073951,-0.453962,0.039209,-0.106162,0.000000,-0.031680,0.142510,0.000000
0.820000,-3.037221,-0.308566,-1.513878,0.755998,0.127166,-0.123895,1.062276,0.394959,-0.297277,-1.459147,-0.416535,-0.367979,-3.991064,-10.411184,-0.419871,0.038843,-0.104716,0.000000,-0.041739,0.146463,-0.000000
0.830000,-3.029607,-0.307275,-1.515132,0.766548,0.131095,-0.126886,1.047485,0.390273,-0.300978,-1.498410,-0.522328,-0.372023,-3.858734,-10.743672,-0.387663,0.038375,-0.103231,0.000000,-0.052122,0.150283,-0.000000
0.840000,-3.021890,-0.305944,-1.516416,0.776948,0.134971,-0.129914,1.032308,0.384512,-0.304718,-1.536322,-0.631408,-0.375732,-3.722882,-11.065496,-0.346885,0.037801,-0.101708,0.000000,-0.062822,0.153966,-0.000000
0.850000,-3.014069,-0.304575,-1.517731,0.787194,0.138785,-0.132980,1.016759,0.377645,-0.308492,-1.572868,-0.743638,-0.378960,-3.586300,-11.373426,-0.292229,0.037118,-0.100149,0.000000,-0.073826,0.157508,-0.000000
0.860000,-3.006146,-0.303168,-1.519076,0.797283,0.142524,-0.136084,1.000851,0.369639,-0.312297,-1.608048,-0.858877,-0.381576,-3.445974,-11.670374,-0.230969,0.036324,-0.098556,0.000000,-0.085117,0.160909,-0.000000
0.870000,-2.998123,-0.301725,-1.520452,0.807211,0.146178,-0.139226,0.984598,0.360467,-0.316124,-1.641787,-0.977045,-0.383580,-3.292810,-11.962402,-0.176389,0.035416,-0.096929,0.000000,-0.096690,0.164161,-0.000000
0.880000,-2.990002,-0.300245,-1.521860,0.816975,0.149734,-0.142407,0.968015,0.350099,-0.319968,-1.673904,-1.098125,-0.385104,-3.126468,-12.247844,-0.126899,0.034390,-0.095270,0.000000,-0.108541,0.167248,0.000000
0.890000,-2.981783,-0.298730,-1.523300,0.826571,0.153180,-0.145626,0.951120,0.338505,-0.323826,-1.704316,-1.222002,-0.386118,-2.958363,-12.516782,-0.064252,0.033245,-0.093582,0.000000,-0.120661,0.170163,0.000000
0.900000,-2.973470,-0.297181,-1.524773,0.835997,0.156504,-0.148883,0.933929,0.325658,-0.327691,-1.733071,-1.348461,-0.386389,-2.792684,-12.766712,0.017991,0.031977,-0.091865,0.000000,-0.133027,0.172908,0.000000
0.910000,-2.965063,-0.295600,-1.526278,0.845250,0.159693,-0.152180,0.916458,0.311535,-0.331554,-1.760170,-1.477337,-0.385758,-2.620798,-13.003020,0.107586,0.030585,-0.090122,0.000000,-0.145622,0.175482,0.000000
0.920000,-2.956565,-0.293987,-1.527816,0.854326,0.162735,-0.155514,0.898725,0.296112,-0.335406,-1.785487,-1.608521,-0.384238,-2.431423,-13.228181,0.190051,0.029065,-0.088354,0.000000,-0.158437,0.177873,0.000000
0.930000,-2.947977,-0.292345,-1.529388,0.863224,0.165615,-0.158888,0.880749,0.279365,-0.339239,-1.808799,-1.741900,-0.381957,-2.226207,-13.439272,0.269139,0.027416,-0.086563,0.000000,-0.171460,0.180062,0.000000
0.940000,-2.939301,-0.290675,-1.530994,0.871941,0.168322,-0.162299,0.862549,0.261274,-0.343045,-1.830011,-1.877306,-0.378855,-2.019399,-13.631399,0.364700,0.025636,-0.084751,0.000000,-0.184676,0.182039,0.000000
0.950000,-2.930538,-0.288979,-1.532634,0.880475,0.170841,-0.165749,0.844148,0.241819,-0.346816,-1.849186,-2.014528,-0.374663,-1.815941,-13.803544,0.482185,0.023722,-0.082921,0.000000,-0.198062,0.183808,-0.000000
0.960000,-2.921691,-0.287258,-1.534309,0.888824,0.173158,-0.169235,0.825566,0.220983,-0.350538,-1.866330,-2.153377,-0.369211,-1.605596,-13.957455,0.608829,0.021674,-0.081074,0.000000,-0.211601,0.185369,0.000000
0.970000,-2.912762,-0.285516,-1.536019,0.896987,0.175260,-0.172759,0.806822,0.198751,-0.354200,-1.881298,-2.293677,-0.362486,-1.375339,-14.092591,0.733412,0.019490,-0.079213,0.000000,-0.225275,0.186709,0.000000
0.980000,-2.903751,-0.283753,-1.537764,0.904961,0.177133,-0.176319,0.787940,0.175110,-0.357788,-1.893837,-2.435229,-0.354543,-1.127489,-14.207179,0.860527,0.017169,-0.077339,0.000000,-0.239067,0.187805,-0.000000
0.990000,-2.894662,-0.281973,-1.539545,0.912745,0.178763,-0.179915,0.768945,0.150047,-0.361291,-1.903848,-2.577821,-0.345276,-0.878989,-14.300041,1.005937,0.014709,-0.075456,0.000000,-0.252955,0.188646,0.000000
1.000000,-2.885496,-0.280178,-1.541363,0.920340,0.180134,-0.183545,0.749863,0.123553,-0.364694,-1.911417,-2.721230,-0.334424,-0.635654,-14.370079,1.172902,0.012110,-0.073566,0.000000,-0.266917,0.189240,-0.000000
1.010000,-2.876256,-0.278370,-1.543216,0.927743,0.181234,-0.187209,0.730717,0.095622,-0.367979,-1.916561,-2.865222,-0.321818,-0.385749,-14.416556,1.351926,0.009371,-0.071671,0.000000,-0.280933,0.189589,0.000000
1.020000,-2.866942,-0.276553,-1.545107,0.934954,0.182047,-0.190905,0.711531,0.066249,-0.371130,-1.919132,-3.009561,-0.307386,-0.114810,-14.439400,1.537862,0.006491,-0.069774,0.000000,-0.294980,0.189678,0.000000
1.030000,-2.857556,-0.274729,-1.547034,0.941973,0.182559,-0.194632,0.692334,0.035431,-0.374127,-1.918857,-3.154010,-0.291061,0.173997,-14.437602,1.735098,0.003471,-0.067877,0.000000,-0.309036,0.189483,-0.000000
1.040000,-2.848102,-0.272902,-1.548999,0.948801,0.182755,-0.198387,0.673154,0.003169,-0.376951,-1.915652,-3.298313,-0.272684,0.461391,-14.409115,1.951547,0.000310,-0.065984,0.000000,-0.323078,0.188993,-0.000000
1.050000,-2.838580,-0.271074,-1.551002,0.955436,0.182622,-0.202171,0.654021,-0.030535,-0.379581,-1.909630,-3.442193,-0.252030,0.742145,-14.353422,2.186376,-0.002991,-0.064097,0.000000,-0.337080,0.188221,0.000000
1.060000,-2.828993,-0.269250,-1.553043,0.961881,0.182145,-0.205979,0.634962,-0.065675,-0.381992,-1.900809,-3.585382,-0.228956,1.029124,-14.270329,2.435862,-0.006431,-0.062220,0.000000,-0.351019,0.187169,0.000000
1.070000,-2.819343,-0.267431,-1.555122,0.968136,0.181308,-0.209810,0.616005,-0.102243,-0.384160,-1.889047,-3.727599,-0.203312,1.333897,-14.157504,2.705769,-0.010011,-0.060354,0.000000,-0.364871,0.185824,0.000000
1.080000,-2.809631,-0.265623,-1.557239,0.974201,0.180100,-0.213662,0.597181,-0.140227,-0.386058,-1.874131,-3.868532,-0.174841,1.652242,-14.013552,2.999722,-0.013729,-0.058503,0.000000,-0.378607,0.184165,-0.000000
1.090000,-2.799859,-0.263829,-1.559395,0.980079,0.178504,-0.217532,0.578522,-0.179614,-0.387657,-1.856002,-4.007870,-0.143318,1.968562,-13.839622,3.311014,-0.017583,-0.056670,0.000000,-0.392201,0.182186,0.000000
1.100000,-2.790029,-0.262053,-1.561590,0.985772,0.176507,-0.221415,0.560061,-0.220385,-0.388924,-1.834760,-4.145324,-0.108620,2.279694,-13.636301,3.631687,-0.021573,-0.054859,0.000000,-0.405630,0.179898,0.000000
1.110000,-2.780143,-0.260299,-1.563823,0.991280,0.174096,-0.225310,0.541827,-0.262520,-0.389829,-1.810408,-4.280596,-0.070684,2.595515,-13.401181,3.968247,-0.025696,-0.053071,0.000000,-0.418870,0.177303,0.000000
1.120000,-2.770204,-0.258571,-1.566096,0.996608,0.171257,-0.229212,0.523853,-0.305997,-0.390338,-1.782849,-4.413348,-0.029256,2.921911,-13.129603,4.344465,-0.029950,-0.051311,0.000000,-0.431892,0.174392,0.000000
1.130000,-2.760211,-0.256874,-1.568407,1.001757,0.167976,-0.233117,0.506170,-0.350787,-0.390414,-1.751970,-4.543188,0.016205,3.255079,-12.820868,4.761659,-0.034334,-0.049582,0.000000,-0.444667,0.171153,0.000000
1.140000,-2.750168,-0.255212,-1.570758,1.006731,0.164241,-0.237020,0.488813,-0.396860,-0.390014,-1.717748,-4.669765,0.065978,3.586669,-12.479215,5.188608,-0.038844,-0.047886,0.000000,-0.457168,0.167585,0.000000
1.150000,-2.740077,-0.253589,-1.573148,1.011534,0.160039,-0.240917,0.471815,-0.444182,-0.389095,-1.680237,-4.792773,0.119977,3.915374,-12.105755,5.609368,-0.043477,-0.046228,0.000000,-0.469373,0.163694,0.000000
1.160000,-2.729938,-0.252011,-1.575577,1.016168,0.155358,-0.244802,0.455208,-0.492716,-0.387614,-1.639440,-4.911880,0.178165,4.245871,-11.696078,6.046903,-0.048231,-0.044609,0.000000,-0.481256,0.159483,0.000000
1.170000,-2.719753,-0.250482,-1.578044,1.020638,0.150185,-0.248669,0.439026,-0.542420,-0.385531,-1.595319,-5.026694,0.240915,4.579488,-11.244573,6.542851,-0.053103,-0.043034,0.000000,-0.492792,0.154948,0.000000
1.180000,-2.709525,-0.249007,-1.580550,1.024948,0.144509,-0.252513,0.423302,-0.593250,-0.382796,-1.547851,-5.136772,0.309022,4.913806,-10.751374,7.093599,-0.058087,-0.041506,0.000000,-0.503949,0.150085,0.000000
1.190000,-2.699254,-0.247592,-1.583094,1.029104,0.138320,-0.256325,0.408069,-0.645155,-0.379351,-1.497043,-5.241722,0.382787,5.246121,-10.221979,7.643581,-0.063182,-0.040027,0.000000,-0.514704,0.144895,0.000000
1.200000,-2.688943,-0.246241,-1.585676,1.033110,0.131606,-0.260100,0.393361,-0.698084,-0.375140,-1.442928,-5.341211,0.461894,5.576484,-9.656949,8.169249,-0.068382,-0.038602,0.000000,-0.525034,0.139384,0.000000
1.210000,-2.678592,-0.244960,-1.588296,1.036971,0.124358,-0.263828,0.379211,-0.751980,-0.370113,-1.385514,-5.434861,0.546172,5.905644,-9.051211,8.709271,-0.073683,-0.037233,0.000000,-0.534914,0.133552,0.000000
1.220000,-2.668203,-0.243754,-1.590953,1.040694,0.116566,-0.267502,0.365651,-0.806781,-0.364217,-1.324815,-5.522235,0.636079,6.231433,-8.400974,9.321941,-0.079080,-0.035924,0.000000,-0.544318,0.127402,0.000000
1.230000,-2.657778,-0.242628,-1.593646,1.044284,0.108222,-0.271112,0.352714,-0.862424,-0.357391,-1.260885,-5.602880,0.732611,6.552334,-7.706276,9.998976,-0.084569,-0.034677,0.000000,-0.553222,0.120933,-0.000000
1.240000,-2.647318,-0.241589,-1.596375,1.047748,0.099318,-0.274650,0.340433,-0.918839,-0.349565,-1.193769,-5.676361,0.836059,6.870144,-6.970327,10.661275,-0.090145,-0.033496,0.000000,-0.561605,0.114150,0.000000
1.250000,-2.636823,-0.240642,-1.599139,1.051093,0.089846,-0.278104,0.328839,-0.975952,-0.340670,-1.123482,-5.742287,0.945837,7.187493,-6.197049,11.274530,-0.095802,-0.032384,0.000000,-0.569439,0.107056,-0.000000
1.260000,-2.626296,-0.239792,-1.601937,1.054325,0.079799,-0.281463,0.317964,-1.033685,-0.330648,-1.050019,-5.800302,1.061549,7.501950,-5.382753,11.892370,-0.101534,-0.031345,0.000000,-0.576703,0.099649,-0.000000
1.270000,-2.615737,-0.239046,-1.604768,1.057452,0.069172,-0.284717,0.307839,-1.091958,-0.319439,-0.973443,-5.849942,1.183684,7.804421,-4.513572,12.597944,-0.107337,-0.030381,0.000000,-0.583373,0.091932,0.000000
1.280000,-2.605147,-0.238409,-1.607632,1.060482,0.057960,-0.287852,0.298495,-1.150684,-0.306974,-0.893930,-5.890573,1.313508,8.094663,-3.588581,13.377297,-0.113202,-0.029496,0.000000,-0.589419,0.083915,0.000000
1.290000,-2.594527,-0.237887,-1.610526,1.063422,0.046158,-0.290856,0.289960,-1.209769,-0.293169,-0.811550,-5.921713,1.451230,8.383796,-2.625316,14.115912,-0.119126,-0.028692,0.000000,-0.594816,0.075601,0.000000
1.300000,-2.583878,-0.237486,-1.613449,1.066281,0.033764,-0.293715,0.282264,-1.269118,-0.277950,-0.726254,-5.943080,1.595826,8.672872,-1.630980,14.775473,-0.125099,-0.027973,0.000000,-0.599546,0.066986,0.000000
1.310000,-2.573202,-0.237212,-1.616400,1.069067,0.020776,-0.296415,0.275435,-1.328631,-0.261252,-0.638092,-5.954333,1.746739,8.953547,-0.592309,15.431380,-0.131117,-0.027342,0.000000,-0.603586,0.058068,0.000000
1.320000,-2.562497,-0.237070,-1.619377,1.071790,0.007192,-0.298940,0.269502,-1.388204,-0.243015,-0.547183,-5.954926,1.904454,9.223222,0.510131,16.167967,-0.137172,-0.026802,0.000000,-0.606908,0.048853,0.000000
1.330000,-2.551766,-0.237068,-1.622379,1.074457,-0.006988,-0.301275,0.264491,-1.447729,-0.223163,-0.453628,-5.944130,2.070099,9.483641,1.675779,16.961008,-0.143256,-0.026356,0.000000,-0.609474,0.039339,0.000000
1.340000,-2.541008,-0.237210,-1.625403,1.077079,-0.021763,-0.303404,0.260429,-1.507087,-0.201613,-0.357511,-5.921410,2.243674,9.736772,2.879243,17.693503,-0.149362,-0.026007,0.000000,-0.611253,0.029527,0.000000
1.350000,-2.530224,-0.237503,-1.628447,1.079666,-0.037130,-0.305308,0.257341,-1.566157,-0.178290,-0.258892,-5.886546,2.423969,9.985898,4.098247,18.333328,-0.155482,-0.025759,0.000000,-0.612226,0.019417,0.000000
1.360000,-2.519415,-0.237953,-1.631509,1.082226,-0.053086,-0.306969,0.255251,-1.624818,-0.153133,-0.157793,-5.839445,2.610341,10.228824,5.351891,18.954409,-0.161608,-0.025614,0.000000,-0.612388,0.009001,0.000000
1.370000,-2.508580,-0.238565,-1.634586,1.084771,-0.069626,-0.308370,0.254185,-1.682946,-0.126083,-0.054316,-5.779508,2.803057,10.453599,6.701940,19.621141,-0.167731,-0.025576,0.000000,-0.611701,-0.001725,0.000000
1.380000,-2.497719,-0.239345,-1.637676,1.087310,-0.086745,-0.309491,0.254165,-1.740408,-0.097072,0.051279,-5.705407,3.002763,10.654998,8.153119,20.311326,-0.173843,-0.025649,0.000000,-0.610058,-0.012748,0.000000
1.390000,-2.486833,-0.240300,-1.640776,1.089854,-0.104434,-0.310312,0.255211,-1.797054,-0.066028,0.158784,-5.616445,3.209284,10.849891,9.619259,20.931270,-0.179933,-0.025836,0.000000,-0.607402,-0.024064,-0.000000
1.400000,-2.475922,-0.241434,-1.643882,1.092414,-0.122686,-0.310812,0.257341,-1.852737,-0.032887,0.268277,-5.513021,3.421389,11.076941,11.024602,21.421042,-0.185992,-0.026139,0.000000,-0.603762,-0.035693,0.000000
1.410000,-2.464985,-0.242753,-1.646992,1.095001,-0.141489,-0.310970,0.260576,-1.907315,0.002400,0.380323,-5.395953,3.637704,11.321456,12.431629,21.838955,-0.192010,-0.026563,0.000000,-0.599196,-0.047706,0.000000
1.420000,-2.454022,-0.244264,-1.650102,1.097626,-0.160832,-0.310764,0.264947,-1.960656,0.039867,0.494706,-5.264389,3.858168,11.475150,14.039785,22.329614,-0.197977,-0.027111,0.000000,-0.593622,-0.060101,-0.000000
1.430000,-2.443033,-0.245970,-1.653207,1.100300,-0.180702,-0.310172,0.270470,-2.012603,0.079563,0.609826,-5.115158,4.084297,11.547732,15.832233,22.865263,-0.203883,-0.027789,0.000000,-0.586758,-0.072743,-0.000000
1.440000,-2.432016,-0.247878,-1.656305,1.103035,-0.201084,-0.309172,0.277144,-2.062959,0.121553,0.725661,-4.947744,4.315473,11.685969,17.535481,23.239727,-0.209713,-0.028598,0.000000,-0.578539,-0.085651,-0.000000
1.450000,-2.420972,-0.249992,-1.659391,1.105843,-0.221961,-0.307741,0.284984,-2.111557,0.165873,0.843545,-4.764448,4.549091,11.843942,19.124216,23.468312,-0.215455,-0.029541,0.000000,-0.569128,-0.098975,0.000000
1.460000,-2.409899,-0.252317,-1.662460,1.108735,-0.243315,-0.305855,0.294015,-2.158248,0.212535,0.962540,-4.565260,4.784839,11.928504,20.777793,23.675722,-0.221097,-0.030625,0.000000,-0.558499,-0.112645,0.000000
1.470000,-2.398797,-0.254858,-1.665508,1.111723,-0.265126,-0.303490,0.304234,-2.202863,0.261570,1.082115,-4.348892,5.022606,12.106007,22.505871,23.755496,-0.226626,-0.031851,0.000000,-0.546505,-0.126634,0.000000
1.480000,-2.387665,-0.257619,-1.668530,1.114820,-0.287373,-0.300624,0.315657,-2.245226,0.312987,1.204660,-4.115142,5.259949,12.412208,24.253220,23.648871,-0.232028,-0.033225,0.000000,-0.533037,-0.141206,-0.000000
1.490000,-2.376501,-0.260605,-1.671520,1.118036,-0.310031,-0.297231,0.328328,-2.285166,0.366769,1.330359,-3.863828,5.495583,12.611701,26.010635,23.498858,-0.237287,-0.034755,0.000000,-0.518009,-0.156410,-0.000000
1.500000,-2.365304,-0.263820,-1.674474,1.121386,-0.333076,-0.293288,0.342264,-2.322503,0.422899,1.456894,-3.594930,5.729927,12.705590,27.691065,23.335025,-0.242389,-0.036445,0.000000,-0.501384,-0.172041,0.000000
1.510000,-2.354073,-0.267267,-1.677386,1.124882,-0.356481,-0.288773,0.357466,-2.357064,0.481367,1.584471,-3.310006,5.962284,12.851814,29.298288,23.046898,-0.247316,-0.038300,0.000000,-0.483251,-0.188152,0.000000
1.520000,-2.342806,-0.270950,-1.680250,1.128535,-0.380217,-0.283661,0.373954,-2.388703,0.542145,1.713930,-3.008964,6.190865,12.980036,31.091359,22.576154,-0.252054,-0.040328,0.000000,-0.463494,-0.204857,0.000000
1.530000,-2.331502,-0.274871,-1.683059,1.132361,-0.404255,-0.277930,0.391744,-2.417243,0.605184,1.844072,-2.688179,6.413807,13.030275,33.078189,21.945785,-0.256586,-0.042533,0.000000,-0.441628,-0.222060,0.000000
1.540000,-2.320159,-0.279035,-1.685808,1.136370,-0.428562,-0.271557,0.410835,-2.442466,0.670421,1.974536,-2.347400,6.629780,13.112903,34.887025,21.214618,-0.260886,-0.044921,0.000000,-0.417504,-0.239751,0.000000
1.550000,-2.308775,-0.283443,-1.688491,1.140577,-0.453104,-0.264521,0.431235,-2.464191,0.737780,2.106330,-1.990439,6.838099,13.253815,36.426584,20.423573,-0.264935,-0.047498,0.000000,-0.391392,-0.258068,0.000000
1.560000,-2.297348,-0.288097,-1.691099,1.144995,-0.477846,-0.256802,0.452962,-2.482275,0.807183,2.239612,-1.618869,7.038252,13.374963,37.940345,19.521764,-0.268714,-0.050271,0.000000,-0.363340,-0.277062,-0.000000
1.570000,-2.285875,-0.293000,-1.693627,1.149637,-0.502750,-0.248378,0.476027,-2.496569,0.878545,2.373829,-1.231632,7.228534,13.448705,39.581595,18.369568,-0.272201,-0.053247,0.000000,-0.333078,-0.296702,0.000000
1.580000,-2.274355,-0.298152,-1.696066,1.154516,-0.527777,-0.239231,0.500438,-2.506908,0.951753,2.508586,-0.827237,7.405643,13.521078,41.250448,16.955235,-0.275374,-0.056434,0.000000,-0.300229,-0.316961,-0.000000
1.590000,-2.262785,-0.303555,-1.698411,1.159645,-0.552888,-0.229343,0.526199,-2.513114,1.026658,2.644251,-0.406623,7.567639,13.617972,42.739081,15.461586,-0.278204,-0.059837,0.000000,-0.264687,-0.337897,-0.000000
1.600000,-2.251162,-0.309210,-1.700653,1.165039,-0.578040,-0.218698,0.553323,-2.515040,1.103106,2.780946,0.027545,7.714875,13.595115,44.091465,14.036635,-0.280665,-0.063465,0.000000,-0.226588,-0.359552,0.000000
1.610000,-2.239484,-0.315116,-1.702785,1.170712,-0.603189,-0.207281,0.581818,-2.512563,1.180955,2.916153,0.475206,7.848372,13.447343,45.423243,12.540793,-0.282733,-0.067324,0.000000,-0.185818,-0.381684,0.000000
1.620000,-2.227748,-0.321273,-1.704799,1.176676,-0.628291,-0.195078,0.611646,-2.505536,1.260074,3.049892,0.936010,7.965691,13.586022,46.558312,10.569112,-0.284378,-0.071417,0.000000,-0.142175,-0.404292,0.000000
1.630000,-2.215950,-0.327682,-1.706687,1.182945,-0.653300,-0.182079,0.642816,-2.493842,1.340269,3.187874,1.406373,8.059754,14.028005,47.434801,8.140512,-0.285573,-0.075750,0.000000,-0.095633,-0.427973,0.000000
1.640000,-2.204089,-0.334339,-1.708441,1.189532,-0.678168,-0.168273,0.675404,-2.477409,1.421269,3.330453,1.884706,8.128501,14.200878,48.283427,5.802400,-0.286287,-0.080340,0.000000,-0.046113,-0.452761,-0.000000
1.650000,-2.192160,-0.341245,-1.710052,1.196453,-0.702848,-0.153654,0.709425,-2.456148,1.502839,3.471891,2.372041,8.175802,14.031364,49.136134,3.702040,-0.286490,-0.085192,0.000000,0.006540,-0.478042,0.000000
1.660000,-2.180160,-0.348396,-1.711514,1.203721,-0.727291,-0.138216,0.744842,-2.429968,1.584785,3.611080,2.867429,8.202542,13.901502,49.818486,1.465366,-0.286150,-0.090310,0.000000,0.062369,-0.503678,0.000000
1.670000,-2.168085,-0.355791,-1.712817,1.211350,-0.751447,-0.121958,0.781646,-2.398800,1.666890,3.749921,3.368411,8.205109,13.876619,50.273547,-1.222403,-0.285237,-0.095695,0.000000,0.121397,-0.529826,-0.000000
1.680000,-2.155933,-0.363425,-1.713953,1.219354,-0.775267,-0.104878,0.819840,-2.362600,1.748887,3.888612,3.872899,8.178094,13.804197,50.538800,-4.254558,-0.283716,-0.101355,0.000000,0.183730,-0.556405,0.000000
1.690000,-2.143698,-0.371296,-1.714914,1.227746,-0.798699,-0.086980,0.859418,-2.321342,1.830452,4.026005,4.379187,8.120018,13.618369,50.660515,-7.214757,-0.281555,-0.107289,0.000000,0.249366,-0.583192,0.000000
1.700000,-2.131378,-0.379399,-1.715692,1.236542,-0.821694,-0.068269,0.900360,-2.275016,1.911287,4.160980,4.886110,8.033798,13.419859,50.706636,-9.935273,-0.278721,-0.113498,0.000000,0.318190,-0.610000,-0.000000
1.710000,-2.118967,-0.387730,-1.716279,1.245754,-0.844199,-0.048754,0.942638,-2.223620,1.991128,4.294402,5.393320,7.921313,13.229318,50.628698,-12.691951,-0.275184,-0.119980,0.000000,0.390197,-0.636858,-0.000000
1.720000,-2.106463,-0.396283,-1.716667,1.255395,-0.866166,-0.028447,0.986248,-2.167149,2.069714,4.425566,5.898684,7.779959,12.769515,50.188801,-15.900681,-0.270910,-0.126735,0.000000,0.465282,-0.663531,0.000000
1.730000,-2.093860,-0.405053,-1.716848,1.265479,-0.887542,-0.007360,1.031149,-2.105646,2.146727,4.549793,6.397096,7.603299,12.001755,49.373469,-19.476672,-0.265870,-0.133754,0.000000,0.543035,-0.689189,-0.000000
1.740000,-2.081153,-0.414034,-1.716815,1.276018,-0.908279,0.014488,1.077244,-2.039208,2.221780,4.665601,6.886153,7.390426,11.300497,48.495055,-22.844169,-0.260041,-0.141020,0.000000,0.623114,-0.713412,0.000000
1.750000,-2.068339,-0.423219,-1.716559,1.287023,-0.928326,0.037075,1.124461,-1.967923,2.294536,4.775803,7.366997,7.146416,10.799656,47.671458,-25.875802,-0.253400,-0.148518,0.000000,0.705373,-0.736414,0.000000
1.760000,-2.055413,-0.432601,-1.716073,1.298507,-0.947637,0.060378,1.172760,-1.891868,2.364708,4.881594,7.839582,6.872910,10.230202,46.675828,-28.941017,-0.245927,-0.156233,0.000000,0.789581,-0.758156,0.000000
1.770000,-2.042369,-0.442172,-1.715351,1.310479,-0.966164,0.084370,1.222093,-1.811131,2.431994,4.980407,8.300513,6.567595,9.278581,45.213677,-32.266684,-0.237603,-0.164150,0.000000,0.875122,-0.778026,0.000000
1.780000,-2.029203,-0.451924,-1.714386,1.322949,-0.983860,0.109018,1.272368,-1.725857,2.496060,5.067166,8.743856,6.227576,8.018214,43.327915,-35.707101,-0.228419,-0.172241,0.000000,0.960946,-0.795031,0.000000
1.790000,-2.015910,-0.461849,-1.713171,1.335926,-1.000681,0.134291,1.323437,-1.636254,2.556545,5.140771,9.167072,5.853453,6.855193,41.403889,-38.946146,-0.218380,-0.180471,0.000000,1.046227,-0.808722,0.000000
1.800000,-2.002485,-0.471938,-1.711700,1.349418,-1.016585,0.160149,1.375184,-1.542516,2.613129,5.204270,9.571934,5.448653,5.868001,39.629622,-41.979519,-0.207493,-0.188805,0.000000,1.130567,-0.819267,-0.000000
1.810000,-1.988922,-0.482181,-1.709968,1.363430,-1.031531,0.186553,1.427522,-1.444815,2.665518,5.258131,9.959664,5.013863,4.781764,37.733362,-44.983945,-0.195768,-0.197211,0.000000,1.213508,-0.826461,0.000000
1.820000,-1.975216,-0.492568,-1.707969,1.377968,-1.045481,0.213460,1.480346,-1.343323,2.713406,5.299905,10.326601,4.548974,3.426301,35.226113,-47.886189,-0.183224,-0.205651,0.000000,1.293895,-0.829696,-0.000000
1.830000,-1.961362,-0.503090,-1.705699,1.393037,-1.058398,0.240821,1.533520,-1.238283,2.756498,5.326657,10.664186,4.056139,1.886773,32.169922,-50.580520,-0.169895,-0.214081,0.000000,1.369773,-0.828374,0.000000
1.840000,-1.947355,-0.513736,-1.703152,1.408638,-1.070247,0.268590,1.586879,-1.130039,2.794529,5.337640,10.969999,3.537364,0.381108,29.226522,-53.144830,-0.155835,-0.222454,0.000000,1.439973,-0.822222,-0.000000
1.850000,-1.933190,-0.524495,-1.700327,1.424774,-1.080999,0.296712,1.640273,-1.018883,2.827245,5.334279,11.248717,2.993242,-1.020188,26.589353,-55.699357,-0.141104,-0.230720,0.000000,1.504339,-0.811258,0.000000
1.860000,-1.918860,-0.535356,-1.697218,1.441444,-1.090625,0.325134,1.693565,-0.905065,2.854394,5.317237,11.501786,2.423377,-2.459111,23.813515,-58.147939,-0.125759,-0.238835,0.000000,1.562321,-0.795422,-0.000000
1.870000,-1.904361,-0.546308,-1.693824,1.458645,-1.099100,0.353800,1.746618,-0.788848,2.875713,5.285097,11.724987,1.830284,-4.113683,20.475866,-60.118849,-0.109871,-0.246749,0.000000,1.612568,-0.774517,0.000000
1.880000,-1.889687,-0.557338,-1.690142,1.476376,-1.106402,0.382649,1.799267,-0.670565,2.890999,5.234963,11.911304,1.221000,-5.937154,16.724059,-61.588222,-0.093523,-0.254412,0.000000,1.653357,-0.748382,0.000000
1.890000,-1.874833,-0.568436,-1.686171,1.494631,-1.112511,0.411620,1.851317,-0.550622,2.900133,5.166354,12.059468,0.598519,-7.683067,13.126766,-63.027193,-0.076820,-0.261776,0.000000,1.683985,-0.717133,-0.000000
1.900000,-1.859794,-0.579588,-1.681910,1.513402,-1.117414,0.440651,1.902594,-0.429375,2.902970,5.081302,12.173839,-0.039544,-9.303089,9.772845,-64.623353,-0.059861,-0.268792,0.000000,1.704725,-0.681099,0.000000
1.910000,-1.844565,-0.590784,-1.677358,1.532683,-1.121099,0.469679,1.952943,-0.307145,2.899342,4.980292,12.254925,-0.693948,-10.952798,6.302069,-66.021702,-0.042744,-0.275417,0.000000,1.715409,-0.640506,-0.000000
1.920000,-1.829141,-0.602010,-1.672516,1.552461,-1.123557,0.498638,2.002200,-0.184277,2.889091,4.862246,12.299880,-1.359978,-12.710933,2.573006,-66.722513,-0.025572,-0.281609,0.000000,1.715513,-0.595635,-0.000000
1.930000,-1.813516,-0.613255,-1.667385,1.572727,-1.124784,0.527461,2.050188,-0.061147,2.872142,4.726073,12.306385,-2.028398,-14.513135,-1.272910,-66.793469,-0.008452,-0.287330,0.000000,1.704799,-0.547015,0.000000
1.940000,-1.797686,-0.624506,-1.661967,1.593465,-1.124780,0.556081,2.096721,0.061851,2.848523,4.571983,12.274422,-2.695847,-16.247201,-5.036527,-66.873311,0.008507,-0.292547,0.000000,1.683593,-0.495179,0.000000
1.950000,-1.781647,-0.635751,-1.656264,1.614661,-1.123547,0.584432,2.141628,0.184341,2.818225,4.401129,12.205655,-3.365864,-17.919396,-8.699148,-67.175854,0.025204,-0.297233,0.000000,1.652579,-0.440530,0.000000
1.960000,-1.765393,-0.646977,-1.650278,1.636298,-1.121093,0.612446,2.184744,0.305964,2.781206,4.213595,12.100439,-4.039364,-19.587707,-12.361900,-67.246787,0.041544,-0.301361,0.000000,1.612335,-0.383439,0.000000
1.970000,-1.748921,-0.658173,-1.644015,1.658356,-1.117428,0.640056,2.225899,0.426350,2.737438,4.009375,11.958417,-4.710800,-21.199231,-16.021851,-66.538285,0.057438,-0.304909,0.000000,1.563476,-0.324531,0.000000
1.980000,-1.732226,-0.669325,-1.637477,1.680816,-1.112566,0.667194,2.264931,0.545132,2.686990,3.789610,11.780002,-5.370130,-22.714008,-19.611124,-65.161099,0.072804,-0.307864,0.000000,1.506882,-0.264756,-0.000000
1.990000,-1.715304,-0.680424,-1.630671,1.703655,-1.106525,0.693795,2.301692,0.661950,2.630035,3.555095,11.566194,-6.014022,-24.191699,-23.103794,-63.829790,0.087569,-0.310221,0.000000,1.443557,-0.204720,0.000000
2.000000,-1.698153,-0.691456,-1.623601,1.726849,-1.099327,0.719795,2.336033,0.776456,2.566709,3.305776,11.317926,-6.646726,-25.678731,-26.551664,-62.769868,0.101670,-0.311978,0.000000,1.374406,-0.144577,0.000000
2.010000,-1.680767,-0.702410,-1.616275,1.750375,-1.090996,0.745130,2.367807,0.888309,2.497101,3.041520,11.035161,-7.269419,-27.115827,-29.935078,-61.491079,0.115054,-0.313133,0.000000,1.300195,-0.084565,0.000000
2.020000,-1.663145,-0.713276,-1.608699,1.774206,-1.081561,0.769737,2.396864,0.997159,2.421321,2.763460,10.719225,-7.876548,-28.359897,-33.047554,-59.445835,0.127674,-0.313686,0.000000,1.221922,-0.025304,-0.000000
2.030000,-1.645283,-0.724042,-1.600880,1.798313,-1.071053,0.793556,2.423076,1.102693,2.339570,2.474322,10.374210,-8.458336,-29.406471,-35.847302,-56.779650,0.139495,-0.313649,0.000000,1.140972,0.032287,-0.000000
2.040000,-1.627179,-0.734697,-1.592828,1.822667,-1.059507,0.816528,2.446350,1.204643,2.252154,2.175330,10.002279,-9.012140,-30.432311,-38.582307,-54.220713,0.150497,-0.313041,0.000000,1.058314,0.087832,-0.000000
2.050000,-1.608830,-0.745232,-1.584550,1.847240,-1.046960,0.838599,2.466583,1.302739,2.159327,1.865676,9.602564,-9.542750,-31.517220,-41.395235,-51.922878,0.160666,-0.311879,0.000000,0.974335,0.141526,0.000000
2.060000,-1.590234,-0.755636,-1.576056,1.871999,-1.033452,0.859715,2.483664,1.396695,2.061299,1.544986,9.174374,-10.050598,-32.524962,-44.080588,-49.408092,0.169991,-0.310180,0.000000,0.889438,0.193373,0.000000
2.070000,-1.571390,-0.765901,-1.567355,1.896913,-1.019026,0.879825,2.497483,1.486226,1.958315,1.215177,8.720952,-10.530912,-33.232564,-46.222642,-46.364823,0.178463,-0.307962,0.000000,0.804510,0.242956,0.000000
2.080000,-1.552296,-0.776017,-1.558459,1.921948,-1.003728,0.898881,2.507967,1.571114,1.850681,0.880335,8.249921,-10.977894,-33.662620,-47.839245,-42.963549,0.186090,-0.305250,0.000000,0.720860,0.289644,-0.000000
2.090000,-1.532951,-0.785975,-1.549378,1.947072,-0.987604,0.916839,2.515089,1.651225,1.738757,0.541925,7.764167,-11.390183,-34.100940,-49.459871,-39.622849,0.192890,-0.302075,0.000000,0.639056,0.333328,-0.000000
2.100000,-1.513355,-0.795769,-1.540122,1.972250,-0.970703,0.933656,2.518806,1.726397,1.622877,0.198316,7.260724,-11.770351,-34.637790,-51.270407,-36.396937,0.198880,-0.298464,0.000000,0.558865,0.374403,0.000000
2.110000,-1.493506,-0.805389,-1.530705,1.997448,-0.953076,0.949296,2.519056,1.796439,1.503350,-0.150831,6.738759,-12.118122,-35.069192,-52.884571,-33.033936,0.204077,-0.294443,0.000000,0.480315,0.413023,0.000000
2.120000,-1.473406,-0.814830,-1.521136,2.022631,-0.934774,0.963723,2.515789,1.861172,1.380515,-0.503068,6.203032,-12.431030,-35.167159,-53.819250,-29.463665,0.208497,-0.290035,0.000000,0.404026,0.448991,-0.000000
2.130000,-1.453053,-0.824085,-1.511430,2.047764,-0.915853,0.976907,2.508994,1.920500,1.254730,-0.854174,5.662374,-12.707395,-34.984077,-54.163776,-25.802108,0.212167,-0.285270,0.000000,0.330946,0.481983,-0.000000
2.140000,-1.432450,-0.833147,-1.501598,2.072811,-0.896364,0.988818,2.498706,1.974420,1.126367,-1.202749,5.119757,-12.947072,-34.813918,-54.538853,-22.162511,0.215125,-0.280180,0.000000,0.261289,0.512054,-0.000000
2.150000,-1.411597,-0.842012,-1.491654,2.097738,-0.876364,0.999434,2.484939,2.022895,0.995788,-1.550453,4.571597,-13.150645,-34.734694,-55.121676,-18.507525,0.217402,-0.274792,0.000000,0.194555,0.539600,0.000000
2.160000,-1.390495,-0.850675,-1.481610,2.122510,-0.855907,1.008734,2.467696,2.065852,0.863354,-1.897443,4.017323,-13.317223,-34.544835,-55.479904,-14.799375,0.219025,-0.269132,0.000000,0.130586,0.564807,0.000000
2.170000,-1.369147,-0.859130,-1.471479,2.147092,-0.835047,1.016701,2.446990,2.103241,0.729444,-2.241349,3.461999,-13.446633,-34.056892,-55.177012,-11.203320,0.220022,-0.263223,0.000000,0.069749,0.587631,-0.000000
2.180000,-1.347554,-0.867376,-1.461276,2.171450,-0.813842,1.023323,2.422869,2.135092,0.594421,-2.578581,2.913783,-13.541289,-33.331348,-54.335335,-7.777424,0.220427,-0.257092,0.000000,0.012615,0.607982,0.000000
2.190000,-1.325718,-0.875407,-1.451013,2.195549,-0.792345,1.028589,2.395419,2.161517,0.458618,-2.907976,2.375292,-13.602181,-32.613578,-53.522592,-4.328561,0.220281,-0.250765,0.000000,-0.040800,0.625972,0.000000
2.200000,-1.303643,-0.883222,-1.440704,2.219358,-0.770611,1.032495,2.364710,2.182598,0.322378,-3.230853,1.843331,-13.627860,-31.957993,-52.873998,-0.743312,0.219618,-0.244265,0.000000,-0.090982,0.641887,0.000000
2.210000,-1.281331,-0.890819,-1.430363,2.242844,-0.748693,1.035037,2.330802,2.198384,0.186061,-3.547136,1.317812,-13.617048,-31.203038,-52.009029,2.809005,0.218467,-0.237613,0.000000,-0.138111,0.655873,-0.000000
2.220000,-1.258786,-0.898196,-1.420003,2.265974,-0.726644,1.036216,2.293767,2.208954,0.050037,-3.854913,0.803151,-13.571680,-30.230081,-50.619403,5.987814,0.216860,-0.230829,0.000000,-0.182012,0.667975,-0.000000
2.230000,-1.236011,-0.905352,-1.409638,2.288719,-0.704514,1.036038,2.253704,2.214447,-0.085373,-4.151738,0.305424,-13.497291,-29.095681,-48.829201,8.800756,0.214831,-0.223933,0.000000,-0.222439,0.678251,0.000000
2.240000,-1.213011,-0.912287,-1.399282,2.311048,-0.682355,1.034509,2.210732,2.215062,-0.219909,-4.436827,-0.173433,-13.395665,-27.959145,-47.046933,11.672109,0.212415,-0.216945,0.000000,-0.259460,0.686813,-0.000000
2.250000,-1.189790,-0.918999,-1.388948,2.332934,-0.660213,1.031639,2.164967,2.210978,-0.353286,-4.710921,-0.635515,-13.263849,-26.841492,-45.350462,14.762030,0.209645,-0.209881,0.000000,-0.293408,0.693810,-0.000000
2.260000,-1.166353,-0.925491,-1.378650,2.354348,-0.638135,1.027443,2.116514,2.202352,-0.485186,-4.973657,-1.080443,-13.100425,-25.645083,-43.479831,17.752206,0.206550,-0.202758,0.000000,-0.324407,0.699320,0.000000
2.270000,-1.142703,-0.931762,-1.368399,2.375264,-0.616166,1.021936,2.065494,2.189369,-0.615295,-5.223822,-1.505111,-12.908805,-24.341632,-41.283469,20.206594,0.203159,-0.195590,0.000000,-0.352425,0.703430,-0.000000
2.280000,-1.118847,-0.937814,-1.358211,2.395658,-0.594348,1.015137,2.012038,2.172250,-0.743362,-5.460490,-1.906112,-12.696293,-22.971707,-38.863536,22.190673,0.199503,-0.188393,0.000000,-0.377461,0.706299,0.000000
2.290000,-1.094790,-0.943649,-1.348097,2.415505,-0.572721,1.007069,1.956284,2.151247,-0.869221,-5.683257,-2.282382,-12.464992,-21.579172,-36.431104,24.259136,0.195611,-0.181177,0.000000,-0.399614,0.708012,0.000000
2.300000,-1.070537,-0.949269,-1.338069,2.434783,-0.551323,0.997753,1.898372,2.126602,-0.992662,-5.892073,-2.634734,-12.211110,-20.171037,-33.989918,26.568193,0.191512,-0.173956,0.000000,-0.419037,0.708586,-0.000000
2.310000,-1.046095,-0.954675,-1.328142,2.453472,-0.530189,0.987215,1.838443,2.098552,-1.113443,-6.086677,-2.962180,-11.933628,-18.729264,-31.422819,28.724914,0.187231,-0.166740,0.000000,-0.435767,0.708071,0.000000
2.320000,-1.021468,-0.959872,-1.318325,2.471552,-0.509352,0.975484,1.776639,2.067359,-1.231335,-6.266658,-3.263190,-11.636612,-17.252318,-28.775815,30.336524,0.182797,-0.159540,0.000000,-0.449870,0.706571,0.000000
2.330000,-0.996664,-0.964863,-1.308632,2.489005,-0.488842,0.962589,1.713109,2.033288,-1.346175,-6.431724,-3.537697,-11.326897,-15.757867,-26.116347,31.516600,0.178234,-0.152367,0.000000,-0.461562,0.704216,-0.000000
2.340000,-0.971688,-0.969649,-1.299073,2.505814,-0.468686,0.948560,1.648004,1.996605,-1.457873,-6.581816,-3.785517,-11.006280,-14.260379,-23.398444,32.765276,0.173565,-0.145227,0.000000,-0.470950,0.701065,-0.000000
2.350000,-0.946547,-0.974236,-1.289661,2.521965,-0.448910,0.933431,1.581473,1.957578,-1.566301,-6.716931,-4.005665,-10.671592,-12.743795,-20.567549,34.148559,0.168814,-0.138129,0.000000,-0.477991,0.697117,-0.000000
2.360000,-0.921249,-0.978627,-1.280405,2.537444,-0.429534,0.917234,1.513666,1.916491,-1.671304,-6.836692,-4.196868,-10.323309,-11.211262,-17.682715,35.328935,0.164004,-0.131081,0.000000,-0.482672,0.692388,-0.000000
2.370000,-0.895798,-0.982827,-1.271316,2.552238,-0.410580,0.900005,1.444739,1.873641,-1.772767,-6.941157,-4.359320,-9.965013,-9.734477,-14.919357,36.171717,0.159160,-0.124091,0.000000,-0.485137,0.686958,0.000000
2.380000,-0.870204,-0.986839,-1.262405,2.566339,-0.392062,0.881779,1.374843,1.829305,-1.870605,-7.031381,-4.495256,-9.599874,-8.353349,-12.259507,36.760338,0.154300,-0.117164,0.000000,-0.485674,0.680971,-0.000000
2.390000,-0.844472,-0.990668,-1.253680,2.579735,-0.373994,0.862593,1.304112,1.783736,-1.964764,-7.108223,-4.604510,-9.229806,-6.975466,-9.499676,37.262539,0.149445,-0.110305,0.000000,-0.484341,0.674529,-0.000000
2.400000,-0.818609,-0.994319,-1.245153,2.592421,-0.356387,0.842484,1.232678,1.737215,-2.055201,-7.170890,-4.685249,-8.854623,-5.375086,-6.777437,37.915755,0.144612,-0.103519,0.000000,-0.481029,0.667570,0.000000
2.410000,-0.792623,-0.997796,-1.236831,2.604389,-0.339249,0.821489,1.160694,1.690031,-2.141857,-7.215725,-4.740059,-8.471491,-3.641512,-4.237757,38.597878,0.139823,-0.096811,0.000000,-0.475962,0.659781,-0.000000
2.420000,-0.766521,-1.001104,-1.228723,2.615635,-0.322586,0.799647,1.088364,1.642414,-2.224631,-7.243721,-4.770004,-8.082666,-2.420776,-1.490104,38.628715,0.135091,-0.090191,0.000000,-0.469283,0.651281,-0.000000
2.430000,-0.740311,-1.004248,-1.220838,2.626156,-0.306401,0.776996,1.015819,1.594630,-2.303510,-7.264141,-4.769861,-7.698917,-1.643381,1.442326,38.059425,0.130435,-0.083663,0.000000,-0.460699,0.642902,-0.000000
2.440000,-0.713998,-1.007232,-1.213183,2.635951,-0.290694,0.753576,0.943081,1.547016,-2.378609,-7.276588,-4.741158,-7.321477,-0.448823,3.997958,37.826926,0.125876,-0.077220,0.000000,-0.450362,0.634586,-0.000000
2.450000,-0.687591,-1.010061,-1.205766,2.645018,-0.275461,0.729424,0.870288,1.499807,-2.449940,-7.273117,-4.689902,-6.942378,0.761945,6.633848,37.842624,0.121427,-0.070867,0.000000,-0.438686,0.625623,-0.000000
2.460000,-0.661098,-1.012741,-1.198595,2.653357,-0.260698,0.704578,0.797619,1.453218,-2.517457,-7.261349,-4.608481,-6.564625,1.446184,9.667131,37.506131,0.117100,-0.064613,0.000000,-0.425095,0.616643,0.000000
2.470000,-0.634524,-1.015275,-1.191675,2.660970,-0.246396,0.679075,0.725061,1.407638,-2.581232,-7.244194,-4.496559,-6.192256,2.941619,11.585479,37.308897,0.112923,-0.058447,0.000000,-0.409607,0.607873,-0.000000
2.480000,-0.607878,-1.017669,-1.185013,2.667858,-0.232545,0.652953,0.652735,1.363287,-2.641302,-7.202517,-4.376771,-5.818447,5.408498,12.252612,37.521979,0.108907,-0.052375,0.000000,-0.393967,0.597737,-0.000000
2.490000,-0.581167,-1.019926,-1.178616,2.674025,-0.219131,0.626249,0.581010,1.320102,-2.697601,-7.136024,-4.251507,-5.441816,6.965987,13.752648,37.431887,0.105042,-0.046419,0.000000,-0.378326,0.586224,0.000000
2.500000,-0.554398,-1.022052,-1.172488,2.679478,-0.206143,0.599001,0.510014,1.278257,-2.750138,-7.063197,-4.101718,-5.069809,7.962235,15.983924,36.750669,0.101339,-0.040583,0.000000,-0.361222,0.574824,0.000000
2.510000,-0.527578,-1.024049,-1.166636,2.684225,-0.193566,0.571246,0.439746,1.238068,-2.798997,-6.976779,-3.931828,-4.706803,9.619021,17.553913,36.000470,0.097816,-0.034861,0.000000,-0.343029,0.562944,-0.000000
2.520000,-0.500713,-1.025923,-1.161063,2.688273,-0.181381,0.543021,0.370479,1.199620,-2.844274,-6.870817,-3.750640,-4.349800,10.398213,19.271466,35.794712,0.094477,-0.029269,0.000000,-0.324393,0.550090,-0.000000
2.530000,-0.473812,-1.027677,-1.155775,2.691635,-0.169573,0.514361,0.302330,1.163055,-2.885993,-6.768815,-3.546399,-3.990909,9.810188,21.670651,35.918464,0.091327,-0.023809,0.000000,-0.304311,0.538073,-0.000000
2.540000,-0.446881,-1.029314,-1.150776,2.694320,-0.158120,0.485301,0.235102,1.128692,-2.924092,-6.674613,-3.317227,-3.631431,10.069766,23.508792,35.599300,0.088389,-0.018460,0.000000,-0.282642,0.527172,-0.000000
2.550000,-0.419926,-1.030839,-1.146069,2.696337,-0.146999,0.455879,0.168838,1.096711,-2.958622,-6.567419,-3.076223,-3.278923,11.398323,24.504041,35.229343,0.085673,-0.013222,0.000000,-0.260445,0.515747,0.000000
2.560000,-0.392954,-1.032254,-1.141658,2.697696,-0.136186,0.426129,0.103754,1.067168,-2.989671,-6.446647,-2.827146,-2.926844,12.283567,25.520830,35.292262,0.083180,-0.008106,0.000000,-0.237938,0.503730,0.000000
2.570000,-0.365972,-1.033563,-1.137547,2.698412,-0.125656,0.396085,0.039905,1.040168,-3.017159,-6.321748,-2.565806,-2.573077,12.764245,26.886461,34.560715,0.080914,-0.003111,0.000000,-0.214758,0.491846,0.000000
2.580000,-0.338986,-1.034768,-1.133737,2.698495,-0.115383,0.365786,-0.022681,1.015852,-3.041132,-6.191362,-2.289417,-2.235629,13.443038,28.241931,32.868758,0.078883,0.001765,0.000000,-0.190775,0.479970,0.000000
2.590000,-0.312002,-1.035871,-1.130231,2.697958,-0.105339,0.335263,-0.083922,0.994379,-3.061871,-6.052887,-2.000968,-1.915702,14.125652,29.215825,31.951419,0.077097,0.006520,0.000000,-0.166191,0.467857,0.000000
2.600000,-0.285027,-1.036874,-1.127031,2.696816,-0.095495,0.304548,-0.143739,0.975832,-3.079446,-5.908849,-1.705100,-1.596601,14.274082,30.235039,31.685837,0.075559,0.011151,0.000000,-0.141232,0.455683,0.000000
2.610000,-0.258066,-1.037781,-1.124140,2.695083,-0.085822,0.273674,-0.202099,0.960277,-3.093803,-5.767406,-1.396267,-1.281985,14.086548,31.491847,30.932904,0.074272,0.015661,0.000000,-0.115465,0.444061,0.000000
2.620000,-0.231125,-1.038591,-1.121558,2.692774,-0.076290,0.242672,-0.259087,0.947907,-3.105086,-5.627118,-1.075263,-0.977943,14.879314,31.763600,30.546025,0.073249,0.020058,0.000000,-0.088956,0.432844,0.000000
2.630000,-0.204210,-1.039306,-1.119287,2.689902,-0.066864,0.211572,-0.314642,0.938772,-3.113362,-5.469819,-0.760995,-0.671065,16.561074,30.971223,31.003062,0.072493,0.024342,0.000000,-0.063052,0.420629,0.000000
2.640000,-0.177327,-1.039928,-1.117327,2.686481,-0.057514,0.180405,-0.368483,0.932687,-3.118507,-5.295896,-0.455839,-0.357882,17.354925,30.798281,31.040424,0.071988,0.028494,0.000000,-0.037883,0.407450,-0.000000
2.650000,-0.150481,-1.040457,-1.115678,2.682532,-0.048210,0.149202,-0.420560,0.929655,-3.120520,-5.122721,-0.145029,-0.050256,17.613031,31.129766,30.261118,0.071735,0.032513,0.000000,-0.012350,0.394610,0.000000
2.660000,-0.123676,-1.040892,-1.114343,2.678070,-0.038921,0.117994,-0.470938,0.929787,-3.119512,-4.943636,0.166756,0.247341,18.485284,30.848471,29.566232,0.071741,0.036407,0.000000,0.013194,0.381558,0.000000
2.670000,-0.096919,-1.041235,-1.113319,2.673113,-0.029615,0.086812,-0.519432,0.932990,-3.115573,-4.753015,0.471940,0.541068,18.560511,30.700517,29.679287,0.071999,0.040165,0.000000,0.038234,0.367853,0.000000
2.680000,-0.070214,-1.041485,-1.112606,2.667681,-0.020261,0.055683,-0.565998,0.939225,-3.108691,-4.572425,0.780767,0.840926,17.410570,31.088360,30.286435,0.072506,0.043784,0.000000,0.063638,0.355171,0.000000
2.690000,-0.043565,-1.041640,-1.112205,2.661793,-0.010830,0.024638,-0.610881,0.948606,-3.098754,-4.404804,1.093707,1.146797,17.065991,30.894763,30.480247,0.073272,0.047288,0.000000,0.089473,0.343734,-0.000000
2.700000,-0.016978,-1.041701,-1.112114,2.655464,-0.001289,-0.006292,-0.654094,0.961100,-3.085755,-4.231106,1.398662,1.450531,17.522993,30.122529,30.394408,0.074296,0.050678,0.000000,0.114799,0.332031,0.000000
2.710000,0.009544,-1.041666,-1.112331,2.648711,0.008392,-0.037077,-0.695503,0.976579,-3.069744,-4.054344,1.696158,1.754685,17.413310,29.531275,30.610750,0.075568,0.053947,0.000000,0.139701,0.320288,0.000000
2.720000,0.035996,-1.041533,-1.112855,2.641554,0.018242,-0.067687,-0.735181,0.995023,-3.050661,-3.882839,1.989287,2.062746,17.373135,28.706190,30.649880,0.077090,0.057103,0.000000,0.164467,0.309151,-0.000000
2.730000,0.062375,-1.041301,-1.113685,2.634008,0.028292,-0.098090,-0.773160,1.016365,-3.028489,-3.706881,2.270282,2.367683,17.903779,27.366372,30.303030,0.078858,0.060149,0.000000,0.188489,0.297826,0.000000
2.740000,0.088676,-1.040967,-1.114817,2.626091,0.038570,-0.128257,-0.809319,1.040428,-3.003308,-3.524764,2.536615,2.668807,18.014023,26.152199,30.267782,0.080861,0.063079,0.000000,0.211593,0.286158,0.000000
2.750000,0.114897,-1.040530,-1.116250,2.617821,0.049101,-0.158157,-0.843655,1.067097,-2.975113,-3.346601,2.793326,2.973038,17.609956,25.143577,30.496442,0.083091,0.065892,0.000000,0.234234,0.274949,0.000000
2.760000,0.141033,-1.039985,-1.117980,2.609218,0.059912,-0.187759,-0.876251,1.096295,-2.943847,-3.172565,3.039486,3.278736,17.378951,23.900390,30.514612,0.085547,0.068597,0.000000,0.256357,0.264195,0.000000
2.770000,0.167081,-1.039332,-1.120005,2.600296,0.071027,-0.217033,-0.907106,1.127887,-2.909538,-2.999022,3.271333,3.583331,17.182591,22.447691,30.687926,0.088219,0.071195,0.000000,0.277678,0.253587,0.000000
2.780000,0.193039,-1.038565,-1.122321,2.591075,0.082469,-0.245950,-0.936231,1.161722,-2.872180,-2.828913,3.488440,3.892494,16.772171,20.938287,31.195133,0.091101,0.073689,0.000000,0.298222,0.243375,0.000000
2.790000,0.218903,-1.037682,-1.124924,2.581572,0.094261,-0.274477,-0.963685,1.197656,-2.831688,-2.663578,3.690099,4.207233,16.402350,19.305355,31.481077,0.094185,0.076084,0.000000,0.317966,0.233664,-0.000000
2.800000,0.244670,-1.036680,-1.127810,2.571802,0.106422,-0.302584,-0.989503,1.235524,-2.788036,-2.500866,3.874547,4.522116,16.140076,17.574307,31.451163,0.097462,0.078383,0.000000,0.336753,0.224247,0.000000
2.810000,0.270339,-1.035554,-1.130975,2.561782,0.118972,-0.330238,-1.013702,1.275146,-2.741246,-2.340777,4.041585,4.836256,15.803551,15.797494,31.480991,0.100921,0.080590,0.000000,0.354577,0.215108,-0.000000
2.820000,0.295906,-1.034300,-1.134415,2.551528,0.131925,-0.357408,-1.036318,1.316355,-2.691311,-2.184795,4.190497,5.151736,15.354382,13.835690,31.634681,0.104555,0.082708,0.000000,0.371408,0.206368,0.000000
2.830000,0.321369,-1.032915,-1.138124,2.541055,0.145299,-0.384064,-1.057398,1.358956,-2.638211,-2.033689,4.318299,5.468950,14.854910,11.663506,31.772379,0.108351,0.084740,0.000000,0.387026,0.198085,0.000000
2.840000,0.346727,-1.031394,-1.142096,2.530380,0.159105,-0.410173,-1.076992,1.402721,-2.581932,-1.887697,4.423767,5.787183,14.343865,9.488236,31.825808,0.112297,0.086693,0.000000,0.401332,0.190269,0.000000
2.850000,0.371977,-1.029733,-1.146327,2.519515,0.173353,-0.435703,-1.095152,1.447432,-2.522467,-1.746812,4.508064,6.105466,13.830753,7.382991,31.812199,0.116379,0.088570,0.000000,0.414413,0.182909,-0.000000
2.860000,0.397117,-1.027927,-1.150810,2.508477,0.188053,-0.460622,-1.111928,1.492882,-2.459822,-1.611082,4.571427,6.423427,13.292895,5.210796,31.759839,0.120587,0.090376,0.000000,0.426285,0.176003,0.000000
2.870000,0.422146,-1.025972,-1.155540,2.497277,0.203211,-0.484899,-1.127373,1.538860,-2.393999,-1.480954,4.612280,6.740663,12.690751,2.831228,31.630368,0.124906,0.092116,0.000000,0.436812,0.169583,-0.000000
2.880000,0.447063,-1.023863,-1.160508,2.485929,0.218830,-0.508502,-1.141547,1.585128,-2.325009,-1.357266,4.628052,7.056035,12.031384,0.288121,31.398128,0.129324,0.093795,0.000000,0.445764,0.163706,0.000000
2.890000,0.471865,-1.021595,-1.165710,2.474446,0.234913,-0.531399,-1.154519,1.631421,-2.252878,-1.240326,4.618042,7.368626,11.371618,-2.222045,31.102955,0.133823,0.095418,0.000000,0.453056,0.158392,0.000000
2.900000,0.496552,-1.019165,-1.171136,2.462839,0.251459,-0.553560,-1.166354,1.677489,-2.177637,-1.129834,4.583611,7.678094,10.728402,-4.631585,30.780361,0.138387,0.096991,0.000000,0.458771,0.153617,0.000000
2.910000,0.521122,-1.016566,-1.176781,2.451119,0.268463,-0.574952,-1.177115,1.723094,-2.099316,-1.025758,4.525410,7.984233,10.066033,-7.063967,30.387953,0.143000,0.098520,0.000000,0.462931,0.149380,0.000000
2.920000,0.545574,-1.013795,-1.182635,2.439297,0.285921,-0.595546,-1.186869,1.767997,-2.017952,-0.928513,4.442332,8.285853,9.352398,-9.664526,29.810222,0.147647,0.100010,0.000000,0.465399,0.145710,0.000000
2.930000,0.569908,-1.010848,-1.188692,2.427381,0.303823,-0.615311,-1.195686,1.811940,-1.933599,-0.838710,4.332120,8.580437,8.600718,-12.388607,29.038846,0.152309,0.101466,0.000000,0.465915,0.142643,0.000000
2.940000,0.594122,-1.007719,-1.194942,2.415383,0.322159,-0.634218,-1.203643,1.854639,-1.846343,-0.756499,4.194559,8.866630,7.857648,-15.026915,28.217081,0.156966,0.102896,0.000000,0.464387,0.140189,0.000000
2.950000,0.618215,-1.004405,-1.201376,2.403309,0.340916,-0.652238,-1.210816,1.895831,-1.756267,-0.681557,4.031582,9.144779,7.136440,-17.528149,27.427187,0.161598,0.104305,0.000000,0.460919,0.138333,0.000000
2.960000,0.642188,-1.000901,-1.207986,2.391166,0.360076,-0.669343,-1.217274,1.935271,-1.663448,-0.613770,3.843996,9.415173,6.409647,-20.018981,26.556930,0.166186,0.105699,0.000000,0.455517,0.137077,-0.000000
2.970000,0.666039,-0.997203,-1.214763,2.378963,0.379621,-0.685507,-1.223091,1.972711,-1.567963,-0.553364,3.631202,9.675917,5.653728,-22.583942,25.374704,0.170709,0.107085,0.000000,0.448035,0.136438,0.000000
2.980000,0.689767,-0.993308,-1.221696,2.366705,0.399530,-0.700702,-1.228341,2.007895,-1.469929,-0.500696,3.392318,9.922667,4.880962,-25.167498,23.891961,0.175147,0.108469,0.000000,0.438246,0.136419,0.000000
2.990000,0.713373,-0.989213,-1.228777,2.354396,0.419779,-0.714905,-1.233105,2.040558,-1.369510,-0.455745,3.127852,10.153757,4.127876,-27.640827,22.411830,0.179474,0.109856,0.000000,0.426067,0.137015,-0.000000
3.000000,0.736855,-0.984913,-1.235995,2.342043,0.440341,-0.728093,-1.237456,2.070452,-1.266854,-0.418138,2.839501,10.370904,3.400429,-29.992957,21.055695,0.183668,0.111254,0.000000,0.411564,0.138225,0.000000
3.010000,0.760213,-0.980406,-1.243339,2.329647,0.461188,-0.740243,-1.241468,2.097348,-1.162092,-0.387736,2.527993,10.574871,2.679252,-32.290326,19.607217,0.187705,0.112669,0.000000,0.394702,0.140061,0.000000
3.020000,0.783448,-0.975689,-1.250799,2.317213,0.482288,-0.751335,-1.245211,2.121012,-1.055357,-0.364553,2.193695,10.763048,1.962422,-34.513364,17.759375,0.191561,0.114106,0.000000,0.375354,0.142514,0.000000
3.030000,0.806558,-0.970760,-1.258366,2.304743,0.503609,-0.761350,-1.248759,2.141222,-0.946831,-0.348488,1.837726,10.930058,1.262787,-36.616905,15.561121,0.195211,0.115573,0.000000,0.353394,0.145539,0.000000
3.040000,0.829543,-0.965617,-1.266026,2.292238,0.525113,-0.770271,-1.252181,2.157767,-0.836755,-0.339297,1.461356,11.074271,0.587941,-38.609285,13.419544,0.198628,0.117074,0.000000,0.328763,0.149108,0.000000
3.050000,0.852402,-0.960258,-1.273771,2.279699,0.546764,-0.778085,-1.255545,2.170449,-0.725345,-0.336729,1.065540,11.198449,-0.074268,-40.529883,11.474570,0.201784,0.118615,0.000000,0.301445,0.153242,-0.000000
3.060000,0.875137,-0.954681,-1.281588,2.267127,0.568522,-0.784778,-1.258915,2.179077,-0.612786,-0.340783,0.650759,11.303762,-0.722185,-42.349257,9.447681,0.204654,0.120203,0.000000,0.271354,0.157969,0.000000
3.070000,0.897745,-0.948887,-1.289466,2.254521,0.590345,-0.790340,-1.262360,2.183464,-0.499270,-0.351173,0.218555,11.387403,-1.310362,-43.924381,7.003915,0.207209,0.121843,0.000000,0.238423,0.163249,0.000000
3.080000,0.920227,-0.942875,-1.297395,2.241880,0.612191,-0.794763,-1.265939,2.183448,-0.385038,-0.366990,-0.227729,11.443841,-1.831413,-45.242738,4.226328,0.209419,0.123540,0.000000,0.202688,0.168942,-0.000000
3.090000,0.942583,-0.936643,-1.305362,2.229202,0.634014,-0.798041,-1.269700,2.178909,-0.270393,-0.387801,-0.686300,11.471929,-2.341584,-46.475032,1.564597,0.211259,0.125298,0.000000,0.164131,0.174997,-0.000000
3.100000,0.964811,-0.930194,-1.313356,2.216486,0.655769,-0.800171,-1.273695,2.169722,-0.155600,-0.413822,-1.157230,11.475132,-2.860900,-47.652218,-0.885941,0.212698,0.127120,0.000000,0.122647,0.181477,-0.000000
3.110000,0.986912,-0.923528,-1.321365,2.203728,0.677409,-0.801153,-1.277977,2.155765,-0.040891,-0.445019,-1.639344,11.454210,-3.345280,-48.640178,-3.419094,0.213707,0.129012,0.000000,0.078199,0.188393,0.000000
3.120000,1.008886,-0.916646,-1.329379,2.190926,0.698885,-0.800989,-1.282595,2.136936,0.073484,-0.480727,-2.130033,11.406751,-3.739551,-49.347353,-6.221947,0.214257,0.130976,0.000000,0.030831,0.195649,0.000000
3.130000,1.030731,-0.909550,-1.337385,2.178076,0.720148,-0.799684,-1.287591,2.113164,0.187244,-0.519810,-2.626291,11.329771,-4.048455,-49.775325,-9.196066,0.214318,0.133017,0.000000,-0.019377,0.203086,0.000000
3.140000,1.052447,-0.902243,-1.345372,2.165175,0.741148,-0.797244,-1.292992,2.084410,0.300080,-0.561696,-3.125540,11.222829,-4.340230,-50.025401,-12.085970,0.213863,0.135134,0.000000,-0.072315,0.210622,0.000000
3.150000,1.074034,-0.894727,-1.353330,2.152217,0.761836,-0.793682,-1.298825,2.050653,0.411701,-0.606615,-3.626799,11.088052,-4.658786,-50.315023,-14.800436,0.212865,0.137328,0.000000,-0.127959,0.218284,-0.000000
3.160000,1.095492,-0.887006,-1.361246,2.139198,0.782161,-0.789010,-1.305124,2.011874,0.521841,-0.654872,-4.131840,10.926821,-4.952006,-50.546171,-17.495838,0.211297,0.139601,0.000000,-0.186566,0.226102,0.000000
3.170000,1.116818,-0.879084,-1.369110,2.126114,0.802073,-0.783245,-1.311922,1.968016,0.630237,-0.705655,-4.637723,10.738135,-5.095601,-50.066881,-20.379107,0.209127,0.141953,0.000000,-0.247957,0.233951,-0.000000
3.180000,1.138014,-0.870965,-1.376911,2.112960,0.821521,-0.776405,-1.319237,1.919119,0.736604,-0.756784,-5.133178,10.519238,-5.096015,-48.867680,-23.382546,0.206331,0.144384,0.000000,-0.311071,0.241522,-0.000000
3.190000,1.159078,-0.862654,-1.384638,2.099729,0.840456,-0.768513,-1.327058,1.865353,0.840622,-0.807575,-5.615077,10.270484,-5.118871,-47.831608,-26.206564,0.202899,0.146889,0.000000,-0.375546,0.248687,0.000000
3.200000,1.180008,-0.854156,-1.392281,2.086418,0.858828,-0.759593,-1.335388,1.806818,0.942013,-0.859162,-6.089810,9.995107,-5.219013,-47.133975,-28.847219,0.198813,0.149462,0.000000,-0.441950,0.255561,0.000000
3.210000,1.200806,-0.845477,-1.399830,2.073022,0.876592,-0.749673,-1.344241,1.743557,1.040524,-0.911955,-6.557756,9.693540,-5.281138,-46.168910,-31.479094,0.194053,0.152102,0.000000,-0.510266,0.262139,-0.000000
3.220000,1.221469,-0.836624,-1.407275,2.059534,0.893699,-0.738783,-1.353628,1.675663,1.135884,-0.964784,-7.013188,9.365525,-5.176574,-44.614770,-34.016137,0.188601,0.154805,0.000000,-0.579778,0.268226,-0.000000
3.230000,1.241997,-0.827603,-1.414606,2.045949,0.910105,-0.726955,-1.363537,1.603293,1.227835,-1.015487,-7.450051,9.013217,-4.944394,-42.669953,-36.358994,0.182451,0.157563,0.000000,-0.649603,0.273547,0.000000
3.240000,1.262388,-0.818422,-1.421814,2.032263,0.925765,-0.714226,-1.373937,1.526662,1.316148,-1.063672,-7.866587,8.638345,-4.752828,-40.732407,-38.612482,0.175603,0.160368,0.000000,-0.719277,0.278007,0.000000
3.250000,1.282642,-0.809088,-1.428890,2.018470,0.940638,-0.700632,-1.384811,1.445961,1.400602,-1.110543,-8.264700,8.240967,-4.596202,-38.863820,-40.897003,0.168061,0.163209,0.000000,-0.788748,0.281663,0.000000
3.260000,1.302757,-0.799609,-1.435826,2.004567,0.954685,-0.686214,-1.396148,1.361368,1.480968,-1.155596,-8.643863,7.820405,-4.366237,-36.808784,-43.105879,0.159825,0.166080,0.000000,-0.857660,0.284367,0.000000
3.270000,1.322733,-0.789994,-1.442614,1.990547,0.967866,-0.671013,-1.407922,1.273084,1.557010,-1.197868,-9.000875,7.378850,-4.107383,-34.415469,-44.888524,0.150904,0.168969,0.000000,-0.925243,0.285965,0.000000
3.280000,1.342568,-0.780252,-1.449247,1.976408,0.980146,-0.655074,-1.420106,1.181350,1.628545,-1.237744,-9.332173,6.922635,-3.862871,-31.757240,-46.241370,0.141318,0.171864,0.000000,-0.990567,0.286550,0.000000
3.290000,1.362261,-0.770391,-1.455716,1.962145,0.991493,-0.638442,-1.432677,1.086440,1.695462,-1.275126,-9.636020,6.454023,-3.565862,-29.044523,-47.612498,0.131093,0.174756,0.000000,-1.052959,0.286097,0.000000
3.300000,1.381811,-0.760422,-1.462016,1.947755,1.001875,-0.621164,-1.445608,0.988630,1.757625,-1.309061,-9.913063,5.970385,-3.198532,-26.445236,-49.115354,0.120260,0.177633,0.000000,-1.112078,0.284376,0.000000
3.310000,1.401216,-0.750354,-1.468139,1.933233,1.011265,-0.603289,-1.458859,0.888179,1.814870,-1.339096,-10.164925,5.471715,-2.811332,-23.824339,-50.423485,0.108854,0.180483,0.000000,-1.167642,0.281272,-0.000000
3.320000,1.420476,-0.740197,-1.474081,1.918578,1.019639,-0.584867,-1.472390,0.785331,1.867059,-1.365288,-10.389550,4.961915,-2.431780,-20.744197,-51.258672,0.096911,0.183290,0.000000,-1.218876,0.276825,0.000000
3.330000,1.439588,-0.729961,-1.479837,1.903785,1.026972,-0.565948,-1.486164,0.680388,1.914108,-1.387732,-10.579809,4.446542,-2.040353,-17.258177,-51.691837,0.084481,0.186043,0.000000,-1.264373,0.271139,0.000000
3.340000,1.458552,-0.719657,-1.485400,1.888854,1.033246,-0.546585,-1.500145,0.573735,1.955990,-1.406095,-10.734714,3.928078,-1.608642,-13.984310,-52.065372,0.071630,0.188730,0.000000,-1.303545,0.264214,-0.000000
3.350000,1.477365,-0.709296,-1.490768,1.873782,1.038447,-0.526828,-1.514286,0.465694,1.992670,-1.419905,-10.859495,3.405235,-1.173172,-10.941189,-52.559804,0.058418,0.191339,0.000000,-1.336662,0.255957,0.000000
3.360000,1.496027,-0.698888,-1.495937,1.858569,1.042560,-0.506731,-1.528543,0.356545,2.024095,-1.429558,-10.953537,2.876882,-0.752184,-7.740937,-52.924668,0.044906,0.193856,0.000000,-1.363309,0.246394,0.000000
3.370000,1.514536,-0.688445,-1.500903,1.843212,1.045578,-0.486347,-1.542877,0.246623,2.050208,-1.434948,-11.014314,2.346741,-0.245841,-4.505357,-52.651251,0.031162,0.196270,0.000000,-1.382847,0.235618,-0.000000
3.380000,1.532891,-0.677977,-1.505664,1.827711,1.047493,-0.465727,-1.557242,0.136259,2.071030,-1.434475,-11.043645,1.823857,0.356549,-1.410653,-51.789930,0.017259,0.198569,0.000000,-1.395270,0.223688,-0.000000
3.390000,1.551091,-0.667495,-1.510217,1.812067,1.048303,-0.444926,-1.571567,0.025750,2.086685,-1.427817,-11.042527,1.310943,0.910699,1.712795,-51.018991,0.003267,0.200743,0.000000,-1.400624,0.210685,0.000000
3.400000,1.569133,-0.657011,-1.514562,1.796280,1.048008,-0.423994,-1.585798,-0.084592,2.097249,-1.416261,-11.009389,0.803478,1.378038,4.990259,-50.505541,-0.010743,0.202781,0.000000,-1.398702,0.196717,0.000000
3.410000,1.587016,-0.646535,-1.518697,1.780351,1.046611,-0.402981,-1.599892,-0.194437,2.102754,-1.400257,-10.942722,0.300832,1.854190,8.266471,-49.786515,-0.024696,0.204676,0.000000,-1.389345,0.181887,0.000000
3.420000,1.604740,-0.636078,-1.522622,1.764282,1.044119,-0.381938,-1.613803,-0.303446,2.103265,-1.379177,-10.844059,-0.192253,2.405971,11.216235,-48.503114,-0.038519,0.206419,0.000000,-1.372874,0.166312,-0.000000
3.430000,1.622302,-0.625652,-1.526336,1.748075,1.040542,-0.360916,-1.627476,-0.411319,2.098909,-1.352137,-10.718397,-0.669231,2.987505,13.865786,-46.797517,-0.052144,0.208004,0.000000,-1.350173,0.150131,-0.000000
3.440000,1.639701,-0.615268,-1.529840,1.731732,1.035893,-0.339960,-1.640846,-0.517814,2.089881,-1.319427,-10.566744,-1.128203,3.511012,16.616311,-45.137596,-0.065514,0.209425,0.000000,-1.321679,0.133516,-0.000000
3.450000,1.656937,-0.604935,-1.533135,1.715258,1.030186,-0.319118,-1.653864,-0.622654,2.076345,-1.281917,-10.386071,-1.571982,4.048229,19.471702,-43.649970,-0.078570,0.210679,0.000000,-1.287324,0.116581,0.000000
3.460000,1.674006,-0.594664,-1.536223,1.698655,1.023440,-0.298433,-1.666484,-0.725535,2.058441,-1.238463,-10.177309,-2.001203,4.645242,22.142646,-42.029180,-0.091254,0.211764,0.000000,-1.247577,0.099246,0.000000
3.470000,1.690910,-0.584466,-1.539104,1.681928,1.015675,-0.277949,-1.678633,-0.826200,2.036321,-1.189012,-9.943218,-2.412566,5.076316,24.643061,-39.979603,-0.103516,0.212673,0.000000,-1.203201,0.081669,-0.000000
3.480000,1.707645,-0.574350,-1.541782,1.665082,1.006916,-0.257707,-1.690264,-0.924400,2.010190,-1.136936,-9.684448,-2.800795,5.316529,27.043619,-37.612432,-0.115313,0.213406,0.000000,-1.154747,0.064470,0.000000
3.490000,1.724211,-0.564328,-1.544258,1.648123,0.997187,-0.237745,-1.701372,-1.019889,1.980305,-1.082682,-9.402345,-3.164815,5.674209,29.277687,-35.332030,-0.126608,0.213971,0.000000,-1.102821,0.047786,0.000000
3.500000,1.740607,-0.554407,-1.546536,1.631055,0.986518,-0.218101,-1.711918,-1.112447,1.946893,-1.023452,-9.098895,-3.507435,6.155612,31.437573,-33.163219,-0.137368,0.214370,0.000000,-1.048036,0.031252,0.000000
3.510000,1.756832,-0.544597,-1.548620,1.613884,0.974938,-0.198808,-1.721841,-1.201867,1.910157,-0.959569,-8.773594,-3.828079,6.550442,33.544316,-30.858521,-0.147568,0.214603,0.000000,-0.990715,0.014966,-0.000000
3.520000,1.772885,-0.534908,-1.550513,1.596618,0.962480,-0.179898,-1.731109,-1.287919,1.870332,-0.892443,-8.428008,-4.124606,6.911684,35.236392,-28.441697,-0.157182,0.214673,0.000000,-0.931438,-0.000814,-0.000000
3.530000,1.788765,-0.525348,-1.552218,1.579262,0.949180,-0.161401,-1.739690,-1.370427,1.827665,-0.821336,-8.068866,-4.396913,7.317184,36.444886,-26.027501,-0.166197,0.214587,0.000000,-0.871338,-0.016152,0.000000
3.540000,1.804470,-0.515924,-1.553741,1.561824,0.935072,-0.143344,-1.747536,-1.449296,1.782394,-0.746100,-7.699110,-4.645156,7.671626,37.658885,-23.590595,-0.174611,0.214347,0.000000,-0.811026,-0.031051,0.000000
3.550000,1.820001,-0.506646,-1.555085,1.544312,0.920194,-0.125753,-1.754612,-1.524409,1.734761,-0.667903,-7.315688,-4.868725,7.930782,39.182194,-21.064147,-0.182421,0.213957,0.000000,-0.750376,-0.045352,0.000000
3.560000,1.835357,-0.497520,-1.556256,1.526732,0.904584,-0.108649,-1.760894,-1.595610,1.685019,-0.587484,-6.915467,-5.066439,8.162032,40.651065,-18.497651,-0.189622,0.213425,0.000000,-0.689253,-0.058942,-0.000000
3.570000,1.850536,-0.488554,-1.557258,1.509094,0.888282,-0.092053,-1.766362,-1.662718,1.633433,-0.504662,-6.502667,-5.238678,8.437628,41.279637,-16.094258,-0.196209,0.212758,0.000000,-0.628323,-0.071862,0.000000
3.580000,1.865538,-0.479755,-1.558097,1.491405,0.871329,-0.075981,-1.770987,-1.725663,1.580246,-0.418732,-6.089874,-5.388324,8.723574,41.164798,-13.868762,-0.202192,0.211961,0.000000,-0.569086,-0.084278,0.000000
3.590000,1.880364,-0.471128,-1.558778,1.473674,0.853768,-0.060448,-1.774736,-1.784516,1.525666,-0.330191,-5.679371,-5.516053,8.925586,41.353236,-11.574082,-0.207595,0.211038,0.000000,-0.511827,-0.096164,0.000000
3.600000,1.895012,-0.462679,-1.559306,1.455910,0.835639,-0.045467,-1.777591,-1.839250,1.469924,-0.240220,-5.262809,-5.619805,9.115277,41.923484,-9.145924,-0.212433,0.209996,0.000000,-0.455678,-0.107358,0.000000
3.610000,1.909482,-0.454415,-1.559687,1.438122,0.816983,-0.031049,-1.779541,-1.889772,1.413270,-0.147885,-4.840901,-5.698972,9.346092,42.176996,-6.775752,-0.216713,0.208842,0.000000,-0.400772,-0.117978,-0.000000
3.620000,1.923774,-0.446340,-1.559927,1.420319,0.797844,-0.017202,-1.780549,-1.936068,1.355945,-0.053298,-4.419269,-5.755320,9.392573,42.085723,-4.643355,-0.220452,0.207581,0.000000,-0.347694,-0.128078,0.000000
3.630000,1.937889,-0.438458,-1.560031,1.402511,0.778262,-0.003930,-1.780607,-1.978157,1.298164,0.039966,-3.999187,-5.791839,9.226614,41.903693,-2.718651,-0.223671,0.206218,0.000000,-0.296461,-0.137365,0.000000
3.640000,1.951825,-0.430775,-1.560005,1.384707,0.758280,0.008761,-1.779750,-2.016052,1.240108,0.131234,-3.581195,-5.809693,9.161131,41.620568,-0.790859,-0.226385,0.204764,0.000000,-0.247055,-0.145828,0.000000
3.650000,1.965583,-0.423293,-1.559856,1.366916,0.737941,0.020872,-1.777982,-2.049781,1.181970,0.223189,-3.166776,-5.807656,9.223762,41.195552,1.264158,-0.228615,0.203226,0.000000,-0.199620,-0.153765,-0.000000
3.660000,1.979163,-0.416016,-1.559588,1.349147,0.717285,0.032401,-1.775286,-2.079388,1.123955,0.315710,-2.757284,-5.784410,9.202101,40.658338,3.281003,-0.230381,0.201607,0.000000,-0.154264,-0.161166,0.000000
3.670000,1.992566,-0.408947,-1.559208,1.331410,0.696353,0.043351,-1.771668,-2.104927,1.066282,0.407231,-2.353609,-5.742036,9.094708,40.053543,4.890034,-0.231704,0.199915,0.000000,-0.110945,-0.167941,0.000000
3.680000,2.005791,-0.402089,-1.558721,1.313714,0.675186,0.053726,-1.767141,-2.126460,1.009114,0.497604,-1.956213,-5.686610,8.976602,39.380785,6.116157,-0.232603,0.198156,0.000000,-0.069478,-0.174238,0.000000
3.690000,2.018840,-0.395443,-1.558133,1.296068,0.653824,0.063533,-1.761716,-2.144051,0.952549,0.586763,-1.565993,-5.619713,8.832756,38.598961,7.441408,-0.233096,0.196334,0.000000,-0.029834,-0.180108,0.000000
3.700000,2.031712,-0.389012,-1.557450,1.278480,0.632305,0.072777,-1.755406,-2.157780,0.896720,0.674259,-1.184234,-5.537781,8.657361,37.718433,8.975097,-0.233202,0.194454,0.000000,0.007855,-0.185453,-0.000000
3.710000,2.044410,-0.382797,-1.556678,1.260959,0.610668,0.081468,-1.748231,-2.167736,0.841794,0.759910,-0.811624,-5.440211,8.464838,36.778519,10.379428,-0.232941,0.192522,0.000000,0.043591,-0.190272,-0.000000
3.720000,2.056932,-0.376799,-1.555821,1.243515,0.588951,0.089613,-1.740208,-2.174012,0.787916,0.843556,-0.448664,-5.330193,8.243093,35.770539,11.409815,-0.232332,0.190543,0.000000,0.077489,-0.194638,0.000000
3.730000,2.069280,-0.371018,-1.554885,1.226155,0.567188,0.097226,-1.731360,-2.176709,0.735190,0.924772,-0.096214,-5.212014,7.987111,34.695653,12.166333,-0.231393,0.188522,0.000000,0.109648,-0.198616,0.000000
3.740000,2.081455,-0.365455,-1.553876,1.208888,0.545416,0.104317,-1.721712,-2.175936,0.683676,1.003298,0.245249,-5.086866,7.718025,33.584483,12.953344,-0.230140,0.186462,0.000000,0.140125,-0.202219,0.000000
3.750000,2.093458,-0.360110,-1.552799,1.191721,0.523669,0.110899,-1.711294,-2.171804,0.633453,1.079132,0.575476,-4.952948,7.446730,32.405977,13.833593,-0.228591,0.184368,0.000000,0.168928,-0.205429,0.000000
3.760000,2.105289,-0.354982,-1.551658,1.174662,0.501980,0.116986,-1.700130,-2.164427,0.584617,1.152232,0.893369,-4.810194,7.160392,31.154440,14.601406,-0.226763,0.182243,0.000000,0.196016,-0.208257,0.000000
3.770000,2.116951,-0.350070,-1.550459,1.157718,0.480381,0.122592,-1.688249,-2.153937,0.537249,1.222340,1.198565,-4.660919,6.839147,29.957566,15.098066,-0.224672,0.180093,0.000000,0.221475,-0.210737,-0.000000
3.780000,2.128444,-0.345374,-1.549207,1.140897,0.458902,0.127731,-1.675683,-2.140456,0.491398,1.289015,1.492520,-4.508233,6.488932,28.835521,15.388289,-0.222334,0.177920,0.000000,0.245584,-0.212892,0.000000
3.790000,2.139769,-0.340892,-1.547905,1.124205,0.437572,0.132420,-1.662469,-2.124086,0.447084,1.352119,1.775275,-4.353154,6.139285,27.625862,15.677502,-0.219760,0.175727,0.000000,0.268420,-0.214737,-0.000000
3.800000,2.150928,-0.336623,-1.546558,1.107648,0.416420,0.136673,-1.648641,-2.104950,0.404335,1.411801,2.045037,-4.194683,5.792096,26.284787,16.004355,-0.216965,0.173519,0.000000,0.289829,-0.216276,0.000000
3.810000,2.161922,-0.332564,-1.545171,1.091232,0.395473,0.140506,-1.634233,-2.083186,0.363190,1.467961,2.300971,-4.033067,5.430363,24.935187,16.235342,-0.213964,0.171298,0.000000,0.309779,-0.217510,0.000000
3.820000,2.172752,-0.328713,-1.543748,1.074963,0.374756,0.143937,-1.619281,-2.058931,0.323674,1.520408,2.543741,-3.869976,5.059272,23.687022,16.287888,-0.210770,0.169067,0.000000,0.328414,-0.218457,0.000000
3.830000,2.183421,-0.325069,-1.542292,1.058846,0.354294,0.146980,-1.603824,-2.032311,0.285791,1.569146,2.774711,-3.707309,4.687800,22.511851,16.211098,-0.207395,0.166829,0.000000,0.345942,-0.219152,-0.000000
3.840000,2.193929,-0.321627,-1.540808,1.042887,0.334110,0.149652,-1.587898,-2.003437,0.249528,1.614164,2.993978,-3.545754,4.310921,21.279642,16.116099,-0.203851,0.164588,0.000000,0.362412,-0.219607,0.000000
3.850000,2.204279,-0.318386,-1.539299,1.027088,0.314225,0.151970,-1.571541,-1.972431,0.214876,1.655365,3.200304,-3.384987,3.924260,19.958348,16.010059,-0.200147,0.162344,0.000000,0.377719,-0.219808,0.000000
3.860000,2.214471,-0.315343,-1.537769,1.011456,0.294661,0.153950,-1.554791,-1.939430,0.181828,1.692650,3.393145,-3.225553,3.534634,18.643956,15.827522,-0.196296,0.160101,0.000000,0.391841,-0.219755,0.000000
3.870000,2.224508,-0.312493,-1.536220,0.995993,0.275437,0.155607,-1.537688,-1.904568,0.150365,1.726057,3.573183,-3.068436,3.157062,17.431560,15.571426,-0.192310,0.157862,0.000000,0.404881,-0.219467,0.000000
3.880000,2.234391,-0.309834,-1.534657,0.980702,0.256570,0.156957,-1.520270,-1.867967,0.120459,1.755791,3.741776,-2.914125,2.792760,16.298771,15.273828,-0.188198,0.155629,0.000000,0.416992,-0.218969,0.000000
3.890000,2.244122,-0.307362,-1.533081,0.965587,0.238077,0.158016,-1.502572,-1.829733,0.092082,1.781912,3.899159,-2.762960,2.425088,15.130011,14.935816,-0.183969,0.153404,0.000000,0.428212,-0.218270,0.000000
3.900000,2.253703,-0.305072,-1.531497,0.950651,0.219975,0.158799,-1.484632,-1.789984,0.065200,1.804293,4.044376,-2.615408,2.046973,13.897825,14.541337,-0.179633,0.151189,0.000000,0.438462,-0.217362,0.000000
3.910000,2.263135,-0.302962,-1.529905,0.935895,0.202278,0.159320,-1.466486,-1.748845,0.039774,1.822852,4.177115,-2.472133,1.672658,12.685715,14.100681,-0.175200,0.148985,0.000000,0.447725,-0.216242,0.000000
3.920000,2.272420,-0.301027,-1.528310,0.921321,0.184998,0.159594,-1.448175,-1.706441,0.015757,1.837746,4.298091,-2.333395,1.324999,11.569545,13.669827,-0.170678,0.146796,0.000000,0.456075,-0.214925,0.000000
3.930000,2.281561,-0.299262,-1.526713,0.906931,0.168149,0.159635,-1.429732,-1.662883,-0.006894,1.849352,4.408506,-2.198737,1.002829,10.526916,13.256659,-0.166078,0.144623,0.000000,0.463619,-0.213436,0.000000
3.940000,2.290559,-0.297664,-1.525117,0.892726,0.151741,0.159457,-1.411188,-1.618271,-0.028217,1.857802,4.508629,-2.068261,0.678775,9.464939,12.795440,-0.161405,0.142468,0.000000,0.470382,-0.211786,0.000000
3.950000,2.299416,-0.296227,-1.523524,0.878707,0.135784,0.159071,-1.392576,-1.572711,-0.048259,1.862927,4.597805,-1.942828,0.343107,8.369938,12.262763,-0.156670,0.140331,0.000000,0.476309,-0.209965,-0.000000
3.960000,2.308133,-0.294948,-1.521936,0.864875,0.120286,0.158491,-1.373929,-1.526315,-0.067074,1.864664,4.676028,-1.823006,0.016874,7.307026,11.712591,-0.151879,0.138216,0.000000,0.481400,-0.207968,-0.000000
3.970000,2.316713,-0.293822,-1.520354,0.851229,0.105257,0.157730,-1.355282,-1.479190,-0.084719,1.863265,4.743945,-1.708576,-0.271756,6.311285,11.215412,-0.147041,0.136123,0.000000,0.485707,-0.205812,-0.000000
3.980000,2.325158,-0.292843,-1.518781,0.837769,0.090703,0.156797,-1.336664,-1.431436,-0.101245,1.859229,4.802254,-1.598698,-0.526695,5.363429,10.763768,-0.142164,0.134055,0.000000,0.489274,-0.203528,-0.000000
3.990000,2.333469,-0.292008,-1.517219,0.824495,0.076629,0.155705,-1.318098,-1.383145,-0.116693,1.852731,4.851214,-1.493301,-0.782937,4.423000,10.273858,-0.137255,0.132011,0.000000,0.492118,-0.201127,0.000000
4.000000,2.341648,-0.291311,-1.515667,0.811407,0.063040,0.154463,-1.299609,-1.334412,-0.131111,1.843571,4.890714,-1.393221,-1.050326,3.483509,9.718242,-0.132321,0.129994,0.000000,0.494230,-0.198595,-0.000000
4.010000,2.349697,-0.290747,-1.514129,0.798503,0.049940,0.153082,-1.281226,-1.285331,-0.144558,1.831724,4.920884,-1.298936,-1.303449,2.573230,9.161141,-0.127370,0.128004,0.000000,0.495617,-0.195931,-0.000000
4.020000,2.357618,-0.290312,-1.512606,0.785783,0.037333,0.151572,-1.262975,-1.235994,-0.157090,1.817502,4.942178,-1.209998,-1.516064,1.713228,8.683123,-0.122409,0.126043,0.000000,0.496306,-0.193152,0.000000
4.030000,2.365412,-0.290000,-1.511098,0.773244,0.025220,0.149941,-1.244876,-1.186487,-0.168758,1.801403,4.955149,-1.125273,-1.694254,0.895485,8.271742,-0.117444,0.124111,0.000000,0.496326,-0.190290,0.000000
4.040000,2.373083,-0.289807,-1.509607,0.760885,0.013603,0.148197,-1.226947,-1.136891,-0.179596,1.783616,4.960088,-1.044563,-1.870920,0.094466,7.827761,-0.112482,0.122210,0.000000,0.495693,-0.187355,0.000000
4.050000,2.380630,-0.289728,-1.508134,0.748705,0.002483,0.146349,-1.209204,-1.087286,-0.189649,1.763985,4.957038,-0.968718,-2.055727,-0.693894,7.324237,-0.107530,0.120340,0.000000,0.494412,-0.184337,0.000000
4.060000,2.388057,-0.289758,-1.506680,0.736701,-0.008142,0.144404,-1.191667,-1.037750,-0.198970,1.742502,4.946210,-0.898078,-2.225445,-1.451868,6.833505,-0.102593,0.118502,0.000000,0.492496,-0.181236,-0.000000
4.070000,2.395364,-0.289891,-1.505246,0.724871,-0.018272,0.142369,-1.174354,-0.988361,-0.207610,1.719476,4.928001,-0.832048,-2.354835,-2.168502,6.428416,-0.097680,0.116696,0.000000,0.489967,-0.178070,0.000000
4.080000,2.402554,-0.290123,-1.503832,0.713214,-0.027910,0.140252,-1.157277,-0.939190,-0.215611,1.695405,4.902840,-0.769510,-2.450122,-2.848945,6.091080,-0.092794,0.114923,0.000000,0.486846,-0.174872,-0.000000
4.090000,2.409628,-0.290449,-1.502441,0.701726,-0.037056,0.138057,-1.140446,-0.890305,-0.223001,1.670473,4.871022,-0.710226,-2.543777,-3.506394,5.731096,-0.087942,0.113184,0.000000,0.483152,-0.171652,-0.000000
4.100000,2.416589,-0.290864,-1.501071,0.690405,-0.045716,0.135792,-1.123868,-0.841770,-0.229815,1.644530,4.832712,-0.654888,-2.643425,-4.144141,5.327254,-0.083131,0.111477,0.000000,0.478901,-0.168402,-0.000000
4.110000,2.423437,-0.291363,-1.499725,0.679249,-0.053892,0.133461,-1.107555,-0.793650,-0.236098,1.617605,4.788139,-0.603681,-2.727070,-4.753091,4.943384,-0.078364,0.109804,0.000000,0.474108,-0.165122,0.000000
4.120000,2.430174,-0.291942,-1.498402,0.668254,-0.061589,0.131070,-1.091516,-0.746007,-0.241889,1.589988,4.737650,-0.556020,-2.777158,-5.323957,4.634744,-0.073648,0.108164,0.000000,0.468794,-0.161831,0.000000
4.130000,2.436802,-0.292595,-1.497104,0.657418,-0.068812,0.128623,-1.075755,-0.698897,-0.247219,1.562062,4.681660,-0.510986,-2.800507,-5.859189,4.383623,-0.068988,0.106558,0.000000,0.462988,-0.158556,0.000000
4.140000,2.443322,-0.293318,-1.495830,0.646739,-0.075567,0.126125,-1.060275,-0.652374,-0.252109,1.533978,4.620466,-0.468348,-2.819769,-6.370860,4.120900,-0.064389,0.104986,0.000000,0.456711,-0.155305,0.000000
4.150000,2.449736,-0.294107,-1.494581,0.636213,-0.081859,0.123581,-1.045076,-0.606488,-0.256586,1.505666,4.554243,-0.428568,-2.840211,-6.862481,3.831648,-0.059854,0.103446,0.000000,0.449981,-0.152076,-0.000000
4.160000,2.456046,-0.294955,-1.493358,0.625837,-0.087696,0.120994,-1.030161,-0.561289,-0.260680,1.477174,4.483217,-0.391715,-2.847159,-7.325889,3.563338,-0.055389,0.101939,0.000000,0.442814,-0.148871,0.000000
4.170000,2.462253,-0.295861,-1.492161,0.615610,-0.093085,0.118367,-1.015532,-0.516824,-0.264420,1.448723,4.407725,-0.357302,-2.828512,-7.752646,3.353462,-0.050998,0.100464,0.000000,0.435236,-0.145705,-0.000000
4.180000,2.468358,-0.296817,-1.490991,0.605527,-0.098033,0.115705,-1.001187,-0.473135,-0.267826,1.420604,4.328164,-0.324646,-2.789151,-8.145127,3.187644,-0.046684,0.099021,0.000000,0.427280,-0.142599,0.000000
4.190000,2.474364,-0.297821,-1.489847,0.595586,-0.102548,0.113011,-0.987120,-0.430261,-0.270913,1.392940,4.244822,-0.293549,-2.745691,-8.514654,3.018070,-0.042452,0.097609,0.000000,0.418971,-0.139562,0.000000
4.200000,2.480270,-0.298868,-1.488731,0.585784,-0.106638,0.110287,-0.973328,-0.388238,-0.273697,1.365690,4.157871,-0.264284,-2.702400,-8.864693,2.835616,-0.038305,0.096227,0.000000,0.410325,-0.136591,0.000000
4.210000,2.486079,-0.299954,-1.487641,0.576119,-0.110312,0.107537,-0.959806,-0.347103,-0.276199,1.338892,4.067529,-0.236836,-2.648964,-9.187819,2.671998,-0.034246,0.094875,0.000000,0.401360,-0.133690,0.000000
4.220000,2.491793,-0.301074,-1.486580,0.566588,-0.113580,0.104763,-0.946550,-0.306888,-0.278434,1.312711,3.974114,-0.210844,-2.576857,-9.476178,2.548023,-0.030277,0.093551,0.000000,0.392106,-0.130869,-0.000000
4.230000,2.497411,-0.302226,-1.485546,0.557188,-0.116450,0.101968,-0.933552,-0.267621,-0.280415,1.287355,3.878005,-0.185876,-2.490333,-9.731880,2.452793,-0.026403,0.092256,0.000000,0.382598,-0.128144,-0.000000
4.240000,2.502936,-0.303403,-1.484540,0.547917,-0.118933,0.099155,-0.920803,-0.229328,-0.282151,1.262904,3.779477,-0.161789,-2.401737,-9.965875,2.359054,-0.022625,0.090988,0.000000,0.372860,-0.125523,0.000000
4.250000,2.508369,-0.304604,-1.483563,0.538772,-0.121037,0.096325,-0.908294,-0.192031,-0.283651,1.239320,3.678687,-0.138695,-2.311659,-10.183304,2.263607,-0.018946,0.089745,0.000000,0.362909,-0.123000,0.000000
4.260000,2.513712,-0.305824,-1.482614,0.529751,-0.122773,0.093482,-0.896017,-0.155754,-0.284925,1.216671,3.575811,-0.116516,-2.213163,-10.377101,2.183334,-0.015367,0.088527,0.000000,0.352761,-0.120583,0.000000
4.270000,2.518965,-0.307060,-1.481693,0.520852,-0.124152,0.090627,-0.883961,-0.120515,-0.285982,1.195057,3.471145,-0.095028,-2.108551,-10.535064,2.122947,-0.011891,0.087333,0.000000,0.342445,-0.118279,0.000000
4.280000,2.524129,-0.308307,-1.480801,0.512072,-0.125183,0.087762,-0.872116,-0.086331,-0.286826,1.174500,3.365109,-0.074057,-2.001488,-10.659481,2.075299,-0.008518,0.086161,0.000000,0.332001,-0.116087,0.000000
4.290000,2.529206,-0.309563,-1.479938,0.503409,-0.125878,0.084890,-0.860471,-0.053213,-0.287463,1.155027,3.257956,-0.053522,-1.889888,-10.767620,2.033474,-0.005251,0.085011,0.000000,0.321454,-0.114010,0.000000
4.300000,2.534197,-0.310825,-1.479104,0.494863,-0.126248,0.082013,-0.849015,-0.021172,-0.287896,1.136702,3.149757,-0.033388,-1.772723,-10.863416,1.998885,-0.002089,0.083881,0.000000,0.310811,-0.112054,0.000000
4.310000,2.539103,-0.312088,-1.478298,0.486429,-0.126302,0.079132,-0.837737,0.009782,-0.288131,1.119573,3.040687,-0.013545,-1.652858,-10.935969,1.974275,0.000965,0.082770,0.000000,0.300090,-0.110222,0.000000
4.320000,2.543926,-0.313351,-1.477521,0.478108,-0.126052,0.076250,-0.826624,0.039642,-0.288167,1.103645,2.931038,0.006098,-1.534575,-10.978693,1.953016,0.003913,0.081677,0.000000,0.289319,-0.108514,-0.000000
4.330000,2.548665,-0.314609,-1.476773,0.469897,-0.125509,0.073369,-0.815664,0.068403,-0.288009,1.088881,2.821114,0.025516,-1.418273,-10.995810,1.932194,0.006752,0.080600,0.000000,0.278529,-0.106927,0.000000
4.340000,2.553324,-0.315861,-1.476054,0.461795,-0.124684,0.070490,-0.804846,0.096064,-0.287657,1.075279,2.711121,0.044741,-1.299918,-10.996836,1.919215,0.009483,0.079538,0.000000,0.267739,-0.105460,0.000000
4.350000,2.557901,-0.317103,-1.475363,0.453800,-0.123588,0.067616,-0.794158,0.122625,-0.287114,1.062883,2.601177,0.063900,-1.178014,-10.983783,1.917785,0.012107,0.078490,0.000000,0.256961,-0.104117,0.000000
4.360000,2.562400,-0.318333,-1.474701,0.445911,-0.122231,0.064748,-0.783588,0.148088,-0.286379,1.051719,2.491446,0.083097,-1.056635,-10.951375,1.921062,0.014622,0.077456,0.000000,0.246211,-0.102898,0.000000
4.370000,2.566819,-0.319548,-1.474068,0.438128,-0.120626,0.061888,-0.773124,0.172454,-0.285452,1.041750,2.382149,0.102321,-0.942066,-10.896779,1.917250,0.017031,0.076432,0.000000,0.235511,-0.101802,-0.000000
4.380000,2.571162,-0.320745,-1.473463,0.430449,-0.118782,0.059039,-0.762753,0.195731,-0.284333,1.032878,2.273510,0.121442,-0.834402,-10.822510,1.906656,0.019333,0.075419,0.000000,0.224882,-0.100819,0.000000
4.390000,2.575428,-0.321923,-1.472887,0.422873,-0.116711,0.056201,-0.752466,0.217925,-0.283023,1.025062,2.165699,0.140454,-0.726806,-10.733658,1.903215,0.021529,0.074415,0.000000,0.214341,-0.099945,0.000000
4.400000,2.579620,-0.323079,-1.472339,0.415400,-0.114424,0.053378,-0.742252,0.239045,-0.281523,1.018342,2.058837,0.159506,-0.616230,-10.632204,1.911445,0.023619,0.073420,0.000000,0.203899,-0.099184,0.000000
4.410000,2.583736,-0.324212,-1.471820,0.408028,-0.111931,0.050571,-0.732099,0.259101,-0.279833,1.012738,1.953055,0.178683,-0.508558,-10.515934,1.920400,0.025607,0.072431,0.000000,0.193569,-0.098536,0.000000
4.420000,2.587780,-0.325318,-1.471328,0.400758,-0.109242,0.047781,-0.721997,0.278106,-0.277950,1.008170,1.848518,0.197914,-0.413916,-10.382137,1.916668,0.027491,0.071448,0.000000,0.183366,-0.097995,0.000000
4.430000,2.591752,-0.326397,-1.470864,0.393588,-0.106368,0.045012,-0.711936,0.296072,-0.275875,1.004459,1.745412,0.217017,-0.331743,-10.232637,1.902105,0.029274,0.070471,0.000000,0.173309,-0.097544,0.000000
4.440000,2.595652,-0.327445,-1.470428,0.386519,-0.103320,0.042264,-0.701908,0.313014,-0.273609,1.001536,1.643866,0.235957,-0.249792,-10.072696,1.892923,0.030957,0.069497,0.000000,0.163408,-0.097177,0.000000
4.450000,2.599482,-0.328463,-1.470019,0.379550,-0.100108,0.039540,-0.691905,0.328949,-0.271155,0.999463,1.543958,0.254875,-0.164931,-9.902277,1.894362,0.032542,0.068526,0.000000,0.153670,-0.096899,0.000000
4.460000,2.603243,-0.329448,-1.469637,0.372681,-0.096741,0.036841,-0.681919,0.343893,-0.268512,0.998237,1.445820,0.273844,-0.086448,-9.719262,1.894271,0.034030,0.067558,0.000000,0.144109,-0.096709,0.000000
4.470000,2.606936,-0.330398,-1.469282,0.365911,-0.093230,0.034169,-0.671941,0.357865,-0.265679,0.997734,1.349573,0.292761,-0.023185,-9.527448,1.877799,0.035424,0.066591,0.000000,0.134736,-0.096596,0.000000
4.480000,2.610561,-0.331312,-1.468954,0.359242,-0.089584,0.031527,-0.661964,0.370885,-0.262657,0.997773,1.255271,0.311400,0.026855,-9.328934,1.847678,0.036725,0.065625,0.000000,0.125553,-0.096543,0.000000
4.490000,2.614120,-0.332190,-1.468651,0.352672,-0.085813,0.028916,-0.651985,0.382971,-0.259451,0.998272,1.162995,0.329714,0.074139,-9.120049,1.822409,0.037935,0.064659,0.000000,0.116568,-0.096544,0.000000
4.500000,2.617615,-0.333028,-1.468375,0.346202,-0.081925,0.026338,-0.641999,0.394145,-0.256062,0.999256,1.072870,0.347848,0.121791,-8.899707,1.806017,0.039057,0.063692,0.000000,0.107793,-0.096599,-0.000000
4.510000,2.621044,-0.333828,-1.468125,0.339832,-0.077930,0.023795,-0.632000,0.404428,-0.252494,1.000707,0.985000,0.365834,0.162022,-8.671836,1.785335,0.040091,0.062725,0.000000,0.099238,-0.096706,0.000000
4.520000,2.624411,-0.334587,-1.467899,0.333562,-0.073836,0.021288,-0.621985,0.413845,-0.248746,1.002497,0.899433,0.383555,0.185544,-8.441170,1.750082,0.041041,0.061757,0.000000,0.090906,-0.096854,0.000000
4.530000,2.627716,-0.335305,-1.467699,0.327392,-0.069653,0.018820,-0.611950,0.422417,-0.244822,1.004418,0.816177,0.400836,0.193988,-8.207781,1.703884,0.041909,0.060786,0.000000,0.082797,-0.097023,0.000000
4.540000,2.630959,-0.335980,-1.467523,0.321323,-0.065388,0.016392,-0.601896,0.430168,-0.240729,1.006376,0.735278,0.417632,0.198915,-7.967122,1.659313,0.042697,0.059814,0.000000,0.074913,-0.097204,0.000000
4.550000,2.634142,-0.336612,-1.467371,0.315355,-0.061049,0.014006,-0.591823,0.437122,-0.236470,1.008397,0.656835,0.434022,0.203583,-7.717323,1.619085,0.043407,0.058841,0.000000,0.067265,-0.097398,0.000000
4.560000,2.637266,-0.337201,-1.467243,0.309487,-0.056645,0.011663,-0.581728,0.443305,-0.232049,1.010448,0.580931,0.450014,0.199681,-7.462792,1.574428,0.044042,0.057865,0.000000,0.059861,-0.097603,0.000000
4.570000,2.640332,-0.337745,-1.467138,0.303720,-0.052183,0.009365,-0.571614,0.448741,-0.227470,1.012390,0.507579,0.465511,0.178565,-7.210993,1.518033,0.044605,0.056887,0.000000,0.052700,-0.097805,-0.000000
4.580000,2.643341,-0.338245,-1.467056,0.298054,-0.047671,0.007113,-0.561481,0.453456,-0.222738,1.014019,0.436712,0.480375,0.142407,-6.962086,1.452345,0.045096,0.055907,0.000000,0.045776,-0.097984,0.000000
4.590000,2.646293,-0.338699,-1.466996,0.292490,-0.043114,0.004910,-0.551333,0.457475,-0.217862,1.015238,0.368337,0.494558,0.102110,-6.707551,1.386562,0.045520,0.054925,0.000000,0.039087,-0.098132,0.000000
4.600000,2.649190,-0.339107,-1.466957,0.287028,-0.038521,0.002756,-0.541176,0.460823,-0.212847,1.016061,0.302561,0.508106,0.059945,-6.443269,1.323119,0.045878,0.053942,0.000000,0.032646,-0.098247,0.000000
4.610000,2.652034,-0.339469,-1.466940,0.281667,-0.033898,0.000653,-0.531012,0.463527,-0.207700,1.016437,0.239472,0.521020,0.008371,-6.176315,1.255731,0.046173,0.052958,0.000000,0.026459,-0.098326,-0.000000
4.620000,2.654824,-0.339785,-1.466944,0.276408,-0.029251,-0.001398,-0.520847,0.465613,-0.202427,1.016229,0.179034,0.533221,-0.058175,-5.919430,1.178173,0.046407,0.051973,0.000000,0.020524,-0.098354,-0.000000
4.630000,2.657562,-0.340054,-1.466968,0.271250,-0.024585,-0.003396,-0.510687,0.467107,-0.197036,1.015274,0.121083,0.544584,-0.137601,-5.671765,1.092512,0.046583,0.050989,0.000000,0.014823,-0.098316,0.000000
4.640000,2.660249,-0.340277,-1.467012,0.266194,-0.019908,-0.005339,-0.500542,0.468034,-0.191535,1.013477,0.065599,0.555071,-0.222876,-5.417481,1.006866,0.046704,0.050005,0.000000,0.009354,-0.098201,0.000000
4.650000,2.662886,-0.340452,-1.467075,0.261239,-0.015225,-0.007226,-0.490418,0.468419,-0.185934,1.010816,0.012733,0.564721,-0.311390,-5.152430,0.921480,0.046771,0.049022,0.000000,0.004133,-0.098008,-0.000000
4.660000,2.665473,-0.340581,-1.467157,0.256385,-0.010540,-0.009057,-0.480325,0.468289,-0.180241,1.007249,-0.037450,0.573500,-0.407949,-4.888269,0.831119,0.046786,0.048042,0.000000,-0.000834,-0.097730,0.000000
4.670000,2.668013,-0.340663,-1.467256,0.251633,-0.005859,-0.010831,-0.470273,0.467670,-0.174464,1.002657,-0.085032,0.581343,-0.519469,-4.635969,0.736358,0.046754,0.047066,0.000000,-0.005556,-0.097357,0.000000
4.680000,2.670506,-0.340698,-1.467373,0.246980,-0.001187,-0.012547,-0.460272,0.466588,-0.168614,0.996860,-0.130169,0.588228,-0.644653,-4.392980,0.639237,0.046675,0.046093,0.000000,-0.010047,-0.096869,-0.000000
4.690000,2.672953,-0.340687,-1.467507,0.242427,0.003473,-0.014203,-0.450336,0.465067,-0.162700,0.989764,-0.172892,0.594128,-0.774156,-4.145846,0.538743,0.046553,0.045126,0.000000,-0.014310,-0.096256,0.000000
4.700000,2.675355,-0.340629,-1.467657,0.237973,0.008115,-0.015801,-0.440477,0.463130,-0.156731,0.981377,-0.213086,0.599002,-0.905438,-3.889180,0.434322,0.046389,0.044166,0.000000,-0.018333,-0.095519,0.000000
4.710000,2.677712,-0.340525,-1.467823,0.233618,0.012735,-0.017338,-0.430708,0.460805,-0.150720,0.971655,-0.250675,0.602814,-1.044660,-3.632782,0.326948,0.046186,0.043214,0.000000,-0.022109,-0.094654,-0.000000
4.720000,2.680027,-0.340374,-1.468004,0.229359,0.017331,-0.018815,-0.421044,0.458117,-0.144675,0.960483,-0.285742,0.605541,-1.197324,-3.391757,0.217694,0.045947,0.042271,0.000000,-0.025645,-0.093646,0.000000
4.730000,2.682300,-0.340178,-1.468200,0.225197,0.021898,-0.020232,-0.411499,0.455090,-0.138609,0.947709,-0.318510,0.607168,-1.361370,-3.164650,0.106554,0.045673,0.041339,0.000000,-0.028963,-0.092481,0.000000
4.740000,2.684531,-0.339936,-1.468409,0.221129,0.026433,-0.021587,-0.402089,0.451747,-0.132532,0.933256,-0.349035,0.607672,-1.529290,-2.931539,-0.007650,0.045368,0.040419,0.000000,-0.032068,-0.091150,0.000000
4.750000,2.686722,-0.339649,-1.468631,0.217155,0.030933,-0.022882,-0.392833,0.448110,-0.126455,0.917123,-0.377141,0.607015,-1.699707,-2.682175,-0.125997,0.045032,0.039514,0.000000,-0.034942,-0.089652,0.000000
4.760000,2.688874,-0.339318,-1.468867,0.213272,0.035395,-0.024116,-0.383747,0.444204,-0.120391,0.899262,-0.402678,0.605152,-1.877324,-2.430697,-0.247431,0.044669,0.038624,0.000000,-0.037569,-0.087982,-0.000000
4.770000,2.690988,-0.338941,-1.469114,0.209480,0.039817,-0.025290,-0.374848,0.440056,-0.114352,0.879577,-0.425755,0.602067,-2.064388,-2.203765,-0.368610,0.044280,0.037753,0.000000,-0.039959,-0.086129,0.000000
4.780000,2.693064,-0.338521,-1.469372,0.205776,0.044196,-0.026403,-0.366156,0.435689,-0.108350,0.857974,-0.446753,0.597780,-2.258988,-1.999554,-0.489045,0.043869,0.036900,0.000000,-0.042149,-0.084083,0.000000
4.790000,2.695103,-0.338058,-1.469642,0.202157,0.048530,-0.027457,-0.357689,0.431121,-0.102397,0.834397,-0.465746,0.592286,-2.457907,-1.781624,-0.613182,0.043437,0.036069,0.000000,-0.044147,-0.081837,0.000000
4.800000,2.697107,-0.337551,-1.469921,0.198622,0.052818,-0.028451,-0.349468,0.426374,-0.096504,0.808816,-0.482386,0.585517,-2.660801,-1.529842,-0.745929,0.042987,0.035262,0.000000,-0.045916,-0.079388,0.000000
4.810000,2.699076,-0.337001,-1.470211,0.195168,0.057058,-0.029387,-0.341512,0.421473,-0.090686,0.781181,-0.496343,0.577367,-2.869278,-1.269474,-0.883875,0.042519,0.034480,0.000000,-0.047423,-0.076729,-0.000000
4.820000,2.701010,-0.336410,-1.470509,0.191792,0.061248,-0.030265,-0.333844,0.416447,-0.084957,0.751430,-0.507775,0.567839,-3.083202,-1.051057,-1.013600,0.042038,0.033726,0.000000,-0.048683,-0.073855,0.000000
4.830000,2.702911,-0.335776,-1.470816,0.188491,0.065387,-0.031086,-0.326484,0.411318,-0.079329,0.719517,-0.517364,0.557095,-3.301627,-0.866736,-1.135825,0.041546,0.033002,0.000000,-0.049762,-0.070759,0.000000
4.840000,2.704780,-0.335102,-1.471131,0.185262,0.069474,-0.031852,-0.319454,0.406100,-0.073815,0.685398,-0.525110,0.545123,-3.524286,-0.647516,-1.268713,0.041043,0.032310,0.000000,-0.050661,-0.067436,-0.000000
4.850000,2.706617,-0.334387,-1.471453,0.182102,0.073509,-0.032563,-0.312776,0.400816,-0.068427,0.649031,-0.530314,0.531721,-3.750994,-0.387041,-1.413920,0.040532,0.031652,0.000000,-0.051308,-0.063881,0.000000
4.860000,2.708422,-0.333632,-1.471782,0.179006,0.077491,-0.033220,-0.306473,0.395493,-0.063181,0.610378,-0.532851,0.516844,-3.981386,-0.130023,-1.559393,0.040017,0.031031,0.000000,-0.051690,-0.060091,-0.000000
4.870000,2.710197,-0.332837,-1.472118,0.175972,0.081419,-0.033826,-0.300568,0.390159,-0.058090,0.569403,-0.532915,0.500533,-4.215158,0.120947,-1.704281,0.039499,0.030449,0.000000,-0.051826,-0.056061,-0.000000
4.880000,2.711941,-0.332003,-1.472459,0.172995,0.085294,-0.034382,-0.295085,0.384835,-0.053170,0.526075,-0.530432,0.482759,-4.452047,0.383071,-1.852971,0.038980,0.029909,0.000000,-0.051707,-0.051787,0.000000
4.890000,2.713657,-0.331131,-1.472805,0.170070,0.089115,-0.034890,-0.290047,0.379550,-0.048435,0.480362,-0.525253,0.463474,-4.691758,0.658702,-2.005920,0.038464,0.029413,0.000000,-0.051318,-0.047267,0.000000
4.900000,2.715343,-0.330221,-1.473156,0.167194,0.092885,-0.035351,-0.285478,0.374330,-0.043900,0.432240,-0.517258,0.442640,-4.933989,0.947012,-2.162747,0.037954,0.028963,0.000000,-0.050645,-0.042497,-0.000000
4.910000,2.717001,-0.329273,-1.473512,0.164361,0.096602,-0.035768,-0.281402,0.369205,-0.039582,0.381683,-0.506313,0.420219,-5.178447,1.249213,-2.323590,0.037451,0.028562,0.000000,-0.049675,-0.037475,-0.000000
4.920000,2.718630,-0.328289,-1.473872,0.161566,0.100269,-0.036142,-0.277844,0.364204,-0.035496,0.328671,-0.492274,0.396168,-5.424840,1.566641,-2.488629,0.036960,0.028213,0.000000,-0.048392,-0.032200,-0.000000
4.930000,2.720232,-0.327268,-1.474235,0.158804,0.103886,-0.036477,-0.274829,0.359359,-0.031659,0.273186,-0.474980,0.370446,-5.672886,1.900634,-2.658059,0.036484,0.027918,0.000000,-0.046780,-0.026668,0.000000
4.940000,2.721806,-0.326211,-1.474601,0.156069,0.107456,-0.036776,-0.272380,0.354704,-0.028087,0.215213,-0.454261,0.343007,-5.922279,2.252529,-2.832060,0.036025,0.027679,0.000000,-0.044820,-0.020881,0.000000
4.950000,2.723353,-0.325119,-1.474971,0.153356,0.110980,-0.037039,-0.270524,0.350274,-0.024799,0.154740,-0.429930,0.313805,-6.172706,2.623665,-3.010806,0.035587,0.027500,0.000000,-0.042494,-0.014836,-0.000000
4.960000,2.724873,-0.323992,-1.475342,0.150659,0.114461,-0.037271,-0.269286,0.346106,-0.021811,0.091759,-0.401788,0.282791,-6.423903,3.015380,-3.194487,0.035175,0.027382,0.000000,-0.039781,-0.008533,0.000000
4.970000,2.726366,-0.322830,-1.475716,0.147971,0.117902,-0.037475,-0.268689,0.342238,-0.019143,0.026262,-0.369622,0.249915,162.587053,-204.537919,4.832908,0.034792,0.027329,0.000000,-0.036659,-0.001974,-0.000000
4.980000,2.727833,-0.321634,-1.476092,0.145285,0.121306,-0.037654,-0.268760,0.338713,-0.016813,3.343500,-4.492546,0.379449,333.906695,-408.969078,11.103677,0.034442,0.027343,0.000000,-0.454812,-0.338732,0.000000
4.990000,2.729272,-0.320404,-1.476469,0.142595,0.124677,-0.037812,-0.201819,0.252387,-0.011554,6.704396,-8.549004,0.471989,168.558850,-198.643775,1.931761,0.025686,0.020546,0.000000,-0.868082,-0.681121,0.000000
5.000000,2.730685,-0.319140,-1.476848,0.141249,0.126354,-0.037885,-0.134672,0.167733,-0.007373,6.714677,-8.465422,0.418085,1.028078,8.358219,-5.390431,0.017082,0.013717,0.000000,-0.861070,-0.683146,0.000000
