time,x,y,z,vx,vy,vz,ax,ay,az,jx,jy,jz,sx,sy,sz,roll,pitch,yaw,p,q,r
0.000000,-2.711105,-0.333431,-1.483564,-0.017013,-0.007092,0.008707,0.104242,0.060874,-0.033090,5.022249,2.633332,-1.210296,-8.936716,-37.390702,39.636313,0.006184,-0.010590,0.000000,0.266712,-0.508862,-0.000000
0.010000,-2.711275,-0.333502,-1.483476,-0.015971,-0.006483,0.008376,0.154464,0.087207,-0.045193,4.932882,2.259425,-0.813932,-129.600350,-118.494895,85.306055,0.008848,-0.015672,0.000000,0.228416,-0.499100,0.000000
0.020000,-2.711424,-0.333561,-1.483396,-0.013924,-0.005348,0.007803,0.202899,0.106062,-0.049369,2.430242,0.263434,0.495825,-228.387007,-174.473425,103.059687,0.010755,-0.020576,0.000000,0.027197,-0.247406,0.000000
0.030000,-2.711553,-0.333609,-1.483320,-0.011913,-0.004362,0.007389,0.203069,0.092476,-0.035277,0.365142,-1.230043,1.247261,-70.950559,-62.605535,22.718195,0.009391,-0.020623,0.000000,-0.123718,-0.039682,0.000000
0.040000,-2.711662,-0.333648,-1.483248,-0.009863,-0.003498,0.007098,0.210202,0.081461,-0.024424,1.011231,-0.988676,0.950189,59.805540,22.639289,-27.187372,0.008281,-0.021371,0.000000,-0.099721,-0.104839,0.000000
0.050000,-2.711750,-0.333679,-1.483178,-0.007709,-0.002733,0.006900,0.223294,0.072702,-0.016273,1.561253,-0.777257,0.703514,50.632353,19.813262,-22.466899,0.007397,-0.022720,0.000000,-0.078573,-0.160425,-0.000000
0.060000,-2.711816,-0.333703,-1.483110,-0.005397,-0.002044,0.006772,0.241427,0.065916,-0.010353,2.023878,-0.592411,0.500851,42.304667,17.313743,-18.363864,0.006710,-0.024579,0.000000,-0.059996,-0.207214,0.000000
0.070000,-2.711858,-0.333720,-1.483043,-0.002880,-0.001414,0.006693,0.263771,0.060854,-0.006256,2.407346,-0.430983,0.336237,34.779286,15.118622,-14.836550,0.006197,-0.026864,0.000000,-0.043716,-0.245979,-0.000000
0.080000,-2.711874,-0.333731,-1.482976,-0.000121,-0.000827,0.006647,0.289574,0.057297,-0.003628,2.719464,-0.290039,0.204120,28.013042,13.205795,-11.843262,0.005836,-0.029499,0.000000,-0.029467,-0.277478,0.000000
0.090000,-2.711861,-0.333737,-1.482910,0.002911,-0.000268,0.006621,0.318160,0.055053,-0.002173,2.967607,-0.166867,0.099371,21.962743,11.553153,-9.342281,0.005608,-0.032414,0.000000,-0.016995,-0.302447,-0.000000
0.100000,-2.711816,-0.333737,-1.482844,0.006242,0.000274,0.006604,0.348926,0.053959,-0.001641,3.158719,-0.058976,0.017275,16.585192,10.138586,-7.291882,0.005496,-0.035547,0.000000,-0.006060,-0.321587,0.000000
0.110000,-2.711736,-0.333731,-1.482778,0.009890,0.000811,0.006588,0.381335,0.053874,-0.001828,3.299311,0.035905,-0.046466,11.837192,8.939988,-5.650360,0.005487,-0.038845,0.000000,0.003559,-0.335563,0.000000
0.120000,-2.711618,-0.333720,-1.482712,0.013869,0.001352,0.006567,0.414912,0.054677,-0.002570,3.395462,0.119824,-0.095732,7.675635,7.935258,-4.376010,0.005567,-0.042259,0.000000,0.012064,-0.344997,0.000000
0.130000,-2.711459,-0.333704,-1.482647,0.018188,0.001904,0.006536,0.449244,0.056270,-0.003742,3.452823,0.194610,-0.133987,4.057310,7.102284,-3.427109,0.005728,-0.045745,0.000000,0.019639,-0.350470,-0.000000
0.140000,-2.711254,-0.333682,-1.482581,0.022853,0.002477,0.006492,0.483969,0.058570,-0.005250,3.476609,0.261870,-0.164275,0.938779,6.418948,-2.761933,0.005960,-0.049268,0.000000,0.026443,-0.352516,-0.000000
0.150000,-2.711002,-0.333655,-1.482517,0.027867,0.003076,0.006431,0.518776,0.061508,-0.007028,3.471599,0.322989,-0.189225,-1.722932,5.863151,-2.338780,0.006257,-0.052795,0.000000,0.032617,-0.351623,0.000000
0.160000,-2.710697,-0.333621,-1.482453,0.033229,0.003707,0.006352,0.553401,0.065029,-0.009035,3.442150,0.379133,-0.211050,-3.970722,5.412802,-2.115952,0.006612,-0.056300,0.000000,0.038277,-0.348234,-0.000000
0.170000,-2.710337,-0.333580,-1.482390,0.038935,0.004376,0.006251,0.587619,0.069090,-0.011249,3.392184,0.431245,-0.231544,-5.852414,5.042292,-2.044900,0.007022,-0.059760,0.000000,0.043519,-0.342746,0.000000
0.180000,-2.709918,-0.333533,-1.482328,0.044981,0.005089,0.006127,0.621245,0.073654,-0.013666,3.325102,0.479979,-0.251948,-7.485602,4.668661,-1.964776,0.007483,-0.063155,0.000000,0.048409,-0.335506,0.000000
0.190000,-2.709437,-0.333479,-1.482267,0.051360,0.005850,0.005977,0.654121,0.078690,-0.016288,3.242472,0.524618,-0.270840,-8.887511,4.290856,-1.875078,0.007990,-0.066470,0.000000,0.052874,-0.326686,-0.000000
0.200000,-2.708891,-0.333416,-1.482208,0.058064,0.006663,0.005801,0.686094,0.084147,-0.019082,3.147352,0.565796,-0.289450,-9.552984,4.335760,-2.613083,0.008540,-0.069689,0.000000,0.056979,-0.316598,0.000000
0.210000,-2.708276,-0.333345,-1.482151,0.065082,0.007532,0.005596,0.717068,0.090006,-0.022077,3.051413,0.611334,-0.323101,-9.584018,4.733155,-4.042878,0.009130,-0.072803,0.000000,0.061504,-0.306314,0.000000
0.220000,-2.707589,-0.333266,-1.482096,0.072405,0.008463,0.005359,0.747122,0.096373,-0.025544,2.955671,0.660459,-0.370307,-10.597123,4.173557,-3.602651,0.009770,-0.075816,0.000000,0.066363,-0.295927,-0.000000
0.230000,-2.706828,-0.333176,-1.482044,0.080025,0.009460,0.005085,0.776182,0.103215,-0.029483,2.839470,0.694805,-0.395154,-12.679619,2.612189,-1.209224,0.010457,-0.078721,0.000000,0.069734,-0.283631,-0.000000
0.240000,-2.705989,-0.333076,-1.481995,0.087929,0.010527,0.004770,0.803912,0.110269,-0.033447,2.702079,0.712703,-0.394492,-13.686221,1.814052,-0.318442,0.011165,-0.081489,0.000000,0.071461,-0.269418,-0.000000
0.250000,-2.705069,-0.332966,-1.481949,0.096103,0.011665,0.004416,0.830223,0.117469,-0.037373,2.565746,0.731086,-0.401523,-13.315420,1.939973,-1.225351,0.011886,-0.084110,0.000000,0.073228,-0.255281,0.000000
0.260000,-2.704067,-0.332843,-1.481906,0.104533,0.012877,0.004022,0.855227,0.124891,-0.041478,2.435770,0.751502,-0.418999,-13.072137,1.781712,-1.568482,0.012629,-0.086595,0.000000,0.075183,-0.241716,-0.000000
0.270000,-2.702979,-0.332708,-1.481868,0.113207,0.014163,0.003586,0.878939,0.132499,-0.045753,2.304303,0.766720,-0.432893,-13.442993,1.239226,-1.214967,0.013390,-0.088945,0.000000,0.076612,-0.228051,-0.000000
0.280000,-2.701803,-0.332560,-1.481835,0.122112,0.015527,0.003107,0.901313,0.140226,-0.050136,2.166911,0.776287,-0.443298,-13.949897,0.729801,-0.987657,0.014161,-0.091156,0.000000,0.077474,-0.213847,0.000000
0.290000,-2.700536,-0.332398,-1.481806,0.131234,0.016968,0.002584,0.922277,0.148025,-0.054619,2.025305,0.781316,-0.452646,-14.094862,0.276561,-0.847250,0.014939,-0.093222,0.000000,0.077879,-0.199256,0.000000
0.300000,-2.699178,-0.332220,-1.481783,0.140558,0.018487,0.002015,0.941819,0.155852,-0.059189,1.885013,0.781818,-0.460243,-13.843914,-0.175843,-0.653830,0.015719,-0.095142,0.000000,0.077830,-0.184843,0.000000
0.310000,-2.697725,-0.332028,-1.481766,0.150070,0.020085,0.001400,0.959977,0.163661,-0.063824,1.748427,0.777799,-0.465723,-13.541539,-0.627873,-0.467093,0.016496,-0.096920,0.000000,0.077331,-0.170853,-0.000000
0.320000,-2.696177,-0.331819,-1.481755,0.159757,0.021760,0.000738,0.976787,0.171408,-0.068503,1.614183,0.769261,-0.469585,-13.426045,-1.083411,-0.354919,0.017266,-0.098560,0.000000,0.076382,-0.157143,-0.000000
0.330000,-2.694530,-0.331593,-1.481751,0.169606,0.023513,0.000030,0.992261,0.179046,-0.073215,1.479906,0.756131,-0.472821,-13.405201,-1.543655,-0.299493,0.018024,-0.100063,0.000000,0.074977,-0.143467,0.000000
0.340000,-2.692784,-0.331348,-1.481754,0.179602,0.025341,-0.000726,1.006385,0.186531,-0.077960,1.346078,0.738387,-0.475575,-13.200900,-2.002016,-0.214957,0.018765,-0.101430,0.000000,0.073115,-0.129869,-0.000000
0.350000,-2.690938,-0.331086,-1.481766,0.189733,0.027243,-0.001529,1.019182,0.193814,-0.082727,1.215888,0.716091,-0.477120,-12.764940,-2.453526,-0.084800,0.019486,-0.102661,0.000000,0.070803,-0.116678,0.000000
0.360000,-2.688990,-0.330804,-1.481785,0.199986,0.029217,-0.002380,1.030703,0.200852,-0.087502,1.090780,0.689317,-0.477271,-12.297636,-2.902325,0.031903,0.020181,-0.103764,0.000000,0.068051,-0.104036,0.000000
0.370000,-2.686938,-0.330501,-1.481813,0.210348,0.031261,-0.003279,1.040998,0.207601,-0.092272,0.969935,0.658044,-0.476482,-11.948798,-3.359477,0.096105,0.020847,-0.104742,0.000000,0.064857,-0.091857,0.000000
0.380000,-2.684783,-0.330178,-1.481851,0.220806,0.033369,-0.004226,1.050102,0.214013,-0.097032,0.851804,0.622127,-0.475349,-11.665616,-3.823756,0.126421,0.021479,-0.105601,0.000000,0.061206,-0.079977,-0.000000
0.390000,-2.682522,-0.329834,-1.481898,0.231350,0.035541,-0.005220,1.058034,0.220043,-0.101779,0.736623,0.581569,-0.473954,-11.272128,-4.279098,0.171445,0.022071,-0.106342,0.000000,0.057098,-0.068417,0.000000
0.400000,-2.680156,-0.329468,-1.481955,0.241967,0.037770,-0.006262,1.064834,0.225645,-0.106511,0.626361,0.536545,-0.471920,-10.737117,-4.720595,0.237311,0.022621,-0.106970,0.000000,0.052554,-0.057377,0.000000
0.410000,-2.677683,-0.329079,-1.482023,0.252646,0.040054,-0.007350,1.070561,0.230774,-0.111218,0.521881,0.487157,-0.469207,-10.187561,-5.158406,0.291996,0.023122,-0.107490,0.000000,0.047583,-0.046940,-0.000000
0.420000,-2.675103,-0.328667,-1.482102,0.263378,0.042386,-0.008486,1.075272,0.235388,-0.115895,0.422610,0.433377,-0.466080,-9.718407,-5.601728,0.321635,0.023572,-0.107909,0.000000,0.042182,-0.037045,0.000000
0.430000,-2.672415,-0.328231,-1.482193,0.274152,0.044761,-0.009668,1.079014,0.239442,-0.120539,0.327513,0.375123,-0.462775,-9.296222,-6.046771,0.337651,0.023966,-0.108231,0.000000,0.036344,-0.027583,0.000000
0.440000,-2.669620,-0.327771,-1.482295,0.284958,0.047175,-0.010897,1.081822,0.242890,-0.125150,0.236685,0.312442,-0.459327,-8.809575,-6.480256,0.357399,0.024299,-0.108461,0.000000,0.030073,-0.018563,0.000000
0.450000,-2.666716,-0.327287,-1.482411,0.295788,0.049619,-0.012171,1.083747,0.245690,-0.129726,0.151321,0.245517,-0.455627,-8.238794,-6.898878,0.380810,0.024567,-0.108603,0.000000,0.023388,-0.010103,0.000000
0.460000,-2.663704,-0.326779,-1.482539,0.306633,0.052088,-0.013491,1.084849,0.247801,-0.134263,0.071910,0.174464,-0.451711,-7.664349,-7.310459,0.397654,0.024767,-0.108663,0.000000,0.016299,-0.002248,-0.000000
0.470000,-2.660584,-0.326246,-1.482680,0.317485,0.054575,-0.014856,1.085185,0.249180,-0.138760,-0.001966,0.099308,-0.447674,-7.146281,-7.720448,0.409846,0.024893,-0.108648,0.000000,0.008811,0.005044,0.000000
0.480000,-2.657354,-0.325687,-1.482836,0.328337,0.057072,-0.016266,1.084809,0.249787,-0.143216,-0.071016,0.020055,-0.443514,-6.663404,-8.125290,0.422276,0.024943,-0.108562,0.000000,0.000923,0.011847,-0.000000
0.490000,-2.654017,-0.325104,-1.483006,0.339181,0.059571,-0.017721,1.083765,0.249581,-0.147630,-0.135234,-0.063198,-0.439228,-6.145384,-8.516404,0.432844,0.024912,-0.108411,0.000000,-0.007355,0.018161,0.000000
0.500000,-2.650571,-0.324496,-1.483190,0.350012,0.062064,-0.019219,1.082105,0.248523,-0.152001,-0.193924,-0.150273,-0.434857,-5.580330,-8.892701,0.438657,0.024796,-0.108199,0.000000,-0.016005,0.023918,0.000000
0.510000,-2.647017,-0.323863,-1.483390,0.360823,0.064541,-0.020761,1.079887,0.246575,-0.156327,-0.246841,-0.241052,-0.430455,-5.019101,-9.258503,0.442632,0.024592,-0.107932,0.000000,-0.025016,0.029097,0.000000
0.520000,-2.643354,-0.323205,-1.483605,0.371610,0.066995,-0.022346,1.077168,0.243702,-0.160610,-0.294306,-0.335443,-0.426004,-4.498267,-9.613186,0.453661,0.024296,-0.107617,0.000000,-0.034378,0.033729,0.000000
0.530000,-2.639584,-0.322523,-1.483837,0.382367,0.069415,-0.023973,1.074000,0.239866,-0.164848,-0.336806,-0.433315,-0.421382,-4.004417,-9.953985,0.472198,0.023904,-0.107258,0.000000,-0.044078,0.037864,-0.000000
0.540000,-2.635707,-0.321817,-1.484085,0.393090,0.071792,-0.025642,1.070432,0.235035,-0.169038,-0.374394,-0.534522,-0.416560,-3.495162,-10.280243,0.487617,0.023414,-0.106859,0.000000,-0.054103,0.041507,0.000000
0.550000,-2.631723,-0.321087,-1.484350,0.403775,0.074116,-0.027354,1.066513,0.229176,-0.173179,-0.406709,-0.638920,-0.411629,-2.963419,-10.592245,0.497231,0.022822,-0.106427,0.000000,-0.064436,0.044623,0.000000
0.560000,-2.627632,-0.320335,-1.484632,0.414420,0.076376,-0.029106,1.062298,0.222257,-0.177270,-0.433662,-0.746367,-0.406616,-2.440020,-10.888864,0.509366,0.022126,-0.105967,0.000000,-0.075066,0.047206,-0.000000
0.570000,-2.623434,-0.319560,-1.484932,0.425021,0.078561,-0.030899,1.057839,0.214249,-0.181311,-0.455510,-0.856697,-0.401442,-1.947552,-11.166725,0.531832,0.021321,-0.105483,0.000000,-0.085974,0.049281,0.000000
0.580000,-2.619131,-0.318763,-1.485250,0.435577,0.080661,-0.032732,1.053187,0.205123,-0.185299,-0.472613,-0.969702,-0.395979,-1.478109,-11.424745,0.562793,0.020406,-0.104981,0.000000,-0.097140,0.050882,0.000000
0.590000,-2.614723,-0.317946,-1.485587,0.446085,0.082664,-0.034605,1.048387,0.194855,-0.189231,-0.485072,-1.085192,-0.390186,-1.005768,-11.665605,0.593396,0.019378,-0.104465,0.000000,-0.108546,0.052020,-0.000000
0.600000,-2.610209,-0.317110,-1.485942,0.456545,0.084558,-0.036517,1.043486,0.183419,-0.193103,-0.492729,-1.203014,-0.384111,-0.526099,-11.890639,0.622789,0.018235,-0.103940,0.000000,-0.120175,0.052681,0.000000
0.610000,-2.605592,-0.316255,-1.486317,0.466955,0.086332,-0.038467,1.038533,0.170794,-0.196913,-0.495594,-1.323005,-0.377730,-0.058053,-12.096510,0.657698,0.016975,-0.103411,0.000000,-0.132012,0.052865,0.000000
0.620000,-2.600870,-0.315383,-1.486711,0.477315,0.087974,-0.040455,1.033574,0.156959,-0.200657,-0.493890,-1.444944,-0.370957,0.384193,-12.276906,0.701324,0.015595,-0.102883,0.000000,-0.144036,0.052595,0.000000
0.630000,-2.596045,-0.314496,-1.487126,0.487626,0.089471,-0.042480,1.028655,0.141895,-0.204332,-0.487910,-1.568543,-0.363704,0.805379,-12.431320,0.751888,0.014094,-0.102359,0.000000,-0.156216,0.051899,-0.000000
0.640000,-2.591118,-0.313594,-1.487561,0.497888,0.090812,-0.044542,1.023816,0.125588,-0.207931,-0.477782,-1.693571,-0.355919,1.221453,-12.566445,0.806597,0.012471,-0.101845,0.000000,-0.168530,0.050789,0.000000
0.650000,-2.586088,-0.312680,-1.488017,0.508103,0.091983,-0.046639,1.019099,0.108024,-0.211450,-0.463481,-1.819872,-0.347572,1.634850,-12.685088,0.866615,0.010724,-0.101343,0.000000,-0.180963,0.049264,0.000000
0.660000,-2.580956,-0.311754,-1.488494,0.518270,0.092972,-0.048771,1.014546,0.089191,-0.214883,-0.445085,-1.947272,-0.338587,2.033765,-12.781263,0.934361,0.008851,-0.100859,0.000000,-0.193498,0.047330,-0.000000
0.670000,-2.575722,-0.310820,-1.488992,0.528394,0.093767,-0.050937,1.010197,0.069079,-0.218222,-0.422806,-2.075497,-0.328885,2.409668,-12.845251,1.008160,0.006854,-0.100397,0.000000,-0.206107,0.045007,0.000000
0.680000,-2.570388,-0.309879,-1.489513,0.538474,0.094354,-0.053135,1.006090,0.047681,-0.221461,-0.396892,-2.204177,-0.318424,2.765328,-12.877469,1.087418,0.004729,-0.099959,0.000000,-0.218755,0.042322,0.000000
0.690000,-2.564953,-0.308933,-1.490055,0.548515,0.094721,-0.055366,1.002260,0.024995,-0.224591,-0.367499,-2.333047,-0.307136,3.110209,-12.889323,1.175626,0.002479,-0.099550,0.000000,-0.231414,0.039288,0.000000
0.700000,-2.559418,-0.307985,-1.490620,0.558519,0.094854,-0.057627,0.998740,0.001020,-0.227603,-0.334688,-2.461964,-0.294911,3.446053,-12.884136,1.275149,0.000101,-0.099173,0.000000,-0.244071,0.035911,0.000000
0.710000,-2.553782,-0.307036,-1.491208,0.568490,0.094741,-0.059918,0.995566,-0.024244,-0.230489,-0.298578,-2.590729,-0.281633,3.765562,-12.852969,1.384158,-0.002403,-0.098832,0.000000,-0.256708,0.032202,0.000000
0.720000,-2.548048,-0.306090,-1.491818,0.578431,0.094369,-0.062237,0.992769,-0.050795,-0.233236,-0.259376,-2.719023,-0.267228,4.062414,-12.785771,1.498408,-0.005033,-0.098529,0.000000,-0.269292,0.028180,0.000000
0.730000,-2.542214,-0.305149,-1.492452,0.588345,0.093725,-0.064583,0.990378,-0.078625,-0.235833,-0.217330,-2.846445,-0.251665,4.338083,-12.684166,1.618916,-0.007789,-0.098268,0.000000,-0.281785,0.023871,-0.000000
0.740000,-2.536281,-0.304215,-1.493110,0.598238,0.092796,-0.066953,0.988422,-0.107724,-0.238269,-0.172615,-2.972707,-0.234850,4.599628,-12.560080,1.752393,-0.010669,-0.098052,0.000000,-0.294159,0.019290,0.000000
0.750000,-2.530249,-0.303293,-1.493791,0.608114,0.091571,-0.069348,0.986926,-0.138079,-0.240530,-0.125337,-3.097646,-0.216617,4.848885,-12.416888,1.900097,-0.013672,-0.097883,0.000000,-0.306399,0.014446,0.000000
0.760000,-2.524119,-0.302384,-1.494497,0.617977,0.090035,-0.071764,0.985915,-0.169676,-0.242602,-0.075637,-3.221044,-0.196848,5.080334,-12.245582,2.058281,-0.016797,-0.097763,0.000000,-0.318486,0.009353,0.000000
0.770000,-2.517889,-0.301492,-1.495227,0.627832,0.088177,-0.074200,0.985413,-0.202500,-0.244467,-0.023730,-3.342558,-0.175452,5.287733,-12.036226,2.226250,-0.020042,-0.097695,0.000000,-0.330385,0.004031,0.000000
0.780000,-2.511562,-0.300620,-1.495981,0.637685,0.085985,-0.076653,0.985441,-0.236528,-0.246111,0.030118,-3.461769,-0.152323,5.471922,-11.790732,2.406274,-0.023404,-0.097682,0.000000,-0.342059,-0.001496,0.000000
0.790000,-2.505136,-0.299772,-1.496760,0.647541,0.083446,-0.079122,0.986016,-0.271735,-0.247514,0.085708,-3.578373,-0.127326,5.640290,-11.521193,2.600019,-0.026883,-0.097725,0.000000,-0.353478,-0.007209,0.000000
0.800000,-2.498611,-0.298951,-1.497563,0.657405,0.080550,-0.081604,0.987155,-0.308095,-0.248657,0.142923,-3.692193,-0.100323,5.795706,-11.230698,2.805374,-0.030474,-0.097827,0.000000,-0.364629,-0.013098,0.000000
0.810000,-2.491988,-0.298161,-1.498392,0.667284,0.077285,-0.084095,0.988874,-0.345579,-0.249520,0.201622,-3.802987,-0.071219,5.932470,-10.910420,3.022298,-0.034175,-0.097987,0.000000,-0.375490,-0.019151,0.000000
0.820000,-2.485265,-0.297406,-1.499245,0.677183,0.073639,-0.086594,0.991187,-0.384155,-0.250082,0.261573,-3.910401,-0.039877,6.042150,-10.551804,3.258584,-0.037984,-0.098210,0.000000,-0.386029,-0.025346,0.000000
0.830000,-2.478444,-0.296688,-1.500124,0.687108,0.069601,-0.089097,0.994105,-0.423787,-0.250318,0.322465,-4.014023,-0.006047,6.125677,-10.156947,3.516127,-0.041896,-0.098495,0.000000,-0.396209,-0.031657,0.000000
0.840000,-2.471523,-0.296014,-1.501027,0.697065,0.065163,-0.091600,0.997637,-0.464435,-0.250203,0.384086,-4.113540,0.030446,6.193581,-9.736398,3.784993,-0.045908,-0.098843,0.000000,-0.406005,-0.038064,0.000000
0.850000,-2.464503,-0.295385,-1.501956,0.707061,0.060313,-0.094101,1.001787,-0.506058,-0.249709,0.446337,-4.208751,0.069653,6.249473,-9.293199,4.057490,-0.050016,-0.099257,0.000000,-0.415401,-0.044560,0.000000
0.860000,-2.457382,-0.294807,-1.502909,0.717101,0.055042,-0.096595,1.006563,-0.548610,-0.248809,0.509076,-4.299404,0.111596,6.285812,-8.819798,4.341619,-0.054216,-0.099736,0.000000,-0.424377,-0.051132,-0.000000
0.870000,-2.450161,-0.294284,-1.503888,0.727192,0.049341,-0.099077,1.011969,-0.592046,-0.247477,0.572053,-4.385147,0.156485,6.293261,-8.307932,4.658876,-0.058504,-0.100281,0.000000,-0.432903,-0.057759,-0.000000
0.880000,-2.442838,-0.293821,-1.504891,0.737340,0.043201,-0.101544,1.018004,-0.636313,-0.245680,0.634941,-4.465563,0.204773,6.273375,-7.759571,5.009453,-0.062874,-0.100893,0.000000,-0.440948,-0.064415,0.000000
0.890000,-2.435414,-0.293420,-1.505918,0.747552,0.036614,-0.103991,1.024668,-0.681357,-0.243381,0.697521,-4.540338,0.256674,6.238020,-7.185255,5.364615,-0.067323,-0.101572,0.000000,-0.448488,-0.071082,0.000000
0.900000,-2.427887,-0.293088,-1.506970,0.757834,0.029574,-0.106412,1.031955,-0.727120,-0.240546,0.759701,-4.609268,0.312066,6.192256,-6.587236,5.708765,-0.071844,-0.102318,0.000000,-0.455509,-0.077753,0.000000
0.910000,-2.420257,-0.292829,-1.508047,0.768191,0.022072,-0.108802,1.039862,-0.773542,-0.237140,0.821366,-4.672083,0.370849,6.127793,-5.958256,6.062556,-0.076433,-0.103131,0.000000,-0.461992,-0.084417,0.000000
0.920000,-2.412523,-0.292647,-1.509147,0.778631,0.014103,-0.111155,1.048382,-0.820562,-0.233129,0.882257,-4.728433,0.433317,6.031264,-5.292971,6.466204,-0.081084,-0.104011,0.000000,-0.467910,-0.091055,0.000000
0.930000,-2.404685,-0.292547,-1.510270,0.789159,0.005661,-0.113464,1.057507,-0.868111,-0.228474,0.941991,-4.777942,0.500173,5.904399,-4.593413,6.916397,-0.085791,-0.104958,0.000000,-0.473241,-0.097639,-0.000000
0.940000,-2.396740,-0.292534,-1.511416,0.799781,-0.003259,-0.115724,1.067222,-0.916120,-0.223126,1.000345,-4.820301,0.571645,5.765198,-3.866400,7.358542,-0.090549,-0.105971,0.000000,-0.477966,-0.104153,0.000000
0.950000,-2.388689,-0.292612,-1.512584,0.810503,-0.012662,-0.117927,1.077514,-0.964517,-0.217041,1.057295,-4.855270,0.647344,5.620430,-3.114640,7.768876,-0.095351,-0.107050,0.000000,-0.482069,-0.110594,0.000000
0.960000,-2.380530,-0.292787,-1.513774,0.821331,-0.022550,-0.120065,1.088368,-1.013226,-0.210179,1.112754,-4.882594,0.727022,5.457857,-2.333513,8.184900,-0.100191,-0.108193,0.000000,-0.485531,-0.116956,-0.000000
0.970000,-2.372262,-0.293063,-1.514986,0.832271,-0.032926,-0.122130,1.099769,-1.062169,-0.202500,1.166452,-4.901941,0.811042,5.261261,-1.515889,8.664365,-0.105062,-0.109401,0.000000,-0.488332,-0.123219,0.000000
0.980000,-2.363885,-0.293445,-1.516217,0.843327,-0.043793,-0.124115,1.111697,-1.111265,-0.193958,1.217979,-4.912912,0.900309,5.033908,-0.662545,9.198341,-0.109958,-0.110672,0.000000,-0.490453,-0.129357,0.000000
0.990000,-2.355396,-0.293939,-1.517468,0.854504,-0.055152,-0.126010,1.124128,-1.160427,-0.184494,1.267130,-4.915191,0.995009,4.797912,0.216665,9.707759,-0.114871,-0.112004,0.000000,-0.491879,-0.135359,0.000000
1.000000,-2.346795,-0.294548,-1.518737,0.865809,-0.067002,-0.127805,1.137039,-1.209569,-0.174058,1.313937,-4.908578,1.094465,4.560519,1.115641,10.162458,-0.119796,-0.113397,0.000000,-0.492592,-0.141223,-0.000000
1.010000,-2.338080,-0.295279,-1.520024,0.877245,-0.079343,-0.129491,1.150407,-1.258599,-0.162605,1.358341,-4.892879,1.198258,4.307128,2.041133,10.615193,-0.124723,-0.114849,0.000000,-0.492579,-0.146947,-0.000000
1.020000,-2.329250,-0.296135,-1.521327,0.888817,-0.092174,-0.131057,1.164206,-1.307426,-0.150093,1.400080,-4.867756,1.306769,4.021561,3.008639,11.135885,-0.129648,-0.116359,0.000000,-0.491823,-0.152512,0.000000
1.030000,-2.320303,-0.297122,-1.522645,0.900529,-0.105491,-0.132493,1.178409,-1.355954,-0.136470,1.438772,-4.832706,1.420976,3.708268,4.017402,11.709566,-0.134560,-0.117925,0.000000,-0.490296,-0.157900,0.000000
1.040000,-2.311239,-0.298245,-1.523977,0.912385,-0.119293,-0.133786,1.192982,-1.404080,-0.121673,1.474245,-4.787408,1.540960,3.389665,5.045679,12.239452,-0.139454,-0.119546,0.000000,-0.487981,-0.163101,0.000000
1.050000,-2.302056,-0.299508,-1.525321,0.924389,-0.133573,-0.134926,1.207894,-1.451702,-0.105650,1.506565,-4.731792,1.665765,3.073302,6.081267,12.692451,-0.144320,-0.121220,0.000000,-0.484869,-0.168116,0.000000
1.060000,-2.292751,-0.300917,-1.526675,0.936543,-0.148327,-0.135899,1.223113,-1.498716,-0.088358,1.535711,-4.665782,1.794809,2.744845,7.138961,13.131386,-0.149152,-0.122944,0.000000,-0.480951,-0.172942,0.000000
1.070000,-2.283325,-0.302475,-1.528039,0.948851,-0.163547,-0.136693,1.238608,-1.545018,-0.069754,1.561462,-4.589013,1.928393,2.387881,8.248736,13.628790,-0.153940,-0.124718,0.000000,-0.476204,-0.177568,-0.000000
1.080000,-2.273774,-0.304188,-1.529409,0.961315,-0.179227,-0.137294,1.254342,-1.590496,-0.049790,1.583469,-4.500808,2.067385,2.007154,9.408057,14.163796,-0.158676,-0.126538,0.000000,-0.470583,-0.181976,0.000000
1.090000,-2.264098,-0.306059,-1.530785,0.973938,-0.195357,-0.137689,1.270277,-1.635034,-0.028407,1.601605,-4.400852,2.211669,1.626039,10.574958,14.634539,-0.163352,-0.128404,0.000000,-0.464061,-0.186159,0.000000
1.100000,-2.254296,-0.308095,-1.532163,0.986721,-0.211928,-0.137863,1.286374,-1.678513,-0.005557,1.615990,-4.289308,2.360075,1.252140,11.728548,15.013765,-0.167958,-0.130312,0.000000,-0.456641,-0.190121,-0.000000
1.110000,-2.244364,-0.310298,-1.533542,0.999666,-0.228928,-0.137800,1.302597,-1.720820,0.018795,1.626648,-4.166281,2.511944,0.870956,12.897029,15.365056,-0.172485,-0.132261,0.000000,-0.448324,-0.193862,0.000000
1.120000,-2.234302,-0.312673,-1.534919,1.012773,-0.246344,-0.137487,1.318907,-1.761839,0.044682,1.633409,-4.031368,2.667377,0.467139,14.130561,15.740167,-0.176925,-0.134248,0.000000,-0.439070,-0.197370,0.000000
1.130000,-2.224109,-0.315225,-1.536292,1.026044,-0.264164,-0.136907,1.335265,-1.801447,0.072142,1.635991,-3.883670,2.826747,0.046158,15.423689,16.114344,-0.181267,-0.136271,0.000000,-0.428798,-0.200630,0.000000
1.140000,-2.213781,-0.317956,-1.537657,1.039478,-0.282373,-0.136044,1.351627,-1.839512,0.101217,1.634332,-3.722894,2.989663,-0.369556,16.706008,16.412277,-0.185502,-0.138328,0.000000,-0.417466,-0.203635,-0.000000
1.150000,-2.203319,-0.320872,-1.539013,1.053076,-0.300955,-0.134882,1.367952,-1.875905,0.131936,1.628600,-3.549550,3.154993,-0.774139,17.940769,16.618719,-0.189617,-0.140415,0.000000,-0.405096,-0.206390,-0.000000
1.160000,-2.192720,-0.323976,-1.540355,1.066837,-0.319891,-0.133405,1.384199,-1.910503,0.164317,1.618849,-3.364079,3.322038,-1.180833,19.175050,16.776765,-0.193604,-0.142531,0.000000,-0.391707,-0.208895,0.000000
1.170000,-2.181982,-0.327270,-1.541681,1.080760,-0.339165,-0.131596,1.400329,-1.943187,0.198377,1.604983,-3.166049,3.490528,-1.599320,20.497591,16.906098,-0.197452,-0.144673,0.000000,-0.377235,-0.211138,0.000000
1.180000,-2.171105,-0.330759,-1.542987,1.094844,-0.358755,-0.129438,1.416299,-1.973824,0.234128,1.586863,-2.954127,3.660160,-2.023664,21.897378,16.984115,-0.201149,-0.146838,0.000000,-0.361525,-0.213104,-0.000000
1.190000,-2.160085,-0.334445,-1.544269,1.109086,-0.378641,-0.126913,1.432066,-2.002269,0.271580,1.564510,-2.728101,3.830210,-2.438645,23.249956,16.976865,-0.204683,-0.149024,0.000000,-0.344517,-0.214786,-0.000000
1.200000,-2.148923,-0.338332,-1.545525,1.123485,-0.398800,-0.124006,1.447589,-2.028386,0.310732,1.538090,-2.489128,3.999697,-2.841843,24.506321,16.892684,-0.208040,-0.151226,0.000000,-0.326278,-0.216186,0.000000
1.210000,-2.137616,-0.342421,-1.546749,1.138038,-0.419209,-0.120699,1.462828,-2.052052,0.351574,1.507673,-2.237975,4.168064,-3.241108,25.748317,16.744412,-0.211208,-0.153443,0.000000,-0.306840,-0.217299,-0.000000
1.220000,-2.126162,-0.346716,-1.547939,1.152742,-0.439841,-0.116974,1.477742,-2.073146,0.394093,1.473268,-1.974161,4.334585,-3.636942,27.085843,16.488164,-0.214176,-0.155671,0.000000,-0.286102,-0.218115,-0.000000
1.230000,-2.114561,-0.351218,-1.549089,1.167593,-0.460672,-0.112817,1.492293,-2.091535,0.438265,1.434934,-1.696258,4.497827,-4.024499,28.494042,16.104889,-0.216930,-0.157908,0.000000,-0.263849,-0.218612,0.000000
1.240000,-2.102810,-0.355929,-1.550195,1.182588,-0.481672,-0.108209,1.506441,-2.107071,0.484050,1.392778,-1.404281,4.656683,-4.400472,29.819029,15.646542,-0.219453,-0.160149,0.000000,-0.240007,-0.218777,-0.000000
1.250000,-2.090909,-0.360851,-1.551253,1.197722,-0.502813,-0.103136,1.520149,-2.119621,0.531399,1.346924,-1.099877,4.810758,-4.765235,31.012393,15.161875,-0.221730,-0.162391,0.000000,-0.214677,-0.218608,-0.000000
1.260000,-2.078856,-0.365986,-1.552258,1.212991,-0.524065,-0.097581,1.533380,-2.129069,0.580265,1.297473,-0.784033,4.959921,-5.118336,32.172335,14.603908,-0.223746,-0.164631,0.000000,-0.187897,-0.218104,0.000000
1.270000,-2.066649,-0.371333,-1.553205,1.228389,-0.545395,-0.091530,1.546098,-2.135301,0.630597,1.244558,-0.456430,5.102836,-5.453767,33.399181,13.828440,-0.225487,-0.166865,0.000000,-0.159543,-0.217247,-0.000000
1.280000,-2.054288,-0.376893,-1.554089,1.243913,-0.566771,-0.084969,1.558271,-2.138197,0.682321,1.188398,-0.116049,5.236489,-5.768393,34.659208,12.831524,-0.226936,-0.169089,0.000000,-0.129369,-0.215993,0.000000
1.290000,-2.041771,-0.382668,-1.554904,1.259555,-0.588159,-0.077884,1.569866,-2.137622,0.735327,1.129190,0.236754,5.359467,-6.067430,35.809287,11.801564,-0.228073,-0.171299,0.000000,-0.097300,-0.214321,0.000000
1.300000,-2.029097,-0.388657,-1.555646,1.275310,-0.609523,-0.070263,1.580855,-2.133462,0.789511,1.067049,0.600137,5.472521,-6.358714,36.804931,10.824685,-0.228880,-0.173490,0.000000,-0.063460,-0.212237,-0.000000
1.310000,-2.016265,-0.394859,-1.556309,1.291172,-0.630828,-0.062094,1.591207,-2.125620,0.844778,1.002016,0.972852,5.575961,-6.635651,37.733640,9.763169,-0.229340,-0.175657,0.000000,-0.027905,-0.209732,0.000000
1.320000,-2.003274,-0.401273,-1.556888,1.307134,-0.652035,-0.053367,1.600895,-2.114005,0.901030,0.934336,1.354809,5.667784,-6.871658,38.682623,8.394003,-0.229436,-0.177797,0.000000,0.009488,-0.206775,0.000000
1.330000,-1.990122,-0.407899,-1.557377,1.323190,-0.673108,-0.044073,1.609894,-2.098524,0.958133,0.864582,1.746505,5.743841,-7.064968,39.612728,6.743146,-0.229148,-0.179904,0.000000,0.048963,-0.203322,-0.000000
1.340000,-1.976810,-0.414735,-1.557770,1.339332,-0.694006,-0.034204,1.618186,-2.079075,1.015907,0.793037,2.147064,5.802647,-7.249093,40.395906,5.105949,-0.228454,-0.181973,0.000000,0.090557,-0.199346,0.000000
1.350000,-1.963335,-0.421779,-1.558061,1.355553,-0.714689,-0.023755,1.625755,-2.055582,1.074186,0.719601,2.554423,5.845960,-7.436176,41.035327,3.594359,-0.227334,-0.183997,0.000000,0.134099,-0.194840,0.000000
1.360000,-1.949699,-0.429029,-1.558245,1.371847,-0.735118,-0.012721,1.632578,-2.027986,1.132826,0.644313,2.967770,5.874534,-7.600896,41.602091,2.003400,-0.225769,-0.185972,0.000000,0.179566,-0.189795,0.000000
1.370000,-1.935899,-0.436482,-1.558315,1.388205,-0.755249,-0.001099,1.638641,-1.996227,1.191677,0.567583,3.386465,5.886028,-7.711186,42.042226,0.058144,-0.223740,-0.187892,0.000000,0.227030,-0.184177,0.000000
1.380000,-1.921935,-0.444134,-1.558267,1.404620,-0.775042,0.011113,1.643930,-1.960257,1.250547,0.490089,3.808615,5.875697,-7.776024,42.308398,-2.193270,-0.221225,-0.189750,0.000000,0.276478,-0.177927,0.000000
1.390000,-1.907806,-0.451983,-1.558093,1.421084,-0.794454,0.023912,1.648443,-1.920055,1.309191,0.412062,4.232633,5.842162,-7.834700,42.466013,-4.380174,-0.218206,-0.191539,0.000000,0.327829,-0.171002,0.000000
1.400000,-1.893513,-0.460023,-1.557788,1.437589,-0.813443,0.037297,1.652171,-1.875605,1.367390,0.333395,4.657935,5.788094,-7.871274,42.591896,-6.351111,-0.214665,-0.193252,0.000000,0.380999,-0.163410,0.000000
1.410000,-1.879054,-0.468251,-1.557347,1.454127,-0.831966,0.051260,1.655110,-1.826896,1.424953,0.254637,5.084471,5.715140,-7.859695,42.622096,-8.356584,-0.210582,-0.194883,0.000000,0.435982,-0.155215,-0.000000
1.420000,-1.864430,-0.476663,-1.556763,1.470691,-0.849981,0.065796,1.657264,-1.773915,1.481693,0.176202,5.510377,5.620962,-7.848251,42.333133,-10.762062,-0.205941,-0.196426,0.000000,0.492645,-0.146380,-0.000000
1.430000,-1.849641,-0.485251,-1.556031,1.487272,-0.867445,0.080894,1.658635,-1.716688,1.537372,0.097672,5.931133,5.499899,-7.835394,41.735047,-13.488058,-0.200725,-0.197873,0.000000,0.550596,-0.136695,0.000000
1.440000,-1.834685,-0.494011,-1.555145,1.503864,-0.884315,0.096543,1.659218,-1.655292,1.591691,0.019494,6.345078,5.351201,-7.753370,41.114334,-16.035264,-0.194925,-0.199215,0.000000,0.609606,-0.126154,-0.000000
1.450000,-1.819563,-0.502937,-1.554100,1.520457,-0.900550,0.112728,1.659024,-1.589787,1.644396,-0.057396,6.753420,5.179193,-7.677724,40.458723,-18.328591,-0.188529,-0.200444,0.000000,0.669641,-0.114934,0.000000
1.460000,-1.804276,-0.512022,-1.552891,1.537044,-0.916111,0.129431,1.658070,-1.520224,1.695274,-0.134061,7.154253,4.984629,-7.646567,39.568677,-20.688823,-0.181528,-0.201554,0.000000,0.730360,-0.102905,0.000000
1.470000,-1.788822,-0.521260,-1.551512,1.553618,-0.930955,0.146633,1.656343,-1.446702,1.744089,-0.210327,7.544794,4.765417,-7.419996,38.515038,-23.219080,-0.173919,-0.202535,0.000000,0.791341,-0.090015,0.000000
1.480000,-1.773203,-0.530642,-1.549958,1.570171,-0.945045,0.164313,1.653863,-1.369328,1.790583,-0.282461,7.924553,4.520247,-6.977798,37.322424,-25.795514,-0.165699,-0.203381,0.000000,0.852383,-0.076653,0.000000
1.490000,-1.757419,-0.540160,-1.548225,1.586695,-0.958342,0.182445,1.650694,-1.288211,1.834494,-0.349883,8.291242,4.249507,-6.653809,35.875448,-28.277788,-0.156869,-0.204089,0.000000,0.912982,-0.062898,0.000000
1.500000,-1.741470,-0.549808,-1.546309,1.603185,-0.970809,0.201003,1.646865,-1.203503,1.875573,-0.415537,8.642062,3.954692,-6.467127,34.457431,-30.654738,-0.147438,-0.204654,0.000000,0.972492,-0.048440,0.000000
1.510000,-1.725355,-0.559577,-1.544205,1.619633,-0.982412,0.219956,1.642383,-1.115369,1.913587,-0.479226,8.980391,3.636412,-6.194577,33.117487,-32.995496,-0.137419,-0.205067,0.000000,1.031011,-0.033322,0.000000
1.520000,-1.709077,-0.569457,-1.541910,1.636032,-0.993116,0.239274,1.637281,-1.023896,1.948301,-0.539428,9.304412,3.294782,-5.867221,30.967998,-35.299149,-0.126818,-0.205326,0.000000,1.088004,-0.017746,0.000000
1.530000,-1.692635,-0.579439,-1.539420,1.652378,-1.002889,0.258922,1.631595,-0.929281,1.979483,-0.596570,9.599751,2.930429,-5.573101,27.936517,-37.518876,-0.115661,-0.205424,0.000000,1.141323,-0.001705,0.000000
1.540000,-1.676029,-0.589514,-1.536732,1.668664,-1.011702,0.278864,1.625350,-0.831901,2.006910,-0.650891,9.863142,2.544404,-5.252440,25.256390,-39.632534,-0.103995,-0.205359,0.000000,1.190125,0.014770,-0.000000
1.550000,-1.659261,-0.599673,-1.533843,1.684885,-1.019528,0.299061,1.618577,-0.732018,2.030371,-0.701619,10.104878,2.137778,-4.848711,23.207014,-41.667164,-0.091862,-0.205127,0.000000,1.235255,0.031512,0.000000
1.560000,-1.642332,-0.609905,-1.530750,1.701036,-1.026342,0.319471,1.611317,-0.629803,2.049665,-0.747865,10.327283,1.711061,-4.412265,20.948001,-43.610897,-0.079295,-0.204726,0.000000,1.276606,0.048346,0.000000
1.570000,-1.625241,-0.620200,-1.527453,1.717112,-1.032124,0.340054,1.603620,-0.525473,2.064592,-0.789864,10.523838,1.265560,-4.068626,17.978408,-45.341266,-0.066337,-0.204157,0.000000,1.312954,0.065204,-0.000000
1.580000,-1.607989,-0.630547,-1.523949,1.733108,-1.036852,0.360763,1.595520,-0.419326,2.074977,-0.829237,10.686851,0.804235,-3.797681,14.604822,-46.823732,-0.053044,-0.203419,0.000000,1.342925,0.082143,0.000000
1.590000,-1.590578,-0.640937,-1.520238,1.749022,-1.040510,0.381553,1.587035,-0.311736,2.080677,-0.865818,10.815935,0.329086,-3.436741,11.461864,-48.200470,-0.039487,-0.202512,0.000000,1.366123,0.099020,0.000000
1.600000,-1.573009,-0.651358,-1.516318,1.764849,-1.043086,0.402377,1.578204,-0.203007,2.081558,-0.897972,10.916088,-0.159774,-3.038882,8.462148,-49.598019,-0.025731,-0.201438,0.000000,1.382905,0.115554,0.000000
1.610000,-1.555282,-0.661799,-1.512190,1.780586,-1.044570,0.423185,1.569075,-0.093414,2.077481,-0.926595,10.985178,-0.662875,-2.709935,5.220397,-50.889563,-0.011839,-0.200201,0.000000,1.392775,0.131790,0.000000
1.620000,-1.537397,-0.672249,-1.507855,1.796230,-1.044955,0.443926,1.559672,0.016696,2.068301,-0.952171,11.020496,-1.177565,-2.270060,2.065984,-51.696285,0.002114,-0.198803,0.000000,1.395221,0.147644,0.000000
1.630000,-1.519357,-0.682698,-1.503312,1.811779,-1.044236,0.464551,1.550032,0.126996,2.053930,-0.971997,11.026497,-1.696800,-1.678868,-0.845083,-52.016758,0.016055,-0.197249,0.000000,1.390744,0.162529,0.000000
1.640000,-1.501162,-0.693134,-1.498564,1.827231,-1.042415,0.485005,1.540232,0.237226,2.034365,-0.985748,11.003594,-2.217900,-1.196268,-3.964599,-52.343547,0.029918,-0.195553,0.000000,1.379439,0.176276,0.000000
1.650000,-1.482812,-0.703546,-1.493612,1.842584,-1.039492,0.505238,1.530317,0.347068,2.009572,-0.995922,10.947205,-2.743671,-0.840178,-7.264738,-52.845927,0.043633,-0.193723,0.000000,1.360830,0.189210,-0.000000
1.660000,-1.464310,-0.713924,-1.488459,1.857837,-1.035473,0.525197,1.520313,0.456170,1.979491,-1.002552,10.858300,-3.274819,-0.437759,-10.417089,-53.168149,0.057125,-0.191767,0.000000,1.335202,0.201299,0.000000
1.670000,-1.445656,-0.724255,-1.483108,1.872990,-1.030368,0.544828,1.510266,0.564234,1.944076,-1.004677,10.738864,-3.807034,-0.018502,-13.608827,-52.887810,0.070329,-0.189693,0.000000,1.303067,0.212281,0.000000
1.680000,-1.426850,-0.734531,-1.477562,1.888043,-1.024189,0.564078,1.500220,0.670947,1.903351,-1.002922,10.586123,-4.332575,0.349978,-16.943488,-52.085436,0.083179,-0.187512,0.000000,1.264470,0.222026,-0.000000
1.690000,-1.407895,-0.744739,-1.471826,1.902995,-1.016949,0.582895,1.490207,0.775956,1.857424,-0.997678,10.399994,-4.848743,0.718585,-20.102049,-51.307611,0.095611,-0.185239,0.000000,1.219848,0.230515,0.000000
1.700000,-1.388790,-0.754870,-1.465904,1.917847,-1.008670,0.601227,1.480266,0.878947,1.806376,-0.988550,10.184082,-5.358727,1.114781,-23.034757,-50.755677,0.107570,-0.182883,0.000000,1.170045,0.237780,0.000000
1.710000,-1.369538,-0.764913,-1.459802,1.932600,-0.999371,0.619022,1.470436,0.979638,1.750250,-0.975382,9.939299,-5.863857,1.496012,-25.936953,-50.048707,0.119008,-0.180457,0.000000,1.115588,0.243843,-0.000000
1.720000,-1.350138,-0.774857,-1.453524,1.947256,-0.989077,0.636232,1.460758,1.077733,1.689099,-0.958630,9.665343,-6.359701,1.809297,-28.781949,-48.676077,0.129880,-0.177973,0.000000,1.056954,0.248684,-0.000000
1.730000,-1.330593,-0.784694,-1.447077,1.961815,-0.977816,0.652804,1.451264,1.172945,1.623056,-0.939196,9.363660,-6.837378,2.064476,-31.459011,-46.747669,0.140146,-0.175443,0.000000,0.994928,0.252260,0.000000
1.740000,-1.310902,-0.794414,-1.440468,1.976281,-0.965618,0.668693,1.441975,1.265006,1.552351,-0.917340,9.036163,-7.294655,2.325296,-33.993877,-44.942079,0.149778,-0.172880,0.000000,0.930257,0.254614,0.000000
1.750000,-1.291067,-0.804007,-1.433703,1.990655,-0.952516,0.683851,1.432917,1.353668,1.477163,-0.892690,8.683782,-7.736220,2.595260,-36.540147,-43.371346,0.158753,-0.170295,0.000000,0.863407,0.255857,0.000000
1.760000,-1.271089,-0.813464,-1.426791,2.004939,-0.938545,0.698236,1.424121,1.438682,1.397627,-0.865435,8.305360,-8.162082,2.828228,-39.040260,-41.586719,0.167049,-0.167699,0.000000,0.794644,0.256071,0.000000
1.770000,-1.250968,-0.822777,-1.419739,2.019137,-0.923742,0.711804,1.415608,1.519775,1.313921,-0.836125,7.902977,-8.567954,3.015409,-41.030589,-39.388527,0.174649,-0.165102,0.000000,0.724662,0.255301,0.000000
1.780000,-1.230706,-0.831939,-1.412555,2.033251,-0.908149,0.724514,1.407398,1.596742,1.226268,-0.805127,7.484748,-8.949852,3.170092,-42.480632,-36.932730,0.181547,-0.162515,0.000000,0.654777,0.253583,0.000000
1.790000,-1.210303,-0.840940,-1.405248,2.047285,-0.891807,0.736329,1.399506,1.669470,1.134924,-0.772724,7.053364,-9.306609,3.296174,-43.999509,-34.477320,0.187750,-0.159947,0.000000,0.585559,0.251004,0.000000
1.800000,-1.189760,-0.849775,-1.397828,2.061242,-0.874760,0.747213,1.391944,1.737809,1.040135,-0.739203,6.604758,-9.639399,3.391632,-45.755922,-32.080011,0.193264,-0.157406,0.000000,0.516745,0.247688,-0.000000
1.810000,-1.169078,-0.858436,-1.390304,2.075124,-0.857051,0.757132,1.384722,1.801566,0.942136,-0.704891,6.138246,-9.948209,3.451443,-47.311320,-29.587317,0.198092,-0.154900,0.000000,0.448448,0.243739,-0.000000
1.820000,-1.148258,-0.866916,-1.382686,2.088936,-0.838728,0.766056,1.377846,1.860574,0.841171,-0.670175,5.658532,-10.231145,3.469648,-48.273601,-26.868854,0.202240,-0.152434,0.000000,0.381352,0.239230,0.000000
1.830000,-1.127300,-0.875210,-1.374983,2.102681,-0.819840,0.773955,1.371318,1.914736,0.737513,-0.635498,5.172774,-10.485586,3.439745,-48.765688,-23.990857,0.205726,-0.150016,0.000000,0.316347,0.234229,-0.000000
1.840000,-1.106204,-0.883313,-1.367206,2.116362,-0.800434,0.780806,1.365136,1.964029,0.631460,-0.601380,4.683218,-10.710962,3.367301,-49.275821,-21.148483,0.208574,-0.147649,0.000000,0.253693,0.228839,0.000000
1.850000,-1.084972,-0.891219,-1.359367,2.129984,-0.780559,0.786585,1.359291,2.008401,0.523294,-0.568152,4.187258,-10.908556,3.294257,-49.883487,-18.358779,0.210807,-0.145337,0.000000,0.193083,0.223169,0.000000
1.860000,-1.063605,-0.898924,-1.351475,2.143548,-0.760266,0.791272,1.353773,2.047774,0.413288,-0.535495,3.685548,-11.078138,3.210916,-50.252887,-15.515363,0.212443,-0.143084,0.000000,0.134560,0.217227,0.000000
1.870000,-1.042101,-0.906424,-1.343541,2.157059,-0.739604,0.794850,1.348581,2.082111,0.301731,-0.503934,3.182200,-11.218863,2.991214,-50.190525,-12.641733,0.213505,-0.140893,0.000000,0.078499,0.211099,0.000000
1.880000,-1.020463,-0.913716,-1.335578,2.170520,-0.718623,0.797306,1.343694,2.111418,0.188911,-0.475670,2.681738,-11.330972,2.628316,-49.781769,-9.808536,0.214019,-0.138764,0.000000,0.025257,0.205043,-0.000000
1.890000,-0.998691,-0.920797,-1.327595,2.183933,-0.697375,0.798628,1.339067,2.135746,0.075112,-0.451367,2.186564,-11.415034,2.294224,-49.266619,-7.003000,0.214016,-0.136696,0.000000,-0.025063,0.199154,0.000000
1.900000,-0.976785,-0.927664,-1.319605,2.197301,-0.675908,0.798809,1.334667,2.155150,-0.039389,-0.429786,1.696405,-11.471032,2.036111,-48.823539,-4.130560,0.213524,-0.134687,0.000000,-0.072627,0.193329,-0.000000
1.910000,-0.954745,-0.934315,-1.311619,2.210626,-0.654272,0.797841,1.330472,2.169674,-0.154309,-0.410645,1.210094,-11.497645,1.734816,-48.281789,-1.233365,0.212569,-0.132739,0.000000,-0.117657,0.187543,0.000000
1.920000,-0.932572,-0.940749,-1.303648,2.223911,-0.632515,0.795722,1.326454,2.179352,-0.269342,-0.395089,0.730769,-11.495700,1.291388,-47.136511,1.382483,0.211175,-0.130849,0.000000,-0.160010,0.181936,-0.000000
1.930000,-0.910267,-0.946965,-1.295705,2.237155,-0.610685,0.792454,1.322570,2.184290,-0.384223,-0.384817,0.267363,-11.469995,0.743230,-45.427513,3.690969,0.209373,-0.129017,0.000000,-0.199099,0.176735,0.000000
1.940000,-0.887829,-0.952963,-1.287799,2.250362,-0.588829,0.788038,1.318758,2.184699,-0.498742,-0.380225,-0.177781,-11.421880,0.218262,-43.845947,6.084185,0.207197,-0.127235,0.000000,-0.234912,0.171988,0.000000
1.950000,-0.865260,-0.958742,-1.279944,2.263531,-0.566991,0.782479,1.314965,2.180734,-0.612661,-0.380452,-0.609555,-11.348311,-0.262733,-42.498765,8.679841,0.204678,-0.125501,0.000000,-0.268013,0.167575,0.000000
1.960000,-0.842559,-0.964302,-1.272150,2.276661,-0.545214,0.775785,1.311149,2.172508,-0.725709,-0.385480,-1.027756,-11.248283,-0.783285,-40.928344,11.186938,0.201839,-0.123812,0.000000,-0.298520,0.163481,0.000000
1.970000,-0.819726,-0.969646,-1.264428,2.289754,-0.523541,0.767965,1.307256,2.160179,-0.837626,-0.396118,-1.428122,-11.124573,-1.385449,-38.984361,13.309498,0.198710,-0.122163,0.000000,-0.326254,0.159811,-0.000000
1.980000,-0.796763,-0.974773,-1.256790,2.302806,-0.502011,0.759032,1.303226,2.143945,-0.948200,-0.413189,-1.807443,-10.982094,-2.039819,-36.836594,15.113435,0.195316,-0.120551,0.000000,-0.351170,0.156685,0.000000
1.990000,-0.773670,-0.979686,-1.249247,2.315818,-0.480662,0.749001,1.298992,2.124030,-1.057268,-0.436914,-2.164854,-10.822304,-2.690793,-34.672553,16.964651,0.191688,-0.118968,0.000000,-0.373364,0.154124,0.000000
2.000000,-0.750447,-0.984387,-1.241810,2.328786,-0.459530,0.737887,1.294488,2.100648,-1.164646,-0.467004,-2.500894,-10.642801,-3.327198,-32.482151,18.980622,0.187850,-0.117410,0.000000,-0.392983,0.152063,-0.000000
2.010000,-0.727095,-0.988877,-1.234490,2.341708,-0.438649,0.725708,1.289652,2.074012,-1.270124,-0.503458,-2.814497,-10.442692,-3.981960,-30.164473,20.898368,0.183829,-0.115872,0.000000,-0.410054,0.150483,0.000000
2.020000,-0.703613,-0.993160,-1.227296,2.354579,-0.418050,0.712484,1.284419,2.044358,-1.373500,-0.546644,-3.104184,-10.224833,-4.677347,-27.767124,22.398559,0.179650,-0.114348,0.000000,-0.424623,0.149436,0.000000
2.030000,-0.680003,-0.997238,-1.220240,2.367396,-0.397762,0.698238,1.278719,2.011929,-1.474621,-0.597005,-3.369840,-9.994720,-5.398214,-25.344147,23.544957,0.175337,-0.112834,0.000000,-0.436880,0.149004,-0.000000
2.040000,-0.656265,-1.001115,-1.213331,2.380154,-0.377811,0.682992,1.272479,1.976962,-1.573394,-0.654608,-3.611067,-9.753934,-6.110579,-22.847225,24.748648,0.170912,-0.111322,0.000000,-0.446914,0.149191,0.000000
2.050000,-0.632400,-1.004794,-1.206580,2.392846,-0.358223,0.666770,1.265627,1.939707,-1.669700,-0.719217,-3.826784,-9.499747,-6.816080,-20.263154,26.118591,0.166398,-0.109806,0.000000,-0.454688,0.149937,-0.000000
2.060000,-0.608408,-1.008279,-1.199996,2.405466,-0.339017,0.649598,1.258094,1.900426,-1.763389,-0.790929,-4.016330,-9.231562,-7.531766,-17.646711,27.370553,0.161817,-0.108281,0.000000,-0.460228,0.151237,-0.000000
2.070000,-0.584291,-1.011574,-1.193588,2.418008,-0.320214,0.631502,1.249808,1.859381,-1.854331,-0.869852,-4.179718,-8.952336,-8.239073,-15.052439,28.241581,0.157193,-0.106741,0.000000,-0.463661,0.153118,0.000000
2.080000,-0.560048,-1.014684,-1.187366,2.430462,-0.301830,0.612511,1.240697,1.816831,-1.942436,-0.955711,-4.317379,-8.666731,-8.926136,-12.483868,28.815860,0.152543,-0.105180,0.000000,-0.465154,0.155589,0.000000
2.090000,-0.535681,-1.017611,-1.181338,2.442822,-0.283878,0.592654,1.230694,1.773033,-2.027665,-1.048375,-4.429396,-8.376019,-9.613532,-9.895122,29.434457,0.147888,-0.103592,0.000000,-0.464784,0.158641,0.000000
2.100000,-0.511192,-1.020361,-1.175513,2.455076,-0.266369,0.571958,1.219730,1.728244,-2.109956,-1.147982,-4.515281,-8.078041,-10.310578,-7.250152,30.169011,0.143246,-0.101972,0.000000,-0.462537,0.162258,0.000000
2.110000,-0.486580,-1.022938,-1.169899,2.467216,-0.249313,0.550454,1.207734,1.682727,-2.189226,-1.254586,-4.574399,-7.772639,-10.997389,-4.601269,30.793165,0.138636,-0.100313,0.000000,-0.458406,0.166439,-0.000000
2.120000,-0.461847,-1.025347,-1.164504,2.479231,-0.232714,0.528173,1.194638,1.636756,-2.265409,-1.367929,-4.607307,-7.462178,-11.643705,-2.088589,31.148644,0.134077,-0.098611,0.000000,-0.452508,0.171178,0.000000
2.130000,-0.436995,-1.027593,-1.159335,2.491109,-0.216578,0.505146,1.180376,1.590581,-2.338470,-1.487460,-4.616171,-7.149666,-12.250284,0.280723,31.313548,0.129585,-0.096858,0.000000,-0.445081,0.176451,0.000000
2.140000,-0.412025,-1.029679,-1.154401,2.502838,-0.200903,0.481404,1.164889,1.544432,-2.408402,-1.612935,-4.601692,-6.835907,-12.851116,2.673770,31.497059,0.125174,-0.095052,0.000000,-0.436209,0.182242,-0.000000
2.150000,-0.386938,-1.031611,-1.149707,2.514407,-0.185689,0.456978,1.148117,1.498547,-2.475188,-1.744483,-4.562695,-6.519725,-13.457171,5.146609,31.724137,0.120859,-0.093185,0.000000,-0.425804,0.188551,0.000000
2.160000,-0.361737,-1.033393,-1.145261,2.525801,-0.170932,0.431900,1.129999,1.453178,-2.538797,-1.882078,-4.498760,-6.201424,-14.040477,7.567017,31.865329,0.116656,-0.091253,0.000000,-0.413849,0.195379,-0.000000
2.170000,-0.336422,-1.035029,-1.141069,2.537007,-0.156625,0.406202,1.110476,1.408572,-2.599216,-2.025292,-4.411355,-5.882418,-14.565226,9.771048,31.886111,0.112580,-0.089250,0.000000,-0.400486,0.202704,-0.000000
2.180000,-0.310997,-1.036525,-1.137137,2.548010,-0.142760,0.379916,1.089493,1.364951,-2.656445,-2.173383,-4.303339,-5.563702,-15.035374,11.782794,31.841585,0.108645,-0.087173,0.000000,-0.385952,0.210477,0.000000
2.190000,-0.285462,-1.037885,-1.133471,2.558797,-0.129326,0.353073,1.067008,1.322505,-2.710490,-2.326000,-4.175699,-5.245587,-15.492905,13.799472,31.782889,0.104860,-0.085016,0.000000,-0.370324,0.218675,0.000000
2.200000,-0.259821,-1.039112,-1.130076,2.569350,-0.116310,0.325706,1.042973,1.281437,-2.761357,-2.483241,-4.027350,-4.928044,-15.949628,15.868633,31.699263,0.101237,-0.082775,0.000000,-0.353510,0.227312,0.000000
2.210000,-0.234075,-1.040211,-1.126957,2.579656,-0.103698,0.297846,1.017343,1.241958,-2.809051,-2.644992,-3.858326,-4.611601,-16.373123,17.843422,31.571244,0.097788,-0.080446,0.000000,-0.335509,0.236387,0.000000
2.220000,-0.208228,-1.041186,-1.124119,2.589697,-0.091471,0.269525,0.990074,1.204271,-2.853589,-2.810703,-3.670481,-4.296620,-16.727680,19.588444,31.449450,0.094525,-0.078024,0.000000,-0.316456,0.245866,-0.000000
2.230000,-0.182281,-1.042040,-1.121566,2.599458,-0.079612,0.240774,0.961129,1.168549,-2.894984,-2.979546,-3.466558,-3.982612,-17.020262,21.137147,31.357117,0.091458,-0.075506,0.000000,-0.296546,0.255689,0.000000
2.240000,-0.156239,-1.042778,-1.119303,2.608920,-0.068100,0.211625,0.930483,1.134939,-2.933241,-3.151109,-3.247738,-3.669477,-17.293343,22.651394,31.237907,0.088593,-0.072888,0.000000,-0.275853,0.265833,-0.000000
2.250000,-0.130103,-1.043402,-1.117334,2.618067,-0.056913,0.182110,0.898107,1.103594,-2.968373,-3.325413,-3.013530,-3.357854,-17.553504,24.175490,31.054008,0.085939,-0.070168,0.000000,-0.254322,0.276313,0.000000
2.260000,-0.103877,-1.043916,-1.115661,2.626882,-0.046028,0.152258,0.863974,1.074669,-3.000398,-3.502179,-2.764228,-3.048397,-17.769386,25.590558,30.858588,0.083506,-0.067341,0.000000,-0.231957,0.287120,0.000000
2.270000,-0.077565,-1.044323,-1.114289,2.635347,-0.035420,0.122102,0.828063,1.048310,-3.029341,-3.680800,-2.501718,-2.740682,-17.921642,26.768535,30.770376,0.081299,-0.064405,0.000000,-0.208877,0.298216,0.000000
2.280000,-0.051170,-1.044625,-1.113219,2.643443,-0.025062,0.091671,0.790358,1.024635,-3.055212,-3.860612,-2.228858,-2.432990,-18.016269,27.739956,30.794917,0.079327,-0.061357,0.000000,-0.185267,0.309551,0.000000
2.290000,-0.024696,-1.044824,-1.112455,2.651154,-0.014927,0.060997,0.750851,1.003732,-3.078001,-4.041126,-1.946919,-2.124784,-18.074806,28.662868,30.784578,0.077593,-0.058194,0.000000,-0.161194,0.321100,-0.000000
2.300000,0.001853,-1.044923,-1.111999,2.658460,-0.004987,0.030111,0.709536,0.985696,-3.097708,-4.222108,-1.655600,-1.817298,-18.115531,29.555524,30.647646,0.076103,-0.054915,0.000000,-0.136613,0.332864,0.000000
2.310000,0.028473,-1.044924,-1.111853,2.665345,0.004787,-0.000957,0.666409,0.970620,-3.114347,-4.403436,-1.355809,-1.511831,-18.120868,30.306875,30.499331,0.074860,-0.051517,0.000000,-0.111573,0.344852,0.000000
2.320000,0.055160,-1.044827,-1.112018,2.671788,0.014425,-0.032176,0.621467,0.958580,-3.127944,-4.584525,-1.049463,-1.207311,-18.034599,30.874214,30.597642,0.073871,-0.047998,0.000000,-0.086183,0.357027,-0.000000
2.330000,0.081909,-1.044635,-1.112497,2.677774,0.023958,-0.063516,0.574718,0.949631,-3.138493,-4.764128,-0.738325,-0.899878,-17.858574,31.293926,30.925788,0.073136,-0.044356,0.000000,-0.060527,0.369294,-0.000000
2.340000,0.108715,-1.044348,-1.113289,2.683283,0.033418,-0.094946,0.526185,0.943813,-3.145942,-4.941697,-0.423584,-0.588796,-17.667222,31.609719,31.144648,0.072660,-0.040591,0.000000,-0.034660,0.381628,0.000000
2.350000,0.135574,-1.043967,-1.114395,2.688298,0.042834,-0.126435,0.475885,0.941159,-3.150269,-5.117473,-0.106130,-0.276985,-17.474778,31.805886,31.163471,0.072443,-0.036702,0.000000,-0.008636,0.394074,0.000000
2.360000,0.162481,-1.043492,-1.115817,2.692801,0.052241,-0.157951,0.423835,0.941691,-3.151482,-5.291192,0.212533,0.034474,-17.229629,31.852421,31.219264,0.072487,-0.032688,0.000000,0.017458,0.406631,0.000000
2.370000,0.189430,-1.042922,-1.117555,2.696774,0.061668,-0.189464,0.370061,0.945410,-3.149580,-5.462065,0.530918,0.347400,-16.905043,31.781727,31.519148,0.072792,-0.028547,0.000000,0.043549,0.419248,-0.000000
2.380000,0.216417,-1.042258,-1.119607,2.700202,0.071149,-0.220943,0.314594,0.952309,-3.144534,-5.629293,0.848168,0.664857,-16.542828,31.577771,31.971859,0.073358,-0.024280,0.000000,0.069622,0.431876,0.000000
2.390000,0.243434,-1.041499,-1.121973,2.703066,0.080714,-0.252355,0.257475,0.962373,-3.136282,-5.792922,1.162474,0.986837,-16.168321,31.196119,32.317821,0.074185,-0.019885,0.000000,0.095570,0.444540,0.000000
2.400000,0.270478,-1.040644,-1.124654,2.705351,0.090396,-0.283668,0.198735,0.975559,-3.124797,-5.952659,1.472090,1.311213,-15.598730,30.816956,32.660823,0.075270,-0.015363,0.000000,0.121281,0.457241,0.000000
2.410000,0.297541,-1.039691,-1.127647,2.707041,0.100226,-0.314851,0.138422,0.991815,-3.110058,-6.104897,1.778813,1.640054,-14.831611,30.453442,33.162367,0.076611,-0.010713,0.000000,0.146936,0.469717,0.000000
2.420000,0.324619,-1.038639,-1.130951,2.708120,0.110233,-0.345869,0.076637,1.011135,-3.091996,-6.249292,2.081159,1.974461,-14.387957,29.568731,33.495959,0.078209,-0.005940,0.000000,0.172461,0.481962,0.000000
2.430000,0.351704,-1.037486,-1.134564,2.708574,0.120448,-0.376691,0.013436,1.033438,-3.070569,-6.392656,2.370187,2.309973,-14.213733,28.180818,33.644878,0.080061,-0.001043,0.000000,0.197173,0.494526,0.000000
2.440000,0.378790,-1.036230,-1.138485,2.708388,0.130901,-0.407281,-0.051216,1.058539,-3.045796,-6.533566,2.644776,2.647358,-13.603280,27.022263,34.059030,0.082153,0.003984,0.000000,0.221015,0.507315,-0.000000
2.450000,0.405872,-1.034868,-1.142710,2.707549,0.141619,-0.437607,-0.117236,1.086334,-3.017622,-6.664721,2.910633,2.991153,-13.007157,25.860699,34.402999,0.084482,0.009139,0.000000,0.244484,0.519787,0.000000
2.460000,0.432941,-1.033398,-1.147237,2.706044,0.152628,-0.467633,-0.184510,1.116751,-2.985973,-6.793709,3.161990,3.335418,-12.854480,24.229512,34.401241,0.087044,0.014418,0.000000,0.267122,0.532549,0.000000
2.470000,0.459992,-1.031816,-1.152062,2.703859,0.163954,-0.497326,-0.253110,1.149574,-2.950913,-6.921811,3.395223,3.679178,-11.672894,22.975336,35.147558,0.089825,0.019832,0.000000,0.288659,0.545717,0.000000
2.480000,0.487018,-1.030119,-1.157183,2.700981,0.175620,-0.526652,-0.322946,1.184656,-2.912390,-7.027167,3.621496,4.038369,-9.327316,22.230270,36.773686,0.092818,0.025379,0.000000,0.310101,0.557632,-0.000000
2.490000,0.514012,-1.028304,-1.162595,2.697400,0.187647,-0.555574,-0.393653,1.222004,-2.870146,-7.108357,3.839828,4.414652,-7.869217,20.805184,37.738671,0.096029,0.031035,0.000000,0.331430,0.568218,0.000000
2.500000,0.540966,-1.026366,-1.168295,2.693108,0.200060,-0.584054,-0.465113,1.261452,-2.824097,-7.184552,4.037600,4.793143,-7.003421,19.043617,37.887097,0.099448,0.036798,0.000000,0.351580,0.578967,0.000000
2.510000,0.567874,-1.024302,-1.174277,2.688098,0.212876,-0.612056,-0.537344,1.302756,-2.774283,-7.248426,4.220701,5.172394,-5.387501,17.716117,38.249880,0.103062,0.042674,0.000000,0.371015,0.589317,0.000000
2.520000,0.594728,-1.022108,-1.180536,2.682362,0.226115,-0.639540,-0.610082,1.345866,-2.720649,-7.292302,4.391922,5.558140,-4.423103,15.491444,38.851061,0.106870,0.048649,0.000000,0.390031,0.598691,-0.000000
2.530000,0.621521,-1.019780,-1.187067,2.675896,0.239794,-0.666469,-0.683190,1.390594,-2.663120,-7.336888,4.530529,5.949415,-4.630385,12.070626,39.255235,0.110864,0.054718,0.000000,0.406999,0.608744,0.000000
2.540000,0.648246,-1.017313,-1.193865,2.668698,0.253927,-0.692803,-0.756820,1.436477,-2.601660,-7.384909,4.633335,6.343245,-3.971910,9.357050,39.506616,0.115012,0.060901,0.000000,0.421632,0.619720,0.000000
2.550000,0.674895,-1.014701,-1.200923,2.660760,0.268523,-0.718502,-0.830888,1.483261,-2.536256,-7.416326,4.717670,6.739547,-2.280016,7.426117,40.059387,0.119298,0.067197,0.000000,0.435310,0.630047,0.000000
2.560000,0.701461,-1.011942,-1.208235,2.652080,0.283592,-0.743528,-0.905146,1.530830,-2.466870,-7.430510,4.781857,7.144433,-0.945638,5.002827,40.813216,0.123720,0.073595,0.000000,0.447976,0.639718,-0.000000
2.570000,0.727937,-1.009030,-1.215794,2.642657,0.299140,-0.767839,-0.979499,1.578898,-2.393367,-7.435239,4.817727,7.555812,0.200401,2.437534,40.563297,0.128259,0.080093,0.000000,0.458961,0.649378,0.000000
2.580000,0.754315,-1.005959,-1.223592,2.632490,0.315170,-0.791395,-1.053851,1.627185,-2.315753,-7.426502,4.830608,7.955699,1.726381,0.235738,39.332680,0.132901,0.086692,0.000000,0.468499,0.658600,0.000000
2.590000,0.780587,-1.002726,-1.231622,2.621580,0.331683,-0.814154,-1.128029,1.675510,-2.234253,-7.400711,4.822442,8.342465,3.264242,-2.184434,38.740995,0.137631,0.093385,0.000000,0.476705,0.667057,-0.000000
2.600000,0.806746,-0.999326,-1.239875,2.609929,0.348680,-0.836080,-1.201865,1.723634,-2.148904,-7.361217,4.786919,8.730519,4.224978,-5.148283,38.612078,0.142436,0.100163,0.000000,0.483201,0.675117,0.000000
2.610000,0.832785,-0.995753,-1.248343,2.597543,0.366156,-0.857133,-1.275253,1.771248,-2.059643,-7.316212,4.719476,9.114707,4.921781,-8.210522,37.870752,0.147297,0.107028,0.000000,0.487522,0.683425,-0.000000
2.620000,0.858697,-0.992003,-1.257018,2.584424,0.384105,-0.877273,-1.348189,1.818023,-1.966610,-7.262781,4.622709,9.487934,6.786835,-10.710722,37.368094,0.152188,0.113984,0.000000,0.489746,0.691685,0.000000
2.630000,0.884474,-0.988071,-1.265889,2.570579,0.402517,-0.896465,-1.420509,1.863703,-1.869884,-7.180475,4.505262,9.862069,9.692331,-12.847925,37.499308,0.157093,0.121026,0.000000,0.490720,0.698301,0.000000
2.640000,0.910109,-0.983952,-1.274947,2.556014,0.421379,-0.914671,-1.491799,1.908129,-1.769368,-7.068935,4.365750,10.237920,11.702605,-15.458514,36.991095,0.162004,0.128127,0.000000,0.490339,0.703227,-0.000000
2.650000,0.935594,-0.979643,-1.284182,2.540743,0.440679,-0.931852,-1.561887,1.951018,-1.665125,-6.946423,4.196091,10.601891,13.126226,-18.052791,35.748283,0.166901,0.135279,0.000000,0.487675,0.707827,-0.000000
2.660000,0.960924,-0.975139,-1.293584,2.524776,0.460399,-0.947973,-1.630727,1.992050,-1.557331,-6.806410,4.004694,10.952885,15.214012,-20.108260,34.631600,0.171758,0.142485,0.000000,0.483356,0.711509,0.000000
2.670000,0.986090,-0.970435,-1.303142,2.508128,0.480520,-0.962999,-1.698015,2.031112,-1.446068,-6.642143,3.793926,11.294523,16.644862,-23.152881,33.455346,0.176569,0.149724,0.000000,0.477603,0.713694,0.000000
2.680000,1.011086,-0.965528,-1.312844,2.490816,0.501022,-0.976894,-1.763570,2.067929,-1.331440,-6.473513,3.541637,11.621992,16.953756,-27.377922,31.862329,0.181311,0.156987,0.000000,0.468340,0.715977,-0.000000
2.690000,1.035906,-0.960415,-1.322680,2.472857,0.521879,-0.989627,-1.827486,2.101944,-1.213628,-6.303067,3.246368,11.931769,18.043210,-30.622291,30.178946,0.185936,0.164285,0.000000,0.455224,0.718519,0.000000
2.700000,1.060543,-0.955091,-1.332637,2.454266,0.543061,-1.001167,-1.889632,2.132856,-1.092805,-6.112649,2.929191,12.225571,19.881099,-32.931188,28.741301,0.190416,0.171611,0.000000,0.440019,0.719727,-0.000000
2.710000,1.084991,-0.949553,-1.342703,2.435064,0.564536,-1.011484,-1.949739,2.160528,-0.969116,-5.905445,2.587744,12.506595,21.175533,-35.727405,27.283215,0.194736,0.178946,0.000000,0.422470,0.719855,0.000000
2.720000,1.109244,-0.943800,-1.352866,2.415272,0.586271,-1.020549,-2.007741,2.184611,-0.842673,-5.689138,2.214643,12.771236,22.607902,-38.264838,25.002866,0.198865,0.186288,0.000000,0.401714,0.719477,0.000000
2.730000,1.133297,-0.937828,-1.363114,2.394909,0.608228,-1.028337,-2.063521,2.204821,-0.713692,-5.453287,1.822447,13.006653,24.645092,-39.997381,21.951650,0.202770,0.193627,0.000000,0.378518,0.717375,-0.000000
2.740000,1.157143,-0.931635,-1.373433,2.374001,0.630368,-1.034823,-2.116806,2.221060,-0.582540,-5.196236,1.414695,13.210269,26.225224,-42.042222,19.206241,0.206434,0.200936,0.000000,0.353020,0.713205,0.000000
2.750000,1.180777,-0.925221,-1.383810,2.352573,0.652649,-1.039988,-2.167446,2.233115,-0.449486,-4.928783,0.981603,13.390777,27.249452,-44.526426,16.922039,0.209828,0.208201,0.000000,0.324298,0.707971,-0.000000
2.760000,1.204194,-0.918582,-1.394233,2.330652,0.675030,-1.043813,-2.215382,2.240692,-0.314724,-4.651247,0.524167,13.548709,28.439672,-46.651834,14.371135,0.212917,0.215414,0.000000,0.292263,0.701623,0.000000
2.770000,1.227390,-0.911720,-1.404687,2.308266,0.697463,-1.046282,-2.260471,2.243598,-0.178512,-4.359989,0.048566,13.678200,29.640993,-48.449742,11.318006,0.215671,0.222558,0.000000,0.257199,0.693590,0.000000
2.780000,1.250359,-0.904633,-1.415158,2.285443,0.719902,-1.047383,-2.302582,2.241663,-0.041160,-4.058427,-0.444828,13.775069,30.578753,-50.172528,7.998664,0.218058,0.229615,0.000000,0.218844,0.683952,-0.000000
2.790000,1.273099,-0.897322,-1.425634,2.262214,0.742296,-1.047106,-2.341640,2.234702,0.096989,-3.748414,-0.954884,13.838173,31.517766,-51.678716,4.690901,0.220043,0.236569,0.000000,0.177058,0.672703,-0.000000
2.800000,1.295604,-0.889787,-1.436101,2.238610,0.764596,-1.045443,-2.377550,2.222566,0.235603,-3.428072,-1.478402,13.868887,32.548855,-53.006614,1.529621,0.221594,0.243400,0.000000,0.131965,0.659532,0.000000
2.810000,1.317871,-0.882030,-1.446543,2.214663,0.786748,-1.042393,-2.410201,2.205134,0.374367,-3.097437,-2.015017,13.868766,33.468511,-54.234523,-1.660068,0.222677,0.250088,0.000000,0.083420,0.644303,0.000000
2.820000,1.339897,-0.874052,-1.456948,2.190406,0.808699,-1.037956,-2.439499,2.182265,0.512978,-2.758702,-2.563093,13.835686,34.150670,-55.065599,-5.275333,0.223257,0.256611,0.000000,0.031300,0.626997,0.000000
2.830000,1.361679,-0.865856,-1.467302,2.165873,0.830393,-1.032134,-2.465375,2.153872,0.651081,-2.414424,-3.116329,13.763259,34.646467,-55.427782,-9.263646,0.223297,0.262945,0.000000,-0.024148,0.607507,0.000000
2.840000,1.383214,-0.857444,-1.477591,2.141099,0.851776,-1.024934,-2.487787,2.119939,0.788244,-2.065772,-3.671649,13.650413,35.099710,-55.718717,-13.064029,0.222766,0.269067,0.000000,-0.082849,0.585703,0.000000
2.850000,1.404501,-0.848821,-1.487801,2.116117,0.872792,-1.016369,-2.506691,2.080439,0.924089,-1.712430,-4.230703,13.501979,35.572053,-56.111066,-16.556385,0.221632,0.274952,0.000000,-0.145060,0.561475,-0.000000
2.860000,1.425537,-0.839989,-1.497918,2.090965,0.893385,-1.006453,-2.522036,2.035325,1.058283,-1.354331,-4.793870,13.319285,35.955485,-56.308616,-20.099349,0.219857,0.280574,0.000000,-0.210988,0.534645,0.000000
2.870000,1.446320,-0.830953,-1.507930,2.065677,0.913498,-0.995203,-2.533777,1.984561,1.190475,-0.993320,-5.356875,13.099992,36.058374,-55.882800,-23.885479,0.217403,0.285904,0.000000,-0.280444,0.505122,0.000000
2.880000,1.466850,-0.821719,-1.517823,2.040289,0.933076,-0.982643,-2.541902,1.928187,1.320283,-0.633164,-5.911526,12.841576,35.896657,-54.892976,-27.771737,0.214238,0.290915,0.000000,-0.352784,0.473006,0.000000
2.890000,1.487126,-0.812291,-1.527583,2.014839,0.952062,-0.968798,-2.546440,1.866331,1.447306,-0.275387,-6.454735,12.544557,35.719388,-53.895962,-31.487028,0.210337,0.295580,0.000000,-0.427757,0.438270,0.000000
2.900000,1.507147,-0.802677,-1.537199,1.989360,0.970403,-0.953697,-2.547410,1.799093,1.571174,0.081224,-6.989445,12.211835,35.616270,-53.083912,-35.024052,0.205673,0.299872,0.000000,-0.505664,0.400683,0.000000
2.910000,1.526913,-0.792883,-1.546657,1.963890,0.988044,-0.937374,-2.544816,1.726542,1.691543,0.436939,-7.516413,11.844076,35.410458,-52.066615,-38.529197,0.200214,0.303760,0.000000,-0.586609,0.360052,-0.000000
2.920000,1.546425,-0.782916,-1.555946,1.938464,1.004933,-0.919866,-2.538671,1.648764,1.808056,0.789433,-8.030777,11.441251,34.876490,-50.364634,-41.945859,0.193930,0.307213,0.000000,-0.670052,0.316456,0.000000
2.930000,1.565683,-0.772785,-1.565054,1.913117,1.021019,-0.901213,-2.529027,1.565926,1.920368,1.134468,-8.523706,11.005159,34.057573,-48.079419,-45.182607,0.186802,0.310202,0.000000,-0.754861,0.270290,0.000000
2.940000,1.584687,-0.762496,-1.573970,1.887884,1.036252,-0.881459,-2.515982,1.478290,2.028159,1.470585,-8.992366,10.537599,33.250247,-45.844933,-48.290211,0.178823,0.312707,0.000000,-0.840460,0.221691,0.000000
2.950000,1.603440,-0.752060,-1.582683,1.862797,1.050585,-0.860650,-2.499616,1.386079,2.131120,1.799473,-9.440604,10.039354,32.547055,-43.846337,-51.359958,0.169984,0.314701,0.000000,-0.926995,0.170426,0.000000
2.960000,1.621943,-0.741484,-1.591183,1.837891,1.063974,-0.838836,-2.479992,1.289478,2.228946,2.121526,-9.869293,9.510400,31.745753,-41.656150,-54.315823,0.160275,0.316157,0.000000,-1.014239,0.116408,0.000000
2.970000,1.640198,-0.730780,-1.599460,1.813197,1.076375,-0.816071,-2.457185,1.188693,2.321328,2.434388,-10.273727,8.953038,30.626060,-38.846284,-56.858074,0.149693,0.317051,0.000000,-1.101167,0.059995,0.000000
2.980000,1.658207,-0.719957,-1.607505,1.788748,1.087747,-0.792410,-2.431305,1.084004,2.408007,2.734047,-10.646218,8.373239,29.247667,-35.550011,-58.957736,0.138247,0.317364,0.000000,-1.186202,0.001966,0.000000
2.990000,1.675973,-0.709025,-1.615308,1.764571,1.098055,-0.767911,-2.402504,0.975769,2.488793,3.019342,-10.984728,7.773883,27.905167,-32.342174,-60.986721,0.125965,0.317084,0.000000,-1.268395,-0.057287,0.000000
3.000000,1.693499,-0.697996,-1.622863,1.740697,1.107263,-0.742634,-2.370918,0.864309,2.563484,3.292150,-11.293062,7.153504,26.672527,-29.354406,-63.121254,0.112877,0.316203,0.000000,-1.347531,-0.117873,0.000000
3.010000,1.710787,-0.686880,-1.630161,1.717153,1.115341,-0.716641,-2.336661,0.749908,2.631863,3.552792,-11.571816,6.511458,25.356745,-26.216022,-65.071452,0.099015,0.314706,0.000000,-1.422924,-0.179641,-0.000000
3.020000,1.727842,-0.675689,-1.637196,1.693964,1.122261,-0.689997,-2.299862,0.632873,2.693714,3.799285,-11.817382,5.852075,23.800061,-22.660397,-66.346237,0.084422,0.312587,0.000000,-1.493217,-0.241896,0.000000
3.030000,1.744666,-0.664435,-1.643961,1.671156,1.127998,-0.662767,-2.260675,0.513560,2.748904,4.028793,-12.025024,5.184533,22.070935,-18.825248,-66.984486,0.069157,0.309847,0.000000,-1.556823,-0.303570,0.000000
3.040000,1.761265,-0.653129,-1.650451,1.648751,1.132532,-0.635019,-2.219286,0.392372,2.797404,4.240704,-12.193887,4.512385,20.384643,-15.079537,-67.616636,0.053294,0.306499,0.000000,-1.612747,-0.364056,0.000000
3.050000,1.777641,-0.641784,-1.656661,1.626770,1.135846,-0.606819,-2.175861,0.269682,2.839152,4.436486,-12.326614,3.832201,18.771125,-11.467726,-68.488949,0.036913,0.302554,0.000000,-1.660541,-0.423281,0.000000
3.060000,1.793800,-0.630412,-1.662587,1.605233,1.137926,-0.578236,-2.130556,0.145840,2.874048,4.616126,-12.423242,3.142606,17.098979,-7.772541,-69.146668,0.020097,0.298027,0.000000,-1.699417,-0.480878,0.000000
3.070000,1.809746,-0.619025,-1.668226,1.584159,1.138763,-0.549338,-2.083539,0.021217,2.902004,4.778466,-12.482065,2.449267,15.330955,-3.958974,-68.950024,0.002941,0.292936,0.000000,-1.728395,-0.536026,0.000000
3.080000,1.825483,-0.607637,-1.673574,1.563563,1.138350,-0.520196,-2.034987,-0.103801,2.923034,4.922745,-12.502421,1.763606,13.524752,-0.137351,-68.006773,-0.014453,0.287308,0.000000,-1.746809,-0.587742,0.000000
3.090000,1.841017,-0.596258,-1.678630,1.543459,1.136686,-0.490877,-1.985084,-0.228831,2.937276,5.048961,-12.484812,1.089132,11.738844,3.624386,-67.154971,-0.031977,0.281183,0.000000,-1.754382,-0.635496,0.000000
3.100000,1.856353,-0.584903,-1.683392,1.523861,1.133773,-0.461450,-1.934008,-0.353498,2.944816,5.157522,-12.429933,0.420507,9.965768,7.397976,-66.617876,-0.049522,0.274596,0.000000,-1.750971,-0.679200,-0.000000
3.110000,1.871494,-0.573583,-1.687859,1.504779,1.129617,-0.431981,-1.881934,-0.477430,2.945686,5.248276,-12.336853,-0.243226,8.183840,11.188000,-65.821392,-0.066977,0.267587,0.000000,-1.736339,-0.718543,0.000000
3.120000,1.886448,-0.562311,-1.692031,1.486222,1.124225,-0.402536,-1.829042,-0.600235,2.939952,5.321199,-12.206173,-0.895921,6.441518,14.734770,-64.249708,-0.084229,0.260199,0.000000,-1.710699,-0.753026,-0.000000
3.130000,1.901219,-0.551099,-1.695910,1.468198,1.117612,-0.373182,-1.775510,-0.721553,2.927768,5.377107,-12.042157,-1.528220,4.767792,17.991168,-62.077259,-0.101172,0.252479,0.000000,-1.675059,-0.782238,-0.000000
3.140000,1.915812,-0.539959,-1.699495,1.450712,1.109794,-0.343981,-1.721500,-0.841078,2.909387,5.416555,-11.846350,-2.137466,3.112302,21.277668,-59.979905,-0.117713,0.244480,0.000000,-1.630178,-0.806078,0.000000
3.150000,1.930233,-0.528903,-1.702789,1.433768,1.100790,-0.314994,-1.667178,-0.958480,2.885019,5.439353,-11.616604,-2.727818,1.418227,24.701036,-58.109324,-0.133761,0.236253,0.000000,-1.576302,-0.824642,0.000000
3.160000,1.944487,-0.517943,-1.705795,1.417369,1.090624,-0.286281,-1.612713,-1.073410,2.854831,5.444919,-11.352329,-3.299653,-0.260851,28.008997,-56.022361,-0.149226,0.227846,0.000000,-1.514020,-0.837892,0.000000
3.170000,1.958580,-0.507090,-1.708515,1.401514,1.079322,-0.257897,-1.558280,-1.185527,2.819026,5.434136,-11.056424,-3.848265,-1.744408,30.907614,-53.387837,-0.164031,0.219314,0.000000,-1.444591,-0.845897,0.000000
3.180000,1.972518,-0.496356,-1.710953,1.386203,1.066914,-0.229900,-1.504030,-1.294538,2.777866,5.410031,-10.734177,-4.367410,-3.022422,33.436473,-50.359122,-0.178110,0.210705,0.000000,-1.369713,-0.849052,0.000000
3.190000,1.986305,-0.485752,-1.713113,1.371433,1.053431,-0.202340,-1.450079,-1.400210,2.731677,5.373687,-10.387695,-4.855448,-4.324481,35.950450,-47.384610,-0.191419,0.202066,0.000000,-1.290557,-0.847693,0.000000
3.200000,1.999946,-0.475288,-1.715000,1.357201,1.038909,-0.175266,-1.396557,-1.502292,2.680757,5.323542,-10.015168,-5.315102,-5.752423,38.601772,-44.546313,-0.203918,0.193442,0.000000,-1.207615,-0.841957,0.000000
3.210000,2.013449,-0.464974,-1.716618,1.343502,1.023385,-0.148725,-1.343609,-1.600514,2.625375,5.258639,-9.615659,-5.746374,-7.133501,41.121565,-41.568910,-0.215571,0.184876,0.000000,-1.121523,-0.832003,0.000000
3.220000,2.026816,-0.454820,-1.717974,1.330329,1.006899,-0.122759,-1.291384,-1.694605,2.565829,5.180872,-9.192737,-6.146480,-8.195105,43.072314,-38.311955,-0.226350,0.176412,0.000000,-1.033548,-0.818325,0.000000
3.230000,2.040055,-0.444836,-1.719073,1.317675,0.989493,-0.097408,-1.239991,-1.784368,2.502446,5.094737,-8.754213,-6.512613,-8.971344,44.499887,-34.896865,-0.236245,0.168085,0.000000,-0.945428,-0.801764,0.000000
3.240000,2.053170,-0.435030,-1.719922,1.305529,0.971212,-0.072710,-1.189489,-1.869690,2.435577,5.001445,-8.302739,-6.844417,-9.814846,45.968017,-31.531386,-0.245263,0.159922,0.000000,-0.858026,-0.782779,0.000000
3.250000,2.066166,-0.425411,-1.720528,1.293885,0.952100,-0.048697,-1.139962,-1.950423,2.365557,4.898440,-7.834853,-7.143241,-10.823953,47.659449,-28.186809,-0.253411,0.151949,0.000000,-0.771277,-0.761373,0.000000
3.260000,2.079048,-0.415988,-1.720896,1.282730,0.932203,-0.025399,-1.091520,-2.026387,2.292712,4.784966,-7.349550,-7.408154,-11.751478,49.173926,-24.762144,-0.260695,0.144194,0.000000,-0.685443,-0.737725,-0.000000
3.270000,2.091820,-0.406767,-1.721036,1.272054,0.911572,-0.002843,-1.044263,-2.097414,2.217394,4.663410,-6.851374,-7.638483,-12.359856,50.053487,-21.417085,-0.267127,0.136679,0.000000,-0.601397,-0.712405,0.000000
3.280000,2.104489,-0.397757,-1.720953,1.261845,0.890255,0.018949,-0.998252,-2.163414,2.139942,4.537769,-6.348480,-7.836495,-12.716975,50.410746,-18.234837,-0.272731,0.129422,0.000000,-0.520242,-0.686189,0.000000
3.290000,2.117057,-0.388962,-1.720657,1.252089,0.868304,0.039956,-0.953508,-2.224384,2.060664,4.409071,-5.843159,-8.003180,-13.129336,50.838107,-15.025000,-0.277541,0.122428,0.000000,-0.442288,-0.659416,-0.000000
3.300000,2.129530,-0.380391,-1.720154,1.242775,0.845767,0.060162,-0.910071,-2.280277,1.979879,4.275182,-5.331718,-8.136995,-13.682420,51.429630,-11.654563,-0.281585,0.115708,0.000000,-0.367158,-0.631976,0.000000
3.310000,2.141913,-0.372047,-1.719453,1.233888,0.822698,0.079554,-0.868004,-2.331018,1.897924,4.135422,-4.814566,-8.236271,-14.168562,51.786408,-8.294382,-0.284892,0.109269,0.000000,-0.294944,-0.603934,-0.000000
3.320000,2.154208,-0.363937,-1.718563,1.225415,0.799147,0.098121,-0.827362,-2.376569,1.815153,3.991811,-4.295990,-8.302883,-14.380950,51.719045,-5.335937,-0.287492,0.103120,0.000000,-0.226024,-0.575704,0.000000
3.330000,2.166421,-0.356064,-1.717491,1.217341,0.775167,0.115857,-0.788168,-2.416938,1.731867,3.847803,-3.780186,-8.342990,-14.388244,51.354046,-2.775468,-0.289420,0.097260,0.000000,-0.160567,-0.547873,0.000000
3.340000,2.178555,-0.348433,-1.716246,1.209651,0.750808,0.132758,-0.750406,-2.452172,1.648294,3.704046,-3.268909,-8.358392,-14.464311,50.927999,-0.119269,-0.290710,0.091685,0.000000,-0.098564,-0.520596,0.000000
3.350000,2.190614,-0.341048,-1.714836,1.202333,0.726123,0.148823,-0.714087,-2.482316,1.564699,3.558517,-2.761626,-8.345376,-14.632642,50.529621,2.813263,-0.291398,0.086390,0.000000,-0.039906,-0.493646,0.000000
3.360000,2.202602,-0.333911,-1.713269,1.195370,0.701162,0.164052,-0.679236,-2.507405,1.481386,3.411393,-2.258317,-8.302127,-14.717970,50.006669,5.655364,-0.291514,0.081374,0.000000,0.015523,-0.467077,-0.000000
3.370000,2.214521,-0.327025,-1.711555,1.188748,0.675975,0.178450,-0.645859,-2.527482,1.398656,3.264158,-1.761492,-8.232268,-14.702810,49.121075,7.927284,-0.291093,0.076634,0.000000,0.067746,-0.441128,0.000000
3.380000,2.226377,-0.320391,-1.709700,1.182452,0.650612,0.192025,-0.613953,-2.542635,1.316741,3.117337,-1.275895,-8.143581,-14.663548,47.928745,9.716568,-0.290164,0.072162,0.000000,0.116692,-0.415933,-0.000000
3.390000,2.238171,-0.314012,-1.707714,1.176469,0.625122,0.204785,-0.583512,-2.553000,1.235785,2.970887,-0.802917,-8.037937,-14.619076,46.760797,11.632598,-0.288763,0.067950,0.000000,0.162465,-0.391488,0.000000
3.400000,2.249906,-0.307889,-1.705605,1.170782,0.599552,0.216741,-0.554535,-2.558693,1.155982,2.824955,-0.340679,-7.910929,-14.506489,45.634607,13.787775,-0.286919,0.063991,0.000000,0.205314,-0.367760,0.000000
3.410000,2.261586,-0.302021,-1.703379,1.165378,0.573949,0.227905,-0.527013,-2.559814,1.077566,2.680757,0.109775,-7.762181,-14.329978,44.344192,15.757186,-0.284660,0.060278,0.000000,0.245296,-0.344865,0.000000
3.420000,2.273214,-0.296410,-1.701046,1.160242,0.548356,0.238292,-0.500920,-2.556498,1.000738,2.538356,0.546205,-7.595786,-14.272465,42.925475,17.281131,-0.282015,0.056802,0.000000,0.282479,-0.322813,0.000000
3.430000,2.284791,-0.291054,-1.698614,1.155360,0.522819,0.247920,-0.476246,-2.548890,0.925650,2.395308,0.968284,-7.416559,-14.361607,41.467038,18.481125,-0.279012,0.053554,0.000000,0.317143,-0.301336,-0.000000
3.440000,2.296321,-0.285954,-1.696088,1.150717,0.497378,0.256805,-0.453014,-2.537132,0.852407,2.251123,1.375545,-7.226163,-14.353155,39.922679,19.673096,-0.275674,0.050530,0.000000,0.349435,-0.280360,-0.000000
3.450000,2.307805,-0.281107,-1.693477,1.146299,0.472076,0.264968,-0.431224,-2.521379,0.781127,2.108245,1.766738,-7.023097,-14.112115,38.271098,20.964006,-0.272025,0.047724,0.000000,0.379315,-0.260105,0.000000
3.460000,2.319247,-0.276512,-1.690789,1.142093,0.446951,0.272428,-0.410849,-2.501797,0.711945,1.968881,2.140967,-6.806883,-13.819643,36.564325,22.135744,-0.268089,0.045127,0.000000,0.406810,-0.240764,0.000000
3.470000,2.330647,-0.272168,-1.688029,1.138082,0.422040,0.279207,-0.391846,-2.478560,0.644990,1.831852,2.498024,-6.580382,-13.823843,34.860204,22.888617,-0.263889,0.042729,0.000000,0.432103,-0.222184,0.000000
3.480000,2.342008,-0.268071,-1.685205,1.134256,0.397379,0.285328,-0.374212,-2.451837,0.580338,1.692404,2.838171,-6.349111,-14.071269,33.162944,23.285200,-0.259447,0.040522,0.000000,0.455483,-0.203851,0.000000
3.490000,2.353332,-0.264220,-1.682322,1.130598,0.373003,0.290813,-0.357998,-2.421796,0.518007,1.550426,3.161283,-6.114678,-14.103288,31.417578,23.723490,-0.254780,0.038509,0.000000,0.477064,-0.185729,0.000000
3.500000,2.364620,-0.260611,-1.679388,1.127096,0.348944,0.295688,-0.343203,-2.388611,0.458044,1.410338,3.466523,-5.874641,-13.921291,29.571843,24.264734,-0.249905,0.036682,0.000000,0.496770,-0.168232,0.000000
3.510000,2.375874,-0.257241,-1.676409,1.123734,0.325231,0.299974,-0.329791,-2.352466,0.400515,1.272000,3.752720,-5.629383,-13.829866,27.682449,24.645475,-0.244844,0.035034,0.000000,0.514570,-0.151308,0.000000
3.520000,2.387095,-0.254107,-1.673389,1.120500,0.301894,0.303698,-0.317763,-2.313557,0.345456,1.133741,4.020172,-5.381731,-13.743858,25.928104,24.761556,-0.239613,0.033561,0.000000,0.530631,-0.134759,-0.000000
3.530000,2.398284,-0.251203,-1.670335,1.117379,0.278960,0.306883,-0.307116,-2.272062,0.292880,0.997123,4.271282,-5.134152,-13.544550,24.317482,24.709571,-0.234230,0.032259,0.000000,0.545302,-0.118720,0.000000
3.540000,2.409443,-0.248527,-1.667251,1.114357,0.256453,0.309556,-0.297821,-2.228131,0.242773,0.862850,4.506522,-4.887540,-13.375368,22.625169,24.620738,-0.228706,0.031119,0.000000,0.558687,-0.103228,0.000000
3.550000,2.420571,-0.246074,-1.664144,1.111422,0.234397,0.311739,-0.289859,-2.181932,0.195129,0.729616,4.723786,-4.641737,-13.313625,20.757564,24.489615,-0.223056,0.030138,0.000000,0.570606,-0.088117,0.000000
3.560000,2.431671,-0.243839,-1.661016,1.108560,0.212814,0.313458,-0.283228,-2.133655,0.149939,0.596578,4.921673,-4.397748,-13.252048,18.884995,24.241835,-0.217293,0.029311,0.000000,0.580973,-0.073276,0.000000
3.570000,2.442743,-0.241818,-1.657874,1.105758,0.191724,0.314738,-0.277928,-2.083498,0.107174,0.464575,5.101485,-4.156901,-13.038284,17.258942,23.907695,-0.211435,0.028636,0.000000,0.589965,-0.058764,0.000000
3.580000,2.453786,-0.240005,-1.654722,1.103002,0.171144,0.315602,-0.273937,-2.031626,0.066801,0.335812,5.266852,-3.919594,-12.711781,15.835225,23.520518,-0.205493,0.028108,0.000000,0.597958,-0.044778,0.000000
3.590000,2.464803,-0.238395,-1.651562,1.100279,0.151092,0.316074,-0.271211,-1.978161,0.028782,0.210339,5.418190,-3.686490,-12.470093,14.294659,23.047164,-0.199475,0.027721,0.000000,0.605014,-0.031297,0.000000
3.600000,2.475792,-0.236983,-1.648400,1.097578,0.131581,0.316177,-0.269730,-1.923262,-0.006929,0.086410,5.552745,-3.458650,-12.271242,12.623660,22.502223,-0.193391,0.027469,0.000000,0.610885,-0.018124,0.000000
3.610000,2.486754,-0.235763,-1.645239,1.094885,0.112626,0.315935,-0.269483,-1.867106,-0.040391,-0.035086,5.670663,-3.236446,-11.988190,11.042016,21.918745,-0.187256,0.027351,0.000000,0.615589,-0.005328,0.000000
3.620000,2.497690,-0.234731,-1.642081,1.092188,0.094239,0.315369,-0.270432,-1.809849,-0.071658,-0.153354,5.773585,-3.020276,-11.773713,9.553223,21.259971,-0.181078,0.027360,0.000000,0.619290,0.007032,0.000000
3.630000,2.508598,-0.233879,-1.638931,1.089476,0.076429,0.314502,-0.272550,-1.751635,-0.100796,-0.270560,5.861728,-2.811247,-11.675380,8.089282,20.528330,-0.174869,0.027493,0.000000,0.622019,0.019187,0.000000
3.640000,2.519479,-0.233202,-1.635791,1.086737,0.059206,0.313354,-0.275843,-1.692614,-0.127883,-0.386861,5.935371,-2.609709,-11.472943,6.669945,19.790656,-0.168637,0.027750,0.000000,0.623794,0.031166,0.000000
3.650000,2.530333,-0.232694,-1.632664,1.083959,0.042577,0.311944,-0.280288,-1.632927,-0.152990,-0.500019,5.995127,-2.415433,-11.163209,5.270181,19.010268,-0.162392,0.028125,0.000000,0.624655,0.042763,0.000000
3.660000,2.541158,-0.232350,-1.629553,1.081131,0.026548,0.310294,-0.285843,-1.572711,-0.176192,-0.610125,6.040775,-2.229504,-10.894792,3.880822,18.156829,-0.156143,0.028616,0.000000,0.624579,0.053997,0.000000
3.670000,2.551955,-0.232164,-1.626458,1.078242,0.011123,0.308420,-0.292490,-1.512112,-0.197581,-0.717914,6.072743,-2.052297,-10.608449,2.617369,17.379843,-0.149899,0.029219,0.000000,0.623593,0.064951,0.000000
3.680000,2.562723,-0.232128,-1.623384,1.075281,-0.003694,0.306342,-0.300202,-1.451257,-0.217238,-0.822294,6.093122,-1.881907,-10.247616,1.492208,16.707073,-0.143670,0.029930,0.000000,0.621852,0.075533,0.000000
3.690000,2.573461,-0.232237,-1.620332,1.072238,-0.017902,0.304076,-0.308936,-1.390249,-0.235219,-0.922867,6.102587,-1.718155,-9.906809,0.348524,15.942669,-0.137461,0.030745,0.000000,0.619401,0.085713,0.000000
3.700000,2.584168,-0.232486,-1.617303,1.069103,-0.031499,0.301638,-0.318659,-1.329205,-0.251601,-1.020431,6.100092,-1.563053,-9.612240,-0.845228,15.046348,-0.131281,0.031660,0.000000,0.616144,0.095572,-0.000000
3.710000,2.594843,-0.232867,-1.614299,1.065865,-0.044486,0.299044,-0.329345,-1.268247,-0.266480,-1.115112,6.085683,-1.417228,-9.296578,-1.979480,14.162273,-0.125138,0.032673,0.000000,0.612070,0.105126,-0.000000
3.720000,2.605485,-0.233376,-1.611322,1.062516,-0.056864,0.296308,-0.340961,-1.207491,-0.279945,-1.206362,6.060503,-1.279808,-8.925251,-2.996402,13.376957,-0.119039,0.033779,0.000000,0.607254,0.114328,0.000000
3.730000,2.616093,-0.234005,-1.608373,1.059046,-0.068636,0.293445,-0.353472,-1.147037,-0.292076,-1.293617,6.025755,-1.149689,-8.520412,-3.931735,12.652545,-0.112992,0.034976,0.000000,0.601779,0.123130,0.000000
3.740000,2.626666,-0.234748,-1.605453,1.055446,-0.079805,0.290467,-0.366834,-1.086976,-0.302939,-1.376770,5.981868,-1.026757,-8.123797,-4.854433,11.891975,-0.107003,0.036258,0.000000,0.595666,0.131526,0.000000
3.750000,2.637202,-0.235601,-1.602563,1.051709,-0.090376,0.287386,-0.381007,-1.027400,-0.312611,-1.456093,5.928666,-0.911850,-7.739267,-5.766392,11.068752,-0.101078,0.037621,0.000000,0.588885,0.139540,0.000000
3.760000,2.647700,-0.236556,-1.599705,1.047826,-0.100353,0.284214,-0.395955,-0.968403,-0.321176,-1.531556,5.866540,-0.805382,-7.339741,-6.622410,10.255273,-0.095225,0.039063,0.000000,0.581457,0.147170,0.000000
3.770000,2.658159,-0.237608,-1.596879,1.043790,-0.109744,0.280963,-0.411638,-0.910069,-0.328719,-1.602887,5.796218,-0.706744,-6.915296,-7.417710,9.539306,-0.089449,0.040578,0.000000,0.573425,0.154390,-0.000000
3.780000,2.668576,-0.238751,-1.594086,1.039593,-0.118554,0.277640,-0.428013,-0.852478,-0.335311,-1.669862,5.718186,-0.614596,-6.474946,-8.167884,8.906275,-0.083756,0.042163,0.000000,0.564805,0.161184,0.000000
3.790000,2.678951,-0.239979,-1.591326,1.035230,-0.126793,0.274256,-0.445036,-0.795706,-0.341011,-1.732386,5.632860,-0.528619,-6.031325,-8.876360,8.247630,-0.078152,0.043813,0.000000,0.555621,0.167542,0.000000
3.800000,2.689281,-0.241287,-1.588601,1.030693,-0.134469,0.270820,-0.462661,-0.739821,-0.345883,-1.790488,5.540659,-0.449643,-5.590443,-9.544959,7.532986,-0.072643,0.045524,0.000000,0.545904,0.173464,0.000000
3.810000,2.699564,-0.242668,-1.585910,1.025976,-0.141590,0.267339,-0.480845,-0.684892,-0.350003,-1.844195,5.441961,-0.377959,-5.144719,-10.172426,6.841020,-0.067234,0.047292,0.000000,0.535675,0.178948,0.000000
3.820000,2.709800,-0.244118,-1.583254,1.021076,-0.148166,0.263820,-0.499545,-0.630982,-0.353443,-1.893383,5.337210,-0.312823,-4.678102,-10.749555,6.253300,-0.061929,0.049112,0.000000,0.524957,0.183982,0.000000
3.830000,2.719986,-0.245632,-1.580633,1.015986,-0.154209,0.260270,-0.518713,-0.578148,-0.356260,-1.937757,5.226970,-0.252893,-4.193288,-11.276759,5.749774,-0.056734,0.050979,0.000000,0.513784,0.188542,0.000000
3.840000,2.730120,-0.247203,-1.578049,1.010701,-0.159729,0.256695,-0.538300,-0.526443,-0.358500,-1.977248,5.111675,-0.197827,-3.713544,-11.767881,5.228317,-0.051654,0.052889,0.000000,0.502186,0.192621,0.000000
3.850000,2.740200,-0.248826,-1.575500,1.005220,-0.164738,0.253100,-0.558258,-0.475915,-0.360216,-2.012028,4.991612,-0.148327,-3.243797,-12.226952,4.667369,-0.046691,0.054836,0.000000,0.490184,0.196229,0.000000
3.860000,2.750224,-0.250497,-1.572987,0.999536,-0.169248,0.249490,-0.578541,-0.426610,-0.361467,-2.042124,4.867136,-0.104480,-2.769655,-12.645395,4.138252,-0.041850,0.056818,0.000000,0.477804,0.199365,0.000000
3.870000,2.760191,-0.252211,-1.570510,0.993649,-0.173270,0.245870,-0.599100,-0.378572,-0.362306,-2.067421,4.738704,-0.065562,-2.284183,-13.016554,3.694887,-0.037134,0.058827,0.000000,0.465078,0.202020,0.000000
3.880000,2.770097,-0.253963,-1.568069,0.987554,-0.176819,0.242244,-0.619889,-0.331836,-0.362778,-2.087808,4.606805,-0.030582,-1.793489,-13.343538,3.316601,-0.032548,0.060861,0.000000,0.452042,0.204185,0.000000
3.890000,2.779942,-0.255748,-1.565665,0.981251,-0.179907,0.238615,-0.640857,-0.286436,-0.362918,-2.103291,4.471833,0.000770,-1.308036,-13.636347,2.936238,-0.028094,0.062913,0.000000,0.438729,0.205860,0.000000
3.900000,2.789722,-0.257561,-1.563297,0.974737,-0.182548,0.234986,-0.661955,-0.242400,-0.362763,-2.113969,4.334078,0.028142,-0.828552,-13.899798,2.539444,-0.023774,0.064980,0.000000,0.425162,0.207051,0.000000
3.910000,2.799437,-0.259399,-1.560965,0.968012,-0.184755,0.231360,-0.683136,-0.199754,-0.362355,-2.119862,4.193837,0.051559,-0.349889,-14.128130,2.171914,-0.019590,0.067055,0.000000,0.411368,0.207758,0.000000
3.920000,2.809082,-0.261256,-1.558670,0.961074,-0.186543,0.227739,-0.704352,-0.158523,-0.361732,-2.120966,4.051515,0.071581,0.126023,-14.310984,1.870149,-0.015546,0.069136,0.000000,0.397378,0.207981,0.000000
3.930000,2.818658,-0.263129,-1.556410,0.953925,-0.187926,0.224125,-0.725555,-0.118724,-0.360923,-2.117342,3.907618,0.088962,0.595571,-14.450546,1.620060,-0.011643,0.071216,0.000000,0.383240,0.207729,0.000000
3.940000,2.828161,-0.265015,-1.554187,0.946563,-0.188917,0.220520,-0.746699,-0.080371,-0.359952,-2.109055,3.762505,0.103982,1.059556,-14.562498,1.374543,-0.007881,0.073291,0.000000,0.368986,0.207009,0.000000
3.950000,2.837589,-0.266908,-1.552000,0.938991,-0.189533,0.216926,-0.767736,-0.043474,-0.358844,-2.096150,3.616368,0.116453,1.519930,-14.652253,1.124390,-0.004263,0.075356,0.000000,0.354634,0.205824,0.000000
3.960000,2.846941,-0.268805,-1.549849,0.931209,-0.189787,0.213343,-0.788622,-0.008043,-0.357623,-2.078656,3.469460,0.126470,1.974097,-14.710452,0.900510,-0.000789,0.077407,0.000000,0.340207,0.204175,0.000000
3.970000,2.856213,-0.270703,-1.547733,0.923218,-0.189694,0.209773,-0.809309,0.025915,-0.356314,-2.056668,3.322159,0.134463,2.413599,-14.727258,0.723125,0.002541,0.079439,0.000000,0.325741,0.202074,0.000000
3.980000,2.865405,-0.272599,-1.545653,0.915022,-0.189269,0.206217,-0.829755,0.058400,-0.354934,-2.030384,3.174914,0.140932,2.836993,-14.706610,0.581270,0.005726,0.081449,0.000000,0.311280,0.199543,0.000000
3.990000,2.874514,-0.274489,-1.543609,0.906623,-0.188526,0.202675,-0.849917,0.089414,-0.353496,-1.999929,3.028027,0.146089,3.253564,-14.663482,0.447980,0.008767,0.083430,0.000000,0.296854,0.196595,0.000000
4.000000,2.883538,-0.276370,-1.541600,0.898024,-0.187480,0.199147,-0.869754,0.118961,-0.352012,-1.965313,2.881645,0.149892,3.668448,-14.601416,0.320368,0.011663,0.085381,0.000000,0.282478,0.193232,-0.000000
4.010000,2.892474,-0.278238,-1.539626,0.889228,-0.186147,0.195635,-0.889223,0.147047,-0.350498,-1.926560,2.735998,0.152496,4.073330,-14.512004,0.214765,0.014416,0.087295,0.000000,0.268174,0.189455,0.000000
4.020000,2.901322,-0.280093,-1.537687,0.880240,-0.184539,0.192137,-0.908285,0.173680,-0.348962,-1.883847,2.591405,0.154187,4.451729,-14.390760,0.134224,0.017027,0.089170,0.000000,0.253975,0.185286,0.000000
4.030000,2.910079,-0.281929,-1.535783,0.871063,-0.182673,0.188655,-0.926900,0.198875,-0.347414,-1.837525,2.448183,0.155180,4.804113,-14.241680,0.071534,0.019496,0.091002,0.000000,0.239912,0.180759,0.000000
4.040000,2.918743,-0.283746,-1.533914,0.861702,-0.180562,0.185189,-0.945035,0.222644,-0.345859,-1.787764,2.306571,0.155618,5.150656,-14.072777,0.021579,0.021825,0.092786,0.000000,0.226010,0.175893,0.000000
4.050000,2.927313,-0.285540,-1.532079,0.852162,-0.178220,0.181738,-0.962656,0.245006,-0.344302,-1.734512,2.166728,0.155612,5.497582,-13.887102,-0.014702,0.024016,0.094520,0.000000,0.212285,0.170685,0.000000
4.060000,2.935787,-0.287310,-1.530279,0.842448,-0.175662,0.178303,-0.979726,0.265979,-0.342746,-1.677813,2.028829,0.155324,5.829657,-13.681149,-0.036040,0.026071,0.096201,0.000000,0.198755,0.165139,-0.000000
4.070000,2.944162,-0.289054,-1.528513,0.832567,-0.172901,0.174883,-0.996212,0.285583,-0.341195,-1.617919,1.893105,0.154891,6.129578,-13.450824,-0.048025,0.027991,0.097824,0.000000,0.185443,0.159282,0.000000
4.080000,2.952438,-0.290768,-1.526781,0.822524,-0.169950,0.171479,-1.012084,0.303841,-0.339649,-1.555221,1.759813,0.154363,6.400329,-13.199024,-0.053285,0.029780,0.099388,0.000000,0.172376,0.153154,0.000000
4.090000,2.960613,-0.292453,-1.525084,0.812326,-0.166824,0.168090,-1.027316,0.320779,-0.338108,-1.489912,1.629124,0.153826,6.663162,-12.933763,-0.046337,0.031439,0.100889,0.000000,0.159570,0.146774,0.000000
4.100000,2.968685,-0.294105,-1.523420,0.801978,-0.163535,0.164717,-1.041882,0.336423,-0.336572,-1.421958,1.501137,0.153437,6.925473,-12.654831,-0.023664,0.032971,0.102325,0.000000,0.147035,0.140140,-0.000000
4.110000,2.976652,-0.295723,-1.521789,0.791488,-0.160095,0.161359,-1.055755,0.350802,-0.335039,-1.351403,1.376027,0.153352,7.171797,-12.359065,0.008819,0.034379,0.103693,0.000000,0.134790,0.133259,-0.000000
4.120000,2.984514,-0.297307,-1.520193,0.780863,-0.156519,0.158016,-1.068910,0.363944,-0.333505,-1.278522,1.253956,0.153613,7.381924,-12.052749,0.038494,0.035667,0.104991,0.000000,0.122850,0.126157,0.000000
4.130000,2.992269,-0.298854,-1.518629,0.770110,-0.152816,0.154689,-1.081326,0.375881,-0.331967,-1.203764,1.134972,0.154122,7.559388,-11.739176,0.065066,0.036836,0.106218,0.000000,0.111219,0.118879,0.000000
4.140000,2.999916,-0.300363,-1.517099,0.759236,-0.149001,0.151377,-1.092986,0.386643,-0.330423,-1.127334,1.019172,0.154914,7.729944,-11.412134,0.103334,0.037891,0.107371,0.000000,0.099907,0.111443,0.000000
4.150000,3.007454,-0.301834,-1.515601,0.748250,-0.145084,0.148080,-1.103873,0.396264,-0.328869,-1.049165,0.906730,0.156189,7.900208,-11.069407,0.157970,0.038835,0.108448,0.000000,0.088930,0.103846,0.000000
4.160000,3.014881,-0.303265,-1.514137,0.737159,-0.141076,0.144799,-1.113969,0.404778,-0.327299,-0.969330,0.797784,0.158074,8.052272,-10.717463,0.217087,0.039670,0.109449,0.000000,0.078303,0.096097,0.000000
4.170000,3.022197,-0.304655,-1.512705,0.725971,-0.136988,0.141534,-1.123259,0.412220,-0.325707,-0.888120,0.692381,0.160531,8.169963,-10.365115,0.266481,0.040401,0.110372,0.000000,0.068029,0.088222,0.000000
4.180000,3.029401,-0.306005,-1.511306,0.714694,-0.132831,0.138285,-1.131731,0.418625,-0.324088,-0.805931,0.590482,0.163403,8.258493,-10.012184,0.308101,0.041030,0.111215,0.000000,0.058103,0.080258,0.000000
4.190000,3.036491,-0.307312,-1.509940,0.703336,-0.128615,0.135052,-1.139378,0.424029,-0.322439,-0.722950,0.492137,0.166693,8.338595,-9.649660,0.358747,0.041563,0.111978,0.000000,0.048528,0.072224,0.000000
4.200000,3.043468,-0.308577,-1.508605,0.691906,-0.124351,0.131836,-1.146190,0.428468,-0.320754,-0.639159,0.397489,0.170578,8.414324,-9.276017,0.423399,0.042001,0.112661,0.000000,0.039320,0.064118,0.000000
4.210000,3.050329,-0.309799,-1.507303,0.680412,-0.120046,0.128637,-1.152161,0.431979,-0.319027,-0.554664,0.306617,0.175161,8.471775,-8.899273,0.489266,0.042349,0.113262,0.000000,0.030485,0.055952,-0.000000
4.220000,3.057076,-0.310978,-1.506033,0.668863,-0.115711,0.125456,-1.157284,0.434601,-0.317251,-0.469723,0.219503,0.180364,8.501754,-8.526576,0.541569,0.042611,0.113781,0.000000,0.022021,0.047750,-0.000000
4.230000,3.063707,-0.312113,-1.504794,0.657267,-0.111354,0.122292,-1.161555,0.436369,-0.315420,-0.384629,0.136085,0.185992,8.508615,-8.157422,0.582962,0.042789,0.114217,0.000000,0.013919,0.039537,0.000000
4.240000,3.070221,-0.313205,-1.503587,0.645632,-0.106984,0.119147,-1.164976,0.437322,-0.313531,-0.299551,0.056355,0.192023,8.504323,-7.784859,0.631443,0.042889,0.114572,0.000000,0.006178,0.031328,0.000000
4.250000,3.076619,-0.314253,-1.502411,0.633967,-0.102608,0.116022,-1.167546,0.437496,-0.311580,-0.214542,-0.019612,0.198621,8.492788,-7.404487,0.691122,0.042913,0.114845,0.000000,-0.001195,0.023131,0.000000
4.260000,3.082901,-0.315257,-1.501266,0.622281,-0.098234,0.112916,-1.169267,0.436930,-0.309559,-0.129695,-0.091735,0.205845,8.466303,-7.022961,0.748850,0.042865,0.115035,0.000000,-0.008192,0.014953,-0.000000
4.270000,3.089065,-0.316218,-1.500153,0.610582,-0.093869,0.109831,-1.170140,0.435662,-0.307463,-0.045216,-0.160071,0.213598,8.415258,-6.655997,0.793364,0.042749,0.115144,0.000000,-0.014820,0.006813,0.000000
4.280000,3.095112,-0.317134,-1.499070,0.598878,-0.089520,0.106767,-1.170171,0.433729,-0.305287,0.038610,-0.224855,0.221713,8.342324,-6.303550,0.827985,0.042569,0.115172,0.000000,-0.021104,-0.001263,0.000000
4.290000,3.101042,-0.318008,-1.498017,0.587178,-0.085194,0.103725,-1.169368,0.431165,-0.303029,0.121630,-0.286142,0.230157,8.260912,-5.946432,0.866253,0.042327,0.115119,0.000000,-0.027049,-0.009263,0.000000
4.300000,3.106856,-0.318838,-1.496995,0.575491,-0.080897,0.100706,-1.167739,0.428006,-0.300684,0.203828,-0.343783,0.239038,8.173186,-5.579943,0.911180,0.042028,0.114986,0.000000,-0.032642,-0.017185,0.000000
4.310000,3.112552,-0.319626,-1.496003,0.563823,-0.076634,0.097711,-1.165292,0.424289,-0.298248,0.285094,-0.397741,0.248381,8.070805,-5.218636,0.953037,0.041674,0.114775,0.000000,-0.037878,-0.025017,0.000000
4.320000,3.118132,-0.320371,-1.495041,0.552185,-0.072411,0.094741,-1.162037,0.420051,-0.295716,0.365244,-0.448156,0.258098,7.951001,-4.875436,0.983295,0.041270,0.114485,0.000000,-0.042773,-0.032744,-0.000000
4.330000,3.123596,-0.321074,-1.494108,0.540583,-0.068233,0.091797,-1.157987,0.415326,-0.293086,0.444114,-0.495250,0.268047,7.817291,-4.547092,1.004409,0.040819,0.114119,0.000000,-0.047349,-0.040353,-0.000000
4.340000,3.128944,-0.321736,-1.493205,0.529025,-0.064105,0.088879,-1.153155,0.410146,-0.290355,0.521590,-0.539098,0.278186,7.673813,-4.218508,1.026840,0.040323,0.113677,0.000000,-0.051614,-0.047833,0.000000
4.350000,3.134176,-0.322356,-1.492331,0.517520,-0.060030,0.085990,-1.147555,0.404544,-0.287522,0.597590,-0.579620,0.288584,7.520490,-3.885894,1.053416,0.039786,0.113162,0.000000,-0.055560,-0.055177,0.000000
4.360000,3.139294,-0.322936,-1.491485,0.506074,-0.056014,0.083129,-1.141203,0.398553,-0.284584,0.672000,-0.616816,0.299255,7.355528,-3.560552,1.076704,0.039212,0.112573,0.000000,-0.059186,-0.062373,-0.000000
4.370000,3.144298,-0.323476,-1.490668,0.494696,-0.052059,0.080298,-1.134115,0.392208,-0.281537,0.744701,-0.650831,0.310118,7.180701,-3.254071,1.089037,0.038603,0.111913,0.000000,-0.062508,-0.069412,0.000000
4.380000,3.149188,-0.323977,-1.489879,0.483392,-0.048170,0.077498,-1.126309,0.385537,-0.278381,0.815614,-0.681897,0.321036,6.997439,-2.964089,1.092492,0.037962,0.111184,0.000000,-0.065548,-0.076288,-0.000000
4.390000,3.153966,-0.324440,-1.489118,0.472169,-0.044349,0.074730,-1.117803,0.378570,-0.275116,0.884650,-0.710113,0.331968,6.804297,-2.676595,1.096796,0.037292,0.110386,0.000000,-0.068317,-0.082992,0.000000
4.400000,3.158632,-0.324864,-1.488385,0.461036,-0.040598,0.071996,-1.108616,0.371335,-0.271742,0.951700,-0.735429,0.342971,6.601005,-2.387258,1.103315,0.036595,0.109523,0.000000,-0.070809,-0.089514,0.000000
4.410000,3.163186,-0.325252,-1.487678,0.449997,-0.036922,0.069296,-1.098769,0.363861,-0.268257,1.016670,-0.757858,0.354034,6.389483,-2.106396,1.105414,0.035875,0.108595,0.000000,-0.073024,-0.095846,0.000000
4.420000,3.167631,-0.325603,-1.486999,0.439060,-0.033321,0.066631,-1.088282,0.356177,-0.264661,1.079490,-0.777557,0.365080,6.171720,-1.846301,1.100223,0.035135,0.107604,0.000000,-0.074979,-0.101981,0.000000
4.430000,3.171968,-0.325918,-1.486346,0.428231,-0.029798,0.064002,-1.077179,0.348310,-0.260955,1.140104,-0.794784,0.376038,5.947947,-1.604581,1.089928,0.034376,0.106554,0.000000,-0.076699,-0.107914,0.000000
4.440000,3.176196,-0.326199,-1.485719,0.417517,-0.026355,0.061412,-1.065480,0.340282,-0.257140,1.198448,-0.809649,0.386878,5.716709,-1.365789,1.077895,0.033601,0.105445,0.000000,-0.078194,-0.113640,-0.000000
4.450000,3.180318,-0.326445,-1.485118,0.406922,-0.022993,0.058860,-1.053210,0.332117,-0.253218,1.254438,-0.822100,0.397596,5.476830,-1.126388,1.064581,0.032812,0.104280,0.000000,-0.079458,-0.119151,0.000000
4.460000,3.184335,-0.326659,-1.484542,0.396453,-0.019713,0.056347,-1.040392,0.323840,-0.249189,1.307985,-0.832177,0.408170,5.230190,-0.897282,1.047820,0.032012,0.103061,0.000000,-0.080495,-0.124437,-0.000000
4.470000,3.188247,-0.326840,-1.483991,0.386114,-0.016516,0.053876,-1.027050,0.315473,-0.245054,1.359042,-0.840046,0.418553,4.981936,-0.687338,1.026212,0.031202,0.101790,0.000000,-0.081321,-0.129494,-0.000000
4.480000,3.192057,-0.326989,-1.483464,0.375912,-0.013403,0.051446,-1.013211,0.307039,-0.240817,1.407624,-0.845923,0.428694,4.732412,-0.493554,1.000497,0.030385,0.100469,0.000000,-0.081956,-0.134323,0.000000
4.490000,3.195765,-0.327108,-1.482962,0.365850,-0.010375,0.049059,-0.998898,0.298555,-0.236480,1.453690,-0.849917,0.438563,4.475664,-0.304877,0.972547,0.029563,0.099102,0.000000,-0.082412,-0.138921,0.000000
4.500000,3.199374,-0.327197,-1.482483,0.355934,-0.007432,0.046717,-0.984137,0.290041,-0.232046,1.497137,-0.852021,0.448145,4.210146,-0.118384,0.942608,0.028737,0.097690,0.000000,-0.082686,-0.143278,0.000000
4.510000,3.202884,-0.327256,-1.482027,0.346167,-0.004574,0.044419,-0.968955,0.281515,-0.227518,1.537893,-0.852284,0.457415,3.940704,0.058300,0.909530,0.027909,0.096235,0.000000,-0.082783,-0.147384,0.000000
4.520000,3.206297,-0.327288,-1.481595,0.336554,-0.001802,0.042166,-0.953379,0.272995,-0.222898,1.575951,-0.850855,0.466336,3.672212,0.217537,0.872970,0.027081,0.094741,0.000000,-0.082717,-0.151240,-0.000000
4.530000,3.209615,-0.327292,-1.481184,0.327099,0.000886,0.039961,-0.937436,0.264497,-0.218191,1.611338,-0.847934,0.474874,3.403826,0.361445,0.833433,0.026255,0.093209,0.000000,-0.082507,-0.154847,0.000000
4.540000,3.212839,-0.327270,-1.480795,0.317806,0.003488,0.037802,-0.921152,0.256036,-0.213400,1.644028,-0.843626,0.483004,3.130109,0.499990,0.791433,0.025431,0.091643,0.000000,-0.082164,-0.158203,-0.000000
4.550000,3.215971,-0.327223,-1.480428,0.308676,0.006006,0.035693,-0.904555,0.247625,-0.208531,1.673940,-0.837934,0.490703,2.849763,0.635935,0.746933,0.024612,0.090044,0.000000,-0.081686,-0.161298,0.000000
4.560000,3.219013,-0.327150,-1.480081,0.299715,0.008441,0.033632,-0.887674,0.239277,-0.203586,1.701023,-0.830907,0.497943,2.567083,0.762587,0.699736,0.023797,0.088416,0.000000,-0.081078,-0.164127,0.000000
4.570000,3.221965,-0.327054,-1.479755,0.290923,0.010792,0.031621,-0.870535,0.231007,-0.198572,1.725281,-0.822682,0.504698,2.286590,0.873452,0.650143,0.022990,0.086761,0.000000,-0.080353,-0.166689,0.000000
4.580000,3.224831,-0.326934,-1.479449,0.282304,0.013061,0.029660,-0.853168,0.222824,-0.193492,1.746755,-0.813438,0.510946,2.007643,0.970691,0.598414,0.022190,0.085081,0.000000,-0.079529,-0.168987,-0.000000
4.590000,3.227612,-0.326793,-1.479162,0.273860,0.015248,0.027751,-0.835600,0.214738,-0.188353,1.765434,-0.803268,0.516666,1.725023,1.063001,0.544260,0.021399,0.083380,0.000000,-0.078613,-0.171020,-0.000000
4.600000,3.230308,-0.326629,-1.478894,0.265592,0.017355,0.025893,-0.817859,0.206758,-0.183159,1.781255,-0.792178,0.521831,1.436805,1.151960,0.487152,0.020618,0.081660,0.000000,-0.077606,-0.172779,0.000000
4.610000,3.232923,-0.326445,-1.478644,0.257502,0.019383,0.024088,-0.799975,0.198894,-0.177916,1.794170,-0.780229,0.526409,1.147112,1.232007,0.427464,0.019847,0.079924,0.000000,-0.076514,-0.174260,0.000000
4.620000,3.235458,-0.326242,-1.478412,0.249592,0.021333,0.022335,-0.781976,0.191154,-0.172631,1.804197,-0.767538,0.530380,0.861859,1.300272,0.366857,0.019088,0.078174,0.000000,-0.075348,-0.175463,0.000000
4.630000,3.237915,-0.326019,-1.478198,0.241863,0.023207,0.020635,-0.763891,0.183544,-0.167309,1.811408,-0.754224,0.533746,0.580190,1.358715,0.305377,0.018340,0.076414,0.000000,-0.074119,-0.176393,0.000000
4.640000,3.240296,-0.325778,-1.478000,0.234315,0.025004,0.018989,-0.745748,0.176069,-0.161956,1.815801,-0.740364,0.536488,0.294876,1.411361,0.240911,0.017605,0.074646,0.000000,-0.072835,-0.177050,-0.000000
4.650000,3.242602,-0.325519,-1.477818,0.226948,0.026728,0.017396,-0.727575,0.168736,-0.156579,1.817305,-0.725996,0.538564,0.004985,1.459850,0.173062,0.016884,0.072872,0.000000,-0.071498,-0.177424,-0.000000
4.660000,3.244835,-0.325243,-1.477652,0.219763,0.028379,0.015857,-0.709402,0.161549,-0.151185,1.815901,-0.711167,0.539949,-0.284271,1.501857,0.103371,0.016176,0.071097,0.000000,-0.070114,-0.177514,0.000000
4.670000,3.246997,-0.324951,-1.477501,0.212760,0.029959,0.014372,-0.691257,0.154513,-0.145780,1.811620,-0.695959,0.540632,-0.570456,1.533678,0.032752,0.015481,0.069321,0.000000,-0.068689,-0.177320,0.000000
4.680000,3.249090,-0.324644,-1.477364,0.205938,0.031469,0.012942,-0.673169,0.147630,-0.140372,1.804492,-0.680493,0.540604,-0.855032,1.556260,-0.039186,0.014802,0.067550,0.000000,-0.067237,-0.176845,0.000000
4.690000,3.251116,-0.324322,-1.477242,0.199297,0.032912,0.011565,-0.655167,0.140903,-0.134968,1.794519,-0.664834,0.539848,-1.140522,1.575184,-0.113476,0.014137,0.065784,0.000000,-0.065762,-0.176087,-0.000000
4.700000,3.253076,-0.323986,-1.477133,0.192835,0.034287,0.010242,-0.637279,0.134334,-0.129575,1.781681,-0.648989,0.538335,-1.427205,1.591879,-0.190548,0.013487,0.064028,0.000000,-0.064266,-0.175043,-0.000000
4.710000,3.254972,-0.323636,-1.477037,0.186551,0.035598,0.008973,-0.619533,0.127923,-0.124201,1.765975,-0.632996,0.536037,-1.713176,1.603062,-0.269624,0.012851,0.062283,0.000000,-0.062752,-0.173712,-0.000000
4.720000,3.256807,-0.323274,-1.476953,0.180444,0.036846,0.007758,-0.601959,0.121674,-0.118854,1.747418,-0.616928,0.532942,-1.996889,1.606666,-0.349353,0.012231,0.060553,0.000000,-0.061228,-0.172094,0.000000
4.730000,3.258581,-0.322899,-1.476882,0.174512,0.038032,0.006596,-0.584585,0.115585,-0.113542,1.726037,-0.600863,0.529050,-2.278679,1.604123,-0.429916,0.011627,0.058841,0.000000,-0.059700,-0.170191,0.000000
4.740000,3.260297,-0.322513,-1.476821,0.168752,0.039157,0.005487,-0.567439,0.109656,-0.108273,1.701844,-0.584846,0.524344,-2.560239,1.598786,-0.513042,0.011038,0.057149,0.000000,-0.058173,-0.168002,0.000000
4.750000,3.261956,-0.322116,-1.476772,0.163163,0.040225,0.004431,-0.550548,0.103888,-0.103056,1.674832,-0.568887,0.518789,-2.842251,1.591806,-0.598926,0.010463,0.055481,0.000000,-0.056649,-0.165526,0.000000
4.760000,3.263560,-0.321709,-1.476733,0.157741,0.041235,0.003426,-0.533942,0.098279,-0.097898,1.644999,-0.553010,0.512365,-3.123353,1.581509,-0.686382,0.009905,0.053838,0.000000,-0.055130,-0.162762,-0.000000
4.770000,3.265111,-0.321291,-1.476704,0.152484,0.042190,0.002473,-0.517648,0.092828,-0.092808,1.612365,-0.537257,0.505062,-3.401245,1.566136,-0.775010,0.009361,0.052225,0.000000,-0.053619,-0.159710,-0.000000
4.780000,3.266610,-0.320865,-1.476683,0.147388,0.043092,0.001570,-0.501695,0.087534,-0.087796,1.576974,-0.521687,0.496865,-3.676059,1.546546,-0.865023,0.008832,0.050644,0.000000,-0.052122,-0.156373,0.000000
4.790000,3.268059,-0.320429,-1.476672,0.142450,0.043941,0.000717,-0.486109,0.082394,-0.082871,1.538844,-0.506326,0.487761,-3.950576,1.525924,-0.956928,0.008318,0.049098,0.000000,-0.050643,-0.152754,-0.000000
4.800000,3.269459,-0.319986,-1.476669,0.137666,0.044740,-0.000087,-0.470918,0.077407,-0.078041,1.497963,-0.491168,0.477727,-4.225702,1.505997,-1.051945,0.007819,0.047589,0.000000,-0.049181,-0.148849,0.000000
4.810000,3.270812,-0.319535,-1.476674,0.133032,0.045489,-0.000844,-0.456149,0.072571,-0.073316,1.454330,-0.476206,0.466722,-4.499441,1.485211,-1.149597,0.007335,0.046121,0.000000,-0.047734,-0.144658,-0.000000
4.820000,3.272120,-0.319076,-1.476686,0.128543,0.046191,-0.001554,-0.441831,0.067883,-0.068707,1.407974,-0.461464,0.454735,-4.769483,1.460480,-1.246230,0.006865,0.044696,0.000000,-0.046305,-0.140184,-0.000000
4.830000,3.273383,-0.318611,-1.476705,0.124195,0.046847,-0.002218,-0.427990,0.063341,-0.064222,1.358940,-0.446997,0.441798,-5.036330,1.432780,-1.341908,0.006409,0.043317,0.000000,-0.044900,-0.135429,0.000000
4.840000,3.274603,-0.318139,-1.476730,0.119983,0.047458,-0.002838,-0.414652,0.058943,-0.059871,1.307247,-0.432809,0.427896,-5.302703,1.407192,-1.441714,0.005967,0.041987,0.000000,-0.043520,-0.130394,-0.000000
4.850000,3.275783,-0.317662,-1.476762,0.115902,0.048026,-0.003415,-0.401845,0.054685,-0.055664,1.252886,-0.418853,0.412963,-5.568710,1.384519,-1.546147,0.005538,0.040709,0.000000,-0.042159,-0.125080,0.000000
4.860000,3.276922,-0.317179,-1.476799,0.111946,0.048552,-0.003951,-0.389595,0.050566,-0.051611,1.195873,-0.405118,0.396974,-5.832481,1.362087,-1.651817,0.005124,0.039486,0.000000,-0.040817,-0.119487,0.000000
4.870000,3.278022,-0.316691,-1.476841,0.108110,0.049037,-0.004448,-0.377927,0.046583,-0.047724,1.136237,-0.391611,0.379927,-6.093825,1.340094,-1.758486,0.004722,0.038319,0.000000,-0.039494,-0.113618,0.000000
4.880000,3.279084,-0.316198,-1.476888,0.104388,0.049483,-0.004906,-0.366870,0.042734,-0.044013,1.073997,-0.378316,0.361804,-6.353320,1.320087,-1.867406,0.004334,0.037213,0.000000,-0.038188,-0.107474,0.000000
4.890000,3.280109,-0.315701,-1.476939,0.100773,0.049892,-0.005328,-0.356448,0.039016,-0.040488,1.009170,-0.365209,0.342579,-6.610968,1.302603,-1.978711,0.003958,0.036170,0.000000,-0.036898,-0.101057,-0.000000
4.900000,3.281099,-0.315200,-1.476994,0.097259,0.050264,-0.005716,-0.346686,0.035429,-0.037161,0.941777,-0.352264,0.322230,-6.866655,1.287964,-2.092295,0.003596,0.035192,0.000000,-0.035621,-0.094370,0.000000
4.910000,3.282054,-0.314696,-1.477053,0.093839,0.050600,-0.006071,-0.337612,0.031971,-0.034044,0.871837,-0.339450,0.300733,-7.120296,1.276622,-2.208214,0.003246,0.034283,0.000000,-0.034353,-0.087414,0.000000
4.920000,3.282976,-0.314188,-1.477116,0.090507,0.050903,-0.006396,-0.329250,0.028640,-0.031147,0.799371,-0.326732,0.278065,-7.371846,1.269043,-2.326531,0.002909,0.033444,0.000000,-0.033092,-0.080192,0.000000
4.930000,3.283865,-0.313678,-1.477181,0.087254,0.051173,-0.006694,-0.321625,0.025437,-0.028482,0.724400,-0.314069,0.254202,-7.621356,1.265700,-2.447297,0.002584,0.032679,0.000000,-0.031832,-0.072707,-0.000000
4.940000,3.284721,-0.313165,-1.477249,0.084074,0.051412,-0.006966,-0.314762,0.022359,-0.026063,0.646944,-0.301418,0.229119,-7.868722,1.267055,-2.570574,0.002272,0.031990,0.000000,-0.030571,-0.064961,0.000000
4.950000,3.285546,-0.312649,-1.477320,0.080959,0.051620,-0.007215,-0.308686,0.019408,-0.023900,0.567026,-0.288728,0.202791,-8.113800,1.273571,-2.696425,0.001973,0.031380,0.000000,-0.029302,-0.056957,0.000000
4.960000,3.286340,-0.312132,-1.477394,0.077901,0.051800,-0.007444,-0.303421,0.016585,-0.022007,0.484668,-0.275946,0.175191,-8.356662,1.285718,-2.824905,0.001686,0.030851,0.000000,-0.028020,-0.048699,0.000000
4.970000,3.287104,-0.311613,-1.477469,0.074891,0.051952,-0.007655,-0.298992,0.013889,-0.020396,0.399893,-0.263014,0.146293,173.107068,-2.796396,7.860795,0.001412,0.030406,0.000000,-0.026720,-0.040189,0.000000
4.980000,3.287838,-0.311093,-1.477547,0.071921,0.052078,-0.007852,-0.295423,0.011324,-0.019081,3.946810,-0.331874,0.332407,352.924734,-4.087416,17.895145,0.001152,0.030047,0.000000,-0.033696,-0.400166,-0.000000
4.990000,3.288543,-0.310572,-1.477626,0.068982,0.052178,-0.008037,-0.220056,0.007252,-0.013748,7.458387,-0.344762,0.504196,171.662449,2.479827,7.134351,0.000738,0.022397,0.000000,-0.035036,-0.757690,-0.000000
5.000000,3.289218,-0.310050,-1.477708,0.067520,0.052223,-0.008127,-0.146256,0.004429,-0.008997,7.380059,-0.282278,0.475094,-7.832877,6.248434,-2.910193,0.000451,0.014894,0.000000,-0.028718,-0.750723,-0.000000
