time,x,y,z,vx,vy,vz,ax,ay,az,jx,jy,jz,sx,sy,sz,roll,pitch,yaw,p,q,r
0.000000,-2.713982,0.235134,-1.500451,-0.015634,-0.007105,0.004809,0.085207,0.060229,0.059271,4.227875,2.540179,2.028780,0.309500,-46.306409,-82.911745,0.006177,-0.008738,0.000000,0.261753,-0.435372,0.000000
0.010000,-2.714139,0.235063,-1.500402,-0.014782,-0.006503,0.005402,0.127486,0.085630,0.079558,4.230970,2.077114,1.199662,-101.833489,-132.289341,-165.490195,0.008799,-0.013101,0.000000,0.214465,-0.436341,-0.000000
0.020000,-2.714278,0.235004,-1.500343,-0.013084,-0.005393,0.006400,0.169827,0.101771,0.083264,2.191205,-0.105608,-1.281024,-197.645150,-194.032454,-189.236992,0.010461,-0.017458,0.000000,-0.012273,-0.222897,-0.000000
0.030000,-2.714400,0.234955,-1.500274,-0.011385,-0.004468,0.007067,0.171310,0.083518,0.053938,0.278067,-1.803535,-2.585077,-83.294828,-83.201255,-33.864767,0.008559,-0.017558,0.000000,-0.187092,-0.023841,0.000000
0.040000,-2.714506,0.234915,-1.500201,-0.009658,-0.003722,0.007479,0.175388,0.065700,0.031562,0.525308,-1.769633,-1.958319,23.532465,2.525660,56.279911,0.006718,-0.017934,0.000000,-0.182287,-0.050112,0.000000
0.050000,-2.714594,0.234881,-1.500125,-0.007877,-0.003154,0.007698,0.181816,0.048125,0.014772,0.748716,-1.753021,-1.459479,21.205690,0.974075,44.324041,0.004912,-0.018560,0.000000,-0.179670,-0.073645,-0.000000
0.060000,-2.714663,0.234852,-1.500047,-0.006022,-0.002760,0.007775,0.190362,0.030640,0.002373,0.949422,-1.750152,-1.071839,18.991677,-0.235636,33.986135,0.003123,-0.019407,0.000000,-0.178760,-0.094647,0.000000
0.070000,-2.714714,0.234826,-1.499969,-0.004070,-0.002541,0.007746,0.200805,0.013122,-0.006665,1.128549,-1.757734,-0.779757,16.889439,-1.129094,25.158436,0.001336,-0.020453,0.000000,-0.179128,-0.113290,0.000000
0.080000,-2.714745,0.234801,-1.499892,-0.002005,-0.002498,0.007641,0.212933,-0.004515,-0.013222,1.287211,-1.772734,-0.568670,14.897999,-1.731924,17.733173,-0.000460,-0.021673,0.000000,-0.180393,-0.129722,0.000000
0.090000,-2.714754,0.234776,-1.499817,0.000188,-0.002631,0.007481,0.226549,-0.022332,-0.018039,1.426509,-1.792373,-0.425093,13.016378,-2.069748,11.602586,-0.002272,-0.023047,0.000000,-0.182218,-0.144073,0.000000
0.100000,-2.714741,0.234748,-1.499743,0.002525,-0.002944,0.007280,0.241464,-0.040362,-0.021724,1.547538,-1.814129,-0.336618,11.243598,-2.168187,6.658919,-0.004104,-0.024555,0.000000,-0.184303,-0.156466,-0.000000
0.110000,-2.714704,0.234717,-1.499671,0.005018,-0.003438,0.007047,0.257500,-0.058615,-0.024771,1.651381,-1.835736,-0.291915,9.578675,-2.052864,2.794405,-0.005958,-0.026177,0.000000,-0.186384,-0.167018,-0.000000
0.120000,-2.714641,0.234679,-1.499602,0.007675,-0.004116,0.006785,0.274491,-0.077077,-0.027563,1.739112,-1.855186,-0.280730,8.020611,-1.749402,-0.098708,-0.007832,-0.027895,0.000000,-0.188235,-0.175844,-0.000000
0.130000,-2.714550,0.234634,-1.499535,0.010508,-0.004980,0.006496,0.292282,-0.095719,-0.030386,1.811794,-1.870724,-0.293889,6.568430,-1.283422,-2.128182,-0.009723,-0.029694,0.000000,-0.189662,-0.183061,-0.000000
0.140000,-2.714430,0.234580,-1.499472,0.013521,-0.006031,0.006177,0.310727,-0.114492,-0.033440,1.870481,-1.880854,-0.323294,5.221197,-0.680553,-3.401819,-0.011625,-0.031556,0.000000,-0.190505,-0.188785,0.000000
0.150000,-2.714280,0.234514,-1.499412,0.016722,-0.007270,0.005827,0.329692,-0.133336,-0.036851,1.916218,-1.884335,-0.361925,3.977896,0.033588,-4.027344,-0.013533,-0.033469,0.000000,-0.190637,-0.193137,0.000000
0.160000,-2.714096,0.234434,-1.499355,0.020115,-0.008698,0.005440,0.349051,-0.152178,-0.040679,1.950038,-1.880183,-0.403841,2.837488,0.833384,-4.112478,-0.015438,-0.035419,0.000000,-0.189963,-0.196237,0.000000
0.170000,-2.713877,0.234340,-1.499303,0.023703,-0.010313,0.005013,0.368692,-0.170939,-0.044928,1.972967,-1.867668,-0.444175,1.800053,1.688895,-3.781490,-0.017332,-0.037395,0.000000,-0.188417,-0.198208,0.000000
0.180000,-2.713622,0.234228,-1.499255,0.027489,-0.012116,0.004542,0.388511,-0.189532,-0.049562,1.986040,-1.846405,-0.479470,0.882009,2.499185,-3.429428,-0.019206,-0.039384,0.000000,-0.185972,-0.199171,0.000000
0.190000,-2.713328,0.234097,-1.499212,0.031473,-0.014104,0.004022,0.408413,-0.207867,-0.054518,1.990608,-1.817684,-0.512763,0.076314,3.264680,-3.064680,-0.021051,-0.041379,0.000000,-0.182758,-0.199257,0.000000
0.200000,-2.712993,0.233946,-1.499175,0.035657,-0.016274,0.003451,0.428323,-0.225885,-0.059818,1.987566,-1.781111,-0.540764,-0.746228,4.515470,-0.675080,-0.022861,-0.043370,0.000000,-0.178747,-0.198574,0.000000
0.210000,-2.712615,0.233772,-1.499143,0.040040,-0.018622,0.002826,0.448165,-0.243490,-0.065333,1.975683,-1.727375,-0.526265,-1.572832,6.166390,3.404502,-0.024626,-0.045351,0.000000,-0.173100,-0.197178,-0.000000
0.220000,-2.712192,0.233574,-1.499118,0.044620,-0.021143,0.002145,0.467837,-0.260433,-0.070343,1.956109,-1.657783,-0.472674,-2.037236,6.598450,2.987631,-0.026323,-0.047315,0.000000,-0.165980,-0.195209,0.000000
0.230000,-2.711722,0.233349,-1.499100,0.049397,-0.023830,0.001419,0.487287,-0.276645,-0.074786,1.934938,-1.595406,-0.466512,-2.140674,5.758134,-2.143588,-0.027946,-0.049257,0.000000,-0.159495,-0.192878,0.000000
0.240000,-2.711204,0.233097,-1.499090,0.054366,-0.026676,0.000649,0.506535,-0.292341,-0.079673,1.913296,-1.542621,-0.515546,-2.392121,5.831655,-3.657799,-0.029513,-0.051174,0.000000,-0.153818,-0.190212,-0.000000
0.250000,-2.710635,0.232816,-1.499087,0.059527,-0.029677,-0.000175,0.525553,-0.307498,-0.085097,1.887096,-1.478773,-0.539668,-2.795461,7.018585,-0.776400,-0.031022,-0.053063,0.000000,-0.147092,-0.187195,-0.000000
0.260000,-2.710013,0.232503,-1.499093,0.064877,-0.032826,-0.001053,0.544277,-0.321916,-0.090467,1.857386,-1.402249,-0.531074,-3.018300,7.825366,0.789951,-0.032455,-0.054920,0.000000,-0.139204,-0.184004,0.000000
0.270000,-2.709337,0.232159,-1.499108,0.070413,-0.036116,-0.001984,0.562700,-0.335543,-0.095719,1.826730,-1.322265,-0.523869,-3.180965,8.133550,0.500675,-0.033806,-0.056745,0.000000,-0.130984,-0.180721,0.000000
0.280000,-2.708605,0.231781,-1.499133,0.076131,-0.039537,-0.002967,0.580812,-0.348362,-0.100944,1.793767,-1.239578,-0.521060,-3.417056,8.463866,0.321624,-0.035075,-0.058536,0.000000,-0.122497,-0.177190,0.000000
0.290000,-2.707815,0.231368,-1.499168,0.082029,-0.043083,-0.004003,0.598576,-0.360334,-0.106140,1.758389,-1.152988,-0.517437,-3.542667,8.840986,0.448641,-0.036256,-0.060291,0.000000,-0.113640,-0.173430,-0.000000
0.300000,-2.706964,0.230919,-1.499213,0.088103,-0.046744,-0.005090,0.615980,-0.371422,-0.111293,1.722914,-1.062758,-0.512087,-3.494529,9.179499,0.625422,-0.037347,-0.062007,0.000000,-0.104445,-0.169681,-0.000000
0.310000,-2.706053,0.230433,-1.499269,0.094349,-0.050511,-0.006229,0.633034,-0.381589,-0.116382,1.688498,-0.969398,-0.504928,-3.413756,9.485718,0.786642,-0.038345,-0.063687,0.000000,-0.094963,-0.166060,0.000000
0.320000,-2.705077,0.229909,-1.499338,0.100763,-0.054376,-0.007418,0.649750,-0.390809,-0.121391,1.654639,-0.873044,-0.496355,-3.414750,9.808964,0.908961,-0.039247,-0.065331,0.000000,-0.085208,-0.162516,-0.000000
0.330000,-2.704037,0.229346,-1.499418,0.107344,-0.058327,-0.008657,0.666127,-0.399050,-0.126309,1.620203,-0.773219,-0.486749,-3.461039,10.151717,1.007221,-0.040049,-0.066939,0.000000,-0.075132,-0.158932,0.000000
0.340000,-2.702931,0.228743,-1.499511,0.114086,-0.062357,-0.009944,0.682154,-0.406274,-0.131126,1.585418,-0.670010,-0.476210,-3.417639,10.450674,1.107899,-0.040750,-0.068512,0.000000,-0.064744,-0.155333,0.000000
0.350000,-2.701756,0.228099,-1.499617,0.120987,-0.066453,-0.011279,0.697835,-0.412450,-0.135833,1.551850,-0.564205,-0.464591,-3.260064,10.688019,1.216873,-0.041344,-0.070049,0.000000,-0.054122,-0.151875,-0.000000
0.360000,-2.700511,0.227414,-1.499736,0.128043,-0.070606,-0.012661,0.713191,-0.417558,-0.140418,1.520217,-0.456249,-0.451873,-3.086168,10.910209,1.315563,-0.041832,-0.071552,0.000000,-0.043312,-0.148630,0.000000
0.370000,-2.699195,0.226687,-1.499870,0.135250,-0.074804,-0.014087,0.728239,-0.421575,-0.144871,1.490127,-0.346001,-0.438280,-2.969352,11.161257,1.384502,-0.042211,-0.073024,0.000000,-0.032297,-0.145558,-0.000000
0.380000,-2.697806,0.225918,-1.500018,0.142607,-0.079037,-0.015558,0.742993,-0.424478,-0.149184,1.460830,-0.233024,-0.424183,-2.884062,11.429445,1.428281,-0.042478,-0.074466,0.000000,-0.021032,-0.142581,0.000000
0.390000,-2.696343,0.225106,-1.500181,0.150110,-0.083294,-0.017071,0.757456,-0.426236,-0.153354,1.432446,-0.117412,-0.409714,-2.744453,11.660584,1.471663,-0.042631,-0.075878,0.000000,-0.009526,-0.139710,0.000000
0.400000,-2.694804,0.224252,-1.500359,0.157756,-0.087562,-0.018625,0.771642,-0.426826,-0.157378,1.405941,0.000188,-0.394749,-2.535453,11.842228,1.521846,-0.042669,-0.077263,0.000000,0.002159,-0.137041,0.000000
0.410000,-2.693187,0.223355,-1.500554,0.165543,-0.091830,-0.020219,0.785575,-0.426232,-0.161249,1.381737,0.119432,-0.379277,-2.319322,12.012737,1.561602,-0.042588,-0.078622,0.000000,0.013989,-0.134617,-0.000000
0.420000,-2.691493,0.222415,-1.500764,0.173468,-0.096087,-0.021850,0.799277,-0.424438,-0.164963,1.359554,0.240442,-0.363517,-2.142589,12.205206,1.572746,-0.042389,-0.079957,0.000000,0.025977,-0.132407,0.000000
0.430000,-2.689718,0.221433,-1.500991,0.181529,-0.100319,-0.023518,0.812766,-0.421423,-0.168520,1.338885,0.363536,-0.347822,-1.989094,12.409065,1.559882,-0.042069,-0.081272,0.000000,0.038159,-0.130357,0.000000
0.440000,-2.687862,0.220409,-1.501234,0.189723,-0.104515,-0.025220,0.826055,-0.417167,-0.171920,1.319772,0.488624,-0.332320,-1.804631,12.583097,1.546806,-0.041626,-0.082567,0.000000,0.050526,-0.128469,0.000000
0.450000,-2.685924,0.219343,-1.501495,0.198050,-0.108662,-0.026956,0.839161,-0.411651,-0.175166,1.302792,0.615198,-0.316886,-1.579931,12.718660,1.540998,-0.041058,-0.083844,0.000000,0.063030,-0.126802,0.000000
0.460000,-2.683901,0.218235,-1.501773,0.206507,-0.112748,-0.028724,0.852110,-0.404863,-0.178258,1.288174,0.742997,-0.301500,-1.354489,12.844193,1.526394,-0.040365,-0.085105,0.000000,0.075646,-0.125378,0.000000
0.470000,-2.681794,0.217088,-1.502069,0.215092,-0.116760,-0.030521,0.864925,-0.396791,-0.181196,1.275702,0.872082,-0.286358,-1.157276,12.981608,1.484926,-0.039545,-0.086353,0.000000,0.088381,-0.124173,-0.000000
0.480000,-2.679599,0.215900,-1.502384,0.223805,-0.120684,-0.032348,0.877624,-0.387421,-0.183985,1.265028,1.002629,-0.271801,-0.978074,13.122451,1.421125,-0.038598,-0.087591,0.000000,0.101256,-0.123149,0.000000
0.490000,-2.677317,0.214674,-1.502716,0.232645,-0.124508,-0.034201,0.890225,-0.376738,-0.186632,1.256141,1.134531,-0.257936,-0.783507,13.239010,1.359447,-0.037520,-0.088818,0.000000,0.114261,-0.122302,0.000000
0.500000,-2.674946,0.213410,-1.503068,0.241610,-0.128219,-0.036080,0.902747,-0.364731,-0.189144,1.249358,1.267409,-0.244612,-0.568035,13.325455,1.307913,-0.036312,-0.090038,0.000000,0.127358,-0.121665,0.000000
0.510000,-2.672485,0.212110,-1.503438,0.250699,-0.131803,-0.037984,0.915213,-0.351390,-0.191524,1.244780,1.401040,-0.231778,-0.356136,13.400342,1.250453,-0.034973,-0.091253,0.000000,0.140527,-0.121248,0.000000
0.520000,-2.669932,0.210774,-1.503827,0.259914,-0.135246,-0.039911,0.927643,-0.336710,-0.193779,1.242235,1.535416,-0.219603,-0.165915,13.477710,1.168891,-0.033502,-0.092465,0.000000,0.153767,-0.121032,0.000000
0.530000,-2.667287,0.209405,-1.504236,0.269252,-0.138537,-0.041860,0.940057,-0.320682,-0.195916,1.241462,1.670595,-0.208400,0.008779,13.551426,1.068199,-0.031898,-0.093675,0.000000,0.167086,-0.120986,-0.000000
0.540000,-2.664547,0.208003,-1.504665,0.278715,-0.141660,-0.043829,0.952472,-0.303298,-0.197947,1.242411,1.806445,-0.198239,0.188598,13.603123,0.973622,-0.030160,-0.094886,0.000000,0.180470,-0.121105,0.000000
0.550000,-2.661713,0.206572,-1.505113,0.288302,-0.144603,-0.045819,0.964905,-0.284553,-0.199881,1.245234,1.942657,-0.188927,0.376718,13.630169,0.893376,-0.028288,-0.096098,0.000000,0.193889,-0.121404,0.000000
0.560000,-2.658781,0.205111,-1.505581,0.298013,-0.147351,-0.047827,0.977377,-0.264445,-0.201726,1.249945,2.079048,-0.180372,0.557771,13.644233,0.811380,-0.026282,-0.097315,0.000000,0.207322,-0.121885,0.000000
0.570000,-2.655752,0.203625,-1.506069,0.307849,-0.149892,-0.049853,0.989904,-0.242972,-0.203488,1.256389,2.215542,-0.172700,0.720992,13.649944,0.710120,-0.024142,-0.098537,0.000000,0.220763,-0.122531,0.000000
0.580000,-2.652624,0.202113,-1.506578,0.317811,-0.152211,-0.051897,1.002505,-0.220134,-0.205180,1.264365,2.352047,-0.166169,0.870096,13.642683,0.595104,-0.021867,-0.099766,0.000000,0.234201,-0.123319,0.000000
0.590000,-2.649396,0.200580,-1.507107,0.327899,-0.154294,-0.053957,1.015192,-0.195931,-0.206812,1.273791,2.488395,-0.160798,1.016814,13.616078,0.491213,-0.019458,-0.101004,0.000000,0.247620,-0.124239,0.000000
0.600000,-2.646066,0.199028,-1.507657,0.338115,-0.156129,-0.056033,1.027980,-0.170366,-0.208396,1.284701,2.624368,-0.156345,1.163190,13.570375,0.405989,-0.016915,-0.102251,0.000000,0.260994,-0.125296,0.000000
0.610000,-2.642634,0.197458,-1.508228,0.348459,-0.157702,-0.058125,1.040886,-0.143444,-0.209939,1.297055,2.759803,-0.152678,1.300326,13.508825,0.324299,-0.014238,-0.103510,0.000000,0.274305,-0.126487,0.000000
0.620000,-2.639097,0.195874,-1.508820,0.358933,-0.158998,-0.060232,1.053922,-0.115170,-0.211449,1.310708,2.894545,-0.149859,1.420813,13.429076,0.231734,-0.011429,-0.104781,0.000000,0.287538,-0.127796,0.000000
0.630000,-2.635455,0.194278,-1.509433,0.369537,-0.160005,-0.062354,1.067100,-0.085553,-0.212936,1.325471,3.028384,-0.148043,1.526503,13.328981,0.134279,-0.008488,-0.106066,0.000000,0.300668,-0.129202,-0.000000
0.640000,-2.631706,0.192673,-1.510067,0.380275,-0.160709,-0.064490,1.080431,-0.054602,-0.214410,1.341238,3.161124,-0.147173,1.625300,13.210939,0.053080,-0.005416,-0.107366,0.000000,0.313674,-0.130695,0.000000
0.650000,-2.627850,0.191064,-1.510722,0.391146,-0.161097,-0.066642,1.093925,-0.022330,-0.215879,1.357977,3.292603,-0.146982,1.718747,13.076681,-0.006858,-0.002214,-0.108680,0.000000,0.326536,-0.132273,-0.000000
0.660000,-2.623884,0.189451,-1.511400,0.402153,-0.161156,-0.068808,1.107590,0.011250,-0.217350,1.375613,3.422658,-0.147311,1.800687,12.923530,-0.057554,0.001115,-0.110011,0.000000,0.339236,-0.133929,0.000000
0.670000,-2.619807,0.187840,-1.512098,0.413298,-0.160872,-0.070989,1.121437,0.046123,-0.218826,1.393991,3.551074,-0.148133,1.865166,12.745658,-0.106221,0.004571,-0.111359,0.000000,0.351749,-0.135649,0.000000
0.680000,-2.615618,0.186234,-1.512819,0.424582,-0.160233,-0.073184,1.135470,0.082271,-0.220312,1.412916,3.677571,-0.149435,1.913202,12.542790,-0.146883,0.008150,-0.112724,0.000000,0.364046,-0.137412,0.000000
0.690000,-2.611315,0.184636,-1.513562,0.436007,-0.159227,-0.075395,1.149695,0.119674,-0.221814,1.432255,3.801930,-0.151070,1.951476,12.321718,-0.167442,0.011851,-0.114107,0.000000,0.376102,-0.139207,0.000000
0.700000,-2.606897,0.183050,-1.514327,0.447576,-0.157840,-0.077621,1.164115,0.158310,-0.223334,1.451946,3.924006,-0.152784,1.981877,12.085243,-0.167513,0.015672,-0.115508,0.000000,0.387900,-0.141029,0.000000
0.710000,-2.602363,0.181479,-1.515115,0.459290,-0.156060,-0.079862,1.178734,0.198154,-0.224870,1.471893,4.043634,-0.154421,1.999080,11.827838,-0.152513,0.019609,-0.116928,0.000000,0.399422,-0.142871,0.000000
0.720000,-2.597712,0.179928,-1.515924,0.471151,-0.153877,-0.082118,1.193553,0.239183,-0.226422,1.491927,4.160562,-0.155834,1.996744,11.541007,-0.117173,0.023660,-0.118366,0.000000,0.410641,-0.144717,0.000000
0.730000,-2.592940,0.178401,-1.516757,0.483161,-0.151277,-0.084390,1.208573,0.281366,-0.227987,1.511828,4.274455,-0.156764,1.975648,11.225571,-0.056470,0.027822,-0.119823,0.000000,0.421522,-0.146548,0.000000
0.740000,-2.588048,0.176903,-1.517612,0.495322,-0.148249,-0.086678,1.223790,0.324672,-0.229557,1.531440,4.385074,-0.156964,1.943265,10.891942,0.025026,0.032091,-0.121298,0.000000,0.432042,-0.148353,0.000000
0.750000,-2.583034,0.175436,-1.518490,0.507636,-0.144783,-0.088981,1.239201,0.369067,-0.231126,1.550693,4.492293,-0.156264,1.902322,10.542721,0.120775,0.036463,-0.122792,0.000000,0.442188,-0.150126,0.000000
0.760000,-2.577896,0.174007,-1.519392,0.520106,-0.140868,-0.091300,1.254804,0.414518,-0.232683,1.569487,4.595928,-0.154548,1.847067,10.170203,0.236999,0.040934,-0.124303,0.000000,0.451942,-0.151859,0.000000
0.770000,-2.572632,0.172619,-1.520317,0.532733,-0.136493,-0.093635,1.270591,0.460986,-0.234217,1.587634,4.695698,-0.151524,1.769345,9.767306,0.396096,0.045501,-0.125831,0.000000,0.461278,-0.153538,0.000000
0.780000,-2.567241,0.171277,-1.521265,0.545518,-0.131648,-0.095985,1.286556,0.508431,-0.235713,1.604874,4.791274,-0.146626,1.670002,9.336011,0.600411,0.050160,-0.127377,0.000000,0.470167,-0.155145,-0.000000
0.790000,-2.561722,0.169986,-1.522236,0.558464,-0.126324,-0.098349,1.302689,0.556811,-0.237149,1.621034,4.882418,-0.139515,1.559278,8.884811,0.822227,0.054905,-0.128938,0.000000,0.478590,-0.156668,-0.000000
0.800000,-2.556072,0.168751,-1.523232,0.571572,-0.120512,-0.100728,1.318977,0.606080,-0.238503,1.636059,4.968971,-0.130182,1.441142,8.414721,1.046305,0.059731,-0.130515,0.000000,0.486535,-0.158104,-0.000000
0.810000,-2.550290,0.167576,-1.524251,0.584843,-0.114203,-0.103119,1.335410,0.656191,-0.239753,1.649857,5.050712,-0.118589,1.308070,7.919665,1.294492,0.064635,-0.132106,0.000000,0.493984,-0.159446,0.000000
0.820000,-2.544375,0.166467,-1.525294,0.598280,-0.107388,-0.105523,1.351974,0.707094,-0.240875,1.662221,5.127364,-0.104292,1.149364,7.396821,1.609761,0.069611,-0.133710,0.000000,0.500918,-0.160680,0.000000
0.830000,-2.538325,0.165428,-1.526361,0.611883,-0.100061,-0.107937,1.368654,0.758738,-0.241839,1.672844,5.198649,-0.086394,0.966436,6.848198,1.990211,0.074653,-0.135327,0.000000,0.507322,-0.161792,0.000000
0.840000,-2.532137,0.164465,-1.527453,0.625653,-0.092214,-0.110359,1.385431,0.811067,-0.242603,1.681549,5.264328,-0.064488,0.773326,6.276681,2.379930,0.079757,-0.136955,0.000000,0.513185,-0.162770,0.000000
0.850000,-2.525811,0.163584,-1.528568,0.639591,-0.083840,-0.112789,1.402285,0.864024,-0.243129,1.688311,5.324182,-0.038795,0.575722,5.680524,2.753722,0.084917,-0.138593,0.000000,0.518491,-0.163614,-0.000000
0.860000,-2.519345,0.162789,-1.529708,0.653699,-0.074933,-0.115222,1.419197,0.917551,-0.243379,1.693064,5.377938,-0.009413,0.363606,5.057706,3.151932,0.090127,-0.140240,0.000000,0.523224,-0.164318,0.000000
0.870000,-2.512738,0.162085,-1.530873,0.667975,-0.065489,-0.117656,1.436147,0.971583,-0.243317,1.695583,5.425336,0.024243,0.122196,4.412530,3.639972,0.095381,-0.141893,0.000000,0.527373,-0.164871,0.000000
0.880000,-2.505986,0.161479,-1.532062,0.682421,-0.055501,-0.120088,1.453109,1.026057,-0.242894,1.695508,5.466189,0.063386,-0.146333,3.745893,4.210098,0.100675,-0.143552,0.000000,0.530944,-0.165259,-0.000000
0.890000,-2.499089,0.160975,-1.533275,0.697037,-0.044967,-0.122514,1.470057,1.080907,-0.242049,1.692656,5.500254,0.108445,-0.421926,3.051245,4.775159,0.106000,-0.145215,0.000000,0.533932,-0.165474,0.000000
0.900000,-2.492045,0.160580,-1.534512,0.711823,-0.033883,-0.124929,1.486962,1.136062,-0.240725,1.687069,5.527214,0.158890,-0.696831,2.325858,5.301008,0.111353,-0.146880,0.000000,0.536317,-0.165517,-0.000000
0.910000,-2.484853,0.160298,-1.535773,0.726777,-0.022246,-0.127329,1.503798,1.191451,-0.238871,1.678720,5.546771,0.214465,-0.984812,1.574011,5.847794,0.116727,-0.148546,0.000000,0.538083,-0.165387,-0.000000
0.920000,-2.477510,0.160135,-1.537058,0.741899,-0.010054,-0.129707,1.520536,1.246998,-0.236436,1.667373,5.558694,0.275845,-1.304394,0.801144,6.499031,0.122115,-0.150211,0.000000,0.539229,-0.165074,-0.000000
0.930000,-2.470015,0.160096,-1.538367,0.757187,0.002694,-0.132057,1.537146,1.302625,-0.233354,1.652632,5.562794,0.344446,-1.652100,0.005681,7.239854,0.127512,-0.151872,0.000000,0.539772,-0.164565,0.000000
0.940000,-2.462366,0.160189,-1.539700,0.772642,0.015998,-0.134374,1.553589,1.358254,-0.229547,1.634331,5.558808,0.420643,-2.002660,-0.820043,7.957152,0.132911,-0.153529,0.000000,0.539712,-0.163856,-0.000000
0.950000,-2.454562,0.160416,-1.541055,0.788259,0.029859,-0.136648,1.569832,1.413801,-0.224942,1.612579,5.546393,0.503589,-2.346188,-1.677030,8.609815,0.138306,-0.155179,0.000000,0.539026,-0.162950,0.000000
0.960000,-2.446601,0.160786,-1.542433,0.804038,0.044274,-0.138873,1.585841,1.469182,-0.219475,1.587407,5.525267,0.592839,-2.699526,-2.560590,9.273562,0.143692,-0.156820,0.000000,0.537697,-0.161847,-0.000000
0.970000,-2.438481,0.161302,-1.543832,0.819976,0.059243,-0.141038,1.601580,1.524307,-0.213085,1.558588,5.495182,0.689060,-3.085752,-3.469974,10.044291,0.149061,-0.158450,0.000000,0.535731,-0.160540,-0.000000
0.980000,-2.430201,0.161971,-1.545253,0.836070,0.074760,-0.143134,1.617012,1.579085,-0.205694,1.525692,5.455868,0.793725,-3.500267,-4.407925,10.900263,0.154407,-0.160067,0.000000,0.533143,-0.159015,0.000000
0.990000,-2.421760,0.162797,-1.546695,0.852316,0.090824,-0.145152,1.632094,1.633424,-0.197210,1.488583,5.407023,0.907065,-3.911007,-5.375545,11.709496,0.159724,-0.161668,0.000000,0.529931,-0.157269,0.000000
1.000000,-2.413155,0.163787,-1.548156,0.868712,0.107429,-0.147079,1.646784,1.687226,-0.187553,1.447472,5.348357,1.027915,-4.305483,-6.367600,12.428621,0.165006,-0.163253,0.000000,0.526069,-0.155308,-0.000000
1.010000,-2.404385,0.164946,-1.549637,0.885252,0.124569,-0.148903,1.661044,1.740391,-0.176652,1.402473,5.279671,1.155638,-4.704582,-7.384341,13.143352,0.170246,-0.164818,0.000000,0.521545,-0.153137,0.000000
1.020000,-2.395450,0.166278,-1.551134,0.901933,0.142237,-0.150612,1.674834,1.792819,-0.164440,1.353380,5.200670,1.290782,-5.136694,-8.441671,13.948703,0.175437,-0.166361,0.000000,0.516359,-0.150748,0.000000
1.030000,-2.386347,0.167790,-1.552649,0.918749,0.160425,-0.152192,1.688111,1.844405,-0.150836,1.299739,5.110838,1.434612,-5.595644,-9.542698,14.816469,0.180574,-0.167880,0.000000,0.510500,-0.148121,0.000000
1.040000,-2.377075,0.169487,-1.554178,0.935695,0.179125,-0.153628,1.700828,1.895036,-0.135748,1.241467,5.009816,1.587111,-6.041403,-10.665439,15.613416,0.185648,-0.169372,0.000000,0.503954,-0.145252,0.000000
1.050000,-2.367633,0.171373,-1.555721,0.952765,0.198326,-0.154907,1.712940,1.944601,-0.119094,1.178911,4.897529,1.746880,-6.459515,-11.791059,16.301829,0.190654,-0.170836,0.000000,0.496704,-0.142153,-0.000000
1.060000,-2.358020,0.173453,-1.557276,0.969954,0.218017,-0.156010,1.724407,1.992987,-0.100810,1.112277,4.773995,1.913148,-6.875546,-12.935976,16.964970,0.195583,-0.172268,0.000000,0.488748,-0.138833,0.000000
1.070000,-2.348234,0.175733,-1.558842,0.987253,0.238186,-0.156923,1.735186,2.040081,-0.080831,1.041400,4.638809,2.086180,-7.320675,-14.150234,17.676890,0.200429,-0.173667,0.000000,0.480063,-0.135280,0.000000
1.080000,-2.338275,0.178217,-1.560415,1.004657,0.258818,-0.157627,1.745235,2.085763,-0.059087,0.965864,4.490990,2.266685,-7.786423,-15.434243,18.405226,0.205185,-0.175029,0.000000,0.470579,-0.131467,0.000000
1.090000,-2.328141,0.180910,-1.561994,1.022158,0.279901,-0.158105,1.754503,2.129901,-0.035498,0.885672,4.330124,2.454284,-8.228273,-16.718857,19.042640,0.209842,-0.176352,0.000000,0.460257,-0.127386,0.000000
1.100000,-2.317831,0.183815,-1.563577,1.039747,0.301417,-0.158337,1.762948,2.172365,-0.010001,0.801298,4.156613,2.647538,-8.632059,-17.964467,19.569381,0.214391,-0.177634,0.000000,0.449108,-0.123058,-0.000000
1.110000,-2.307346,0.186938,-1.565161,1.057417,0.323348,-0.158305,1.770529,2.213033,0.017453,0.713031,3.970835,2.845672,-9.025386,-19.219419,20.047604,0.218825,-0.178871,0.000000,0.437150,-0.118492,-0.000000
1.120000,-2.296683,0.190282,-1.566743,1.075158,0.345677,-0.157988,1.777209,2.251782,0.046913,0.620790,3.772224,3.048490,-9.436450,-20.582978,20.500160,0.223135,-0.180062,0.000000,0.424320,-0.113673,0.000000
1.130000,-2.285843,0.193852,-1.568321,1.092961,0.368384,-0.157366,1.782945,2.288477,0.078423,0.524302,3.559176,3.255675,-9.855087,-22.046464,20.895704,0.227312,-0.181203,0.000000,0.410448,-0.108563,0.000000
1.140000,-2.274824,0.197650,-1.569890,1.110817,0.391447,-0.156419,1.787695,2.322965,0.112026,0.423689,3.331295,3.466404,-10.239947,-23.472935,21.194063,0.231345,-0.182291,0.000000,0.395465,-0.103153,-0.000000
1.150000,-2.263626,0.201680,-1.571449,1.128715,0.414843,-0.155126,1.791419,2.355103,0.147751,0.319503,3.089717,3.679556,-10.578423,-24.804855,21.403044,0.235222,-0.183322,0.000000,0.379433,-0.097467,0.000000
1.160000,-2.252249,0.205947,-1.572993,1.146645,0.438549,-0.153464,1.794085,2.384760,0.185617,0.212120,2.835198,3.894465,-10.895006,-26.134688,21.536598,0.238934,-0.184295,0.000000,0.362384,-0.091521,0.000000
1.170000,-2.240693,0.210451,-1.574518,1.164597,0.462538,-0.151413,1.795661,2.411807,0.225640,0.101603,2.567023,4.110288,-11.212530,-27.597647,21.547785,0.242470,-0.185206,0.000000,0.344197,-0.085294,0.000000
1.180000,-2.228958,0.215197,-1.576021,1.182558,0.486785,-0.148952,1.796117,2.436100,0.267823,-0.012130,2.283245,4.325421,-11.519995,-29.169908,21.414794,0.245818,-0.186052,0.000000,0.324611,-0.078736,0.000000
1.190000,-2.217042,0.220187,-1.577497,1.200519,0.511260,-0.146057,1.795419,2.457472,0.312149,-0.128797,1.983625,4.538584,-11.782382,-30.664590,21.190166,0.248963,-0.186830,0.000000,0.303523,-0.071836,0.000000
1.200000,-2.204947,0.225423,-1.578942,1.218467,0.535934,-0.142709,1.793541,2.475773,0.358595,-0.247778,1.669953,4.749224,-11.995259,-32.010363,20.921975,0.251889,-0.187535,0.000000,0.281036,-0.064629,0.000000
1.210000,-2.192673,0.230906,-1.580351,1.236390,0.560776,-0.138885,1.790463,2.490871,0.407133,-0.368702,1.343418,4.957024,-12.177557,-33.330242,20.559950,0.254583,-0.188164,0.000000,0.257197,-0.057129,-0.000000
1.220000,-2.180219,0.236638,-1.581720,1.254276,0.585752,-0.134566,1.786167,2.502641,0.457735,-0.491329,1.003349,5.160423,-12.328054,-34.786763,19.956248,0.257032,-0.188715,0.000000,0.231837,-0.049313,0.000000
1.230000,-2.167587,0.242621,-1.583043,1.272113,0.610829,-0.129730,1.780637,2.510938,0.510342,-0.615264,0.647682,5.356149,-12.434433,-36.342902,19.103356,0.259219,-0.189184,0.000000,0.204589,-0.041137,0.000000
1.240000,-2.154777,0.248855,-1.584315,1.289889,0.635971,-0.124359,1.773861,2.515595,0.564858,-0.740018,0.276491,5.542490,-12.494193,-37.771622,18.191268,0.261123,-0.189566,0.000000,0.175323,-0.032597,0.000000
1.250000,-2.141790,0.255340,-1.585530,1.307590,0.661140,-0.118433,1.765836,2.516468,0.621192,-0.865147,-0.107750,5.719974,-12.520155,-39.000557,17.322802,0.262725,-0.189858,0.000000,0.144199,-0.023724,-0.000000
1.260000,-2.128625,0.262078,-1.586683,1.325206,0.686300,-0.111935,1.756559,2.513440,0.679258,-0.990421,-0.503521,5.888946,-12.507904,-40.174957,16.355105,0.264006,-0.190057,0.000000,0.111276,-0.014527,0.000000
1.270000,-2.115285,0.269066,-1.587769,1.342722,0.711409,-0.104848,1.746028,2.506397,0.738971,-1.115306,-0.911249,6.047076,-12.412491,-41.446215,15.011033,0.264949,-0.190158,0.000000,0.076340,-0.004992,0.000000
1.280000,-2.101771,0.276306,-1.588780,1.360126,0.736428,-0.097156,1.734252,2.495215,0.800199,-1.238671,-1.332445,6.189167,-12.226673,-42.760215,13.311061,0.265531,-0.190159,0.000000,0.038974,0.004890,-0.000000
1.290000,-2.088083,0.283795,-1.589712,1.377407,0.761314,-0.088844,1.721254,2.479749,0.862754,-1.359839,-1.766453,6.313297,-12.007059,-43.902753,11.622615,0.265726,-0.190056,0.000000,-0.000944,0.015110,0.000000
1.300000,-2.074223,0.291532,-1.590557,1.394551,0.786023,-0.079901,1.707056,2.459886,0.926465,-1.478812,-2.210500,6.421619,-11.784153,-44.841640,10.088995,0.265509,-0.189845,0.000000,-0.043208,0.025648,0.000000
1.310000,-2.060192,0.299515,-1.591310,1.411548,0.810511,-0.070315,1.691678,2.435539,0.991186,-1.595522,-2.663286,6.515077,-11.513598,-45.705700,8.452768,0.264858,-0.189524,0.000000,-0.087790,0.036497,0.000000
1.320000,-2.045992,0.307742,-1.591963,1.428385,0.834734,-0.060077,1.675145,2.406620,1.056767,-1.709084,-3.124614,6.590675,-11.111043,-46.527212,6.360796,0.263749,-0.189088,0.000000,-0.134893,0.047644,-0.000000
1.330000,-2.031624,0.316210,-1.592511,1.445051,0.858644,-0.049179,1.657496,2.373046,1.123000,-1.817743,-3.593830,6.642293,-10.579048,-47.245457,3.876613,0.262156,-0.188536,0.000000,-0.184765,0.059043,0.000000
1.340000,-2.017091,0.324915,-1.592947,1.461535,0.882195,-0.037617,1.638790,2.334743,1.189612,-1.920665,-4.069523,6.668207,-10.027906,-47.805971,1.472913,0.260049,-0.187865,0.000000,-0.237448,0.070650,0.000000
1.350000,-2.002393,0.333854,-1.593264,1.477826,0.905339,-0.025387,1.619083,2.291656,1.256364,-2.018301,-4.549950,6.671751,-9.520324,-48.229347,-0.695009,0.257402,-0.187073,0.000000,-0.292788,0.082453,-0.000000
1.360000,-1.987534,0.343022,-1.593455,1.493916,0.928028,-0.012490,1.598424,2.243744,1.323047,-2.111071,-5.034110,6.654307,-8.975851,-48.531251,-2.945687,0.254188,-0.186158,0.000000,-0.350752,0.094475,0.000000
1.370000,-1.972515,0.352414,-1.593513,1.509795,0.950213,0.001074,1.576862,2.190974,1.389450,-2.197818,-5.520575,6.612838,-8.228046,-48.620978,-5.640273,0.250381,-0.185119,0.000000,-0.411382,0.106651,0.000000
1.380000,-1.957338,0.362026,-1.593433,1.525454,0.971847,0.015299,1.554468,2.133333,1.455304,-2.275632,-6.006530,6.541501,-7.290812,-48.463690,-8.688143,0.245955,-0.183956,0.000000,-0.474625,0.118774,0.000000
1.390000,-1.942006,0.371851,-1.593207,1.540884,0.992880,0.030180,1.531349,2.070843,1.520280,-2.343634,-6.489849,6.439075,-6.388475,-48.166287,-11.597631,0.240883,-0.182669,0.000000,-0.540327,0.130746,0.000000
1.400000,-1.926521,0.381884,-1.592830,1.556081,1.013264,0.045705,1.507595,2.003536,1.584086,-2.403402,-6.969855,6.309549,-5.598359,-47.826129,-14.199079,0.235142,-0.181262,0.000000,-0.608308,0.142635,-0.000000
1.410000,-1.910884,0.392117,-1.592293,1.571036,1.032951,0.061862,1.483281,1.931446,1.646471,-2.455601,-7.446371,6.155093,-4.766755,-47.347130,-16.813986,0.228710,-0.179735,0.000000,-0.678473,0.154443,-0.000000
1.420000,-1.895100,0.402543,-1.591592,1.585746,1.051893,0.078634,1.458483,1.854608,1.707188,-2.498737,-7.916798,5.973269,-3.714279,-46.439093,-19.826969,0.221566,-0.178090,0.000000,-0.750543,0.166014,-0.000000
1.430000,-1.879170,0.413154,-1.590721,1.600206,1.070043,0.096005,1.433306,1.773110,1.765936,-2.529887,-8.375153,5.758554,-2.490211,-45.071156,-23.115196,0.213693,-0.176331,0.000000,-0.823862,0.177073,0.000000
1.440000,-1.863096,0.423944,-1.589672,1.614412,1.087355,0.113953,1.407886,1.687105,1.822359,-2.548541,-8.818221,5.510965,-1.334390,-43.628519,-26.147420,0.205084,-0.174466,0.000000,-0.897843,0.187491,-0.000000
1.450000,-1.846881,0.434902,-1.588442,1.628364,1.103785,0.132452,1.382335,1.596746,1.876156,-2.556575,-9.247724,5.235605,-0.275417,-42.457759,-28.922409,0.195732,-0.172501,0.000000,-0.972294,0.197312,0.000000
1.460000,-1.830529,0.446019,-1.587023,1.642059,1.119290,0.151476,1.356754,1.502151,1.927071,-2.554049,-9.667376,4.932517,0.841446,-41.264547,-31.764391,0.185634,-0.170443,0.000000,-1.047362,0.206470,0.000000
1.470000,-1.814040,0.457287,-1.585412,1.655499,1.133828,0.170994,1.331254,1.403398,1.974806,-2.539746,-10.073014,4.600318,2.052650,-39.103791,-34.542510,0.174782,-0.168300,0.000000,-1.122232,0.214769,0.000000
1.480000,-1.797419,0.468696,-1.583603,1.668684,1.147358,0.190972,1.305959,1.300691,2.019077,-2.512996,-10.449452,4.241667,3.311836,-36.042659,-37.105898,0.163188,-0.166082,0.000000,-1.194542,0.221983,0.000000
1.490000,-1.780666,0.480235,-1.581593,1.681618,1.159842,0.211375,1.280995,1.194409,2.059639,-2.473509,-10.793868,3.858200,4.568352,-33.358102,-39.626907,0.150892,-0.163801,0.000000,-1.263359,0.227950,0.000000
1.500000,-1.763786,0.491893,-1.579376,1.694304,1.171246,0.232165,1.256489,1.084813,2.096241,-2.421629,-11.116614,3.449129,5.726532,-31.167185,-42.192510,0.137923,-0.161471,0.000000,-1.329406,0.232640,0.000000
1.510000,-1.746780,0.503659,-1.576949,1.706748,1.181538,0.253300,1.232562,0.972077,2.128622,-2.358979,-11.417211,3.014349,6.816985,-28.617896,-44.647264,0.124307,-0.159105,0.000000,-1.392037,0.236170,0.000000
1.520000,-1.729651,0.515523,-1.574310,1.718955,1.190688,0.274737,1.209309,0.856469,2.156528,-2.285290,-11.688972,2.556183,8.106141,-25.641539,-46.763308,0.110088,-0.156712,0.000000,-1.449742,0.238382,0.000000
1.530000,-1.712401,0.527473,-1.571455,1.730934,1.198668,0.296431,1.186856,0.738297,2.179746,-2.196856,-11.930042,2.079083,9.576739,-22.539920,-48.552032,0.095320,-0.154310,0.000000,-1.501597,0.238642,0.000000
1.540000,-1.695033,0.539497,-1.568381,1.742692,1.205454,0.318332,1.165372,0.617868,2.198110,-2.093755,-12.139770,1.585143,10.850402,-19.354945,-50.281241,0.080065,-0.151919,0.000000,-1.546888,0.236851,0.000000
1.550000,-1.677547,0.551582,-1.565088,1.754241,1.211025,0.340393,1.144981,0.495502,2.211448,-1.979848,-12.317141,1.073458,11.941397,-16.113544,-52.061674,0.064393,-0.149559,0.000000,-1.584917,0.233472,-0.000000
1.560000,-1.659948,0.563717,-1.561573,1.765592,1.215364,0.362561,1.125775,0.371525,2.219579,-1.854927,-12.462041,0.543909,13.087117,-12.813400,-53.681642,0.048379,-0.147242,0.000000,-1.615148,0.228451,0.000000
1.570000,-1.642236,0.575890,-1.557837,1.776757,1.218455,0.384785,1.107882,0.246261,2.222327,-1.718105,-12.573409,-0.000174,14.134474,-9.306744,-54.809198,0.032104,-0.144986,0.000000,-1.636970,0.221596,0.000000
1.580000,-1.624413,0.588086,-1.553878,1.787750,1.220289,0.407008,1.091413,0.120057,2.219575,-1.572237,-12.648176,-0.552275,14.968889,-5.579021,-55.461560,0.015655,-0.142809,0.000000,-1.649625,0.213162,0.000000
1.590000,-1.606481,0.600295,-1.549697,1.798585,1.220857,0.429176,1.076438,-0.006702,2.211281,-1.418728,-12.684989,-1.109406,15.806753,-1.869759,-56.057990,-0.000873,-0.140724,0.000000,-1.652753,0.203308,-0.000000
1.600000,-1.588441,0.612504,-1.545294,1.809278,1.220155,0.451234,1.063039,-0.133643,2.197387,-1.256102,-12.685571,-1.673435,16.776335,1.598411,-56.832923,-0.017385,-0.138745,0.000000,-1.646522,0.191927,-0.000000
1.610000,-1.570295,0.624698,-1.540672,1.819846,1.218184,0.473124,1.051316,-0.260414,2.177812,-1.083201,-12.653021,-2.246064,17.706186,4.979139,-57.472345,-0.033788,-0.136886,0.000000,-1.631364,0.178963,-0.000000
1.620000,-1.552044,0.636867,-1.535832,1.830305,1.214947,0.494790,1.041375,-0.386703,2.152466,-0.901979,-12.585989,-2.822882,18.280183,8.810228,-57.331682,-0.049997,-0.135164,0.000000,-1.607269,0.164667,0.000000
1.630000,-1.533689,0.648997,-1.530776,1.840673,1.210450,0.516173,1.033276,-0.512134,2.121355,-0.717597,-12.476817,-3.392698,18.539256,13.016643,-56.469867,-0.065920,-0.133589,0.000000,-1.573642,0.149600,-0.000000
1.640000,-1.515231,0.661076,-1.525508,1.850970,1.204704,0.537217,1.027023,-0.636239,2.084612,-0.531194,-12.325656,-3.952279,18.889776,16.836439,-55.741098,-0.081458,-0.132166,0.000000,-1.531048,0.133951,0.000000
1.650000,-1.496670,0.673091,-1.520032,1.861214,1.197725,0.557865,1.022652,-0.758647,2.042309,-0.339802,-12.140088,-4.507520,19.356171,20.325123,-55.359421,-0.096530,-0.130902,0.000000,-1.480953,0.117547,0.000000
1.660000,-1.478006,0.685031,-1.514351,1.871423,1.189531,0.578063,1.020227,-0.879041,1.994462,-0.144070,-11.919153,-5.059467,19.658583,23.951819,-54.736998,-0.111068,-0.129804,0.000000,-1.423794,0.100591,0.000000
1.670000,-1.459241,0.696882,-1.508470,1.881618,1.180144,0.597755,1.019771,-0.997030,1.941120,0.053370,-11.661052,-5.602260,19.779830,27.332225,-53.403080,-0.125000,-0.128877,0.000000,-1.360065,0.083415,0.000000
1.680000,-1.440374,0.708634,-1.502396,1.891819,1.169590,0.616885,1.021294,-1.112262,1.882416,0.251526,-11.372509,-6.127529,19.802757,30.237419,-51.536489,-0.138265,-0.128122,0.000000,-1.291424,0.066103,0.000000
1.690000,-1.421405,0.720274,-1.496133,1.902044,1.157899,0.635403,1.024801,-1.224480,1.818569,0.449425,-11.056303,-6.632989,19.722177,33.198670,-49.746025,-0.150825,-0.127541,0.000000,-1.218945,0.048828,0.000000
1.700000,-1.402333,0.731792,-1.489688,1.912315,1.145101,0.653257,1.030283,-1.333388,1.749757,0.645970,-10.708535,-7.122449,19.602305,36.440287,-48.176212,-0.162643,-0.127133,0.000000,-1.142746,0.031855,0.000000
1.710000,-1.383158,0.743176,-1.483068,1.922650,1.131231,0.670398,1.037721,-1.438651,1.676120,0.841471,-10.327497,-7.596514,19.440123,39.550992,-46.426395,-0.173682,-0.126895,0.000000,-1.063239,0.015215,0.000000
1.720000,-1.363880,0.754416,-1.476280,1.933069,1.116328,0.686779,1.047112,-1.539938,1.597826,1.034772,-9.917516,-8.050977,19.001726,42.002157,-44.162930,-0.183911,-0.126823,0.000000,-0.981612,-0.000968,0.000000
1.730000,-1.344497,0.765502,-1.469332,1.943592,1.100432,0.702355,1.058416,-1.637001,1.515101,1.221506,-9.487454,-8.479772,18.265621,43.885422,-41.527545,-0.193318,-0.126913,0.000000,-0.899557,-0.016240,0.000000
1.740000,-1.325008,0.776425,-1.462233,1.954237,1.083588,0.717081,1.071542,-1.729687,1.428231,1.400085,-9.039807,-8.881528,17.555065,45.861204,-38.969574,-0.201908,-0.127152,0.000000,-0.817819,-0.030436,0.000000
1.750000,-1.305412,0.787174,-1.454990,1.965023,1.065839,0.730919,1.086418,-1.817797,1.337470,1.572607,-8.570230,-9.259164,16.990049,48.061274,-36.527234,-0.209681,-0.127532,0.000000,-0.736187,-0.043763,0.000000
1.760000,-1.285708,0.797742,-1.447614,1.975966,1.047232,0.743831,1.102994,-1.901092,1.243048,1.739886,-8.078582,-9.612073,16.345245,50.016083,-33.923972,-0.216639,-0.128045,0.000000,-0.654968,-0.056332,0.000000
1.770000,-1.265893,0.808119,-1.440114,1.987083,1.027817,0.755780,1.121216,-1.979369,1.145229,1.899512,-7.569908,-9.937643,15.349128,51.396150,-31.144000,-0.222789,-0.128684,0.000000,-0.575033,-0.067926,0.000000
1.780000,-1.245966,0.818298,-1.432499,1.998390,1.007644,0.766735,1.140984,-2.052490,1.044295,2.046868,-7.050659,-10.234953,14.071778,52.322859,-28.307260,-0.228149,-0.129437,0.000000,-0.497275,-0.078091,0.000000
1.790000,-1.225925,0.828272,-1.424779,2.009902,0.986767,0.776666,1.162153,-2.120382,0.940530,2.180947,-6.523451,-10.503788,12.873803,53.195027,-25.444029,-0.232743,-0.130286,0.000000,-0.422060,-0.086785,0.000000
1.800000,-1.205768,0.838033,-1.416965,2.021633,0.965237,0.785546,1.184603,-2.182959,0.834219,2.304344,-5.986758,-10.743833,11.799368,54.171425,-22.527824,-0.236599,-0.131219,0.000000,-0.349254,-0.094360,0.000000
1.810000,-1.185492,0.847576,-1.409068,2.033595,0.943108,0.793350,1.208240,-2.240117,0.725653,2.416935,-5.440023,-10.954345,10.613322,54.967102,-19.570377,-0.239737,-0.132226,0.000000,-0.278817,-0.100868,0.000000
1.820000,-1.165096,0.856895,-1.401098,2.045798,0.920434,0.800059,1.232942,-2.291760,0.615132,2.516611,-4.887416,-11.135241,9.254800,55.129212,-16.672231,-0.242184,-0.133295,0.000000,-0.211152,-0.106153,0.000000
1.830000,-1.144577,0.865985,-1.393067,2.058253,0.897272,0.805653,1.258572,-2.337865,0.502948,2.602031,-4.337439,-11.287790,7.814446,54.714450,-13.866002,-0.243969,-0.134412,0.000000,-0.147001,-0.110133,0.000000
1.840000,-1.123931,0.874841,-1.384985,2.070969,0.873677,0.810118,1.284983,-2.378508,0.389376,2.672900,-3.793127,-11.412561,6.367653,54.323355,-11.045808,-0.245132,-0.135564,0.000000,-0.086506,-0.112845,0.000000
1.850000,-1.103157,0.883459,-1.376865,2.083953,0.849702,0.813441,1.312030,-2.413728,0.274697,2.729384,-3.250971,-11.508706,4.894964,54.172022,-8.118598,-0.245706,-0.136738,0.000000,-0.029181,-0.114391,0.000000
1.860000,-1.082252,0.891835,-1.368717,2.097210,0.825403,0.815612,1.339570,-2.443528,0.159202,2.770799,-2.709687,-11.574933,3.361031,53.845820,-5.188391,-0.245722,-0.137923,0.000000,0.025218,-0.114792,0.000000
1.870000,-1.061213,0.899967,-1.360552,2.110744,0.800832,0.816625,1.367446,-2.467922,0.043198,2.796605,-2.174055,-11.612473,1.829429,52.822990,-2.553899,-0.245208,-0.139105,0.000000,0.076421,-0.114049,0.000000
1.880000,-1.040037,0.907852,-1.352384,2.124559,0.776044,0.816476,1.395502,-2.487009,-0.073047,2.807388,-1.653227,-11.626011,0.321729,51.239457,-0.222578,-0.244199,-0.140274,0.000000,0.123859,-0.112220,0.000000
1.890000,-1.018722,0.915488,-1.344223,2.138654,0.751092,0.815164,1.423594,-2.500986,-0.189322,2.803039,-1.149266,-11.616925,-1.237445,49.789102,2.182473,-0.242736,-0.141419,0.000000,0.167585,-0.109337,0.000000
1.900000,-0.997264,0.922873,-1.336081,2.153031,0.726024,0.812689,1.451563,-2.509994,-0.305386,2.782639,-0.657445,-11.582362,-2.839659,48.504198,4.797708,-0.240852,-0.142528,0.000000,0.208172,-0.105410,0.000000
1.910000,-0.975661,0.930008,-1.327969,2.167686,0.700892,0.809056,1.479247,-2.514135,-0.420969,2.746246,-0.179182,-11.520971,-4.423663,46.936912,7.341285,-0.238577,-0.143590,0.000000,0.245648,-0.100517,0.000000
1.920000,-0.953910,0.936891,-1.319900,2.182616,0.675742,0.804270,1.506488,-2.513578,-0.535805,2.694166,0.281293,-11.435536,-6.013181,45.125742,9.451039,-0.235943,-0.144597,0.000000,0.279882,-0.094697,-0.000000
1.930000,-0.932009,0.943523,-1.311884,2.197815,0.650620,0.798340,1.533130,-2.508509,-0.649680,2.625982,0.723333,-11.331950,-7.616698,43.241289,11.188794,-0.232982,-0.145539,0.000000,0.311126,-0.087878,0.000000
1.940000,-0.909954,0.949904,-1.303933,2.213278,0.625571,0.791276,1.559008,-2.499111,-0.762444,2.541832,1.146119,-11.211760,-9.183162,41.215592,13.012807,-0.229723,-0.146404,0.000000,0.339508,-0.080095,0.000000
1.950000,-0.887743,0.956034,-1.296058,2.228996,0.600638,0.783091,1.583967,-2.485587,-0.873915,2.442319,1.547645,-11.071694,-10.741624,39.045716,15.040404,-0.226194,-0.147185,0.000000,0.364951,-0.071479,-0.000000
1.960000,-0.865374,0.961916,-1.288271,2.244958,0.575860,0.773798,1.607854,-2.468158,-0.983878,2.326999,1.927034,-10.910952,-12.313549,36.801582,16.947699,-0.222425,-0.147873,0.000000,0.387523,-0.062032,0.000000
1.970000,-0.842844,0.967552,-1.280582,2.261153,0.551275,0.763413,1.630507,-2.447046,-1.092134,2.196048,2.283676,-10.732740,-13.772650,34.454341,18.440175,-0.218445,-0.148458,0.000000,0.407389,-0.051753,0.000000
1.980000,-0.820151,0.972942,-1.273003,2.277568,0.526919,0.751955,1.651775,-2.422485,-1.198533,2.051546,2.616120,-10.542148,-15.092735,31.993941,19.604316,-0.214278,-0.148934,0.000000,0.424665,-0.040777,0.000000
1.990000,-0.797293,0.978090,-1.265543,2.294188,0.502825,0.739443,1.671537,-2.394724,-1.302977,1.894193,2.923555,-10.340654,-16.438281,29.492900,20.813270,-0.209952,-0.149294,0.000000,0.439434,-0.029160,0.000000
2.000000,-0.774267,0.982998,-1.258214,2.310999,0.479024,0.725896,1.689659,-2.364014,-1.405346,1.722780,3.205978,-10.125883,-17.867463,26.965552,22.174198,-0.205490,-0.149531,0.000000,0.451765,-0.016836,-0.000000
2.010000,-0.751073,0.987670,-1.251025,2.327981,0.455545,0.711336,1.705993,-2.330604,-1.505495,1.536844,3.462866,-9.897170,-19.256377,24.382124,23.430188,-0.200916,-0.149639,0.000000,0.461712,-0.003784,0.000000
2.020000,-0.727708,0.992109,-1.243987,2.345118,0.432412,0.695786,1.720396,-2.294756,-1.603289,1.337653,3.693621,-9.657279,-20.459467,21.769372,24.308840,-0.196255,-0.149610,0.000000,0.469378,0.009919,0.000000
2.030000,-0.704170,0.996319,-1.237109,2.362389,0.409650,0.679270,1.732746,-2.256732,-1.698640,1.127655,3.898254,-9.410993,-21.505470,19.162747,24.886627,-0.191528,-0.149438,0.000000,0.474937,0.024128,0.000000
2.040000,-0.680460,1.000302,-1.230402,2.379773,0.387278,0.661813,1.742949,-2.216791,-1.791509,0.907544,4.076876,-9.159547,-22.575942,16.547344,25.521301,-0.186755,-0.149119,0.000000,0.478488,0.038808,-0.000000
2.050000,-0.656575,1.004064,-1.223873,2.397248,0.365314,0.643440,1.750897,-2.175194,-1.881831,0.676136,4.229201,-8.900567,-23.710113,13.868256,26.277305,-0.181957,-0.148649,0.000000,0.480036,0.054033,-0.000000
2.060000,-0.632515,1.007609,-1.217533,2.414791,0.343774,0.624177,1.756472,-2.132207,-1.969520,0.433341,4.354241,-8.634001,-24.779208,11.160591,26.918507,-0.177154,-0.148022,0.000000,0.479562,0.069820,0.000000
2.070000,-0.608279,1.010940,-1.211390,2.432378,0.322670,0.604050,1.759564,-2.088110,-2.054511,0.180552,4.452412,-8.362197,-25.683602,8.616649,27.317254,-0.172365,-0.147232,0.000000,0.477194,0.086092,0.000000
2.080000,-0.583867,1.014062,-1.205452,2.449983,0.302012,0.583086,1.760083,-2.043159,-2.136764,-0.080331,4.526574,-8.087655,-26.459698,6.252995,27.557239,-0.167608,-0.146275,0.000000,0.473245,0.102739,0.000000
2.090000,-0.559279,1.016980,-1.199728,2.467579,0.281807,0.561314,1.757957,-1.997578,-2.216264,-0.348642,4.577472,-7.811052,-27.229495,3.830133,27.805771,-0.162898,-0.145149,0.000000,0.467817,0.119733,0.000000
2.100000,-0.534516,1.019698,-1.194226,2.485142,0.262060,0.538761,1.753110,-1.951609,-2.292985,-0.624921,4.603177,-7.531540,-28.015313,1.279259,28.081787,-0.158250,-0.143849,0.000000,0.460769,0.137123,-0.000000
2.110000,-0.509577,1.022221,-1.188953,2.502642,0.242774,0.515455,1.745459,-1.905515,-2.366895,-0.908948,4.603057,-7.249416,-28.732763,-1.217187,28.285107,-0.153681,-0.142372,0.000000,0.452083,0.154914,0.000000
2.120000,-0.484463,1.024554,-1.183917,2.520051,0.223950,0.491423,1.734931,-1.859548,-2.437974,-1.199576,4.578833,-6.965838,-29.323189,-3.476180,28.389107,-0.149207,-0.140714,0.000000,0.441931,0.173047,0.000000
2.130000,-0.459176,1.026700,-1.179124,2.537340,0.205583,0.466695,1.721467,-1.813938,-2.506212,-1.495412,4.533534,-6.681634,-29.812897,-5.537962,28.439855,-0.144841,-0.138873,0.000000,0.430577,0.191440,0.000000
2.140000,-0.433716,1.028665,-1.174583,2.554480,0.187671,0.441299,1.705023,-1.768878,-2.571606,-1.795834,4.468074,-6.397041,-30.274102,-7.621661,28.480603,-0.140594,-0.136845,0.000000,0.418102,0.210071,-0.000000
2.150000,-0.408086,1.030454,-1.170298,2.571441,0.170206,0.415263,1.685551,-1.724576,-2.634153,-2.100894,4.381101,-6.112022,-30.712093,-9.780093,28.496701,-0.136478,-0.134630,0.000000,0.404400,0.228963,-0.000000
2.160000,-0.382287,1.032069,-1.166277,2.588191,0.153179,0.388616,1.663005,-1.681256,-2.693847,-2.410076,4.272472,-5.827107,-31.078724,-11.852042,28.474270,-0.132504,-0.132223,0.000000,0.389468,0.248106,0.000000
2.170000,-0.356322,1.033517,-1.162526,2.604701,0.136581,0.361386,1.637349,-1.639127,-2.750695,-2.722469,4.144060,-5.542537,-31.363320,-13.685530,28.477969,-0.128687,-0.129624,0.000000,0.373452,0.267453,-0.000000
2.180000,-0.330193,1.034801,-1.159050,2.620938,0.120397,0.333602,1.608555,-1.598374,-2.804698,-3.037342,3.998761,-5.257547,-31.583837,-15.319222,28.530071,-0.125034,-0.126830,0.000000,0.356563,0.286963,-0.000000
2.190000,-0.303903,1.035925,-1.155854,2.636872,0.104613,0.305292,1.576602,-1.559152,-2.855846,-3.354146,3.837675,-4.971935,-31.750839,-16.937179,28.555387,-0.121554,-0.123840,0.000000,0.338872,0.306616,0.000000
2.200000,-0.277456,1.036893,-1.152944,2.652470,0.089214,0.276485,1.541473,-1.521621,-2.904136,-3.672359,3.660018,-4.686440,-31.854268,-18.582382,28.511651,-0.118255,-0.120652,0.000000,0.320314,0.326403,0.000000
2.210000,-0.250854,1.037709,-1.150324,2.667701,0.074181,0.247209,1.503155,-1.485951,-2.949575,-3.991231,3.466028,-4.401702,-31.888870,-20.122061,28.464880,-0.115146,-0.117266,0.000000,0.300900,0.346296,-0.000000
2.220000,-0.224102,1.038377,-1.148000,2.682533,0.059495,0.217493,1.461648,-1.452300,-2.992170,-4.310136,3.257576,-4.117142,-31.880606,-21.436552,28.542795,-0.112236,-0.113680,0.000000,0.280750,0.366266,-0.000000
2.230000,-0.197203,1.038899,-1.145974,2.696934,0.045135,0.187366,1.416952,-1.420800,-3.031917,-4.628843,3.037297,-3.830846,-31.833590,-22.561894,28.742901,-0.109530,-0.109894,0.000000,0.260032,0.386302,-0.000000
2.240000,-0.170163,1.039280,-1.144252,2.710872,0.031079,0.156855,1.369071,-1.391554,-3.068787,-4.946808,2.806338,-3.542284,-31.711888,-23.644411,28.906992,-0.107034,-0.105907,0.000000,0.238810,0.406386,0.000000
2.250000,-0.142986,1.039521,-1.142837,2.724316,0.017304,0.125990,1.318016,-1.364673,-3.102763,-5.263081,2.564408,-3.252706,-31.504596,-24.703061,28.969833,-0.104753,-0.101719,0.000000,0.217051,0.426481,0.000000
2.260000,-0.115677,1.039626,-1.141733,2.737233,0.003785,0.094800,1.263809,-1.340266,-3.133841,-5.576900,2.312277,-2.962887,-31.236892,-25.635495,29.051216,-0.102692,-0.097329,0.000000,0.194797,0.446558,0.000000
2.270000,-0.088241,1.039596,-1.140941,2.749592,-0.009502,0.063313,1.206478,-1.318428,-3.162021,-5.887819,2.051699,-2.671682,-30.931784,-26.393615,29.331625,-0.100856,-0.092739,0.000000,0.172149,0.466601,0.000000
2.280000,-0.060685,1.039436,-1.140466,2.761362,-0.022583,0.031559,1.146053,-1.299232,-3.187275,-6.195536,1.784405,-2.376255,-30.581899,-27.006278,29.790100,-0.099248,-0.087949,0.000000,0.149192,0.486592,0.000000
2.290000,-0.033014,1.039145,-1.140310,2.772513,-0.035486,-0.000432,1.082567,-1.282739,-3.209546,-6.499457,1.511573,-2.075880,-30.157376,-27.527710,30.195202,-0.097872,-0.082959,0.000000,0.125986,0.506511,0.000000
2.300000,-0.005235,1.038726,-1.140475,2.783014,-0.048238,-0.032631,1.016064,-1.269001,-3.228793,-6.798683,1.233851,-1.772351,-29.650938,-27.979487,30.466280,-0.096728,-0.077769,0.000000,0.102568,0.526329,-0.000000
2.310000,0.022646,1.038180,-1.140963,2.792834,-0.060866,-0.065008,0.946594,-1.258062,-3.244993,-7.092475,0.951983,-1.466555,-29.082464,-28.322439,30.768397,-0.095820,-0.072382,0.000000,0.078975,0.546022,0.000000
2.320000,0.050622,1.037509,-1.141775,2.801945,-0.073399,-0.097531,0.874214,-1.249961,-3.258124,-7.380332,0.667402,-1.156983,-28.468850,-28.488053,31.307835,-0.095148,-0.066797,0.000000,0.055276,0.565569,0.000000
2.330000,0.078685,1.036712,-1.142913,2.810319,-0.085866,-0.130171,0.798987,-1.244714,-3.268133,-7.661852,0.382222,-0.840398,-27.805572,-28.481266,32.038111,-0.094714,-0.061018,0.000000,0.031581,0.584951,0.000000
2.340000,0.106828,1.035791,-1.144379,2.817925,-0.098294,-0.162894,0.720977,-1.242317,-3.274932,-7.936444,0.097777,-0.516221,-27.069477,-28.392943,32.691411,-0.094516,-0.055044,0.000000,0.007960,0.604156,0.000000
2.350000,0.135044,1.034746,-1.146171,2.824738,-0.110712,-0.195669,0.640258,-1.242759,-3.278457,-8.203242,-0.185637,-0.186570,-26.241305,-28.268542,33.233115,-0.094555,-0.048879,0.000000,-0.015578,0.623157,0.000000
2.360000,0.163323,1.033577,-1.148292,2.830730,-0.123149,-0.228463,0.556913,-1.246029,-3.278663,-8.461270,-0.467594,0.148442,-25.336860,-28.043672,33.843224,-0.094828,-0.042524,0.000000,-0.039028,0.641911,-0.000000
2.370000,0.191658,1.032283,-1.150740,2.835876,-0.135632,-0.261242,0.471033,-1.252111,-3.275488,-8.709979,-0.746510,0.490295,-24.406763,-27.603088,34.583396,-0.095335,-0.035981,0.000000,-0.062309,0.660400,0.000000
2.380000,0.220041,1.030864,-1.153517,2.840151,-0.148191,-0.293973,0.382713,-1.260960,-3.268857,-8.949405,-1.019656,0.840110,-23.440825,-26.986645,35.409463,-0.096074,-0.029254,0.000000,-0.085250,0.678657,0.000000
2.390000,0.248461,1.029319,-1.156620,2.843531,-0.160852,-0.326620,0.292045,-1.272504,-3.258686,-9.178796,-1.286243,1.198484,-22.370015,-26.343417,36.244334,-0.097040,-0.022343,0.000000,-0.107825,0.696658,0.000000
2.400000,0.276911,1.027647,-1.160049,2.845992,-0.173641,-0.359147,0.199137,-1.286685,-3.244888,-9.396806,-1.546524,1.564996,-21.226924,-25.533057,36.951235,-0.098231,-0.015253,0.000000,-0.130079,0.714336,0.000000
2.410000,0.305381,1.025847,-1.163803,2.847513,-0.186585,-0.391517,0.104109,-1.303434,-3.227386,-9.603334,-1.796904,1.937509,-20.053042,-24.469341,37.586896,-0.099642,-0.007985,0.000000,-0.151750,0.731718,-0.000000
2.420000,0.333861,1.023916,-1.167879,2.848074,-0.199710,-0.423694,0.007070,-1.322623,-3.206137,-9.797866,-2.035911,2.316734,-18.736343,-23.583100,38.545548,-0.101266,-0.000543,0.000000,-0.172758,0.748795,0.000000
2.430000,0.362343,1.021852,-1.172277,2.847655,-0.213038,-0.455640,-0.091849,-1.344153,-3.181051,-9.978061,-2.268566,2.708420,-17.249120,-22.870140,39.824085,-0.103098,0.007070,0.000000,-0.193557,0.765421,-0.000000
2.440000,0.390815,1.019655,-1.176992,2.846237,-0.226593,-0.487315,-0.192491,-1.367994,-3.151969,-10.142849,-2.493314,3.113216,-15.749848,-21.740770,40.871625,-0.105138,0.014849,0.000000,-0.214065,0.781562,0.000000
2.450000,0.419267,1.017321,-1.182023,2.843805,-0.240398,-0.518679,-0.294706,-1.394019,-3.118787,-10.293058,-2.703382,3.525852,-14.313232,-20.500061,41.575767,-0.107380,0.022791,0.000000,-0.233754,0.797316,0.000000
2.460000,0.447691,1.014847,-1.187366,2.840343,-0.254473,-0.549691,-0.398352,-1.422062,-3.081452,-10.429114,-2.903315,3.944731,-12.826539,-19.516035,42.301811,-0.109814,0.030891,0.000000,-0.252982,0.812744,0.000000
2.470000,0.476074,1.012231,-1.193017,2.835838,-0.268839,-0.580308,-0.503288,-1.452085,-3.039892,-10.549589,-3.093702,4.371888,-11.116012,-17.758296,43.231571,-0.112441,0.039147,0.000000,-0.271840,0.827774,0.000000
2.480000,0.504407,1.009470,-1.198972,2.830277,-0.283515,-0.610489,-0.609344,-1.483936,-2.994014,-10.651434,-3.258481,4.809363,-9.224706,-15.111474,44.217431,-0.115252,0.047554,0.000000,-0.289138,0.842213,-0.000000
2.490000,0.532680,1.006561,-1.205227,2.823651,-0.298518,-0.640189,-0.716317,-1.517255,-2.943705,-10.734083,-3.395932,5.256237,-7.382242,-13.018868,45.024083,-0.118225,0.056106,0.000000,-0.304753,0.856055,-0.000000
2.500000,0.560880,1.003500,-1.211776,2.815951,-0.313860,-0.669363,-0.824025,-1.551854,-2.888889,-10.799079,-3.518858,5.709844,-5.544349,-11.264661,45.740007,-0.121348,0.064799,0.000000,-0.319665,0.869443,0.000000
2.510000,0.588999,1.000284,-1.218614,2.807170,-0.329555,-0.697967,-0.932298,-1.587632,-2.829508,-10.844970,-3.621225,6.171037,-3.565434,-8.905719,46.493671,-0.124619,0.073627,0.000000,-0.333436,0.882300,-0.000000
2.520000,0.617024,0.996909,-1.225735,2.797305,-0.345613,-0.725953,-1.040925,-1.624279,-2.765469,-10.870387,-3.696973,6.639718,-1.616681,-6.961692,46.990367,-0.128018,0.082586,0.000000,-0.345608,0.894556,0.000000
2.530000,0.644945,0.993371,-1.233133,2.786352,-0.362040,-0.753276,-1.149706,-1.661571,-2.696714,-10.877303,-3.760459,7.110845,0.249140,-5.769752,47.177149,-0.131533,0.091669,0.000000,-0.357260,0.906360,0.000000
2.540000,0.672751,0.989668,-1.240801,2.774311,-0.378844,-0.779887,-1.258471,-1.699488,-2.623252,-10.865404,-3.812368,7.583261,2.274742,-3.859678,47.444388,-0.135165,0.100875,0.000000,-0.368451,0.917698,0.000000
2.550000,0.700431,0.985794,-1.248731,2.761183,-0.396030,-0.805741,-1.367014,-1.737819,-2.545049,-10.831809,-3.837652,8.059732,4.435471,-1.333674,47.708447,-0.138903,0.110196,0.000000,-0.378041,0.928384,-0.000000
2.560000,0.727975,0.981747,-1.256915,2.746971,-0.413600,-0.830788,-1.475107,-1.776241,-2.462057,-10.776695,-3.839041,8.537430,6.566986,0.821109,47.697462,-0.142727,0.119627,0.000000,-0.386212,0.938432,0.000000
2.570000,0.755370,0.977522,-1.265347,2.731680,-0.431555,-0.854982,-1.582548,-1.814600,-2.374300,-10.700469,-3.821230,9.013682,8.812040,3.364292,47.726737,-0.146629,0.129161,0.000000,-0.393306,0.947858,0.000000
2.580000,0.782608,0.973116,-1.274015,2.715320,-0.449892,-0.878274,-1.689116,-1.852666,-2.281783,-10.600454,-3.771756,9.491964,11.249784,6.718678,47.876813,-0.150595,0.138793,0.000000,-0.398365,0.956495,0.000000
2.590000,0.809677,0.968525,-1.282912,2.697898,-0.468608,-0.900618,-1.794557,-1.890035,-2.184461,-10.475473,-3.686857,9.971218,13.660485,9.732484,47.670456,-0.154598,0.148514,0.000000,-0.401056,0.964253,0.000000
2.600000,0.836566,0.963744,-1.292027,2.679428,-0.487693,-0.921964,-1.898626,-1.926403,-2.082359,-10.327245,-3.577106,10.445373,15.882796,11.894022,47.146617,-0.158617,0.158315,0.000000,-0.402120,0.971203,0.000000
2.610000,0.863265,0.958771,-1.301351,2.659926,-0.507136,-0.942265,-2.001102,-1.961577,-1.975553,-10.157817,-3.448976,10.914150,18.074273,14.016734,46.605586,-0.162641,0.168189,0.000000,-0.402049,0.977496,0.000000
2.620000,0.889765,0.953601,-1.310873,2.639406,-0.526925,-0.961475,-2.101782,-1.995382,-1.864076,-9.965759,-3.296771,11.377485,20.619804,17.158279,45.749651,-0.166659,0.178130,0.000000,-0.400359,0.983008,-0.000000
2.630000,0.916054,0.948232,-1.320581,2.617890,-0.547044,-0.979546,-2.200417,-2.027512,-1.748004,-9.745421,-3.105811,11.829143,23.475057,20.994133,44.424699,-0.170649,0.188129,0.000000,-0.395727,0.987165,0.000000
2.640000,0.942122,0.942660,-1.330464,2.595398,-0.567475,-0.996435,-2.296691,-2.057498,-1.627493,-9.496258,-2.876889,12.265979,26.112310,24.128199,43.050642,-0.174575,0.198168,0.000000,-0.388086,0.989819,0.000000
2.650000,0.967962,0.936883,-1.340509,2.571956,-0.588194,-1.012096,-2.390342,-2.085050,-1.502684,-9.223175,-2.623247,12.690156,28.462751,26.903629,41.845683,-0.178412,0.208235,0.000000,-0.378472,0.991356,-0.000000
2.660000,0.993562,0.930897,-1.350706,2.547591,-0.609176,-1.026489,-2.481154,-2.109963,-1.373690,-8.927003,-2.338816,13.102893,30.871570,30.188676,40.492578,-0.182145,0.218319,0.000000,-0.366320,0.991821,-0.000000
2.670000,1.018913,0.924699,-1.361039,2.522333,-0.630393,-1.039570,-2.568882,-2.131826,-1.240626,-8.605744,-2.019473,13.500008,33.414897,32.727163,38.466745,-0.185738,0.228408,0.000000,-0.351115,0.990919,0.000000
2.680000,1.044008,0.918289,-1.371497,2.496214,-0.651812,-1.051301,-2.653269,-2.150353,-1.103690,-8.258705,-1.684273,13.872228,35.968166,34.186809,35.842699,-0.189167,0.238487,0.000000,-0.334227,0.988322,0.000000
2.690000,1.068838,0.911663,-1.382065,2.469268,-0.673400,-1.061644,-2.734056,-2.165512,-0.963182,-7.886380,-1.335737,14.216862,38.435697,36.328967,33.305093,-0.192423,0.248536,0.000000,-0.315741,0.983885,-0.000000
2.700000,1.093394,0.904821,-1.392730,2.441532,-0.695123,-1.070565,-2.810997,-2.177068,-0.819353,-7.489991,-0.957693,14.538330,40.776705,39.050983,30.977021,-0.195481,0.258537,0.000000,-0.294207,0.977677,-0.000000
2.710000,1.117668,0.897761,-1.403477,2.413048,-0.716941,-1.078031,-2.883856,-2.184666,-0.672415,-7.070846,-0.554717,14.836402,43.037832,41.152629,28.389295,-0.198306,0.268472,0.000000,-0.269859,0.969685,0.000000
2.720000,1.141655,0.890482,-1.414291,2.383855,-0.738816,-1.084013,-2.952414,-2.188162,-0.522625,-6.629234,-0.134641,15.106115,45.327860,43.408802,25.289022,-0.200877,0.278321,0.000000,-0.243158,0.959671,-0.000000
2.730000,1.165345,0.882984,-1.425157,2.353999,-0.760705,-1.088483,-3.016441,-2.187358,-0.370293,-6.164289,0.313459,15.342182,47.620169,46.238675,21.801011,-0.203167,0.288061,0.000000,-0.212874,0.947251,-0.000000
2.740000,1.188735,0.875268,-1.436060,2.323527,-0.782563,-1.091419,-3.075699,-2.181893,-0.215781,-5.676831,0.790133,15.542136,49.743973,48.444981,18.242666,-0.205131,0.297664,0.000000,-0.178680,0.932221,0.000000
2.750000,1.211816,0.867333,-1.446985,2.292485,-0.804343,-1.092799,-3.129978,-2.171556,-0.059450,-5.169409,1.282358,15.707036,51.677714,49.978242,14.857491,-0.206737,0.307105,0.000000,-0.141549,0.914609,-0.000000
2.760000,1.234584,0.859181,-1.457916,2.260927,-0.825994,-1.092608,-3.179088,-2.156246,0.098360,-4.643277,1.789698,15.839285,53.516605,51.632088,11.424228,-0.207958,0.316354,0.000000,-0.101358,0.894364,0.000000
2.770000,1.257034,0.850813,-1.468837,2.228904,-0.847467,-1.090832,-3.222843,-2.135762,0.257336,-4.099077,2.315000,15.935520,55.248688,53.062256,7.259013,-0.208760,0.325385,0.000000,-0.057541,0.871207,0.000000
2.780000,1.279162,0.842232,-1.479733,2.196470,-0.868709,-1.087461,-3.261069,-2.109946,0.417070,-3.538303,2.850943,15.984466,56.812957,53.940681,2.402947,-0.209104,0.334163,0.000000,-0.010313,0.844635,0.000000
2.790000,1.300964,0.833439,-1.490587,2.163682,-0.889666,-1.082490,-3.293609,-2.078743,0.577025,-2.962818,3.393814,15.983579,58.209761,54.785328,-2.197063,-0.208960,0.342651,0.000000,0.040273,0.814387,0.000000
2.800000,1.322436,0.824438,-1.501383,2.130598,-0.910284,-1.075921,-3.320325,-2.042069,0.736742,-2.374108,3.946649,15.940524,59.515967,55.790955,-6.297307,-0.208292,0.350810,0.000000,0.094632,0.780505,-0.000000
2.810000,1.343576,0.815233,-1.512105,2.097276,-0.930508,-1.067756,-3.341091,-1.999810,0.895835,-1.772499,4.509633,15.857633,60.703092,56.564021,-10.527620,-0.207059,0.358601,0.000000,0.153021,0.742762,0.000000
2.820000,1.364381,0.805828,-1.522738,2.063776,-0.950281,-1.058004,-3.355775,-1.951877,1.053894,-1.160046,5.077930,15.729972,61.519076,56.722178,-15.363389,-0.205222,0.365984,0.000000,0.215359,0.700813,-0.000000
2.830000,1.384851,0.796228,-1.533265,2.030160,-0.969545,-1.046678,-3.364292,-1.898251,1.210435,-0.542117,5.644076,15.550365,61.932809,56.352493,-20.588355,-0.202743,0.372912,0.000000,0.281340,0.654513,0.000000
2.840000,1.404985,0.786437,-1.543671,1.996490,-0.988246,-1.033795,-3.366618,-1.838995,1.364902,0.078610,6.204980,15.318205,62.268752,55.928243,-25.561480,-0.199585,0.379340,0.000000,0.350913,0.603676,0.000000
2.850000,1.424781,0.776463,-1.553941,1.962828,-1.006325,-1.019380,-3.362720,-1.774152,1.516799,0.703258,6.762641,15.039136,62.675415,55.641781,-30.162482,-0.195713,0.385221,0.000000,0.424399,0.547993,0.000000
2.860000,1.444241,0.766311,-1.564059,1.929236,-1.023729,-1.003459,-3.352553,-1.703742,1.665684,1.332119,7.317815,14.714955,62.907429,55.150790,-34.787380,-0.191085,0.390503,0.000000,0.502081,0.487086,0.000000
2.870000,1.463366,0.755988,-1.574010,1.895777,-1.040400,-0.986066,-3.336078,-1.627796,1.811098,1.961406,7.865657,14.343388,62.571911,53.924144,-39.650238,-0.185659,0.395132,0.000000,0.583725,0.420824,0.000000
2.880000,1.482157,0.745503,-1.583780,1.862514,-1.056284,-0.967237,-3.313325,-1.546429,1.952552,2.583557,8.396298,13.921951,61.710410,52.031605,-44.583920,-0.179397,0.399055,0.000000,0.668482,0.349479,-0.000000
2.890000,1.500616,0.734862,-1.593355,1.829510,-1.071329,-0.947015,-3.284406,-1.459870,2.089537,3.195614,8.906289,13.451710,60.832947,50.172772,-49.274671,-0.172275,0.402223,0.000000,0.755989,0.273046,0.000000
2.900000,1.518747,0.724076,-1.602721,1.796826,-1.085482,-0.925447,-3.249412,-1.368303,2.221586,3.800216,9.399754,12.936457,60.128231,48.582573,-53.724740,-0.164264,0.404584,0.000000,0.846603,0.191079,0.000000
2.910000,1.536553,0.713153,-1.611864,1.764522,-1.098695,-0.902583,-3.208402,-1.271875,2.348266,4.398179,9.877941,12.377215,59.235085,46.776758,-58.094645,-0.155330,0.406082,0.000000,0.940384,0.103227,0.000000
2.920000,1.554037,0.702102,-1.620772,1.732658,-1.110919,-0.878481,-3.161449,-1.170745,2.469131,4.984917,10.335289,11.774564,57.676171,44.187843,-62.268366,-0.145443,0.406658,0.000000,1.036531,0.009774,0.000000
2.930000,1.571206,0.690934,-1.629433,1.701293,-1.122110,-0.853201,-3.108704,-1.065169,2.583757,5.551703,10.761698,11.131848,55.540257,40.950387,-66.129491,-0.134586,0.406264,0.000000,1.133474,-0.088272,0.000000
2.940000,1.588063,0.679660,-1.637836,1.670484,-1.132223,-0.826806,-3.050415,-0.955511,2.691768,6.095723,11.154296,10.451974,53.458007,37.819398,-69.797074,-0.122762,0.404861,0.000000,1.230281,-0.190437,0.000000
2.950000,1.604616,0.668290,-1.645970,1.640285,-1.141220,-0.799365,-2.986789,-0.842083,2.792797,6.620863,11.518085,9.735906,51.620231,34.998558,-73.422529,-0.109971,0.402411,0.000000,1.326873,-0.297029,-0.000000
2.960000,1.620869,0.656836,-1.653823,1.610748,-1.149064,-0.770950,-2.917997,-0.725149,2.886486,7.128127,11.854268,8.983524,49.598442,31.985917,-76.866724,-0.096217,0.398870,0.000000,1.422613,-0.407987,-0.000000
2.970000,1.636831,0.645309,-1.661389,1.581925,-1.155723,-0.741636,-2.844227,-0.604997,2.972467,7.612831,12.157804,8.198572,46.946370,28.328897,-79.648277,-0.081515,0.394200,0.000000,1.515845,-0.522214,-0.000000
2.980000,1.652507,0.633721,-1.668656,1.553864,-1.161164,-0.711501,-2.765741,-0.481993,3.050457,8.067055,12.420846,7.390558,43.794373,24.194120,-81.733186,-0.065899,0.388379,0.000000,1.604276,-0.637697,0.000000
2.990000,1.667908,0.622085,-1.675619,1.526610,-1.165363,-0.680626,-2.682886,-0.356581,3.120279,8.488719,12.641686,6.563908,40.739335,20.193445,-83.727576,-0.049432,0.381408,0.000000,1.686294,-0.753203,0.000000
3.000000,1.683040,0.610414,-1.682269,1.500206,-1.168296,-0.649095,-2.595966,-0.229159,3.181735,8.881841,12.824714,5.716007,37.919711,16.446497,-85.914003,-0.032181,0.373288,0.000000,1.761063,-0.868508,0.000000
3.010000,1.697912,0.598719,-1.688600,1.474691,-1.169946,-0.616992,-2.505249,-0.100086,3.234599,9.247113,12.970616,4.845628,34.947286,12.567906,-87.829330,-0.014223,0.364023,0.000000,1.827158,-0.982769,0.000000
3.020000,1.712534,0.587015,-1.694609,1.450101,-1.170298,-0.584403,-2.411024,0.030253,3.278648,9.580787,13.076073,3.959420,31.536147,8.341162,-88.702452,0.004345,0.353629,0.000000,1.882518,-1.094017,0.000000
3.030000,1.726914,0.575313,-1.700289,1.426470,-1.169341,-0.551419,-2.313633,0.161435,3.313787,9.877836,13.137439,3.071579,27.828444,3.922158,-88.606510,0.023406,0.342144,0.000000,1.925123,-1.199621,0.000000
3.040000,1.741063,0.563628,-1.705637,1.403828,-1.167069,-0.518127,-2.213467,0.293002,3.340079,10.137356,13.154516,2.187290,24.215453,-0.381040,-88.539179,0.042822,0.329635,0.000000,1.953659,-1.297938,0.000000
3.050000,1.754990,0.551972,-1.710651,1.382201,-1.163481,-0.484617,-2.110886,0.424526,3.357533,10.362145,13.129819,1.300795,20.738525,-4.563118,-88.862739,0.062450,0.316170,0.000000,1.967362,-1.388378,0.000000
3.060000,1.768707,0.540359,-1.715329,1.361611,-1.158578,-0.450977,-2.006224,0.555598,3.366095,10.552126,13.063253,0.410035,17.164063,-8.789504,-88.867222,0.082138,0.301825,0.000000,1.965305,-1.469802,-0.000000
3.070000,1.782223,0.528801,-1.719671,1.342077,-1.152369,-0.417295,-1.899843,0.685791,3.365734,10.705426,12.954029,-0.476549,13.464776,-12.982398,-87.633875,0.101723,0.286690,0.000000,1.946883,-1.540448,0.000000
3.080000,1.795548,0.517311,-1.723675,1.323614,-1.144863,-0.383662,-1.792116,0.814679,3.356564,10.821422,12.803605,-1.342642,9.749223,-17.039335,-85.343049,0.121042,0.270874,0.000000,1.912452,-1.598648,-0.000000
3.090000,1.808695,0.505903,-1.727344,1.306234,-1.136075,-0.350164,-1.683415,0.941863,3.338881,10.900411,12.613242,-2.183410,6.072724,-21.034938,-83.200143,0.139940,0.254502,0.000000,1.862713,-1.643685,-0.000000
3.100000,1.821673,0.494590,-1.730678,1.289946,-1.126025,-0.316885,-1.574108,1.066944,3.312896,10.942876,12.382907,-3.006645,2.408519,-25.058007,-81.515633,0.158266,0.237698,0.000000,1.798269,-1.675582,0.000000
3.110000,1.834494,0.483383,-1.733682,1.274752,-1.114736,-0.283906,-1.464558,1.189521,3.278748,10.948581,12.112082,-3.813723,-1.244528,-29.011314,-79.470963,0.175878,0.220589,0.000000,1.720024,-1.694205,-0.000000
3.120000,1.847168,0.472295,-1.736357,1.260654,-1.102235,-0.251310,-1.355136,1.309185,3.236622,10.917986,11.802680,-4.596064,-4.764259,-32.599468,-76.358631,0.192644,0.203307,0.000000,1.629777,-1.699464,-0.000000
3.130000,1.859707,0.461338,-1.738708,1.247649,-1.088553,-0.219174,-1.246198,1.425574,3.186827,10.853296,11.460092,-5.340895,-8.099908,-35.790871,-72.428810,0.208456,0.185983,0.000000,1.530241,-1.691761,-0.000000
3.140000,1.872121,0.450524,-1.740740,1.235730,-1.073723,-0.187573,-1.138070,1.538387,3.129804,10.755988,11.086863,-6.044641,-11.385450,-38.944455,-68.615082,0.223236,0.168745,0.000000,1.423608,-1.671980,0.000000
3.150000,1.884422,0.439864,-1.742459,1.224888,-1.057785,-0.156578,-1.031078,1.647312,3.065934,10.625587,10.681203,-6.713197,-14.786092,-42.278489,-65.161438,0.236921,0.151712,0.000000,1.311134,-1.641110,-0.000000
3.160000,1.896619,0.429368,-1.743872,1.215109,-1.040777,-0.126254,-0.925558,1.752011,2.995540,10.460266,10.241293,-7.347869,-18.169324,-45.503594,-61.459536,0.249456,0.134997,0.000000,1.194124,-1.599903,-0.000000
3.170000,1.908724,0.419048,-1.744984,1.206377,-1.022745,-0.096667,-0.821873,1.852138,2.918976,10.262201,9.771131,-7.942388,-21.028762,-47.991568,-56.961862,0.260805,0.118706,0.000000,1.074862,-1.549624,0.000000
3.180000,1.920746,0.408913,-1.745805,1.198671,-1.003735,-0.067875,-0.720314,1.947434,2.836692,10.039691,9.281462,-8.487107,-23.356958,-49.776295,-51.885635,0.270960,0.102931,0.000000,0.956493,-1.492411,0.000000
3.190000,1.932697,0.398973,-1.746342,1.191970,-0.983796,-0.039933,-0.621079,2.037767,2.749234,9.795061,8.775605,-8.980101,-25.812236,-51.671240,-46.982696,0.279944,0.087736,0.000000,0.840587,-1.429703,-0.000000
3.200000,1.944586,0.389237,-1.746604,1.186250,-0.962979,-0.012890,-0.524413,2.122946,2.657090,9.523446,8.248037,-9.426761,-28.562012,-53.914354,-42.347642,0.287783,0.073184,0.000000,0.727043,-1.361982,0.000000
3.210000,1.956422,0.379714,-1.746600,1.181482,-0.941337,0.013209,-0.430610,2.202728,2.560699,9.223821,7.697318,-9.827053,-31.133845,-55.926179,-37.520775,0.294499,0.059330,0.000000,0.616343,-1.290099,0.000000
3.220000,1.968216,0.370411,-1.746339,1.177638,-0.918925,0.038324,-0.339937,2.276892,2.460549,8.900769,7.129513,-10.177176,-33.136682,-57.127534,-32.408634,0.300125,0.046220,0.000000,0.509875,-1.215529,0.000000
3.230000,1.979975,0.361335,-1.745833,1.174683,-0.895799,0.062420,-0.252595,2.345318,2.357156,8.561088,6.554768,-10.475226,-34.703428,-57.679533,-27.220595,0.304712,0.033879,0.000000,0.409205,-1.139917,0.000000
3.240000,1.991709,0.352495,-1.745091,1.172586,-0.872018,0.085467,-0.168715,2.407988,2.251044,8.206700,5.975923,-10.721588,-36.316198,-58.319900,-22.106720,0.308325,0.022316,0.000000,0.314667,-1.064130,-0.000000
3.250000,2.003427,0.343895,-1.744124,1.171309,-0.847639,0.107441,-0.088461,2.464836,2.142724,7.834764,5.388370,-10.917360,-38.057720,-59.188374,-16.982735,0.311021,0.011537,0.000000,0.225557,-0.988326,0.000000
3.260000,2.015135,0.335542,-1.742942,1.170817,-0.822722,0.128321,-0.012020,2.515755,2.032697,7.445546,4.792155,-11.061243,-39.595021,-59.782925,-11.811998,0.312851,0.001545,0.000000,0.141759,-0.912963,0.000000
3.270000,2.026843,0.327440,-1.741557,1.171069,-0.797324,0.148095,0.060450,2.560679,1.921499,7.042863,4.192711,-11.153600,-40.716890,-59.782845,-6.915305,0.313870,-0.007663,0.000000,0.063630,-0.838829,0.000000
3.280000,2.038557,0.319595,-1.739980,1.172026,-0.771508,0.166751,0.128838,2.599609,1.809625,6.631208,3.596498,-11.199549,-41.513831,-59.342786,-2.377349,0.314136,-0.016103,0.000000,-0.008635,-0.766662,0.000000
3.290000,2.050283,0.312010,-1.738222,1.173646,-0.745332,0.184287,0.193074,2.632609,1.697508,6.212587,3.005855,-11.201147,-42.246918,-58.869134,2.186129,0.313708,-0.023795,0.000000,-0.075256,-0.696779,-0.000000
3.300000,2.062030,0.304689,-1.736295,1.175887,-0.718856,0.200702,0.253089,2.659727,1.585602,5.786270,2.419116,-11.155826,-43.039371,-58.473201,6.949678,0.312641,-0.030763,0.000000,-0.136744,-0.629131,0.000000
3.310000,2.073801,0.297633,-1.734208,1.178707,-0.692138,0.215999,0.308800,2.680992,1.474391,5.351799,1.836391,-11.062154,-43.709468,-57.887829,11.593428,0.310982,-0.037029,0.000000,-0.193452,-0.563665,0.000000
3.320000,2.085604,0.290846,-1.731975,1.182063,-0.665236,0.230189,0.360125,2.696454,1.364359,4.912080,1.261359,-10.923958,-43.914226,-56.833222,15.607148,0.308779,-0.042615,0.000000,-0.245535,-0.500649,0.000000
3.330000,2.097442,0.284329,-1.729605,1.185910,-0.638209,0.243286,0.407041,2.706219,1.255912,4.473515,0.699727,-10.750011,-43.698710,-55.399835,19.014305,0.306078,-0.047549,0.000000,-0.293102,-0.440644,-0.000000
3.340000,2.109322,0.278082,-1.727109,1.190204,-0.611112,0.255308,0.449596,2.710449,1.149359,4.038106,0.153362,-10.543671,-43.527420,-53.968495,22.444618,0.302922,-0.051866,0.000000,-0.336466,-0.383674,-0.000000
3.350000,2.121247,0.272106,-1.724498,1.194902,-0.584000,0.266274,0.487804,2.709286,1.045039,3.602966,-0.379643,-10.301119,-43.503999,-52.592295,26.205133,0.299352,-0.055596,0.000000,-0.376062,-0.329265,-0.000000
3.360000,2.133220,0.266402,-1.721783,1.199960,-0.556926,0.276208,0.521655,2.702856,0.943337,3.168026,-0.898484,-10.019569,-43.319000,-51.031917,29.816643,0.295404,-0.058766,0.000000,-0.412064,-0.277257,0.000000
3.370000,2.145246,0.260968,-1.718974,1.205335,-0.529942,0.285140,0.551164,2.691316,0.844647,2.736586,-1.400281,-9.704786,-42.770657,-49.218736,32.418462,0.291113,-0.061400,0.000000,-0.444689,-0.227789,0.000000
3.380000,2.157327,0.255803,-1.716081,1.210983,-0.503100,0.293101,0.576387,2.674850,0.749241,2.312613,-1.882858,-9.371200,-41.971926,-47.244846,34.098315,0.286511,-0.063528,0.000000,-0.474450,-0.180986,0.000000
3.390000,2.169465,0.250906,-1.713112,1.216863,-0.476445,0.300125,0.597416,2.653659,0.657223,1.897148,-2.345178,-9.022819,-41.188457,-45.210787,35.974162,0.281624,-0.065179,0.000000,-0.501591,-0.136718,0.000000
3.400000,2.181664,0.246274,-1.710078,1.222932,-0.450026,0.306246,0.614330,2.627947,0.568785,1.488844,-2.787074,-8.651716,-40.417714,-43.156498,38.333830,0.276479,-0.066379,0.000000,-0.526075,-0.094699,0.000000
3.410000,2.193924,0.241905,-1.706987,1.229149,-0.423886,0.311501,0.627193,2.597918,0.484189,1.088793,-3.208308,-8.256143,-39.499907,-41.035380,40.394511,0.271102,-0.067152,0.000000,-0.548041,-0.054873,0.000000
3.420000,2.206247,0.237796,-1.703848,1.235475,-0.398068,0.315930,0.636105,2.563781,0.403662,0.698846,-3.607782,-7.843826,-38.490289,-38.766133,41.481281,0.265517,-0.067522,0.000000,-0.567780,-0.017197,0.000000
3.430000,2.218634,0.233944,-1.700669,1.241871,-0.372611,0.319574,0.641170,2.525762,0.327313,0.318988,-3.983631,-7.426517,-37.462615,-36.391915,41.817829,0.259745,-0.067512,0.000000,-0.585564,0.018582,0.000000
3.440000,2.231084,0.230344,-1.697457,1.248299,-0.347553,0.322476,0.642485,2.484108,0.255131,-0.050406,-4.335620,-7.007470,-36.346404,-34.047391,42.264724,0.253804,-0.067141,0.000000,-0.601554,0.052603,0.000000
3.450000,2.243600,0.226993,-1.694219,1.254721,-0.322929,0.324677,0.640162,2.439050,0.187163,-0.407940,-4.664579,-6.581223,-35.107719,-31.660744,43.033164,0.247712,-0.066427,0.000000,-0.615780,0.084833,-0.000000
3.460000,2.256179,0.223886,-1.690963,1.261102,-0.298772,0.326219,0.634326,2.390817,0.123507,-0.752561,-4.968835,-6.146806,-33.814029,-29.171749,43.541990,0.241486,-0.065392,0.000000,-0.628142,0.115293,0.000000
3.470000,2.268822,0.221017,-1.687695,1.267407,-0.275112,0.327147,0.625111,2.339673,0.064227,-1.084221,-5.248014,-5.710383,-32.557586,-26.860431,43.278240,0.235146,-0.064054,0.000000,-0.638820,0.144144,0.000000
3.480000,2.281527,0.218383,-1.684420,1.273604,-0.251978,0.327504,0.612642,2.285856,0.009299,-1.403713,-5.506043,-5.281241,-31.334152,-24.789101,42.429923,0.228707,-0.062429,0.000000,-0.648442,0.171633,0.000000
3.490000,2.294294,0.215978,-1.681145,1.279660,-0.229395,0.327333,0.597037,2.229552,-0.041398,-1.710904,-5.743796,-4.861784,-30.041083,-22.591476,41.671941,0.222175,-0.060530,0.000000,-0.657149,0.197850,-0.000000
3.500000,2.307120,0.213795,-1.677873,1.285545,-0.207387,0.326676,0.578424,2.170980,-0.087936,-2.004534,-5.957873,-4.447803,-28.643079,-20.136344,41.098509,0.215561,-0.058372,0.000000,-0.664522,0.222725,0.000000
3.510000,2.320005,0.211830,-1.674611,1.291229,-0.185976,0.325574,0.556946,2.110395,-0.130354,-2.283766,-6.146522,-4.039814,-27.225130,-17.699562,40.275954,0.208881,-0.055970,0.000000,-0.670406,0.246255,0.000000
3.520000,2.332945,0.210076,-1.671362,1.296684,-0.165179,0.324069,0.532749,2.048050,-0.168733,-2.549037,-6.311864,-3.642284,-25.904367,-15.607464,39.046965,0.202150,-0.053338,0.000000,-0.675083,0.268570,0.000000
3.530000,2.345938,0.208526,-1.668130,1.301884,-0.145015,0.322199,0.505965,1.984157,-0.203199,-2.801853,-6.458672,-3.258875,-24.682353,-13.792618,37.582267,0.195377,-0.050487,0.000000,-0.679052,0.289885,-0.000000
3.540000,2.358982,0.207176,-1.664918,1.306803,-0.125496,0.320005,0.476712,1.918876,-0.233910,-3.042684,-6.587716,-2.890638,-23.416914,-11.848091,36.091648,0.188567,-0.047427,0.000000,-0.682365,0.310287,-0.000000
3.550000,2.372074,0.206017,-1.661730,1.311418,-0.106637,0.317521,0.445111,1.852403,-0.261012,-3.270191,-6.695634,-2.537042,-21.974915,-9.710062,34.546395,0.181727,-0.044169,0.000000,-0.684645,0.329673,0.000000
3.560000,2.385211,0.205043,-1.658568,1.315705,-0.088448,0.314784,0.411308,1.784964,-0.284651,-3.482182,-6.781918,-2.199710,-20.472258,-7.664909,32.840522,0.174872,-0.040723,0.000000,-0.685825,0.347858,0.000000
3.570000,2.398388,0.204248,-1.655434,1.319644,-0.070938,0.311828,0.375468,1.716765,-0.305006,-3.679636,-6.848932,-1.880232,-19.294369,-5.865689,31.101628,0.168009,-0.037103,0.000000,-0.686100,0.364958,0.000000
3.580000,2.411604,0.203624,-1.652331,1.323215,-0.054113,0.308684,0.337715,1.647985,-0.322256,-3.868070,-6.899232,-1.577678,-18.422498,-4.233913,29.401211,0.161148,-0.033318,0.000000,-0.685639,0.381511,0.000000
3.590000,2.424853,0.203165,-1.649260,1.326398,-0.037978,0.305383,0.298106,1.578780,-0.336560,-4.048086,-6.933610,-1.292207,-17.344076,-2.591761,27.588909,0.154294,-0.029372,0.000000,-0.684463,0.397576,0.000000
3.600000,2.438132,0.202865,-1.646223,1.329177,-0.022537,0.301953,0.256753,1.509313,-0.348100,-4.214951,-6.951067,-1.025900,-16.000983,-0.863294,25.596505,0.147457,-0.025270,0.000000,-0.682448,0.412693,0.000000
3.610000,2.451436,0.202715,-1.643221,1.331534,-0.007792,0.298421,0.213807,1.439759,-0.357078,-4.368106,-6.950876,-0.780277,-14.743020,0.823548,23.558756,0.140644,-0.021026,0.000000,-0.679476,0.426799,-0.000000
3.620000,2.464762,0.202709,-1.640255,1.333453,0.006258,0.294812,0.169391,1.370295,-0.363705,-4.509811,-6.934596,-0.554724,-13.643037,2.239630,21.679989,0.133866,-0.016648,0.000000,-0.675619,0.440093,-0.000000
3.630000,2.478105,0.202840,-1.637325,1.334921,0.019614,0.291147,0.123611,1.301067,-0.368172,-4.640967,-6.906083,-0.346677,-12.575993,3.420218,19.954085,0.127130,-0.012144,0.000000,-0.671149,0.452636,-0.000000
3.640000,2.491461,0.203101,-1.634432,1.335925,0.032279,0.287448,0.076572,1.232174,-0.370639,-4.761331,-6.866191,-0.155643,-11.473883,4.666332,18.140589,0.120442,-0.007521,0.000000,-0.666085,0.464385,0.000000
3.650000,2.504824,0.203485,-1.631576,1.336453,0.044258,0.283734,0.028385,1.163743,-0.371285,-4.870444,-6.812757,0.016134,-10.381613,5.992922,16.126492,0.113808,-0.002788,0.000000,-0.660184,0.475270,0.000000
3.660000,2.518190,0.203986,-1.628757,1.336493,0.055554,0.280022,-0.020837,1.095919,-0.370316,-4.968964,-6.746333,0.166887,-9.336308,7.198371,14.103512,0.107238,0.002047,0.000000,-0.653453,0.485323,0.000000
3.670000,2.531554,0.204596,-1.625976,1.336036,0.066176,0.276328,-0.070995,1.028816,-0.367948,-5.057171,-6.668789,0.298205,-8.238153,8.290443,12.408242,0.100738,0.006975,0.000000,-0.645992,0.494535,0.000000
3.680000,2.544911,0.205310,-1.623231,1.335073,0.076130,0.272663,-0.121981,0.962543,-0.364352,-5.133727,-6.580524,0.415052,-7.068787,9.341864,11.010538,0.094317,0.011988,0.000000,-0.637736,0.502747,0.000000
3.690000,2.558255,0.206119,-1.620522,1.333596,0.085427,0.269041,-0.173669,0.897206,-0.359647,-5.198546,-6.481952,0.518415,-5.967268,10.325602,9.485293,0.087983,0.017076,0.000000,-0.628672,0.509924,0.000000
3.700000,2.571582,0.207018,-1.617850,1.331600,0.094075,0.265470,-0.225951,0.832904,-0.353984,-5.253072,-6.374012,0.604758,-4.954225,11.226183,7.732730,0.081744,0.022227,0.000000,-0.618877,0.516169,-0.000000
3.710000,2.584887,0.208001,-1.615213,1.329077,0.102085,0.261961,-0.278731,0.769726,-0.347551,-5.297631,-6.257428,0.673070,-3.934013,12.066754,6.058821,0.075606,0.027434,0.000000,-0.608382,0.521477,0.000000
3.720000,2.598164,0.209060,-1.612611,1.326025,0.109469,0.258519,-0.331904,0.707755,-0.340522,-5.331752,-6.132677,0.725934,-2.882227,12.861716,4.711841,0.069576,0.032687,0.000000,-0.597168,0.525769,0.000000
3.730000,2.611408,0.210190,-1.610043,1.322439,0.116240,0.255151,-0.385366,0.647072,-0.333033,-5.355275,-6.000194,0.767307,-1.829161,13.603814,3.610682,0.063663,0.037975,0.000000,-0.585215,0.529011,-0.000000
3.740000,2.624613,0.211385,-1.607508,1.318318,0.122411,0.251859,-0.439010,0.587751,-0.325176,-5.368335,-5.860601,0.798148,-0.800868,14.278008,2.452270,0.057872,0.043288,0.000000,-0.572553,0.531196,0.000000
3.750000,2.637774,0.212638,-1.605005,1.313659,0.127995,0.248647,-0.492732,0.529860,-0.317070,-5.371293,-5.714634,0.816352,0.185578,14.891217,1.161156,0.052212,0.048617,0.000000,-0.559242,0.532323,0.000000
3.760000,2.650886,0.213945,-1.602535,1.308463,0.133008,0.245517,-0.546435,0.473459,-0.308849,-5.364624,-5.562776,0.821371,1.147334,15.454463,-0.048993,0.046688,0.053949,0.000000,-0.545306,0.532410,0.000000
3.770000,2.663943,0.215298,-1.600095,1.302730,0.137464,0.242470,-0.600025,0.418605,-0.300642,-5.348346,-5.405545,0.815372,2.139431,15.951062,-0.971659,0.041306,0.059276,0.000000,-0.530765,0.531441,0.000000
3.780000,2.676941,0.216694,-1.597685,1.296463,0.141380,0.239505,-0.653402,0.365348,-0.292542,-5.321835,-5.243755,0.801938,3.157368,16.377352,-1.664590,0.036073,0.064587,0.000000,-0.515671,0.529355,0.000000
3.790000,2.689873,0.218126,-1.595305,1.289662,0.144771,0.236619,-0.706462,0.313729,-0.284604,-5.285199,-5.077997,0.782081,4.124802,16.759758,-2.389716,0.030993,0.069870,0.000000,-0.500073,0.526158,0.000000
3.800000,2.702734,0.219589,-1.592953,1.282333,0.147654,0.233813,-0.759106,0.263788,-0.276900,-5.239339,-4.908560,0.754143,5.030999,17.105963,-3.206833,0.026072,0.075115,0.000000,-0.484001,0.521912,-0.000000
3.810000,2.715519,0.221079,-1.590629,1.274480,0.150047,0.231081,-0.811248,0.215558,-0.269521,-5.184579,-4.735878,0.717944,5.925758,17.399480,-3.936300,0.021314,0.080312,0.000000,-0.467493,0.516636,0.000000
3.820000,2.728223,0.222590,-1.588331,1.266108,0.151966,0.228422,-0.862798,0.169070,-0.262541,-5.120824,-4.560570,0.675417,6.820906,17.629476,-4.432584,0.016722,0.085450,0.000000,-0.450604,0.510322,-0.000000
3.830000,2.740841,0.224118,-1.586060,1.257224,0.153428,0.225830,-0.913665,0.124347,-0.256012,-5.048161,-4.383289,0.629292,7.696712,17.802167,-4.750964,0.012302,0.090519,0.000000,-0.433399,0.502998,0.000000
3.840000,2.753368,0.225659,-1.583815,1.247835,0.154453,0.223302,-0.963761,0.081405,-0.249956,-4.966890,-4.204527,0.580398,8.538288,17.933989,-5.078387,0.008055,0.095510,0.000000,-0.415932,0.494699,0.000000
3.850000,2.765798,0.227207,-1.581594,1.237949,0.155056,0.220831,-1.013003,0.040256,-0.244404,-4.877395,-4.024609,0.527724,9.351289,18.032537,-5.448232,0.003984,0.100413,0.000000,-0.398246,0.485457,0.000000
3.860000,2.778127,0.228760,-1.579398,1.227575,0.155258,0.218414,-1.061309,0.000912,-0.239401,-4.779864,-3.843876,0.471434,10.142033,18.088670,-5.737450,0.000090,0.105219,0.000000,-0.380383,0.475290,0.000000
3.870000,2.790350,0.230312,-1.577226,1.216723,0.155075,0.216043,-1.108600,-0.036621,-0.234976,-4.674554,-3.662836,0.412975,10.892096,18.086522,-5.873697,-0.003624,0.109919,0.000000,-0.362401,0.464242,0.000000
3.880000,2.802461,0.231861,-1.575077,1.205403,0.154525,0.213714,-1.154800,-0.072344,-0.231142,-4.562022,-3.482146,0.353960,11.595014,18.030108,-5.900199,-0.007157,0.114504,0.000000,-0.344379,0.452392,0.000000
3.890000,2.814458,0.233403,-1.572952,1.193627,0.153628,0.211421,-1.199840,-0.106264,-0.227896,-4.442654,-3.302233,0.294971,12.273596,17.943937,-5.912126,-0.010511,0.118967,0.000000,-0.326372,0.439792,0.000000
3.900000,2.826334,0.234934,-1.570849,1.181406,0.152400,0.209156,-1.243653,-0.138389,-0.225242,-4.316550,-3.123267,0.235717,12.940544,17.834828,-5.920838,-0.013685,0.123300,0.000000,-0.308407,0.426460,0.000000
3.910000,2.838086,0.236451,-1.568769,1.168754,0.150860,0.206916,-1.286171,-0.168729,-0.223182,-4.183843,-2.945537,0.176555,13.577013,17.688653,-5.868710,-0.016679,0.127496,0.000000,-0.290527,0.412421,0.000000
3.920000,2.849709,0.237951,-1.566711,1.155683,0.149025,0.204693,-1.327330,-0.197300,-0.221711,-4.045010,-2.769494,0.118343,14.147253,17.495533,-5.739459,-0.019495,0.131549,0.000000,-0.272789,0.397743,0.000000
3.930000,2.861199,0.239431,-1.564675,1.142207,0.146914,0.202481,-1.367072,-0.224119,-0.220815,-3.900898,-2.595626,0.061766,14.652756,17.262139,-5.558524,-0.022135,0.135453,0.000000,-0.255252,0.382530,0.000000
3.940000,2.872553,0.240889,-1.562661,1.128341,0.144543,0.200276,-1.405348,-0.249212,-0.220476,-3.751955,-2.424251,0.007172,15.138867,17.004731,-5.351505,-0.024600,0.139202,0.000000,-0.237959,0.366841,-0.000000
3.950000,2.883766,0.242322,-1.560669,1.114100,0.141930,0.198072,-1.442111,-0.272604,-0.220672,-3.598121,-2.255531,-0.045265,15.624075,16.726654,-5.114095,-0.026894,0.142792,0.000000,-0.220937,0.350685,0.000000
3.960000,2.894835,0.243728,-1.558699,1.099499,0.139091,0.195863,-1.477310,-0.294323,-0.221381,-3.439473,-2.089718,-0.095110,16.075003,16.419993,-4.836937,-0.029019,0.146218,0.000000,-0.204219,0.334086,-0.000000
3.970000,2.905756,0.245104,-1.556752,1.084554,0.136043,0.193644,-1.510900,-0.314399,-0.222574,-3.276621,-1.927132,-0.142003,16.442498,16.083118,-4.544321,-0.030978,0.149476,0.000000,-0.187846,0.317119,0.000000
3.980000,2.916526,0.246449,-1.554827,1.069281,0.132803,0.191411,-1.542843,-0.332866,-0.224221,-3.110623,-1.768056,-0.185996,16.733804,15.721351,-4.247814,-0.032776,0.152563,0.000000,-0.171851,0.299896,0.000000
3.990000,2.927142,0.247760,-1.552924,1.053697,0.129386,0.189160,-1.573113,-0.349760,-0.226294,-2.941944,-1.612705,-0.226960,17.012772,15.340382,-3.921477,-0.034416,0.155477,0.000000,-0.156260,0.282475,0.000000
4.000000,2.937600,0.249037,-1.551043,1.037819,0.125808,0.186886,-1.601682,-0.365120,-0.228760,-2.770368,-1.461248,-0.264425,17.297021,14.940519,-3.549024,-0.035901,0.158216,0.000000,-0.141096,0.264847,-0.000000
4.010000,2.947898,0.250276,-1.549186,1.021664,0.122084,0.184585,-1.628520,-0.378985,-0.231582,-2.596004,-1.313894,-0.297940,17.542211,14.521285,-3.155883,-0.037238,0.160778,0.000000,-0.126383,0.247040,0.000000
4.020000,2.958033,0.251478,-1.547352,1.005249,0.118228,0.182254,-1.653602,-0.391398,-0.234719,-2.419524,-1.170822,-0.327543,17.706358,14.088613,-2.795417,-0.038429,0.163161,0.000000,-0.112142,0.229124,0.000000
4.030000,2.968003,0.252641,-1.545541,0.988592,0.114256,0.179890,-1.676910,-0.402401,-0.238133,-2.241877,-1.032122,-0.353848,17.802259,13.646122,-2.467896,-0.039481,0.165364,0.000000,-0.098379,0.211186,-0.000000
4.040000,2.977805,0.253763,-1.543754,0.971710,0.110180,0.177491,-1.698439,-0.412040,-0.241796,-2.063479,-0.897900,-0.376901,17.884437,13.189649,-2.109322,-0.040397,0.167388,0.000000,-0.085103,0.193269,-0.000000
4.050000,2.987437,0.254845,-1.541991,0.954623,0.106015,0.175054,-1.718180,-0.420359,-0.245671,-1.884188,-0.768329,-0.396035,17.966009,12.714561,-1.698353,-0.041183,0.169232,0.000000,-0.072335,0.175373,-0.000000
4.060000,2.996898,0.255884,-1.540253,0.937347,0.101773,0.172578,-1.736123,-0.427407,-0.249717,-1.704158,-0.643609,-0.410868,18.010568,12.227241,-1.284864,-0.041844,0.170898,0.000000,-0.060092,0.157522,-0.000000
4.070000,3.006184,0.256880,-1.538540,0.919900,0.097467,0.170060,-1.752263,-0.433231,-0.253889,-1.523977,-0.523784,-0.421732,17.988039,11.746556,-0.930612,-0.042385,0.172386,0.000000,-0.048377,0.139767,-0.000000
4.080000,3.015296,0.257833,-1.536852,0.902301,0.093108,0.167500,-1.766603,-0.437882,-0.258151,-1.344398,-0.408678,-0.429480,17.910376,11.274026,-0.626464,-0.042811,0.173696,0.000000,-0.037166,0.122168,-0.000000
4.090000,3.024230,0.258742,-1.535190,0.884568,0.088709,0.164897,-1.779151,-0.441405,-0.262478,-1.165769,-0.298304,-0.434261,17.817566,10.787988,-0.297217,-0.043128,0.174832,0.000000,-0.026455,0.104754,0.000000
4.100000,3.032987,0.259607,-1.533554,0.866718,0.084280,0.162250,-1.789918,-0.443848,-0.266837,-0.988046,-0.192918,-0.435425,17.717262,10.282405,0.078579,-0.043340,0.175793,0.000000,-0.016270,0.087529,-0.000000
4.110000,3.041565,0.260428,-1.531944,0.848770,0.079832,0.159560,-1.798912,-0.445263,-0.271187,-0.811424,-0.092656,-0.432690,17.584189,9.775071,0.445346,-0.043454,0.176584,0.000000,-0.006622,0.070516,-0.000000
4.120000,3.049962,0.261204,-1.530362,0.830740,0.075375,0.156827,-1.806146,-0.445701,-0.275490,-0.636362,0.002583,-0.426518,17.403885,9.285142,0.743328,-0.043473,0.177205,0.000000,0.002506,0.053747,0.000000
4.130000,3.058180,0.261935,-1.528808,0.812647,0.070918,0.154050,-1.811639,-0.445212,-0.279717,-0.463346,0.093047,-0.417823,17.186113,8.809999,0.985326,-0.043403,0.177660,0.000000,0.011145,0.037250,-0.000000
4.140000,3.066215,0.262622,-1.527281,0.794507,0.066471,0.151232,-1.815413,-0.443840,-0.283847,-0.292640,0.178783,-0.406811,16.951102,8.327956,1.245325,-0.043250,0.177951,0.000000,0.019304,0.021042,-0.000000
4.150000,3.074070,0.263265,-1.525783,0.776339,0.062041,0.148374,-1.817492,-0.441636,-0.287853,-0.124324,0.259606,-0.392917,16.701307,7.831866,1.542271,-0.043017,0.178081,0.000000,0.026967,0.005137,0.000000
4.160000,3.081742,0.263863,-1.524314,0.758158,0.057638,0.145475,-1.817900,-0.438648,-0.291705,0.041386,0.335421,-0.375966,16.425564,7.339025,1.823283,-0.042711,0.178054,0.000000,0.034127,-0.010447,0.000000
4.170000,3.089233,0.264417,-1.522874,0.739981,0.053268,0.142539,-1.816664,-0.434928,-0.295373,0.204187,0.406387,-0.356451,16.122335,6.872375,2.038119,-0.042335,0.177872,0.000000,0.040806,-0.025693,0.000000
4.180000,3.096542,0.264928,-1.521463,0.721824,0.048939,0.139568,-1.813816,-0.430521,-0.298834,0.363833,0.472868,-0.335203,15.797514,6.429393,2.200893,-0.041895,0.177540,0.000000,0.047044,-0.040597,-0.000000
4.190000,3.103669,0.265396,-1.520082,0.703704,0.044658,0.136563,-1.809388,-0.425470,-0.302077,0.520137,0.534975,-0.312433,15.455328,5.982377,2.374527,-0.041394,0.177060,0.000000,0.052857,-0.055151,0.000000
4.200000,3.110616,0.265822,-1.518732,0.685637,0.040430,0.133526,-1.803413,-0.419821,-0.305083,0.672939,0.592516,-0.287713,15.094760,5.522042,2.572514,-0.040837,0.176436,0.000000,0.058228,-0.069336,-0.000000
4.210000,3.117382,0.266205,-1.517412,0.667636,0.036261,0.130461,-1.795929,-0.413620,-0.307831,0.822032,0.645416,-0.260983,14.715609,5.069305,2.751282,-0.040229,0.175672,0.000000,0.063150,-0.083136,-0.000000
4.220000,3.123969,0.266547,-1.516123,0.649718,0.032157,0.127370,-1.786973,-0.406913,-0.310303,0.967251,0.693902,-0.232687,14.325263,4.650642,2.877040,-0.039574,0.174772,0.000000,0.067650,-0.096547,0.000000
4.230000,3.130376,0.266848,-1.514865,0.631897,0.028123,0.124255,-1.776584,-0.399742,-0.312485,1.108538,0.738428,-0.203442,13.926509,4.261427,2.962747,-0.038876,0.173739,0.000000,0.071776,-0.109579,-0.000000
4.240000,3.136607,0.267109,-1.513638,0.614186,0.024163,0.121120,-1.764802,-0.392144,-0.314371,1.245782,0.779131,-0.173432,13.512138,3.868707,3.051012,-0.038139,0.172578,0.000000,0.075543,-0.122228,0.000000
4.250000,3.142660,0.267331,-1.512442,0.596601,0.020280,0.117968,-1.751668,-0.384159,-0.315953,1.378780,0.815803,-0.142422,13.078155,3.466064,3.150080,-0.037365,0.171293,0.000000,0.078932,-0.134475,0.000000
4.260000,3.148539,0.267515,-1.511278,0.579153,0.016479,0.114801,-1.737226,-0.375828,-0.317220,1.507345,0.848452,-0.110431,12.632078,3.076989,3.231377,-0.036560,0.169887,0.000000,0.081944,-0.146306,0.000000
4.270000,3.154243,0.267661,-1.510146,0.561856,0.012764,0.111623,-1.721521,-0.367190,-0.318162,1.631422,0.877342,-0.077794,12.188511,2.717652,3.275207,-0.035727,0.168365,0.000000,0.084607,-0.157723,0.000000
4.280000,3.159776,0.267770,-1.509046,0.544722,0.009136,0.108438,-1.704598,-0.358281,-0.318776,1.751115,0.902805,-0.044927,11.747669,2.381661,3.290972,-0.034868,0.166730,0.000000,0.086954,-0.168747,0.000000
4.290000,3.165138,0.267844,-1.507977,0.527764,0.005598,0.105248,-1.686499,-0.349134,-0.319061,1.866375,0.924976,-0.011975,11.292801,2.049698,3.304162,-0.033987,0.164988,0.000000,0.089000,-0.179377,0.000000
4.300000,3.170331,0.267882,-1.506941,0.510992,0.002153,0.102057,-1.667270,-0.339782,-0.319015,1.976971,0.943799,0.021157,10.819058,1.716609,3.318631,-0.033088,0.163141,0.000000,0.090738,-0.189592,0.000000
4.310000,3.175357,0.267887,-1.505936,0.494419,-0.001198,0.098867,-1.646960,-0.330258,-0.318637,2.082757,0.959308,0.054398,10.340075,1.396096,3.318162,-0.032173,0.161193,0.000000,0.092172,-0.199380,0.000000
4.320000,3.180219,0.267858,-1.504963,0.478053,-0.004452,0.095684,-1.625615,-0.320596,-0.317927,2.183772,0.971721,0.087520,9.871134,1.103053,3.295290,-0.031244,0.159151,0.000000,0.093323,-0.208749,0.000000
4.330000,3.184919,0.267798,-1.504023,0.461906,-0.007610,0.092509,-1.603284,-0.310824,-0.316887,2.280179,0.981369,0.120303,9.409994,0.833978,3.256311,-0.030306,0.157016,0.000000,0.094223,-0.217720,0.000000
4.340000,3.189457,0.267706,-1.503113,0.445988,-0.010669,0.089346,-1.580012,-0.300968,-0.315521,2.371972,0.988400,0.152646,8.939097,0.569867,3.211491,-0.029360,0.154794,0.000000,0.094886,-0.226294,0.000000
4.350000,3.193838,0.267584,-1.502236,0.430306,-0.013629,0.086198,-1.555845,-0.291056,-0.313834,2.458961,0.992766,0.184533,8.453641,0.306134,3.160993,-0.028408,0.152488,0.000000,0.095305,-0.234453,0.000000
4.360000,3.198064,0.267433,-1.501389,0.414871,-0.016490,0.083069,-1.530833,-0.281113,-0.311831,2.541045,0.994523,0.215866,7.967303,0.055894,3.099292,-0.027454,0.150103,0.000000,0.095487,-0.242187,0.000000
4.370000,3.202136,0.267254,-1.500574,0.399690,-0.019251,0.079962,-1.505024,-0.271165,-0.309517,2.618307,0.993884,0.246519,7.495285,-0.169753,3.028522,-0.026499,0.147643,0.000000,0.095449,-0.249507,0.000000
4.380000,3.206057,0.267048,-1.499790,0.384770,-0.021913,0.076879,-1.478466,-0.261235,-0.306900,2.690951,0.991128,0.276436,7.035040,-0.374803,2.951971,-0.025545,0.145111,0.000000,0.095220,-0.256431,0.000000
4.390000,3.209831,0.266816,-1.499037,0.370120,-0.024476,0.073824,-1.451205,-0.251343,-0.303988,2.759008,0.986388,0.305559,6.568565,-0.573504,2.867761,-0.024594,0.142512,0.000000,0.094809,-0.262961,0.000000
4.400000,3.213460,0.266559,-1.498314,0.355746,-0.026940,0.070799,-1.423286,-0.241508,-0.300789,2.822322,0.979658,0.333792,6.091003,-0.768275,2.773759,-0.023649,0.139850,0.000000,0.094217,-0.269083,0.000000
4.410000,3.216946,0.266277,-1.497621,0.341654,-0.029306,0.067808,-1.394758,-0.231750,-0.297312,2.880828,0.971023,0.361034,5.615907,-0.949694,2.672714,-0.022710,0.137129,0.000000,0.093448,-0.274790,-0.000000
4.420000,3.220293,0.265973,-1.496957,0.327851,-0.031575,0.064853,-1.365670,-0.222087,-0.293568,2.934640,0.960664,0.387246,5.157717,-1.112591,2.572142,-0.021780,0.134353,0.000000,0.092521,-0.280090,0.000000
4.430000,3.223503,0.265646,-1.496324,0.314341,-0.033748,0.061937,-1.336066,-0.212536,-0.289567,2.983982,0.948771,0.412477,4.713503,-1.260126,2.472729,-0.020859,0.131526,0.000000,0.091452,-0.285003,-0.000000
4.440000,3.226580,0.265298,-1.495719,0.301130,-0.035826,0.059062,-1.305990,-0.203112,-0.285319,3.028910,0.935461,0.436701,4.265785,-1.399044,2.365806,-0.019950,0.128651,0.000000,0.090251,-0.289531,-0.000000
4.450000,3.229526,0.264929,-1.495142,0.288221,-0.037810,0.056230,-1.275487,-0.193827,-0.280833,3.069298,0.920790,0.459793,3.810547,-1.531045,2.247740,-0.019054,0.125734,0.000000,0.088922,-0.293661,0.000000
4.460000,3.232344,0.264542,-1.494594,0.275620,-0.039702,0.053445,-1.244604,-0.184696,-0.276123,3.105121,0.904840,0.481655,3.360572,-1.651960,2.125727,-0.018172,0.122777,0.000000,0.087472,-0.297390,-0.000000
4.470000,3.235038,0.264135,-1.494073,0.263329,-0.041504,0.050708,-1.213385,-0.175730,-0.271200,3.136510,0.887751,0.502307,2.927055,-1.757910,2.010923,-0.017305,0.119785,0.000000,0.085914,-0.300725,0.000000
4.480000,3.237611,0.263711,-1.493580,0.251352,-0.043217,0.048021,-1.181874,-0.166941,-0.266077,3.163662,0.869682,0.521874,2.506852,-1.850498,1.902391,-0.016454,0.116762,0.000000,0.084263,-0.303683,0.000000
4.490000,3.240065,0.263271,-1.493113,0.239692,-0.044843,0.045386,-1.150112,-0.158337,-0.260763,3.186647,0.850741,0.540355,2.086462,-1.935329,1.786568,-0.015620,0.113710,0.000000,0.082526,-0.306266,-0.000000
4.500000,3.242405,0.262815,-1.492672,0.228350,-0.046384,0.042806,-1.118141,-0.149926,-0.255270,3.205392,0.830976,0.557605,1.662502,-2.013423,1.659777,-0.014803,0.110635,0.000000,0.080709,-0.308465,0.000000
4.510000,3.244632,0.262343,-1.492257,0.217329,-0.047841,0.040281,-1.086004,-0.141717,-0.249611,3.219897,0.810472,0.573551,1.244717,-2.081504,1.532188,-0.014005,0.107540,0.000000,0.078818,-0.310279,0.000000
4.520000,3.246751,0.261858,-1.491867,0.206630,-0.049218,0.037814,-1.053743,-0.133717,-0.243799,3.230286,0.789346,0.588249,0.842644,-2.138382,1.414056,-0.013227,0.104429,0.000000,0.076865,-0.311716,0.000000
4.530000,3.248765,0.261359,-1.491501,0.196254,-0.050516,0.035405,-1.021398,-0.125930,-0.237846,3.236750,0.767705,0.601832,0.453804,-2.185607,1.303127,-0.012468,0.101305,0.000000,0.074858,-0.312788,0.000000
4.540000,3.250676,0.260847,-1.491159,0.186202,-0.051736,0.033057,-0.989008,-0.118363,-0.231762,3.239362,0.745633,0.614311,0.066362,-2.225254,1.186986,-0.011730,0.098173,0.000000,0.072806,-0.313501,-0.000000
4.550000,3.252489,0.260324,-1.490840,0.176474,-0.052883,0.030770,-0.956611,-0.111018,-0.225559,3.238077,0.723200,0.625571,-0.322467,-2.257483,1.062330,-0.011012,0.095035,0.000000,0.070714,-0.313847,-0.000000
4.560000,3.254206,0.259790,-1.490543,0.167070,-0.053957,0.028545,-0.924246,-0.103899,-0.219251,3.232913,0.700484,0.635558,-0.704384,-2.281513,0.938227,-0.010315,0.091896,0.000000,0.068590,-0.313826,0.000000
4.570000,3.255830,0.259245,-1.490269,0.157989,-0.054961,0.026385,-0.891953,-0.097008,-0.212848,3.223989,0.677569,0.644336,-1.072101,-2.298065,0.823924,-0.009640,0.088758,0.000000,0.066441,-0.313446,-0.000000
4.580000,3.257365,0.258691,-1.490015,0.149231,-0.055897,0.024288,-0.859767,-0.090347,-0.206364,3.211471,0.654523,0.652037,-1.427926,-2.307835,0.717321,-0.008987,0.085626,0.000000,0.064274,-0.312718,-0.000000
4.590000,3.258815,0.258127,-1.489783,0.140794,-0.056768,0.022257,-0.827723,-0.083917,-0.199808,3.195431,0.631413,0.658682,-1.781068,-2.310549,0.606935,-0.008355,0.082504,0.000000,0.062095,-0.311647,0.000000
4.600000,3.260181,0.257555,-1.489570,0.132676,-0.057575,0.020292,-0.795858,-0.077719,-0.193190,3.175849,0.608312,0.664175,-2.133337,-2.306788,0.489349,-0.007745,0.079393,0.000000,0.059911,-0.310228,0.000000
4.610000,3.261468,0.256976,-1.489377,0.124876,-0.058322,0.018394,-0.764206,-0.071751,-0.186524,3.152764,0.585277,0.668469,-2.478423,-2.297296,0.372773,-0.007157,0.076299,0.000000,0.057727,-0.308463,0.000000
4.620000,3.262679,0.256389,-1.489202,0.117392,-0.059010,0.016562,-0.732803,-0.066013,-0.179821,3.126281,0.562366,0.671631,-2.812063,-2.281423,0.266282,-0.006590,0.073224,0.000000,0.055549,-0.306360,-0.000000
4.630000,3.263816,0.255795,-1.489046,0.110220,-0.059642,0.014797,-0.701681,-0.060504,-0.173091,3.096523,0.539648,0.673795,-3.136217,-2.259395,0.167596,-0.006046,0.070172,0.000000,0.053384,-0.303926,0.000000
4.640000,3.264883,0.255196,-1.488906,0.103358,-0.060220,0.013100,-0.670872,-0.055220,-0.166345,3.063556,0.517178,0.674983,-3.456261,-2.232949,0.065144,-0.005523,0.067145,0.000000,0.051237,-0.301166,0.000000
4.650000,3.265883,0.254591,-1.488784,0.096803,-0.060747,0.011470,-0.640410,-0.050160,-0.159592,3.027397,0.494989,0.675098,-3.773544,-2.202092,-0.042685,-0.005021,0.064148,0.000000,0.049110,-0.298080,-0.000000
4.660000,3.266819,0.253981,-1.488677,0.090550,-0.061224,0.009908,-0.610324,-0.045321,-0.152843,2.988086,0.473136,0.674129,-4.084526,-2.166265,-0.148006,-0.004540,0.061184,0.000000,0.047011,-0.294669,0.000000
4.670000,3.267694,0.253366,-1.488586,0.084596,-0.061653,0.008413,-0.580648,-0.040698,-0.146109,2.945707,0.451664,0.672138,-4.385825,-2.127168,-0.247556,-0.004081,0.058255,0.000000,0.044943,-0.290940,-0.000000
4.680000,3.268511,0.252748,-1.488509,0.078937,-0.062038,0.006986,-0.551410,-0.036287,-0.139400,2.900369,0.430593,0.669178,-4.678620,-2.085534,-0.343824,-0.003642,0.055365,0.000000,0.042909,-0.286901,0.000000
4.690000,3.269273,0.252126,-1.488446,0.073568,-0.062379,0.005625,-0.522640,-0.032086,-0.132726,2.852134,0.409953,0.665261,-4.967493,-2.039750,-0.440664,-0.003223,0.052517,0.000000,0.040911,-0.282557,-0.000000
4.700000,3.269983,0.251500,-1.488396,0.068484,-0.062679,0.004331,-0.494368,-0.028088,-0.126095,2.801019,0.389797,0.660364,-5.253142,-1.989787,-0.539444,-0.002823,0.049714,0.000000,0.038955,-0.277908,0.000000
4.710000,3.270643,0.250872,-1.488359,0.063681,-0.062941,0.003104,-0.466620,-0.024290,-0.119518,2.747072,0.370158,0.654472,-5.532681,-1.937326,-0.637629,-0.002444,0.046959,0.000000,0.037045,-0.272956,0.000000
4.720000,3.271256,0.250242,-1.488334,0.059152,-0.063165,0.001941,-0.439426,-0.020685,-0.113006,2.690366,0.351051,0.647612,-5.805078,-1.883194,-0.731190,-0.002083,0.044255,0.000000,0.035182,-0.267708,0.000000
4.730000,3.271826,0.249609,-1.488320,0.054892,-0.063354,0.000843,-0.412813,-0.017269,-0.106566,2.630970,0.332494,0.639849,-6.071516,-1.827251,-0.820906,-0.001740,0.041605,0.000000,0.033369,-0.262170,0.000000
4.740000,3.272354,0.248974,-1.488317,0.050896,-0.063510,-0.000190,-0.386807,-0.014035,-0.100209,2.568935,0.314506,0.631194,-6.333470,-1.769271,-0.912302,-0.001415,0.039011,0.000000,0.031607,-0.256344,0.000000
4.750000,3.272844,0.248339,-1.488324,0.047156,-0.063635,-0.001161,-0.361434,-0.010979,-0.093942,2.504301,0.297108,0.621603,-6.590795,-1.709694,-1.006267,-0.001108,0.036478,0.000000,0.029899,-0.250235,-0.000000
4.760000,3.273297,0.247702,-1.488341,0.043667,-0.063730,-0.002069,-0.336721,-0.008093,-0.087777,2.437119,0.280312,0.611068,-6.842792,-1.649195,-1.099238,-0.000817,0.034007,0.000000,0.028247,-0.243846,-0.000000
4.770000,3.273717,0.247064,-1.488366,0.040422,-0.063797,-0.002916,-0.312692,-0.005372,-0.081721,2.367445,0.264124,0.599618,-7.090379,-1.587824,-1.189942,-0.000543,0.031601,0.000000,0.026651,-0.237183,-0.000000
4.780000,3.274106,0.246426,-1.488399,0.037413,-0.063837,-0.003703,-0.289372,-0.002811,-0.075784,2.295312,0.248556,0.587270,-7.334136,-1.525653,-1.279938,-0.000284,0.029263,0.000000,0.025113,-0.230247,0.000000
4.790000,3.274465,0.245787,-1.488440,0.034634,-0.063853,-0.004432,-0.266785,-0.000401,-0.069975,2.220762,0.233611,0.574019,-7.572981,-1.463455,-1.370912,-0.000041,0.026996,0.000000,0.023634,-0.223043,0.000000
4.800000,3.274798,0.245149,-1.488488,0.032078,-0.063846,-0.005103,-0.244957,0.001862,-0.064304,2.143852,0.219286,0.559851,-7.806156,-1.402507,-1.461596,0.000188,0.024802,0.000000,0.022213,-0.215575,0.000000
4.810000,3.275107,0.244510,-1.488542,0.029735,-0.063816,-0.005718,-0.223908,0.003984,-0.058778,2.064639,0.205561,0.544787,-8.034766,-1.342753,-1.551224,0.000404,0.022685,0.000000,0.020848,-0.207850,0.000000
4.820000,3.275393,0.243872,-1.488602,0.027599,-0.063766,-0.006279,-0.203664,0.005973,-0.053408,1.983157,0.192431,0.528827,-8.261276,-1.281937,-1.643810,0.000605,0.020645,0.000000,0.019540,-0.199870,0.000000
4.830000,3.275659,0.243235,-1.488667,0.025662,-0.063696,-0.006786,-0.184245,0.007833,-0.048202,1.899413,0.179923,0.511911,-8.485575,-1.220438,-1.739941,0.000794,0.018687,0.000000,0.018292,-0.191636,0.000000
4.840000,3.275906,0.242598,-1.488738,0.023915,-0.063609,-0.007243,-0.165676,0.009571,-0.043170,1.813445,0.168023,0.494028,-8.704538,-1.162156,-1.834321,0.000971,0.016813,0.000000,0.017102,-0.183152,0.000000
4.850000,3.276137,0.241963,-1.488812,0.022348,-0.063505,-0.007650,-0.147976,0.011194,-0.038321,1.725323,0.156679,0.475224,-8.917971,-1.107774,-1.926488,0.001136,0.015024,0.000000,0.015965,-0.174425,0.000000
4.860000,3.276353,0.241328,-1.488891,0.020955,-0.063385,-0.008009,-0.131169,0.012705,-0.033665,1.635086,0.145867,0.455498,-9.128228,-1.055251,-2.020216,0.001291,0.013324,0.000000,0.014880,-0.165459,0.000000
4.870000,3.276556,0.240695,-1.488972,0.019725,-0.063251,-0.008323,-0.115275,0.014111,-0.029211,1.542758,0.135574,0.434820,-9.335618,-1.004750,-2.115903,0.001434,0.011715,0.000000,0.013844,-0.156258,-0.000000
4.880000,3.276748,0.240063,-1.489057,0.018650,-0.063103,-0.008593,-0.100314,0.015416,-0.024969,1.448374,0.125772,0.413180,-9.539444,-0.957483,-2.212349,0.001567,0.010199,0.000000,0.012856,-0.146824,0.000000
4.890000,3.276929,0.239433,-1.489144,0.017719,-0.062943,-0.008822,-0.086307,0.016626,-0.020948,1.351969,0.116425,0.390573,-9.739757,-0.913872,-2.309560,0.001691,0.008779,0.000000,0.011911,-0.137162,0.000000
4.900000,3.277102,0.238805,-1.489234,0.016923,-0.062771,-0.009012,-0.073275,0.017745,-0.017157,1.253578,0.107495,0.366989,-9.936771,-0.874176,-2.407795,0.001806,0.007456,0.000000,0.011007,-0.127277,0.000000
4.910000,3.277268,0.238178,-1.489324,0.016253,-0.062588,-0.009165,-0.061236,0.018776,-0.013608,1.153234,0.098941,0.342417,-10.130589,-0.838763,-2.507141,0.001911,0.006233,0.000000,0.010140,-0.117172,0.000000
4.920000,3.277427,0.237553,-1.489417,0.015699,-0.062395,-0.009284,-0.050210,0.019724,-0.010309,1.050967,0.090719,0.316846,-10.321309,-0.808007,-2.607675,0.002008,0.005113,0.000000,0.009304,-0.106852,0.000000
4.930000,3.277582,0.236930,-1.489510,0.015249,-0.062193,-0.009372,-0.040216,0.020591,-0.007271,0.946808,0.082781,0.290264,-10.509017,-0.782280,-2.709489,0.002097,0.004096,0.000000,0.008495,-0.096320,0.000000
4.940000,3.277732,0.236309,-1.489604,0.014894,-0.061983,-0.009430,-0.031274,0.021379,-0.004504,0.840786,0.075074,0.262656,-10.693824,-0.761953,-2.812661,0.002178,0.003186,0.000000,0.007708,-0.085581,-0.000000
4.950000,3.277880,0.235690,-1.489699,0.014624,-0.061766,-0.009462,-0.023401,0.022092,-0.002018,0.732931,0.067542,0.234011,-10.875845,-0.747401,-2.917265,0.002252,0.002385,0.000000,0.006938,-0.074640,0.000000
4.960000,3.278025,0.235074,-1.489793,0.014426,-0.061541,-0.009470,-0.016615,0.022730,0.000176,0.623269,0.060126,0.204311,-11.055150,-0.738996,-3.023392,0.002317,0.001694,0.000000,0.006178,-0.063500,0.000000
4.970000,3.278168,0.234459,-1.489888,0.014291,-0.061311,-0.009458,-0.010935,0.023295,0.002068,0.511828,0.052762,0.173543,-10.975168,-16.089048,-6.823901,0.002375,0.001115,0.000000,0.005422,-0.052165,0.000000
4.980000,3.278310,0.233847,-1.489983,0.014208,-0.061075,-0.009429,-0.006379,0.023785,0.003647,0.403766,-0.261655,0.067833,-12.986411,-31.825432,-11.562831,0.002426,0.000650,0.000000,-0.026665,-0.041169,-0.000000
4.990000,3.278452,0.233238,-1.490077,0.014164,-0.060835,-0.009385,-0.002860,0.018061,0.003425,0.252100,-0.583747,-0.057714,-12.571623,-16.672132,-8.051907,0.001842,0.000292,0.000000,-0.059537,-0.025709,0.000000
5.000000,3.278594,0.232631,-1.490170,0.014150,-0.060714,-0.009360,-0.001337,0.012111,0.002493,0.152334,-0.595098,-0.093205,-9.976631,-1.135119,-3.549107,0.001235,0.000136,0.000000,-0.060689,-0.015534,0.000000
