time,x,y,z,vx,vy,vz,ax,ay,az,jx,jy,jz,sx,sy,sz,roll,pitch,yaw,p,q,r
0.000000,-2.997670,-0.825994,-1.323714,-0.018934,-0.006285,0.012708,0.251546,0.092545,-0.292093,-2.980257,-0.652285,8.768408,109.697025,-7.772684,-195.162662,0.009158,-0.024895,0.000000,-0.056533,0.273220,0.000000
0.010000,-2.997847,-0.826052,-1.323600,-0.016550,-0.005394,0.010195,0.226999,0.085662,-0.213656,-1.951637,-0.721615,6.968660,96.217401,-6.116164,-165.321810,0.008544,-0.022642,0.000000,-0.065994,0.178861,0.000000
0.020000,-2.998002,-0.826102,-1.323508,-0.014362,-0.004574,0.008380,0.212083,0.078166,-0.151778,-1.052184,-0.775057,5.451550,83.855374,-4.594090,-138.607568,0.007845,-0.021286,0.000000,-0.073472,0.093926,0.000000
0.030000,-2.998135,-0.826144,-1.323431,-0.012280,-0.003832,0.007113,0.205561,0.070209,-0.103785,-0.270973,-0.813926,4.186638,72.560452,-3.200837,-114.854702,0.007080,-0.020732,0.000000,-0.079086,0.018568,0.000000
0.040000,-2.998248,-0.826179,-1.323364,-0.010227,-0.003171,0.006266,0.206304,0.061932,-0.067301,0.402414,-0.839484,3.145136,62.282105,-1.930791,-93.897957,0.006269,-0.020884,0.000000,-0.082980,-0.047370,0.000000
0.050000,-2.998339,-0.826208,-1.323304,-0.008134,-0.002594,0.005736,0.213283,0.053460,-0.040228,0.977893,-0.852934,2.299907,52.970204,-0.778320,-75.572289,0.005426,-0.021649,0.000000,-0.085313,-0.104281,0.000000
0.060000,-2.998410,-0.826231,-1.323249,-0.005943,-0.002102,0.005436,0.225567,0.044909,-0.020733,1.464871,-0.855424,1.625470,44.573880,0.262197,-59.712263,0.004567,-0.022941,0.000000,-0.086251,-0.152721,-0.000000
0.070000,-2.998458,-0.826250,-1.323195,-0.003607,-0.001696,0.005301,0.242315,0.036384,-0.007229,1.872255,-0.848045,1.097994,37.042825,1.196377,-46.152730,0.003705,-0.024678,0.000000,-0.085959,-0.193353,0.000000
0.080000,-2.998481,-0.826265,-1.323142,-0.001085,-0.001374,0.005276,0.262775,0.027978,0.001642,2.208444,-0.831832,0.695298,30.326642,2.029825,-34.728456,0.002851,-0.026785,0.000000,-0.084593,-0.226895,-0.000000
0.090000,-2.998479,-0.826278,-1.323089,0.001658,-0.001135,0.005322,0.286273,0.019774,0.007024,2.481336,-0.807765,0.396858,24.375045,2.768140,-25.274201,0.002016,-0.029194,0.000000,-0.082298,-0.254086,-0.000000
0.100000,-2.998447,-0.826288,-1.323036,0.004649,-0.000977,0.005408,0.312215,0.011846,0.009864,2.698313,-0.776765,0.183797,19.136360,3.417194,-17.624886,0.001208,-0.031847,0.000000,-0.079208,-0.275652,-0.000000
0.110000,-2.998385,-0.826298,-1.322981,0.007909,-0.000897,0.005514,0.340076,0.004259,0.010927,2.866271,-0.739700,0.038894,14.561574,3.982292,-11.615106,0.000434,-0.034691,0.000000,-0.075444,-0.292290,-0.000000
0.120000,-2.998288,-0.826306,-1.322925,0.011455,-0.000891,0.005623,0.369399,-0.002931,0.010817,2.991588,-0.697380,-0.053420,10.599688,4.469180,-7.079700,-0.000299,-0.037679,0.000000,-0.071112,-0.304651,0.000000
0.130000,-2.998155,-0.826316,-1.322869,0.015301,-0.000954,0.005727,0.399786,-0.009674,0.009988,3.080140,-0.650558,-0.107063,7.200260,4.883510,-3.853428,-0.000986,-0.040772,0.000000,-0.066305,-0.313332,0.000000
0.140000,-2.997981,-0.826326,-1.322811,0.019453,-0.001083,0.005821,0.430897,-0.015929,0.008763,3.137300,-0.599932,-0.134301,4.312912,5.230973,-1.771049,-0.001624,-0.043935,0.000000,-0.061106,-0.318873,0.000000
0.150000,-2.997765,-0.826337,-1.322752,0.023920,-0.001271,0.005902,0.462443,-0.021662,0.007354,3.167937,-0.546142,-0.145747,1.887371,5.517343,-0.667331,-0.002207,-0.047140,0.000000,-0.055585,-0.321753,0.000000
0.160000,-2.997502,-0.826351,-1.322693,0.028703,-0.001514,0.005968,0.494182,-0.026844,0.005871,3.176403,-0.489784,-0.150365,-0.128297,5.747025,-0.377440,-0.002735,-0.050363,0.000000,-0.049807,-0.322393,0.000000
0.170000,-2.997190,-0.826368,-1.322633,0.033804,-0.001806,0.006019,0.525910,-0.031451,0.004345,3.166568,-0.431374,-0.155459,-1.782774,5.927183,-0.735593,-0.003203,-0.053582,0.000000,-0.043823,-0.321157,-0.000000
0.180000,-2.996825,-0.826388,-1.322573,0.039221,-0.002141,0.006055,0.557463,-0.035466,0.002741,3.141781,-0.371389,-0.166687,-3.127268,6.062862,-1.576788,-0.003610,-0.056781,0.000000,-0.037681,-0.318356,0.000000
0.190000,-2.996404,-0.826411,-1.322512,0.044952,-0.002513,0.006074,0.588706,-0.038875,0.000977,3.104887,-0.310246,-0.188054,-4.212408,6.159671,-2.735787,-0.003956,-0.059945,0.000000,-0.031421,-0.314249,0.000000
0.200000,-2.995925,-0.826438,-1.322451,0.050993,-0.002917,0.006074,0.619529,-0.041668,-0.001062,3.058240,-0.248305,-0.221911,-5.087549,6.223308,-4.047389,-0.004239,-0.063062,0.000000,-0.025079,-0.309050,0.000000
0.210000,-2.995383,-0.826469,-1.322391,0.057340,-0.003345,0.006053,0.649671,-0.043820,-0.002741,2.964085,-0.181436,-0.094262,-6.586993,6.346987,-1.893028,-0.004456,-0.066110,0.000000,-0.018318,-0.300110,-0.000000
0.220000,-2.994777,-0.826505,-1.322330,0.063985,-0.003791,0.006016,0.679342,-0.045358,-0.005432,2.992578,-0.128803,-0.549213,5.388287,4.950913,-58.552342,-0.004610,-0.069101,0.000000,-0.012737,-0.299574,0.000000
0.230000,-2.994103,-0.826545,-1.322270,0.070928,-0.004250,0.005929,0.709158,-0.046357,-0.012233,2.926981,-0.066217,-0.623950,-18.704584,7.586577,44.568851,-0.004707,-0.072074,0.000000,-0.006326,-0.291884,0.000000
0.240000,-2.993357,-0.826590,-1.322212,0.078163,-0.004716,0.005783,0.737485,-0.046640,-0.016259,2.758835,0.007170,-0.275444,-7.921656,6.304448,-5.689176,-0.004733,-0.074912,0.000000,0.000959,-0.277094,0.000000
0.250000,-2.992538,-0.826639,-1.322155,0.085675,-0.005181,0.005603,0.764853,-0.046274,-0.020109,2.709552,0.066445,-0.475779,-8.881968,6.327883,-3.639136,-0.004693,-0.077651,0.000000,0.007065,-0.270233,0.000000
0.260000,-2.991643,-0.826694,-1.322100,0.093457,-0.005639,0.005378,0.791474,-0.045291,-0.025048,2.613486,0.130314,-0.512021,-9.404625,6.297235,-3.542767,-0.004590,-0.080302,0.000000,0.013542,-0.259857,0.000000
0.270000,-2.990668,-0.826752,-1.322047,0.101501,-0.006084,0.005101,0.817180,-0.043681,-0.030341,2.530134,0.190986,-0.546014,-8.136425,5.974948,-3.319113,-0.004424,-0.082854,0.000000,0.019679,-0.250779,0.000000
0.280000,-2.989612,-0.826815,-1.321998,0.109798,-0.006511,0.004770,0.842023,-0.041466,-0.035968,2.432448,0.252710,-0.579734,-11.415954,6.371020,-3.426343,-0.004196,-0.085312,0.000000,0.025906,-0.240256,-0.000000
0.290000,-2.988472,-0.826882,-1.321952,0.118338,-0.006912,0.004381,0.865773,-0.038622,-0.041935,2.319940,0.315492,-0.613243,-10.181911,6.040137,-3.210703,-0.003905,-0.087653,0.000000,0.032221,-0.228246,0.000000
0.300000,-2.987245,-0.826953,-1.321911,0.127110,-0.007281,0.003930,0.888484,-0.035171,-0.048224,2.221436,0.374662,-0.644492,-10.399238,5.932776,-3.103298,-0.003553,-0.089883,0.000000,0.038153,-0.217677,0.000000
0.310000,-2.985929,-0.827028,-1.321874,0.136104,-0.007613,0.003415,0.910163,-0.031130,-0.054827,2.113924,0.433421,-0.675897,-10.561648,5.799990,-3.010745,-0.003142,-0.092003,0.000000,0.044025,-0.206211,0.000000
0.320000,-2.984522,-0.827105,-1.321843,0.145310,-0.007902,0.002832,0.930801,-0.026509,-0.061726,2.015296,0.490441,-0.703184,-9.674782,5.618163,-2.607878,-0.002673,-0.094012,0.000000,0.049701,-0.195691,0.000000
0.330000,-2.983022,-0.827186,-1.321817,0.154717,-0.008141,0.002180,0.950442,-0.021325,-0.068895,1.909686,0.546083,-0.731439,-11.456525,5.508159,-3.048400,-0.002149,-0.095914,0.000000,0.055221,-0.184478,0.000000
0.340000,-2.981427,-0.827268,-1.321799,0.164315,-0.008327,0.001454,0.968967,-0.015592,-0.076360,1.796794,0.600210,-0.760896,-10.591744,5.297446,-2.680574,-0.001570,-0.097698,0.000000,0.060569,-0.172544,-0.000000
0.350000,-2.979735,-0.827352,-1.321789,0.174093,-0.008452,0.000652,0.986419,-0.009329,-0.084097,1.693517,0.652125,-0.786436,-10.580157,5.100180,-2.589659,-0.000938,-0.099369,0.000000,0.065675,-0.161633,-0.000000
0.360000,-2.977944,-0.827437,-1.321786,0.184040,-0.008511,-0.000229,1.002818,-0.002556,-0.092091,1.586070,0.701996,-0.812359,-10.544258,4.885449,-2.500111,-0.000257,-0.100929,0.000000,0.070558,-0.150325,-0.000000
0.370000,-2.976054,-0.827522,-1.321793,0.194145,-0.008501,-0.001191,1.018172,0.004705,-0.100333,1.486034,0.749914,-0.835567,-9.808145,4.682324,-2.233936,0.000472,-0.102379,0.000000,0.075227,-0.139810,-0.000000
0.380000,-2.974061,-0.827607,-1.321811,0.204400,-0.008416,-0.002237,1.032525,0.012433,-0.108804,1.382653,0.795315,-0.858976,-10.875263,4.395207,-2.450722,0.001247,-0.103724,0.000000,0.079627,-0.128984,0.000000
0.390000,-2.971965,-0.827690,-1.321839,0.214792,-0.008251,-0.003368,1.045810,0.020602,-0.117515,1.275664,0.838046,-0.882718,-10.166779,4.162534,-2.204779,0.002064,-0.104957,0.000000,0.083742,-0.117823,-0.000000
0.400000,-2.969765,-0.827771,-1.321878,0.225313,-0.008002,-0.004588,1.058070,0.029187,-0.126448,1.176381,0.878408,-0.903866,-10.038619,3.894296,-2.117099,0.002921,-0.106084,0.000000,0.087606,-0.107485,-0.000000
0.410000,-2.967458,-0.827850,-1.321931,0.235950,-0.007666,-0.005898,1.069329,0.038161,-0.135592,1.075469,0.915897,-0.924783,-9.899801,3.613755,-2.027464,0.003815,-0.107106,0.000000,0.091167,-0.097016,0.000000
0.420000,-2.965045,-0.827924,-1.321996,0.246696,-0.007238,-0.007300,1.079604,0.047496,-0.144938,0.980650,0.950757,-0.944056,-9.296545,3.344671,-1.864716,0.004743,-0.108027,0.000000,0.094453,-0.087198,0.000000
0.430000,-2.962524,-0.827994,-1.322077,0.257539,-0.006715,-0.008797,1.088936,0.057165,-0.154472,0.884653,0.982508,-0.962863,-9.908450,3.003516,-1.897620,0.005703,-0.108850,0.000000,0.097415,-0.077296,0.000000
0.440000,-2.959894,-0.828058,-1.322173,0.268471,-0.006094,-0.010390,1.097290,0.067135,-0.164194,0.787252,1.011032,-0.981242,-9.333823,2.711602,-1.739963,0.006690,-0.109572,0.000000,0.100045,-0.067290,0.000000
0.450000,-2.957155,-0.828116,-1.322285,0.279482,-0.005371,-0.012082,1.104706,0.077376,-0.174091,0.695991,1.036607,-0.997978,-9.153263,2.390229,-1.644643,0.007703,-0.110198,0.000000,0.102371,-0.057939,0.000000
0.460000,-2.954304,-0.828165,-1.322415,0.290562,-0.004545,-0.013873,1.111207,0.087856,-0.184151,0.604545,1.058854,-1.013920,-8.970291,2.060792,-1.544186,0.008737,-0.110731,0.000000,0.104357,-0.048607,-0.000000
0.470000,-2.951343,-0.828206,-1.322563,0.301703,-0.003613,-0.015765,1.116816,0.098543,-0.194366,0.518117,1.077826,-1.028862,-8.474703,1.729330,-1.442619,0.009789,-0.111173,0.000000,0.106010,-0.039811,-0.000000
0.480000,-2.948270,-0.828237,-1.322730,0.312896,-0.002574,-0.017760,1.121568,0.109401,-0.204725,0.431704,1.093353,-1.042739,-8.812420,1.374861,-1.332170,0.010856,-0.111527,0.000000,0.107315,-0.031055,0.000000
0.490000,-2.945085,-0.828257,-1.322918,0.324132,-0.001425,-0.019860,1.125448,0.120398,-0.215217,0.345111,1.105362,-1.055512,-8.344258,1.029070,-1.222812,0.011934,-0.111794,0.000000,0.108268,-0.022322,0.000000
0.500000,-2.941787,-0.828266,-1.323128,0.335402,-0.000166,-0.022065,1.128490,0.131497,-0.225831,0.263455,1.113890,-1.067170,-8.148214,0.672387,-1.107110,0.013020,-0.111976,0.000000,0.108872,-0.014115,-0.000000
0.510000,-2.938377,-0.828260,-1.323360,0.346699,0.001205,-0.024377,1.130718,0.142664,-0.236556,0.182410,1.118850,-1.077483,-7.953314,0.311538,-0.983359,0.014110,-0.112076,0.000000,0.109123,-0.006009,-0.000000
0.520000,-2.934853,-0.828241,-1.323616,0.358014,0.002688,-0.026797,1.132153,0.153861,-0.247379,0.105378,1.120038,-1.087085,-7.557440,-0.067550,-0.908152,0.015201,-0.112098,0.000000,0.109000,0.001668,-0.000000
0.530000,-2.931217,-0.828206,-1.323896,0.369339,0.004282,-0.029325,1.132827,0.165053,-0.258292,0.029071,1.117637,-1.095040,-7.707328,-0.413101,-0.680976,0.016289,-0.112043,0.000000,0.108526,0.009232,-0.000000
0.540000,-2.927467,-0.828155,-1.324203,0.380668,0.005989,-0.031963,1.132736,0.176202,-0.269274,-0.046663,1.111621,-1.101250,-7.334433,-0.797764,-0.588320,0.017371,-0.111913,0.000000,0.107700,0.016695,0.000000
0.550000,-2.923603,-0.828086,-1.324536,0.391992,0.007806,-0.034711,1.131909,0.187272,-0.280314,-0.118509,1.101736,-1.106544,-7.140611,-1.172592,-0.441348,0.018442,-0.111711,0.000000,0.106497,0.023744,0.000000
0.560000,-2.919627,-0.827999,-1.324897,0.403304,0.009734,-0.037569,1.130368,0.198225,-0.291398,-0.189337,1.088182,-1.109985,-6.950195,-1.548716,-0.285250,0.019499,-0.111439,0.000000,0.104942,0.030650,-0.000000
0.570000,-2.915537,-0.827891,-1.325288,0.414597,0.011770,-0.040539,1.128134,0.209022,-0.302512,-0.256828,1.070662,-1.112589,-6.621157,-1.945451,-0.196151,0.020539,-0.111099,0.000000,0.103004,0.037200,0.000000
0.580000,-2.911335,-0.827763,-1.325708,0.425864,0.013914,-0.043619,1.125234,0.219626,-0.313643,-0.323293,1.049481,-1.113081,-6.674379,-2.290482,0.100181,0.021558,-0.110695,0.000000,0.100719,0.043606,0.000000
0.590000,-2.907020,-0.827612,-1.326160,0.437099,0.016162,-0.046811,1.121671,0.230000,-0.324765,-0.388850,1.024649,-1.111337,-6.363762,-2.685990,0.211186,0.022553,-0.110227,0.000000,0.098090,0.049880,0.000000
0.600000,-2.902593,-0.827439,-1.326645,0.448295,0.018513,-0.050115,1.117469,0.240105,-0.335866,-0.451198,0.995849,-1.108505,-6.179484,-3.063890,0.394902,0.023519,-0.109698,0.000000,0.095085,0.055812,-0.000000
0.610000,-2.898054,-0.827242,-1.327163,0.459446,0.020963,-0.053529,1.112650,0.249905,-0.346928,-0.512327,0.963379,-1.103397,-5.997206,-3.440110,0.587737,0.024453,-0.109111,0.000000,0.091739,0.061584,0.000000
0.620000,-2.893404,-0.827020,-1.327716,0.470546,0.023510,-0.057053,1.107233,0.259360,-0.357931,-0.570685,0.926962,-1.097099,-5.723236,-3.833480,0.712184,0.025352,-0.108467,0.000000,0.088022,0.067059,0.000000
0.630000,-2.888644,-0.826771,-1.328305,0.481589,0.026149,-0.060687,1.101240,0.268432,-0.368861,-0.627813,0.886920,-1.088305,-5.703940,-4.174085,1.049012,0.026213,-0.107770,0.000000,0.083972,0.072373,0.000000
0.640000,-2.883773,-0.826496,-1.328930,0.492569,0.028877,-0.064430,1.094680,0.277086,-0.379688,-0.683787,0.843293,-1.076890,-5.442101,-4.560552,1.195653,0.027031,-0.107020,0.000000,0.079596,0.077536,-0.000000
0.650000,-2.878792,-0.826194,-1.329593,0.503481,0.031689,-0.068280,1.087575,0.285285,-0.390395,-0.737073,0.795800,-1.064032,-5.263967,-4.927438,1.416409,0.027803,-0.106220,0.000000,0.074863,0.082412,0.000000
0.660000,-2.873703,-0.825862,-1.330296,0.514319,0.034581,-0.072237,1.079943,0.292990,-0.400959,-0.788970,0.744752,-1.048533,-5.086320,-5.290150,1.645650,0.028527,-0.105371,0.000000,0.069808,0.087117,-0.000000
0.670000,-2.868506,-0.825502,-1.331039,0.525078,0.037547,-0.076299,1.071803,0.300167,-0.411361,-0.838532,0.689933,-1.031455,-4.854232,-5.664620,1.808826,0.029198,-0.104477,0.000000,0.064409,0.091572,0.000000
0.680000,-2.863202,-0.825111,-1.331822,0.535753,0.040582,-0.080464,1.063177,0.306778,-0.421579,-0.886647,0.631650,-1.011546,-4.769649,-5.990927,2.175083,0.029814,-0.103540,0.000000,0.058701,0.095853,0.000000
0.690000,-2.857791,-0.824690,-1.332648,0.546340,0.043681,-0.084730,1.054075,0.312789,-0.431581,-0.933350,0.569964,-0.988695,-4.542249,-6.353719,2.357967,0.030371,-0.102560,0.000000,0.052691,0.099964,0.000000
0.700000,-2.852276,-0.824237,-1.333517,0.556833,0.046836,-0.089095,1.044518,0.318165,-0.441347,-0.977732,0.504666,-0.964040,-4.362213,-6.696562,2.611325,0.030867,-0.101540,0.000000,0.046355,0.103830,0.000000
0.710000,-2.846655,-0.823753,-1.334430,0.567229,0.050042,-0.093556,1.034525,0.322871,-0.450852,-1.020516,0.436006,-0.936506,-4.180258,-7.033797,2.870161,0.031297,-0.100483,0.000000,0.039721,0.107513,0.000000
0.720000,-2.840931,-0.823236,-1.335389,0.577523,0.053291,-0.098111,1.024115,0.326874,-0.460071,-1.061202,0.364017,-0.906862,-3.970160,-7.363420,3.084851,0.031660,-0.099390,0.000000,0.032791,0.110975,0.000000
0.730000,-2.835105,-0.822687,-1.336393,0.587710,0.056577,-0.102756,1.013307,0.330140,-0.468979,-1.100195,0.288752,-0.874260,-3.828368,-7.688320,3.436897,0.031952,-0.098263,0.000000,0.025571,0.114249,0.000000
0.740000,-2.829177,-0.822105,-1.337444,0.597787,0.059891,-0.107489,1.002117,0.332638,-0.477546,-1.137485,0.210286,-0.838625,-3.615483,-8.003129,3.665209,0.032171,-0.097104,0.000000,0.018070,0.117335,0.000000
0.750000,-2.823150,-0.821489,-1.338543,0.607751,0.063227,-0.112306,0.990565,0.334336,-0.485745,-1.172613,0.128712,-0.800726,-3.422633,-8.310644,3.940608,0.032313,-0.095916,0.000000,0.010293,0.120200,0.000000
0.760000,-2.817023,-0.820840,-1.339690,0.617598,0.066575,-0.117203,0.978671,0.335202,-0.493550,-1.205852,0.044059,-0.759840,-3.224777,-8.610302,4.219335,0.032376,-0.094700,0.000000,0.002244,0.122864,0.000000
0.770000,-2.810798,-0.820158,-1.340887,0.627323,0.069928,-0.122176,0.966454,0.335208,-0.500934,-1.237097,-0.043389,-0.716492,-3.023099,-8.885498,4.467791,0.032357,-0.093458,0.000000,-0.006052,0.125325,0.000000
0.780000,-2.804477,-0.819442,-1.342134,0.636926,0.073277,-0.127220,0.953936,0.334324,-0.507870,-1.266291,-0.133785,-0.670120,-2.814955,-9.192339,4.807336,0.032254,-0.092193,0.000000,-0.014611,0.127575,0.000000
0.790000,-2.798060,-0.818692,-1.343432,0.646401,0.076612,-0.132331,0.941135,0.332522,-0.514326,-1.293384,-0.227041,-0.620685,-2.602901,-9.449090,5.062806,0.032064,-0.090906,0.000000,-0.023425,0.129611,-0.000000
0.800000,-2.791549,-0.817909,-1.344781,0.655747,0.079924,-0.137505,0.928075,0.329775,-0.520275,-1.318330,-0.322800,-0.568715,-2.384770,-9.708701,5.348387,0.031784,-0.089600,0.000000,-0.032465,0.131436,0.000000
0.810000,-2.784946,-0.817094,-1.346182,0.664962,0.083204,-0.142735,0.914776,0.326057,-0.525690,-1.341002,-0.421207,-0.513757,-2.159083,-9.957782,5.634261,0.031414,-0.088277,0.000000,-0.041745,0.133036,0.000000
0.820000,-2.778250,-0.816245,-1.347636,0.674042,0.086442,-0.148017,0.901262,0.321344,-0.530542,-1.361587,-0.521797,-0.456113,-1.946451,-10.170782,5.903166,0.030949,-0.086938,0.000000,-0.051224,0.134433,-0.000000
0.830000,-2.771465,-0.815365,-1.349143,0.682986,0.089627,-0.153344,0.887553,0.315613,-0.534802,-1.379692,-0.624843,-0.395513,-1.672999,-10.436717,6.216954,0.030388,-0.085587,0.000000,-0.060933,0.135590,0.000000
0.840000,-2.764591,-0.814453,-1.350703,0.691793,0.092750,-0.158711,0.873677,0.308839,-0.538442,-1.395229,-0.730235,-0.331954,-1.443444,-10.626643,6.485707,0.029729,-0.084226,0.000000,-0.070863,0.136499,0.000000
0.850000,-2.757630,-0.813510,-1.352317,0.700460,0.095801,-0.164111,0.859656,0.301003,-0.541433,-1.408446,-0.837438,-0.265730,-1.188253,-10.824330,6.767718,0.028970,-0.082857,0.000000,-0.080969,0.137191,0.000000
0.860000,-2.750582,-0.812537,-1.353985,0.708985,0.098767,-0.169537,0.845517,0.292084,-0.543747,-1.418830,-0.946715,-0.196695,-0.922202,-11.008608,7.045211,0.028109,-0.081482,0.000000,-0.091279,0.137614,0.000000
0.870000,-2.743451,-0.811535,-1.355708,0.717370,0.101639,-0.174983,0.831285,0.282064,-0.545357,-1.427206,-1.057366,-0.124793,-0.715858,-11.139269,7.329677,0.027144,-0.080104,0.000000,-0.101732,0.137851,0.000000
0.880000,-2.736236,-0.810505,-1.357485,0.725611,0.104404,-0.180442,0.816984,0.270930,-0.546234,-1.432367,-1.169870,-0.050217,-0.313829,-11.359477,7.584786,0.026074,-0.078725,0.000000,-0.112379,0.137788,-0.000000
0.890000,-2.728939,-0.809448,-1.359317,0.733709,0.107053,-0.185905,0.802650,0.258661,-0.546353,-1.434175,-1.284093,0.026989,-0.082259,-11.461936,7.860538,0.024896,-0.077348,0.000000,-0.123214,0.137412,0.000000
0.900000,-2.721562,-0.808364,-1.361203,0.741664,0.109574,-0.191366,0.788308,0.245245,-0.545685,-1.433674,-1.399225,0.106934,0.219817,-11.581732,8.122963,0.023609,-0.075977,0.000000,-0.134162,0.136826,0.000000
0.910000,-2.714106,-0.807257,-1.363144,0.749475,0.111954,-0.196816,0.773988,0.230672,-0.544205,-1.429705,-1.515670,0.189430,0.533580,-11.684379,8.380021,0.022212,-0.074612,0.000000,-0.145271,0.135919,0.000000
0.920000,-2.706573,-0.806126,-1.365139,0.757144,0.114183,-0.202248,0.759721,0.214930,-0.541888,-1.423357,-1.632668,0.274559,0.778360,-11.731199,8.640147,0.020704,-0.073258,0.000000,-0.156473,0.134796,0.000000
0.930000,-2.698964,-0.804973,-1.367189,0.764670,0.116249,-0.207651,0.745534,0.198015,-0.538706,-1.413251,-1.750633,0.362115,1.245556,-11.858965,8.869873,0.019083,-0.071917,0.000000,-0.167815,0.133326,0.000000
0.940000,-2.691280,-0.803801,-1.369292,0.772055,0.118140,-0.213019,0.731469,0.179915,-0.534638,-1.399237,-1.869391,0.452026,1.517894,-11.869725,9.115797,0.017347,-0.070592,0.000000,-0.179288,0.131495,-0.000000
0.950000,-2.683523,-0.802611,-1.371449,0.779300,0.119843,-0.218341,0.717557,0.160628,-0.529658,-1.382517,-1.988122,0.544369,1.868991,-11.892192,9.346640,0.015497,-0.069287,0.000000,-0.190819,0.129417,0.000000
0.960000,-2.675694,-0.801405,-1.373659,0.786407,0.121348,-0.223609,0.703833,0.140151,-0.523743,-1.361747,-2.107123,0.638925,2.232961,-11.892603,9.569123,0.013530,-0.068005,0.000000,-0.202445,0.126965,-0.000000
0.970000,-2.667795,-0.800185,-1.375921,0.793377,0.122642,-0.228813,0.690330,0.118486,-0.516871,-1.338319,-2.225790,0.735778,2.506160,-11.848217,9.794395,0.011448,-0.066749,0.000000,-0.214115,0.124269,0.000000
0.980000,-2.659827,-0.798953,-1.378235,0.800214,0.123714,-0.233943,0.677081,0.095636,-0.509021,-1.310505,-2.344246,0.834661,3.059568,-11.839332,9.980411,0.009248,-0.065521,0.000000,-0.225849,0.121165,0.000000
0.990000,-2.651791,-0.797712,-1.380600,0.806920,0.124551,-0.238990,0.664136,0.071603,-0.500172,-1.278148,-2.462265,0.935473,3.360983,-11.748885,10.186234,0.006930,-0.064327,0.000000,-0.237632,0.117634,0.000000
1.000000,-2.643689,-0.796463,-1.383014,0.813498,0.125142,-0.243943,0.651528,0.046395,-0.490304,-1.242814,-2.579231,1.038301,3.759515,-11.651888,10.372094,0.004495,-0.063169,0.000000,-0.249413,0.113825,0.000000
1.010000,-2.635522,-0.795210,-1.385478,0.819952,0.125475,-0.248792,0.639296,0.020022,-0.479400,-1.202812,-2.695156,1.142881,4.170565,-11.527945,10.547432,0.001942,-0.062052,0.000000,-0.261201,0.109574,0.000000
1.020000,-2.627291,-0.793954,-1.387990,0.826285,0.125539,-0.253527,0.627479,-0.007504,-0.467441,-1.160036,-2.809693,1.249263,4.455231,-11.375322,10.721899,-0.000729,-0.060978,0.000000,-0.272969,0.105059,0.000000
1.030000,-2.618997,-0.792700,-1.390548,0.832503,0.125321,-0.258138,0.616112,-0.036167,-0.454410,-1.112228,-2.922583,1.357172,5.109550,-11.197946,10.857899,-0.003517,-0.059952,0.000000,-0.284701,0.100060,-0.000000
1.040000,-2.610641,-0.791449,-1.393152,0.838609,0.124812,-0.262612,0.605253,-0.065949,-0.440293,-1.059229,-3.033541,1.466486,5.421093,-10.988049,11.008082,-0.006423,-0.058979,0.000000,-0.296375,0.094557,0.000000
1.050000,-2.602225,-0.790204,-1.395800,0.844610,0.123999,-0.266940,0.594937,-0.096830,-0.425075,-1.003184,-3.142249,1.577252,5.857534,-10.749250,11.137371,-0.009444,-0.058062,0.000000,-0.307967,0.088753,-0.000000
1.060000,-2.593749,-0.788970,-1.398490,0.850510,0.122872,-0.271110,0.585207,-0.128785,-0.408743,-0.942025,-3.248307,1.689255,6.301792,-10.477268,11.254833,-0.012582,-0.057206,0.000000,-0.319446,0.082442,0.000000
1.070000,-2.585215,-0.787748,-1.401222,0.856316,0.121420,-0.275111,0.576105,-0.161788,-0.391287,-0.877808,-3.351875,1.802245,6.613010,-10.211296,11.347078,-0.015833,-0.056414,0.000000,-0.330833,0.075820,-0.000000
1.080000,-2.576623,-0.786543,-1.403992,0.862034,0.119632,-0.278932,0.567669,-0.195811,-0.372695,-0.808266,-3.452013,1.916282,7.297952,-9.810381,11.458119,-0.019198,-0.055691,0.000000,-0.342043,0.068659,0.000000
1.090000,-2.567974,-0.785357,-1.406800,0.867672,0.117500,-0.282561,0.559959,-0.230816,-0.352958,-0.733279,-3.548367,2.031234,7.628130,-9.474542,11.523560,-0.022673,-0.055042,0.000000,-0.353045,0.060939,0.000000
1.100000,-2.559270,-0.784194,-1.409643,0.873236,0.115013,-0.285987,0.553013,-0.266767,-0.332068,-0.655097,-3.641223,2.146761,8.080029,-9.071158,11.585282,-0.026258,-0.054473,0.000000,-0.363873,0.052875,0.000000
1.110000,-2.550510,-0.783058,-1.412519,0.878735,0.112162,-0.289199,0.546875,-0.303625,-0.310020,-0.571705,-3.729530,2.262933,8.533956,-8.629244,11.632683,-0.029950,-0.053986,0.000000,-0.374428,0.044260,0.000000
1.120000,-2.541695,-0.781952,-1.415426,0.884176,0.108938,-0.292184,0.541589,-0.341346,-0.286810,-0.485014,-3.814104,2.379236,8.865997,-8.235985,11.638598,-0.033746,-0.053588,0.000000,-0.384791,0.035275,0.000000
1.130000,-2.532827,-0.780880,-1.418362,0.889569,0.105332,-0.294931,0.537192,-0.379888,-0.262434,-0.393089,-3.893214,2.495930,9.520344,-7.578624,11.697930,-0.037644,-0.053282,0.000000,-0.394797,0.025719,-0.000000
1.140000,-2.523904,-0.779846,-1.421324,0.894923,0.101337,-0.297428,0.533745,-0.419190,-0.236890,-0.295882,-3.966437,2.612869,9.857459,-7.103899,11.673453,-0.041641,-0.053075,0.000000,-0.404405,0.015576,0.000000
1.150000,-2.514928,-0.778855,-1.424309,0.900248,0.096946,-0.299665,0.531284,-0.459201,-0.210178,-0.195433,-4.034794,2.729451,10.294420,-6.517421,11.653905,-0.045731,-0.052972,0.000000,-0.413714,0.005042,0.000000
1.160000,-2.505899,-0.777909,-1.427316,0.905552,0.092151,-0.301628,0.529854,-0.499863,-0.182301,-0.089964,-4.096350,2.846022,10.727862,-5.885495,11.619723,-0.049913,-0.052977,0.000000,-0.422533,-0.006075,0.000000
1.170000,-2.496817,-0.777013,-1.430341,0.910848,0.086947,-0.303307,0.529494,-0.541115,-0.153262,0.018447,-4.153278,2.961438,11.020760,-5.398948,11.496607,-0.054181,-0.053095,0.000000,-0.431074,-0.017572,0.000000
1.180000,-2.487682,-0.776171,-1.433381,0.916146,0.081327,-0.304690,0.530240,-0.582901,-0.123072,0.131845,-4.202209,3.076652,11.658941,-4.377945,11.544061,-0.058532,-0.053331,0.000000,-0.439001,-0.029672,-0.000000
1.190000,-2.478494,-0.775388,-1.436434,0.921457,0.075287,-0.305764,0.532148,-0.625130,-0.091730,0.250205,-4.242633,3.191515,11.942177,-3.796318,11.388350,-0.062959,-0.053691,0.000000,-0.446259,-0.042384,0.000000
1.200000,-2.469253,-0.774667,-1.439495,0.926793,0.068823,-0.306520,0.535252,-0.667736,-0.059248,0.371224,-4.277195,3.304660,12.327550,-3.014325,11.273527,-0.067456,-0.054181,0.000000,-0.453100,-0.055484,0.000000
1.210000,-2.459958,-0.774013,-1.442563,0.932166,0.061931,-0.306946,0.539588,-0.710642,-0.025639,0.496672,-4.302593,3.416948,12.698496,-2.186958,11.139557,-0.072018,-0.054806,0.000000,-0.459191,-0.069167,-0.000000
1.220000,-2.450609,-0.773430,-1.445633,0.937589,0.054610,-0.307029,0.545192,-0.753770,0.009082,0.624568,-4.321994,3.527016,12.936862,-1.562525,10.908467,-0.076639,-0.055569,0.000000,-0.464834,-0.083240,0.000000
1.230000,-2.441206,-0.772922,-1.448702,0.943074,0.046856,-0.306760,0.552093,-0.797046,0.044897,0.756587,-4.331104,3.635840,13.465236,-0.249613,10.853476,-0.081312,-0.056477,0.000000,-0.469592,-0.097891,0.000000
1.240000,-2.431748,-0.772494,-1.451767,0.948635,0.038669,-0.306128,0.560338,-0.840355,0.081795,0.892597,-4.329388,3.743229,13.672903,0.472917,10.581418,-0.086028,-0.057536,0.000000,-0.473397,-0.113120,-0.000000
1.250000,-2.422233,-0.772150,-1.454824,0.954286,0.030049,-0.305121,0.569950,-0.883612,0.119751,1.030468,-4.320461,3.847714,13.957203,1.443889,10.349228,-0.090778,-0.058749,0.000000,-0.476591,-0.128716,-0.000000
1.260000,-2.412662,-0.771895,-1.457868,0.960039,0.020997,-0.303729,0.580957,-0.926724,0.158742,1.171372,-4.300165,3.950053,14.211810,2.459049,10.090176,-0.095556,-0.060122,0.000000,-0.478741,-0.144816,0.000000
1.270000,-2.403032,-0.771732,-1.460897,0.965909,0.011515,-0.301943,0.593385,-0.969594,0.198741,1.314544,-4.272658,4.049204,14.424345,3.204658,9.758487,-0.100351,-0.061660,0.000000,-0.480246,-0.161348,0.000000
1.280000,-2.393343,-0.771666,-1.463906,0.971911,0.001606,-0.299751,0.607256,-1.012135,0.239717,1.459898,-4.232671,4.145613,14.641405,4.802964,9.518978,-0.105157,-0.063367,0.000000,-0.480550,-0.178318,0.000000
1.290000,-2.383593,-0.771701,-1.466891,0.978059,-0.008726,-0.297145,0.622590,-1.054203,0.281644,1.607123,-4.179675,4.239014,14.790976,5.642585,9.132840,-0.109958,-0.065248,0.000000,-0.479574,-0.195707,0.000000
1.300000,-2.373781,-0.771842,-1.469847,0.984368,-0.019476,-0.294115,0.639402,-1.095703,0.324484,1.755660,-4.118379,4.328364,14.917077,6.779294,8.755065,-0.114745,-0.067306,0.000000,-0.477768,-0.213458,0.000000
1.310000,-2.363905,-0.772092,-1.472771,0.990852,-0.030638,-0.290653,0.657707,-1.136523,0.368198,1.905420,-4.043542,4.413863,15.007475,7.958478,8.343005,-0.119508,-0.069547,0.000000,-0.474566,-0.231576,0.000000
1.320000,-2.353964,-0.772456,-1.475659,0.997527,-0.042204,-0.286749,0.677511,-1.176554,0.412747,2.055485,-3.961280,4.495145,15.019067,8.724684,7.904196,-0.124235,-0.071972,0.000000,-0.470573,-0.249969,0.000000
1.330000,-2.343954,-0.772937,-1.478505,1.004408,-0.054166,-0.282395,0.698819,-1.215698,0.458086,2.206088,-3.864213,4.571758,15.094948,10.699154,7.412475,-0.128914,-0.074586,0.000000,-0.464985,-0.268666,-0.000000
1.340000,-2.333875,-0.773540,-1.481305,1.011509,-0.066514,-0.277584,0.721634,-1.253785,0.504165,2.356826,-3.751824,4.643347,15.024651,11.552595,6.902726,-0.133528,-0.077391,0.000000,-0.457706,-0.287628,-0.000000
1.350000,-2.323723,-0.774269,-1.484055,1.018845,-0.079238,-0.272309,0.745952,-1.290711,0.550935,2.506601,-3.631162,4.709657,14.942808,12.810427,6.349964,-0.138065,-0.080391,0.000000,-0.449440,-0.306741,0.000000
1.360000,-2.313497,-0.775126,-1.486750,1.026433,-0.092324,-0.266564,0.771759,-1.326356,0.598338,2.654594,-3.495606,4.769897,14.794811,14.090092,5.752973,-0.142511,-0.083585,0.000000,-0.439444,-0.325911,0.000000
1.370000,-2.303194,-0.776116,-1.489385,1.034286,-0.105760,-0.260341,0.799050,-1.360597,0.646317,2.803686,-3.351285,4.825152,14.872191,14.981684,5.231920,-0.146851,-0.086977,0.000000,-0.428341,-0.345456,-0.000000
1.380000,-2.292810,-0.777243,-1.491955,1.042419,-0.119531,-0.253636,0.827819,-1.393329,0.694816,2.948862,-3.191624,4.873155,14.149802,16.957460,4.360308,-0.151072,-0.090569,0.000000,-0.415367,-0.364817,-0.000000
1.390000,-2.282344,-0.778508,-1.494456,1.050847,-0.133621,-0.246443,0.858010,-1.424376,0.743754,3.089398,-3.016302,4.913427,14.092691,17.898866,3.747295,-0.155152,-0.094357,0.000000,-0.400433,-0.383899,-0.000000
1.400000,-2.271792,-0.779916,-1.496882,1.059584,-0.148013,-0.238759,0.889607,-1.453628,0.793065,3.229309,-2.831887,4.947454,13.736308,19.190923,2.991414,-0.159076,-0.098341,0.000000,-0.384220,-0.403142,0.000000
1.410000,-2.261152,-0.781469,-1.499229,1.068643,-0.162687,-0.230581,0.922564,-1.480958,0.842675,3.360900,-2.631668,4.973058,13.257896,20.501838,2.190249,-0.162829,-0.102520,0.000000,-0.365941,-0.421674,0.000000
1.420000,-2.250418,-0.783171,-1.501492,1.078039,-0.177625,-0.221905,0.956864,-1.506247,0.892504,3.500591,-2.425106,4.991742,14.006458,21.147238,1.473752,-0.166392,-0.106893,0.000000,-0.346569,-0.441285,0.000000
1.430000,-2.239590,-0.785023,-1.503666,1.087785,-0.192805,-0.212730,0.992526,-1.529401,0.942478,3.626895,-2.201658,5.001009,11.224994,23.549562,0.370435,-0.169752,-0.111464,0.000000,-0.324917,-0.459589,0.000000
1.440000,-2.228662,-0.787028,-1.505745,1.097894,-0.208205,-0.203055,1.029347,-1.550220,0.992491,3.738373,-1.961054,5.000339,11.733676,24.224467,-0.445296,-0.172882,-0.116213,0.000000,-0.300899,-0.476374,-0.000000
1.450000,-2.217630,-0.789187,-1.507725,1.108376,-0.223802,-0.192880,1.067325,-1.568608,1.042458,3.855709,-1.714357,4.991394,11.056584,25.450993,-1.417163,-0.175767,-0.121140,0.000000,-0.275669,-0.493912,0.000000
1.460000,-2.206493,-0.791504,-1.509601,1.119244,-0.239569,-0.182207,1.106442,-1.584443,1.092273,3.967220,-1.450199,4.969688,10.461700,26.695570,-2.477895,-0.178387,-0.126244,0.000000,-0.247875,-0.510829,0.000000
1.470000,-2.195244,-0.793979,-1.511368,1.130508,-0.255482,-0.171036,1.146586,-1.597626,1.141852,4.057636,-1.186827,4.945876,8.367665,26.628500,-2.731879,-0.180725,-0.131512,0.000000,-0.219743,-0.525535,-0.000000
1.480000,-2.183881,-0.796614,-1.513020,1.142178,-0.271513,-0.159371,1.187608,-1.608110,1.191133,4.150245,-0.903993,4.905664,10.169568,29.949362,-5.330873,-0.182771,-0.136929,0.000000,-0.188666,-0.540372,0.000000
1.490000,-2.172399,-0.799410,-1.514553,1.154264,-0.287634,-0.147215,1.229606,-1.615635,1.239904,4.245607,-0.601354,4.848044,8.133205,29.903231,-5.754613,-0.184487,-0.142504,0.000000,-0.154515,-0.555345,0.000000
1.500000,-2.160795,-0.802367,-1.515963,1.166773,-0.303815,-0.134574,1.272434,-1.620154,1.288089,4.319204,-0.300528,4.786679,7.335716,30.911357,-6.968208,-0.185862,-0.148218,0.000000,-0.120028,-0.567869,0.000000
1.510000,-2.149062,-0.805486,-1.517243,1.179715,-0.320027,-0.121455,1.315948,-1.621613,1.335579,4.381081,0.009967,4.709025,6.296251,31.734352,-8.225228,-0.186881,-0.154054,0.000000,-0.083623,-0.578804,0.000000
1.520000,-2.137199,-0.808768,-1.518390,1.193094,-0.336237,-0.107866,1.360123,-1.619883,1.382255,4.456600,0.339024,4.625226,7.571695,33.517580,-8.871742,-0.187524,-0.160007,0.000000,-0.044400,-0.591151,0.000000
1.530000,-2.125199,-0.812211,-1.519399,1.206920,-0.352413,-0.093813,1.404986,-1.614834,1.428025,4.506582,0.668577,4.524521,2.378709,32.359626,-11.283784,-0.187767,-0.166076,0.000000,-0.004284,-0.600227,-0.000000
1.540000,-2.113059,-0.815816,-1.520265,1.221195,-0.368523,-0.079309,1.450153,-1.606520,1.472684,4.528870,0.996886,4.406200,3.311800,33.834179,-12.048273,-0.187608,-0.172212,0.000000,0.036512,-0.605660,0.000000
1.550000,-2.100774,-0.819581,-1.520984,1.235924,-0.384532,-0.064364,1.495621,-1.594837,1.516130,4.562168,1.340237,4.280646,2.106490,34.269808,-13.400344,-0.187027,-0.178411,0.000000,0.079758,-0.612019,0.000000
1.560000,-2.088339,-0.823506,-1.521551,1.251108,-0.400408,-0.048991,1.541310,-1.579727,1.558236,4.573026,1.682009,4.137964,0.860914,34.571370,-14.784744,-0.186011,-0.184658,0.000000,0.123629,-0.615214,0.000000
1.570000,-2.075750,-0.827589,-1.521962,1.266750,-0.416115,-0.033204,1.587105,-1.561148,1.598872,4.586671,2.035927,3.988171,1.088729,35.701397,-15.517761,-0.184547,-0.190933,0.000000,0.169560,-0.618294,0.000000
1.580000,-2.063002,-0.831827,-1.522214,1.282851,-0.431619,-0.017018,1.632964,-1.539027,1.637937,4.578455,2.385327,3.820399,-2.757937,34.142763,-18.047616,-0.182619,-0.197225,0.000000,0.215732,-0.618122,0.000000
1.590000,-2.050091,-0.836220,-1.522301,1.299409,-0.446885,-0.000451,1.678591,-1.513466,1.675216,4.547200,2.728295,3.634160,-2.709418,34.925078,-18.853203,-0.180233,-0.203491,0.000000,0.261854,-0.614456,0.000000
1.600000,-2.037013,-0.840764,-1.522222,1.316422,-0.461877,0.016480,1.723928,-1.484426,1.710601,4.517627,3.079194,3.440422,-3.985256,34.738941,-20.237716,-0.177377,-0.209717,0.000000,0.309417,-0.610363,0.000000
1.610000,-2.023761,-0.845457,-1.521971,1.333886,-0.476562,0.033754,1.768915,-1.451911,1.743966,4.478687,3.423149,3.230145,-5.059383,34.410597,-21.609187,-0.174046,-0.215887,0.000000,0.356758,-0.604297,-0.000000
1.620000,-2.010333,-0.850294,-1.521545,1.351798,-0.490904,0.051352,1.813364,-1.415945,1.775175,4.404910,3.770463,3.010200,-8.471002,34.660485,-22.575445,-0.170239,-0.221969,0.000000,0.404749,-0.593407,0.000000
1.630000,-1.996724,-0.855273,-1.520943,1.370151,-0.504869,0.069250,1.857035,-1.376536,1.804116,4.334992,4.108151,2.774533,-5.470881,32.842691,-24.559144,-0.165953,-0.227928,0.000000,0.452067,-0.582005,-0.000000
1.640000,-1.982929,-0.860390,-1.520159,1.388937,-0.518423,0.087426,1.900092,-1.333824,1.830612,4.270848,4.434333,2.523170,-8.587438,32.743713,-25.505721,-0.161201,-0.233771,0.000000,0.498382,-0.570280,0.000000
1.650000,-1.968944,-0.865640,-1.519193,1.408150,-0.531534,0.105854,1.942321,-1.287847,1.854553,4.173802,4.759395,2.262842,-9.587880,31.873747,-26.753422,-0.155986,-0.239465,0.000000,0.544514,-0.553865,0.000000
1.660000,-1.954765,-0.871019,-1.518042,1.427780,-0.544170,0.124508,1.983555,-1.238705,1.875833,4.071121,5.066443,1.991535,-10.670746,30.751513,-27.897103,-0.150319,-0.244980,0.000000,0.588498,-0.535878,0.000000
1.670000,-1.940387,-0.876522,-1.516702,1.447817,-0.556298,0.143361,2.023730,-1.186457,1.894314,3.962996,5.385369,1.701419,-11.214017,31.809493,-29.731348,-0.144208,-0.250299,0.000000,0.633922,-0.516102,0.000000
1.680000,-1.925807,-0.882144,-1.515174,1.468251,-0.567888,0.162385,2.062768,-1.131098,1.909844,3.841389,5.676957,1.405197,-13.109811,26.448916,-29.490856,-0.137654,-0.255403,0.000000,0.675709,-0.493969,0.000000
1.690000,-1.911021,-0.887878,-1.513454,1.489068,-0.578911,0.181548,2.100511,-1.073028,1.922405,3.706279,5.938239,1.104007,-13.638358,27.000182,-31.125719,-0.130709,-0.260265,0.000000,0.713354,-0.469536,0.000000
1.700000,-1.896024,-0.893720,-1.511542,1.510256,-0.589340,0.200822,2.136883,-1.012289,1.931862,3.566485,6.206250,0.786213,-14.579911,25.372455,-32.033496,-0.123383,-0.264869,0.000000,0.751409,-0.443499,-0.000000
1.710000,-1.880814,-0.899663,-1.509438,1.531801,-0.599149,0.220175,2.171806,-0.949006,1.938114,3.416770,6.447123,0.462842,-15.449389,23.615306,-32.869273,-0.115695,-0.269197,0.000000,0.785483,-0.415623,0.000000
1.720000,-1.865387,-0.905701,-1.507139,1.553687,-0.608312,0.239574,2.205183,-0.883340,1.941073,3.256800,6.685861,0.126844,-16.445741,23.307610,-34.082749,-0.107674,-0.273231,0.000000,0.818579,-0.385686,0.000000
1.730000,-1.849739,-0.911827,-1.504646,1.575899,-0.616808,0.258985,2.236920,-0.815390,1.940638,3.089927,6.895990,-0.213619,-16.917298,18.677261,-33.989086,-0.099339,-0.276952,0.000000,0.847295,-0.354402,0.000000
1.740000,-1.833868,-0.918035,-1.501959,1.598420,-0.624614,0.278375,2.266961,-0.745528,1.936791,2.916804,7.075451,-0.557420,-17.789253,18.016497,-34.994526,-0.090745,-0.280350,0.000000,0.871287,-0.321954,0.000000
1.750000,-1.817770,-0.924317,-1.499079,1.621233,-0.631712,0.297709,2.295226,-0.673886,1.929452,2.735108,7.249129,-0.911212,-18.448759,15.894052,-35.512949,-0.081917,-0.283412,0.000000,0.893558,-0.287919,0.000000
1.760000,-1.801443,-0.930666,-1.496005,1.644319,-0.638086,0.316952,2.321657,-0.600636,1.918553,2.550573,7.397353,-1.269416,-18.993206,13.753027,-35.973730,-0.072888,-0.286126,0.000000,0.911618,-0.253232,0.000000
1.770000,-1.784883,-0.937076,-1.492740,1.667659,-0.643720,0.336068,2.346176,-0.526010,1.904061,2.350433,7.524111,-1.629100,-20.495519,11.576873,-36.082485,-0.063698,-0.288483,0.000000,0.925861,-0.216595,0.000000
1.780000,-1.768089,-0.943538,-1.489284,1.691235,-0.648603,0.355021,2.368675,-0.450228,1.885954,2.151979,7.628458,-1.993579,-19.168170,9.284516,-36.801115,-0.054384,-0.290468,0.000000,0.936225,-0.179997,0.000000
1.790000,-1.751057,-0.950045,-1.485640,1.715026,-0.652722,0.373775,2.389230,-0.373517,1.864175,1.956575,7.709922,-2.362059,-20.436217,7.015000,-36.741568,-0.044987,-0.292090,0.000000,0.942632,-0.143702,0.000000
1.800000,-1.733787,-0.956590,-1.481810,1.739013,-0.656071,0.392293,2.407754,-0.296106,1.838719,1.748003,7.768542,-2.729220,-20.735587,4.692262,-36.808769,-0.035545,-0.293340,0.000000,0.945057,-0.106115,0.000000
1.810000,-1.716277,-0.963164,-1.477795,1.763175,-0.658642,0.410537,2.424205,-0.218233,1.809601,1.542126,7.801944,-3.094005,-20.949002,2.312615,-36.696579,-0.026100,-0.294216,0.000000,0.943290,-0.069194,-0.000000
1.820000,-1.698523,-0.969760,-1.473600,1.787490,-0.660434,0.428472,2.438548,-0.140120,1.776799,1.324445,7.817768,-3.467998,-22.073060,0.533805,-37.533822,-0.016689,-0.294718,0.000000,0.938323,-0.030965,0.000000
1.830000,-1.680526,-0.976370,-1.469227,1.811938,-0.661445,0.446061,2.450713,-0.061972,1.740276,1.111446,7.805952,-3.832765,-20.501431,-2.906004,-35.383681,-0.007348,-0.294841,0.000000,0.928999,0.005960,-0.000000
1.840000,-1.662284,-0.982987,-1.464680,1.836498,-0.661675,0.463266,2.460801,0.015903,1.700185,0.904406,7.766109,-4.186419,-21.406244,-4.739407,-35.883362,0.001877,-0.294605,0.000000,0.915413,0.041314,0.000000
1.850000,-1.643796,-0.989601,-1.459963,1.861147,-0.661128,0.480052,2.468761,0.093297,1.656520,0.687823,7.708513,-4.545337,-21.394250,-7.094377,-35.328119,0.010951,-0.294011,0.000000,0.898901,0.077340,0.000000
1.860000,-1.625061,-0.996207,-1.455081,1.885866,-0.659811,0.496385,2.474567,0.169984,1.609334,0.473507,7.624886,-4.890230,-21.373068,-9.417925,-34.588927,0.019842,-0.293063,0.000000,0.878637,0.111981,-0.000000
1.870000,-1.606079,-1.002795,-1.450037,1.910631,-0.657732,0.512228,2.478239,0.245735,1.558664,0.261331,7.522205,-5.245553,-21.139081,-11.309824,-35.528650,0.028515,-0.291772,0.000000,0.855528,0.146027,0.000000
1.880000,-1.586848,-1.009359,-1.444838,1.935423,-0.654900,0.527546,2.479793,0.320344,1.504496,0.049099,7.394677,-5.580943,-21.302416,-14.191544,-31.502678,0.036941,-0.290146,0.000000,0.829126,0.178657,0.000000
1.890000,-1.567370,-1.015891,-1.439488,1.960220,-0.651330,0.542307,2.479222,0.393545,1.447127,-0.162847,7.242660,-5.894050,-20.993574,-15.996992,-32.039611,0.045087,-0.288202,0.000000,0.799712,0.209745,0.000000
1.900000,-1.547644,-1.022383,-1.433994,1.985001,-0.647035,0.556478,2.476549,0.465142,1.386578,-0.371358,7.073294,-6.213441,-20.786933,-18.063007,-30.887501,0.052928,-0.285950,0.000000,0.768127,0.239859,0.000000
1.910000,-1.527670,-1.028829,-1.428361,2.009744,-0.642033,0.570028,2.471805,0.534964,1.322925,-0.576913,6.888545,-6.514936,-20.511926,-19.907714,-29.670181,0.060445,-0.283404,0.000000,0.734863,0.268256,0.000000
1.920000,-1.507449,-1.035221,-1.422595,2.034430,-0.636342,0.582927,2.465005,0.602769,1.256299,-0.783257,6.665936,-6.809070,-20.561871,-23.589927,-28.876218,0.067610,-0.280578,0.000000,0.697513,0.295682,0.000000
1.930000,-1.486982,-1.041553,-1.416704,2.059037,-0.629985,0.595144,2.456160,0.668274,1.186801,-0.984068,6.438245,-7.086595,-19.588661,-21.897913,-26.606975,0.074395,-0.277483,0.000000,0.659979,0.321175,0.000000
1.940000,-1.466269,-1.047819,-1.410695,2.083547,-0.622984,0.606654,2.445345,0.731534,1.114628,-1.178738,6.208003,-7.346329,-19.530664,-25.146832,-25.595728,0.080811,-0.274143,0.000000,0.622652,0.344676,0.000000
1.950000,-1.445311,-1.054011,-1.404574,2.107938,-0.615363,0.617429,2.432583,0.792304,1.039903,-1.372963,5.944347,-7.595986,-19.119564,-26.550397,-24.056439,0.086836,-0.270570,0.000000,0.582222,0.367055,0.000000
1.960000,-1.424111,-1.060124,-1.398349,2.132192,-0.607147,0.627444,2.417905,0.850414,0.962774,-1.561919,5.675814,-7.827112,-18.691239,-27.815157,-22.435048,0.092457,-0.266781,0.000000,0.542015,0.387591,0.000000
1.970000,-1.402668,-1.066152,-1.392027,2.156290,-0.598364,0.636677,2.401357,0.905726,0.883394,-1.746934,5.382228,-8.047005,-18.284315,-30.219803,-21.267392,0.097668,-0.262790,0.000000,0.499889,0.406684,0.000000
1.980000,-1.380985,-1.072090,-1.385618,2.180213,-0.589042,0.645105,2.382983,0.958054,0.801903,-1.927041,5.085724,-8.246683,-17.733227,-29.037635,-18.651435,0.102458,-0.258614,0.000000,0.458419,0.424035,0.000000
1.990000,-1.359064,-1.077931,-1.379128,2.203944,-0.579212,0.652708,2.362834,1.007443,0.718533,-2.102016,4.788588,-8.425268,-17.282808,-31.032308,-17.327340,0.106841,-0.254270,0.000000,0.417905,0.439669,0.000000
2.000000,-1.336907,-1.083672,-1.372566,2.227464,-0.568904,0.659470,2.340957,1.053746,0.633436,-2.272448,4.471208,-8.590812,-16.777459,-31.756022,-15.506904,0.110811,-0.249774,0.000000,0.376263,0.453930,0.000000
2.010000,-1.314516,-1.089308,-1.365942,2.250757,-0.558148,0.665372,2.317399,1.096875,0.546787,-2.438439,4.153821,-8.735844,-16.277476,-32.310835,-13.652821,0.114370,-0.245141,0.000000,0.335753,0.466699,0.000000
2.020000,-1.291893,-1.094834,-1.359262,2.273806,-0.546977,0.670401,2.292217,1.136757,0.458769,-2.596663,3.819827,-8.865240,-15.503457,-33.868687,-12.069151,0.117523,-0.240385,0.000000,0.294626,0.477837,0.000000
2.030000,-1.269041,-1.100246,-1.352536,2.296596,-0.535424,0.674543,2.265476,1.173288,0.369552,-2.751371,3.489428,-8.973941,-15.441487,-32.168456,-9.663963,0.120269,-0.235522,0.000000,0.255063,0.487722,0.000000
2.040000,-1.245962,-1.105541,-1.345774,2.319111,-0.523522,0.677789,2.237200,1.206570,0.279361,-2.902698,3.164896,-9.061592,-14.684591,-33.315013,-8.020259,0.122631,-0.230563,0.000000,0.217276,0.496432,0.000000
2.050000,-1.222659,-1.110716,-1.338984,2.341335,-0.511304,0.680128,2.207451,1.236536,0.188372,-3.046234,2.828711,-9.133021,-14.160824,-33.298962,-6.111040,0.124613,-0.225523,0.000000,0.179423,0.503720,0.000000
2.060000,-1.199136,-1.115766,-1.332175,2.363255,-0.498802,0.681554,2.176287,1.263178,0.096762,-3.185704,2.500404,-9.185968,-13.638138,-33.094181,-4.242869,0.126226,-0.220414,0.000000,0.143488,0.509971,0.000000
2.070000,-1.175395,-1.120691,-1.325356,2.384856,-0.486051,0.682062,2.143762,1.286492,0.004734,-3.318116,2.160361,-9.215738,-12.937958,-34.160086,-1.943665,0.127481,-0.215247,0.000000,0.107552,0.514866,0.000000
2.080000,-1.151440,-1.125487,-1.318536,2.406126,-0.473084,0.681648,2.109938,1.306433,-0.087502,-3.446433,1.833015,-9.229728,-12.729046,-31.263731,-0.865155,0.128385,-0.210035,0.000000,0.073912,0.518924,0.000000
2.090000,-1.127274,-1.130152,-1.311726,2.427051,-0.459933,0.680311,2.074846,1.323208,-0.179812,-3.570829,1.520726,-9.228475,-12.057235,-31.911116,1.343268,0.128968,-0.204785,0.000000,0.042708,0.522225,0.000000
2.100000,-1.102900,-1.134685,-1.304933,2.447619,-0.446630,0.678052,2.038546,1.336812,-0.271993,-3.688399,1.201492,-9.204937,-11.552053,-31.178815,3.127114,0.129240,-0.199507,0.000000,0.011847,0.524417,0.000000
2.110000,-1.078323,-1.139084,-1.298168,2.467818,-0.433207,0.674873,2.001088,1.347293,-0.363866,-3.802320,0.896488,-9.166943,-11.068079,-30.314609,4.846304,0.129213,-0.194210,0.000000,-0.016777,0.526014,0.000000
2.120000,-1.053545,-1.143349,-1.291439,2.487637,-0.419695,0.670776,1.962529,1.354730,-0.455244,-3.908270,0.590872,-9.104643,-10.284344,-30.292538,7.236393,0.128906,-0.188902,0.000000,-0.044528,0.526486,-0.000000
2.130000,-1.028571,-1.147478,-1.284755,2.507065,-0.406123,0.665770,1.922931,1.359168,-0.545921,-4.011418,0.301442,-9.030140,-10.352221,-27.560202,7.644308,0.128331,-0.183593,0.000000,-0.070013,0.526595,-0.000000
2.140000,-1.003405,-1.151471,-1.278126,2.526092,-0.392521,0.659861,1.882307,1.360823,-0.635813,-4.112102,0.029951,-8.944442,-9.624514,-27.223406,9.860075,0.127514,-0.178284,0.000000,-0.093167,0.526416,0.000000
2.150000,-0.978051,-1.155328,-1.271561,2.544708,-0.378915,0.653057,1.840717,1.359769,-0.724728,-4.205328,-0.238443,-8.836296,-9.184622,-25.939787,11.386997,0.126470,-0.172982,0.000000,-0.115316,0.525348,-0.000000
2.160000,-0.952513,-1.159049,-1.265068,2.562903,-0.365334,0.645370,1.798208,1.356116,-0.812507,-4.295815,-0.489755,-8.717375,-8.764497,-24.570914,12.829502,0.125215,-0.167693,0.000000,-0.135358,0.524057,0.000000
2.170000,-0.926794,-1.162635,-1.258657,2.580669,-0.351801,0.636811,1.754826,1.349999,-0.898993,-4.379280,-0.732007,-8.575843,-8.076763,-23.612145,15.037276,0.123767,-0.162421,0.000000,-0.153971,0.522010,-0.000000
2.180000,-0.900901,-1.166086,-1.252335,2.597997,-0.338342,0.627395,1.710629,1.341537,-0.983999,-4.460462,-0.956415,-8.425857,-8.166651,-21.250171,14.935539,0.122142,-0.157172,0.000000,-0.170576,0.519888,-0.000000
2.190000,-0.874836,-1.169402,-1.246112,2.614879,-0.324978,0.617136,1.665623,1.330936,-1.067489,-4.539706,-1.161945,-8.268669,-7.537026,-20.102786,16.924171,0.120363,-0.151945,0.000000,-0.185163,0.517748,0.000000
2.200000,-0.848605,-1.172586,-1.239995,2.631307,-0.311730,0.606051,1.619859,1.318331,-1.149298,-4.612503,-1.356103,-8.091282,-7.171568,-18.464123,18.109754,0.118444,-0.146744,0.000000,-0.198337,0.515037,0.000000
2.210000,-0.822211,-1.175637,-1.233993,2.647274,-0.298617,0.594156,1.573379,1.303876,-1.229297,-4.682881,-1.532185,-7.907076,-6.820304,-16.789721,19.200190,0.116402,-0.141572,0.000000,-0.209695,0.512319,-0.000000
2.220000,-0.795661,-1.178558,-1.228114,2.662773,-0.285658,0.581471,1.526220,1.287741,-1.307365,-4.748162,-1.692177,-7.703092,-6.321795,-15.159744,21.118918,0.114255,-0.136430,0.000000,-0.219345,0.509214,-0.000000
2.230000,-0.768957,-1.181351,-1.222366,2.677796,-0.272867,0.568016,1.478423,1.270092,-1.383348,-4.811118,-1.834373,-7.494715,-6.274107,-13.273788,20.530432,0.112021,-0.131320,0.000000,-0.227345,0.506178,0.000000
2.240000,-0.742106,-1.184016,-1.216757,2.692339,-0.260260,0.553811,1.430004,1.251114,-1.457253,-4.871997,-1.958453,-7.283286,-5.819533,-11.582758,22.214311,0.109714,-0.126242,0.000000,-0.233727,0.503245,-0.000000
2.250000,-0.715112,-1.186557,-1.211293,2.706394,-0.247849,0.538878,1.381000,1.230979,-1.528948,-4.928272,-2.065615,-7.054653,-5.521257,-9.804642,23.031927,0.107351,-0.121196,0.000000,-0.238510,0.500051,0.000000
2.260000,-0.687980,-1.188974,-1.205981,2.719957,-0.235644,0.523240,1.331444,1.209858,-1.598341,-4.982564,-2.155709,-6.822867,-5.240727,-8.043135,23.762626,0.104948,-0.116182,0.000000,-0.241855,0.496989,-0.000000
2.270000,-0.660715,-1.191270,-1.200830,2.733022,-0.223654,0.506919,1.281366,1.187937,-1.665346,-5.032220,-2.224916,-6.575493,-4.787818,-5.965214,25.266471,0.102521,-0.111202,0.000000,-0.243364,0.493714,0.000000
2.280000,-0.633321,-1.193448,-1.195845,2.745583,-0.211887,0.489941,1.230804,1.165410,-1.729850,-5.080362,-2.278527,-6.326878,-4.845419,-4.764364,24.432728,0.100085,-0.106255,0.000000,-0.243653,0.490644,0.000000
2.290000,-0.605805,-1.195509,-1.191033,2.757636,-0.200348,0.472331,1.179762,1.142416,-1.791887,-5.127229,-2.316912,-6.078238,-4.433148,-2.749119,25.724671,0.097651,-0.101339,0.000000,-0.242787,0.487801,0.000000
2.300000,-0.578170,-1.197456,-1.186401,2.769177,-0.189040,0.454112,1.128275,1.119142,-1.851362,-5.169874,-2.335018,-5.816300,-4.193472,-1.043315,26.215721,0.095235,-0.096453,0.000000,-0.240255,0.484825,0.000000
2.310000,-0.550423,-1.199290,-1.181953,2.780200,-0.177965,0.435312,1.076375,1.095762,-1.908205,-5.209578,-2.338453,-5.551522,-3.935437,0.611582,26.686036,0.092850,-0.091598,0.000000,-0.236644,0.481919,0.000000
2.320000,-0.522568,-1.201016,-1.177696,2.790703,-0.167124,0.415957,1.024077,1.072449,-1.962382,-5.250328,-2.320513,-5.283163,-4.034678,2.715737,27.021291,0.090508,-0.086771,0.000000,-0.231396,0.479413,0.000000
2.330000,-0.494611,-1.202634,-1.173636,2.800680,-0.156515,0.396074,0.971385,1.049393,-2.013854,-5.286496,-2.289615,-5.010337,-3.194646,3.447952,27.537421,0.088225,-0.081971,0.000000,-0.225235,0.476825,-0.000000
2.340000,-0.466556,-1.204147,-1.169776,2.810129,-0.146135,0.375689,0.918364,1.026695,-2.062575,-5.317913,-2.246598,-4.733452,-3.273089,5.402215,27.788145,0.086006,-0.077198,0.000000,-0.218240,0.474148,0.000000
2.350000,-0.438410,-1.205557,-1.166123,2.819047,-0.135980,0.354831,0.865020,1.004531,-2.108516,-5.350433,-2.183935,-4.454341,-3.050015,6.864671,28.070993,0.083865,-0.072451,0.000000,-0.209803,0.471884,-0.000000
2.360000,-0.410177,-1.206867,-1.162681,2.827429,-0.126042,0.333528,0.811371,0.983053,-2.151640,-5.378865,-2.109495,-4.169709,-2.826701,8.252975,28.363874,0.081812,-0.067727,0.000000,-0.200565,0.469578,0.000000
2.370000,-0.381863,-1.208079,-1.159454,2.835273,-0.116316,0.311808,0.757434,0.962406,-2.191940,-5.408735,-2.016892,-3.891657,-2.965929,10.022191,27.710329,0.079858,-0.063026,0.000000,-0.190076,0.467754,0.000000
2.380000,-0.353473,-1.209194,-1.156446,2.842576,-0.106791,0.289699,0.703212,0.942747,-2.229443,-5.434378,-1.914199,-3.605758,-2.158808,10.496420,29.477694,0.078013,-0.058343,0.000000,-0.178909,0.465859,0.000000
2.390000,-0.325013,-1.210215,-1.153661,2.849337,-0.097457,0.267229,0.648763,0.924150,-2.264025,-5.455653,-1.802504,-3.311751,-2.283212,12.064712,28.842042,0.076282,-0.053680,0.000000,-0.167149,0.463892,0.000000
2.400000,-0.296488,-1.211144,-1.151103,2.855551,-0.088304,0.244428,0.594090,0.906753,-2.295711,-5.478517,-1.675185,-3.025016,-2.107593,13.149955,28.971855,0.074674,-0.049036,0.000000,-0.154342,0.462410,0.000000
2.410000,-0.267904,-1.211982,-1.148774,2.861217,-0.079318,0.221324,0.539134,0.890672,-2.324580,-5.514327,-1.539411,-2.750627,-2.264419,14.144024,28.721874,0.073196,-0.044400,0.000000,-0.141089,0.462346,0.000000
2.420000,-0.239266,-1.212731,-1.146677,2.866333,-0.070486,0.197946,0.484025,0.876009,-2.350503,-5.498130,-1.391211,-2.424714,2.795664,15.331828,33.719851,0.071856,-0.039782,0.000000,-0.126693,0.458154,0.000000
2.430000,-0.210579,-1.213392,-1.144816,2.870899,-0.061793,0.174325,0.429041,0.862869,-2.373211,-5.515258,-1.236211,-2.133753,-6.303459,15.647185,24.385743,0.070663,-0.035201,0.000000,-0.112098,0.457149,-0.000000
2.440000,-0.181850,-1.213967,-1.143192,2.874912,-0.053223,0.150490,0.373575,0.851302,-2.393329,-5.569326,-1.075604,-1.881619,-1.770431,16.606732,28.806102,0.069614,-0.030603,0.000000,-0.097393,0.459550,0.000000
2.450000,-0.153083,-1.214457,-1.141807,2.878369,-0.044761,0.126468,0.317867,0.841391,-2.410634,-5.573767,-0.905696,-1.581043,-1.836502,17.207593,28.558056,0.068718,-0.026005,0.000000,-0.081782,0.458066,0.000000
2.460000,-0.124284,-1.214862,-1.140663,2.881269,-0.036390,0.102287,0.262213,0.833180,-2.424912,-5.551917,-0.736298,-1.271661,-0.895708,17.604714,28.994646,0.067978,-0.021428,0.000000,-0.066270,0.454742,-0.000000
2.470000,-0.095459,-1.215185,-1.139761,2.883613,-0.028092,0.077979,0.206283,0.826754,-2.436403,-5.656970,-0.545217,-1.040877,-13.212769,19.670961,21.367037,0.067398,-0.016843,0.000000,-0.049499,0.462178,0.000000
2.480000,-0.066614,-1.215424,-1.139104,2.885392,-0.019848,0.053567,0.149427,0.822241,-2.445518,-5.671288,-0.362610,-0.756047,10.565491,16.803682,35.733793,0.066986,-0.012192,0.000000,-0.033195,0.462398,0.000000
2.490000,-0.037753,-1.215582,-1.138690,2.886604,-0.011641,0.029080,0.093247,0.819458,-2.451291,-5.585235,-0.190839,-0.411117,-0.322241,18.464054,29.013922,0.066732,-0.007605,0.000000,-0.017495,0.454732,0.000000
2.500000,-0.008884,-1.215657,-1.138522,2.887257,-0.003453,0.004551,0.037202,0.818499,-2.454060,-5.618708,-0.001590,-0.139731,0.561712,18.439458,29.490789,0.066640,-0.003033,0.000000,-0.000794,0.457158,-0.000000
2.510000,0.019990,-1.215651,-1.138599,2.887347,0.004735,-0.019991,-0.019129,0.819388,-2.453948,-5.652110,0.178920,0.163366,0.128685,18.298026,29.835802,0.066714,0.001560,0.000000,0.015363,0.459866,0.000000
2.520000,0.048861,-1.215563,-1.138922,2.886875,0.012941,-0.044518,-0.075256,0.822124,-2.450886,-5.548420,0.370038,0.445048,13.439330,19.276196,27.748640,0.066951,0.006138,0.000000,0.032282,0.451722,0.000000
2.530000,0.077725,-1.215392,-1.139489,2.885846,0.021184,-0.069000,-0.130448,0.826750,-2.444978,-5.533839,0.550833,0.744524,-10.753561,16.847167,32.179095,0.067356,0.010644,0.000000,0.048498,0.451129,0.000000
2.540000,0.106576,-1.215139,-1.140302,2.884263,0.029482,-0.093407,-0.186320,0.833095,-2.435922,-5.618721,0.719481,1.063136,1.003023,17.506710,30.269720,0.067918,0.015214,0.000000,0.063880,0.458978,0.000000
2.550000,0.135409,-1.214802,-1.141357,2.882119,0.037851,-0.117708,-0.242268,0.841174,-2.423808,-5.575223,0.895248,1.360451,0.488713,16.995521,30.441402,0.068637,0.019801,0.000000,0.079808,0.456667,-0.000000
2.560000,0.164217,-1.214381,-1.142655,2.879418,0.046311,-0.141874,-0.297976,0.850999,-2.408841,-5.565803,1.069615,1.628505,0.535810,16.583149,29.732582,0.069514,0.024382,0.000000,0.095550,0.457380,0.000000
2.570000,0.192995,-1.213876,-1.144194,2.876160,0.054877,-0.165875,-0.353652,0.862447,-2.390729,-5.572367,1.214850,2.015377,-1.008156,13.692536,41.253270,0.070541,0.028978,0.000000,0.109710,0.459978,0.000000
2.580000,0.221738,-1.213283,-1.145972,2.872345,0.063565,-0.189675,-0.409381,0.875335,-2.368856,-5.568305,1.369272,2.319470,1.852943,17.216291,19.359405,0.071710,0.033601,0.000000,0.124288,0.461899,0.000000
2.590000,0.250440,-1.212604,-1.147987,2.867973,0.072389,-0.213245,-0.464971,0.889876,-2.344697,-5.552085,1.533746,2.531525,0.554699,14.409141,29.489010,0.073029,0.038236,0.000000,0.139286,0.462837,-0.000000
2.600000,0.279096,-1.211835,-1.150236,2.863046,0.081367,-0.236560,-0.520485,0.905887,-2.317744,-5.549867,1.667808,2.854538,0.739868,13.638526,28.694314,0.074489,0.042891,0.000000,0.152614,0.465564,0.000000
2.610000,0.307699,-1.210976,-1.152717,2.857564,0.090511,-0.259589,-0.575793,0.923209,-2.287644,-5.507139,1.794263,3.168348,1.613717,12.589800,28.896347,0.076080,0.047560,0.000000,0.165457,0.465282,0.000000
2.620000,0.336245,-1.210024,-1.155427,2.851530,0.099835,-0.282303,-0.631101,0.941813,-2.254790,-5.574493,1.928064,3.384920,-9.062446,13.230646,19.441209,0.077799,0.052262,0.000000,0.178439,0.473984,0.000000
2.630000,0.364728,-1.208979,-1.158362,2.844940,0.109352,-0.304678,-0.686972,0.961687,-2.219705,-5.561978,2.039163,3.662631,11.756062,8.945427,36.259712,0.079644,0.057044,0.000000,0.190144,0.476665,0.000000
2.640000,0.393142,-1.207837,-1.161519,2.837794,0.119072,-0.326686,-0.741999,0.982506,-2.181270,-5.461074,2.125385,4.008569,2.349518,9.218186,27.859773,0.081597,0.061799,0.000000,0.200503,0.472712,0.000000
2.650000,0.421482,-1.206596,-1.164894,2.830101,0.129005,-0.348294,-0.796644,1.004224,-2.139927,-5.463475,2.215318,4.262862,3.219691,7.824145,28.050213,0.083654,0.066567,0.000000,0.210726,0.477176,-0.000000
2.660000,0.449742,-1.205256,-1.168484,2.821861,0.139159,-0.369475,-0.851284,1.026714,-2.095873,-5.468872,2.279573,4.548465,2.868351,6.270045,28.019109,0.085805,0.071380,0.000000,0.219240,0.482402,0.000000
2.670000,0.477918,-1.203812,-1.172282,2.813076,0.149542,-0.390202,-0.905451,1.049864,-2.049045,-5.340230,2.352019,4.813510,15.892917,6.990217,26.000977,0.088043,0.076203,0.000000,0.228579,0.476656,0.000000
2.680000,0.506002,-1.202264,-1.176286,2.803757,0.160159,-0.410447,-0.958426,1.073643,-1.999558,-5.297275,2.393600,5.089700,-7.523154,1.278039,29.261148,0.090368,0.080979,0.000000,0.235605,0.478411,0.000000
2.690000,0.533991,-1.200609,-1.180490,2.793906,0.171015,-0.430183,-1.011770,1.097616,-1.947202,-5.349903,2.402029,5.377987,4.025076,1.628638,27.359805,0.092746,0.085844,0.000000,0.240091,0.488652,0.000000
2.700000,0.561879,-1.198843,-1.184888,2.783522,0.182112,-0.449382,-1.064881,1.121722,-1.892086,-5.276442,2.415584,5.645395,3.663408,-0.149645,27.132802,0.095174,0.090749,0.000000,0.245131,0.488513,-0.000000
2.710000,0.589660,-1.196965,-1.189475,2.772610,0.193449,-0.468016,-1.117370,1.145853,-1.834357,-5.218623,2.408095,5.897570,4.183623,-1.831873,26.417351,0.097643,0.095665,0.000000,0.248459,0.489891,-0.000000
2.720000,0.617329,-1.194973,-1.194246,2.761176,0.205028,-0.486060,-1.169538,1.169788,-1.773906,-5.226915,2.374453,6.202260,-2.226967,-4.436138,31.472353,0.100137,0.100621,0.000000,0.250138,0.497675,-0.000000
2.730000,0.644881,-1.192864,-1.199195,2.749219,0.216844,-0.503484,-1.221722,1.193306,-1.710481,-5.187264,2.329056,6.463029,10.274196,-4.631567,20.573998,0.102642,0.105653,0.000000,0.250659,0.501436,-0.000000
2.740000,0.672312,-1.190636,-1.204314,2.736745,0.228892,-0.520263,-1.273077,1.216336,-1.644832,-5.094405,2.272383,6.674900,4.655484,-7.173441,24.852558,0.105146,0.110685,0.000000,0.249974,0.500505,-0.000000
2.750000,0.699615,-1.188286,-1.209598,2.723760,0.241168,-0.536373,-1.323879,1.238659,-1.576773,-5.063141,2.189546,6.933826,5.233386,-8.927250,23.866986,0.107635,0.115745,0.000000,0.247520,0.505631,0.000000
2.760000,0.726785,-1.185812,-1.215039,2.710268,0.253663,-0.551790,-1.374265,1.260071,-1.506229,-5.014057,2.089678,7.174175,5.489724,-10.744203,23.130128,0.110092,0.120850,0.000000,0.243538,0.509415,0.000000
2.770000,0.753818,-1.183212,-1.220631,2.696276,0.266366,-0.566490,-1.424078,1.280416,-1.433401,-4.944994,1.977460,7.386446,7.446325,-11.989931,20.344049,0.112502,0.125988,0.000000,0.238298,0.511510,0.000000
2.780000,0.780709,-1.180484,-1.226366,2.681789,0.279267,-0.580451,-1.473197,1.299546,-1.358480,-4.883532,1.843793,7.602482,4.820158,-14.749237,22.884495,0.114851,0.131149,0.000000,0.231237,0.514624,-0.000000
2.790000,0.807453,-1.177626,-1.232238,2.666814,0.292352,-0.593652,-1.521785,1.317218,-1.281328,-4.830800,1.688472,7.823064,6.614127,-16.015046,20.180273,0.117120,0.136354,0.000000,0.222297,0.518907,0.000000
2.800000,0.834044,-1.174636,-1.238237,2.651356,0.305606,-0.606071,-1.569733,1.333281,-1.202134,-4.758741,1.521092,8.014693,6.916151,-17.748782,19.171318,0.119293,0.141592,0.000000,0.211964,0.521477,0.000000
2.810000,0.860478,-1.171513,-1.244356,2.635422,0.319012,-0.617688,-1.616965,1.347576,-1.121064,-4.686929,1.335165,8.196866,7.302632,-19.423006,17.948340,0.121353,0.146859,0.000000,0.199779,0.524255,-0.000000
2.820000,0.886751,-1.168255,-1.250588,2.619019,0.332551,-0.628486,-1.663470,1.359929,-1.038181,-4.613988,1.132854,8.379837,7.429135,-21.036009,17.957995,0.123283,0.152156,0.000000,0.185989,0.527249,0.000000
2.830000,0.912857,-1.164862,-1.256923,2.602155,0.346203,-0.638446,-1.709224,1.370180,-0.953543,-4.535337,0.914514,8.541596,8.307535,-22.621824,14.361235,0.125067,0.157483,0.000000,0.170331,0.529744,0.000000
2.840000,0.938792,-1.161331,-1.263354,2.584837,0.359947,-0.647552,-1.754156,1.378168,-0.867431,-4.450655,0.680760,8.680517,8.488168,-24.111285,14.094665,0.126684,0.162832,0.000000,0.152767,0.531630,-0.000000
2.850000,0.964552,-1.157662,-1.269871,2.567074,0.373759,-0.655790,-1.798234,1.383746,-0.779927,-4.364318,0.432488,8.817470,8.923385,-25.535830,12.604834,0.128117,0.168202,0.000000,0.133540,0.533583,0.000000
2.860000,0.990132,-1.153856,-1.276467,2.548875,0.387613,-0.663146,-1.841421,1.386778,-0.691160,-4.272279,0.171705,8.933140,9.374107,-26.849903,11.038166,0.129349,0.173589,0.000000,0.112549,0.534916,0.000000
2.870000,1.015528,-1.149910,-1.283131,2.530249,0.401485,-0.669609,-1.883674,1.387118,-0.601275,-4.177830,-0.106448,9.042814,9.626606,-28.528755,10.383309,0.130360,0.178990,0.000000,0.089447,0.536136,0.000000
2.880000,1.040736,-1.145826,-1.289856,2.511205,0.415346,-0.675168,-1.924957,1.384621,-0.510382,-4.077421,-0.393581,9.130044,10.460422,-28.873437,7.038189,0.131132,0.184401,0.000000,0.064746,0.536614,0.000000
2.890000,1.065751,-1.141603,-1.296632,2.491753,0.429168,-0.679815,-1.965201,1.379223,-0.418757,-3.970790,-0.688349,9.193602,10.757382,-30.300614,6.173890,0.131650,0.189812,0.000000,0.038493,0.536234,0.000000
2.900000,1.090570,-1.137243,-1.303449,2.471905,0.442921,-0.683542,-2.004366,1.370803,-0.326528,-3.861305,-0.997194,9.249049,11.251020,-31.211293,4.401191,0.131895,0.195219,0.000000,0.010191,0.535539,-0.000000
2.910000,1.115188,-1.132745,-1.310299,2.451670,0.456574,-0.686344,-2.042404,1.359267,-0.233855,-3.745360,-1.310912,9.282308,11.765698,-31.967712,2.583277,0.131850,0.200613,0.000000,-0.019518,0.533887,0.000000
2.920000,1.139602,-1.128112,-1.317173,2.431061,0.470095,-0.688218,-2.079270,1.344524,-0.140915,-3.627572,-1.640314,9.303731,11.962360,-33.450386,1.365929,0.131496,0.205989,0.000000,-0.051622,0.531854,-0.000000
2.930000,1.163808,-1.123344,-1.324061,2.410089,0.483453,-0.689162,-2.114930,1.326462,-0.047858,-3.502537,-1.970230,9.302604,13.050901,-32.497230,-1.605946,0.130814,0.211339,0.000000,-0.084845,0.528663,-0.000000
2.940000,1.187802,-1.118443,-1.330953,2.388766,0.496614,-0.689175,-2.149294,1.305128,0.045057,-3.369962,-2.298735,9.278212,13.293944,-33.626323,-2.942468,0.129796,0.216649,0.000000,-0.119039,0.524184,0.000000
2.950000,1.211582,-1.113412,-1.337841,2.367107,0.509544,-0.688262,-2.182325,1.280442,0.137669,-3.235195,-2.638514,9.240866,13.830106,-33.862280,-4.860278,0.128425,0.221910,0.000000,-0.155384,0.519085,0.000000
2.960000,1.235143,-1.108253,-1.344715,2.345124,0.522211,-0.686424,-2.213973,1.252378,0.229797,-3.093463,-2.974123,9.181517,14.372902,-33.909985,-6.790416,0.126687,0.227112,0.000000,-0.192493,0.512642,-0.000000
2.970000,1.258483,-1.102969,-1.351566,2.322832,0.534581,-0.683668,-2.244187,1.220906,0.321253,-2.949061,-3.322438,9.107075,14.646616,-35.074595,-8.311380,0.124566,0.232243,0.000000,-0.232012,0.505357,0.000000
2.980000,1.281599,-1.097563,-1.358386,2.300246,0.546618,-0.680001,-2.272929,1.185965,0.411865,-2.797613,-3.661390,9.010824,15.646662,-32.670970,-10.944013,0.122046,0.237293,0.000000,-0.271821,0.496575,0.000000
2.990000,1.304487,-1.092038,-1.365163,2.277379,0.558289,-0.675434,-2.300115,1.147722,0.501394,-2.638963,-3.988606,8.892555,15.941497,-33.408327,-12.491523,0.119130,0.242243,0.000000,-0.311645,0.486182,0.000000
3.000000,1.327146,-1.086398,-1.371891,2.254249,0.569561,-0.669978,-2.325702,1.106156,0.589669,-2.477612,-4.323451,8.759231,16.467551,-32.877787,-14.384333,0.115805,0.247082,0.000000,-0.353396,0.474726,0.000000
3.010000,1.349572,-1.080648,-1.378560,2.230870,0.580401,-0.663646,-2.349644,1.061307,0.676510,-2.309951,-4.644741,8.605911,16.983665,-32.153540,-16.239753,0.112064,0.251796,0.000000,-0.394917,0.461647,-0.000000
3.020000,1.371762,-1.074792,-1.385161,2.207261,0.590777,-0.656453,-2.371891,1.013223,0.761729,-2.138709,-4.973377,8.434874,17.339360,-32.775540,-17.994896,0.107899,0.256369,0.000000,-0.438338,0.447207,-0.000000
3.030000,1.393716,-1.068834,-1.391686,2.183438,0.600655,-0.648417,-2.392399,0.961907,0.845146,-1.961601,-5.283521,8.245447,18.081795,-29.205305,-19.883750,0.103301,0.260787,0.000000,-0.480903,0.431084,0.000000
3.040000,1.415431,-1.062781,-1.398127,2.159419,0.610005,-0.639557,-2.411103,0.907629,0.926578,-1.778686,-5.572678,8.038050,18.420451,-29.384744,-21.552593,0.098286,0.265031,0.000000,-0.522224,0.413220,0.000000
3.050000,1.436904,-1.056636,-1.404475,2.135223,0.618798,-0.629893,-2.427963,0.850432,1.005853,-1.592599,-5.864123,7.814300,18.870396,-28.102557,-23.221100,0.092851,0.269087,0.000000,-0.564707,0.393873,0.000000
3.060000,1.458134,-1.050407,-1.410722,2.110866,0.627004,-0.619447,-2.442937,0.790427,1.082816,-1.401519,-6.134107,7.575820,19.296901,-26.651770,-24.786314,0.086998,0.272937,0.000000,-0.605674,0.372844,0.000000
3.070000,1.479121,-1.044098,-1.416861,2.086370,0.634597,-0.608245,-2.455983,0.727737,1.157293,-1.207157,-6.403904,7.315843,19.614114,-26.531311,-26.883333,0.080733,0.276566,0.000000,-0.647398,0.350059,-0.000000
3.080000,1.499861,-1.037717,-1.422885,2.061753,0.641550,-0.596310,-2.467066,0.662438,1.229099,-1.008428,-6.648469,7.044991,20.127908,-22.338810,-27.263757,0.074058,0.279956,0.000000,-0.686905,0.325676,-0.000000
3.090000,1.520355,-1.031269,-1.428785,2.037036,0.647838,-0.583672,-2.476138,0.594865,1.298163,-0.805578,-6.865595,6.764510,20.392954,-21.831244,-29.134093,0.067005,0.283092,0.000000,-0.723764,0.299733,0.000000
3.100000,1.540602,-1.024762,-1.434556,2.012237,0.653440,-0.570357,-2.483170,0.525128,1.364321,-0.600316,-7.078265,6.465287,20.696824,-19.925547,-30.379103,0.059582,0.285958,0.000000,-0.760470,0.272106,0.000000
3.110000,1.560600,-1.018203,-1.440190,1.987379,0.658334,-0.556395,-2.488134,0.453386,1.427451,-0.392126,-7.266685,6.159066,20.957509,-17.949047,-31.479379,0.051805,0.288540,0.000000,-0.794559,0.243096,0.000000
3.120000,1.580349,-1.011598,-1.445682,1.962482,0.662502,-0.541818,-2.491002,0.379845,1.487416,-0.181092,-7.438847,5.830226,21.220133,-16.269477,-33.660235,0.043696,0.290820,0.000000,-0.826852,0.212202,0.000000
3.130000,1.599850,-1.004955,-1.451024,1.937566,0.665926,-0.526658,-2.491750,0.304689,1.544052,0.031666,-7.587609,5.499044,21.323147,-13.463880,-32.540102,0.035277,0.292784,0.000000,-0.856245,0.180213,0.000000
3.140000,1.619101,-0.998282,-1.456213,1.912654,0.668591,-0.510948,-2.490365,0.228176,1.597401,0.245665,-7.711930,5.167395,21.491133,-11.590932,-34.389711,0.026582,0.294424,0.000000,-0.882464,0.147285,-0.000000
3.150000,1.638103,-0.991586,-1.461242,1.887766,0.670486,-0.494722,-2.486832,0.150509,1.647326,0.461134,-7.817501,4.816848,21.571989,-9.312108,-35.086015,0.017636,0.295726,0.000000,-0.906056,0.112799,0.000000
3.160000,1.656856,-0.984875,-1.466106,1.862924,0.671598,-0.478013,-2.481147,0.071929,1.693736,0.675606,-7.894099,4.464370,21.573611,-6.893404,-35.681644,0.008475,0.296679,0.000000,-0.925609,0.077651,0.000000
3.170000,1.675361,-0.978157,-1.470801,1.838150,0.671922,-0.460859,-2.473299,-0.007364,1.736572,0.894823,-7.963460,4.100908,22.008177,-6.104651,-36.710697,-0.000872,0.297273,0.000000,-0.943547,0.040934,0.000000
3.180000,1.693619,-0.971439,-1.475322,1.813466,0.671449,-0.443294,-2.463265,-0.087217,1.775753,1.110283,-7.997865,3.736440,21.066683,-0.745334,-36.155693,-0.010378,0.297497,0.000000,-0.956455,0.004015,0.000000
3.190000,1.711631,-0.964730,-1.479665,1.788892,0.670177,-0.425356,-2.451111,-0.167193,1.811304,1.321076,-7.995871,3.372468,21.337162,0.269542,-36.904383,-0.019983,0.297353,0.000000,-0.964020,-0.032865,0.000000
3.200000,1.729398,-0.958038,-1.483828,1.764451,0.668105,-0.407080,-2.436830,-0.247121,1.843173,1.534668,-7.985018,3.001138,21.117395,2.774028,-37.058724,-0.029653,0.296835,0.000000,-0.969414,-0.070755,0.000000
3.210000,1.746921,-0.951371,-1.487806,1.740162,0.665235,-0.388505,-2.420432,-0.326798,1.871348,1.744394,-7.946482,2.634330,20.850892,5.184821,-37.035229,-0.039356,0.295939,0.000000,-0.970336,-0.108392,0.000000
3.220000,1.764202,-0.944736,-1.491597,1.716049,0.661571,-0.369666,-2.401949,-0.405950,1.895801,1.951788,-7.879056,2.253894,20.585565,8.048944,-38.305112,-0.049044,0.294664,0.000000,-0.966486,-0.146498,-0.000000
3.230000,1.781242,-0.938142,-1.495198,1.692130,0.657119,-0.350601,-2.381410,-0.484311,1.916466,2.155228,-7.790797,1.883889,20.090985,9.588489,-35.655176,-0.058673,0.293008,0.000000,-0.958895,-0.183946,0.000000
3.240000,1.798045,-0.931596,-1.498608,1.668427,0.651888,-0.331348,-2.358860,-0.561700,1.933527,2.354045,-7.682447,1.526400,19.694231,12.322012,-36.560923,-0.068210,0.290981,0.000000,-0.947703,-0.220497,0.000000
3.250000,1.814612,-0.925107,-1.501825,1.644960,0.645889,-0.311943,-2.334343,-0.637864,1.946949,2.548620,-7.546664,1.159257,19.178109,14.575860,-36.117369,-0.077611,0.288587,0.000000,-0.931852,-0.256874,0.000000
3.260000,1.830945,-0.918681,-1.504847,1.621747,0.639136,-0.292421,-2.307922,-0.712583,1.956756,2.734155,-7.393884,0.803172,18.531316,16.696755,-35.568588,-0.086837,0.285834,0.000000,-0.912784,-0.291708,0.000000
3.270000,1.847047,-0.912327,-1.507673,1.598807,0.631643,-0.272820,-2.279632,-0.785613,1.962993,2.924675,-7.206281,0.443736,18.967165,20.103178,-35.832986,-0.095847,0.282728,0.000000,-0.888290,-0.327048,0.000000
3.280000,1.862922,-0.906051,-1.510303,1.576160,0.623430,-0.253174,-2.249481,-0.856675,1.965675,3.100796,-7.006952,0.096683,16.228170,19.725541,-33.548720,-0.104595,0.279271,0.000000,-0.861342,-0.360011,0.000000
3.290000,1.878572,-0.899860,-1.512736,1.553823,0.614516,-0.233517,-2.217674,-0.925725,1.964977,3.261074,-6.797776,-0.236479,16.418340,22.807479,-33.545362,-0.113067,0.275497,0.000000,-0.832287,-0.390310,-0.000000
3.300000,1.894000,-0.893763,-1.514973,1.531812,0.604923,-0.213885,-2.184240,-0.992513,1.960936,3.423869,-6.557204,-0.569934,15.531933,24.578000,-32.659820,-0.121224,0.271413,0.000000,-0.798495,-0.420507,-0.000000
3.310000,1.909209,-0.887764,-1.517014,1.510144,0.594674,-0.194310,-2.149257,-1.056829,1.953613,3.570886,-6.303205,-0.893398,14.552133,26.277678,-31.761928,-0.129030,0.267034,0.000000,-0.762317,-0.448060,0.000000
3.320000,1.924204,-0.881871,-1.518860,1.488832,0.583795,-0.174823,-2.112800,-1.118516,1.943120,3.721088,-6.031351,-1.202562,14.811178,28.001048,-30.312099,-0.136461,0.262378,0.000000,-0.723488,-0.475020,0.000000
3.330000,1.938987,-0.876090,-1.520511,1.467893,0.572313,-0.155457,-2.074901,-1.177409,1.929583,3.852910,-5.745111,-1.504720,11.525229,29.223638,-30.117250,-0.143492,0.257455,0.000000,-0.682357,-0.499058,0.000000
3.340000,1.953563,-0.870427,-1.521970,1.447338,0.560257,-0.136242,-2.035813,-1.233376,1.913048,3.964996,-5.445852,-1.799618,11.561343,30.678601,-28.598828,-0.150101,0.252304,0.000000,-0.639199,-0.519977,0.000000
3.350000,1.967935,-0.864887,-1.523237,1.427180,0.547656,-0.117206,-1.995586,-1.286278,1.893648,4.078285,-5.132615,-2.078678,10.418239,31.872321,-27.457547,-0.156270,0.246939,0.000000,-0.594276,-0.539967,0.000000
3.360000,1.982108,-0.859475,-1.524314,1.407430,0.534542,-0.098378,-1.954296,-1.336028,1.871517,4.177831,-4.816762,-2.345142,9.309910,32.762029,-26.208070,-0.161987,0.241380,0.000000,-0.548955,-0.557380,-0.000000
3.370000,1.996085,-0.854198,-1.525205,1.388097,0.520946,-0.079784,-1.912081,-1.382465,1.846757,4.262781,-4.464170,-2.606193,7.848239,36.288134,-25.625875,-0.167231,0.235652,0.000000,-0.499159,-0.572329,0.000000
3.380000,2.009871,-0.849058,-1.525911,1.369191,0.506905,-0.061451,-1.869071,-1.425356,1.819455,4.338339,-4.121802,-2.849778,7.266288,32.116046,-23.073670,-0.171976,0.229779,0.000000,-0.450857,-0.585104,0.000000
3.390000,2.023470,-0.844061,-1.526435,1.350718,0.492450,-0.043403,-1.825344,-1.464958,1.789825,4.404591,-3.793128,-3.075029,5.808999,35.052068,-22.344562,-0.176256,0.223782,0.000000,-0.404563,-0.595732,0.000000
3.400000,2.036887,-0.839210,-1.526780,1.332686,0.477617,-0.025662,-1.781031,-1.501091,1.757970,4.455962,-3.433623,-3.293416,4.636823,35.371856,-20.957282,-0.180053,0.217685,0.000000,-0.354871,-0.603912,-0.000000
3.410000,2.050126,-0.834510,-1.526949,1.315099,0.462440,-0.008251,-1.736250,-1.533681,1.724015,4.498603,-3.084876,-3.495175,3.493445,35.513571,-19.556348,-0.183362,0.211512,0.000000,-0.307001,-0.610146,0.000000
3.420000,2.063190,-0.829963,-1.526946,1.297962,0.446955,0.008812,-1.691130,-1.562692,1.688100,4.522171,-2.713142,-3.686019,1.605754,37.685874,-18.450930,-0.186183,0.205285,0.000000,-0.256918,-0.613434,0.000000
3.430000,2.076086,-0.825572,-1.526774,1.281277,0.431199,0.025505,-1.645827,-1.587999,1.650350,4.538821,-2.355218,-3.860816,1.736862,33.842481,-16.503273,-0.188509,0.199033,0.000000,-0.209161,-0.615119,0.000000
3.440000,2.088818,-0.821339,-1.526437,1.265046,0.415207,0.041813,-1.600371,-1.609860,1.610940,4.549121,-2.013951,-4.019324,-0.065153,35.526406,-15.360628,-0.190376,0.192766,0.000000,-0.164090,-0.615324,0.000000
3.450000,2.101389,-0.817268,-1.525939,1.249270,0.399013,0.057719,-1.554913,-1.628198,1.569997,4.540844,-1.654730,-4.166687,-1.200575,35.166716,-13.952780,-0.191783,0.186510,0.000000,-0.117589,-0.612819,0.000000
3.460000,2.113804,-0.813360,-1.525284,1.233947,0.382654,0.073208,-1.509606,-1.642991,1.527643,4.517945,-1.304509,-4.302183,-2.452939,34.777762,-12.628011,-0.192735,0.180289,0.000000,-0.072844,-0.608112,0.000000
3.470000,2.126069,-0.809615,-1.524477,1.219077,0.366165,0.088268,-1.464521,-1.654309,1.484040,4.500339,-0.960274,-4.414518,-1.961667,34.131801,-10.348627,-0.193247,0.174117,0.000000,-0.029852,-0.603318,0.000000
3.480000,2.138187,-0.806037,-1.523520,1.204656,0.349580,0.102886,-1.419682,-1.662211,1.439373,4.459961,-0.620532,-4.519862,-6.137561,33.803298,-10.740464,-0.193335,0.168004,0.000000,0.012013,-0.595624,0.000000
3.490000,2.150164,-0.802624,-1.522420,1.190681,0.332932,0.117052,-1.375408,-1.666737,1.393659,4.395827,-0.286120,-4.619189,-5.778352,32.984222,-8.619545,-0.193010,0.161989,0.000000,0.052666,-0.585001,0.000000
3.500000,2.162003,-0.799378,-1.521181,1.177146,0.316256,0.130756,-1.331733,-1.667964,1.347070,4.336833,0.039548,-4.696701,-6.915859,32.215443,-7.397857,-0.192289,0.156081,0.000000,0.091275,-0.574501,-0.000000
3.510000,2.173708,-0.796299,-1.519807,1.164044,0.299584,0.143990,-1.288711,-1.665969,1.299741,4.266296,0.358201,-4.767536,-7.873910,31.375954,-6.239675,-0.191189,0.150288,0.000000,0.128440,-0.562565,0.000000
3.520000,2.185285,-0.793386,-1.518303,1.151369,0.282947,0.156749,-1.246494,-1.660839,1.251801,4.173172,0.665658,-4.816694,-10.072183,30.226241,-4.118406,-0.189728,0.144632,0.000000,0.163423,-0.547755,0.000000
3.530000,2.196737,-0.790640,-1.516673,1.139111,0.266377,0.169025,-1.205246,-1.652681,1.203420,4.079102,0.965072,-4.860956,-8.711526,29.649390,-4.757249,-0.187926,0.139133,0.000000,0.196890,-0.532858,0.000000
3.540000,2.208068,-0.788058,-1.514924,1.127261,0.249903,0.180815,-1.164905,-1.641565,1.154591,3.985585,1.255955,-4.901461,-10.657966,28.393522,-2.825914,-0.185795,0.133783,0.000000,0.228831,-0.518068,0.000000
3.550000,2.219283,-0.785641,-1.513059,1.115810,0.233555,0.192116,-1.125613,-1.627608,1.105466,3.871898,1.533804,-4.922076,-11.395007,27.290229,-1.827689,-0.183357,0.128600,0.000000,0.258506,-0.500878,-0.000000
3.560000,2.230386,-0.783387,-1.511083,1.104745,0.217360,0.202924,-1.087445,-1.610933,1.056164,3.761398,1.799031,-4.936741,-11.969575,26.089247,-0.867391,-0.180632,0.123592,0.000000,0.286225,-0.484141,0.000000
3.570000,2.241380,-0.781293,-1.509002,1.094057,0.201345,0.213239,-1.050507,-1.591640,1.006782,3.620985,2.058588,-4.937313,-14.865174,25.483123,0.507426,-0.177636,0.118770,0.000000,0.312706,-0.464118,-0.000000
3.580000,2.252268,-0.779359,-1.506820,1.083730,0.185536,0.223060,-1.014984,-1.569819,0.957437,3.490281,2.301593,-4.931743,-11.227009,23.101852,0.591678,-0.174386,0.114156,0.000000,0.336857,-0.445339,0.000000
3.590000,2.263055,-0.777582,-1.504542,1.073753,0.169957,0.232388,-0.980651,-1.545669,0.908163,3.371607,2.527241,-4.920810,-13.747584,22.358459,1.827835,-0.170907,0.109720,0.000000,0.358657,-0.428050,0.000000
3.600000,2.273744,-0.775959,-1.502174,1.064113,0.154630,0.241224,-0.947663,-1.519291,0.859066,3.226126,2.745835,-4.897382,-14.094705,21.023037,2.611059,-0.167216,0.105480,0.000000,0.379215,-0.407943,0.000000
3.610000,2.284339,-0.774488,-1.499720,1.054795,0.139578,0.249570,-0.916128,-1.490794,0.810231,3.079822,2.951639,-4.868648,-14.538126,19.736939,3.341478,-0.163328,0.101445,0.000000,0.398027,-0.387972,0.000000
3.620000,2.294841,-0.773167,-1.497184,1.045785,0.124821,0.257430,-0.886030,-1.460334,0.761734,2.941233,3.136871,-4.828738,-13.772388,17.695096,4.426422,-0.159265,0.097611,0.000000,0.414187,-0.369005,0.000000
3.630000,2.305255,-0.771991,-1.494573,1.037070,0.110377,0.264806,-0.857343,-1.428082,0.713669,2.791923,3.313647,-4.784605,-16.099781,17.671730,4.386612,-0.155048,0.093974,0.000000,0.429199,-0.349126,-0.000000
3.640000,2.315584,-0.770958,-1.491890,1.028633,0.096265,0.271704,-0.830233,-1.394085,0.666052,2.631568,3.482481,-4.736963,-15.355927,15.705154,5.343673,-0.150684,0.090548,0.000000,0.443153,-0.328329,-0.000000
3.650000,2.325829,-0.770065,-1.489140,1.020460,0.082501,0.278129,-0.804673,-1.358507,0.618965,2.479824,3.631085,-4.679642,-15.589028,14.406189,5.905718,-0.146194,0.087327,0.000000,0.454653,-0.308666,-0.000000
3.660000,2.335994,-0.769307,-1.486329,1.012535,0.069099,0.284086,-0.780649,-1.321487,0.572472,2.324934,3.771133,-4.618128,-15.696810,13.142858,6.436190,-0.141594,0.084308,0.000000,0.465088,-0.288927,-0.000000
3.670000,2.346080,-0.768681,-1.483460,1.004842,0.056075,0.289581,-0.758202,-1.283164,0.526623,2.163134,3.889722,-4.550625,-16.346478,11.026855,7.013658,-0.136901,0.081492,0.000000,0.473107,-0.268700,-0.000000
3.680000,2.356091,-0.768184,-1.480539,0.997365,0.043440,0.294621,-0.737373,-1.243713,0.481473,2.004644,4.001161,-4.478913,-15.333598,11.277969,7.321192,-0.132135,0.078881,0.000000,0.480273,-0.249085,0.000000
3.690000,2.366028,-0.767811,-1.477569,0.990089,0.031205,0.299213,-0.718093,-1.203158,0.437057,1.850391,4.106251,-4.403423,-15.820048,9.289731,7.815735,-0.127298,0.076464,0.000000,0.486698,-0.230172,-0.000000
3.700000,2.375894,-0.767559,-1.474556,0.982998,0.019380,0.303364,-0.700387,-1.161664,0.393422,1.691045,4.190879,-4.323091,-15.731177,8.092162,8.199732,-0.122409,0.074241,0.000000,0.490932,-0.210962,-0.000000
3.710000,2.385689,-0.767422,-1.471503,0.976076,0.007974,0.307084,-0.684257,-1.119367,0.350607,1.535344,4.266454,-4.239348,-15.594741,6.903180,8.551773,-0.117482,0.072210,0.000000,0.494209,-0.192378,0.000000
3.720000,2.395416,-0.767398,-1.468415,0.969308,-0.003005,0.310379,-0.669691,-1.076384,0.308647,1.377519,4.327890,-4.152085,-15.775696,5.508584,8.887395,-0.112530,0.070367,0.000000,0.496031,-0.173807,-0.000000
3.730000,2.405076,-0.767481,-1.465297,0.962677,-0.013552,0.313260,-0.656691,-1.032842,0.267575,1.223906,4.379241,-4.061877,-14.934331,4.770154,9.148757,-0.107565,0.068710,0.000000,0.496846,-0.155904,0.000000
3.740000,2.414670,-0.767667,-1.462152,0.956169,-0.023660,0.315734,-0.645195,-0.988830,0.227418,1.075171,4.420964,-3.969042,-14.995609,3.458329,9.421822,-0.102596,0.067229,0.000000,0.496724,-0.138723,0.000000
3.750000,2.424199,-0.767953,-1.458984,0.949768,-0.033327,0.317811,-0.635194,-0.944469,0.188203,0.925721,4.449545,-3.873606,-14.699262,2.384169,9.652318,-0.097635,0.065920,0.000000,0.495329,-0.121673,0.000000
3.760000,2.433665,-0.768332,-1.455797,0.943460,-0.042549,0.319501,-0.626667,-0.899867,0.149953,0.780018,4.469185,-3.775909,-14.385900,1.357399,9.858759,-0.092692,0.064781,0.000000,0.493113,-0.105206,-0.000000
3.770000,2.443069,-0.768802,-1.452595,0.937230,-0.051324,0.320813,-0.619578,-0.855135,0.112689,0.638569,4.475041,-3.676738,-13.947129,0.006244,9.994464,-0.087777,0.063805,0.000000,0.489604,-0.089363,0.000000
3.780000,2.452410,-0.769357,-1.449382,0.931064,-0.059652,0.321758,-0.613886,-0.810390,0.076425,0.500161,4.473349,-3.575616,-13.731198,-0.332639,10.226694,-0.082902,0.062986,0.000000,0.485451,-0.074003,0.000000
3.790000,2.461690,-0.769994,-1.446161,0.924948,-0.067532,0.322345,-0.609564,-0.765689,0.041183,0.365017,4.464738,-3.472753,-13.244300,-1.571647,10.318613,-0.078070,0.062318,0.000000,0.480731,-0.059136,-0.000000
3.800000,2.470909,-0.770706,-1.442936,0.918868,-0.074966,0.322585,-0.606568,-0.721140,0.006972,0.234949,4.443645,-3.369117,-12.814045,-2.452808,10.427928,-0.073291,0.061797,0.000000,0.474897,-0.044939,-0.000000
3.810000,2.480068,-0.771491,-1.439710,0.912812,-0.081956,0.322488,-0.604852,-0.676838,-0.026195,0.109069,4.415526,-3.264212,-12.356996,-3.292679,10.517739,-0.068574,0.061415,0.000000,0.468509,-0.031303,-0.000000
3.820000,2.489166,-0.772344,-1.436487,0.906767,-0.088504,0.322065,-0.604371,-0.632868,-0.058312,-0.012107,4.376744,-3.159122,-11.875973,-4.332637,10.527868,-0.063924,0.061167,0.000000,0.461216,-0.018273,0.000000
3.830000,2.498203,-0.773260,-1.433270,0.900721,-0.094614,0.321326,-0.605078,-0.589323,-0.089374,-0.128407,4.331619,-3.053073,-11.380875,-4.681706,10.679656,-0.059351,0.061047,0.000000,0.453453,-0.005847,0.000000
3.840000,2.507180,-0.774235,-1.430062,0.894662,-0.100292,0.320281,-0.606922,-0.546254,-0.119370,-0.239643,4.280728,-2.946212,-10.862447,-5.615349,10.658438,-0.054856,0.061048,0.000000,0.445285,0.005967,-0.000000
3.850000,2.516096,-0.775265,-1.426865,0.888579,-0.105541,0.318942,-0.609853,-0.503742,-0.148300,-0.345619,4.220513,-2.839700,-10.330690,-6.295390,10.672432,-0.050448,0.061164,0.000000,0.436365,0.017157,0.000000
3.860000,2.524951,-0.776344,-1.423684,0.882461,-0.110369,0.317319,-0.613818,-0.461860,-0.176163,-0.446433,4.154879,-2.732794,-9.789535,-6.930637,10.671847,-0.046130,0.061390,0.000000,0.427081,0.027750,0.000000
3.870000,2.533745,-0.777470,-1.420520,0.876299,-0.114781,0.315422,-0.618760,-0.420673,-0.202959,-0.540998,4.081062,-2.626629,-9.160968,-7.723142,10.591715,-0.041908,0.061717,0.000000,0.417166,0.037642,0.000000
3.880000,2.542477,-0.778639,-1.417376,0.870083,-0.118785,0.313263,-0.624621,-0.380253,-0.228695,-0.630445,4.002711,-2.520312,-8.728256,-7.936999,10.670439,-0.037788,0.062141,0.000000,0.406979,0.046965,0.000000
3.890000,2.551147,-0.779845,-1.414255,0.863804,-0.122389,0.310852,-0.631352,-0.340632,-0.253365,-0.714741,3.920377,-2.413939,-8.090046,-8.626987,10.568484,-0.033769,0.062656,0.000000,0.396574,0.055724,-0.000000
3.900000,2.559753,-0.781085,-1.411160,0.857453,-0.125600,0.308199,-0.638893,-0.301870,-0.276978,-0.792562,3.831187,-2.308701,-7.512918,-9.100730,10.510241,-0.029858,0.063254,0.000000,0.385668,0.063791,0.000000
3.910000,2.568295,-0.782356,-1.408092,0.851023,-0.128429,0.305316,-0.647186,-0.264018,-0.299539,-0.865114,3.738507,-2.203735,-6.936273,-9.529541,10.441662,-0.026057,0.063930,0.000000,0.374590,0.071303,-0.000000
3.920000,2.576773,-0.783652,-1.405054,0.844507,-0.130884,0.302212,-0.656172,-0.227122,-0.321058,-0.930736,3.639807,-2.100275,-6.245419,-10.106676,10.287043,-0.022368,0.064678,0.000000,0.363090,0.078095,-0.000000
3.930000,2.585185,-0.784972,-1.402049,0.837898,-0.132975,0.298898,-0.665784,-0.191230,-0.341546,-0.991230,3.538545,-1.997220,-5.855238,-10.136316,10.323380,-0.018795,0.065491,0.000000,0.351503,0.084362,0.000000
3.940000,2.593531,-0.786311,-1.399077,0.831190,-0.134712,0.295384,-0.675980,-0.156357,-0.361004,-1.046675,3.435240,-1.894623,-5.175736,-10.616717,10.155253,-0.015338,0.066364,0.000000,0.339874,0.090119,0.000000
3.950000,2.601809,-0.787665,-1.396142,0.824377,-0.136106,0.291681,-0.686694,-0.122543,-0.379445,-1.095247,3.327171,-1.793821,-4.597041,-10.893243,10.042944,-0.011999,0.067291,0.000000,0.327934,0.095185,-0.000000
3.960000,2.610018,-0.789032,-1.393244,0.817454,-0.137166,0.287799,-0.697868,-0.089819,-0.396883,-1.138589,3.217259,-1.693920,-4.023492,-11.134070,9.920651,-0.008779,0.068266,0.000000,0.315963,0.099734,0.000000
3.970000,2.618157,-0.790407,-1.390386,0.810418,-0.137906,0.283747,-0.709443,-0.058209,-0.413329,-1.175286,3.104139,-1.595575,-3.363954,-11.434625,9.761460,-0.005680,0.069283,0.000000,0.303822,0.103630,0.000000
3.980000,2.626226,-0.791789,-1.387570,0.803264,-0.138334,0.279535,-0.721357,-0.027740,-0.428798,-1.206878,2.989718,-1.498413,-2.957186,-11.442335,9.670132,-0.002703,0.070337,0.000000,0.291691,0.107031,0.000000
3.990000,2.634222,-0.793173,-1.384796,0.795990,-0.138464,0.275174,-0.733564,0.001583,-0.443301,-1.233501,2.874405,-1.402493,-2.321010,-11.664693,9.497823,0.000154,0.071423,0.000000,0.279602,0.109954,0.000000
4.000000,2.642145,-0.794557,-1.382067,0.788592,-0.138307,0.270673,-0.746005,0.029740,-0.456854,-1.253731,2.756955,-1.308356,-1.774220,-11.770133,9.343209,0.002889,0.072534,0.000000,0.267430,0.112262,0.000000
4.010000,2.649994,-0.795938,-1.379383,0.781069,-0.137873,0.266040,-0.758623,0.056721,-0.469473,-1.269141,2.639023,-1.215656,-1.241859,-11.843673,9.182333,0.005503,0.073666,0.000000,0.255326,0.114113,0.000000
4.020000,2.657766,-0.797314,-1.376746,0.773419,-0.137176,0.261286,-0.771365,0.082516,-0.481174,-1.277983,2.519883,-1.124852,-0.594017,-11.947849,8.990404,0.007996,0.074814,0.000000,0.243215,0.115338,0.000000
4.030000,2.665462,-0.798681,-1.374158,0.765642,-0.136227,0.256420,-0.784169,0.107119,-0.491975,-1.282439,2.400827,-1.035598,-0.301457,-11.857580,8.859774,0.010368,0.075972,0.000000,0.231214,0.116154,0.000000
4.040000,2.673079,-0.800038,-1.371618,0.757736,-0.135038,0.251450,-0.797000,0.130534,-0.501891,-1.282728,2.282185,-0.947934,0.307627,-11.898226,8.659139,0.012620,0.077136,0.000000,0.219349,0.116582,0.000000
4.050000,2.680616,-0.801381,-1.369129,0.749702,-0.133620,0.246385,-0.809802,0.152761,-0.510941,-1.276884,2.163225,-0.862319,0.791572,-11.857804,8.475782,0.014755,0.078302,0.000000,0.207541,0.116433,0.000000
4.060000,2.688072,-0.802709,-1.366691,0.741540,-0.131987,0.241234,-0.822524,0.173802,-0.519143,-1.266898,2.045041,-0.778436,1.258429,-11.792048,8.288250,0.016772,0.079464,0.000000,0.195889,0.115900,0.000000
4.070000,2.695446,-0.804020,-1.364305,0.733252,-0.130148,0.236005,-0.835120,0.193663,-0.526517,-1.251256,1.927307,-0.696676,1.813642,-11.734038,8.074537,0.018673,0.080618,0.000000,0.184354,0.114837,0.000000
4.080000,2.702737,-0.805312,-1.361971,0.724838,-0.128117,0.230706,-0.847537,0.212352,-0.533083,-1.231809,1.810786,-0.616717,2.071287,-11.565917,7.916999,0.020459,0.081760,0.000000,0.173005,0.113424,-0.000000
4.090000,2.709943,-0.806582,-1.359691,0.716302,-0.125905,0.225346,-0.859745,0.229884,-0.538857,-1.208798,1.695725,-0.538579,2.582405,-11.459624,7.698555,0.022134,0.082886,0.000000,0.161857,0.111683,0.000000
4.100000,2.717063,-0.807829,-1.357464,0.707644,-0.123523,0.219931,-0.871695,0.246270,-0.543862,-1.180682,1.581805,-0.462658,2.983563,-11.304362,7.496663,0.023697,0.083992,0.000000,0.150873,0.109464,0.000000
4.110000,2.724095,-0.809052,-1.355292,0.698869,-0.120983,0.214471,-0.883348,0.261525,-0.548117,-1.149243,1.469576,-0.388690,3.365252,-11.131386,7.292207,0.025152,0.085075,0.000000,0.140101,0.106939,0.000000
4.120000,2.731040,-0.810248,-1.353175,0.689978,-0.118297,0.208971,-0.894662,0.275668,-0.551643,-1.112801,1.359306,-0.316858,3.854240,-10.926851,7.077735,0.026500,0.086130,0.000000,0.129561,0.103944,0.000000
4.130000,2.737894,-0.811417,-1.351113,0.680977,-0.115474,0.203440,-0.905595,0.288718,-0.554461,-1.073602,1.250946,-0.247058,3.980322,-10.742696,6.882238,0.027744,0.087154,0.000000,0.119240,0.100694,0.000000
4.140000,2.744659,-0.812557,-1.349106,0.671868,-0.112526,0.197885,-0.916126,0.300694,-0.556591,-1.031924,1.144648,-0.179299,4.418662,-10.507246,6.665390,0.028885,0.088144,0.000000,0.109149,0.097215,-0.000000
4.150000,2.751331,-0.813667,-1.347155,0.662656,-0.109463,0.192311,-0.926218,0.311619,-0.558054,-0.985863,1.040789,-0.113723,4.724727,-10.269506,6.453977,0.029928,0.089097,0.000000,0.099319,0.093320,0.000000
4.160000,2.757911,-0.814746,-1.345260,0.653345,-0.106297,0.186726,-0.935837,0.321517,-0.558872,-0.937433,0.939235,-0.050180,5.010322,-10.020278,6.242979,0.030873,0.090011,0.000000,0.089732,0.089202,0.000000
4.170000,2.764398,-0.815793,-1.343421,0.643941,-0.103036,0.181135,-0.944953,0.330414,-0.559066,-0.885241,0.840599,0.011030,5.374155,-9.723456,6.010050,0.031723,0.090881,0.000000,0.080441,0.084724,-0.000000
4.180000,2.770790,-0.816807,-1.341637,0.634448,-0.099692,0.175546,-0.953535,0.338337,-0.558658,-0.831077,0.744414,0.070255,5.453989,-9.512283,5.835350,0.032482,0.091705,0.000000,0.071398,0.080056,0.000000
4.190000,2.777087,-0.817787,-1.339910,0.624872,-0.096273,0.169964,-0.961569,0.345310,-0.557667,-0.775202,0.650759,0.127511,5.768848,-9.198627,5.604741,0.033152,0.092482,0.000000,0.062607,0.075223,0.000000
4.200000,2.783287,-0.818732,-1.338238,0.615218,-0.092789,0.164395,-0.969028,0.351363,-0.556115,-0.716202,0.560313,0.182449,5.977451,-8.907815,5.393855,0.033735,0.093209,0.000000,0.054129,0.070083,0.000000
4.210000,2.789391,-0.819642,-1.336622,0.605493,-0.089248,0.158844,-0.975888,0.356525,-0.554025,-0.655597,0.472600,0.235377,6.167244,-8.610818,5.183860,0.034235,0.093884,0.000000,0.045914,0.064783,0.000000
4.220000,2.795397,-0.820517,-1.335061,0.595702,-0.085661,0.153316,-0.982132,0.360827,-0.551415,-0.592673,0.388329,0.286054,6.388289,-8.264587,4.959662,0.034655,0.094505,0.000000,0.038028,0.059249,-0.000000
4.230000,2.801305,-0.821355,-1.333555,0.585853,-0.082035,0.147817,-0.987738,0.364301,-0.548310,-0.528444,0.306862,0.334741,6.453581,-8.028693,4.778208,0.034997,0.095070,0.000000,0.030406,0.053578,-0.000000
4.240000,2.807114,-0.822157,-1.332105,0.575950,-0.078378,0.142351,-0.992697,0.366974,-0.544727,-0.463135,0.228218,0.381464,6.631518,-7.676954,4.558613,0.035264,0.095577,0.000000,0.023049,0.047789,-0.000000
4.250000,2.812823,-0.822923,-1.330708,0.566001,-0.074698,0.136924,-0.996994,0.368878,-0.540688,-0.396106,0.153144,0.425986,6.745443,-7.359645,4.354266,0.035459,0.096025,0.000000,0.016024,0.041818,-0.000000
4.260000,2.818434,-0.823651,-1.329366,0.556012,-0.071003,0.131539,-1.000617,0.370046,-0.536214,-0.328394,0.080972,0.468590,6.837921,-7.041899,4.153105,0.035585,0.096414,0.000000,0.009267,0.035763,-0.000000
4.270000,2.823944,-0.824343,-1.328077,0.545991,-0.067299,0.126201,-1.003556,0.370511,-0.531324,-0.259003,0.012611,0.508928,6.994592,-6.661662,3.928403,0.035646,0.096740,0.000000,0.002863,0.029524,0.000000
4.280000,2.829353,-0.824997,-1.326842,0.535943,-0.063595,0.120914,-1.005797,0.370307,-0.526041,-0.189460,-0.052921,0.547448,6.909677,-6.445523,3.776338,0.035643,0.097004,0.000000,-0.003284,0.023249,0.000000
4.290000,2.834662,-0.825615,-1.325659,0.525877,-0.059895,0.115682,-1.007346,0.369461,-0.520381,-0.120003,-0.115661,0.584193,7.022108,-6.070851,3.559602,0.035581,0.097206,0.000000,-0.009178,0.016959,-0.000000
4.300000,2.839871,-0.826195,-1.324528,0.515799,-0.056207,0.110508,-1.008193,0.368007,-0.514365,-0.049443,-0.174612,0.618763,7.044144,-5.751075,3.368610,0.035461,0.097343,0.000000,-0.014724,0.010534,0.000000
4.310000,2.844978,-0.826739,-1.323449,0.505716,-0.052537,0.105395,-1.008335,0.365978,-0.508012,0.020964,-0.230718,0.651578,7.050503,-5.434709,3.181322,0.035287,0.097416,0.000000,-0.020015,0.004098,0.000000
4.320000,2.849985,-0.827246,-1.322420,0.495635,-0.048890,0.100348,-1.007772,0.363406,-0.501340,0.091659,-0.282985,0.682277,7.070333,-5.053816,2.972049,0.035062,0.097425,0.000000,-0.024954,-0.002398,0.000000
4.330000,2.854891,-0.827717,-1.321441,0.485563,-0.045271,0.095370,-1.006503,0.360327,-0.494371,0.161994,-0.332532,0.711303,6.993687,-4.857067,2.834288,0.034789,0.097368,0.000000,-0.029650,-0.008888,0.000000
4.340000,2.859696,-0.828151,-1.320512,0.475507,-0.041685,0.090462,-1.004534,0.356764,-0.487120,0.231794,-0.379438,0.738709,6.979282,-4.489757,2.634293,0.034470,0.097247,0.000000,-0.034109,-0.015357,0.000000
4.350000,2.864401,-0.828551,-1.319632,0.465474,-0.038137,0.085628,-1.001868,0.352751,-0.479604,0.301393,-0.422638,0.764117,6.923172,-4.185952,2.460474,0.034108,0.097061,0.000000,-0.038230,-0.021841,-0.000000
4.360000,2.869006,-0.828914,-1.318799,0.455472,-0.034631,0.080871,-0.998509,0.348320,-0.471843,0.370275,-0.463185,0.787906,6.853555,-3.888617,2.290134,0.033706,0.096810,0.000000,-0.042113,-0.028288,0.000000
4.370000,2.873511,-0.829243,-1.318014,0.445506,-0.031172,0.076192,-0.994465,0.343500,-0.463852,0.438442,-0.500099,0.809859,6.774973,-3.529707,2.108762,0.033267,0.096495,0.000000,-0.045665,-0.034701,-0.000000
4.380000,2.877916,-0.829538,-1.317275,0.435585,-0.027762,0.071594,-0.989743,0.338326,-0.455651,0.505675,-0.534527,0.830255,6.669358,-3.357897,1.971284,0.032793,0.096116,0.000000,-0.048993,-0.041057,0.000000
4.390000,2.882223,-0.829799,-1.316582,0.425714,-0.024406,0.067080,-0.984355,0.332818,-0.447252,0.571838,-0.566576,0.849143,6.563778,-3.018008,1.799310,0.032287,0.095674,0.000000,-0.052109,-0.047344,-0.000000
4.400000,2.886431,-0.830026,-1.315933,0.415900,-0.021107,0.062650,-0.978310,0.327006,-0.438674,0.636884,-0.595207,0.866315,6.441022,-2.744134,1.643970,0.031752,0.095169,0.000000,-0.054911,-0.053559,-0.000000
4.410000,2.890541,-0.830221,-1.315329,0.406150,-0.017867,0.058307,-0.971622,0.320921,-0.429930,0.700588,-0.621472,0.882085,6.305600,-2.478501,1.494211,0.031190,0.094602,0.000000,-0.057499,-0.059677,0.000000
4.420000,2.894554,-0.830384,-1.314767,0.396469,-0.014689,0.054052,-0.964303,0.314588,-0.421038,0.763030,-0.644511,0.896060,6.173311,-2.161200,1.317524,0.030603,0.093975,0.000000,-0.059791,-0.065710,0.000000
4.430000,2.898471,-0.830515,-1.314247,0.386866,-0.011576,0.049886,-0.956367,0.308038,-0.412013,0.823857,-0.665364,0.908786,5.990112,-2.011700,1.228770,0.029995,0.093288,0.000000,-0.061884,-0.071619,0.000000
4.440000,2.902292,-0.830616,-1.313769,0.377344,-0.008529,0.045812,-0.947831,0.301288,-0.402866,0.882951,-0.684152,0.920324,5.834713,-1.716347,1.063305,0.029366,0.092542,0.000000,-0.063789,-0.077391,0.000000
4.450000,2.906018,-0.830686,-1.313331,0.367911,-0.005551,0.041829,-0.938713,0.294365,-0.393613,0.940448,-0.699978,0.930206,5.655924,-1.481354,0.929556,0.028720,0.091740,0.000000,-0.065420,-0.083044,0.000000
4.460000,2.909650,-0.830727,-1.312932,0.358572,-0.002642,0.037940,-0.929028,0.287294,-0.384266,0.996125,-0.713813,0.938885,5.469237,-1.256341,0.799392,0.028058,0.090881,0.000000,-0.066868,-0.088550,0.000000
4.470000,2.913190,-0.830739,-1.312572,0.349332,0.000195,0.034144,-0.918797,0.280099,-0.374840,1.049723,-0.724851,0.946139,5.257297,-0.982496,0.659264,0.027383,0.089969,0.000000,-0.068054,-0.093887,0.000000
4.480000,2.916637,-0.830723,-1.312249,0.340198,0.002959,0.030443,-0.908040,0.272803,-0.365347,1.101419,-0.734117,0.952234,5.080685,-0.873199,0.560691,0.026698,0.089003,0.000000,-0.069077,-0.099068,0.000000
4.490000,2.919994,-0.830680,-1.311963,0.331173,0.005650,0.026838,-0.896776,0.265422,-0.355799,1.151140,-0.741742,0.957220,4.853648,-0.623070,0.429775,0.026002,0.087987,0.000000,-0.069947,-0.104085,0.000000
4.500000,2.923261,-0.830610,-1.311712,0.322264,0.008267,0.023328,-0.885025,0.257977,-0.346207,1.198543,-0.746863,0.960902,4.633705,-0.432825,0.314774,0.025300,0.086922,0.000000,-0.070580,-0.108904,0.000000
4.510000,2.926440,-0.830515,-1.311496,0.313474,0.010810,0.019914,-0.872812,0.250489,-0.336584,1.243777,-0.750402,0.963545,4.406429,-0.252386,0.204250,0.024591,0.085809,0.000000,-0.071065,-0.113537,-0.000000
4.520000,2.929531,-0.830394,-1.311313,0.304809,0.013277,0.016596,-0.860158,0.242977,-0.326941,1.286598,-0.751719,0.964904,4.162039,-0.035929,0.078011,0.023879,0.084651,0.000000,-0.071338,-0.117962,-0.000000
4.530000,2.932536,-0.830250,-1.311163,0.296272,0.015669,0.013375,-0.847088,0.235459,-0.317289,1.327110,-0.751642,0.965328,3.939532,0.049162,0.007702,0.023165,0.083450,0.000000,-0.071478,-0.122182,0.000000
4.540000,2.935457,-0.830081,-1.311045,0.287868,0.017986,0.010250,-0.833624,0.227948,-0.307637,1.365261,-0.750293,0.964866,3.684283,0.242706,-0.109584,0.022450,0.082207,0.000000,-0.071496,-0.126193,0.000000
4.550000,2.938294,-0.829890,-1.310958,0.279601,0.020228,0.007222,-0.819791,0.220460,-0.297996,1.400818,-0.747018,0.963233,3.432296,0.387200,-0.206416,0.021736,0.080926,0.000000,-0.071327,-0.129971,0.000000
4.560000,2.941049,-0.829677,-1.310901,0.271474,0.022396,0.004290,-0.805615,0.213011,-0.288375,1.433892,-0.742573,0.960729,3.175879,0.521846,-0.300046,0.021024,0.079608,0.000000,-0.071045,-0.133523,-0.000000
4.570000,2.943724,-0.829442,-1.310872,0.263490,0.024489,0.001454,-0.791122,0.205615,-0.278785,1.464266,-0.736415,0.957185,2.904000,0.687527,-0.402185,0.020315,0.078256,0.000000,-0.070595,-0.136828,0.000000
4.580000,2.946319,-0.829187,-1.310871,0.255652,0.026508,-0.001286,-0.776339,0.198286,-0.269234,1.492076,-0.729286,0.952821,2.657359,0.736065,-0.470125,0.019612,0.076872,0.000000,-0.070049,-0.139896,0.000000
4.590000,2.948837,-0.828913,-1.310897,0.247964,0.028455,-0.003930,-0.761289,0.191032,-0.259731,1.517287,-0.721303,0.947671,2.378471,0.880042,-0.565405,0.018915,0.075458,0.000000,-0.069418,-0.142722,0.000000
4.600000,2.951279,-0.828619,-1.310950,0.240427,0.030329,-0.006480,-0.746002,0.183865,-0.250284,1.539688,-0.711892,0.941575,2.106327,0.979995,-0.647677,0.018224,0.074018,0.000000,-0.068644,-0.145283,0.000000
4.610000,2.953646,-0.828306,-1.311027,0.233045,0.032132,-0.008936,-0.730504,0.176796,-0.240902,1.559465,-0.701723,0.934696,1.832359,1.070861,-0.727902,0.017542,0.072553,0.000000,-0.067793,-0.147595,0.000000
4.620000,2.955941,-0.827976,-1.311128,0.225818,0.033865,-0.011299,-0.714824,0.169835,-0.231593,1.576177,-0.690331,0.927021,1.525359,1.188259,-0.806427,0.016869,0.071066,0.000000,-0.066817,-0.149613,-0.000000
4.630000,2.958163,-0.827629,-1.311252,0.218749,0.035530,-0.013568,-0.698989,0.162992,-0.222364,1.590295,-0.678363,0.918582,1.298533,1.203426,-0.880967,0.016206,0.069561,0.000000,-0.065782,-0.151382,0.000000
4.640000,2.960316,-0.827266,-1.311399,0.211838,0.037126,-0.015746,-0.683026,0.156269,-0.213224,1.601822,-0.665924,0.909402,0.990586,1.301284,-0.955064,0.015553,0.068039,0.000000,-0.064695,-0.152900,0.000000
4.650000,2.962401,-0.826887,-1.311567,0.205088,0.038655,-0.017833,-0.666964,0.149677,-0.204178,1.610234,-0.652515,0.899487,0.707707,1.360975,-1.026936,0.014912,0.066504,0.000000,-0.063508,-0.154112,-0.000000
4.660000,2.964418,-0.826493,-1.311755,0.198499,0.040120,-0.019830,-0.650831,0.143220,-0.195236,1.615877,-0.638692,0.888910,0.422377,1.413219,-1.096032,0.014283,0.064957,0.000000,-0.062275,-0.155052,0.000000
4.670000,2.966371,-0.826085,-1.311963,0.192072,0.041520,-0.021738,-0.634655,0.136905,-0.186403,1.618695,-0.624174,0.877499,0.139325,1.478724,-1.178221,0.013667,0.063403,0.000000,-0.060968,-0.155712,0.000000
4.680000,2.968260,-0.825663,-1.312190,0.185806,0.042858,-0.023559,-0.618466,0.130738,-0.177688,1.618625,-0.609361,0.865510,-0.153391,1.482390,-1.219133,0.013064,0.061844,0.000000,-0.059626,-0.156084,0.000000
4.690000,2.970088,-0.825228,-1.312434,0.179703,0.044135,-0.025292,-0.602293,0.124719,-0.169095,1.615660,-0.594335,0.852967,-0.437811,1.532457,-1.297139,0.012475,0.060282,0.000000,-0.058257,-0.156165,-0.000000
4.700000,2.971855,-0.824780,-1.312695,0.173760,0.045353,-0.026941,-0.586163,0.118853,-0.160631,1.609849,-0.578822,0.839638,-0.725551,1.558390,-1.360881,0.011899,0.058721,0.000000,-0.056833,-0.155958,0.000000
4.710000,2.973564,-0.824321,-1.312973,0.167979,0.046513,-0.028506,-0.570105,0.113143,-0.152304,1.601135,-0.563165,0.825706,-1.013169,1.578336,-1.424448,0.011338,0.057164,0.000000,-0.055390,-0.155457,-0.000000
4.720000,2.975215,-0.823850,-1.313265,0.162358,0.047617,-0.029988,-0.554149,0.107591,-0.144119,1.589626,-0.547216,0.811161,-1.292405,1.604523,-1.485397,0.010792,0.055613,0.000000,-0.053910,-0.154670,0.000000
4.730000,2.976811,-0.823369,-1.313572,0.156896,0.048665,-0.031388,-0.538322,0.102198,-0.136083,1.575205,-0.531222,0.795979,-1.591678,1.593235,-1.551056,0.010260,0.054071,0.000000,-0.052420,-0.153585,-0.000000
4.740000,2.978354,-0.822877,-1.313893,0.151591,0.049661,-0.032710,-0.522655,0.096966,-0.128202,1.557879,-0.515243,0.780161,-1.869213,1.607799,-1.611391,0.009743,0.052542,0.000000,-0.050925,-0.152200,0.000000
4.750000,2.979844,-0.822376,-1.314226,0.146442,0.050605,-0.033953,-0.507174,0.091894,-0.120482,1.537785,-0.499132,0.763744,-2.152539,1.607318,-1.673207,0.009241,0.051028,0.000000,-0.049411,-0.150528,0.000000
4.760000,2.981283,-0.821865,-1.314572,0.141447,0.051499,-0.035120,-0.491909,0.086983,-0.112929,1.514833,-0.483118,0.746683,-2.433684,1.601997,-1.735383,0.008755,0.049532,0.000000,-0.047900,-0.148559,-0.000000
4.770000,2.982673,-0.821346,-1.314928,0.136603,0.052345,-0.036212,-0.476886,0.082232,-0.105550,1.489155,-0.467040,0.729067,-2.705266,1.606036,-1.791260,0.008283,0.048058,0.000000,-0.046377,-0.146304,-0.000000
4.780000,2.984016,-0.820818,-1.315296,0.131908,0.053145,-0.037232,-0.462135,0.077641,-0.098350,1.460659,-0.451155,0.710787,-2.993576,1.570114,-1.864991,0.007827,0.046607,0.000000,-0.044867,-0.143754,-0.000000
4.790000,2.985312,-0.820283,-1.315673,0.127359,0.053899,-0.038180,-0.447683,0.073208,-0.091336,1.429369,-0.435508,0.691834,-3.260201,1.565795,-1.922263,0.007386,0.045184,0.000000,-0.043374,-0.140910,-0.000000
4.800000,2.986563,-0.819740,-1.316059,0.122953,0.054609,-0.039059,-0.433556,0.068931,-0.084515,1.395433,-0.419908,0.672311,-3.530099,1.546765,-1.985710,0.006960,0.043790,0.000000,-0.041881,-0.137786,0.000000
4.810000,2.987771,-0.819191,-1.316454,0.118687,0.055278,-0.039871,-0.419783,0.064809,-0.077892,1.358712,-0.404564,0.652252,-3.796566,1.524769,-2.048053,0.006548,0.042429,0.000000,-0.040407,-0.134366,0.000000
4.820000,2.988937,-0.818635,-1.316856,0.114556,0.055906,-0.040617,-0.406389,0.060839,-0.071474,1.319696,-0.389402,0.631129,-4.024065,1.505096,-2.154268,0.006152,0.041103,0.000000,-0.038947,-0.130702,0.000000
4.830000,2.990063,-0.818073,-1.317266,0.110558,0.056495,-0.041301,-0.393399,0.057020,-0.065270,1.277860,-0.374515,0.609634,-4.342863,1.471946,-2.144271,0.005769,0.039816,0.000000,-0.037508,-0.126738,0.000000
4.840000,2.991149,-0.817505,-1.317682,0.106687,0.057047,-0.041924,-0.380842,0.053348,-0.059282,1.233229,-0.359923,0.587784,-4.563991,1.448381,-2.248853,0.005401,0.038569,0.000000,-0.036094,-0.122474,0.000000
4.850000,2.992197,-0.816932,-1.318104,0.102940,0.057563,-0.042487,-0.368741,0.049821,-0.053519,1.186439,-0.345570,0.564846,-4.811052,1.419823,-2.316722,0.005047,0.037367,0.000000,-0.034699,-0.117978,-0.000000
4.860000,2.993208,-0.816354,-1.318531,0.099311,0.058044,-0.042995,-0.357121,0.046436,-0.047987,1.137126,-0.331518,0.541322,-5.050557,1.390600,-2.388314,0.004707,0.036211,0.000000,-0.033329,-0.113212,-0.000000
4.870000,2.994184,-0.815771,-1.318964,0.095795,0.058492,-0.043448,-0.346007,0.043190,-0.042695,1.085451,-0.317760,0.517071,-5.283342,1.360915,-2.462384,0.004381,0.035104,0.000000,-0.031984,-0.108190,-0.000000
4.880000,2.995124,-0.815184,-1.319400,0.092389,0.058908,-0.043849,-0.335420,0.040080,-0.037648,1.031483,-0.304300,0.492065,-5.508905,1.331117,-2.539192,0.004068,0.034048,0.000000,-0.030665,-0.102922,-0.000000
4.890000,2.996032,-0.814593,-1.319841,0.089085,0.059294,-0.044202,-0.325384,0.037103,-0.032856,0.975298,-0.291137,0.466277,-5.726661,1.301541,-2.618986,0.003767,0.033046,0.000000,-0.029371,-0.097414,0.000000
4.900000,2.996906,-0.813999,-1.320284,0.085879,0.059651,-0.044507,-0.315921,0.034256,-0.028325,0.916972,-0.278265,0.439671,-5.936702,1.272722,-2.702353,0.003480,0.032100,0.000000,-0.028103,-0.091674,0.000000
4.910000,2.997750,-0.813400,-1.320731,0.082765,0.059979,-0.044769,-0.307052,0.031536,-0.024065,0.856592,-0.265678,0.412217,-6.137909,1.244806,-2.789182,0.003205,0.031213,0.000000,-0.026860,-0.085712,-0.000000
4.920000,2.998562,-0.812799,-1.321179,0.079736,0.060282,-0.044990,-0.298796,0.028941,-0.020084,0.794244,-0.253365,0.383875,-6.330052,1.218230,-2.879899,0.002943,0.030387,0.000000,-0.025640,-0.079536,0.000000
4.930000,2.999345,-0.812195,-1.321630,0.076787,0.060559,-0.045172,-0.291173,0.026468,-0.016391,0.730022,-0.241308,0.354605,-6.512727,1.193353,-2.974774,0.002692,0.029623,0.000000,-0.024443,-0.073158,-0.000000
4.940000,3.000098,-0.811588,-1.322083,0.073910,0.060811,-0.045318,-0.284201,0.024114,-0.012995,0.664022,-0.229491,0.324365,-6.685663,1.170537,-3.074021,0.002454,0.028924,0.000000,-0.023267,-0.066587,0.000000
4.950000,3.000823,-0.810979,-1.322536,0.071100,0.061041,-0.045433,-0.277898,0.021878,-0.009907,0.596354,-0.217889,0.293107,-6.847259,1.150164,-3.178192,0.002227,0.028292,0.000000,-0.022109,-0.059836,0.000000
4.960000,3.001520,-0.810367,-1.322991,0.068350,0.061249,-0.045518,-0.272280,0.019756,-0.007137,0.527116,-0.206478,0.260784,-6.998367,1.132560,-3.287273,0.002012,0.027728,0.000000,-0.020968,-0.052916,0.000000
4.970000,3.002190,-0.809754,-1.323447,0.065653,0.061437,-0.045576,-0.267361,0.017748,-0.004695,0.456425,-0.195227,0.227344,-7.138043,1.118102,-3.401654,0.001808,0.027234,0.000000,-0.019840,-0.045839,0.000000
4.980000,3.002833,-0.809139,-1.323903,0.063001,0.061605,-0.045613,-0.263156,0.015851,-0.002594,0.384395,-0.184104,0.192732,-7.265830,1.107156,-3.521632,0.001615,0.026812,0.000000,-0.018722,-0.038619,0.000000
4.990000,3.003450,-0.808522,-1.324359,0.060387,0.061754,-0.045630,-0.259677,0.014065,-0.000845,0.311149,-0.173071,0.156891,-7.381296,1.100101,-3.647494,0.001433,0.026462,0.000000,-0.017610,-0.031270,0.000000
5.000000,3.004041,-0.807904,-1.324815,0.057805,0.061886,-0.045631,-0.256936,0.012389,0.000540,0.236812,-0.162088,0.119762,-7.484020,1.097326,-3.779486,0.001263,0.026187,0.000000,-0.016502,-0.023805,0.000000
