time,x,y,z,vx,vy,vz,ax,ay,az,jx,jy,jz,sx,sy,sz,roll,pitch,yaw,p,q,r
0.000000,-2.711105,-0.333431,-1.483564,-0.018103,-0.007763,0.009108,0.224433,0.141160,-0.088018,-2.175263,-2.148114,2.470969,105.109516,37.359249,-52.527356,0.014257,-0.022671,0.000000,-0.213297,0.213975,0.000000
0.010000,-2.711275,-0.333502,-1.483476,-0.015951,-0.006453,0.008343,0.207715,0.121472,-0.065805,-1.189826,-1.796569,1.984264,92.151212,33.020859,-44.947767,0.012297,-0.021030,0.000000,-0.179348,0.116193,-0.000000
0.020000,-2.711424,-0.333561,-1.483396,-0.013918,-0.005323,0.007777,0.200221,0.105091,-0.048094,-0.328844,-1.486314,1.569399,80.211155,29.097406,-38.152469,0.010658,-0.020308,0.000000,-0.149020,0.030110,0.000000
0.030000,-2.711553,-0.333609,-1.483320,-0.011920,-0.004342,0.007368,0.200757,0.091622,-0.034203,0.417647,-1.213311,1.218740,69.246123,25.566783,-32.099734,0.009305,-0.020391,0.000000,-0.122072,-0.044930,0.000000
0.040000,-2.711662,-0.333648,-1.483248,-0.009880,-0.003482,0.007082,0.208224,0.080713,-0.023529,1.059184,-0.973743,0.925069,59.212831,22.406891,-26.747826,0.008206,-0.021172,0.000000,-0.098241,-0.109651,-0.000000
0.050000,-2.711750,-0.333679,-1.483178,-0.007735,-0.002720,0.006889,0.221621,0.072048,-0.015535,1.604872,-0.764012,0.681584,50.068682,19.595591,-22.055268,0.007331,-0.022552,0.000000,-0.077253,-0.164813,-0.000000
0.060000,-2.711816,-0.333703,-1.483110,-0.005431,-0.002034,0.006764,0.240031,0.065345,-0.009751,2.063378,-0.580743,0.481904,41.769782,17.110810,-17.980039,0.006652,-0.024439,0.000000,-0.058828,-0.211194,0.000000
0.070000,-2.711858,-0.333720,-1.483043,-0.002921,-0.001407,0.006688,0.262625,0.060355,-0.005771,2.442942,-0.420781,0.320064,34.273201,14.930429,-14.480544,0.006147,-0.026749,0.000000,-0.042692,-0.249568,0.000000
0.080000,-2.711874,-0.333731,-1.482976,-0.000167,-0.000822,0.006644,0.288653,0.056861,-0.003242,2.751372,-0.281193,0.190513,27.535769,13.032346,-11.515077,0.005792,-0.029406,0.000000,-0.028576,-0.280697,0.000000
0.090000,-2.711861,-0.333737,-1.482910,0.002861,-0.000266,0.006619,0.317440,0.054672,-0.001870,2.996044,-0.159267,0.088121,21.514345,11.394459,-9.041931,0.005569,-0.032341,0.000000,-0.016228,-0.305315,0.000000
0.100000,-2.711816,-0.333737,-1.482844,0.006189,0.000275,0.006603,0.348385,0.053625,-0.001405,3.183899,-0.052511,0.008174,16.165485,9.994606,-7.019298,0.005462,-0.035493,0.000000,-0.005407,-0.324126,0.000000
0.110000,-2.711736,-0.333731,-1.482778,0.009834,0.000810,0.006589,0.380951,0.053579,-0.001646,3.321452,0.041345,-0.053627,11.446295,8.810749,-5.405588,0.005457,-0.038807,0.000000,0.004109,-0.337795,0.000000
0.120000,-2.711618,-0.333720,-1.482712,0.013812,0.001350,0.006569,0.414666,0.054416,-0.002430,3.414780,0.124350,-0.101162,7.313460,7.820753,-4.159041,0.005541,-0.042234,0.000000,0.012523,-0.346945,0.000000
0.130000,-2.711459,-0.333704,-1.482647,0.018130,0.001901,0.006539,0.449118,0.056036,-0.003633,3.469531,0.198333,-0.137893,3.723737,7.002506,-3.237939,0.005704,-0.045733,0.000000,0.020016,-0.352156,-0.000000
0.140000,-2.711254,-0.333682,-1.482581,0.022795,0.002473,0.006495,0.483946,0.058358,-0.005162,3.490920,0.264899,-0.166867,0.633819,6.333884,-2.600581,0.005938,-0.049266,0.000000,0.026750,-0.353961,0.000000
0.150000,-2.711002,-0.333655,-1.482517,0.027809,0.003070,0.006435,0.518841,0.061314,-0.006954,3.483729,0.325435,-0.190712,-1.999721,5.792747,-2.205314,0.006237,-0.052802,0.000000,0.032865,-0.352849,0.000000
0.160000,-2.710697,-0.333621,-1.482453,0.033171,0.003701,0.006355,0.553540,0.064851,-0.008967,3.452332,0.381108,-0.211639,-4.217699,5.357251,-2.010219,0.006594,-0.056315,0.000000,0.038478,-0.349266,0.000000
0.170000,-2.710337,-0.333580,-1.482390,0.038879,0.004369,0.006255,0.587820,0.068923,-0.011183,3.400621,0.432859,-0.231445,-6.066414,5.004957,-1.973779,0.007005,-0.059781,0.000000,0.043684,-0.343604,-0.000000
0.180000,-2.709918,-0.333533,-1.482328,0.044926,0.005081,0.006131,0.621496,0.073497,-0.013597,3.332095,0.481411,-0.251504,-7.587831,4.713876,-2.054199,0.007467,-0.063181,0.000000,0.048555,-0.336218,0.000000
0.190000,-2.709437,-0.333479,-1.482267,0.051306,0.005841,0.005982,0.654416,0.078543,-0.016217,3.249811,0.527267,-0.272779,-8.825063,4.461887,-2.209757,0.007975,-0.066501,0.000000,0.053142,-0.327417,0.000000
0.200000,-2.708891,-0.333416,-1.482208,0.058011,0.006653,0.005806,0.686455,0.084034,-0.019058,3.156391,0.570707,-0.295813,-9.821829,4.226956,-2.398924,0.008529,-0.069726,0.000000,0.057472,-0.317467,0.000000
0.210000,-2.708276,-0.333345,-1.482151,0.065032,0.007523,0.005601,0.717388,0.089846,-0.021938,3.025234,0.588212,-0.274574,-11.189929,3.520820,-1.667324,0.009114,-0.072836,0.000000,0.059206,-0.304026,0.000000
0.220000,-2.707589,-0.333266,-1.482096,0.072356,0.008452,0.005366,0.747339,0.096120,-0.025201,2.980918,0.680176,-0.405624,-2.679071,10.749125,-16.472037,0.009745,-0.075840,0.000000,0.068329,-0.298217,0.000000
0.230000,-2.706828,-0.333176,-1.482044,0.079977,0.009448,0.005092,0.776736,0.103234,-0.029650,2.866488,0.716625,-0.434556,-20.339316,-3.589993,10.940236,0.010459,-0.078776,0.000000,0.071898,-0.286036,0.000000
0.240000,-2.705989,-0.333076,-1.481995,0.087884,0.010516,0.004776,0.804377,0.110216,-0.033450,2.676448,0.691721,-0.350002,-12.563789,2.768516,-2.173126,0.011159,-0.081536,0.000000,0.069390,-0.267195,0.000000
0.250000,-2.705069,-0.332966,-1.481949,0.096060,0.011653,0.004423,0.830640,0.117373,-0.037270,2.572480,0.736632,-0.408814,-13.275258,2.064802,-1.468687,0.011877,-0.084153,0.000000,0.073781,-0.255897,0.000000
0.260000,-2.704067,-0.332843,-1.481906,0.104493,0.012864,0.004029,0.855669,0.124836,-0.041434,2.431979,0.755118,-0.423794,-13.670322,1.622355,-1.307613,0.012624,-0.086640,0.000000,0.075543,-0.241289,-0.000000
0.270000,-2.702979,-0.332708,-1.481868,0.113169,0.014150,0.003594,0.879361,0.132460,-0.045723,2.309884,0.768983,-0.432953,-11.833248,1.159419,-0.738962,0.013386,-0.088988,0.000000,0.076840,-0.228610,0.000000
0.280000,-2.701803,-0.332560,-1.481835,0.122076,0.015514,0.003115,0.901807,0.140201,-0.050098,2.172504,0.778491,-0.443085,-15.661790,0.741946,-1.295225,0.014159,-0.091207,0.000000,0.077696,-0.214408,0.000000
0.290000,-2.700536,-0.332398,-1.481806,0.131200,0.016955,0.002591,0.922749,0.148016,-0.054591,2.019236,0.783630,-0.454554,-13.865237,0.276272,-0.783742,0.014938,-0.093270,0.000000,0.078110,-0.198625,0.000000
0.300000,-2.699178,-0.332220,-1.481783,0.140526,0.018474,0.002023,0.942278,0.155858,-0.059167,1.886015,0.784089,-0.460621,-13.875510,-0.175521,-0.646547,0.015720,-0.095188,0.000000,0.078058,-0.184937,0.000000
0.310000,-2.697725,-0.332028,-1.481766,0.150041,0.020072,0.001408,0.960430,0.163682,-0.063808,1.744178,0.779985,-0.467497,-13.817837,-0.630960,-0.527334,0.016498,-0.096965,0.000000,0.077548,-0.170406,-0.000000
0.320000,-2.696177,-0.331819,-1.481755,0.159730,0.021747,0.000746,0.977219,0.171444,-0.068497,1.615962,0.771600,-0.469340,-12.457702,-1.060294,-0.039080,0.017269,-0.098603,0.000000,0.076617,-0.157321,0.000000
0.330000,-2.694530,-0.331593,-1.481751,0.169581,0.023500,0.000038,0.992725,0.179098,-0.073201,1.481723,0.758480,-0.472431,-14.401183,-1.564129,-0.586972,0.018029,-0.100110,0.000000,0.075214,-0.143649,0.000000
0.340000,-2.692784,-0.331348,-1.481754,0.179580,0.025329,-0.000718,1.006827,0.186597,-0.077952,1.341108,0.740602,-0.477141,-13.065298,-1.997325,-0.158409,0.018772,-0.101474,0.000000,0.073335,-0.129353,-0.000000
0.350000,-2.690938,-0.331086,-1.481766,0.189713,0.027231,-0.001521,1.019607,0.193896,-0.082725,1.215067,0.718414,-0.477316,-12.783400,-2.454468,-0.075558,0.019494,-0.102704,0.000000,0.071036,-0.116590,0.000000
0.360000,-2.688990,-0.330804,-1.481785,0.199968,0.029206,-0.002373,1.031114,0.200949,-0.087503,1.086682,0.691387,-0.478257,-12.467190,-2.914168,-0.001981,0.020191,-0.103805,0.000000,0.068257,-0.103614,0.000000
0.370000,-2.686938,-0.330501,-1.481813,0.210331,0.031249,-0.003271,1.041386,0.207712,-0.092279,0.969705,0.660472,-0.476354,-11.330290,-3.304205,0.272306,0.020858,-0.104781,0.000000,0.065100,-0.091832,0.000000
0.380000,-2.684783,-0.330178,-1.481851,0.220792,0.033359,-0.004218,1.050502,0.214142,-0.097033,0.851625,0.624562,-0.475126,-12.293584,-3.878392,-0.031682,0.021491,-0.105641,0.000000,0.061449,-0.079959,-0.000000
0.390000,-2.682522,-0.329834,-1.481898,0.231337,0.035531,-0.005212,1.058411,0.220186,-0.101785,0.732168,0.583631,-0.474812,-11.182154,-4.271645,0.203206,0.022085,-0.106380,0.000000,0.057303,-0.067961,-0.000000
0.400000,-2.680156,-0.329468,-1.481955,0.241956,0.037761,-0.006254,1.065192,0.225802,-0.106519,0.624560,0.538835,-0.472020,-10.745271,-4.722734,0.244206,0.022636,-0.107006,0.000000,0.052782,-0.057194,-0.000000
0.410000,-2.677683,-0.329079,-1.482023,0.252638,0.040046,-0.007342,1.070901,0.230946,-0.111227,0.518031,0.489215,-0.469581,-10.291423,-5.171150,0.280862,0.023139,-0.107524,0.000000,0.047788,-0.046550,0.000000
0.420000,-2.675103,-0.328667,-1.482102,0.263371,0.042379,-0.008478,1.075589,0.235574,-0.115907,0.421236,0.435697,-0.466070,-9.322973,-5.560298,0.383086,0.023591,-0.107941,0.000000,0.042414,-0.036906,0.000000
0.430000,-2.672415,-0.328231,-1.482193,0.274146,0.044755,-0.009660,1.079330,0.239644,-0.120550,0.326199,0.377428,-0.462722,-9.690420,-6.093324,0.284543,0.023986,-0.108263,0.000000,0.036574,-0.027451,-0.000000
0.440000,-2.669620,-0.327771,-1.482295,0.284954,0.047169,-0.010889,1.082116,0.243106,-0.125162,0.232691,0.314426,-0.459641,-8.748811,-6.477346,0.368537,0.024321,-0.108490,0.000000,0.030270,-0.018161,0.000000
0.450000,-2.666716,-0.327287,-1.482411,0.295786,0.049615,-0.012164,1.084021,0.245920,-0.129739,0.149034,0.247659,-0.455686,-8.240269,-6.903476,0.384402,0.024590,-0.108630,0.000000,0.023601,-0.009873,-0.000000
0.460000,-2.663704,-0.326779,-1.482539,0.306632,0.052086,-0.013484,1.085104,0.248044,-0.134276,0.068355,0.176433,-0.451726,-7.726300,-7.322324,0.400012,0.024791,-0.108688,0.000000,0.016496,-0.001894,0.000000
0.470000,-2.660584,-0.326246,-1.482680,0.317485,0.054574,-0.014849,1.085419,0.249437,-0.138774,-0.003928,0.101407,-0.447759,-6.892775,-7.698946,0.399817,0.024919,-0.108671,0.000000,0.009020,0.005241,0.000000
0.480000,-2.657354,-0.325687,-1.482836,0.328338,0.057072,-0.016259,1.085036,0.250058,-0.143231,-0.072913,0.022115,-0.443595,-6.908820,-8.158515,0.432892,0.024970,-0.108585,0.000000,0.001128,0.012037,0.000000
0.490000,-2.654017,-0.325104,-1.483006,0.339184,0.059572,-0.017713,1.083970,0.249865,-0.147645,-0.138800,-0.061373,-0.439243,-6.103751,-8.519609,0.430491,0.024940,-0.108431,0.000000,-0.007173,0.018516,0.000000
0.500000,-2.650571,-0.324496,-1.483190,0.350015,0.062066,-0.019212,1.082290,0.248819,-0.152016,-0.196382,-0.148392,-0.434926,-5.577315,-8.899993,0.439200,0.024826,-0.108217,0.000000,-0.015818,0.024164,-0.000000
0.510000,-2.647017,-0.323863,-1.483390,0.360828,0.064545,-0.020754,1.080054,0.246884,-0.156342,-0.250040,-0.239236,-0.430347,-5.053025,-9.267419,0.450168,0.024623,-0.107949,0.000000,-0.024835,0.029413,0.000000
0.520000,-2.643354,-0.323205,-1.483605,0.371615,0.067001,-0.022338,1.077315,0.244022,-0.160624,-0.296517,-0.333705,-0.426165,-4.341401,-9.623460,0.412068,0.024328,-0.107631,0.000000,-0.034206,0.033951,-0.000000
0.530000,-2.639584,-0.322523,-1.483837,0.382372,0.069423,-0.023966,1.074136,0.240199,-0.164864,-0.338948,-0.431647,-0.421562,-4.148592,-9.962717,0.509499,0.023937,-0.107271,0.000000,-0.043913,0.038079,0.000000
0.540000,-2.635707,-0.321817,-1.484085,0.393096,0.071801,-0.025636,1.070548,0.235378,-0.169054,-0.377512,-0.532924,-0.416490,-3.465575,-10.290824,0.479232,0.023448,-0.106871,0.000000,-0.053944,0.041815,0.000000
0.550000,-2.631723,-0.321087,-1.484350,0.403782,0.074127,-0.027347,1.066611,0.229529,-0.173195,-0.409130,-0.637409,-0.411748,-2.957526,-10.602733,0.495301,0.022857,-0.106437,0.000000,-0.064287,0.044864,-0.000000
0.560000,-2.627632,-0.320335,-1.484632,0.414427,0.076388,-0.029099,1.062379,0.222620,-0.177287,-0.436509,-0.744883,-0.406591,-2.456727,-10.897715,0.514623,0.022162,-0.105975,0.000000,-0.074918,0.047488,0.000000
0.570000,-2.623434,-0.319560,-1.484932,0.425029,0.078576,-0.030892,1.057903,0.214621,-0.181328,-0.457713,-0.855382,-0.401646,-1.846328,-11.191216,0.496097,0.021358,-0.105489,0.000000,-0.085844,0.049501,-0.000000
0.580000,-2.619131,-0.318763,-1.485250,0.435585,0.080677,-0.032726,1.053238,0.205504,-0.185318,-0.474744,-0.968481,-0.396212,-1.563228,-11.425331,0.592080,0.020444,-0.104986,0.000000,-0.097020,0.051095,0.000000
0.590000,-2.614723,-0.317946,-1.485587,0.446093,0.082682,-0.034599,1.048420,0.195244,-0.189250,-0.487777,-1.083989,-0.390221,-0.983521,-11.681021,0.585277,0.019417,-0.104468,0.000000,-0.108426,0.052288,0.000000
0.600000,-2.610209,-0.317110,-1.485942,0.456553,0.084578,-0.036510,1.043503,0.183816,-0.193123,-0.494970,-1.201969,-0.384310,-0.518260,-11.903736,0.618925,0.018275,-0.103942,0.000000,-0.120072,0.052905,-0.000000
0.610000,-2.605592,-0.316255,-1.486317,0.466963,0.086354,-0.038461,1.038534,0.171198,-0.196935,-0.498054,-1.321945,-0.377895,-0.063706,-12.105102,0.657244,0.017015,-0.103411,0.000000,-0.131908,0.053110,0.000000
0.620000,-2.600870,-0.315383,-1.486711,0.477324,0.087998,-0.040449,1.033560,0.157369,-0.200680,-0.495927,-1.444162,-0.371215,0.450088,-12.318013,0.686703,0.015636,-0.102881,0.000000,-0.143959,0.052799,-0.000000
0.630000,-2.596045,-0.314496,-1.487126,0.487634,0.089497,-0.042474,1.028629,0.142310,-0.204357,-0.489868,-1.567879,-0.363993,0.758541,-12.421276,0.758858,0.014135,-0.102356,0.000000,-0.156151,0.052095,-0.000000
0.640000,-2.591118,-0.313594,-1.487561,0.497896,0.090840,-0.044536,1.023775,0.126008,-0.207958,-0.480053,-1.692854,-0.356162,1.239576,-12.586883,0.801245,0.012512,-0.101840,0.000000,-0.168460,0.051016,0.000000
0.650000,-2.586088,-0.312680,-1.488017,0.508110,0.092013,-0.046633,1.019044,0.108447,-0.211479,-0.465431,-1.819396,-0.347889,1.644603,-12.700642,0.861795,0.010766,-0.101338,0.000000,-0.180917,0.049459,-0.000000
0.660000,-2.580956,-0.311754,-1.488494,0.518278,0.093005,-0.048765,1.014478,0.089617,-0.214914,-0.447136,-1.946721,-0.338983,2.035256,-12.788698,0.927853,0.008894,-0.100852,0.000000,-0.193444,0.047536,0.000000
0.670000,-2.575722,-0.310820,-1.488992,0.528401,0.093802,-0.050931,1.010116,0.069508,-0.218256,-0.424561,-2.075348,-0.329241,2.454744,-12.905237,1.014667,0.006896,-0.100388,0.000000,-0.206093,0.045184,0.000000
0.680000,-2.570388,-0.309879,-1.489513,0.538481,0.094391,-0.053130,1.005998,0.048110,-0.221497,-0.398561,-2.204168,-0.318815,2.741990,-12.853668,1.071697,0.004772,-0.099950,0.000000,-0.218754,0.042490,-0.000000
0.690000,-2.564953,-0.308933,-1.490055,0.548521,0.094759,-0.055361,1.002156,0.025425,-0.224630,-0.369319,-2.332891,-0.307637,3.126464,-12.914247,1.172332,0.002521,-0.099540,0.000000,-0.231399,0.039472,0.000000
0.700000,-2.559418,-0.307985,-1.490620,0.558525,0.094895,-0.057622,0.998625,0.001450,-0.227646,-0.336273,-2.462131,-0.295401,3.457103,-12.901889,1.269154,0.000144,-0.099162,0.000000,-0.244088,0.036072,0.000000
0.710000,-2.553782,-0.307036,-1.491208,0.568495,0.094784,-0.059913,0.995440,-0.023815,-0.230535,-0.300206,-2.590826,-0.282269,3.770793,-12.861582,1.373491,-0.002360,-0.098819,0.000000,-0.256718,0.032368,-0.000000
0.720000,-2.548048,-0.306090,-1.491818,0.578435,0.094414,-0.062232,0.992632,-0.050367,-0.233286,-0.260753,-2.719539,-0.267764,4.100319,-12.848390,1.514725,-0.004991,-0.098515,0.000000,-0.269343,0.028321,0.000000
0.730000,-2.542214,-0.305149,-1.492452,0.588349,0.093772,-0.064578,0.990234,-0.078202,-0.235887,-0.218611,-2.847113,-0.252244,4.324639,-12.660894,1.590524,-0.007747,-0.098254,0.000000,-0.281851,0.024002,0.000000
0.740000,-2.536281,-0.304215,-1.493110,0.598241,0.092846,-0.066950,0.988268,-0.107304,-0.238327,-0.173977,-2.973232,-0.235629,4.616320,-12.586626,1.748756,-0.010627,-0.098036,0.000000,-0.294210,0.019431,0.000000
0.750000,-2.530249,-0.303293,-1.493791,0.608116,0.091622,-0.069344,0.986764,-0.137664,-0.240594,-0.126492,-3.098510,-0.217358,4.861031,-12.436054,1.892972,-0.013631,-0.097866,0.000000,-0.306484,0.014567,0.000000
0.760000,-2.524119,-0.302384,-1.494497,0.617978,0.090089,-0.071761,0.985746,-0.169268,-0.242670,-0.076827,-3.221847,-0.197671,5.086856,-12.255436,2.049083,-0.016756,-0.097746,0.000000,-0.318563,0.009478,-0.000000
0.770000,-2.517889,-0.301492,-1.495227,0.627833,0.088233,-0.074197,0.985236,-0.202097,-0.244541,-0.024652,-3.343790,-0.176311,5.327657,-12.100131,2.222184,-0.020002,-0.097677,0.000000,-0.330505,0.004130,0.000000
0.780000,-2.511562,-0.300620,-1.495981,0.637685,0.086043,-0.076651,0.985258,-0.236135,-0.246191,0.029299,-3.463161,-0.153244,5.458889,-11.768373,2.393206,-0.023365,-0.097664,0.000000,-0.342194,-0.001407,0.000000
0.790000,-2.505136,-0.299772,-1.496760,0.647540,0.083506,-0.079120,0.985827,-0.271351,-0.247600,0.084814,-3.579628,-0.128349,5.658332,-11.548555,2.590653,-0.026845,-0.097706,0.000000,-0.353599,-0.007111,0.000000
0.800000,-2.498611,-0.298951,-1.497563,0.657403,0.080612,-0.081602,0.986961,-0.307720,-0.248751,0.142252,-3.693792,-0.101407,5.808623,-11.250855,2.796901,-0.030437,-0.097807,0.000000,-0.364783,-0.013021,0.000000
0.810000,-2.491988,-0.298161,-1.498392,0.667281,0.077348,-0.084094,0.988676,-0.345215,-0.249621,0.200872,-3.804558,-0.072216,5.937658,-10.922229,3.019628,-0.034139,-0.097967,0.000000,-0.375640,-0.019067,-0.000000
0.820000,-2.485265,-0.297406,-1.499245,0.677179,0.073704,-0.086593,0.990985,-0.383802,-0.250189,0.261174,-3.912366,-0.041189,6.094647,-10.610124,3.211523,-0.037949,-0.098189,0.000000,-0.386216,-0.025294,0.000000
0.830000,-2.478444,-0.296688,-1.500124,0.687103,0.069668,-0.089097,0.993902,-0.423448,-0.250435,0.322178,-4.016151,-0.007446,6.102027,-10.141164,3.540205,-0.041862,-0.098474,0.000000,-0.396411,-0.031615,0.000000
0.840000,-2.471523,-0.296014,-1.501027,0.697059,0.065231,-0.091601,0.997430,-0.464110,-0.250328,0.383648,-4.115577,0.029192,6.213697,-9.763419,3.766488,-0.045875,-0.098822,0.000000,-0.406198,-0.038008,-0.000000
0.850000,-2.464503,-0.295385,-1.501956,0.707053,0.060383,-0.094102,1.001578,-0.505747,-0.249844,0.446171,-4.211110,0.068135,6.262514,-9.313753,4.048125,-0.049985,-0.099235,0.000000,-0.415623,-0.044528,0.000000
0.860000,-2.457382,-0.294807,-1.502909,0.717092,0.055113,-0.096597,1.006353,-0.548316,-0.248954,0.508828,-4.301740,0.110456,6.290599,-8.832146,4.351331,-0.054186,-0.099714,0.000000,-0.424597,-0.051096,0.000000
0.870000,-2.450161,-0.294284,-1.503888,0.727182,0.049414,-0.099080,1.011758,-0.591768,-0.247630,0.572173,-4.387879,0.154594,6.348600,-8.366438,4.544377,-0.058475,-0.100259,0.000000,-0.433157,-0.057751,0.000000
0.880000,-2.442838,-0.293821,-1.504891,0.737330,0.043275,-0.101548,1.017796,-0.636055,-0.245848,0.635176,-4.468460,0.202769,6.247924,-7.743943,5.095213,-0.062848,-0.100871,0.000000,-0.441216,-0.064417,0.000000
0.890000,-2.435414,-0.293420,-1.505918,0.747540,0.036690,-0.103995,1.024459,-0.681117,-0.243560,0.697599,-4.543144,0.255229,6.259864,-7.211947,5.333476,-0.067298,-0.101550,0.000000,-0.448749,-0.071074,-0.000000
0.900000,-2.427887,-0.293088,-1.506970,0.757821,0.029651,-0.106417,1.031748,-0.726900,-0.240737,0.760072,-4.612390,0.310052,6.205537,-6.607965,5.699597,-0.071821,-0.102296,0.000000,-0.455796,-0.077768,0.000000
0.910000,-2.420257,-0.292829,-1.508047,0.768177,0.022150,-0.108808,1.039657,-0.773343,-0.237342,0.821548,-4.675243,0.369627,6.128237,-5.973211,6.091264,-0.076412,-0.103109,0.000000,-0.462286,-0.084421,-0.000000
0.920000,-2.412523,-0.292647,-1.509147,0.778616,0.014182,-0.111162,1.048180,-0.820384,-0.233341,0.882954,-4.731895,0.430763,6.108980,-5.337011,6.261325,-0.081065,-0.103989,0.000000,-0.468222,-0.091095,0.000000
0.930000,-2.404685,-0.292547,-1.510270,0.789143,0.005740,-0.113473,1.057311,-0.867958,-0.228707,0.942809,-4.781564,0.497484,5.857365,-4.591285,7.089103,-0.085775,-0.104937,0.000000,-0.473565,-0.097689,-0.000000
0.940000,-2.396740,-0.292534,-1.511416,0.799764,-0.003179,-0.115734,1.067029,-0.915991,-0.223371,1.000857,-4.823925,0.570104,5.789980,-3.891066,7.313078,-0.090534,-0.105950,0.000000,-0.478299,-0.104184,0.000000
0.950000,-2.388689,-0.292612,-1.512584,0.810486,-0.012581,-0.117938,1.077326,-0.964413,-0.217300,1.058190,-4.859155,0.644853,5.633186,-3.134649,7.761593,-0.095338,-0.107029,0.000000,-0.482416,-0.110652,0.000000
0.960000,-2.380530,-0.292787,-1.513774,0.821313,-0.022468,-0.120077,1.088186,-1.013148,-0.210452,1.113390,-4.886474,0.725733,5.454289,-2.346518,8.234476,-0.100181,-0.108173,0.000000,-0.485887,-0.117000,0.000000
0.970000,-2.372262,-0.293063,-1.514986,0.832251,-0.032844,-0.122144,1.099592,-1.062117,-0.202784,1.167680,-4.906191,0.807906,5.351453,-1.570244,8.378381,-0.105054,-0.109380,0.000000,-0.488703,-0.123301,0.000000
0.980000,-2.363885,-0.293445,-1.516217,0.843306,-0.043711,-0.124130,1.111530,-1.111243,-0.194269,1.219323,-4.917323,0.897039,4.972399,-0.650384,9.455254,-0.109952,-0.110652,0.000000,-0.490836,-0.129448,0.000000
0.990000,-2.355396,-0.293939,-1.517468,0.854483,-0.055070,-0.126026,1.123968,-1.160434,-0.184818,1.268065,-4.919540,0.993467,4.822842,0.189890,9.653365,-0.114868,-0.111985,0.000000,-0.492272,-0.135428,0.000000
1.000000,-2.346795,-0.294548,-1.518737,0.865787,-0.066920,-0.127823,1.136887,-1.209605,-0.174397,1.315304,-4.913240,1.091640,4.571921,1.096824,10.159959,-0.119795,-0.113378,0.000000,-0.492999,-0.141320,-0.000000
1.010000,-2.338080,-0.295279,-1.520024,0.877223,-0.079261,-0.129511,1.150263,-1.258666,-0.162959,1.359431,-4.897346,1.196962,4.301419,2.037055,10.684156,-0.124726,-0.114831,0.000000,-0.492984,-0.147032,0.000000
1.020000,-2.329250,-0.296135,-1.521327,0.888794,-0.092092,-0.131079,1.164071,-1.307525,-0.150458,1.401745,-4.872861,1.303299,4.109564,2.913092,10.797566,-0.129653,-0.116341,0.000000,-0.492260,-0.152629,0.000000
1.030000,-2.320303,-0.297122,-1.522645,0.900505,-0.105411,-0.132516,1.178286,-1.356089,-0.136865,1.440537,-4.837977,1.417409,3.644750,4.069902,12.030859,-0.134568,-0.117909,0.000000,-0.490745,-0.158024,0.000000
1.040000,-2.311239,-0.298245,-1.523977,0.912361,-0.119213,-0.133812,1.192868,-1.404248,-0.122081,1.475587,-4.792346,1.539572,3.412482,5.012170,12.184624,-0.139465,-0.119530,0.000000,-0.488425,-0.163207,0.000000
1.050000,-2.302056,-0.299508,-1.525321,0.924364,-0.133494,-0.134954,1.207791,-1.451905,-0.106074,1.508320,-4.737229,1.662912,3.082151,6.064431,12.698334,-0.144334,-0.121204,0.000000,-0.485339,-0.168244,0.000000
1.060000,-2.292751,-0.300917,-1.526675,0.936518,-0.148249,-0.135929,1.223021,-1.498954,-0.088796,1.537159,-4.670693,1.793638,2.735968,7.151063,13.214637,-0.149169,-0.122930,0.000000,-0.481393,-0.173060,-0.000000
1.070000,-2.283325,-0.302475,-1.528039,0.948825,-0.163471,-0.136725,1.238527,-1.545290,-0.070203,1.563481,-4.595004,1.925042,2.475618,8.084187,13.287274,-0.153960,-0.124704,0.000000,-0.476717,-0.177714,0.000000
1.080000,-2.273774,-0.304188,-1.529409,0.961289,-0.179152,-0.137329,1.254276,-1.590812,-0.050268,1.585566,-4.506970,2.064018,1.938069,9.529656,14.511706,-0.158700,-0.126526,0.000000,-0.471110,-0.182129,-0.000000
1.090000,-2.264098,-0.306059,-1.530785,0.973911,-0.195284,-0.137726,1.270223,-1.635386,-0.028895,1.603237,-4.406215,2.210686,1.645838,10.531215,14.592469,-0.163379,-0.128392,0.000000,-0.464547,-0.186295,0.000000
1.100000,-2.254296,-0.308095,-1.532163,0.986694,-0.211856,-0.137902,1.286332,-1.678904,-0.006057,1.618019,-4.295470,2.357703,1.257676,11.715315,15.030971,-0.167988,-0.130301,0.000000,-0.457182,-0.190278,-0.000000
1.110000,-2.244364,-0.310298,-1.533542,0.999638,-0.228858,-0.137842,1.302568,-1.721250,0.018282,1.628361,-4.171444,2.510931,0.859179,12.933103,15.443964,-0.172519,-0.132251,0.000000,-0.448790,-0.194004,-0.000000
1.120000,-2.234302,-0.312673,-1.534919,1.012746,-0.246277,-0.137531,1.318890,-1.762305,0.044161,1.635638,-4.038214,2.664948,0.546918,13.871621,15.513912,-0.176962,-0.134239,0.000000,-0.439677,-0.197545,-0.000000
1.130000,-2.224109,-0.315225,-1.536292,1.026016,-0.264100,-0.136954,1.335265,-1.801965,0.071600,1.638268,-3.890685,2.824447,-0.023194,15.641984,16.383997,-0.181309,-0.136264,0.000000,-0.429423,-0.200810,0.000000
1.140000,-2.213781,-0.317956,-1.537657,1.039451,-0.282311,-0.136094,1.351639,-1.840069,0.100669,1.636136,-3.728464,2.989238,-0.355043,16.647995,16.404595,-0.185546,-0.138321,0.000000,-0.417985,-0.203793,0.000000
1.150000,-2.203319,-0.320872,-1.539013,1.053049,-0.300895,-0.134935,1.367977,-1.876504,0.131382,1.630742,-3.556343,3.153756,-0.772525,17.935048,16.651460,-0.189666,-0.140410,0.000000,-0.405721,-0.206570,-0.000000
1.160000,-2.192720,-0.323976,-1.540355,1.066810,-0.319835,-0.133460,1.384238,-1.911142,0.163757,1.620760,-3.368970,3.321610,-1.191901,19.256379,16.841820,-0.193656,-0.142527,0.000000,-0.392163,-0.209063,0.000000
1.170000,-2.181982,-0.327270,-1.541681,1.080733,-0.339112,-0.131654,1.400381,-1.943862,0.197814,1.607199,-3.173804,3.489770,-1.551230,20.054635,16.846122,-0.197507,-0.144670,0.000000,-0.377970,-0.211333,-0.000000
1.180000,-2.171105,-0.330759,-1.542987,1.094817,-0.358706,-0.129499,1.416367,-1.974561,0.233558,1.589084,-2.962049,3.659706,-2.072463,22.305987,17.132033,-0.201211,-0.146837,0.000000,-0.362286,-0.213304,-0.000000
1.190000,-2.160085,-0.334445,-1.544269,1.109060,-0.378596,-0.126977,1.432147,-2.003044,0.271012,1.566391,-2.733268,3.830844,-2.434075,23.171295,17.016831,-0.204748,-0.149023,0.000000,-0.345032,-0.214969,0.000000
1.200000,-2.148923,-0.338332,-1.545525,1.123459,-0.398759,-0.124073,1.447684,-2.029204,0.310169,1.540149,-2.496252,4.000361,-2.844874,24.509846,16.940281,-0.208109,-0.151227,0.000000,-0.326993,-0.216387,0.000000
1.210000,-2.137616,-0.342421,-1.546749,1.138013,-0.419171,-0.120768,1.462936,-2.052910,0.351014,1.509655,-2.242623,4.168303,-3.248399,25.865340,16.765558,-0.211282,-0.153445,0.000000,-0.307304,-0.217488,0.000000
1.220000,-2.126162,-0.346716,-1.547939,1.152717,-0.439808,-0.117047,1.477864,-2.074040,0.393538,1.475243,-1.982193,4.336603,-3.636664,26.558194,16.752332,-0.214254,-0.155675,0.000000,-0.286950,-0.218332,0.000000
1.230000,-2.114561,-0.351218,-1.549089,1.167569,-0.460643,-0.112892,1.492428,-2.092494,0.437730,1.436864,-1.704378,4.500374,-4.037791,29.012695,15.982594,-0.217014,-0.157913,0.000000,-0.264726,-0.218835,-0.000000
1.240000,-2.102810,-0.355929,-1.550195,1.182564,-0.481649,-0.108287,1.506588,-2.108066,0.483526,1.394605,-1.408868,4.658526,-4.407884,29.743164,15.760837,-0.219541,-0.160155,0.000000,-0.240521,-0.218980,0.000000
1.250000,-2.090909,-0.360851,-1.551253,1.197699,-0.502795,-0.103216,1.520308,-2.120655,0.530894,1.348708,-1.106685,4.814163,-4.773513,31.030488,15.222075,-0.221822,-0.162399,0.000000,-0.215459,-0.218834,-0.000000
1.260000,-2.078856,-0.365986,-1.552258,1.212969,-0.524051,-0.097664,1.533550,-2.130142,0.579776,1.299284,-0.788401,4.960818,-5.123928,32.301531,14.540202,-0.223843,-0.164641,0.000000,-0.188384,-0.218294,0.000000
1.270000,-2.066649,-0.371333,-1.553205,1.228368,-0.545387,-0.091616,1.546281,-2.136407,0.630123,1.246139,-0.463713,5.108743,-5.487864,32.939310,14.591965,-0.225588,-0.166876,0.000000,-0.160452,-0.217502,0.000000
1.280000,-2.054288,-0.376893,-1.554089,1.243893,-0.566769,-0.085057,1.558463,-2.139361,0.681903,1.189887,-0.123253,5.243164,-5.759425,35.154594,12.260448,-0.227045,-0.169102,0.000000,-0.130303,-0.216257,-0.000000
1.290000,-2.041771,-0.382668,-1.554904,1.259536,-0.588162,-0.077973,1.570069,-2.138817,0.734932,1.130713,0.232946,5.362389,-6.086949,35.763546,12.005477,-0.228186,-0.171313,0.000000,-0.097807,-0.214524,-0.000000
1.300000,-2.029097,-0.388657,-1.555646,1.275292,-0.609533,-0.070354,1.581066,-2.134690,0.789150,1.068338,0.594484,5.479177,-6.370479,36.845919,10.894822,-0.228998,-0.173506,0.000000,-0.064258,-0.212488,0.000000
1.310000,-2.016265,-0.394859,-1.556309,1.291155,-0.630844,-0.062187,1.591429,-2.126879,0.844450,1.003747,0.969576,5.578407,-6.625853,37.875842,9.622745,-0.229463,-0.175675,0.000000,-0.028366,-0.209956,0.000000
1.320000,-2.003274,-0.401273,-1.556888,1.307118,-0.652058,-0.053462,1.601126,-2.115288,0.900730,0.935141,1.349136,5.677610,-7.012563,38.300209,9.529382,-0.229562,-0.177817,0.000000,0.008585,-0.207044,0.000000
1.330000,-1.990122,-0.407899,-1.557377,1.323175,-0.673137,-0.044169,1.610128,-2.099853,0.957923,0.865233,1.741124,5.754559,-6.962766,40.091963,5.821126,-0.229282,-0.179926,0.000000,0.048054,-0.203600,0.000000
1.340000,-1.976810,-0.414735,-1.557770,1.339319,-0.694042,-0.034301,1.618429,-2.080424,1.015735,0.794361,2.145080,5.807219,-7.287548,40.404246,5.368950,-0.228592,-0.181996,0.000000,0.090149,-0.199581,0.000000
1.350000,-1.963335,-0.421779,-1.558061,1.355541,-0.714732,-0.023853,1.626003,-2.056949,1.074066,0.720240,2.551259,5.855834,-7.452712,41.093179,3.662170,-0.227476,-0.184022,0.000000,0.133424,-0.195113,0.000000
1.360000,-1.949699,-0.429029,-1.558245,1.371836,-0.735167,-0.012819,1.632832,-2.029376,1.132758,0.645501,2.964158,5.878957,-7.587171,41.639642,1.798954,-0.225916,-0.185999,0.000000,0.178968,-0.190022,0.000000
1.370000,-1.935899,-0.436482,-1.558315,1.388195,-0.755306,-0.001197,1.638901,-1.997635,1.191651,0.567694,3.385251,5.899331,-7.876419,42.393079,1.431404,-0.223890,-0.187920,0.000000,0.226463,-0.184475,0.000000
1.380000,-1.921935,-0.444134,-1.558267,1.404612,-0.775106,0.011015,1.644187,-1.961666,1.250639,0.490026,3.808124,5.889881,-7.649811,42.155551,-3.362725,-0.221380,-0.189781,0.000000,0.275964,-0.178233,-0.000000
1.390000,-1.907806,-0.451983,-1.558093,1.421077,-0.794525,0.023815,1.648704,-1.921473,1.309335,0.412892,4.231297,5.848535,-7.866965,42.624998,-4.084505,-0.218365,-0.191572,0.000000,0.327411,-0.171247,0.000000
1.400000,-1.893513,-0.460023,-1.557788,1.437583,-0.813521,0.037200,1.652436,-1.877023,1.367603,0.333579,4.658745,5.800811,-7.896841,42.673878,-6.306659,-0.214826,-0.193287,0.000000,0.380664,-0.163728,0.000000
1.410000,-1.879054,-0.468251,-1.557347,1.454123,-0.832051,0.051165,1.655373,-1.828319,1.425230,0.253598,5.081303,5.720162,-7.924014,42.513279,-8.678171,-0.210747,-0.194919,0.000000,0.435380,-0.155231,0.000000
1.420000,-1.864430,-0.476663,-1.556763,1.470688,-0.850073,0.065702,1.657522,-1.775348,1.482020,0.176765,5.514957,5.637673,-7.603307,43.513528,-8.951448,-0.206109,-0.196463,0.000000,0.492652,-0.146842,-0.000000
1.430000,-1.849641,-0.485251,-1.556031,1.487271,-0.867544,0.080802,1.658901,-1.718065,1.537850,0.098154,5.936812,5.517394,-8.119121,40.810627,-15.147313,-0.200891,-0.197915,0.000000,0.550732,-0.137177,0.000000
1.440000,-1.834685,-0.494011,-1.555145,1.503863,-0.884421,0.096454,1.659478,-1.656664,1.592226,0.017839,6.344387,5.357293,-7.771329,41.363544,-15.745796,-0.195093,-0.199258,0.000000,0.609274,-0.126135,0.000000
1.450000,-1.819563,-0.502937,-1.554100,1.520458,-0.900663,0.112641,1.659274,-1.591146,1.645000,-0.058584,6.757731,5.192762,-7.674290,40.595272,-18.293565,-0.188698,-0.200488,0.000000,0.669739,-0.115145,0.000000
1.460000,-1.804276,-0.512022,-1.552891,1.537046,-0.916230,0.129348,1.658326,-1.521545,1.695965,-0.130205,7.161105,4.995801,-7.444863,39.742132,-20.814780,-0.181696,-0.201601,0.000000,0.730854,-0.103651,0.000000
1.470000,-1.788822,-0.521260,-1.551512,1.553622,-0.931081,0.146554,1.656613,-1.447980,1.744856,-0.214746,7.549162,4.779108,-8.680956,38.141784,-22.801515,-0.174084,-0.202586,0.000000,0.791487,-0.089860,-0.000000
1.480000,-1.773203,-0.530642,-1.549958,1.570176,-0.945177,0.164237,1.654076,-1.370585,1.791450,-0.287407,7.929685,4.533965,-5.822355,37.943106,-26.232609,-0.165864,-0.203428,0.000000,0.852653,-0.076434,-0.000000
1.490000,-1.757419,-0.540160,-1.548225,1.586701,-0.958480,0.182374,1.650915,-1.289413,1.835437,-0.346826,8.301342,4.260175,-6.841849,36.054330,-28.238747,-0.157030,-0.204139,0.000000,0.913974,-0.063555,0.000000
1.500000,-1.741470,-0.549808,-1.546309,1.603192,-0.970953,0.200937,1.647088,-1.204631,1.876594,-0.417503,8.652740,3.966927,-6.507595,34.497181,-30.682617,-0.147591,-0.204706,0.000000,0.973554,-0.048538,0.000000
1.510000,-1.725355,-0.559577,-1.544205,1.619641,-0.982561,0.219896,1.642589,-1.116478,1.914689,-0.481939,8.972771,3.648077,-6.220234,32.409930,-33.057112,-0.137571,-0.205120,0.000000,1.029902,-0.033314,0.000000
1.520000,-1.709077,-0.569457,-1.541910,1.636041,-0.993272,0.239219,1.637472,-1.025010,1.949479,-0.540412,9.327307,3.306193,-5.623126,35.623214,-35.326889,-0.126972,-0.205379,0.000000,1.090676,-0.017939,0.000000
1.530000,-1.692635,-0.579439,-1.539420,1.652388,-1.003050,0.258873,1.631784,-0.930143,1.980736,-0.597532,9.624931,2.941400,-5.803097,23.784612,-37.617613,-0.115784,-0.205480,0.000000,1.144364,-0.001887,0.000000
1.540000,-1.676029,-0.589514,-1.536732,1.668675,-1.011866,0.278822,1.625525,-0.832742,2.008233,-0.653363,9.860003,2.554550,-5.208082,26.075423,-39.715878,-0.104116,-0.205415,0.000000,1.189718,0.014797,0.000000
1.550000,-1.659261,-0.599673,-1.533843,1.684897,-1.019696,0.299025,1.618740,-0.732805,2.031759,-0.702956,10.121545,2.147281,-4.861107,23.345558,-41.738673,-0.091976,-0.205183,0.000000,1.237373,0.031423,0.000000
1.560000,-1.642332,-0.609905,-1.530750,1.701048,-1.026514,0.319443,1.611464,-0.630501,2.051122,-0.751944,10.333607,1.722272,-4.538230,20.499302,-43.598936,-0.079397,-0.204782,0.000000,1.277462,0.048557,0.000000
1.570000,-1.625241,-0.620200,-1.527453,1.717125,-1.032299,0.340033,1.603745,-0.526111,2.066116,-0.790041,10.544502,1.272465,-3.464438,20.250027,-45.992447,-0.066429,-0.204211,0.000000,1.315709,0.065051,0.000000
1.580000,-1.607989,-0.630547,-1.523949,1.733122,-1.037030,0.360750,1.595657,-0.419778,2.076532,-0.829281,10.708633,0.810186,-4.394119,12.516053,-46.427233,-0.053111,-0.203476,0.000000,1.345873,0.082005,-0.000000
1.590000,-1.590578,-0.640937,-1.520238,1.749036,-1.040690,0.381548,1.587151,-0.312115,2.082287,-0.870108,10.823075,0.337440,-3.381238,11.783649,-48.444391,-0.039543,-0.202567,0.000000,1.367241,0.099355,0.000000
1.600000,-1.573009,-0.651358,-1.516318,1.764864,-1.043269,0.402379,1.578297,-0.203310,2.083208,-0.900173,10.931980,-0.155163,-3.017524,8.567415,-49.698293,-0.025774,-0.201491,0.000000,1.385180,0.115733,0.000000
1.610000,-1.555282,-0.661799,-1.512190,1.780601,-1.044754,0.423196,1.569167,-0.093586,2.079181,-0.924894,11.008174,-0.651233,-2.550708,5.517617,-50.663393,-0.011863,-0.200255,0.000000,1.395964,0.131316,-0.000000
1.620000,-1.537397,-0.672249,-1.507855,1.796246,-1.045138,0.443946,1.559764,0.016658,2.070059,-0.956918,11.031659,-1.178647,-3.246158,0.286805,-53.644094,0.002110,-0.198858,0.000000,1.396937,0.148299,0.000000
1.630000,-1.519357,-0.682698,-1.503312,1.811796,-1.044420,0.464579,1.550072,0.126995,2.055639,-0.977063,11.037189,-1.699455,-0.763464,0.850838,-50.448681,0.016058,-0.197296,0.000000,1.392385,0.163266,-0.000000
1.640000,-1.501162,-0.693134,-1.498564,1.827247,-1.042598,0.485042,1.540270,0.237356,2.036113,-0.984459,11.026126,-2.210089,-1.328599,-4.187897,-52.798834,0.029941,-0.195601,0.000000,1.382598,0.175975,0.000000
1.650000,-1.482812,-0.703546,-1.493612,1.842601,-1.039674,0.505284,1.530350,0.347324,2.011336,-0.998439,10.962966,-2.744941,-0.857542,-7.323657,-52.986097,0.043675,-0.193770,0.000000,1.363083,0.189607,0.000000
1.660000,-1.464310,-0.713924,-1.488459,1.857854,-1.035655,0.525251,1.520327,0.456516,1.981267,-1.005636,10.869573,-3.268147,-0.446671,-10.603592,-52.896607,0.057181,-0.191811,0.000000,1.336925,0.201579,-0.000000
1.670000,-1.445656,-0.724255,-1.483108,1.873007,-1.030548,0.544891,1.510262,0.564668,1.945876,-1.006149,10.757862,-3.813916,0.210062,-12.459562,-54.983818,0.070398,-0.189735,0.000000,1.305616,0.212687,-0.000000
1.680000,-1.426850,-0.734531,-1.477562,1.888059,-1.024365,0.564150,1.500211,0.671532,1.905060,-1.004251,10.605263,-4.341125,0.163241,-18.075114,-50.384488,0.083268,-0.187551,0.000000,1.266949,0.222449,-0.000000
1.690000,-1.407895,-0.744739,-1.471826,1.903011,-1.017123,0.582976,1.490183,0.776629,1.859138,-1.000255,10.411238,-4.845963,0.766812,-19.986188,-51.798728,0.095714,-0.185275,0.000000,1.221437,0.230830,-0.000000
1.700000,-1.388790,-0.754870,-1.465904,1.917863,-1.008840,0.601316,1.480229,0.879711,1.808068,-0.990104,10.199549,-5.365793,1.127327,-23.069392,-50.886659,0.107685,-0.182916,0.000000,1.171977,0.238191,0.000000
1.710000,-1.369538,-0.764913,-1.459802,1.932616,-0.999536,0.619120,1.470386,0.980505,1.751921,-0.977925,9.954548,-5.860850,1.460185,-26.007979,-49.675837,0.119136,-0.180488,0.000000,1.117577,0.244147,0.000000
1.720000,-1.350138,-0.774857,-1.453524,1.947272,-0.989238,0.636338,1.460694,1.078698,1.690766,-0.959541,9.678884,-6.373236,2.062425,-29.016674,-51.231834,0.130020,-0.178001,0.000000,1.058433,0.249146,0.000000
1.730000,-1.330593,-0.784694,-1.447077,1.961831,-0.977972,0.652918,1.451199,1.173994,1.624578,-0.939916,9.376491,-6.852581,1.853879,-31.438116,-44.558627,0.140295,-0.175467,0.000000,0.996216,0.252720,0.000000
1.740000,-1.310902,-0.794414,-1.440468,1.976296,-0.965769,0.668814,1.441897,1.266144,1.553850,-0.919497,9.048752,-7.294919,2.377811,-34.176677,-45.432285,0.149937,-0.172901,0.000000,0.931716,0.254927,-0.000000
1.750000,-1.291067,-0.804007,-1.433703,1.990670,-0.952661,0.683980,1.432829,1.354879,1.478618,-0.893737,8.694222,-7.747486,2.617895,-36.613160,-43.506635,0.158919,-0.170314,0.000000,0.864365,0.256254,0.000000
1.760000,-1.271089,-0.813464,-1.426791,2.004954,-0.938683,0.698372,1.424026,1.439987,1.399014,-0.866485,8.324709,-8.169639,2.838674,-38.730451,-41.460886,0.167225,-0.167715,0.000000,0.796630,0.256385,0.000000
1.770000,-1.250968,-0.822777,-1.419739,2.019151,-0.923874,0.711947,1.415507,1.521186,1.315251,-0.836961,7.906672,-8.581391,3.050429,-43.422198,-40.321219,0.174835,-0.165116,0.000000,0.724704,0.255692,0.000000
1.780000,-1.230706,-0.831939,-1.412555,2.033265,-0.908274,0.724664,1.407292,1.598125,1.227487,-0.805801,7.486794,-8.964174,3.176046,-40.478098,-36.197295,0.181726,-0.162526,0.000000,0.654588,0.253958,0.000000
1.790000,-1.210303,-0.840940,-1.405248,2.047298,-0.891925,0.736484,1.399395,1.670939,1.136075,-0.773336,7.068902,-9.315967,3.321968,-44.507217,-34.692721,0.187936,-0.159955,0.000000,0.586919,0.251271,0.000000
1.800000,-1.189760,-0.849775,-1.397828,2.061254,-0.874870,0.747374,1.391830,1.739340,1.041207,-0.739565,6.609519,-9.652998,3.415592,-45.901842,-32.147760,0.193453,-0.157412,0.000000,0.516802,0.247991,-0.000000
1.810000,-1.169078,-0.858436,-1.390304,2.075136,-0.857154,0.757298,1.384606,1.803145,0.943123,-0.705155,6.150289,-9.959160,3.472561,-47.060420,-29.496569,0.198282,-0.154904,0.000000,0.449315,0.243974,0.000000
1.820000,-1.148258,-0.866916,-1.382686,2.088947,-0.838823,0.766226,1.377729,1.862217,0.842079,-0.670127,5.658408,-10.246587,3.514786,-50.165928,-27.563025,0.202434,-0.152437,0.000000,0.380802,0.239495,0.000000
1.830000,-1.127300,-0.875210,-1.374983,2.102691,-0.819926,0.774130,1.371203,1.916337,0.738303,-0.635238,5.171080,-10.501514,3.455943,-47.230536,-23.399719,0.205911,-0.150016,0.000000,0.315622,0.234467,-0.000000
1.840000,-1.106204,-0.883313,-1.367206,2.116372,-0.800512,0.780984,1.365023,1.965674,0.632164,-0.600904,4.691915,-10.722784,3.415830,-49.694253,-21.264906,0.208760,-0.147648,0.000000,0.254123,0.228981,0.000000
1.850000,-1.084972,-0.891219,-1.359367,2.129993,-0.780629,0.786767,1.359183,2.010071,0.523910,-0.567165,4.187452,-10.923147,3.313087,-50.040876,-18.386324,0.210991,-0.145336,0.000000,0.192573,0.223292,-0.000000
1.860000,-1.063605,-0.898924,-1.351475,2.143557,-0.760327,0.791457,1.353665,2.049452,0.413805,-0.536996,3.688801,-11.092994,3.122330,-50.192176,-15.520248,0.212623,-0.143081,0.000000,0.134362,0.217598,0.000000
1.870000,-1.042101,-0.906424,-1.343541,2.157067,-0.739657,0.795037,1.348469,2.083802,0.302150,-0.501101,3.179353,-11.232976,3.652521,-51.141626,-12.535031,0.213682,-0.140887,0.000000,0.077699,0.211010,0.000000
1.880000,-1.020463,-0.913716,-1.335578,2.170528,-0.718668,0.797495,1.343616,2.113069,0.189239,-0.472420,2.677599,-11.344955,2.064054,-49.158708,-9.865409,0.214189,-0.138760,0.000000,0.024349,0.204909,0.000000
1.890000,-0.998691,-0.920797,-1.327595,2.183940,-0.697412,0.798819,1.338990,2.137393,0.075343,-0.451936,2.186311,-11.429173,2.426298,-49.591377,-6.923841,0.214181,-0.136691,0.000000,-0.025570,0.199394,0.000000
1.900000,-0.976785,-0.927664,-1.319605,2.197308,-0.675937,0.799000,1.334598,2.156772,-0.039246,-0.427435,1.690915,-11.484055,2.067473,-48.929498,-4.119607,0.213683,-0.134682,0.000000,-0.073607,0.193263,0.000000
1.910000,-0.954745,-0.934315,-1.311619,2.210633,-0.654292,0.798033,1.330413,2.171287,-0.154269,-0.410238,1.214627,-11.516723,1.660490,-47.922299,-1.468343,0.212723,-0.132733,0.000000,-0.117783,0.187738,0.000000
1.920000,-0.932572,-0.940749,-1.303648,2.223917,-0.632527,0.795914,1.326403,2.180969,-0.269415,-0.391639,0.718142,-11.504839,1.766454,-49.765220,2.907187,0.211326,-0.130843,0.000000,-0.161547,0.181708,-0.000000
1.930000,-0.910267,-0.946965,-1.295705,2.237162,-0.610689,0.792645,1.322552,2.185767,-0.384324,-0.381049,0.253067,-11.478278,0.336703,-43.170981,2.363355,0.209508,-0.129014,0.000000,-0.200738,0.176471,0.000000
1.940000,-0.887829,-0.952963,-1.287799,2.250368,-0.588826,0.788228,1.318750,2.186161,-0.498946,-0.379226,-0.176631,-11.439093,0.311270,-44.334148,6.394937,0.207328,-0.127232,0.000000,-0.235264,0.172089,-0.000000
1.950000,-0.865260,-0.958742,-1.279944,2.263537,-0.566981,0.782668,1.314972,2.182162,-0.612952,-0.377389,-0.619546,-11.358626,-0.237475,-42.634390,8.749982,0.204802,-0.125498,0.000000,-0.269238,0.167400,0.000000
1.960000,-0.842559,-0.964302,-1.272150,2.276668,-0.545197,0.775972,1.311174,2.173873,-0.726083,-0.383212,-1.035064,-11.264265,-0.811110,-40.842963,10.971052,0.201956,-0.123810,0.000000,-0.299576,0.163444,0.000000
1.970000,-0.819726,-0.969646,-1.264428,2.289760,-0.523517,0.768150,1.307298,2.161491,-0.838095,-0.392581,-1.439621,-11.131580,-1.185202,-39.659427,14.707689,0.198819,-0.122162,0.000000,-0.327500,0.159557,0.000000
1.980000,-0.796763,-0.974773,-1.256790,2.302813,-0.501981,0.759215,1.303297,2.145165,-0.948685,-0.409479,-1.819705,-10.988123,-2.201911,-36.325304,13.938813,0.195416,-0.120552,0.000000,-0.352442,0.156408,0.000000
1.990000,-0.773670,-0.979686,-1.249247,2.315825,-0.480626,0.749181,1.299081,2.125187,-1.057835,-0.434305,-2.173581,-10.836181,-2.647603,-34.822858,17.278863,0.191780,-0.118970,0.000000,-0.374430,0.154030,-0.000000
2.000000,-0.750447,-0.984387,-1.241810,2.328794,-0.459488,0.738064,1.294598,2.101737,-1.165280,-0.463506,-2.512504,-10.650148,-3.314637,-32.556548,19.061686,0.187935,-0.117413,0.000000,-0.394170,0.151822,0.000000
2.010000,-0.727095,-0.988877,-1.234490,2.341716,-0.438602,0.725882,1.289785,2.075019,-1.270823,-0.500426,-2.827312,-10.456220,-3.998697,-30.242884,20.669836,0.183905,-0.115876,0.000000,-0.411419,0.150348,0.000000
2.020000,-0.703613,-0.993160,-1.227296,2.354588,-0.417998,0.712655,1.284573,2.045281,-1.374274,-0.542852,-3.115740,-10.228271,-4.559459,-27.574830,23.961862,0.179717,-0.114354,0.000000,-0.425697,0.149134,0.000000
2.030000,-0.680003,-0.997238,-1.220240,2.367406,-0.397706,0.698405,1.278901,2.012778,-1.475384,-0.593138,-3.381615,-9.997078,-5.501409,-25.594566,22.227059,0.175397,-0.112842,0.000000,-0.437941,0.148689,0.000000
2.040000,-0.656265,-1.001115,-1.213331,2.380164,-0.377751,0.683155,1.272683,1.977724,-1.574221,-0.651469,-3.624539,-9.765173,-6.094138,-22.836953,25.079884,0.170964,-0.111331,0.000000,-0.448228,0.149025,-0.000000
2.050000,-0.632400,-1.004794,-1.206580,2.392858,-0.358159,0.666928,1.265853,1.940383,-1.670573,-0.715642,-3.839447,-9.503926,-6.812167,-20.283374,26.205801,0.166442,-0.109817,0.000000,-0.455812,0.149669,0.000000
2.060000,-0.608408,-1.008279,-1.199996,2.405479,-0.338950,0.649752,1.258346,1.901014,-1.764303,-0.787018,-4.030042,-9.240820,-7.519882,-17.703033,27.184727,0.161854,-0.108294,0.000000,-0.461492,0.150989,0.000000
2.070000,-0.584291,-1.011574,-1.193588,2.418022,-0.320144,0.631651,1.250085,1.859879,-1.855295,-0.866551,-4.192250,-8.953352,-8.331271,-14.861294,29.523426,0.157221,-0.106755,0.000000,-0.464699,0.152848,-0.000000
2.080000,-0.560048,-1.014684,-1.187366,2.430478,-0.301758,0.612656,1.240994,1.817251,-1.943379,-0.952473,-4.329865,-8.666819,-8.850256,-12.664851,27.740796,0.152566,-0.105196,0.000000,-0.466166,0.155319,0.000000
2.090000,-0.535681,-1.017611,-1.181338,2.442839,-0.283804,0.592793,1.231015,1.773362,-2.028648,-1.044640,-4.443019,-8.383393,-9.637047,-9.840631,29.700453,0.147903,-0.103610,0.000000,-0.465967,0.158394,0.000000
2.100000,-0.511192,-1.020361,-1.175513,2.455095,-0.266294,0.572093,1.220074,1.728487,-2.110966,-1.144709,-4.527788,-8.079727,-10.319085,-7.242385,30.244713,0.143254,-0.101992,0.000000,-0.463546,0.162002,-0.000000
2.110000,-0.486580,-1.022938,-1.169899,2.467237,-0.249236,0.550584,1.208101,1.682880,-2.190254,-1.250796,-4.589575,-7.777353,-10.981469,-4.704335,30.687943,0.138637,-0.100335,0.000000,-0.459657,0.166167,-0.000000
2.120000,-0.461847,-1.025347,-1.164504,2.479254,-0.232638,0.528298,1.195029,1.636813,-2.266461,-1.365071,-4.618159,-7.461917,-11.787627,-1.421380,31.925060,0.134070,-0.098634,0.000000,-0.453342,0.170942,0.000000
2.130000,-0.436995,-1.027593,-1.159335,2.491134,-0.216500,0.505265,1.180783,1.590581,-2.339503,-1.484744,-4.626595,-7.148781,-12.140974,-0.285686,30.674342,0.129573,-0.096883,0.000000,-0.445869,0.176223,0.000000
2.140000,-0.412025,-1.029679,-1.154401,2.502865,-0.200826,0.481518,1.165318,1.544342,-2.409453,-1.609500,-4.615886,-6.839395,-12.890285,2.825180,31.654264,0.125155,-0.095078,0.000000,-0.437339,0.181991,-0.000000
2.150000,-0.386938,-1.031611,-1.149707,2.514436,-0.185613,0.457087,1.148566,1.498375,-2.476249,-1.741760,-4.573734,-6.519871,-13.474100,5.189484,31.777181,0.120834,-0.093213,0.000000,-0.426641,0.188332,0.000000
2.160000,-0.361737,-1.033393,-1.145261,2.525832,-0.170857,0.432004,1.130468,1.452925,-2.539860,-1.878768,-4.512813,-6.202155,-14.026122,7.461673,31.855562,0.116626,-0.091283,0.000000,-0.414928,0.195118,0.000000
2.170000,-0.336422,-1.035029,-1.141069,2.537040,-0.156552,0.406300,1.110964,1.408233,-2.600283,-2.023138,-4.420339,-5.882029,-14.743086,10.556554,32.064482,0.112544,-0.089282,0.000000,-0.401147,0.202527,0.000000
2.180000,-0.310997,-1.036525,-1.137137,2.548046,-0.142689,0.380009,1.089993,1.364569,-2.657505,-2.171432,-4.311687,-5.563053,-14.907470,11.145858,31.720244,0.108605,-0.087205,0.000000,-0.386559,0.210314,0.000000
2.190000,-0.285462,-1.037885,-1.133471,2.558835,-0.129257,0.353161,1.067525,1.322044,-2.711550,-2.323205,-4.188313,-5.245805,-15.542662,13.982989,31.820717,0.104814,-0.085049,0.000000,-0.371273,0.218451,0.000000
2.200000,-0.259821,-1.039112,-1.130076,2.569392,-0.116243,0.325788,1.043506,1.280906,-2.762416,-2.481315,-4.036306,-4.927577,-15.973287,15.935811,31.722915,0.101186,-0.082810,0.000000,-0.354164,0.227152,-0.000000
2.210000,-0.234075,-1.040211,-1.126957,2.579700,-0.103633,0.297923,1.017890,1.241362,-2.810104,-2.642515,-3.869581,-4.610087,-16.363898,17.780361,31.622412,0.097733,-0.080482,0.000000,-0.336334,0.236177,0.000000
2.220000,-0.208228,-1.041186,-1.124119,2.589744,-0.091410,0.269597,0.990635,1.203606,-2.854634,-2.809422,-3.677467,-4.296562,-16.911061,20.249673,31.224693,0.094465,-0.078062,0.000000,-0.316957,0.245758,-0.000000
2.230000,-0.182281,-1.042040,-1.121566,2.599507,-0.079554,0.240841,0.961695,1.167852,-2.896033,-2.978506,-3.472827,-3.982593,-16.896269,20.648747,31.572269,0.091396,-0.075544,0.000000,-0.296994,0.255599,-0.000000
2.240000,-0.156239,-1.042778,-1.119303,2.608972,-0.068046,0.211687,0.931060,1.134183,-2.934282,-3.149243,-3.257246,-3.668060,-17.345642,22.828816,31.188166,0.088527,-0.072927,0.000000,-0.276544,0.265670,0.000000
2.250000,-0.130103,-1.043402,-1.117334,2.618123,-0.056863,0.182166,0.898693,1.102786,-2.969410,-3.324424,-3.019849,-3.357586,-17.582966,24.253540,31.053397,0.085870,-0.070208,0.000000,-0.254774,0.276223,0.000000
2.260000,-0.103877,-1.043916,-1.115661,2.626940,-0.045982,0.152309,0.864567,1.073814,-3.001427,-3.501018,-2.772646,-3.045767,-17.779418,25.545598,30.957059,0.083433,-0.067382,0.000000,-0.232558,0.287003,-0.000000
2.270000,-0.077565,-1.044323,-1.114289,2.635408,-0.035378,0.122147,0.828663,1.047405,-3.030357,-3.680336,-2.505850,-2.741668,-18.027854,27.427019,30.210144,0.081223,-0.064446,0.000000,-0.209172,0.298170,0.000000
2.280000,-0.051170,-1.044625,-1.113219,2.643508,-0.025025,0.091712,0.790959,1.023717,-3.056247,-3.860396,-2.232207,-2.434264,-17.975041,27.269953,31.285005,0.079250,-0.061398,0.000000,-0.185506,0.309524,-0.000000
2.290000,-0.024696,-1.044824,-1.112455,2.651221,-0.014895,0.061033,0.751455,1.002775,-3.079026,-4.040683,-1.953436,-2.122862,-18.124456,28.834254,30.651648,0.077513,-0.058236,0.000000,-0.161660,0.321039,0.000000
2.300000,0.001853,-1.044923,-1.111999,2.658531,-0.004960,0.030141,0.710140,0.984707,-3.098732,-4.222309,-1.659079,-1.818181,-18.143636,29.647100,30.636701,0.076020,-0.054957,0.000000,-0.136865,0.332863,0.000000
2.310000,0.028473,-1.044924,-1.111853,2.665418,0.004809,-0.000932,0.667014,0.969608,-3.115363,-4.402675,-1.359527,-1.507395,-18.099466,30.346785,30.721020,0.074777,-0.051559,0.000000,-0.111816,0.344755,0.000000
2.320000,0.055160,-1.044827,-1.112018,2.671865,0.014442,-0.032156,0.622074,0.957546,-3.128942,-4.585776,-1.051605,-1.211053,-18.340363,31.115042,29.334304,0.073785,-0.048041,0.000000,-0.086355,0.357115,0.000000
2.330000,0.081909,-1.044635,-1.112497,2.677853,0.023971,-0.063501,0.575310,0.948588,-3.139543,-4.765704,-0.739780,-0.904191,-17.631807,31.225306,32.068374,0.073050,-0.044398,0.000000,-0.060652,0.369404,0.000000
2.340000,0.108715,-1.044348,-1.113289,2.683365,0.033425,-0.094936,0.526774,0.942758,-3.146980,-4.941742,-0.425481,-0.585367,-17.742089,31.715002,30.913973,0.072573,-0.040633,0.000000,-0.034781,0.381593,0.000000
2.350000,0.135574,-1.043967,-1.114395,2.688383,0.042836,-0.126430,0.476469,0.940095,-3.151306,-5.118908,-0.106785,-0.279096,-17.509547,31.900353,31.132606,0.072355,-0.036744,0.000000,-0.008695,0.394161,0.000000
2.360000,0.162481,-1.043492,-1.115817,2.692889,0.052237,-0.157952,0.424410,0.940627,-3.152522,-5.292263,0.213320,0.036664,-17.231884,31.973645,31.405456,0.072399,-0.032730,0.000000,0.017529,0.406676,-0.000000
2.370000,0.189430,-1.042922,-1.117555,2.696865,0.061659,-0.189470,0.370627,0.944352,-3.150614,-5.464108,0.531092,0.343423,-17.053242,31.679393,30.553130,0.072705,-0.028589,0.000000,0.043535,0.419381,0.000000
2.380000,0.216417,-1.042258,-1.119607,2.700296,0.071135,-0.220954,0.315143,0.951250,-3.145615,-5.631577,0.848995,0.660460,-16.430317,31.882193,32.878234,0.073271,-0.024320,0.000000,0.069652,0.432024,0.000000
2.390000,0.243434,-1.041499,-1.121973,2.703163,0.080695,-0.252371,0.258013,0.961329,-3.137361,-5.794095,1.165826,0.988917,-16.142187,31.338375,32.210483,0.074098,-0.019925,0.000000,0.095827,0.444589,0.000000
2.400000,0.270478,-1.040644,-1.124654,2.705450,0.090372,-0.283690,0.199270,0.974543,-3.125872,-5.953615,1.476333,1.309914,-15.677651,30.861367,32.598367,0.075186,-0.015403,0.000000,0.121584,0.457276,0.000000
2.410000,0.297541,-1.039691,-1.127647,2.707143,0.100196,-0.314878,0.138916,0.990797,-3.111164,-6.117545,1.772036,1.631468,-15.362476,30.038412,32.846022,0.076526,-0.010751,0.000000,0.146344,0.470658,0.000000
2.420000,0.324619,-1.038639,-1.130951,2.708224,0.110198,-0.345902,0.077072,1.010099,-3.093142,-6.244697,2.093044,1.977297,-11.744542,32.411543,35.229327,0.078122,-0.005973,0.000000,0.173369,0.481561,0.000000
2.430000,0.351704,-1.037486,-1.134564,2.708680,0.120409,-0.376729,0.013957,1.032543,-3.071660,-6.387632,2.383521,2.313157,-16.884084,25.608663,31.913242,0.079985,-0.001083,0.000000,0.198195,0.494090,0.000000
2.440000,0.378790,-1.036230,-1.138485,2.708497,0.130857,-0.407325,-0.050753,1.057642,-3.046925,-6.548035,2.639793,2.637817,-13.481975,27.371829,34.129596,0.082077,0.003947,0.000000,0.220538,0.508385,0.000000
2.450000,0.405872,-1.034868,-1.142710,2.707660,0.141571,-0.437656,-0.116851,1.085435,-3.018804,-6.671460,2.915747,2.986479,-12.885842,26.059898,34.506799,0.084405,0.009108,0.000000,0.244813,0.520256,0.000000
2.460000,0.432941,-1.033398,-1.147237,2.706157,0.152575,-0.467689,-0.184076,1.115945,-2.987117,-6.768775,3.186128,3.354422,-11.544821,25.073567,35.397928,0.086974,0.014383,0.000000,0.269088,0.530577,0.000000
2.470000,0.459992,-1.031816,-1.152062,2.703975,0.163898,-0.497387,-0.252585,1.148885,-2.951985,-6.947931,3.389939,3.660584,-19.441349,18.507038,29.417124,0.089765,0.019789,0.000000,0.288079,0.547672,0.000000
2.480000,0.487018,-1.030119,-1.157183,2.701099,0.175559,-0.526719,-0.322762,1.183837,-2.913708,-7.055910,3.615456,4.017958,-1.994196,26.664935,42.170205,0.092745,0.025362,0.000000,0.309428,0.559781,-0.000000
2.490000,0.514012,-1.028304,-1.162595,2.697518,0.187583,-0.555648,-0.393404,1.221298,-2.871410,-7.085446,3.865410,4.431563,-8.786663,20.439247,36.934992,0.095964,0.031012,0.000000,0.333511,0.566402,-0.000000
2.500000,0.540966,-1.026366,-1.168295,2.693228,0.199992,-0.584134,-0.464806,1.260871,-2.825332,-7.190116,4.048121,4.787275,-7.280417,18.935318,37.804605,0.099393,0.036770,0.000000,0.352308,0.579325,0.000000
2.510000,0.567874,-1.024302,-1.174277,2.688219,0.212806,-0.612142,-0.537172,1.302158,-2.775563,-7.284496,4.202884,5.167511,-6.625152,16.598323,38.386802,0.103004,0.042656,0.000000,0.369509,0.592083,0.000000
2.520000,0.594728,-1.022108,-1.180536,2.682483,0.226041,-0.639633,-0.610070,1.345223,-2.721951,-7.276875,4.422001,5.556223,3.329694,22.736527,39.196739,0.106808,0.048643,0.000000,0.392331,0.597402,-0.000000
2.530000,0.621521,-1.019780,-1.187067,2.676018,0.239718,-0.666568,-0.682911,1.390305,-2.664429,-7.319088,4.563416,5.948097,-11.920115,5.388149,39.159911,0.110830,0.054690,0.000000,0.409544,0.607251,0.000000
2.540000,0.648246,-1.017313,-1.193865,2.668821,0.253850,-0.692908,-0.756678,1.436172,-2.602983,-7.417663,4.619791,6.342120,-2.922637,10.380970,39.778116,0.114976,0.060883,0.000000,0.420471,0.622255,0.000000
2.550000,0.674895,-1.014701,-1.200923,2.660884,0.268444,-0.718614,-0.830854,1.482968,-2.537564,-7.418767,4.732444,6.742046,-2.144136,7.641054,40.039501,0.119262,0.067188,0.000000,0.436450,0.630187,0.000000
2.560000,0.701461,-1.011942,-1.208235,2.652204,0.283512,-0.743646,-0.905108,1.530668,-2.468234,-7.429502,4.804443,7.121544,-0.909791,5.282472,39.761193,0.123693,0.073583,0.000000,0.449497,0.639427,-0.000000
2.570000,0.727937,-1.009030,-1.215794,2.642781,0.299059,-0.767966,-0.979477,1.578858,-2.394826,-7.445208,4.824419,7.572951,-1.334510,0.126848,46.696976,0.128241,0.080082,0.000000,0.459606,0.650212,-0.000000
2.580000,0.754315,-1.005959,-1.223592,2.632614,0.315089,-0.791528,-1.053928,1.627141,-2.316967,-7.437360,4.836695,7.975235,2.941618,2.365893,33.622343,0.132884,0.086690,0.000000,0.469136,0.659553,-0.000000
2.590000,0.780587,-1.002726,-1.231622,2.621703,0.331603,-0.814293,-1.128133,1.675582,-2.235536,-7.404136,4.842832,8.321993,2.817191,-2.580300,39.552045,0.137622,0.093383,0.000000,0.478071,0.667108,0.000000
2.600000,0.806746,-0.999326,-1.239875,2.610052,0.348600,-0.836226,-1.202034,1.723800,-2.150245,-7.373192,4.797187,8.733316,4.276610,-5.121307,38.868661,0.142434,0.100166,0.000000,0.484001,0.676047,0.000000
2.610000,0.832785,-0.995753,-1.248343,2.597664,0.366077,-0.857285,-1.275415,1.771521,-2.060901,-7.297314,4.744081,9.136663,6.257037,-7.551309,38.677435,0.147304,0.107030,0.000000,0.489781,0.681991,0.000000
2.620000,0.858697,-0.992003,-1.257018,2.584546,0.384028,-0.877431,-1.348291,1.818434,-1.967772,-7.290678,4.627245,9.477942,-0.409770,-13.833277,32.575436,0.152207,0.113981,0.000000,0.489917,0.693829,0.000000
2.630000,0.884474,-0.988071,-1.265889,2.570699,0.402441,-0.896629,-1.420950,1.864076,-1.871214,-7.210640,4.509045,9.851105,16.562352,-9.748754,42.132332,0.157106,0.121049,0.000000,0.490791,0.700638,-0.000000
2.640000,0.910109,-0.983952,-1.274947,2.556132,0.421306,-0.914841,-1.492202,1.908634,-1.770610,-7.050695,4.391990,10.259194,10.870322,-15.672731,36.420603,0.162029,0.128147,0.000000,0.492807,0.701864,0.000000
2.650000,0.935594,-0.979643,-1.284182,2.540859,0.440609,-0.932029,-1.562256,1.951673,-1.666291,-6.954573,4.212523,10.604921,12.892778,-18.226470,35.735719,0.166939,0.135297,0.000000,0.489054,0.708486,0.000000
2.660000,0.960924,-0.975139,-1.293584,2.524890,0.460333,-0.948156,-1.631242,1.992716,-1.558491,-6.843045,3.987821,10.952734,14.078154,-21.512593,34.620354,0.171797,0.142515,0.000000,0.481823,0.714563,0.000000
2.670000,0.986090,-0.970435,-1.303142,2.508239,0.480456,-0.963187,-1.698699,2.031743,-1.447209,-6.630154,3.830120,11.304340,23.962178,-15.078828,34.880259,0.176604,0.149769,0.000000,0.480827,0.712753,0.000000
2.680000,1.011086,-0.965528,-1.312844,2.490924,0.500962,-0.977088,-1.764018,2.068973,-1.332486,-6.459075,3.580226,11.633125,10.106309,-35.054405,30.824242,0.181383,0.157011,0.000000,0.471863,0.714828,0.000000
2.690000,1.035906,-0.960415,-1.322680,2.472962,0.521825,-0.989826,-1.828077,2.102977,-1.214639,-6.336441,3.231323,11.936325,18.991505,-29.619382,30.588719,0.186008,0.164322,0.000000,0.453915,0.721435,0.000000
2.700000,1.060543,-0.955091,-1.332637,2.454368,0.543012,-1.001371,-1.890348,2.133897,-1.093753,-6.118183,2.944738,12.237506,20.095066,-32.768262,28.818463,0.190489,0.171661,0.000000,0.441567,0.720361,0.000000
2.710000,1.084991,-0.949553,-1.342703,2.435163,0.564492,-1.011692,-1.950439,2.161727,-0.970030,-5.895838,2.618822,12.502152,21.759283,-35.195893,26.636810,0.194824,0.178994,0.000000,0.425184,0.718906,0.000000
2.720000,1.109244,-0.943800,-1.352866,2.415367,0.586234,-1.020762,-2.008422,2.185966,-0.843578,-5.707100,2.215433,12.793169,18.517585,-42.749579,29.057543,0.198967,0.186334,0.000000,0.402157,0.721406,0.000000
2.730000,1.133297,-0.937828,-1.363114,2.395001,0.608198,-1.028554,-2.064409,2.206087,-0.714363,-5.472392,1.821203,13.030659,28.497132,-35.991357,18.334947,0.202868,0.193696,0.000000,0.378825,0.719513,0.000000
2.740000,1.157143,-0.931635,-1.373433,2.374088,0.630344,-1.035043,-2.117686,2.222459,-0.583180,-5.188551,1.441123,13.209489,25.705377,-42.742589,19.907821,0.206545,0.201006,0.000000,0.355493,0.712501,0.000000
2.750000,1.180777,-0.925221,-1.383810,2.352656,0.652633,-1.040211,-2.168331,2.234625,-0.450067,-4.936732,0.990074,13.407029,27.198770,-44.712419,17.078674,0.209951,0.208272,0.000000,0.325439,0.709021,0.000000
2.760000,1.204194,-0.918582,-1.394233,2.330730,0.675021,-1.044039,-2.216334,2.242247,-0.315204,-4.662167,0.530803,13.560564,28.390563,-46.752138,14.195368,0.213047,0.215494,0.000000,0.293166,0.702895,0.000000
2.770000,1.227390,-0.911720,-1.404687,2.308338,0.697462,-1.046511,-2.261480,2.245205,-0.178906,-4.362831,0.058904,13.695911,30.797107,-47.954507,12.278451,0.215808,0.222646,0.000000,0.258624,0.694269,0.000000
2.780000,1.250359,-0.904633,-1.415158,2.285511,0.719909,-1.047613,-2.303586,2.243349,-0.041415,-4.060488,-0.435155,13.793667,29.637236,-50.839468,7.234117,0.218207,0.229706,0.000000,0.220269,0.684609,0.000000
2.790000,1.273099,-0.897322,-1.425634,2.262277,0.742312,-1.047336,-2.342691,2.236429,0.096830,-3.756869,-0.950129,13.851794,31.745650,-51.766995,4.951221,0.220200,0.236667,0.000000,0.177914,0.673889,0.000000
2.800000,1.295604,-0.889787,-1.436101,2.238667,0.764620,-1.045675,-2.378639,2.224326,0.235556,-3.431595,-1.472886,13.887411,32.622807,-53.107449,1.578059,0.221757,0.243506,0.000000,0.133050,0.660400,0.000000
2.810000,1.317871,-0.882030,-1.446543,2.214715,0.786781,-1.042625,-2.411318,2.206946,0.374421,-3.103042,-2.004347,13.878912,33.410900,-54.114257,-1.998750,0.222849,0.250201,0.000000,0.084849,0.645201,0.000000
2.820000,1.339897,-0.874052,-1.456948,2.190452,0.808741,-1.038187,-2.440648,2.184131,0.513119,-2.760588,-2.563334,13.859066,34.733856,-56.711206,-3.238497,0.223438,0.256730,0.000000,0.031993,0.627902,0.000000
2.830000,1.361679,-0.865856,-1.467302,2.165913,0.830445,-1.032364,-2.466524,2.155700,0.651421,-2.415618,-3.118186,13.787557,34.232161,-54.192505,-11.112468,0.223481,0.263071,0.000000,-0.023576,0.608416,-0.000000
2.840000,1.383214,-0.857444,-1.477591,2.141133,0.851837,-1.025162,-2.488959,2.121800,0.788680,-2.069649,-3.665354,13.662052,35.275554,-56.147186,-12.727815,0.222958,0.269200,0.000000,-0.081728,0.586571,0.000000
2.850000,1.404501,-0.848821,-1.487801,2.116146,0.872862,-1.016594,-2.507876,2.082310,0.924636,-1.713301,-4.232325,13.522129,35.643688,-56.265204,-16.524809,0.221830,0.275092,0.000000,-0.144521,0.562314,0.000000
2.860000,1.425537,-0.839989,-1.497918,2.090987,0.893465,-1.006675,-2.523236,2.037206,1.058954,-1.358671,-4.787598,13.334969,35.852046,-56.057974,-20.320782,0.220061,0.280721,0.000000,-0.209735,0.535747,0.000000
2.870000,1.446320,-0.830953,-1.507930,2.065693,0.913588,-0.995422,-2.534997,1.986463,1.191256,-0.991233,-5.364716,13.121131,37.044077,-58.055297,-23.014090,0.217614,0.286059,0.000000,-0.280501,0.505759,0.000000
2.880000,1.466850,-0.821719,-1.517823,2.040300,0.933175,-0.982857,-2.543087,1.929990,1.321224,-0.630187,-5.921228,12.862805,35.127279,-53.166706,-28.663156,0.214445,0.291074,0.000000,-0.353055,0.473584,-0.000000
2.890000,1.487126,-0.812291,-1.527583,2.014843,0.952170,-0.969007,-2.547633,1.868131,1.448358,-0.277527,-6.452927,12.559541,35.961597,-54.414481,-31.405647,0.210550,0.295746,0.000000,-0.426958,0.439222,-0.000000
2.900000,1.507147,-0.802677,-1.537199,1.989359,0.970519,-0.953901,-2.548598,1.800865,1.572338,0.083739,-6.997818,12.230021,35.696033,-53.244987,-35.059247,0.205887,0.300043,0.000000,-0.505896,0.401265,-0.000000
2.910000,1.526913,-0.792883,-1.546657,1.963883,0.988169,-0.937572,-2.545998,1.728281,1.692830,0.435219,-7.515632,11.862610,35.269762,-51.751604,-38.573442,0.200430,0.303938,0.000000,-0.585858,0.361135,-0.000000
2.920000,1.546425,-0.782916,-1.555946,1.938451,1.005067,-0.920057,-2.539854,1.650486,1.809461,0.795092,-8.045607,11.457373,36.014638,-52.775593,-42.294172,0.194150,0.307398,0.000000,-0.671108,0.316660,-0.000000
2.930000,1.565683,-0.772785,-1.565054,1.913098,1.021162,-0.901397,-2.530148,1.567497,1.921873,1.141046,-8.540378,11.020515,33.135857,-46.096334,-45.050332,0.187009,0.310387,0.000000,-0.756217,0.270365,0.000000
2.940000,1.584687,-0.762496,-1.573970,1.887859,1.036402,-0.881635,-2.517092,1.479821,2.029772,1.470982,-8.995697,10.553583,33.508811,-46.373455,-48.473242,0.179030,0.312896,0.000000,-0.840328,0.222501,0.000000
2.950000,1.603440,-0.752060,-1.582683,1.862767,1.050743,-0.860817,-2.500702,1.387545,2.132829,1.805105,-9.454885,10.052961,32.622148,-43.990875,-51.460369,0.170187,0.314894,0.000000,-0.928245,0.170547,-0.000000
2.960000,1.621943,-0.741484,-1.591183,1.837856,1.064138,-0.838995,-2.481052,1.290869,2.230760,2.122883,-9.875169,9.529156,31.594052,-41.349712,-54.178391,0.160473,0.316354,0.000000,-1.014472,0.117223,-0.000000
2.970000,1.640198,-0.730780,-1.599460,1.813157,1.076546,-0.816220,-2.458226,1.190026,2.323251,2.442879,-10.293355,8.961678,31.730054,-40.978976,-58.401728,0.149886,0.317253,0.000000,-1.103319,0.059565,0.000000
2.980000,1.658207,-0.719957,-1.607505,1.788702,1.087925,-0.792549,-2.432264,1.085159,2.409954,2.743339,-10.667328,8.380337,28.325469,-33.747087,-57.802895,0.138419,0.317559,0.000000,-1.188675,0.001344,-0.000000
2.990000,1.675973,-0.709025,-1.615308,1.764521,1.098238,-0.768041,-2.403435,0.976848,2.490830,3.022393,-10.993600,7.788522,28.134945,-32.771195,-61.412120,0.126130,0.317282,0.000000,-1.269327,-0.056872,0.000000
3.000000,1.693499,-0.697996,-1.622863,1.740642,1.107451,-0.742753,-2.371809,0.865293,2.565588,3.300111,-11.311297,7.160445,26.732108,-29.459278,-63.274802,0.113030,0.316400,0.000000,-1.349858,-0.118402,-0.000000
3.010000,1.710787,-0.686880,-1.630161,1.717094,1.115534,-0.716750,-2.337507,0.750783,2.634036,3.557598,-11.584619,6.527439,25.238645,-26.006167,-64.779475,0.099154,0.314902,0.000000,-1.424550,-0.179443,0.000000
3.020000,1.727842,-0.675689,-1.637196,1.693901,1.122458,-0.690094,-2.300669,0.633651,2.695970,3.809116,-11.838596,5.851957,24.582537,-23.974509,-68.822515,0.084547,0.312783,0.000000,-1.496233,-0.243031,-0.000000
3.030000,1.744666,-0.664435,-1.643961,1.671088,1.128199,-0.662853,-2.261400,0.514168,2.751106,4.039143,-12.047051,5.182336,21.398248,-17.677027,-65.011754,0.069256,0.310031,0.000000,-1.560057,-0.304909,0.000000
3.040000,1.761265,-0.653129,-1.650451,1.648680,1.132736,-0.635094,-2.219966,0.392875,2.799663,4.246437,-12.208004,4.523274,20.528222,-15.307088,-68.219549,0.053377,0.306680,0.000000,-1.614921,-0.364310,0.000000
3.050000,1.777641,-0.641784,-1.656661,1.626696,1.136051,-0.606883,-2.176490,0.270070,2.841436,4.445515,-12.346163,3.831300,18.806204,-11.514249,-68.667769,0.036976,0.302730,0.000000,-1.663605,-0.424492,0.000000
3.060000,1.793800,-0.630412,-1.662587,1.605156,1.138133,-0.578288,-2.131126,0.146099,2.876358,4.624338,-12.441794,3.154003,17.065840,-7.721132,-68.711206,0.020138,0.298196,0.000000,-1.702385,-0.481531,-0.000000
3.070000,1.809746,-0.619025,-1.668226,1.584079,1.138971,-0.549379,-2.084053,0.021352,2.904359,4.787780,-12.501568,2.439917,15.509491,-4.121536,-72.152092,0.002960,0.293098,0.000000,-1.731595,-0.537710,0.000000
3.080000,1.825483,-0.607637,-1.673574,1.563481,1.138559,-0.520225,-2.035435,-0.103800,2.925257,4.932170,-12.521905,1.751934,13.362878,0.056110,-65.339073,-0.014457,0.287456,0.000000,-1.749996,-0.589562,-0.000000
3.090000,1.841017,-0.596258,-1.678630,1.543375,1.136895,-0.490895,-1.985475,-0.228954,2.939518,5.057224,-12.502746,1.095449,11.757805,3.659204,-67.839077,-0.032003,0.281322,0.000000,-1.757435,-0.636494,0.000000
3.100000,1.856353,-0.584903,-1.683392,1.523775,1.133981,-0.461457,-1.934342,-0.353738,2.947044,5.166387,-12.447904,0.412396,9.965892,7.412502,-66.807220,-0.049570,0.274726,0.000000,-1.753961,-0.680864,0.000000
3.110000,1.871494,-0.573583,-1.687859,1.504691,1.129822,-0.431977,-1.882206,-0.477804,2.947884,5.257921,-12.359721,-0.241406,8.206271,11.012668,-65.465966,-0.067048,0.267705,0.000000,-1.740079,-0.719964,-0.000000
3.120000,1.886448,-0.562311,-1.692031,1.486134,1.124429,-0.402521,-1.829253,-0.600749,2.942138,5.329314,-12.220542,-0.910399,6.209140,16.033649,-66.783126,-0.084325,0.260306,0.000000,-1.713047,-0.754852,-0.000000
3.130000,1.901219,-0.551099,-1.695910,1.468108,1.117813,-0.373156,-1.775671,-0.722135,2.929803,5.384988,-12.055636,-1.544594,4.934917,16.906962,-59.970038,-0.101281,0.252573,0.000000,-1.677163,-0.784085,0.000000
3.140000,1.915812,-0.539959,-1.699495,1.450622,1.109992,-0.343945,-1.721603,-0.841789,2.911389,5.425443,-11.867059,-2.139574,3.028560,21.572992,-60.512670,-0.117843,0.244563,0.000000,-1.633435,-0.807568,0.000000
3.150000,1.930233,-0.528903,-1.702789,1.433677,1.100984,-0.314948,-1.667228,-0.959305,2.886963,5.446848,-11.631228,-2.741202,1.394443,24.791140,-58.260157,-0.133909,0.236323,0.000000,-1.578441,-0.826307,-0.000000
3.160000,1.944487,-0.517943,-1.705795,1.417278,1.090814,-0.286225,-1.612703,-1.074346,2.856701,5.455853,-11.372260,-3.306589,-0.135932,27.831073,-55.794451,-0.149392,0.227904,0.000000,-1.516935,-0.839793,0.000000
3.170000,1.958580,-0.507090,-1.708515,1.401423,1.079507,-0.257833,-1.558206,-1.186582,2.820834,5.439224,-11.067254,-3.865757,-2.642417,32.318182,-55.032238,-0.164214,0.219358,0.000000,-1.445916,-0.847306,0.000000
3.180000,1.972518,-0.496356,-1.710953,1.386113,1.067093,-0.229827,-1.503942,-1.295635,2.779522,5.414503,-10.743775,-4.386150,-2.273694,32.324817,-48.989779,-0.178298,0.210741,0.000000,-1.370727,-0.850367,-0.000000
3.190000,1.986305,-0.485752,-1.713113,1.371344,1.053605,-0.202259,-1.449934,-1.401412,2.733258,5.383113,-10.404594,-4.864850,-4.534600,36.316908,-47.714664,-0.191620,0.202090,0.000000,-1.292705,-0.849369,0.000000
3.200000,1.999946,-0.475288,-1.715000,1.357113,1.039077,-0.175178,-1.396366,-1.503578,2.682247,5.328671,-10.025116,-5.331630,-5.800072,38.716248,-44.636923,-0.204129,0.193455,0.000000,-1.208537,-0.843209,0.000000
3.210000,2.013449,-0.464974,-1.716618,1.343414,1.023546,-0.148629,-1.343369,-1.601888,2.626762,5.269138,-9.633888,-5.760002,-6.927771,40.833946,-41.463257,-0.215790,0.184879,0.000000,-1.123543,-0.833840,0.000000
3.220000,2.026816,-0.454820,-1.717974,1.330243,1.007053,-0.122656,-1.291087,-1.696080,2.567119,5.182711,-9.196785,-6.164664,-9.533903,45.257651,-39.026679,-0.226579,0.176403,0.000000,-1.033462,-0.819085,0.000000
3.230000,2.040055,-0.444836,-1.719073,1.317590,0.989639,-0.097300,-1.239711,-1.785823,2.503598,5.095746,-8.756613,-6.531289,-7.819555,42.703189,-34.274696,-0.236466,0.168074,0.000000,-0.945054,-0.802381,0.000000
3.240000,2.053170,-0.435030,-1.719922,1.305446,0.971350,-0.072596,-1.189161,-1.871225,2.436627,5.010219,-8.317162,-6.858675,-10.089277,46.462224,-31.629201,-0.245491,0.159901,0.000000,-0.859285,-0.784252,0.000000
3.250000,2.066166,-0.425411,-1.720528,1.293803,0.952230,-0.048578,-1.139599,-1.952015,2.366504,4.901189,-7.839163,-7.160090,-10.886832,47.798487,-28.218860,-0.253641,0.151920,0.000000,-0.771101,-0.762082,0.000000
3.260000,2.079048,-0.415988,-1.720896,1.282650,0.932326,-0.025275,-1.091128,-2.028029,2.293537,4.792383,-7.362657,-7.428053,-11.571576,48.859202,-24.880734,-0.260926,0.144158,0.000000,-0.686229,-0.739032,0.000000
3.270000,2.091820,-0.406767,-1.721036,1.271977,0.911686,-0.002715,-1.043831,-2.099123,2.218094,4.663495,-6.849864,-7.653198,-13.502003,52.316735,-20.629462,-0.267360,0.136636,0.000000,-0.600493,-0.712654,0.000000
3.280000,2.104489,-0.397757,-1.720953,1.261769,0.890361,0.019080,-0.997844,-2.165064,2.140561,4.537108,-6.345318,-7.850771,-11.740264,48.517096,-18.905761,-0.272951,0.129380,0.000000,-0.519154,-0.686317,0.000000
3.290000,2.117057,-0.388962,-1.720657,1.252016,0.868401,0.040090,-0.953069,-2.226080,2.061164,4.414993,-5.852883,-8.021785,-13.366491,51.299639,-14.822975,-0.277760,0.122380,0.000000,-0.442600,-0.660381,0.000000
3.300000,2.129530,-0.380391,-1.720154,1.242703,0.845856,0.060298,-0.909613,-2.282001,1.980271,4.275946,-5.331534,-8.151535,-13.735098,51.580621,-11.619820,-0.281802,0.115656,0.000000,-0.366407,-0.632221,0.000000
3.310000,2.141913,-0.372047,-1.719453,1.233819,0.822778,0.079691,-0.867531,-2.332746,1.898199,4.140358,-4.817579,-8.258490,-14.004676,51.703276,-8.594653,-0.285103,0.109214,0.000000,-0.294323,-0.604753,0.000000
3.320000,2.154208,-0.363937,-1.718563,1.225348,0.799219,0.098259,-0.826865,-2.378309,1.815298,3.990248,-4.293254,-8.312775,-15.391450,52.624100,-3.433418,-0.287698,0.103060,0.000000,-0.225139,-0.575563,0.000000
3.330000,2.166421,-0.356064,-1.717491,1.217277,0.775230,0.115996,-0.787703,-2.418640,1.731986,3.845649,-3.776348,-8.351753,-13.499337,50.712570,-4.416309,-0.289618,0.097205,0.000000,-0.159614,-0.547647,-0.000000
3.340000,2.178555,-0.348433,-1.716246,1.209590,0.750863,0.132898,-0.749924,-2.453873,1.648296,3.708009,-3.269284,-8.378109,-14.640560,51.185616,0.291548,-0.290902,0.091626,0.000000,-0.097754,-0.521187,0.000000
3.350000,2.190614,-0.341048,-1.714836,1.202273,0.726169,0.148962,-0.713594,-2.484001,1.564605,3.558275,-2.757530,-8.356236,-14.679210,50.627478,2.898547,-0.291583,0.086329,0.000000,-0.038899,-0.493640,0.000000
3.360000,2.202602,-0.333911,-1.713269,1.195313,0.701200,0.164191,-0.678745,-2.509074,1.481196,3.411434,-2.258779,-8.322441,-14.710435,49.863358,5.286466,-0.291693,0.081314,0.000000,0.016316,-0.467182,-0.000000
3.370000,2.214521,-0.327025,-1.711555,1.188693,0.676004,0.178588,-0.645368,-2.529142,1.398351,3.263933,-1.753703,-8.237642,-14.756684,50.385958,10.244430,-0.291264,0.076573,0.000000,0.068929,-0.441057,0.000000
3.380000,2.226377,-0.320391,-1.709700,1.182400,0.650633,0.192161,-0.613464,-2.544215,1.316450,3.116976,-1.267101,-8.147538,-14.629116,46.889651,7.708217,-0.290327,0.072102,0.000000,0.117910,-0.415839,0.000000
3.390000,2.238171,-0.314012,-1.707714,1.176419,0.625136,0.204919,-0.583025,-2.554560,1.235396,2.970884,-0.801298,-8.055532,-14.613152,47.000942,12.087250,-0.288918,0.067890,0.000000,0.163322,-0.391535,0.000000
3.400000,2.249906,-0.307889,-1.705605,1.170735,0.599558,0.216873,-0.554047,-2.560223,1.155515,2.825011,-0.333826,-7.918341,-14.531406,45.728064,13.911318,-0.287067,0.063931,0.000000,0.206383,-0.367733,0.000000
3.410000,2.261586,-0.302021,-1.703379,1.165333,0.573947,0.228034,-0.526536,-2.561293,1.077039,2.676922,0.117706,-7.774324,-14.502239,44.417223,15.593974,-0.284800,0.060220,0.000000,0.246605,-0.344443,0.000000
3.420000,2.273214,-0.296410,-1.701046,1.160200,0.548347,0.238419,-0.500460,-2.557926,1.000141,2.540358,0.552883,-7.600282,-13.374368,42.744023,18.484153,-0.282147,0.056746,0.000000,0.283386,-0.322980,0.000000
3.430000,2.284791,-0.291054,-1.698614,1.155320,0.522802,0.248043,-0.475753,-2.550277,0.925049,2.397587,0.975262,-7.419953,-15.196756,41.723437,17.534231,-0.279139,0.053495,0.000000,0.318030,-0.301525,0.000000
3.440000,2.296321,-0.285954,-1.696088,1.150679,0.497355,0.256926,-0.452535,-2.538464,0.851749,2.247868,1.384271,-7.235835,-14.176095,39.925506,19.976169,-0.275793,0.050473,0.000000,0.350673,-0.279991,0.000000
3.450000,2.307805,-0.281107,-1.693477,1.146264,0.472046,0.265085,-0.430749,-2.522656,0.780428,2.109218,1.774769,-7.026982,-14.122767,38.305765,21.060110,-0.272137,0.047668,0.000000,0.380287,-0.260160,0.000000
3.460000,2.319247,-0.276512,-1.690789,1.142060,0.446915,0.272541,-0.410388,-2.503017,0.711205,1.962365,2.150267,-6.816525,-14.155255,36.640481,21.937540,-0.268193,0.045073,0.000000,0.408062,-0.240057,-0.000000
3.470000,2.330647,-0.272168,-1.688029,1.138052,0.421998,0.279316,-0.391414,-2.479718,0.644199,1.836166,2.506097,-6.580150,-12.144558,34.659996,24.410516,-0.263986,0.042678,0.000000,0.432924,-0.222577,0.000000
3.480000,2.342008,-0.268071,-1.685205,1.134227,0.397332,0.285433,-0.373715,-2.452946,0.579582,1.697216,2.846315,-6.347747,-15.678082,33.383167,22.018806,-0.259539,0.040465,0.000000,0.456272,-0.204290,0.000000
3.490000,2.353332,-0.264220,-1.682322,1.130572,0.372950,0.290915,-0.357525,-2.422843,0.517215,1.544072,3.170822,-6.121952,-13.879317,31.372362,24.030017,-0.254865,0.038454,0.000000,0.478218,-0.185044,0.000000
3.500000,2.364620,-0.260611,-1.679388,1.127072,0.348886,0.295786,-0.342750,-2.389600,0.457229,1.410560,3.474919,-5.875318,-13.888100,29.586928,24.366148,-0.249984,0.036630,0.000000,0.497618,-0.168209,-0.000000
3.510000,2.375874,-0.257241,-1.676409,1.123713,0.325168,0.300068,-0.329329,-2.353388,0.399692,1.274011,3.764813,-5.631795,-13.777892,27.845068,24.605134,-0.244916,0.034982,0.000000,0.515819,-0.151478,0.000000
3.520000,2.387095,-0.254107,-1.673389,1.120481,0.301827,0.303788,-0.317295,-2.314406,0.344622,1.131749,4.026794,-5.380967,-14.324680,25.081450,25.263437,-0.239678,0.033509,0.000000,0.531249,-0.134510,0.000000
3.530000,2.398284,-0.251203,-1.670335,1.117362,0.278889,0.306969,-0.306673,-2.272886,0.292062,0.994861,4.277586,-5.132733,-13.039652,25.094939,24.356982,-0.234293,0.032209,0.000000,0.545869,-0.118447,0.000000
3.540000,2.409443,-0.248527,-1.667251,1.114343,0.256378,0.309637,-0.297375,-2.228885,0.241952,0.863973,4.518014,-4.888545,-13.486263,22.458279,24.744610,-0.228763,0.031070,0.000000,0.559816,-0.103311,0.000000
3.550000,2.420571,-0.246074,-1.664144,1.111410,0.234318,0.311816,-0.289416,-2.182625,0.194308,0.728171,4.731354,-4.640544,-13.322131,20.746394,24.560042,-0.223106,0.030089,0.000000,0.571293,-0.087936,0.000000
3.560000,2.431671,-0.243839,-1.661016,1.108550,0.212732,0.313531,-0.282787,-2.134284,0.149129,0.598348,4.934435,-4.395592,-13.112568,19.108152,24.314983,-0.217338,0.029263,0.000000,0.582146,-0.073420,0.000000
3.570000,2.442743,-0.241818,-1.657874,1.105750,0.191639,0.314807,-0.277480,-2.084053,0.106379,0.461621,5.106559,-4.155450,-13.771912,16.064178,23.798240,-0.211473,0.028588,0.000000,0.590395,-0.058437,0.000000
3.580000,2.453786,-0.240005,-1.654722,1.102996,0.171057,0.315667,-0.273525,-2.032172,0.066013,0.332582,5.271415,-3.917826,-12.019561,16.935389,23.717293,-0.205531,0.028064,0.000000,0.598331,-0.044428,-0.000000
3.590000,2.464803,-0.238395,-1.651562,1.100276,0.151001,0.316135,-0.270797,-1.978638,0.028013,0.211993,5.430337,-3.683320,-12.559202,14.104207,23.073815,-0.199506,0.027676,0.000000,0.606100,-0.031435,0.000000
3.600000,2.475792,-0.236983,-1.648400,1.097576,0.131489,0.316235,-0.269313,-1.923676,-0.007678,0.085360,5.559978,-3.455723,-12.304256,12.577409,22.533941,-0.193418,0.027425,0.000000,0.611495,-0.017994,-0.000000
3.610000,2.486754,-0.235763,-1.645239,1.094885,0.112532,0.315989,-0.269084,-1.867475,-0.041122,-0.039503,5.677701,-3.234200,-12.129685,11.030774,21.913227,-0.187278,0.027308,0.000000,0.616197,-0.004867,0.000000
3.620000,2.497690,-0.234731,-1.642081,1.092190,0.094143,0.315420,-0.270054,-1.810168,-0.072372,-0.152262,5.781247,-3.016235,-10.941950,9.628648,21.524763,-0.181097,0.027320,0.000000,0.619925,0.006946,0.000000
3.630000,2.508598,-0.233879,-1.638931,1.089480,0.076332,0.314549,-0.272147,-1.751902,-0.101477,-0.269255,5.869224,-2.806938,-12.471362,7.971566,20.323401,-0.174883,0.027451,0.000000,0.622636,0.019080,0.000000
3.640000,2.519479,-0.233202,-1.635791,1.086743,0.059107,0.313397,-0.275459,-1.692835,-0.128542,-0.391108,5.941951,-2.606917,-11.371021,6.637632,19.823443,-0.168648,0.027709,0.000000,0.624352,0.031603,-0.000000
3.650000,2.530333,-0.232694,-1.632664,1.083967,0.042477,0.311985,-0.279921,-1.633105,-0.153629,-0.501105,6.001640,-2.411830,-11.150996,5.251097,19.041702,-0.162399,0.028087,0.000000,0.625195,0.042887,-0.000000
3.660000,2.541158,-0.232350,-1.629553,1.081141,0.026447,0.310331,-0.285479,-1.572840,-0.176797,-0.609984,6.049524,-2.222676,-10.857628,3.955673,18.301036,-0.156146,0.028578,0.000000,0.625291,0.054007,0.000000
3.670000,2.551955,-0.232164,-1.626458,1.078254,0.011022,0.308455,-0.292130,-1.512188,-0.198147,-0.720367,6.077437,-2.050297,-10.989002,2.001080,16.640122,-0.149898,0.029181,0.000000,0.623988,0.065203,-0.000000
3.680000,2.562723,-0.232128,-1.623384,1.075295,-0.003796,0.306373,-0.299866,-1.451315,-0.217807,-0.824940,6.097393,-1.880093,-9.916282,2.009382,17.413476,-0.143668,0.029895,0.000000,0.622209,0.075801,0.000000
3.690000,2.573461,-0.232237,-1.620332,1.072253,-0.018004,0.304104,-0.308606,-1.390261,-0.235751,-0.923248,6.110375,-1.711521,-9.972609,0.225342,15.827596,-0.137455,0.030710,0.000000,0.620039,0.085772,0.000000
3.700000,2.584168,-0.232486,-1.617303,1.069120,-0.031601,0.301664,-0.318337,-1.329174,-0.252101,-1.022395,6.105199,-1.559541,-9.625587,-0.883906,15.038606,-0.131272,0.031627,0.000000,0.616568,0.095777,0.000000
3.710000,2.594843,-0.232867,-1.614299,1.065884,-0.044588,0.299067,-0.329035,-1.268181,-0.266952,-1.116403,6.091780,-1.411969,-9.269002,-1.951071,14.244891,-0.125125,0.032641,0.000000,0.612573,0.105270,-0.000000
3.720000,2.605485,-0.233376,-1.611322,1.062536,-0.056965,0.296329,-0.340661,-1.207386,-0.280385,-1.208608,6.064872,-1.276759,-9.077397,-3.268182,13.022345,-0.119024,0.033748,0.000000,0.607620,0.114559,0.000000
3.730000,2.616093,-0.234005,-1.608373,1.059067,-0.068737,0.293464,-0.353190,-1.146910,-0.292503,-1.295967,6.029817,-1.146791,-8.389503,-3.730126,12.979734,-0.112975,0.034946,0.000000,0.602120,0.123370,-0.000000
3.740000,2.626666,-0.234748,-1.605453,1.055469,-0.079905,0.290484,-0.366563,-1.086814,-0.303335,-1.378228,5.987301,-1.021668,-8.154000,-4.921152,11.820431,-0.106983,0.036230,0.000000,0.596121,0.131685,0.000000
3.750000,2.637202,-0.235601,-1.602563,1.051733,-0.090475,0.287401,-0.380749,-1.027206,-0.312980,-1.458216,5.932873,-0.908418,-7.748609,-5.801404,11.058051,-0.101056,0.037595,0.000000,0.589242,0.139759,0.000000
3.760000,2.647700,-0.236556,-1.599705,1.047852,-0.100451,0.284228,-0.395711,-0.968181,-0.321518,-1.533510,5.870623,-0.800213,-7.335261,-6.645249,10.326297,-0.095200,0.039038,0.000000,0.581789,0.147379,0.000000
3.770000,2.658159,-0.237608,-1.596879,1.043817,-0.109840,0.280974,-0.411407,-0.909821,-0.329029,-1.605132,5.800079,-0.704218,-6.961602,-7.451896,9.127704,-0.089422,0.040554,0.000000,0.573764,0.154618,0.000000
3.780000,2.668576,-0.238751,-1.594086,1.039621,-0.118650,0.277650,-0.427798,-0.852206,-0.335614,-1.672166,5.721824,-0.612303,-6.442687,-8.191540,9.266761,-0.083727,0.042141,0.000000,0.565127,0.161416,0.000000
3.790000,2.678951,-0.239979,-1.591326,1.035259,-0.126887,0.274265,-0.444834,-0.795409,-0.341285,-1.734481,5.636311,-0.523903,-6.045097,-8.908014,8.163001,-0.078121,0.043792,0.000000,0.555910,0.167765,-0.000000
3.800000,2.689281,-0.241287,-1.588601,1.030723,-0.134561,0.270827,-0.462475,-0.739503,-0.346134,-1.792817,5.543847,-0.446802,-5.594845,-9.573252,7.514626,-0.072610,0.045505,0.000000,0.546184,0.173702,-0.000000
3.810000,2.699564,-0.242668,-1.585910,1.026007,-0.141680,0.267345,-0.480674,-0.684553,-0.350231,-1.846197,5.445143,-0.373530,-5.132909,-10.191828,6.902485,-0.067199,0.047274,0.000000,0.535947,0.179162,0.000000
3.820000,2.709800,-0.244118,-1.583254,1.021107,-0.148255,0.263825,-0.499387,-0.630622,-0.353644,-1.895941,5.339864,-0.310886,-4.763491,-10.826379,5.865285,-0.061893,0.049095,0.000000,0.525196,0.184239,0.000000
3.830000,2.719986,-0.245632,-1.580633,1.016018,-0.154296,0.260274,-0.518574,-0.577772,-0.356457,-1.940367,5.229398,-0.251211,-4.119285,-11.258861,6.081661,-0.056697,0.050964,0.000000,0.514004,0.188803,0.000000
3.840000,2.730120,-0.247203,-1.578049,1.010734,-0.159815,0.256698,-0.538176,-0.526050,-0.358674,-1.979352,5.114207,-0.193902,-3.728802,-11.803160,5.148183,-0.051614,0.052876,0.000000,0.502407,0.192845,-0.000000
3.850000,2.740200,-0.248826,-1.575500,1.005253,-0.164821,0.253102,-0.558150,-0.475506,-0.360371,-2.014490,4.993733,-0.146135,-3.246574,-12.254197,4.645163,-0.046650,0.054825,0.000000,0.490376,0.196479,0.000000
3.860000,2.750224,-0.250497,-1.572987,0.999570,-0.169329,0.249492,-0.578448,-0.426188,-0.361605,-2.044428,4.869213,-0.101287,-2.762472,-12.664460,4.173023,-0.041808,0.056808,0.000000,0.477990,0.199607,0.000000
3.870000,2.760191,-0.252211,-1.570510,0.993683,-0.173349,0.245871,-0.599024,-0.378137,-0.362425,-2.069935,4.740379,-0.064014,-2.317451,-13.075135,3.437852,-0.037091,0.058819,0.000000,0.465232,0.202273,0.000000
3.880000,2.770097,-0.253963,-1.568069,0.987589,-0.176896,0.242245,-0.619830,-0.331391,-0.362892,-2.090331,4.608276,-0.029252,-1.761228,-13.338229,3.524082,-0.032504,0.060854,0.000000,0.452178,0.204438,0.000000
3.890000,2.779942,-0.255748,-1.565665,0.981286,-0.179982,0.238615,-0.640813,-0.285981,-0.363015,-2.105589,4.473321,0.003497,-1.311908,-13.667558,2.877652,-0.028049,0.062908,0.000000,0.438864,0.206100,0.000000
3.900000,2.789722,-0.257561,-1.563297,0.974772,-0.182620,0.234985,-0.661927,-0.241936,-0.362847,-2.116395,4.335228,0.029694,-0.828439,-13.923914,2.518939,-0.023728,0.064976,0.000000,0.425269,0.207297,0.000000
3.910000,2.799437,-0.259399,-1.560965,0.968047,-0.184825,0.231359,-0.683124,-0.199283,-0.362427,-2.122286,4.195046,0.053765,-0.347849,-14.141162,2.190794,-0.019544,0.067054,0.000000,0.411480,0.208008,0.000000
3.920000,2.809082,-0.261256,-1.558670,0.961110,-0.186610,0.227737,-0.704356,-0.158044,-0.361791,-2.123317,4.052204,0.072605,0.136435,-14.387681,1.686962,-0.015499,0.069136,0.000000,0.397442,0.208216,-0.000000
3.930000,2.818658,-0.263129,-1.556410,0.953960,-0.187991,0.224123,-0.725575,-0.118243,-0.360979,-2.119664,3.908117,0.089804,0.593324,-14.422849,1.760516,-0.011595,0.071217,0.000000,0.383286,0.207961,0.000000
3.940000,2.828161,-0.265015,-1.554187,0.946599,-0.188980,0.220518,-0.746734,-0.079885,-0.359998,-2.111383,3.763177,0.105772,1.066073,-14.593645,1.331049,-0.007834,0.073294,0.000000,0.369049,0.207249,0.000000
3.950000,2.837589,-0.266908,-1.552000,0.939026,-0.189593,0.216924,-0.767787,-0.042985,-0.358880,-2.098400,3.616643,0.117409,1.524709,-14.673734,1.106716,-0.004215,0.075361,0.000000,0.354659,0.206050,0.000000
3.960000,2.846941,-0.268805,-1.549849,0.931243,-0.189845,0.213341,-0.788688,-0.007552,-0.357653,-2.081024,3.469810,0.127758,1.972975,-14.720367,0.906603,-0.000741,0.077413,0.000000,0.340240,0.204416,0.000000
3.970000,2.856213,-0.270703,-1.547733,0.923253,-0.189749,0.209771,-0.809391,0.026408,-0.356336,-2.058750,3.322038,0.135062,2.457101,-14.797165,0.616515,0.002589,0.079447,0.000000,0.325728,0.202281,-0.000000
3.980000,2.865405,-0.272599,-1.545653,0.915056,-0.189321,0.206215,-0.829849,0.058890,-0.354955,-2.032402,3.174632,0.141395,2.809984,-14.678248,0.655680,0.005774,0.081458,0.000000,0.311252,0.199743,0.000000
3.990000,2.874514,-0.274489,-1.543609,0.906657,-0.188576,0.202672,-0.850026,0.089903,-0.353510,-2.002117,3.027928,0.147058,3.268695,-14.689875,0.420927,0.008815,0.083441,0.000000,0.296844,0.196816,0.000000
4.000000,2.883538,-0.276370,-1.541600,0.898057,-0.187528,0.199145,-0.869876,0.119448,-0.352022,-1.967264,2.881198,0.150381,3.676207,-14.619619,0.306351,0.011711,0.085393,0.000000,0.282434,0.193426,0.000000
4.010000,2.892474,-0.278238,-1.539626,0.889260,-0.186192,0.195632,-0.889359,0.147531,-0.350505,-1.928783,2.735541,0.152981,4.067131,-14.523122,0.207888,0.014464,0.087309,0.000000,0.268129,0.189676,0.000000
4.020000,2.901322,-0.280093,-1.537687,0.880271,-0.184583,0.192135,-0.908435,0.174161,-0.348966,-1.885512,2.590675,0.154516,4.536905,-14.430742,0.110533,0.017074,0.089185,0.000000,0.253903,0.185451,0.000000
4.030000,2.910079,-0.281929,-1.535783,0.871093,-0.182714,0.188653,-0.927060,0.199349,-0.347416,-1.839094,2.447328,0.155427,4.742832,-14.234227,0.074552,0.019542,0.091017,0.000000,0.239827,0.180914,0.000000
4.040000,2.918743,-0.283746,-1.533914,0.861731,-0.180600,0.185186,-0.945207,0.223114,-0.345859,-1.789737,2.305758,0.155885,5.174456,-14.091544,0.010931,0.021871,0.092803,0.000000,0.225929,0.176088,0.000000
4.050000,2.927313,-0.285540,-1.532079,0.852191,-0.178256,0.181736,-0.962839,0.245469,-0.344301,-1.736075,2.165701,0.155763,5.508255,-13.900864,-0.024072,0.024061,0.094538,0.000000,0.212183,0.170838,0.000000
4.060000,2.935787,-0.287310,-1.530279,0.842476,-0.175696,0.178300,-0.979920,0.266435,-0.342745,-1.679655,2.027817,0.155316,5.824057,-13.688799,-0.048069,0.026115,0.096220,0.000000,0.198654,0.165318,0.000000
4.070000,2.944162,-0.289054,-1.528513,0.832594,-0.172932,0.174881,-0.996418,0.286032,-0.341194,-1.619180,1.891841,0.154982,6.218822,-13.487645,-0.031589,0.028035,0.097844,0.000000,0.185318,0.159406,0.000000
4.080000,2.952438,-0.290768,-1.526781,0.822550,-0.169979,0.171476,-1.012297,0.304281,-0.339646,-1.556373,1.758454,0.154410,6.338102,-13.186289,-0.081411,0.029823,0.099408,0.000000,0.172242,0.153266,-0.000000
4.090000,2.960613,-0.292453,-1.525084,0.812350,-0.166851,0.168088,-1.027539,0.321210,-0.338106,-1.491475,1.627854,0.153686,6.688550,-12.947007,-0.046949,0.031481,0.100910,0.000000,0.159444,0.146924,0.000000
4.100000,2.968685,-0.294105,-1.523420,0.802002,-0.163560,0.164714,-1.042114,0.336846,-0.336571,-1.423086,1.499700,0.153376,6.936506,-12.665341,-0.028454,0.033012,0.102347,0.000000,0.146893,0.140249,0.000000
4.110000,2.976652,-0.295723,-1.521789,0.791511,-0.160118,0.161356,-1.055995,0.351214,-0.335039,-1.352856,1.374414,0.152994,7.164484,-12.372234,-0.007029,0.034420,0.103716,0.000000,0.134630,0.133396,0.000000
4.120000,2.984514,-0.297307,-1.520193,0.780884,-0.156539,0.158013,-1.069158,0.364345,-0.333507,-1.279292,1.252463,0.153593,7.486711,-12.033004,0.091883,0.035706,0.105015,0.000000,0.122703,0.126231,-0.000000
4.130000,2.992269,-0.298854,-1.518629,0.770130,-0.152835,0.154686,-1.081577,0.376273,-0.331968,-1.204415,1.133432,0.154093,7.483890,-11.771782,0.007954,0.036875,0.106242,0.000000,0.111068,0.118941,0.000000
4.140000,2.999916,-0.300363,-1.517099,0.759255,-0.149018,0.151374,-1.093244,0.387024,-0.330426,-1.128488,1.017411,0.154500,7.757686,-11.413466,0.110680,0.037928,0.107396,0.000000,0.099732,0.111551,0.000000
4.150000,3.007454,-0.301834,-1.515601,0.748268,-0.145099,0.148078,-1.104136,0.396633,-0.328874,-1.049824,0.905046,0.156008,7.912850,-11.075115,0.155640,0.038871,0.108474,0.000000,0.088764,0.103908,0.000000
4.160000,3.014881,-0.303265,-1.514137,0.737175,-0.141089,0.144797,-1.114238,0.405135,-0.327306,-0.970245,0.795896,0.157589,8.048190,-10.729829,0.202054,0.039705,0.109475,0.000000,0.078116,0.096180,-0.000000
4.170000,3.022197,-0.304655,-1.512705,0.725985,-0.137000,0.141532,-1.123533,0.412565,-0.325717,-0.888477,0.690693,0.160435,8.255610,-10.332835,0.327806,0.040434,0.110398,0.000000,0.067863,0.088255,0.000000
4.180000,3.029401,-0.306005,-1.511306,0.714707,-0.132841,0.138282,-1.132006,0.418960,-0.324098,-0.806176,0.588777,0.163319,8.200211,-10.050047,0.248009,0.041063,0.111242,0.000000,0.057935,0.080281,-0.000000
4.190000,3.036491,-0.307312,-1.509940,0.703348,-0.128624,0.135050,-1.139656,0.424351,-0.322451,-0.723586,0.490175,0.166204,8.361987,-9.646307,0.369235,0.041594,0.112005,0.000000,0.048334,0.072280,0.000000
4.200000,3.043468,-0.308577,-1.508605,0.691917,-0.124357,0.131834,-1.146471,0.428777,-0.320768,-0.639390,0.395666,0.170365,8.426576,-9.277906,0.423261,0.042031,0.112688,0.000000,0.039141,0.064138,-0.000000
4.210000,3.050329,-0.309799,-1.507303,0.680421,-0.120051,0.128634,-1.152444,0.432276,-0.319044,-0.555010,0.304650,0.174641,8.473559,-8.906827,0.475402,0.042378,0.113289,0.000000,0.030290,0.055980,0.000000
4.220000,3.057076,-0.310978,-1.506033,0.668871,-0.115715,0.125453,-1.157568,0.434884,-0.317270,-0.469728,0.217703,0.180270,8.553919,-8.499719,0.608302,0.042638,0.113808,0.000000,0.021844,0.047749,-0.000000
4.230000,3.063707,-0.312113,-1.504794,0.657273,-0.111356,0.122289,-1.161839,0.436642,-0.315439,-0.384537,0.134291,0.185923,8.480703,-8.183277,0.520831,0.042816,0.114245,0.000000,0.013743,0.039527,-0.000000
4.240000,3.070221,-0.313205,-1.503587,0.645637,-0.106985,0.119144,-1.165260,0.437582,-0.313552,-0.299639,0.054394,0.191533,8.522630,-7.778304,0.643241,0.042914,0.114600,0.000000,0.005984,0.031332,0.000000
4.250000,3.076619,-0.314253,-1.502411,0.633971,-0.102607,0.116018,-1.167830,0.437743,-0.311603,-0.214368,-0.021429,0.198428,8.503259,-7.404130,0.692723,0.042937,0.114872,0.000000,-0.001373,0.023112,-0.000000
4.260000,3.082901,-0.315257,-1.501266,0.622283,-0.098232,0.112912,-1.169550,0.437164,-0.309584,-0.129658,-0.093862,0.205429,8.466689,-7.035605,0.739317,0.042888,0.115062,0.000000,-0.008401,0.014945,0.000000
4.270000,3.089065,-0.316218,-1.500153,0.610582,-0.093866,0.109827,-1.170422,0.435882,-0.307490,-0.044803,-0.161715,0.213504,8.472084,-6.581249,0.844104,0.042771,0.115171,0.000000,-0.014981,0.006773,0.000000
4.280000,3.095112,-0.317134,-1.499070,0.598877,-0.089517,0.106763,-1.170449,0.433940,-0.305314,0.039110,-0.226458,0.221646,8.307280,-6.369363,0.782943,0.042589,0.115198,0.000000,-0.021260,-0.001312,-0.000000
4.290000,3.101042,-0.318008,-1.498017,0.587176,-0.085190,0.103721,-1.169644,0.431363,-0.303058,0.121896,-0.288189,0.229787,8.277511,-5.931343,0.876214,0.042346,0.115145,0.000000,-0.027251,-0.009293,0.000000
4.300000,3.106856,-0.318838,-1.496995,0.575487,-0.080891,0.100702,-1.168012,0.428192,-0.300714,0.204356,-0.345492,0.238897,8.182737,-5.576121,0.913474,0.042046,0.115012,0.000000,-0.032809,-0.017237,0.000000
4.310000,3.112552,-0.319626,-1.496003,0.563819,-0.076628,0.097707,-1.165561,0.424463,-0.298280,0.285618,-0.399686,0.248077,8.075787,-5.227122,0.946820,0.041691,0.114801,0.000000,-0.038069,-0.025071,0.000000
4.320000,3.118132,-0.320371,-1.495041,0.552179,-0.072404,0.094737,-1.162302,0.420212,-0.295750,0.365906,-0.449718,0.258050,7.971559,-4.815636,1.023142,0.041286,0.114511,0.000000,-0.042926,-0.032808,-0.000000
4.330000,3.123596,-0.321074,-1.494108,0.540575,-0.068225,0.091792,-1.158247,0.415478,-0.293119,0.444839,-0.496762,0.268027,7.812920,-4.595369,0.970937,0.040833,0.114144,0.000000,-0.047497,-0.040423,0.000000
4.340000,3.128944,-0.321736,-1.493205,0.529016,-0.064096,0.088875,-1.153411,0.410286,-0.290390,0.522288,-0.540932,0.277941,7.683022,-4.204097,1.035590,0.040337,0.113702,0.000000,-0.051794,-0.047903,0.000000
4.350000,3.134176,-0.322356,-1.492331,0.517510,-0.060021,0.085985,-1.147806,0.404673,-0.287557,0.598392,-0.581172,0.288524,7.527982,-3.880602,1.055914,0.039799,0.113186,0.000000,-0.055711,-0.055255,0.000000
4.360000,3.139294,-0.322936,-1.491485,0.506063,-0.056004,0.083124,-1.141448,0.398672,-0.284620,0.672881,-0.618567,0.299049,7.363364,-3.566206,1.071576,0.039223,0.112597,0.000000,-0.059357,-0.062460,-0.000000
4.370000,3.144298,-0.323476,-1.490668,0.494683,-0.052049,0.080293,-1.134354,0.392315,-0.281574,0.745581,-0.652214,0.310154,7.179694,-3.197156,1.126470,0.038613,0.111936,0.000000,-0.062642,-0.069496,0.000000
4.380000,3.149188,-0.323977,-1.489879,0.483378,-0.048158,0.077493,-1.126542,0.385636,-0.278417,0.816539,-0.683221,0.321100,7.010404,-3.006691,1.061467,0.037971,0.111206,0.000000,-0.065677,-0.076376,-0.000000
4.390000,3.153966,-0.324440,-1.489118,0.472155,-0.044337,0.074725,-1.118030,0.378659,-0.275153,0.885666,-0.711719,0.331821,6.808766,-2.661484,1.104457,0.037300,0.110408,0.000000,-0.068474,-0.083092,-0.000000
4.400000,3.158632,-0.324864,-1.488385,0.461020,-0.040586,0.071990,-1.108836,0.371414,-0.271779,0.952726,-0.736760,0.342990,6.606442,-2.381026,1.106136,0.036603,0.109544,0.000000,-0.070938,-0.089613,0.000000
4.410000,3.163186,-0.325252,-1.487678,0.449980,-0.036909,0.069290,-1.098982,0.363931,-0.268294,1.017767,-0.759400,0.354009,6.396079,-2.111865,1.104676,0.035882,0.108615,0.000000,-0.073175,-0.095952,-0.000000
4.420000,3.167631,-0.325603,-1.486999,0.439042,-0.033308,0.066625,-1.088488,0.356238,-0.264698,1.080581,-0.778691,0.365142,6.169650,-1.783597,1.113968,0.035141,0.107624,0.000000,-0.075090,-0.102086,0.000000
4.430000,3.171968,-0.325918,-1.486346,0.428212,-0.029785,0.063996,-1.077377,0.348364,-0.260992,1.141227,-0.795852,0.376122,5.958570,-1.651278,1.081156,0.034381,0.106573,0.000000,-0.076803,-0.108022,-0.000000
4.440000,3.176196,-0.326199,-1.485719,0.417497,-0.026342,0.061405,-1.065671,0.340327,-0.257176,1.199641,-0.811029,0.386904,5.718587,-1.349853,1.082145,0.033605,0.105463,0.000000,-0.078329,-0.113756,0.000000
4.450000,3.180318,-0.326445,-1.485118,0.406901,-0.022979,0.058853,-1.053393,0.332154,-0.253253,1.255629,-0.823187,0.397687,5.480953,-1.119316,1.066891,0.032816,0.104297,0.000000,-0.079564,-0.119265,0.000000
4.460000,3.184335,-0.326659,-1.484542,0.396431,-0.019699,0.056340,-1.040566,0.323870,-0.249223,1.309305,-0.833401,0.408246,5.238248,-0.899382,1.048484,0.032014,0.103077,0.000000,-0.080614,-0.124564,0.000000
4.470000,3.188247,-0.326840,-1.483991,0.386091,-0.016502,0.053869,-1.027216,0.315495,-0.245089,1.360238,-0.840971,0.418685,4.961999,-0.641289,1.034684,0.031204,0.101806,0.000000,-0.081411,-0.129608,-0.000000
4.480000,3.192057,-0.326989,-1.483464,0.375888,-0.013389,0.051439,-1.013369,0.307056,-0.240851,1.408835,-0.846786,0.428844,4.757201,-0.524162,0.996415,0.030387,0.100485,0.000000,-0.082040,-0.134439,-0.000000
4.490000,3.195765,-0.327108,-1.482962,0.365826,-0.010361,0.049052,-0.999047,0.298565,-0.236513,1.455070,-0.850982,0.438685,4.474275,-0.291378,0.975428,0.029564,0.099116,0.000000,-0.082516,-0.139055,-0.000000
4.500000,3.199374,-0.327197,-1.482483,0.355909,-0.007418,0.046709,-0.984277,0.290044,-0.232078,1.498437,-0.852862,0.448310,4.212595,-0.111548,0.944665,0.028737,0.097703,0.000000,-0.082768,-0.143403,-0.000000
4.510000,3.202884,-0.327256,-1.482027,0.346141,-0.004560,0.044411,-0.969086,0.281512,-0.227548,1.539308,-0.853241,0.457585,3.947459,0.057325,0.910988,0.027909,0.096248,0.000000,-0.082876,-0.147521,0.000000
4.520000,3.206297,-0.327288,-1.481595,0.336528,-0.001788,0.042158,-0.953501,0.272987,-0.222927,1.577250,-0.851537,0.466529,3.653539,0.259378,0.876352,0.027080,0.094753,0.000000,-0.082783,-0.151365,-0.000000
4.530000,3.209615,-0.327292,-1.481184,0.327073,0.000900,0.039953,-0.937550,0.264486,-0.218219,1.612644,-0.848556,0.475082,3.425181,0.334518,0.833759,0.026254,0.093220,0.000000,-0.082568,-0.154973,0.000000
4.540000,3.212839,-0.327270,-1.480795,0.317778,0.003502,0.037794,-0.921257,0.256019,-0.213427,1.645478,-0.844426,0.483216,3.127856,0.512384,0.793444,0.025429,0.091653,0.000000,-0.082242,-0.158343,-0.000000
4.550000,3.215971,-0.327223,-1.480428,0.308649,0.006020,0.035684,-0.904650,0.247604,-0.208556,1.675313,-0.838532,0.490933,2.851138,0.642373,0.748692,0.024609,0.090053,0.000000,-0.081744,-0.161431,-0.000000
4.560000,3.219013,-0.327150,-1.480081,0.299686,0.008454,0.033623,-0.887759,0.239252,-0.203610,1.702497,-0.831601,0.498190,2.572500,0.762138,0.701591,0.023795,0.088424,0.000000,-0.081146,-0.164270,-0.000000
4.570000,3.221965,-0.327054,-1.479755,0.290894,0.010806,0.031612,-0.870611,0.230977,-0.198594,1.726639,-0.823136,0.504949,2.268135,0.909954,0.650508,0.022987,0.086768,0.000000,-0.080397,-0.166820,0.000000
4.580000,3.224831,-0.326934,-1.479449,0.282275,0.013074,0.029652,-0.853235,0.222792,-0.193512,1.748114,-0.813838,0.511209,2.026970,0.947549,0.601101,0.022187,0.085088,0.000000,-0.079568,-0.169119,-0.000000
4.590000,3.227612,-0.326793,-1.479162,0.273830,0.015262,0.027742,-0.835657,0.214702,-0.188371,1.766925,-0.803823,0.516947,1.722528,1.073579,0.545489,0.021396,0.083386,0.000000,-0.078667,-0.171165,0.000000
4.600000,3.230308,-0.326629,-1.478894,0.265562,0.017369,0.025885,-0.817907,0.206720,-0.183175,1.782659,-0.792562,0.522115,1.437468,1.157854,0.488733,0.020614,0.081665,0.000000,-0.077644,-0.172916,-0.000000
4.610000,3.232923,-0.326445,-1.478644,0.257473,0.019396,0.024079,-0.800013,0.198853,-0.177931,1.795700,-0.780638,0.526738,1.153092,1.234146,0.430411,0.019843,0.079927,0.000000,-0.076555,-0.174409,0.000000
4.620000,3.235458,-0.326242,-1.478412,0.249562,0.021346,0.022326,-0.782004,0.191110,-0.172643,1.805557,-0.767827,0.530668,0.835119,1.318445,0.360317,0.019083,0.078177,0.000000,-0.075377,-0.175596,-0.000000
4.630000,3.237915,-0.326019,-1.478198,0.241833,0.023219,0.020626,-0.763911,0.183498,-0.167319,1.812759,-0.754470,0.534042,0.605879,1.351374,0.314238,0.018336,0.076416,0.000000,-0.074143,-0.176525,-0.000000
4.640000,3.240296,-0.325778,-1.478000,0.234284,0.025017,0.018980,-0.745758,0.176022,-0.161964,1.817326,-0.740656,0.536845,0.290147,1.418675,0.240997,0.017601,0.074646,0.000000,-0.072863,-0.177199,-0.000000
4.650000,3.242602,-0.325519,-1.477818,0.226918,0.026740,0.017387,-0.727575,0.168688,-0.156585,1.818722,-0.726193,0.538898,0.004648,1.464410,0.174296,0.016879,0.072872,0.000000,-0.071517,-0.177563,0.000000
4.660000,3.244835,-0.325243,-1.477652,0.219733,0.028391,0.015848,-0.709392,0.161499,-0.151188,1.817366,-0.711415,0.540311,-0.281939,1.502390,0.105564,0.016170,0.071096,0.000000,-0.070138,-0.177658,0.000000
4.670000,3.246997,-0.324951,-1.477501,0.212730,0.029970,0.014363,-0.691238,0.154461,-0.145781,1.813028,-0.696053,0.540981,-0.579879,1.556943,0.030343,0.015476,0.069320,0.000000,-0.068698,-0.177458,0.000000
4.680000,3.249090,-0.324644,-1.477364,0.205908,0.031481,0.012933,-0.673141,0.147579,-0.140371,1.805895,-0.680550,0.540961,-0.846496,1.542198,-0.034442,0.014797,0.067547,0.000000,-0.067242,-0.176983,-0.000000
4.690000,3.251116,-0.324322,-1.477242,0.199267,0.032923,0.011556,-0.655129,0.140851,-0.134964,1.795978,-0.664985,0.540238,-1.142751,1.581986,-0.112969,0.014131,0.065780,0.000000,-0.065777,-0.176231,-0.000000
4.700000,3.253076,-0.323986,-1.477133,0.192805,0.034298,0.010233,-0.637231,0.134280,-0.129569,1.783100,-0.649032,0.538716,-1.427712,1.595570,-0.189297,0.013481,0.064023,0.000000,-0.064270,-0.175183,0.000000
4.710000,3.254972,-0.323636,-1.477037,0.186522,0.035609,0.008964,-0.619476,0.127870,-0.124192,1.767420,-0.633065,0.536456,-1.712270,1.603871,-0.267139,0.012846,0.062277,0.000000,-0.062759,-0.173855,-0.000000
4.720000,3.256807,-0.323274,-1.476953,0.180415,0.036856,0.007749,-0.601893,0.121620,-0.118843,1.748818,-0.616908,0.533329,-2.003929,1.620193,-0.354546,0.012226,0.060547,0.000000,-0.061225,-0.172233,0.000000
4.730000,3.258581,-0.322899,-1.476882,0.174483,0.038042,0.006587,-0.584509,0.115531,-0.113528,1.727430,-0.600817,0.529444,-2.273403,1.596897,-0.422700,0.011622,0.058833,0.000000,-0.059695,-0.170329,-0.000000
4.740000,3.260297,-0.322513,-1.476821,0.168724,0.039167,0.005479,-0.567353,0.109603,-0.108256,1.703270,-0.584848,0.524788,-2.562549,1.603143,-0.512879,0.011032,0.057141,0.000000,-0.058174,-0.168144,0.000000
4.750000,3.261956,-0.322116,-1.476772,0.163135,0.040234,0.004422,-0.550453,0.103835,-0.103036,1.676225,-0.568825,0.519216,-2.843007,1.594105,-0.597845,0.010458,0.055471,0.000000,-0.056643,-0.165665,-0.000000
4.760000,3.263560,-0.321709,-1.476733,0.157714,0.041244,0.003418,-0.533838,0.098226,-0.097875,1.646434,-0.552977,0.512809,-3.122064,1.581393,-0.684798,0.009899,0.053828,0.000000,-0.055126,-0.162905,-0.000000
4.770000,3.265111,-0.321291,-1.476704,0.152457,0.042199,0.002464,-0.517534,0.092775,-0.092782,1.613724,-0.537148,0.505506,-3.412971,1.577758,-0.775132,0.009356,0.052214,0.000000,-0.053608,-0.159845,-0.000000
4.780000,3.266610,-0.320865,-1.476683,0.147362,0.043100,0.001562,-0.501572,0.087482,-0.087768,1.578323,-0.521562,0.497318,-3.666720,1.538737,-0.862862,0.008827,0.050632,0.000000,-0.052110,-0.156508,-0.000000
4.790000,3.268059,-0.320429,-1.476672,0.142425,0.043949,0.000709,-0.485977,0.082343,-0.082839,1.540256,-0.506253,0.488226,-3.953239,1.529018,-0.956613,0.008313,0.049085,0.000000,-0.050636,-0.152895,0.000000
4.800000,3.269459,-0.319986,-1.476669,0.137641,0.044748,-0.000095,-0.470777,0.077357,-0.078006,1.499323,-0.491042,0.478186,-4.226266,1.506792,-1.050779,0.007814,0.047575,0.000000,-0.049168,-0.148986,-0.000000
4.810000,3.270812,-0.319535,-1.476674,0.133008,0.045497,-0.000852,-0.455999,0.072521,-0.073278,1.455720,-0.476149,0.467276,-4.498493,1.482415,-1.144854,0.007330,0.046106,0.000000,-0.047728,-0.144798,-0.000000
4.820000,3.272120,-0.319076,-1.476686,0.128520,0.046199,-0.001561,-0.441672,0.067834,-0.068665,1.409296,-0.461295,0.455174,-4.779931,1.477661,-1.264037,0.006860,0.044680,0.000000,-0.046288,-0.140317,0.000000
4.830000,3.273383,-0.318611,-1.476705,0.124173,0.046854,-0.002225,-0.427822,0.063294,-0.064177,1.360252,-0.446821,0.442239,-5.028390,1.416688,-1.322754,0.006404,0.043300,0.000000,-0.044883,-0.135561,0.000000
4.840000,3.274603,-0.318139,-1.476730,0.119962,0.047465,-0.002845,-0.414475,0.058896,-0.059823,1.308614,-0.432745,0.428470,-5.304886,1.409288,-1.443418,0.005962,0.041970,0.000000,-0.043514,-0.130532,-0.000000
4.850000,3.275783,-0.317662,-1.476762,0.115881,0.048033,-0.003422,-0.401659,0.054639,-0.055612,1.254203,-0.418725,0.413473,-5.570095,1.384191,-1.545145,0.005534,0.040691,0.000000,-0.042146,-0.125213,-0.000000
4.860000,3.276922,-0.317179,-1.476799,0.111927,0.048558,-0.003958,-0.389400,0.050521,-0.051556,1.197183,-0.405001,0.397499,-5.833469,1.360705,-1.649954,0.005119,0.039466,0.000000,-0.040805,-0.119619,0.000000
4.870000,3.278022,-0.316691,-1.476841,0.108091,0.049044,-0.004454,-0.377724,0.046538,-0.047666,1.137540,-0.391506,0.380467,-6.094983,1.338651,-1.756863,0.004718,0.038299,0.000000,-0.039483,-0.113749,0.000000
4.880000,3.279084,-0.316198,-1.476888,0.104370,0.049490,-0.004912,-0.366658,0.042690,-0.043951,1.075290,-0.378222,0.362355,-6.354562,1.318492,-1.865927,0.004329,0.037192,0.000000,-0.038179,-0.107604,-0.000000
4.890000,3.280109,-0.315701,-1.476939,0.100756,0.049898,-0.005334,-0.356227,0.038973,-0.040422,1.010455,-0.365128,0.343141,-6.612044,1.300690,-1.977178,0.003954,0.036148,0.000000,-0.036890,-0.101187,0.000000
4.900000,3.281099,-0.315200,-1.476994,0.097243,0.050269,-0.005721,-0.346457,0.035387,-0.037092,0.943051,-0.352198,0.322803,-6.867996,1.285764,-2.090740,0.003591,0.035169,0.000000,-0.035614,-0.094498,0.000000
4.910000,3.282054,-0.314696,-1.477053,0.093825,0.050606,-0.006076,-0.337375,0.031929,-0.033970,0.873101,-0.339401,0.301318,-7.121677,1.274111,-2.206621,0.003242,0.034259,0.000000,-0.034349,-0.087542,-0.000000
4.920000,3.282976,-0.314188,-1.477116,0.090493,0.050908,-0.006401,-0.329004,0.028598,-0.031069,0.800624,-0.326703,0.278663,-7.373335,1.266225,-2.324894,0.002904,0.033419,0.000000,-0.033089,-0.080319,0.000000
4.930000,3.283865,-0.313678,-1.477181,0.087242,0.051178,-0.006698,-0.321370,0.025394,-0.028401,0.725640,-0.314063,0.254812,-7.623057,1.262576,-2.445613,0.002580,0.032653,0.000000,-0.031832,-0.072832,0.000000
4.940000,3.284721,-0.313165,-1.477249,0.084063,0.051417,-0.006970,-0.314499,0.022317,-0.025977,0.648168,-0.301436,0.229742,-7.871087,1.263635,-2.568820,0.002268,0.031963,0.000000,-0.030573,-0.065084,0.000000
4.950000,3.285546,-0.312649,-1.477320,0.080950,0.051625,-0.007219,-0.308415,0.019366,-0.023810,0.568247,-0.288773,0.203426,-8.115294,1.269817,-2.694671,0.001968,0.031352,0.000000,-0.029307,-0.057080,0.000000
4.960000,3.286340,-0.312132,-1.477394,0.077892,0.051804,-0.007447,-0.303143,0.016542,-0.021913,0.485877,-0.276021,0.175840,-8.358215,1.281655,-2.823113,0.001682,0.030823,0.000000,-0.028028,-0.048820,0.000000
4.970000,3.287104,-0.311613,-1.477469,0.074884,0.051956,-0.007658,-0.298706,0.013846,-0.020298,0.401090,-0.263120,0.146955,-8.598858,1.299590,-2.954246,0.001408,0.030377,0.000000,-0.026731,-0.040310,0.000000
4.980000,3.287838,-0.311093,-1.477547,0.071915,0.052082,-0.007854,-0.295129,0.011280,-0.018978,0.313908,-0.250007,0.116746,-8.837162,1.324087,-3.088107,0.001147,0.030017,0.000000,-0.025410,-0.031552,-0.000000
4.990000,3.288543,-0.310572,-1.477626,0.068978,0.052182,-0.008038,-0.292435,0.008847,-0.017967,0.224355,-0.236615,0.085184,-9.073012,1.355611,-3.224682,0.000900,0.029747,0.000000,-0.024057,-0.022550,0.000000
5.000000,3.289218,-0.310050,-1.477708,0.066064,0.052259,-0.008214,-0.290649,0.006549,-0.017279,0.132456,-0.222870,0.052243,-9.306206,1.394627,-3.363847,0.000666,0.029567,0.000000,-0.022665,-0.013310,0.000000
