time,x,y,z,vx,vy,vz,ax,ay,az,jx,jy,jz,sx,sy,sz,qw,qx,qy,qz,wx,wy,wz
0.000000,0.022172,-3.007746,0.508312,-0.006314,-0.017141,-0.007091,0.093527,0.195253,0.009812,-0.692623,-1.159112,-0.087030,4.612427,13.856109,3.761135,0.999982,0.003828,-0.004435,-0.001352,0.003056,-0.014660,0.005585
0.010000,0.022114,-3.007908,0.508241,-0.005413,-0.015244,-0.006997,0.086827,0.184348,0.009128,-0.647886,-1.022818,-0.050073,4.337351,13.404606,3.630626,0.999982,0.003827,-0.004463,-0.001334,0.000074,-0.006279,0.003810
0.020000,0.022064,-3.008051,0.508172,-0.004577,-0.013449,-0.006907,0.080560,0.174782,0.008806,-0.605830,-0.890980,-0.014411,4.076073,12.965121,3.502098,0.999982,0.003827,-0.004494,-0.001315,-0.001840,-0.000880,0.002647
0.030000,0.022022,-3.008177,0.508103,-0.003801,-0.011744,-0.006819,0.074701,0.166514,0.008835,-0.566319,-0.763477,0.019976,3.828163,12.537384,3.375545,0.999982,0.003827,-0.004524,-0.001297,-0.003000,0.002414,0.001919
0.040000,0.021988,-3.008287,0.508035,-0.003081,-0.010115,-0.006729,0.069226,0.159499,0.009202,-0.529223,-0.640194,0.053107,3.593195,12.121108,3.250983,0.999982,0.003824,-0.004546,-0.001280,-0.003646,0.004272,0.001491
0.050000,0.021960,-3.008380,0.507969,-0.002415,-0.008550,-0.006634,0.064109,0.153696,0.009893,-0.494414,-0.521016,0.085000,3.370736,11.716139,3.128219,0.999982,0.003816,-0.004553,-0.001267,-0.003959,0.005196,0.001260
0.060000,0.021939,-3.008458,0.507903,-0.001798,-0.007037,-0.006531,0.059330,0.149065,0.010898,-0.461768,-0.405834,0.115677,3.160361,11.322068,3.007451,0.999982,0.003802,-0.004543,-0.001257,-0.004069,0.005550,0.001153
0.070000,0.021924,-3.008521,0.507838,-0.001227,-0.005565,-0.006415,0.054867,0.145566,0.012203,-0.431168,-0.294539,0.145156,2.961641,10.938699,2.888584,0.999982,0.003783,-0.004519,-0.001251,-0.004067,0.005591,0.001116
0.080000,0.021914,-3.008569,0.507775,-0.000700,-0.004122,-0.006286,0.050700,0.143162,0.013797,-0.402498,-0.187025,0.173455,2.774146,10.565827,2.771600,0.999982,0.003761,-0.004487,-0.001246,-0.004015,0.005486,0.001114
0.090000,0.021910,-3.008603,0.507712,-0.000212,-0.002698,-0.006138,0.046811,0.141814,0.015668,-0.375649,-0.083188,0.200594,2.597447,10.203335,2.656474,0.999982,0.003739,-0.004453,-0.001242,-0.003950,0.005342,0.001124
0.100000,0.021910,-3.008623,0.507652,0.000238,-0.001282,-0.005971,0.043182,0.141486,0.017805,-0.350515,0.017065,0.226591,2.431120,9.849934,2.543266,0.999983,0.003718,-0.004423,-0.001237,-0.003892,0.005215,0.001135
0.110000,0.021915,-3.008629,0.507593,0.000652,0.000135,-0.005782,0.039796,0.142143,0.020196,-0.326993,0.113840,0.251466,2.274731,9.506599,2.431869,0.999983,0.003699,-0.004397,-0.001231,-0.003849,0.005129,0.001139
0.120000,0.021923,-3.008620,0.507536,0.001034,0.001564,-0.005567,0.036637,0.143751,0.022830,-0.304988,0.207228,0.275235,2.127853,9.172611,2.322302,0.999983,0.003679,-0.004372,-0.001225,-0.003822,0.005088,0.001137
0.130000,0.021935,-3.008597,0.507482,0.001386,0.003013,-0.005324,0.033691,0.146277,0.025697,-0.284406,0.297322,0.297918,1.990058,8.847702,2.214553,0.999983,0.003660,-0.004346,-0.001220,-0.003809,0.005081,0.001128
0.140000,0.021951,-3.008560,0.507430,0.001709,0.004492,-0.005052,0.030944,0.149687,0.028785,-0.265158,0.384211,0.319532,1.860916,8.531551,2.108612,0.999983,0.003641,-0.004320,-0.001214,-0.003802,0.005095,0.001116
0.150000,0.021969,-3.008507,0.507381,0.002005,0.006010,-0.004748,0.028384,0.153951,0.032084,-0.247160,0.467981,0.340096,1.739998,8.223679,2.004467,0.999983,0.003622,-0.004294,-0.001209,-0.003797,0.005112,0.001103
0.160000,0.021991,-3.008440,0.507335,0.002277,0.007574,-0.004410,0.025997,0.159037,0.035584,-0.230332,0.548719,0.359626,1.626882,7.924727,1.902030,0.999984,0.003603,-0.004269,-0.001203,-0.003789,0.005122,0.001091
0.170000,0.022015,-3.008356,0.507293,0.002526,0.009193,-0.004035,0.023773,0.164915,0.039273,-0.214598,0.626503,0.378142,1.521131,7.633427,1.801390,0.999984,0.003584,-0.004243,-0.001198,-0.003776,0.005117,0.001083
0.180000,0.022041,-3.008256,0.507255,0.002753,0.010875,-0.003623,0.021702,0.171557,0.043143,-0.199886,0.701413,0.395660,1.422319,7.349791,1.702496,0.999984,0.003565,-0.004218,-0.001192,-0.003757,0.005095,0.001077
0.190000,0.022070,-3.008138,0.507220,0.002960,0.012627,-0.003172,0.019772,0.178934,0.047183,-0.186130,0.773523,0.412198,1.330018,7.073365,1.605346,0.999984,0.003547,-0.004193,-0.001187,-0.003732,0.005058,0.001075
0.200000,0.022100,-3.008003,0.507191,0.003149,0.014456,-0.002679,0.017976,0.187019,0.051384,-0.173266,0.842914,0.427772,1.243801,6.804924,1.509851,0.999984,0.003528,-0.004168,-0.001181,-0.003704,0.005012,0.001074
0.210000,0.022133,-3.007849,0.507167,0.003320,0.016369,-0.002144,0.016304,0.195783,0.055736,-0.161357,0.909594,0.442398,1.160828,6.541928,1.416033,0.999985,0.003510,-0.004143,-0.001176,-0.003686,0.004993,0.001068
0.220000,0.022167,-3.007675,0.507148,0.003475,0.018374,-0.001564,0.014748,0.205203,0.060229,-0.149830,0.973863,0.456102,1.124214,6.303565,1.324766,0.999985,0.003491,-0.004118,-0.001171,-0.003668,0.004973,0.001062
0.230000,0.022202,-3.007481,0.507136,0.003615,0.020475,-0.000939,0.013304,0.215252,0.064855,-0.139303,1.035492,0.468889,0.981224,6.023086,1.232821,0.999985,0.003473,-0.004093,-0.001165,-0.003650,0.004954,0.001057
0.240000,0.022239,-3.007265,0.507130,0.003742,0.022681,-0.000267,0.011959,0.225904,0.069604,-0.129759,1.094533,0.480773,0.949906,5.795528,1.144810,0.999985,0.003455,-0.004068,-0.001160,-0.003632,0.004934,0.001051
0.250000,0.022277,-3.007027,0.507131,0.003855,0.024995,0.000454,0.010708,0.237135,0.074467,-0.120473,1.151342,0.491786,0.886519,5.558114,1.057634,0.999985,0.003437,-0.004044,-0.001155,-0.003614,0.004915,0.001045
0.260000,0.022316,-3.006765,0.507139,0.003956,0.027425,0.001223,0.009546,0.248922,0.079436,-0.111988,1.205721,0.501931,0.826857,5.326315,0.972093,0.999985,0.003419,-0.004019,-0.001150,-0.003596,0.004896,0.001040
0.270000,0.022356,-3.006478,0.507155,0.004046,0.029976,0.002043,0.008468,0.261243,0.084503,-0.103778,1.257959,0.511238,0.800509,5.114671,0.889065,0.999986,0.003401,-0.003995,-0.001144,-0.003579,0.004877,0.001034
0.280000,0.022397,-3.006165,0.507180,0.004126,0.032652,0.002913,0.007468,0.274074,0.089658,-0.096287,1.307875,0.519708,0.697806,4.869148,0.805247,0.999986,0.003383,-0.003970,-0.001139,-0.003561,0.004858,0.001029
0.290000,0.022438,-3.005825,0.507214,0.004196,0.035459,0.003836,0.006539,0.287392,0.094894,-0.089501,1.355512,0.527358,0.675300,4.666685,0.725374,0.999986,0.003365,-0.003946,-0.001134,-0.003543,0.004839,0.001023
0.300000,0.022481,-3.005455,0.507257,0.004257,0.038401,0.004812,0.005678,0.301178,0.100203,-0.082902,1.401161,0.534217,0.629784,4.456413,0.646375,0.999986,0.003348,-0.003922,-0.001129,-0.003526,0.004821,0.001018
0.310000,0.022524,-3.005056,0.507310,0.004310,0.041484,0.005840,0.004879,0.315408,0.105576,-0.076883,1.444666,0.540293,0.586839,4.251257,0.568808,0.999986,0.003330,-0.003898,-0.001124,-0.003509,0.004802,0.001012
0.320000,0.022567,-3.004625,0.507374,0.004355,0.044711,0.006923,0.004140,0.330065,0.111006,-0.071042,1.486265,0.545593,0.569783,4.062951,0.491961,0.999986,0.003313,-0.003874,-0.001119,-0.003491,0.004784,0.001007
0.330000,0.022611,-3.004161,0.507449,0.004392,0.048086,0.008061,0.003457,0.345127,0.116485,-0.065730,1.525807,0.550148,0.492584,3.846141,0.419372,0.999987,0.003295,-0.003850,-0.001114,-0.003474,0.004765,0.001001
0.340000,0.022655,-3.003663,0.507535,0.004424,0.051615,0.009253,0.002823,0.360574,0.122007,-0.060939,1.563332,0.553975,0.478097,3.666016,0.345731,0.999987,0.003278,-0.003826,-0.001109,-0.003457,0.004747,0.000996
0.350000,0.022699,-3.003129,0.507634,0.004449,0.055299,0.010501,0.002238,0.376388,0.127563,-0.056263,1.599079,0.557072,0.445357,3.478686,0.274531,0.999987,0.003261,-0.003802,-0.001104,-0.003440,0.004729,0.000991
0.360000,0.022744,-3.002556,0.507746,0.004469,0.059144,0.011804,0.001697,0.392549,0.133146,-0.052009,1.632922,0.559469,0.414562,3.295873,0.204822,0.999987,0.003243,-0.003779,-0.001099,-0.003423,0.004711,0.000985
0.370000,0.022788,-3.001945,0.507870,0.004483,0.063151,0.013164,0.001197,0.409040,0.138750,-0.047886,1.665058,0.561173,0.401961,3.126908,0.136385,0.999987,0.003226,-0.003755,-0.001094,-0.003407,0.004693,0.000980
0.380000,0.022833,-3.001293,0.508009,0.004493,0.067325,0.014580,0.000738,0.425844,0.144367,-0.044140,1.695368,0.562204,0.347305,2.935657,0.070098,0.999987,0.003209,-0.003732,-0.001089,-0.003390,0.004675,0.000975
0.390000,0.022878,-3.000598,0.508162,0.004498,0.071669,0.016051,0.000313,0.442942,0.149991,-0.040764,1.723886,0.562577,0.336619,2.773641,0.004687,0.999987,0.003192,-0.003709,-0.001084,-0.003373,0.004658,0.000970
0.400000,0.022923,-2.999859,0.508330,0.004499,0.076185,0.017579,-0.000078,0.460317,0.155616,-0.037474,1.750809,0.562303,0.313203,2.606686,-0.059102,0.999988,0.003176,-0.003685,-0.001079,-0.003357,0.004640,0.000964
0.410000,0.022968,-2.999074,0.508514,0.004497,0.080876,0.019164,-0.000437,0.477952,0.161235,-0.034482,1.776037,0.561396,0.291228,2.443390,-0.121464,0.999988,0.003159,-0.003662,-0.001074,-0.003340,0.004623,0.000959
0.420000,0.023013,-2.998241,0.508714,0.004491,0.085745,0.020804,-0.000768,0.495832,0.166842,-0.031591,1.799724,0.559883,0.281564,2.290962,-0.181421,0.999988,0.003142,-0.003639,-0.001070,-0.003324,0.004605,0.000954
0.430000,0.023058,-2.997358,0.508930,0.004481,0.090794,0.022500,-0.001070,0.513941,0.172431,-0.028965,1.821788,0.557762,0.243781,2.122143,-0.242536,0.999988,0.003126,-0.003616,-0.001065,-0.003308,0.004588,0.000949
0.440000,0.023103,-2.996424,0.509164,0.004469,0.096025,0.024253,-0.001348,0.532263,0.177996,-0.026597,1.842254,0.555047,0.235588,1.975457,-0.299702,0.999988,0.003109,-0.003593,-0.001060,-0.003292,0.004571,0.000944
0.450000,0.023147,-2.995437,0.509415,0.004454,0.101440,0.026060,-0.001602,0.550782,0.183530,-0.024297,1.861287,0.551767,0.218933,1.826571,-0.356399,0.999988,0.003093,-0.003570,-0.001055,-0.003276,0.004554,0.000938
0.460000,0.023192,-2.994395,0.509685,0.004437,0.107041,0.027923,-0.001835,0.569483,0.189029,-0.022212,1.878802,0.547928,0.203199,1.680238,-0.411571,0.999988,0.003076,-0.003548,-0.001051,-0.003260,0.004537,0.000933
0.470000,0.023236,-2.993296,0.509974,0.004418,0.112830,0.029841,-0.002047,0.588353,0.194487,-0.020184,1.894933,0.543537,0.197825,1.543247,-0.465999,0.999989,0.003060,-0.003525,-0.001046,-0.003244,0.004520,0.000928
0.480000,0.023280,-2.992138,0.510282,0.004396,0.118808,0.031813,-0.002239,0.607377,0.199898,-0.018354,1.909610,0.538620,0.168143,1.392526,-0.517297,0.999989,0.003044,-0.003502,-0.001041,-0.003228,0.004503,0.000923
0.490000,0.023324,-2.990919,0.510611,0.004373,0.124978,0.033838,-0.002414,0.626541,0.205258,-0.016720,1.922859,0.533189,0.163673,1.260972,-0.568922,0.999989,0.003028,-0.003480,-0.001037,-0.003212,0.004487,0.000918
0.500000,0.023368,-2.989637,0.510959,0.004348,0.131340,0.035918,-0.002573,0.645830,0.210560,-0.015119,1.934811,0.527249,0.151778,1.126758,-0.618595,0.999989,0.003012,-0.003458,-0.001032,-0.003196,0.004470,0.000913
0.510000,0.023411,-2.988291,0.511329,0.004322,0.137895,0.038049,-0.002717,0.665232,0.215801,-0.013668,1.945406,0.520818,0.140757,0.995360,-0.667014,0.999989,0.002996,-0.003435,-0.001028,-0.003181,0.004454,0.000908
0.520000,0.023454,-2.986879,0.511720,0.004294,0.144645,0.040233,-0.002847,0.684734,0.220975,-0.012281,1.954751,0.513918,0.134641,0.871559,-0.713228,0.999989,0.002980,-0.003413,-0.001023,-0.003165,0.004437,0.000903
0.530000,0.023497,-2.985398,0.512134,0.004265,0.151590,0.042469,-0.002963,0.704323,0.226078,-0.011018,1.962794,0.506548,0.117964,0.737429,-0.760507,0.999989,0.002964,-0.003391,-0.001019,-0.003150,0.004421,0.000898
0.540000,0.023539,-2.983846,0.512570,0.004235,0.158731,0.044755,-0.003068,0.723986,0.231104,-0.009876,1.969559,0.498721,0.112764,0.618529,-0.804198,0.999989,0.002949,-0.003369,-0.001014,-0.003135,0.004405,0.000893
0.550000,0.023582,-2.982223,0.513029,0.004203,0.166070,0.047091,-0.003161,0.743710,0.236051,-0.008780,1.975151,0.490465,0.104479,0.497872,-0.847333,0.999990,0.002933,-0.003347,-0.001010,-0.003119,0.004389,0.000888
0.560000,0.023623,-2.980524,0.513512,0.004171,0.173606,0.049475,-0.003244,0.763485,0.240912,-0.007790,1.979527,0.481782,0.096562,0.379734,-0.889143,0.999990,0.002917,-0.003325,-0.001005,-0.003104,0.004373,0.000883
0.570000,0.023665,-2.978750,0.514019,0.004139,0.181340,0.051908,-0.003317,0.783297,0.245685,-0.006819,1.982773,0.472684,0.094865,0.267885,-0.930115,0.999990,0.002902,-0.003303,-0.001001,-0.003089,0.004357,0.000879
0.580000,0.023706,-2.976897,0.514550,0.004105,0.189272,0.054389,-0.003380,0.803136,0.250365,-0.005953,1.984851,0.463189,0.078200,0.148149,-0.968604,0.999990,0.002887,-0.003281,-0.000996,-0.003074,0.004342,0.000874
0.590000,0.023747,-2.974964,0.515107,0.004071,0.197402,0.056915,-0.003436,0.822990,0.254947,-0.005193,1.985784,0.453312,0.076843,0.040787,-1.006947,0.999990,0.002871,-0.003260,-0.000992,-0.003059,0.004326,0.000869
0.600000,0.023788,-2.972948,0.515689,0.004036,0.205732,0.059487,-0.003484,0.842848,0.259430,-0.004440,1.985658,0.443057,0.070853,-0.067382,-1.043516,0.999990,0.002856,-0.003238,-0.000988,-0.003044,0.004311,0.000864
0.610000,0.023828,-2.970848,0.516297,0.004001,0.214259,0.062104,-0.003525,0.862700,0.263807,-0.003774,1.984437,0.432441,0.065154,-0.174043,-1.079271,0.999990,0.002841,-0.003217,-0.000983,-0.003029,0.004295,0.000860
0.620000,0.023868,-2.968662,0.516931,0.003966,0.222985,0.064763,-0.003560,0.882534,0.268077,-0.003111,1.982198,0.421469,0.064901,-0.274898,-1.114427,0.999990,0.002826,-0.003195,-0.000979,-0.003015,0.004280,0.000855
0.630000,0.023907,-2.966388,0.517592,0.003930,0.231910,0.067465,-0.003588,0.902340,0.272236,-0.002530,1.978912,0.410166,0.051243,-0.382113,-1.145970,0.999991,0.002811,-0.003174,-0.000975,-0.003000,0.004265,0.000850
0.640000,0.023946,-2.964024,0.518280,0.003894,0.241032,0.070208,-0.003611,0.922108,0.276279,-0.002032,1.974597,0.398544,0.051147,-0.478861,-1.178650,0.999991,0.002796,-0.003152,-0.000970,-0.002986,0.004250,0.000845
0.650000,0.023985,-2.961567,0.518996,0.003858,0.250352,0.072990,-0.003628,0.941829,0.280205,-0.001529,1.969324,0.386602,0.046862,-0.576563,-1.209317,0.999991,0.002781,-0.003131,-0.000966,-0.002971,0.004235,0.000841
0.660000,0.024023,-2.959016,0.519740,0.003822,0.259869,0.075811,-0.003641,0.961492,0.284010,-0.001077,1.963072,0.374355,0.043096,-0.672097,-1.238958,0.999991,0.002766,-0.003110,-0.000962,-0.002957,0.004220,0.000836
0.670000,0.024061,-2.956369,0.520513,0.003785,0.269582,0.078670,-0.003650,0.981087,0.287692,-0.000669,1.955902,0.361833,0.038907,-0.762916,-1.265982,0.999991,0.002751,-0.003089,-0.000958,-0.002942,0.004205,0.000832
0.680000,0.024099,-2.953624,0.521314,0.003749,0.279490,0.081565,-0.003655,1.000607,0.291246,-0.000291,1.947791,0.349023,0.036911,-0.859064,-1.295847,0.999991,0.002737,-0.003068,-0.000954,-0.002928,0.004190,0.000827
0.690000,0.024136,-2.950778,0.522144,0.003712,0.289593,0.084494,-0.003656,1.020040,0.294671,0.000062,1.938755,0.335936,0.033311,-0.946290,-1.320806,0.999991,0.002722,-0.003047,-0.000950,-0.002914,0.004176,0.000822
0.700000,0.024173,-2.947831,0.523004,0.003676,0.299891,0.087458,-0.003654,1.039379,0.297964,0.000379,1.928863,0.322606,0.030563,-1.033737,-1.345794,0.999991,0.002708,-0.003026,-0.000945,-0.002900,0.004161,0.000818
0.710000,0.024210,-2.944780,0.523893,0.003639,0.310381,0.090453,-0.003649,1.058614,0.301122,0.000663,1.918090,0.309029,0.027827,-1.119445,-1.369675,0.999991,0.002693,-0.003006,-0.000941,-0.002886,0.004147,0.000813
0.720000,0.024246,-2.941623,0.524813,0.003603,0.321062,0.093480,-0.003640,1.077738,0.304144,0.000951,1.906489,0.295215,0.028187,-1.201519,-1.392825,0.999992,0.002679,-0.002985,-0.000937,-0.002872,0.004133,0.000809
0.730000,0.024282,-2.938358,0.525763,0.003566,0.331935,0.096536,-0.003630,1.096741,0.307026,0.001196,1.894047,0.281180,0.020845,-1.286499,-1.413846,0.999992,0.002664,-0.002964,-0.000933,-0.002858,0.004119,0.000804
0.740000,0.024317,-2.934983,0.526744,0.003530,0.342997,0.099620,-0.003617,1.115616,0.309767,0.001399,1.880784,0.266938,0.021240,-1.364929,-1.434740,0.999992,0.002650,-0.002944,-0.000929,-0.002845,0.004105,0.000800
0.750000,0.024353,-2.931497,0.527756,0.003494,0.354247,0.102730,-0.003602,1.134354,0.312364,0.001609,1.866742,0.252490,0.019210,-1.443580,-1.454301,0.999992,0.002636,-0.002923,-0.000925,-0.002831,0.004091,0.000795
0.760000,0.024387,-2.927898,0.528798,0.003458,0.365683,0.105866,-0.003585,1.152948,0.314816,0.001785,1.851917,0.237859,0.017293,-1.520273,-1.472662,0.999992,0.002622,-0.002903,-0.000921,-0.002817,0.004077,0.000791
0.770000,0.024422,-2.924183,0.529873,0.003422,0.377305,0.109026,-0.003566,1.171390,0.317121,0.001966,1.836349,0.223031,0.017694,-1.593702,-1.491752,0.999992,0.002608,-0.002882,-0.000917,-0.002804,0.004063,0.000787
0.780000,0.024456,-2.920351,0.530979,0.003387,0.389111,0.112208,-0.003545,1.189673,0.319276,0.002116,1.820032,0.208047,0.012311,-1.669624,-1.504986,0.999992,0.002594,-0.002862,-0.000913,-0.002790,0.004049,0.000782
0.790000,0.024489,-2.916400,0.532117,0.003351,0.401098,0.115411,-0.003524,1.207788,0.321281,0.002235,1.802978,0.192916,0.012737,-1.739939,-1.521828,0.999992,0.002580,-0.002842,-0.000909,-0.002777,0.004036,0.000778
0.800000,0.024523,-2.912329,0.533287,0.003316,0.413266,0.118633,-0.003501,1.225730,0.323134,0.002361,1.785233,0.177621,0.011342,-1.809788,-1.536090,0.999992,0.002566,-0.002822,-0.000906,-0.002764,0.004022,0.000773
0.810000,0.024556,-2.908134,0.534490,0.003281,0.425612,0.121873,-0.003477,1.243491,0.324833,0.002476,1.766787,0.162184,0.010286,-1.878165,-1.549604,0.999992,0.002552,-0.002802,-0.000902,-0.002750,0.004009,0.000769
0.820000,0.024588,-2.903816,0.535725,0.003247,0.438135,0.125130,-0.003451,1.261064,0.326377,0.002555,1.747684,0.146648,0.006798,-1.943159,-1.559112,0.999993,0.002539,-0.002782,-0.000898,-0.002737,0.003996,0.000765
0.830000,0.024621,-2.899371,0.536993,0.003212,0.450833,0.128400,-0.003425,1.278442,0.327765,0.002640,1.727910,0.130972,0.010283,-2.011321,-1.575863,0.999993,0.002525,-0.002762,-0.000894,-0.002724,0.003983,0.000760
0.840000,0.024653,-2.894799,0.538293,0.003178,0.463703,0.131684,-0.003399,1.295620,0.328996,0.002734,1.707482,0.115165,0.007237,-2.073159,-1.583752,0.999993,0.002511,-0.002742,-0.000890,-0.002711,0.003970,0.000756
0.850000,0.024684,-2.890096,0.539626,0.003144,0.476744,0.134980,-0.003371,1.312590,0.330069,0.002796,1.686446,0.099287,0.006512,-2.134736,-1.593353,0.999993,0.002498,-0.002722,-0.000886,-0.002698,0.003957,0.000752
0.860000,0.024716,-2.885263,0.540993,0.003111,0.489954,0.138285,-0.003343,1.329346,0.330982,0.002846,1.664778,0.083308,0.005525,-2.196072,-1.602006,0.999993,0.002484,-0.002702,-0.000883,-0.002685,0.003944,0.000747
0.870000,0.024747,-2.880297,0.542392,0.003077,0.503331,0.141599,-0.003314,1.345883,0.331734,0.002924,1.642524,0.067251,0.008215,-2.254656,-1.609315,0.999993,0.002471,-0.002683,-0.000879,-0.002673,0.003931,0.000743
0.880000,0.024777,-2.875196,0.543825,0.003044,0.516871,0.144919,-0.003284,1.362195,0.332326,0.002971,1.619685,0.051121,0.001113,-2.312925,-1.616584,0.999993,0.002458,-0.002663,-0.000875,-0.002660,0.003918,0.000739
0.890000,0.024807,-2.869959,0.545290,0.003012,0.530574,0.148245,-0.003255,1.378275,0.332757,0.002985,1.596275,0.034926,0.003497,-2.368581,-1.621953,0.999993,0.002444,-0.002643,-0.000872,-0.002647,0.003906,0.000734
0.900000,0.024837,-2.864584,0.546790,0.002979,0.544436,0.151574,-0.003224,1.394119,0.333025,0.003025,1.572314,0.018680,0.002699,-2.423296,-1.626973,0.999993,0.002431,-0.002624,-0.000868,-0.002635,0.003893,0.000730
0.910000,0.024867,-2.859070,0.548322,0.002947,0.558455,0.154905,-0.003194,1.409720,0.333130,0.003044,1.547812,0.002401,0.001957,-2.476543,-1.630687,0.999993,0.002418,-0.002604,-0.000864,-0.002622,0.003881,0.000726
0.920000,0.024896,-2.853414,0.549888,0.002916,0.572630,0.158236,-0.003164,1.425073,0.333072,0.003073,1.522792,-0.013949,0.002969,-2.527548,-1.637173,0.999993,0.002405,-0.002585,-0.000861,-0.002610,0.003868,0.000722
0.930000,0.024925,-2.847617,0.551487,0.002884,0.586956,0.161566,-0.003133,1.440174,0.332851,0.003085,1.497256,-0.030300,-0.000640,-2.579410,-1.632770,0.999993,0.002392,-0.002566,-0.000857,-0.002597,0.003856,0.000718
0.940000,0.024954,-2.841675,0.553119,0.002853,0.601432,0.164893,-0.003102,1.455017,0.332467,0.003078,1.471217,-0.046640,0.000267,-2.627738,-1.637041,0.999994,0.002379,-0.002546,-0.000853,-0.002585,0.003844,0.000714
0.950000,0.024982,-2.835587,0.554784,0.002822,0.616055,0.168215,-0.003071,1.469596,0.331918,0.003083,1.444702,-0.063023,-0.000304,-2.675461,-1.637331,0.999994,0.002366,-0.002527,-0.000850,-0.002573,0.003832,0.000709
0.960000,0.025010,-2.829353,0.556483,0.002791,0.630823,0.171530,-0.003040,1.483909,0.331206,0.003085,1.417711,-0.079399,-0.000627,-2.721864,-1.636912,0.999994,0.002353,-0.002508,-0.000846,-0.002560,0.003820,0.000705
0.970000,0.025038,-2.822970,0.558215,0.002761,0.645733,0.174838,-0.003010,1.497949,0.330330,0.003058,1.390275,-0.095751,-0.003415,-2.765858,-1.634193,0.999994,0.002341,-0.002489,-0.000843,-0.002548,0.003808,0.000701
0.980000,0.025066,-2.816438,0.559980,0.002731,0.660781,0.178136,-0.002979,1.511713,0.329291,0.003044,1.362387,-0.112096,0.000642,-2.811499,-1.634680,0.999994,0.002328,-0.002470,-0.000839,-0.002536,0.003796,0.000697
0.990000,0.025093,-2.809754,0.561778,0.002702,0.675966,0.181423,-0.002949,1.525196,0.328088,0.003045,1.334060,-0.128427,-0.001805,-2.853087,-1.630521,0.999994,0.002315,-0.002451,-0.000836,-0.002524,0.003785,0.000693
1.000000,0.025120,-2.802918,0.563608,0.002672,0.691284,0.184698,-0.002918,1.538393,0.326723,0.003019,1.305327,-0.144710,-0.002000,-2.894141,-1.626851,0.999994,0.002303,-0.002432,-0.000832,-0.002512,0.003773,0.000689
1.010000,0.025146,-2.795928,0.565472,0.002643,0.706733,0.187957,-0.002888,1.551301,0.325194,0.002994,1.276185,-0.160960,-0.002326,-2.934010,-1.622449,0.999994,0.002290,-0.002413,-0.000829,-0.002500,0.003762,0.000685
1.020000,0.025173,-2.788783,0.567367,0.002615,0.722309,0.191201,-0.002858,1.563915,0.323504,0.002978,1.246652,-0.177151,-0.001419,-2.972400,-1.616097,0.999994,0.002278,-0.002395,-0.000825,-0.002488,0.003750,0.000681
1.030000,0.025199,-2.781482,0.569296,0.002586,0.738010,0.194427,-0.002829,1.576232,0.321652,0.002952,1.216739,-0.193293,-0.003790,-3.009971,-1.612207,0.999994,0.002265,-0.002376,-0.000822,-0.002476,0.003739,0.000676
1.040000,0.025224,-2.774023,0.571256,0.002558,0.753833,0.197633,-0.002799,1.588249,0.319638,0.002915,1.186459,-0.209380,-0.002978,-3.045567,-1.604480,0.999994,0.002253,-0.002357,-0.000819,-0.002464,0.003728,0.000672
1.050000,0.025250,-2.766405,0.573248,0.002530,0.769774,0.200819,-0.002770,1.599960,0.317464,0.002888,1.155820,-0.225385,-0.003234,-3.080989,-1.597063,0.999994,0.002241,-0.002339,-0.000815,-0.002453,0.003716,0.000668
1.060000,0.025275,-2.758627,0.575272,0.002503,0.785831,0.203982,-0.002742,1.611364,0.315131,0.002851,1.124840,-0.241313,-0.003491,-3.114693,-1.588831,0.999994,0.002228,-0.002320,-0.000812,-0.002441,0.003705,0.000664
1.070000,0.025300,-2.750688,0.577328,0.002475,0.802000,0.207121,-0.002713,1.622456,0.312638,0.002822,1.093531,-0.257163,-0.002772,-3.147037,-1.580708,0.999995,0.002216,-0.002301,-0.000809,-0.002429,0.003694,0.000660
1.080000,0.025324,-2.742586,0.579415,0.002448,0.818279,0.210234,-0.002685,1.633234,0.309988,0.002785,1.061901,-0.272916,-0.004648,-3.178776,-1.569625,0.999995,0.002204,-0.002283,-0.000805,-0.002418,0.003683,0.000656
1.090000,0.025349,-2.734322,0.581532,0.002422,0.834664,0.213320,-0.002658,1.643693,0.307180,0.002740,1.029960,-0.288562,-0.003997,-3.209086,-1.559995,0.999995,0.002192,-0.002265,-0.000802,-0.002406,0.003672,0.000652
1.100000,0.025373,-2.725893,0.583681,0.002395,0.851152,0.216378,-0.002630,1.653832,0.304217,0.002701,0.997731,-0.304110,-0.004192,-3.237642,-1.548978,0.999995,0.002180,-0.002246,-0.000799,-0.002395,0.003662,0.000648
1.110000,0.025397,-2.717298,0.585860,0.002369,0.867740,0.219404,-0.002604,1.663647,0.301099,0.002634,0.965226,-0.319523,-0.004815,-3.265268,-1.536916,0.999995,0.002168,-0.002228,-0.000795,-0.002383,0.003651,0.000644
1.120000,0.025420,-2.708538,0.588069,0.002343,0.884424,0.222399,-0.002577,1.673135,0.297826,0.002646,0.932411,-0.334878,0.002849,-3.295533,-1.530682,0.999995,0.002156,-0.002210,-0.000792,-0.002372,0.003640,0.000640
1.130000,0.025444,-2.699610,0.590308,0.002317,0.901201,0.225360,-0.002551,1.682294,0.294402,0.002601,0.899360,-0.350064,-0.011810,-3.314538,-1.506242,0.999995,0.002144,-0.002192,-0.000789,-0.002360,0.003630,0.000636
1.140000,0.025467,-2.690513,0.592576,0.002292,0.918069,0.228287,-0.002526,1.691122,0.290826,0.002496,0.866085,-0.365069,-0.004880,-3.342238,-1.498076,0.999995,0.002133,-0.002173,-0.000786,-0.002349,0.003619,0.000632
1.150000,0.025489,-2.681248,0.594873,0.002267,0.935023,0.231176,-0.002501,1.699615,0.287100,0.002467,0.832537,-0.379995,-0.005161,-3.365443,-1.483682,0.999995,0.002121,-0.002155,-0.000783,-0.002338,0.003609,0.000628
1.160000,0.025512,-2.671812,0.597199,0.002242,0.952060,0.234028,-0.002476,1.707772,0.283226,0.002483,0.798740,-0.394792,-0.003715,-3.388423,-1.469590,0.999995,0.002109,-0.002137,-0.000780,-0.002327,0.003598,0.000624
1.170000,0.025534,-2.662206,0.599554,0.002217,0.969177,0.236840,-0.002452,1.715590,0.279205,0.002283,0.764822,-0.409330,-0.024539,-3.400163,-1.443740,0.999995,0.002098,-0.002119,-0.000776,-0.002316,0.003588,0.000620
1.180000,0.025556,-2.652429,0.601936,0.002193,0.986370,0.239612,-0.002430,1.723067,0.275040,0.002236,0.730628,-0.423788,0.015468,-3.438686,-1.447898,0.999995,0.002086,-0.002102,-0.000773,-0.002304,0.003578,0.000616
1.190000,0.025578,-2.642479,0.604346,0.002169,1.003637,0.242341,-0.002407,1.730201,0.270730,0.002358,0.696159,-0.438169,-0.002837,-3.449687,-1.422263,0.999995,0.002075,-0.002084,-0.000770,-0.002293,0.003568,0.000612
1.200000,0.025600,-2.632356,0.606783,0.002145,1.020973,0.245026,-0.002383,1.736990,0.266278,0.002279,0.661591,-0.452282,-0.001256,-3.469071,-1.406128,0.999995,0.002063,-0.002066,-0.000767,-0.002282,0.003558,0.000608
1.210000,0.025621,-2.622059,0.609246,0.002121,1.038376,0.247666,-0.002361,1.743432,0.261685,0.002264,0.626831,-0.466274,-0.000614,-3.485501,-1.389186,0.999996,0.002052,-0.002048,-0.000764,-0.002271,0.003548,0.000604
1.220000,0.025642,-2.611588,0.611736,0.002098,1.055841,0.250259,-0.002338,1.749526,0.256953,0.002276,0.591893,-0.480028,0.001955,-3.501841,-1.365083,0.999996,0.002040,-0.002030,-0.000761,-0.002260,0.003538,0.000601
1.230000,0.025663,-2.600942,0.614251,0.002074,1.073365,0.252804,-0.002315,1.755270,0.252085,0.002281,0.556798,-0.493647,-0.001022,-3.517101,-1.358828,0.999996,0.002029,-0.002013,-0.000758,-0.002248,0.003528,0.000597
1.240000,0.025684,-2.590121,0.616792,0.002051,1.090945,0.255300,-0.002293,1.760662,0.247080,0.002276,0.521555,-0.507131,0.001058,-3.531325,-1.334227,0.999996,0.002018,-0.001995,-0.000755,-0.002237,0.003518,0.000594
1.250000,0.025704,-2.579123,0.619357,0.002028,1.108577,0.257746,-0.002270,1.765700,0.241943,0.002293,0.486177,-0.520362,0.001175,-3.544339,-1.315207,0.999996,0.002007,-0.001977,-0.000752,-0.002225,0.003508,0.000590
1.260000,0.025724,-2.567949,0.621946,0.002006,1.126258,0.260139,-0.002247,1.770385,0.236674,0.002212,0.450711,-0.533362,-0.000684,-3.555588,-1.294164,0.999996,0.001996,-0.001960,-0.000749,-0.002214,0.003498,0.000587
1.270000,0.025744,-2.556598,0.624560,0.001984,1.143984,0.262479,-0.002224,1.774714,0.231276,0.002431,0.415005,-0.546332,0.028366,-3.578733,-1.290510,0.999996,0.001985,-0.001943,-0.000746,-0.002202,0.003489,0.000584
1.280000,0.025764,-2.545069,0.627196,0.001961,1.161751,0.264764,-0.002199,1.778685,0.225749,0.002440,0.379281,-0.558974,-0.027091,-3.565805,-1.237373,0.999996,0.001974,-0.001925,-0.000743,-0.002191,0.003479,0.000580
1.290000,0.025783,-2.533363,0.629855,0.001940,1.179556,0.266993,-0.002176,1.782299,0.220097,0.002216,0.343556,-0.571267,-0.001578,-3.585839,-1.230615,0.999996,0.001963,-0.001908,-0.000740,-0.002180,0.003469,0.000577
1.300000,0.025803,-2.521478,0.632536,0.001918,1.197396,0.269165,-0.002154,1.785555,0.214323,0.002271,0.307634,-0.583504,-0.003691,-3.592635,-1.207366,0.999996,0.001952,-0.001890,-0.000738,-0.002168,0.003460,0.000574
1.310000,0.025822,-2.509414,0.635238,0.001896,1.215266,0.271279,-0.002131,1.788452,0.208428,0.002260,0.271637,-0.595490,-0.004103,-3.600084,-1.184741,0.999996,0.001941,-0.001873,-0.000735,-0.002157,0.003450,0.000570
1.320000,0.025841,-2.497172,0.637961,0.001875,1.233164,0.273333,-0.002109,1.790988,0.202415,0.002137,0.235695,-0.607152,-0.014926,-3.594516,-1.152360,0.999996,0.001930,-0.001856,-0.000732,-0.002146,0.003441,0.000567
1.330000,0.025859,-2.484751,0.640704,0.001854,1.251085,0.275327,-0.002088,1.793165,0.196286,0.002076,0.199618,-0.618637,0.002850,-3.620875,-1.144675,0.999996,0.001920,-0.001839,-0.000729,-0.002135,0.003431,0.000564
1.340000,0.025878,-2.472151,0.643467,0.001834,1.269026,0.277259,-0.002067,1.794980,0.190042,0.002084,0.163407,-0.629947,-0.006602,-3.614851,-1.112373,0.999996,0.001909,-0.001822,-0.000726,-0.002124,0.003422,0.000561
1.350000,0.025896,-2.459371,0.646249,0.001813,1.286983,0.279128,-0.002047,1.796434,0.183688,0.001991,0.127274,-0.640923,-0.006566,-3.618345,-1.087724,0.999996,0.001898,-0.001804,-0.000723,-0.002113,0.003412,0.000557
1.360000,0.025914,-2.446411,0.649050,0.001793,1.304953,0.280932,-0.002029,1.797527,0.177225,0.001609,0.091325,-0.651675,-0.012935,-3.615790,-1.062379,0.999996,0.001888,-0.001787,-0.000721,-0.002102,0.003403,0.000554
1.370000,0.025932,-2.433271,0.651868,0.001772,1.322932,0.282672,-0.002010,1.798257,0.170655,0.002257,0.054553,-0.662166,0.087414,-3.695406,-1.036097,0.999996,0.001877,-0.001770,-0.000718,-0.002091,0.003394,0.000551
1.380000,0.025949,-2.419952,0.654703,0.001752,1.340917,0.284345,-0.001986,1.798620,0.163982,0.002202,0.018322,-0.672400,-0.099882,-3.549432,-1.010615,0.999996,0.001867,-0.001753,-0.000715,-0.002081,0.003385,0.000548
1.390000,0.025967,-2.406453,0.657554,0.001733,1.358904,0.285951,-0.001969,1.798626,0.157208,0.001378,-0.017305,-0.682372,-0.009067,-3.619323,-0.983472,0.999997,0.001857,-0.001737,-0.000712,-0.002070,0.003376,0.000545
1.400000,0.025984,-2.392774,0.660422,0.001713,1.376888,0.287489,-0.001954,1.798270,0.150336,0.001553,-0.053695,-0.692069,-0.011202,-3.615449,-0.956186,0.999997,0.001846,-0.001720,-0.000710,-0.002059,0.003367,0.000542
1.410000,0.026001,-2.378915,0.663304,0.001694,1.394868,0.288957,-0.001938,1.797550,0.143369,0.001801,-0.090500,-0.701235,-0.001176,-3.627518,-0.923370,0.999997,0.001836,-0.001703,-0.000707,-0.002048,0.003358,0.000539
1.420000,0.026018,-2.364877,0.666201,0.001674,1.412838,0.290356,-0.001923,1.796470,0.136308,0.000963,-0.125159,-0.710963,-0.105632,-3.418839,-0.977190,0.999997,0.001826,-0.001686,-0.000704,-0.002037,0.003350,0.000535
1.430000,0.026034,-2.350659,0.669111,0.001655,1.430796,0.291683,-0.001915,1.795041,0.129153,0.000962,-0.161279,-0.719832,0.107563,-3.808635,-0.795116,0.999997,0.001816,-0.001669,-0.000701,-0.002027,0.003341,0.000532
1.440000,0.026051,-2.336261,0.672034,0.001636,1.448738,0.292939,-0.001900,1.793238,0.121915,0.001899,-0.199013,-0.727778,0.019328,-3.622397,-0.839795,0.999997,0.001806,-0.001653,-0.000699,-0.002017,0.003333,0.000530
1.450000,0.026067,-2.321684,0.674969,0.001617,1.466660,0.294121,-0.001882,1.791070,0.114595,0.001872,-0.234705,-0.736243,0.036282,-3.631054,-0.807770,0.999997,0.001796,-0.001636,-0.000696,-0.002008,0.003325,0.000528
1.460000,0.026083,-2.306928,0.677916,0.001598,1.484558,0.295230,-0.001851,1.788541,0.107190,0.004604,-0.271040,-0.744801,0.096563,-3.630757,-0.791791,0.999997,0.001786,-0.001619,-0.000693,-0.002000,0.003317,0.000526
1.470000,0.026099,-2.291993,0.680874,0.001580,1.502429,0.296265,-0.001821,1.785649,0.099708,-0.000002,-0.307262,-0.751052,-0.616682,-3.618500,-0.567062,0.999997,0.001776,-0.001603,-0.000691,-0.001992,0.003310,0.000525
1.480000,0.026115,-2.276879,0.683841,0.001562,1.520270,0.297224,-0.001830,1.782395,0.092164,0.000690,-0.343511,-0.758422,0.767306,-3.630913,-0.910336,0.999997,0.001766,-0.001586,-0.000688,-0.001984,0.003301,0.000528
1.490000,0.026130,-2.261588,0.686818,0.001544,1.538076,0.298108,-0.001785,1.778779,0.084535,0.007210,-0.379765,-0.767062,0.130571,-3.614108,-0.708120,0.999997,0.001756,-0.001570,-0.000685,-0.001974,0.003292,0.000533
1.500000,0.026146,-2.246118,0.689803,0.001526,1.555844,0.298915,-0.001717,1.774801,0.076832,0.006721,-0.415826,-0.773513,0.174237,-3.602787,-0.691216,0.999997,0.001746,-0.001553,-0.000683,-0.001962,0.003283,0.000542
1.510000,0.026161,-2.230471,0.692796,0.001509,1.573571,0.299644,-0.001657,1.770471,0.069064,0.004660,-0.449956,-0.780083,0.106848,-3.551227,-0.662084,0.999997,0.001736,-0.001537,-0.000680,-0.001947,0.003271,0.000557
1.520000,0.026176,-2.214647,0.695796,0.001493,1.591252,0.300296,-0.001569,1.765777,0.061228,0.015222,-0.489863,-0.787115,1.330176,-4.111089,-0.705796,0.999997,0.001727,-0.001521,-0.000677,-0.001930,0.003259,0.000573
1.530000,0.026191,-2.198646,0.698802,0.001478,1.608885,0.300869,-0.001387,1.760690,0.053324,0.017087,-0.525480,-0.793389,-0.979235,-3.002144,-0.547518,0.999997,0.001717,-0.001505,-0.000674,-0.001912,0.003246,0.000589
1.540000,0.026206,-2.182469,0.701813,0.001465,1.626465,0.301362,-0.001265,1.755286,0.045363,0.009254,-0.556353,-0.798837,0.092265,-3.494250,-0.580667,0.999997,0.001707,-0.001488,-0.000671,-0.001894,0.003233,0.000602
1.550000,0.026220,-2.166117,0.704829,0.001453,1.643989,0.301776,-0.001151,1.749539,0.037345,0.013141,-0.592636,-0.804667,0.006119,-3.441849,-0.546534,0.999997,0.001698,-0.001472,-0.000668,-0.001876,0.003221,0.000611
1.560000,0.026235,-2.149590,0.707848,0.001442,1.661455,0.302109,-0.001023,1.743433,0.029275,0.012196,-0.628772,-0.809311,-0.054162,-3.449466,-0.500280,0.999997,0.001689,-0.001456,-0.000665,-0.001860,0.003211,0.000610
1.570000,0.026249,-2.132888,0.710870,0.001433,1.678857,0.302361,-0.000897,1.736991,0.021151,0.013355,-0.658539,-0.815758,0.149392,-2.830574,-0.674208,0.999997,0.001679,-0.001440,-0.000662,-0.001845,0.003201,0.000605
1.580000,0.026263,-2.116013,0.713895,0.001424,1.696193,0.302532,-0.000764,1.730247,0.012967,0.012322,-0.692245,-0.820380,-0.359634,-3.921236,-0.246380,0.999997,0.001670,-0.001424,-0.000659,-0.001831,0.003191,0.000595
1.590000,0.026277,-2.098964,0.716921,0.001417,1.713461,0.302620,-0.000660,1.723129,0.004751,0.008944,-0.730366,-0.823009,-0.177007,-3.373751,-0.395433,0.999997,0.001661,-0.001408,-0.000656,-0.001817,0.003182,0.000584
1.600000,0.026292,-2.081744,0.719947,0.001411,1.730655,0.302626,-0.000576,1.715665,-0.003501,0.007633,-0.762521,-0.827306,-0.221361,-3.386061,-0.348251,0.999997,0.001652,-0.001392,-0.000653,-0.001803,0.003173,0.000572
1.610000,0.026306,-2.064352,0.722973,0.001406,1.747773,0.302550,-0.000494,1.707870,-0.011793,0.009166,-0.796618,-0.831009,-0.170742,-3.383437,-0.317372,0.999997,0.001643,-0.001376,-0.000650,-0.001789,0.003163,0.000563
1.620000,0.026320,-2.046789,0.725998,0.001401,1.764811,0.302391,-0.000448,1.699737,-0.020114,-0.002196,-0.829730,-0.832967,-1.420948,-3.287290,-0.147287,0.999998,0.001634,-0.001361,-0.000648,-0.001775,0.003153,0.000557
1.630000,0.026334,-2.029056,0.729021,0.001396,1.781766,0.302148,-0.000505,1.691273,-0.028455,-0.004963,-0.863377,-0.835486,0.889913,-3.443280,-0.358880,0.999998,0.001625,-0.001345,-0.000645,-0.001760,0.003143,0.000552
1.640000,0.026348,-2.011153,0.732041,0.001391,1.798635,0.301821,-0.000510,1.682467,-0.036827,0.001878,-0.897612,-0.838677,-0.206857,-3.354584,-0.206210,0.999998,0.001617,-0.001329,-0.000642,-0.001746,0.003133,0.000549
1.650000,0.026361,-1.993083,0.735057,0.001386,1.815415,0.301411,-0.000519,1.673325,-0.045221,-0.003261,-0.930870,-0.840236,-0.136521,-3.345835,-0.179234,0.999998,0.001608,-0.001314,-0.000639,-0.001733,0.003123,0.000548
1.660000,0.026375,-1.974846,0.738068,0.001381,1.832101,0.300917,-0.000561,1.663856,-0.053634,-0.005136,-0.962604,-0.842376,-0.120510,-3.298312,-0.158878,0.999998,0.001599,-0.001298,-0.000636,-0.001720,0.003113,0.000546
1.670000,0.026389,-1.956441,0.741075,0.001375,1.848691,0.300338,-0.000612,1.654050,-0.062061,-0.004584,-0.999568,-0.842589,0.116681,-3.805052,0.028849,0.999998,0.001591,-0.001282,-0.000634,-0.001707,0.003103,0.000546
1.680000,0.026403,-1.937872,0.744075,0.001368,1.865181,0.299676,-0.000657,1.643880,-0.070490,-0.005200,-1.032631,-0.843636,-0.243391,-2.798340,-0.241126,0.999998,0.001582,-0.001267,-0.000631,-0.001695,0.003092,0.000547
1.690000,0.026416,-1.919138,0.747068,0.001362,1.881567,0.298928,-0.000721,1.633414,-0.078938,-0.007144,-1.061377,-0.845645,-0.030308,-3.242378,-0.072458,0.999998,0.001574,-0.001251,-0.000628,-0.001682,0.003083,0.000548
1.700000,0.026430,-1.900241,0.750053,0.001354,1.897848,0.298097,-0.000790,1.622631,-0.087395,-0.006790,-1.095000,-0.845834,-0.014237,-3.191506,-0.053328,0.999998,0.001565,-0.001236,-0.000625,-0.001670,0.003073,0.000551
1.710000,0.026444,-1.881182,0.753030,0.001346,1.914019,0.297181,-0.000866,1.611518,-0.095854,-0.008370,-1.127690,-0.845951,-0.023666,-3.178963,-0.021936,0.999998,0.001557,-0.001221,-0.000623,-0.001657,0.003063,0.000554
1.720000,0.026457,-1.861961,0.755997,0.001337,1.930077,0.296180,-0.000936,1.600091,-0.104317,-0.004709,-1.157051,-0.846739,0.485473,-2.855287,-0.085755,0.999998,0.001549,-0.001205,-0.000620,-0.001644,0.003054,0.000558
1.730000,0.026470,-1.842580,0.758953,0.001327,1.946020,0.295094,-0.000973,1.588370,-0.112786,-0.004335,-1.188198,-0.846621,-0.419264,-3.379318,0.110972,0.999998,0.001541,-0.001190,-0.000617,-0.001630,0.003046,0.000561
1.740000,0.026484,-1.823041,0.761898,0.001317,1.961843,0.293924,-0.001037,1.576319,-0.121246,-0.007634,-1.221367,-0.845520,0.032025,-3.091211,0.059310,0.999998,0.001533,-0.001175,-0.000614,-0.001615,0.003038,0.000564
1.750000,0.026497,-1.803344,0.764831,0.001306,1.977545,0.292669,-0.001104,1.563956,-0.129699,-0.006010,-1.251417,-0.845007,0.021037,-3.081476,0.093623,0.999998,0.001525,-0.001160,-0.000611,-0.001599,0.003030,0.000567
1.760000,0.026510,-1.783491,0.767751,0.001295,1.993122,0.291330,-0.001156,1.551284,-0.138141,-0.004228,-1.282931,-0.843358,0.058548,-3.077811,0.136854,0.999998,0.001517,-0.001145,-0.000609,-0.001583,0.003024,0.000568
1.770000,0.026523,-1.763482,0.770658,0.001283,2.008570,0.289907,-0.001210,1.538309,-0.146573,-0.007386,-1.311653,-0.843181,-0.421573,-2.805885,-0.004858,0.999998,0.001509,-0.001130,-0.000606,-0.001565,0.003018,0.000569
1.780000,0.026535,-1.743320,0.773549,0.001271,2.023887,0.288399,-0.001290,1.525045,-0.154999,-0.007019,-1.341971,-0.841430,0.503380,-3.261899,0.358007,0.999998,0.001501,-0.001114,-0.000603,-0.001548,0.003012,0.000570
1.790000,0.026548,-1.723005,0.776425,0.001258,2.039070,0.286807,-0.001335,1.511462,-0.163395,-0.002759,-1.374069,-0.837971,0.076896,-3.016696,0.236538,0.999998,0.001493,-0.001099,-0.000600,-0.001531,0.003005,0.000572
1.800000,0.026560,-1.702539,0.779285,0.001244,2.054115,0.285131,-0.001366,1.497575,-0.171765,-0.003184,-1.403495,-0.835871,0.108102,-3.007954,0.279921,0.999998,0.001486,-0.001084,-0.000597,-0.001514,0.002997,0.000574
1.810000,0.026573,-1.681923,0.782128,0.001230,2.069020,0.283371,-0.001395,1.483395,-0.180111,-0.002804,-1.432401,-0.833409,0.103787,-2.965833,0.305810,0.999998,0.001478,-0.001069,-0.000594,-0.001498,0.002987,0.000578
1.820000,0.026585,-1.661159,0.784952,0.001216,2.083782,0.281529,-0.001411,1.468913,-0.188424,0.000134,-1.464579,-0.828899,0.350860,-3.281909,0.505324,0.999998,0.001471,-0.001055,-0.000591,-0.001482,0.002977,0.000583
1.830000,0.026597,-1.640248,0.787758,0.001202,2.098397,0.279603,-0.001399,1.454113,-0.196692,0.001422,-1.494093,-0.825207,-0.098003,-2.614535,0.230175,0.999998,0.001463,-0.001040,-0.000588,-0.001467,0.002965,0.000588
1.840000,0.026609,-1.619191,0.790544,0.001188,2.112863,0.277595,-0.001390,1.439042,-0.204932,0.000838,-1.520653,-0.822466,0.114023,-2.886229,0.409272,0.999998,0.001456,-0.001025,-0.000585,-0.001452,0.002953,0.000593
1.850000,0.026621,-1.597991,0.793309,0.001174,2.127177,0.275505,-0.001372,1.423687,-0.213134,0.002555,-1.550204,-0.817800,0.095539,-2.834832,0.432680,0.999998,0.001449,-0.001010,-0.000582,-0.001437,0.002941,0.000598
1.860000,0.026633,-1.576648,0.796054,0.001161,2.141336,0.273332,-0.001351,1.408046,-0.221290,0.001419,-1.577799,-0.813396,0.041490,-2.782504,0.459997,0.999998,0.001442,-0.000996,-0.000579,-0.001422,0.002929,0.000601
1.870000,0.026644,-1.555165,0.798776,0.001147,2.155337,0.271079,-0.001316,1.392125,-0.229400,0.006732,-1.606758,-0.808491,0.666946,-2.913361,0.509345,0.999998,0.001435,-0.000981,-0.000576,-0.001406,0.002917,0.000603
1.880000,0.026656,-1.533542,0.801475,0.001135,2.169178,0.268745,-0.001235,1.375917,-0.237459,0.007324,-1.634054,-0.803454,-0.559523,-2.542867,0.497552,0.999998,0.001428,-0.000966,-0.000573,-0.001390,0.002906,0.000605
1.890000,0.026667,-1.511782,0.804150,0.001123,2.182855,0.266330,-0.001190,1.359450,-0.245468,0.002704,-1.659553,-0.798305,-0.007016,-2.653612,0.544114,0.999998,0.001421,-0.000952,-0.000570,-0.001375,0.002894,0.000605
1.900000,0.026678,-1.489886,0.806801,0.001111,2.196366,0.263835,-0.001154,1.342720,-0.253424,0.004160,-1.686306,-0.792672,-0.057381,-2.601153,0.570758,0.999998,0.001414,-0.000937,-0.000567,-0.001360,0.002883,0.000606
1.910000,0.026689,-1.467855,0.809427,0.001100,2.209708,0.261262,-0.001104,1.325723,-0.261320,0.006234,-1.713278,-0.786645,-0.025397,-2.580150,0.601941,0.999998,0.001407,-0.000923,-0.000564,-0.001346,0.002872,0.000605
1.920000,0.026700,-1.445692,0.812026,0.001089,2.222879,0.258609,-0.001069,1.308473,-0.269158,-0.000920,-1.735950,-0.780935,-0.921020,-2.161488,0.571924,0.999998,0.001400,-0.000909,-0.000561,-0.001333,0.002860,0.000605
1.930000,0.026711,-1.423398,0.814599,0.001078,2.235877,0.255879,-0.001099,1.290995,-0.276937,-0.002016,-1.760862,-0.774537,0.717546,-2.827701,0.708669,0.999998,0.001394,-0.000894,-0.000558,-0.001321,0.002849,0.000604
1.940000,0.026722,-1.400975,0.817144,0.001067,2.248698,0.253071,-0.001083,1.273245,-0.284646,0.003656,-1.788316,-0.767405,-0.071063,-2.454004,0.685566,0.999998,0.001387,-0.000880,-0.000555,-0.001308,0.002836,0.000603
1.950000,0.026732,-1.378425,0.819660,0.001056,2.261341,0.250186,-0.001063,1.255246,-0.292286,0.000718,-1.811720,-0.760552,-0.029502,-2.435314,0.717175,0.999999,0.001381,-0.000866,-0.000552,-0.001296,0.002824,0.000603
1.960000,0.026743,-1.355749,0.822147,0.001046,2.273802,0.247225,-0.001058,1.237008,-0.299855,0.000132,-1.835637,-0.753226,-0.024881,-2.397830,0.746585,0.999999,0.001374,-0.000852,-0.000549,-0.001283,0.002810,0.000603
1.970000,0.026753,-1.332949,0.824604,0.001035,2.286080,0.244189,-0.001055,1.218530,-0.307350,0.000798,-1.860129,-0.745642,0.097324,-2.452550,0.772184,0.999999,0.001368,-0.000838,-0.000546,-0.001271,0.002796,0.000604
1.980000,0.026763,-1.310028,0.827031,0.001025,2.298172,0.241079,-0.001045,1.199809,-0.314767,0.000800,-1.883679,-0.737738,-0.098960,-2.255842,0.808695,0.999999,0.001362,-0.000824,-0.000543,-0.001257,0.002781,0.000605
1.990000,0.026774,-1.286986,0.829426,0.001014,2.310076,0.237894,-0.001042,1.180860,-0.322104,0.000047,-1.906215,-0.729511,0.009755,-2.299593,0.834577,0.999999,0.001355,-0.000810,-0.000540,-0.001244,0.002766,0.000606
2.000000,0.026784,-1.263827,0.831788,0.001004,2.321789,0.234637,-0.001039,1.161683,-0.329357,0.000469,-1.929261,-0.721029,0.013122,-2.260827,0.863885,0.999999,0.001349,-0.000796,-0.000537,-0.001230,0.002750,0.000607
2.010000,0.026794,-1.240551,0.834118,0.000993,2.333309,0.231307,-0.001038,1.142278,-0.336523,-0.000273,-1.951513,-0.712248,0.000891,-2.220831,0.892818,0.999999,0.001343,-0.000783,-0.000534,-0.001216,0.002733,0.000608
2.020000,0.026804,-1.217161,0.836414,0.000983,2.344633,0.227907,-0.001032,1.122651,-0.343600,0.001979,-1.973963,-0.703169,0.291439,-2.238674,0.922497,0.999999,0.001337,-0.000769,-0.000531,-0.001202,0.002716,0.000610
2.030000,0.026813,-1.193659,0.838676,0.000973,2.355761,0.224436,-0.001006,1.102802,-0.350586,0.002238,-1.995647,-0.693809,-0.244758,-2.097010,0.949278,0.999999,0.001331,-0.000756,-0.000528,-0.001187,0.002699,0.000611
2.040000,0.026823,-1.170047,0.840903,0.000963,2.366689,0.220895,-0.000996,1.082741,-0.357476,0.000274,-2.016516,-0.684174,0.011325,-2.107379,0.978306,0.999999,0.001325,-0.000742,-0.000525,-0.001172,0.002681,0.000613
2.050000,0.026833,-1.146326,0.843094,0.000953,2.377415,0.217286,-0.000988,1.062470,-0.364268,0.001110,-2.037533,-0.674249,-0.003122,-2.065395,1.006110,0.999999,0.001319,-0.000729,-0.000522,-0.001156,0.002663,0.000614
2.060000,0.026842,-1.122499,0.845248,0.000943,2.387938,0.213610,-0.000976,1.041993,-0.370960,0.001439,-2.057976,-0.664049,0.000239,-2.024293,1.033502,0.999999,0.001314,-0.000716,-0.000518,-0.001140,0.002644,0.000616
2.070000,0.026851,-1.098568,0.847366,0.000933,2.398254,0.209867,-0.000965,1.021312,-0.377548,0.000482,-2.078020,-0.653588,-0.124856,-1.983983,1.059232,0.999999,0.001308,-0.000702,-0.000515,-0.001123,0.002625,0.000618
2.080000,0.026861,-1.074535,0.849445,0.000924,2.408363,0.206060,-0.000963,1.000434,-0.384031,0.000345,-2.097644,-0.642851,0.099536,-1.940820,1.088086,0.999999,0.001302,-0.000689,-0.000512,-0.001105,0.002605,0.000620
2.090000,0.026870,-1.050402,0.851487,0.000914,2.418262,0.202187,-0.000954,0.979361,-0.390404,0.001123,-2.116845,-0.631842,-0.011288,-1.899724,1.112949,0.999999,0.001297,-0.000676,-0.000509,-0.001087,0.002585,0.000622
2.100000,0.026879,-1.026170,0.853489,0.000905,2.427950,0.198252,-0.000946,0.958098,-0.396667,0.000692,-2.135634,-0.620588,-0.007607,-1.857553,1.138446,0.999999,0.001292,-0.000663,-0.000506,-0.001068,0.002565,0.000624
2.110000,0.026888,-1.001843,0.855451,0.000895,2.437424,0.194254,-0.000939,0.936649,-0.402815,0.000641,-2.154025,-0.609097,-0.007520,-1.815728,1.162921,0.999999,0.001286,-0.000651,-0.000503,-0.001048,0.002543,0.000627
2.120000,0.026897,-0.977423,0.857374,0.000886,2.446682,0.190196,-0.000933,0.915019,-0.408848,0.000498,-2.171903,-0.597302,-0.016271,-1.764609,1.192893,0.999999,0.001281,-0.000638,-0.000500,-0.001028,0.002521,0.000629
2.130000,0.026906,-0.952910,0.859255,0.000877,2.455723,0.186078,-0.000929,0.893212,-0.414761,0.000413,-2.189416,-0.585308,-0.000604,-1.738095,1.205591,0.999999,0.001276,-0.000625,-0.000497,-0.001007,0.002499,0.000632
2.140000,0.026914,-0.928309,0.861095,0.000867,2.464546,0.181901,-0.000925,0.871232,-0.420553,0.000392,-2.206569,-0.573128,-0.008233,-1.687760,1.233652,0.999999,0.001271,-0.000613,-0.000493,-0.000985,0.002475,0.000635
2.150000,0.026923,-0.903620,0.862893,0.000858,2.473147,0.177667,-0.000921,0.849083,-0.426222,0.000289,-2.223208,-0.560668,-0.007866,-1.645161,1.255285,0.999999,0.001266,-0.000601,-0.000490,-0.000962,0.002452,0.000637
2.160000,0.026932,-0.878847,0.864648,0.000849,2.481527,0.173377,-0.000919,0.826769,-0.431766,0.000138,-2.239506,-0.548083,-0.009230,-1.603509,1.275056,0.999999,0.001262,-0.000589,-0.000487,-0.000939,0.002428,0.000640
2.170000,0.026940,-0.853990,0.866360,0.000840,2.489682,0.169032,-0.000917,0.804295,-0.437182,0.000224,-2.255178,-0.535045,0.013917,-1.541369,1.319341,0.999999,0.001257,-0.000576,-0.000484,-0.000915,0.002404,0.000643
2.180000,0.026948,-0.829054,0.868029,0.000830,2.497612,0.164634,-0.000915,0.781666,-0.442467,0.000149,-2.270555,-0.521973,-0.029311,-1.534399,1.294537,0.999999,0.001252,-0.000565,-0.000480,-0.000891,0.002379,0.000646
2.190000,0.026957,-0.804039,0.869653,0.000821,2.505315,0.160183,-0.000915,0.758885,-0.447622,-0.000104,-2.285651,-0.508892,-0.008613,-1.474121,1.334909,0.999999,0.001248,-0.000553,-0.000477,-0.000866,0.002354,0.000650
2.200000,0.026965,-0.778948,0.871232,0.000812,2.512789,0.155682,-0.000916,0.735956,-0.452643,-0.000131,-2.300128,-0.495392,-0.009506,-1.431736,1.352111,0.999999,0.001244,-0.000541,-0.000474,-0.000840,0.002328,0.000653
2.210000,0.026973,-0.753784,0.872766,0.000803,2.520034,0.151131,-0.000918,0.712883,-0.457530,-0.000191,-2.314273,-0.481832,-0.008704,-1.389296,1.368772,0.999999,0.001240,-0.000529,-0.000471,-0.000814,0.002302,0.000656
2.220000,0.026981,-0.728548,0.874255,0.000794,2.527047,0.146532,-0.000921,0.689672,-0.462279,-0.000362,-2.327839,-0.467936,-0.019282,-1.331679,1.401654,0.999999,0.001236,-0.000518,-0.000467,-0.000788,0.002276,0.000660
2.230000,0.026989,-0.703244,0.875697,0.000785,2.533827,0.141886,-0.000925,0.666328,-0.466888,-0.000450,-2.341067,-0.453981,0.001843,-1.313992,1.389007,0.999999,0.001232,-0.000507,-0.000464,-0.000761,0.002249,0.000663
2.240000,0.026997,-0.677872,0.877092,0.000775,2.540373,0.137194,-0.000929,0.642852,-0.471358,-0.000446,-2.353961,-0.439982,-0.007032,-1.257080,1.419509,0.999999,0.001228,-0.000496,-0.000461,-0.000734,0.002222,0.000667
2.250000,0.027004,-0.652437,0.878441,0.000766,2.546683,0.132459,-0.000934,0.619250,-0.475687,-0.000538,-2.366273,-0.425666,-0.005370,-1.212887,1.435063,0.999999,0.001224,-0.000484,-0.000457,-0.000707,0.002194,0.000671
2.260000,0.027012,-0.626940,0.879741,0.000757,2.552757,0.127681,-0.000940,0.595528,-0.479871,-0.000680,-2.378061,-0.411199,-0.005727,-1.165275,1.451822,0.999999,0.001221,-0.000474,-0.000454,-0.000680,0.002166,0.000674
2.270000,0.027019,-0.601383,0.880994,0.000747,2.558594,0.122862,-0.000946,0.571689,-0.483911,-0.000494,-2.389767,-0.396688,0.026226,-1.155656,1.456643,0.999999,0.001218,-0.000463,-0.000451,-0.000653,0.002138,0.000678
2.280000,0.027027,-0.575769,0.882198,0.000738,2.564191,0.118003,-0.000951,0.547735,-0.487804,-0.000502,-2.400752,-0.381936,-0.028220,-1.040674,1.493997,0.999999,0.001214,-0.000452,-0.000447,-0.000626,0.002110,0.000682
2.290000,0.027034,-0.550100,0.883354,0.000728,2.569548,0.113107,-0.000957,0.523677,-0.491548,-0.000721,-2.410984,-0.366933,0.001236,-1.025735,1.500388,0.999999,0.001211,-0.000442,-0.000444,-0.000599,0.002081,0.000685
2.300000,0.027041,-0.524378,0.884460,0.000719,2.574664,0.108173,-0.000964,0.499516,-0.495143,-0.000618,-2.421095,-0.351877,0.002895,-0.976134,1.517356,0.999999,0.001208,-0.000431,-0.000440,-0.000572,0.002052,0.000689
2.310000,0.027049,-0.498607,0.885517,0.000709,2.579538,0.103204,-0.000970,0.475259,-0.498585,-0.000491,-2.430227,-0.336549,0.007943,-0.919670,1.535680,0.999999,0.001206,-0.000421,-0.000437,-0.000546,0.002022,0.000692
2.320000,0.027056,-0.472788,0.886524,0.000699,2.584169,0.098202,-0.000975,0.450908,-0.501874,-0.000590,-2.440127,-0.321279,-0.013429,-0.992976,1.530595,0.999999,0.001203,-0.000411,-0.000433,-0.000520,0.001993,0.000695
2.330000,0.027062,-0.446925,0.887481,0.000689,2.588556,0.093167,-0.000980,0.426461,-0.505009,-0.000461,-2.448672,-0.305679,0.039770,-0.714047,1.589915,0.999999,0.001200,-0.000401,-0.000430,-0.000494,0.001963,0.000698
2.340000,0.027069,-0.421018,0.888388,0.000680,2.592698,0.088102,-0.000983,0.401939,-0.507986,-0.000077,-2.455773,-0.289728,0.022914,-0.774390,1.587811,0.999999,0.001198,-0.000392,-0.000426,-0.000468,0.001934,0.000701
2.350000,0.027076,-0.395071,0.889243,0.000670,2.596594,0.083008,-0.000983,0.377342,-0.510804,0.000121,-2.463585,-0.273816,0.031028,-0.720434,1.606978,0.999999,0.001196,-0.000382,-0.000423,-0.000444,0.001906,0.000704
2.360000,0.027083,-0.369087,0.890048,0.000660,2.600244,0.077887,-0.000978,0.352668,-0.513461,0.000971,-2.471145,-0.257472,0.048969,-0.684162,1.629100,0.999999,0.001194,-0.000373,-0.000419,-0.000419,0.001877,0.000707
2.370000,0.027089,-0.343067,0.890801,0.000650,2.603647,0.072739,-0.000970,0.327929,-0.515956,0.000272,-2.476285,-0.241534,-0.101224,-0.448372,1.590242,0.999999,0.001192,-0.000363,-0.000416,-0.000396,0.001849,0.000711
2.380000,0.027096,-0.317015,0.891502,0.000641,2.606803,0.067568,-0.000968,0.303139,-0.518289,0.000783,-2.482306,-0.225003,0.206196,-0.759492,1.716859,0.999999,0.001190,-0.000354,-0.000412,-0.000374,0.001821,0.000713
2.390000,0.027102,-0.290932,0.892152,0.000631,2.609710,0.062374,-0.000949,0.278279,-0.520453,0.002625,-2.489368,-0.207838,0.073677,-0.547767,1.684057,0.999999,0.001188,-0.000345,-0.000409,-0.000354,0.001792,0.000716
2.400000,0.027108,-0.264822,0.892750,0.000622,2.612368,0.057159,-0.000922,0.253361,-0.522448,0.003004,-2.494159,-0.191052,0.089990,-0.515523,1.704865,0.999999,0.001186,-0.000336,-0.000405,-0.000335,0.001762,0.000717
2.410000,0.027115,-0.238686,0.893295,0.000613,2.614777,0.051926,-0.000882,0.228380,-0.524267,0.004997,-2.502291,-0.172533,0.119929,-0.540101,1.750458,0.999999,0.001184,-0.000327,-0.000401,-0.000320,0.001733,0.000719
2.420000,0.027121,-0.212527,0.893788,0.000604,2.616936,0.046675,-0.000836,0.203361,-0.525917,0.003662,-2.499708,-0.158328,-0.204882,0.503975,1.330431,0.999999,0.001183,-0.000319,-0.000398,-0.000307,0.001701,0.000719
2.430000,0.027127,-0.186348,0.894229,0.000596,2.618844,0.041408,-0.000800,0.178360,-0.527421,0.004720,-2.503816,-0.140886,0.421578,-1.341848,2.164814,0.999999,0.001181,-0.000311,-0.000394,-0.000294,0.001665,0.000716
2.440000,0.027133,-0.160151,0.894616,0.000588,2.620502,0.036127,-0.000731,0.153255,-0.528721,0.008380,-2.515322,-0.119913,0.124786,-0.398966,1.786127,0.999999,0.001180,-0.000302,-0.000391,-0.000283,0.001624,0.000710
2.450000,0.027138,-0.133939,0.894951,0.000581,2.621909,0.030834,-0.000646,0.128098,-0.529837,0.008759,-2.516502,-0.103123,0.133560,-0.391944,1.812670,0.999999,0.001178,-0.000294,-0.000387,-0.000271,0.001577,0.000701
2.460000,0.027144,-0.107713,0.895233,0.000575,2.623064,0.025531,-0.000568,0.102964,-0.530792,0.006531,-2.508611,-0.088299,0.052497,-0.106270,1.749894,0.999999,0.001177,-0.000287,-0.000384,-0.000260,0.001520,0.000681
2.470000,0.027150,-0.081478,0.895462,0.000570,2.623968,0.020219,-0.000467,0.077766,-0.531557,0.015607,-2.537720,-0.062637,1.147615,-3.698029,2.800221,0.999999,0.001176,-0.000279,-0.000380,-0.000248,0.001463,0.000664
2.480000,0.027156,-0.055235,0.895637,0.000566,2.624619,0.014901,-0.000287,0.052314,-0.532075,0.016569,-2.540219,-0.044517,-0.975252,3.261117,0.804857,0.999999,0.001175,-0.000272,-0.000377,-0.000235,0.001411,0.000653
2.490000,0.027161,-0.028987,0.895760,0.000564,2.625015,0.009578,-0.000171,0.027076,-0.532480,0.008513,-2.513315,-0.034795,-0.016440,0.082236,1.725830,0.999999,0.001174,-0.000265,-0.000374,-0.000221,0.001370,0.000651
2.500000,0.027167,-0.002735,0.895829,0.000563,2.625160,0.004251,-0.000071,0.001895,-0.532727,0.010969,-2.521330,-0.014993,-0.110550,0.341278,1.649641,0.999999,0.001172,-0.000258,-0.000370,-0.000207,0.001343,0.000661
2.510000,0.027172,0.023516,0.895845,0.000562,2.625053,-0.001076,0.000024,-0.023359,-0.532798,0.007728,-2.531189,0.000593,-0.201483,0.174214,1.596806,0.999999,0.001171,-0.000251,-0.000367,-0.000191,0.001341,0.000700
2.520000,0.027178,0.049765,0.895807,0.000563,2.624693,-0.006404,0.000108,-0.048532,-0.532706,0.010044,-2.494996,0.018137,0.339813,4.644388,1.787498,0.999999,0.001171,-0.000244,-0.000363,-0.000176,0.001354,0.000745
2.530000,0.027184,0.076009,0.895717,0.000565,2.624084,-0.011730,0.000207,-0.073378,-0.532442,0.007707,-2.489104,0.033733,-0.815819,-3.543825,1.328689,0.999999,0.001170,-0.000237,-0.000359,-0.000164,0.001375,0.000787
2.540000,0.027189,0.102246,0.895573,0.000567,2.623225,-0.017052,0.000243,-0.098446,-0.532039,0.000358,-2.517015,0.047265,-0.322701,0.400201,1.505484,0.999999,0.001169,-0.000230,-0.000355,-0.000155,0.001401,0.000820
2.550000,0.027195,0.128472,0.895376,0.000569,2.622115,-0.022370,0.000238,-0.123532,-0.531488,-0.001491,-2.501838,0.062801,-0.372249,0.202424,1.477638,0.999999,0.001168,-0.000223,-0.000351,-0.000151,0.001425,0.000835
2.560000,0.027201,0.154687,0.895125,0.000572,2.620755,-0.027682,0.000243,-0.148533,-0.530760,0.003608,-2.498024,0.083694,-0.206143,0.201540,1.591733,0.999999,0.001167,-0.000216,-0.000348,-0.000156,0.001438,0.000809
2.570000,0.027206,0.180887,0.894822,0.000574,2.619144,-0.032985,0.000186,-0.173522,-0.529901,-0.020291,-2.501094,0.084446,-3.017901,-0.465219,-0.362050,0.999999,0.001166,-0.000209,-0.000344,-0.000166,0.001442,0.000767
2.580000,0.027212,0.207069,0.894466,0.000575,2.617284,-0.038280,-0.000084,-0.198538,-0.529016,-0.024096,-2.499966,0.099107,2.306921,0.703932,3.328656,0.999999,0.001165,-0.000202,-0.000340,-0.000178,0.001433,0.000715
2.590000,0.027218,0.233232,0.894057,0.000573,2.615174,-0.043564,-0.000209,-0.223503,-0.527859,-0.005554,-2.494030,0.129223,-0.165812,0.133372,1.606621,0.999999,0.001165,-0.000195,-0.000337,-0.000191,0.001411,0.000663
2.600000,0.027224,0.259372,0.893595,0.000571,2.612814,-0.048836,-0.000313,-0.248445,-0.526514,-0.014089,-2.494248,0.140477,0.021800,0.177465,1.728586,0.999999,0.001164,-0.000188,-0.000333,-0.000204,0.001377,0.000619
2.610000,0.027229,0.285487,0.893080,0.000567,2.610205,-0.054094,-0.000466,-0.273328,-0.525036,-0.016899,-2.480856,0.154756,0.037063,0.445355,1.711819,0.999999,0.001163,-0.000182,-0.000330,-0.000212,0.001328,0.000606
2.620000,0.027235,0.311575,0.892513,0.000561,2.607347,-0.059336,-0.000600,-0.298220,-0.523372,-0.007650,-2.504229,0.180080,1.208241,-3.120918,2.783683,0.999999,0.001162,-0.000175,-0.000327,-0.000219,0.001270,0.000606
2.630000,0.027241,0.337633,0.891893,0.000555,2.604240,-0.064561,-0.000647,-0.323310,-0.521462,-0.005432,-2.501315,0.198474,-0.785188,3.766942,0.876033,0.999999,0.001160,-0.000169,-0.000324,-0.000225,0.001210,0.000616
2.640000,0.027246,0.363659,0.891222,0.000548,2.600882,-0.069765,-0.000740,-0.348134,-0.519433,-0.011181,-2.469289,0.209072,0.242650,0.621554,1.815882,0.999999,0.001159,-0.000163,-0.000321,-0.000232,0.001150,0.000631
2.650000,0.027252,0.389650,0.890498,0.000540,2.597277,-0.074949,-0.000823,-0.372846,-0.517236,-0.005791,-2.471786,0.229894,0.226257,0.887098,1.775299,0.999999,0.001158,-0.000157,-0.000317,-0.000238,0.001095,0.000646
2.660000,0.027257,0.415604,0.889723,0.000532,2.593425,-0.080109,-0.000891,-0.397571,-0.514860,-0.008547,-2.474528,0.245063,0.135637,0.766343,1.713024,0.999999,0.001157,-0.000152,-0.000314,-0.000249,0.001055,0.000647
2.670000,0.027262,0.441518,0.888896,0.000523,2.589326,-0.085245,-0.000923,-0.422162,-0.512300,0.005308,-2.436224,0.268316,1.746196,4.753279,2.495433,0.999999,0.001156,-0.000147,-0.000311,-0.000260,0.001024,0.000643
2.680000,0.027267,0.467389,0.888018,0.000514,2.584983,-0.090354,-0.000830,-0.446400,-0.509516,0.007713,-2.424412,0.285691,-1.293959,-2.459272,0.965090,0.999999,0.001154,-0.000142,-0.000308,-0.000273,0.000998,0.000635
2.690000,0.027272,0.493217,0.887089,0.000506,2.580398,-0.095435,-0.000818,-0.470766,-0.506612,-0.002623,-2.442161,0.296538,0.122951,1.068015,1.649770,0.999999,0.001153,-0.000137,-0.000305,-0.000287,0.000977,0.000624
2.700000,0.027277,0.518997,0.886109,0.000497,2.575568,-0.100486,-0.000815,-0.495077,-0.503553,0.002560,-2.421397,0.314902,0.020285,0.932018,1.578893,0.999999,0.001151,-0.000132,-0.000302,-0.000302,0.000957,0.000611
2.710000,0.027282,0.544727,0.885079,0.000489,2.570497,-0.105506,-0.000771,-0.519221,-0.500314,0.006812,-2.406638,0.333017,0.062939,1.044184,1.588478,0.999999,0.001150,-0.000127,-0.000299,-0.000317,0.000932,0.000603
2.720000,0.027287,0.570406,0.883999,0.000482,2.565184,-0.110492,-0.000740,-0.543285,-0.496929,-0.003233,-2.409483,0.342483,-1.326217,-0.665105,0.747552,0.999999,0.001148,-0.000123,-0.000296,-0.000332,0.000906,0.000595
2.730000,0.027292,0.596030,0.882870,0.000474,2.559631,-0.115444,-0.000799,-0.567362,-0.493444,-0.004053,-2.400037,0.357265,1.186065,2.584509,2.222988,0.999999,0.001146,-0.000118,-0.000293,-0.000346,0.000879,0.000587
2.740000,0.027297,0.621598,0.881690,0.000466,2.553838,-0.120360,-0.000781,-0.591233,-0.489760,0.005424,-2.376947,0.377997,-0.042351,1.077296,1.476936,0.999999,0.001145,-0.000114,-0.000290,-0.000360,0.000852,0.000580
2.750000,0.027301,0.647106,0.880462,0.000459,2.547807,-0.125239,-0.000748,-0.614973,-0.485919,0.001495,-2.370363,0.390600,0.006826,1.193164,1.489148,0.999999,0.001143,-0.000110,-0.000287,-0.000374,0.000824,0.000573
2.760000,0.027306,0.672553,0.879186,0.000451,2.541539,-0.130078,-0.000736,-0.638620,-0.481940,0.000890,-2.359031,0.404971,-0.004481,1.230890,1.464528,0.999999,0.001141,-0.000106,-0.000284,-0.000387,0.000797,0.000566
2.770000,0.027310,0.697936,0.877861,0.000444,2.535035,-0.134877,-0.000721,-0.662140,-0.477814,0.002542,-2.344296,0.420621,0.215240,1.563068,1.588361,0.999999,0.001139,-0.000102,-0.000281,-0.000400,0.000772,0.000558
2.780000,0.027315,0.723253,0.876488,0.000437,2.528296,-0.139634,-0.000691,-0.685512,-0.473532,0.002684,-2.330986,0.435122,-0.190407,1.093930,1.309341,0.999999,0.001137,-0.000098,-0.000278,-0.000412,0.000747,0.000550
2.790000,0.027319,0.748501,0.875068,0.000430,2.521325,-0.144347,-0.000674,-0.708766,-0.469116,0.001155,-2.319323,0.448365,0.005257,1.393032,1.417184,0.999999,0.001135,-0.000094,-0.000276,-0.000423,0.000722,0.000542
2.800000,0.027323,0.773679,0.873602,0.000423,2.514122,-0.149016,-0.000659,-0.731885,-0.464560,0.001765,-2.304441,0.462807,-0.003597,1.429308,1.393404,0.999999,0.001133,-0.000091,-0.000273,-0.000434,0.000698,0.000534
2.810000,0.027328,0.798783,0.872088,0.000417,2.506688,-0.153638,-0.000641,-0.754858,-0.459862,0.001663,-2.290115,0.476749,-0.005721,1.470754,1.376543,0.999999,0.001131,-0.000087,-0.000270,-0.000445,0.000674,0.000527
2.820000,0.027332,0.823811,0.870529,0.000411,2.499025,-0.158212,-0.000625,-0.777683,-0.455027,0.001752,-2.274706,0.490168,0.012830,1.576904,1.325140,0.999999,0.001128,-0.000084,-0.000268,-0.000455,0.000650,0.000519
2.830000,0.027336,0.848762,0.868924,0.000404,2.491135,-0.162738,-0.000607,-0.800352,-0.450058,0.001698,-2.259292,0.503628,-0.023803,1.504859,1.367362,0.999999,0.001126,-0.000081,-0.000265,-0.000465,0.000627,0.000512
2.840000,0.027340,0.873633,0.867274,0.000398,2.483018,-0.167213,-0.000591,-0.822869,-0.444954,0.001491,-2.243924,0.517152,-0.006990,1.602812,1.319363,0.999999,0.001124,-0.000078,-0.000263,-0.000474,0.000605,0.000505
2.850000,0.027344,0.898422,0.865580,0.000393,2.474678,-0.171637,-0.000576,-0.845227,-0.439717,0.001468,-2.227527,0.530167,-0.008108,1.642264,1.301661,0.999999,0.001121,-0.000075,-0.000260,-0.000483,0.000583,0.000498
2.860000,0.027348,0.923126,0.863842,0.000387,2.466114,-0.176007,-0.000562,-0.867419,-0.434351,0.001418,-2.210842,0.543038,-0.007724,1.684639,1.281407,0.999999,0.001119,-0.000072,-0.000258,-0.000491,0.000562,0.000491
2.870000,0.027352,0.947744,0.862060,0.000381,2.457330,-0.180323,-0.000548,-0.889443,-0.428856,0.001261,-2.193927,0.555877,-0.017993,1.708046,1.277598,0.999999,0.001116,-0.000069,-0.000255,-0.000499,0.000541,0.000484
2.880000,0.027355,0.972272,0.860236,0.000376,2.448326,-0.184584,-0.000536,-0.911296,-0.423234,0.001176,-2.176479,0.568403,0.001158,1.782001,1.227201,0.999999,0.001114,-0.000066,-0.000253,-0.000506,0.000521,0.000478
2.890000,0.027359,0.996709,0.858369,0.000371,2.439105,-0.188787,-0.000525,-0.932971,-0.417489,0.001171,-2.158484,0.580597,-0.007799,1.807050,1.220332,0.999999,0.001111,-0.000064,-0.000250,-0.000513,0.000501,0.000472
2.900000,0.027363,1.021053,0.856460,0.000365,2.429667,-0.192933,-0.000513,-0.954465,-0.411623,0.001068,-2.140255,0.592731,-0.007158,1.848635,1.197593,0.999999,0.001109,-0.000061,-0.000248,-0.000518,0.000482,0.000465
2.910000,0.027366,1.045302,0.854510,0.000360,2.420016,-0.197019,-0.000504,-0.975774,-0.405636,0.000885,-2.121485,0.604482,-0.009163,1.890778,1.172832,0.999999,0.001106,-0.000059,-0.000246,-0.000524,0.000463,0.000459
2.920000,0.027370,1.069453,0.852520,0.000355,2.410152,-0.201045,-0.000494,-0.996894,-0.399532,0.001072,-2.102579,0.616382,0.026930,1.904938,1.186697,0.999999,0.001104,-0.000057,-0.000243,-0.000528,0.000445,0.000453
2.930000,0.027373,1.093504,0.850490,0.000350,2.400079,-0.205010,-0.000483,-1.017823,-0.393310,0.001008,-2.083082,0.627782,-0.040371,1.995026,1.092509,0.999999,0.001101,-0.000054,-0.000241,-0.000533,0.000428,0.000447
2.940000,0.027377,1.117454,0.848420,0.000346,2.389797,-0.208911,-0.000475,-1.038554,-0.386978,0.000665,-2.062974,0.638646,-0.008224,2.011798,1.100932,0.999999,0.001098,-0.000052,-0.000239,-0.000536,0.000411,0.000442
2.950000,0.027380,1.141300,0.846312,0.000341,2.379308,-0.212749,-0.000468,-1.059083,-0.380537,0.000675,-2.042722,0.649623,-0.009750,2.053151,1.073643,0.999999,0.001096,-0.000050,-0.000237,-0.000539,0.000395,0.000436
2.960000,0.027384,1.165039,0.844165,0.000336,2.368616,-0.216522,-0.000462,-1.079406,-0.373987,0.000642,-2.022003,0.660270,-0.008485,2.093018,1.048091,0.999999,0.001093,-0.000048,-0.000235,-0.000542,0.000380,0.000431
2.970000,0.027387,1.188671,0.841981,0.000332,2.357721,-0.220228,-0.000456,-1.099521,-0.367333,0.000398,-2.000842,0.670512,-0.028947,2.136881,1.007703,0.999999,0.001090,-0.000047,-0.000232,-0.000544,0.000365,0.000425
2.980000,0.027390,1.212193,0.839761,0.000327,2.346626,-0.223868,-0.000453,-1.119422,-0.360577,0.000304,-1.979314,0.680580,0.010490,2.168495,1.006025,0.999999,0.001087,-0.000045,-0.000230,-0.000546,0.000351,0.000420
2.990000,0.027394,1.235603,0.837504,0.000323,2.335333,-0.227440,-0.000450,-1.139106,-0.353722,0.000378,-1.957428,0.690480,-0.007119,2.211053,0.966339,0.999999,0.001085,-0.000043,-0.000228,-0.000547,0.000338,0.000415
3.000000,0.027397,1.258899,0.835212,0.000318,2.323845,-0.230942,-0.000447,-1.158569,-0.346769,0.000260,-1.935112,0.699971,-0.004964,2.249410,0.939189,0.999999,0.001082,-0.000041,-0.000226,-0.000548,0.000325,0.000410
3.010000,0.027400,1.282079,0.832886,0.000314,2.312162,-0.234375,-0.000443,-1.177807,-0.339723,0.000392,-1.912473,0.709245,0.000122,2.286467,0.911572,0.999999,0.001079,-0.000040,-0.000224,-0.000548,0.000313,0.000405
3.020000,0.027403,1.305142,0.830525,0.000309,2.300289,-0.237736,-0.000441,-1.196817,-0.332586,-0.000026,-1.889309,0.718164,-0.053261,2.338319,0.876119,0.999999,0.001076,-0.000038,-0.000222,-0.000548,0.000301,0.000400
3.030000,0.027406,1.328085,0.828131,0.000305,2.288227,-0.241026,-0.000442,-1.215593,-0.325360,-0.000035,-1.865875,0.726847,0.052209,2.348263,0.860534,0.999999,0.001074,-0.000037,-0.000220,-0.000548,0.000289,0.000394
3.040000,0.027409,1.350906,0.825705,0.000300,2.275978,-0.244243,-0.000440,-1.234133,-0.318049,0.000403,-1.842186,0.735295,0.004783,2.397500,0.825086,0.999999,0.001071,-0.000035,-0.000218,-0.000547,0.000278,0.000389
3.050000,0.027412,1.373604,0.823246,0.000296,2.263545,-0.247387,-0.000437,-1.252435,-0.310656,0.000319,-1.817991,0.743382,0.008950,2.432986,0.795975,0.999999,0.001068,-0.000034,-0.000216,-0.000546,0.000267,0.000384
3.060000,0.027415,1.396176,0.820757,0.000292,2.250930,-0.250456,-0.000432,-1.270491,-0.303183,0.000541,-1.793257,0.751070,0.012990,2.472927,0.763722,0.999999,0.001066,-0.000033,-0.000214,-0.000545,0.000257,0.000379
3.070000,0.027418,1.418622,0.818238,0.000287,2.238136,-0.253450,-0.000427,-1.288302,-0.295634,0.000372,-1.768910,0.758860,-0.025387,2.435959,0.772750,0.999999,0.001063,-0.000031,-0.000212,-0.000544,0.000247,0.000374
3.080000,0.027421,1.440938,0.815688,0.000283,2.225165,-0.256368,-0.000424,-1.305866,-0.288008,0.000482,-1.743709,0.766071,0.047795,2.605378,0.668682,0.999999,0.001060,-0.000030,-0.000211,-0.000542,0.000238,0.000369
3.090000,0.027424,1.463124,0.813110,0.000279,2.212020,-0.259210,-0.000417,-1.323173,-0.280314,0.000887,-1.717608,0.772670,0.011255,2.574733,0.672880,0.999999,0.001057,-0.000029,-0.000209,-0.000540,0.000229,0.000365
3.100000,0.027426,1.485178,0.810505,0.000275,2.198702,-0.261974,-0.000408,-1.340220,-0.272554,0.000886,-1.691874,0.779346,0.009853,2.611112,0.640353,0.999999,0.001055,-0.000028,-0.000207,-0.000539,0.000221,0.000360
3.110000,0.027429,1.507098,0.807871,0.000271,2.185216,-0.264661,-0.000408,-1.357013,-0.264728,-0.001158,-1.666691,0.785735,-0.036881,2.621765,0.612052,0.999999,0.001052,-0.000027,-0.000205,-0.000536,0.000214,0.000355
3.120000,0.027432,1.528882,0.805212,0.000267,2.171563,-0.267269,-0.000402,-1.373538,-0.256842,0.003660,-1.637633,0.791353,0.629894,2.999111,0.536376,0.999999,0.001049,-0.000026,-0.000203,-0.000534,0.000207,0.000351
3.130000,0.027435,1.550528,0.802526,0.000263,2.157746,-0.269798,-0.000353,-1.389774,-0.248901,0.003662,-1.610712,0.796981,-0.640690,2.379199,0.589879,0.999999,0.001047,-0.000025,-0.000202,-0.000532,0.000201,0.000347
3.140000,0.027437,1.572036,0.799816,0.000259,2.143768,-0.272247,-0.000349,-1.405762,-0.240902,-0.001649,-1.586189,0.802652,-0.046803,2.718096,0.519614,0.999999,0.001044,-0.000024,-0.000200,-0.000532,0.000196,0.000343
3.150000,0.027440,1.593403,0.797081,0.000256,2.129632,-0.274615,-0.000358,-1.421482,-0.232851,-0.000436,-1.557978,0.807585,-0.082687,2.732609,0.491748,0.999999,0.001041,-0.000023,-0.000198,-0.000532,0.000191,0.000340
3.160000,0.027442,1.614628,0.794324,0.000252,2.115340,-0.276904,-0.000351,-1.436917,-0.224751,0.002308,-1.528801,0.812402,-0.016983,2.795482,0.463028,0.999999,0.001039,-0.000022,-0.000196,-0.000534,0.000187,0.000337
3.170000,0.027445,1.635710,0.791544,0.000249,2.100894,-0.279110,-0.000362,-1.452081,-0.216605,-0.006733,-1.504895,0.816759,-1.160290,2.284870,0.417286,0.999999,0.001036,-0.000021,-0.000195,-0.000537,0.000184,0.000334
3.180000,0.027447,1.656646,0.788742,0.000245,2.086299,-0.281236,-0.000454,-1.466999,-0.208416,-0.007652,-1.476823,0.820935,0.996699,3.339103,0.418190,0.999999,0.001033,-0.000020,-0.000193,-0.000541,0.000180,0.000331
3.190000,0.027450,1.677435,0.785919,0.000240,2.071556,-0.283279,-0.000480,-1.481600,-0.200187,0.000460,-1.444156,0.824942,-0.010144,2.892780,0.374170,0.999999,0.001031,-0.000019,-0.000191,-0.000545,0.000176,0.000326
3.200000,0.027452,1.698076,0.783077,0.000235,2.056668,-0.285239,-0.000493,-1.495904,-0.191919,-0.002450,-1.416411,0.828491,0.062126,2.957433,0.344914,0.999999,0.001028,-0.000018,-0.000190,-0.000549,0.000172,0.000320
3.210000,0.027454,1.718568,0.780215,0.000230,2.041638,-0.287117,-0.000517,-1.509920,-0.183618,-0.002545,-1.386720,0.831761,0.075049,2.999955,0.314357,0.999999,0.001025,-0.000017,-0.000188,-0.000552,0.000165,0.000311
3.220000,0.027457,1.738909,0.777335,0.000225,2.026470,-0.288911,-0.000530,-1.523635,-0.175285,0.000481,-1.356239,0.834826,0.377833,3.077038,0.293345,0.999999,0.001022,-0.000017,-0.000187,-0.000555,0.000158,0.000301
3.230000,0.027459,1.759097,0.774437,0.000220,2.011167,-0.290622,-0.000514,-1.537044,-0.166922,0.001809,-1.325585,0.837519,-0.117807,3.052665,0.245058,0.999999,0.001020,-0.000016,-0.000185,-0.000558,0.000151,0.000289
3.240000,0.027461,1.779131,0.771522,0.000215,1.995731,-0.292250,-0.000502,-1.550147,-0.158535,0.001183,-1.294814,0.839829,0.145069,3.120084,0.222144,0.999999,0.001017,-0.000015,-0.000184,-0.000562,0.000144,0.000278
3.250000,0.027463,1.799011,0.768592,0.000210,1.980165,-0.293793,-0.000479,-1.562938,-0.150126,0.003389,-1.263361,0.841915,0.142377,3.151033,0.189898,0.999999,0.001014,-0.000014,-0.000183,-0.000565,0.000138,0.000268
3.260000,0.027465,1.818734,0.765647,0.000205,1.964473,-0.295252,-0.000449,-1.575422,-0.141700,0.002142,-1.233610,0.843335,0.090151,3.141054,0.151195,0.999999,0.001011,-0.000014,-0.000181,-0.000570,0.000135,0.000259
3.270000,0.027467,1.838300,0.762687,0.000201,1.948657,-0.296627,-0.000398,-1.587583,-0.133256,0.009618,-1.197399,0.845465,0.935858,3.768206,0.219273,0.999999,0.001008,-0.000013,-0.000180,-0.000575,0.000132,0.000252
3.280000,0.027469,1.857707,0.759715,0.000197,1.932722,-0.297917,-0.000281,-1.599386,-0.124794,0.011010,-1.165239,0.846553,-0.672601,2.652995,-0.003435,0.999999,0.001005,-0.000012,-0.000179,-0.000581,0.000130,0.000245
3.290000,0.027471,1.876954,0.756729,0.000195,1.916671,-0.299123,-0.000204,-1.610905,-0.116330,0.005638,-1.137617,0.846521,0.071054,3.206908,0.053173,0.999999,0.001002,-0.000012,-0.000177,-0.000586,0.000129,0.000239
3.300000,0.027473,1.896040,0.753732,0.000193,1.900505,-0.300244,-0.000132,-1.622112,-0.107861,0.008414,-1.103950,0.847144,0.012754,3.191435,0.015319,0.999999,0.000999,-0.000011,-0.000176,-0.000590,0.000127,0.000232
3.310000,0.027475,1.914964,0.750725,0.000192,1.884230,-0.301280,-0.000036,-1.632987,-0.099388,0.011114,-1.070856,0.847438,0.040030,3.220744,-0.012202,0.999999,0.000997,-0.000010,-0.000175,-0.000593,0.000125,0.000224
3.320000,0.027477,1.933724,0.747707,0.000193,1.867847,-0.302232,0.000051,-1.643545,-0.090917,0.004736,-1.041433,0.846389,-0.842496,2.864664,-0.143368,0.999999,0.000994,-0.000010,-0.000174,-0.000596,0.000122,0.000215
3.330000,0.027479,1.952320,0.744680,0.000193,1.851360,-0.303098,0.000081,-1.653805,-0.082458,0.004198,-1.009346,0.845711,0.749784,3.559202,0.009635,0.999999,0.000991,-0.000009,-0.000173,-0.000597,0.000118,0.000206
3.340000,0.027481,1.970751,0.741645,0.000194,1.834772,-0.303881,0.000161,-1.663720,-0.074001,0.010164,-0.974303,0.845487,-0.034074,3.247092,-0.108909,0.999999,0.000988,-0.000009,-0.000172,-0.000598,0.000114,0.000196
3.350000,0.027483,1.989016,0.738603,0.000196,1.818086,-0.304579,0.000248,-1.673306,-0.065554,0.007568,-0.942676,0.844001,-0.009366,3.280049,-0.133875,1.000000,0.000985,-0.000008,-0.000171,-0.000597,0.000110,0.000187
3.360000,0.027485,2.007113,0.735554,0.000199,1.801307,-0.305192,0.000315,-1.682565,-0.057119,0.005558,-0.908959,0.842843,-0.054374,3.317204,-0.155468,1.000000,0.000982,-0.000007,-0.000170,-0.000597,0.000105,0.000179
3.370000,0.027487,2.025041,0.732499,0.000203,1.784436,-0.305721,0.000385,-1.691496,-0.048702,0.009589,-0.877675,0.840362,0.531900,3.081585,-0.284726,1.000000,0.000979,-0.000007,-0.000169,-0.000595,0.000101,0.000172
3.380000,0.027489,2.042801,0.729440,0.000207,1.767478,-0.306166,0.000490,-1.700111,-0.040310,0.009296,-0.844350,0.838325,-0.600911,3.587732,-0.121009,1.000000,0.000976,-0.000006,-0.000168,-0.000594,0.000096,0.000165
3.390000,0.027491,2.060391,0.726376,0.000212,1.750435,-0.306527,0.000552,-1.708374,-0.031934,0.004216,-0.808792,0.836807,-0.083519,3.380479,-0.239170,1.000000,0.000973,-0.000006,-0.000168,-0.000592,0.000091,0.000160
3.400000,0.027493,2.077809,0.723310,0.000218,1.733311,-0.306805,0.000599,-1.716297,-0.023579,0.004812,-0.775529,0.834019,-0.127456,3.414441,-0.262317,1.000000,0.000970,-0.000006,-0.000167,-0.000591,0.000086,0.000157
3.410000,0.027495,2.095057,0.720241,0.000224,1.716110,-0.306999,0.000639,-1.723885,-0.015255,0.003236,-0.742257,0.830859,-0.152136,3.416918,-0.297603,1.000000,0.000967,-0.000005,-0.000166,-0.000590,0.000081,0.000154
3.420000,0.027498,2.112131,0.717170,0.000231,1.698835,-0.307110,0.000665,-1.731127,-0.006957,0.002104,-0.705580,0.828738,-0.107787,3.746999,-0.197691,1.000000,0.000964,-0.000005,-0.000165,-0.000590,0.000077,0.000153
3.430000,0.027500,2.129033,0.714099,0.000238,1.681489,-0.307138,0.000679,-1.738005,0.001316,0.000377,-0.670918,0.825412,-0.237935,3.179655,-0.469826,1.000000,0.000961,-0.000004,-0.000164,-0.000589,0.000073,0.000154
3.440000,0.027502,2.145761,0.711027,0.000244,1.664076,-0.307084,0.000671,-1.744555,0.009546,-0.001945,-0.638533,0.820773,-0.191079,3.469823,-0.386631,1.000000,0.000958,-0.000004,-0.000164,-0.000589,0.000070,0.000157
3.450000,0.027505,2.162314,0.707957,0.000251,1.646599,-0.306947,0.000643,-1.750762,0.017735,-0.003716,-0.602995,0.817065,-0.196293,3.465184,-0.426124,1.000000,0.000955,-0.000004,-0.000163,-0.000588,0.000067,0.000161
3.460000,0.027507,2.178693,0.704889,0.000257,1.629062,-0.306729,0.000607,-1.756623,0.025882,-0.002966,-0.569242,0.812156,-0.138485,3.451623,-0.471111,1.000000,0.000952,-0.000003,-0.000162,-0.000585,0.000065,0.000169
3.470000,0.027510,2.194895,0.701823,0.000263,1.611468,-0.306430,0.000546,-1.762134,0.033984,-0.010935,-0.532434,0.808421,-0.982811,3.748520,-0.358148,1.000000,0.000949,-0.000003,-0.000161,-0.000582,0.000063,0.000178
3.480000,0.027513,2.210922,0.698760,0.000268,1.593820,-0.306050,0.000413,-1.767279,0.042045,-0.012706,-0.497660,0.803267,0.644033,3.201344,-0.675182,1.000000,0.000946,-0.000003,-0.000160,-0.000580,0.000061,0.000185
3.490000,0.027515,2.226772,0.695702,0.000271,1.576123,-0.305589,0.000318,-1.772096,0.050044,-0.007579,-0.465137,0.796581,-0.094149,3.466629,-0.578740,1.000000,0.000943,-0.000002,-0.000159,-0.000578,0.000059,0.000190
3.500000,0.027518,2.242444,0.692649,0.000274,1.558380,-0.305049,0.000226,-1.776569,0.057982,-0.010540,-0.429702,0.790991,-0.023325,3.458272,-0.621946,1.000000,0.000941,-0.000002,-0.000158,-0.000576,0.000057,0.000191
3.510000,0.027521,2.257939,0.689601,0.000276,1.540593,-0.304430,0.000121,-1.780683,0.065863,-0.010470,-0.392644,0.785201,0.019382,3.512365,-0.646243,1.000000,0.000938,-0.000002,-0.000157,-0.000578,0.000054,0.000186
3.520000,0.027524,2.273256,0.686561,0.000277,1.522767,-0.303732,0.000017,-1.784456,0.073676,-0.010321,-0.363506,0.777056,0.027369,2.743944,-0.875376,1.000000,0.000935,-0.000002,-0.000157,-0.000580,0.000050,0.000177
3.530000,0.027526,2.288394,0.683527,0.000276,1.504905,-0.302956,-0.000084,-1.787931,0.081408,-0.009571,-0.328766,0.769947,0.122415,4.217619,-0.542733,1.000000,0.000932,-0.000001,-0.000156,-0.000581,0.000047,0.000165
3.540000,0.027529,2.303354,0.680502,0.000275,1.487010,-0.302104,-0.000173,-1.791007,0.089080,-0.008237,-0.287816,0.764039,0.126201,3.540038,-0.746778,1.000000,0.000929,-0.000001,-0.000155,-0.000583,0.000043,0.000152
3.550000,0.027532,2.318134,0.677485,0.000273,1.469086,-0.301175,-0.000249,-1.793720,0.096680,-0.006921,-0.254299,0.755935,0.153220,3.594467,-0.766161,1.000000,0.000926,-0.000001,-0.000154,-0.000582,0.000041,0.000139
3.560000,0.027535,2.332736,0.674478,0.000270,1.451137,-0.300171,-0.000324,-1.796087,0.104202,-0.008472,-0.219358,0.748439,0.108386,3.596787,-0.785487,1.000000,0.000923,-0.000001,-0.000154,-0.000579,0.000039,0.000127
3.570000,0.027537,2.347157,0.671482,0.000266,1.433165,-0.299091,-0.000373,-1.798090,0.111644,0.000497,-0.180501,0.739743,1.128290,3.976714,-0.902553,1.000000,0.000920,-0.000000,-0.000153,-0.000574,0.000037,0.000118
3.580000,0.027540,2.361399,0.668497,0.000263,1.415176,-0.297938,-0.000342,-1.799707,0.118998,0.002399,-0.143980,0.731463,-0.766091,3.320640,-0.751720,1.000000,0.000917,-0.000000,-0.000152,-0.000569,0.000036,0.000110
3.590000,0.027542,2.375461,0.665524,0.000259,1.397172,-0.296712,-0.000356,-1.800980,0.126275,-0.003590,-0.110105,0.723674,0.129079,3.653098,-0.857721,1.000000,0.000915,-0.000000,-0.000152,-0.000562,0.000036,0.000104
3.600000,0.027545,2.389342,0.662563,0.000256,1.379158,-0.295413,-0.000371,-1.801893,0.133467,0.000204,-0.072619,0.714746,0.069812,3.644446,-0.876457,1.000000,0.000912,0.000000,-0.000151,-0.000556,0.000035,0.000100
3.610000,0.027548,2.403044,0.659616,0.000252,1.361136,-0.294043,-0.000362,-1.802442,0.140568,0.001607,-0.037241,0.705251,0.061788,3.623548,-0.911415,1.000000,0.000909,0.000000,-0.000151,-0.000551,0.000035,0.000097
3.620000,0.027550,2.416565,0.656682,0.000248,1.343110,-0.292602,-0.000351,-1.802623,0.147580,0.000071,0.001619,0.697540,-0.224433,3.960770,-0.738980,1.000000,0.000906,0.000000,-0.000150,-0.000546,0.000034,0.000095
3.630000,0.027553,2.429906,0.653764,0.000245,1.325085,-0.291091,-0.000354,-1.802419,0.154512,0.000154,0.038035,0.688204,0.245722,3.316297,-1.131462,1.000000,0.000904,0.000001,-0.000150,-0.000542,0.000034,0.000095
3.640000,0.027555,2.443067,0.650861,0.000241,1.307063,-0.289512,-0.000341,-1.801873,0.161337,0.002069,0.071729,0.677093,-0.008261,3.611532,-0.981874,1.000000,0.000901,0.000001,-0.000149,-0.000538,0.000033,0.000095
3.650000,0.027557,2.456047,0.647974,0.000238,1.289048,-0.287865,-0.000325,-1.800970,0.168062,0.001234,0.108658,0.667642,-0.012856,3.585732,-1.016864,1.000000,0.000898,0.000001,-0.000149,-0.000534,0.000033,0.000095
3.660000,0.027560,2.468848,0.645104,0.000235,1.271045,-0.286151,-0.000308,-1.799699,0.174687,0.002265,0.145679,0.657522,0.000061,3.597166,-1.041204,1.000000,0.000896,0.000001,-0.000148,-0.000531,0.000032,0.000094
3.670000,0.027562,2.481468,0.642251,0.000232,1.253055,-0.284371,-0.000297,-1.798074,0.181208,-0.000776,0.178570,0.646497,-0.395048,3.195694,-1.129910,1.000000,0.000893,0.000001,-0.000148,-0.000527,0.000031,0.000094
3.680000,0.027564,2.493909,0.639416,0.000229,1.235084,-0.282527,-0.000313,-1.796118,0.187618,-0.001158,0.214096,0.635634,0.325633,3.916232,-1.041530,1.000000,0.000890,0.000001,-0.000147,-0.000523,0.000030,0.000093
3.690000,0.027567,2.506170,0.636601,0.000226,1.217134,-0.280619,-0.000308,-1.793781,0.193922,0.001434,0.252557,0.624985,-0.022134,3.559337,-1.122270,1.000000,0.000888,0.000002,-0.000147,-0.000520,0.000030,0.000092
3.700000,0.027569,2.518252,0.633804,0.000223,1.199210,-0.278649,-0.000301,-1.791083,0.200114,0.000228,0.287117,0.613480,-0.004519,3.568848,-1.144641,1.000000,0.000885,0.000002,-0.000146,-0.000516,0.000029,0.000090
3.710000,0.027571,2.530154,0.631028,0.000220,1.181314,-0.276618,-0.000301,-1.788035,0.206192,-0.000312,0.322417,0.601959,-0.010569,3.556588,-1.167749,1.000000,0.000882,0.000002,-0.000146,-0.000513,0.000028,0.000090
3.720000,0.027573,2.541878,0.628272,0.000217,1.163450,-0.274526,-0.000300,-1.784630,0.212152,0.000873,0.358849,0.590053,0.157443,3.666007,-1.205478,1.000000,0.000880,0.000002,-0.000146,-0.000509,0.000027,0.000089
3.730000,0.027575,2.553423,0.625538,0.000214,1.145623,-0.272375,-0.000288,-1.780862,0.217992,0.000941,0.394396,0.578016,-0.146752,3.441224,-1.201513,1.000000,0.000877,0.000002,-0.000145,-0.000505,0.000027,0.000088
3.740000,0.027578,2.564791,0.622825,0.000211,1.127834,-0.270166,-0.000286,-1.776746,0.223712,-0.000235,0.428959,0.565865,0.002662,3.535344,-1.236559,1.000000,0.000875,0.000002,-0.000145,-0.000502,0.000026,0.000087
3.750000,0.027580,2.575980,0.620134,0.000208,1.110089,-0.267901,-0.000286,-1.772278,0.229308,0.000220,0.464557,0.553355,-0.002427,3.519654,-1.257551,1.000000,0.000872,0.000002,-0.000144,-0.000498,0.000025,0.000087
3.760000,0.027582,2.586993,0.617467,0.000205,1.092390,-0.265581,-0.000283,-1.767456,0.234779,0.000261,0.499738,0.540630,-0.000411,3.507890,-1.279432,1.000000,0.000870,0.000002,-0.000144,-0.000495,0.000025,0.000086
3.770000,0.027584,2.597828,0.614823,0.000202,1.074741,-0.263206,-0.000281,-1.762284,0.240121,0.000110,0.534634,0.527840,-0.019154,3.479262,-1.286140,1.000000,0.000867,0.000003,-0.000143,-0.000491,0.000024,0.000085
3.780000,0.027586,2.608488,0.612203,0.000200,1.057145,-0.260779,-0.000280,-1.756764,0.245334,0.000105,0.569493,0.514750,0.018582,3.492803,-1.331988,1.000000,0.000865,0.000003,-0.000143,-0.000488,0.000024,0.000084
3.790000,0.027588,2.618971,0.609608,0.000197,1.039607,-0.258300,-0.000278,-1.750894,0.250415,0.000263,0.604319,0.501356,0.001980,3.463870,-1.339052,1.000000,0.000863,0.000003,-0.000143,-0.000484,0.000023,0.000084
3.800000,0.027590,2.629280,0.607037,0.000194,1.022129,-0.255771,-0.000276,-1.744679,0.255361,0.000237,0.638838,0.487905,0.003712,3.447965,-1.358597,1.000000,0.000860,0.000003,-0.000142,-0.000481,0.000023,0.000083
3.810000,0.027592,2.639414,0.604492,0.000191,1.004714,-0.253193,-0.000274,-1.738118,0.260172,0.000183,0.673191,0.474280,0.002639,3.429672,-1.375847,1.000000,0.000858,0.000003,-0.000142,-0.000477,0.000022,0.000082
3.820000,0.027594,2.649374,0.601973,0.000189,0.987367,-0.250568,-0.000271,-1.731215,0.264846,0.000447,0.707492,0.460301,0.033479,3.423523,-1.410538,1.000000,0.000855,0.000003,-0.000141,-0.000474,0.000022,0.000081
3.830000,0.027595,2.659162,0.599481,0.000186,0.970091,-0.247896,-0.000266,-1.723969,0.269378,0.000502,0.741514,0.446269,-0.023105,3.380317,-1.395449,1.000000,0.000853,0.000003,-0.000141,-0.000470,0.000021,0.000080
3.840000,0.027597,2.668776,0.597016,0.000183,0.952889,-0.245181,-0.000262,-1.716386,0.273771,0.000322,0.775234,0.432204,0.003902,3.370553,-1.426979,1.000000,0.000851,0.000003,-0.000141,-0.000466,0.000021,0.000079
3.850000,0.027599,2.678220,0.594578,0.000181,0.935765,-0.242421,-0.000258,-1.708465,0.278021,0.000436,0.808862,0.417814,0.002213,3.347895,-1.441647,1.000000,0.000848,0.000003,-0.000140,-0.000463,0.000021,0.000078
3.860000,0.027601,2.687492,0.592167,0.000178,0.918721,-0.239621,-0.000254,-1.700209,0.282127,0.000418,0.842212,0.403319,0.000745,3.324353,-1.456498,1.000000,0.000846,0.000004,-0.000140,-0.000458,0.000020,0.000078
3.870000,0.027603,2.696594,0.589785,0.000176,0.901761,-0.236779,-0.000249,-1.691621,0.286087,0.000512,0.875367,0.388692,0.011584,3.304265,-1.469465,1.000000,0.000844,0.000004,-0.000139,-0.000454,0.000020,0.000077
3.880000,0.027604,2.705528,0.587432,0.000173,0.884890,-0.233899,-0.000244,-1.682703,0.289900,0.000515,0.908245,0.373917,-0.011165,3.270966,-1.485432,1.000000,0.000841,0.000004,-0.000139,-0.000450,0.000020,0.000077
3.890000,0.027606,2.714292,0.585108,0.000171,0.868109,-0.230982,-0.000239,-1.673457,0.293565,0.000418,0.940831,0.358999,-0.001613,3.248519,-1.497443,1.000000,0.000839,0.000004,-0.000139,-0.000446,0.000019,0.000076
3.900000,0.027608,2.722890,0.582812,0.000168,0.851422,-0.228029,-0.000235,-1.663887,0.297080,0.000428,0.973193,0.343964,-0.002939,3.221358,-1.510107,1.000000,0.000837,0.000004,-0.000138,-0.000442,0.000019,0.000076
3.910000,0.027609,2.731321,0.580547,0.000166,0.834832,-0.225041,-0.000230,-1.653995,0.300444,0.000489,1.005288,0.328754,-0.001830,3.192754,-1.523112,1.000000,0.000835,0.000004,-0.000138,-0.000437,0.000019,0.000075
3.920000,0.027611,2.739587,0.578312,0.000164,0.818343,-0.222020,-0.000227,-1.643783,0.303655,0.000235,1.036967,0.313587,-0.032378,3.150032,-1.518828,1.000000,0.000833,0.000004,-0.000137,-0.000433,0.000019,0.000075
3.930000,0.027613,2.747688,0.576107,0.000161,0.801957,-0.218968,-0.000225,-1.633256,0.306715,0.000188,1.068438,0.298196,0.023557,3.144188,-1.559550,1.000000,0.000830,0.000004,-0.000137,-0.000429,0.000018,0.000074
3.940000,0.027614,2.755626,0.573932,0.000159,0.785679,-0.215886,-0.000222,-1.622415,0.309618,0.000373,1.099700,0.282574,-0.003362,3.100791,-1.555880,1.000000,0.000828,0.000004,-0.000137,-0.000425,0.000018,0.000074
3.950000,0.027616,2.763402,0.571789,0.000157,0.769510,-0.212776,-0.000219,-1.611263,0.312366,0.000263,1.130515,0.267006,-0.001965,3.068929,-1.566486,1.000000,0.000826,0.000004,-0.000136,-0.000420,0.000018,0.000073
3.960000,0.027618,2.771017,0.569677,0.000155,0.753454,-0.209640,-0.000216,-1.599805,0.314958,0.000211,1.161021,0.251318,-0.002281,3.035061,-1.575359,1.000000,0.000824,0.000005,-0.000136,-0.000416,0.000018,0.000073
3.970000,0.027619,2.778472,0.567596,0.000153,0.737515,-0.206478,-0.000214,-1.588044,0.317392,0.000273,1.191239,0.235460,0.008751,3.005459,-1.591816,1.000000,0.000822,0.000005,-0.000136,-0.000412,0.000017,0.000072
3.980000,0.027621,2.785768,0.565548,0.000151,0.721694,-0.203292,-0.000211,-1.575982,0.319667,0.000263,1.221068,0.219575,-0.011011,2.960186,-1.585089,1.000000,0.000820,0.000005,-0.000135,-0.000408,0.000017,0.000071
3.990000,0.027622,2.792906,0.563531,0.000148,0.705996,-0.200085,-0.000209,-1.563624,0.321784,0.000172,1.250495,0.203674,-0.001196,2.927879,-1.599254,1.000000,0.000818,0.000005,-0.000135,-0.000404,0.000017,0.000071
4.000000,0.027624,2.799888,0.561546,0.000146,0.690423,-0.196857,-0.000207,-1.550973,0.323740,0.000188,1.279593,0.187630,-0.001459,2.889266,-1.605253,1.000000,0.000816,0.000005,-0.000135,-0.000399,0.000017,0.000070
4.010000,0.027625,2.806715,0.559594,0.000144,0.674978,-0.193611,-0.000205,-1.538033,0.325536,0.000169,1.308289,0.171553,-0.001450,2.849893,-1.610754,1.000000,0.000814,0.000005,-0.000134,-0.000395,0.000017,0.000070
4.020000,0.027626,2.813388,0.557674,0.000142,0.659663,-0.190347,-0.000204,-1.524809,0.327171,0.000169,1.336589,0.155410,0.000443,2.809799,-1.616880,1.000000,0.000812,0.000005,-0.000134,-0.000391,0.000016,0.000069
4.030000,0.027628,2.819909,0.555787,0.000140,0.644482,-0.187068,-0.000202,-1.511303,0.328644,0.000157,1.364476,0.139233,-0.002735,2.767489,-1.618543,1.000000,0.000810,0.000005,-0.000134,-0.000387,0.000016,0.000068
4.040000,0.027629,2.826278,0.553932,0.000138,0.629438,-0.183775,-0.000201,-1.497521,0.329956,0.000134,1.391940,0.123028,-0.001009,2.725259,-1.623024,1.000000,0.000808,0.000005,-0.000133,-0.000383,0.000016,0.000068
4.050000,0.027631,2.832498,0.552111,0.000136,0.614533,-0.180469,-0.000199,-1.483466,0.331105,0.000129,1.418968,0.106781,-0.000925,2.680855,-1.625501,1.000000,0.000806,0.000005,-0.000133,-0.000378,0.000016,0.000067
4.060000,0.027632,2.838569,0.550323,0.000134,0.599770,-0.177153,-0.000198,-1.469143,0.332091,0.000142,1.445555,0.090503,-0.000318,2.635740,-1.627538,1.000000,0.000804,0.000005,-0.000133,-0.000374,0.000016,0.000066
4.070000,0.027633,2.844494,0.548568,0.000132,0.585151,-0.173828,-0.000197,-1.454556,0.332915,0.000086,1.471672,0.074255,-0.007036,2.588058,-1.624190,1.000000,0.000803,0.000005,-0.000132,-0.000370,0.000016,0.000066
4.080000,0.027635,2.850273,0.546847,0.000130,0.570679,-0.170495,-0.000196,-1.439711,0.333576,0.000081,1.497328,0.057972,0.006181,2.542996,-1.632518,1.000000,0.000801,0.000006,-0.000132,-0.000366,0.000016,0.000065
4.090000,0.027636,2.855908,0.545158,0.000128,0.556358,-0.167157,-0.000195,-1.424611,0.334074,0.000133,1.522513,0.041656,0.000240,2.493213,-1.628017,1.000000,0.000799,0.000006,-0.000132,-0.000362,0.000015,0.000064
4.100000,0.027637,2.861400,0.543503,0.000126,0.542188,-0.163814,-0.000194,-1.409262,0.334409,0.000119,1.547195,0.025394,0.000793,2.443664,-1.626716,1.000000,0.000797,0.000006,-0.000131,-0.000357,0.000015,0.000064
4.110000,0.027638,2.866752,0.541882,0.000124,0.528173,-0.160469,-0.000193,-1.393669,0.334582,0.000108,1.571358,0.009144,0.000654,2.391690,-1.624365,1.000000,0.000795,0.000006,-0.000131,-0.000353,0.000015,0.000063
4.120000,0.027640,2.871964,0.540294,0.000123,0.514315,-0.157123,-0.000191,-1.377837,0.334592,0.000165,1.595028,-0.007106,0.007170,2.341006,-1.623978,1.000000,0.000794,0.000006,-0.000131,-0.000349,0.000015,0.000063
4.130000,0.027641,2.877039,0.538740,0.000121,0.500617,-0.153778,-0.000189,-1.361770,0.334440,0.000178,1.618154,-0.023300,-0.004551,2.283966,-1.614766,1.000000,0.000792,0.000006,-0.000130,-0.000345,0.000015,0.000062
4.140000,0.027642,2.881977,0.537218,0.000119,0.487081,-0.150435,-0.000188,-1.345476,0.334126,0.000144,1.640723,-0.039429,0.001154,2.230643,-1.612276,1.000000,0.000790,0.000006,-0.000130,-0.000341,0.000015,0.000061
4.150000,0.027643,2.886781,0.535731,0.000117,0.473708,-0.147096,-0.000186,-1.328958,0.333652,0.000172,1.662753,-0.055530,0.000866,2.174295,-1.606287,1.000000,0.000788,0.000006,-0.000130,-0.000336,0.000015,0.000061
4.160000,0.027644,2.891452,0.534277,0.000115,0.460502,-0.143763,-0.000185,-1.312222,0.333016,0.000168,1.684207,-0.071545,0.000544,2.116747,-1.599185,1.000000,0.000787,0.000006,-0.000129,-0.000332,0.000014,0.000060
4.170000,0.027646,2.895992,0.532856,0.000113,0.447465,-0.140436,-0.000183,-1.295275,0.332221,0.000201,1.705088,-0.087534,0.003991,2.058848,-1.595979,1.000000,0.000785,0.000006,-0.000129,-0.000328,0.000014,0.000059
4.180000,0.027647,2.900402,0.531468,0.000111,0.434598,-0.137119,-0.000181,-1.278123,0.331266,0.000207,1.725369,-0.103409,-0.002864,1.997087,-1.578791,1.000000,0.000783,0.000006,-0.000129,-0.000324,0.000014,0.000058
4.190000,0.027648,2.904684,0.530113,0.000110,0.421903,-0.133811,-0.000179,-1.260770,0.330153,0.000184,1.745035,-0.119158,0.000173,1.936250,-1.573241,1.000000,0.000782,0.000006,-0.000128,-0.000320,0.000014,0.000057
4.200000,0.027649,2.908841,0.528792,0.000108,0.409383,-0.130516,-0.000177,-1.243224,0.328883,0.000194,1.764096,-0.134849,-0.000142,1.874128,-1.562482,1.000000,0.000780,0.000006,-0.000128,-0.000316,0.000014,0.000057
4.210000,0.027650,2.912873,0.527503,0.000106,0.397039,-0.127234,-0.000175,-1.225490,0.327456,0.000211,1.782530,-0.150438,0.000100,1.810509,-1.551397,1.000000,0.000779,0.000006,-0.000128,-0.000312,0.000014,0.000056
4.220000,0.027651,2.916782,0.526247,0.000104,0.384874,-0.123968,-0.000173,-1.207576,0.325875,0.000163,1.800285,-0.165840,-0.006361,1.742141,-1.532443,1.000000,0.000777,0.000007,-0.000128,-0.000307,0.000014,0.000055
4.230000,0.027652,2.920571,0.525023,0.000103,0.372888,-0.120717,-0.000171,-1.189487,0.324140,0.000158,1.817406,-0.181160,0.005488,1.682024,-1.531427,1.000000,0.000776,0.000007,-0.000127,-0.000303,0.000014,0.000054
4.240000,0.027653,2.924240,0.523832,0.000101,0.361084,-0.117485,-0.000170,-1.171230,0.322252,0.000202,1.833885,-0.196392,-0.000200,1.611690,-1.511353,1.000000,0.000774,0.000007,-0.000127,-0.000299,0.000013,0.000054
4.250000,0.027654,2.927793,0.522674,0.000099,0.349464,-0.114273,-0.000168,-1.152811,0.320213,0.000184,1.849643,-0.211413,0.000111,1.542502,-1.496406,1.000000,0.000773,0.000007,-0.000127,-0.000295,0.000013,0.000053
4.260000,0.027655,2.931230,0.521547,0.000098,0.338029,-0.111081,-0.000166,-1.134239,0.318024,0.000184,1.864711,-0.226294,0.000180,1.472099,-1.480219,1.000000,0.000771,0.000007,-0.000127,-0.000291,0.000013,0.000052
4.270000,0.027656,2.934554,0.520452,0.000096,0.326780,-0.107913,-0.000164,-1.115520,0.315687,0.000189,1.879093,-0.241020,0.000711,1.402809,-1.464085,1.000000,0.000770,0.000007,-0.000126,-0.000287,0.000013,0.000052
4.280000,0.027657,2.937766,0.519389,0.000094,0.315719,-0.104768,-0.000162,-1.096660,0.313204,0.000193,1.892736,-0.255561,-0.000002,1.325521,-1.444076,1.000000,0.000768,0.000007,-0.000126,-0.000284,0.000013,0.000051
4.290000,0.027658,2.940869,0.518356,0.000093,0.304847,-0.101649,-0.000160,-1.077667,0.310577,0.000194,1.905625,-0.269909,0.000474,1.253315,-1.425830,1.000000,0.000767,0.000007,-0.000126,-0.000280,0.000013,0.000050
4.300000,0.027659,2.943864,0.517355,0.000091,0.294166,-0.098557,-0.000158,-1.058550,0.307807,0.000201,1.917787,-0.284068,0.000538,1.177552,-1.405452,1.000000,0.000765,0.000007,-0.000126,-0.000276,0.000012,0.000049
4.310000,0.027660,2.946753,0.516385,0.000089,0.283676,-0.095494,-0.000156,-1.039314,0.304896,0.000202,1.929174,-0.298005,0.000514,1.100446,-1.383901,1.000000,0.000764,0.000007,-0.000125,-0.000272,0.000012,0.000049
4.320000,0.027661,2.949538,0.515445,0.000088,0.273380,-0.092460,-0.000154,-1.019969,0.301847,0.000218,1.939798,-0.311761,0.002025,1.023342,-1.365161,1.000000,0.000763,0.000007,-0.000125,-0.000268,0.000012,0.000048
4.330000,0.027661,2.952221,0.514536,0.000086,0.263277,-0.089457,-0.000152,-1.000521,0.298662,0.000225,1.949622,-0.325263,-0.000679,0.941230,-1.334813,1.000000,0.000761,0.000007,-0.000125,-0.000264,0.000012,0.000047
4.340000,0.027662,2.954804,0.513656,0.000085,0.253370,-0.086487,-0.000150,-0.980979,0.295343,0.000221,1.958632,-0.338495,0.000642,0.861278,-1.313480,1.000000,0.000760,0.000007,-0.000125,-0.000260,0.000012,0.000046
4.350000,0.027663,2.957289,0.512806,0.000083,0.243658,-0.083551,-0.000147,-0.961351,0.291893,0.000231,1.966836,-0.351512,0.000579,0.778697,-1.287696,1.000000,0.000759,0.000007,-0.000124,-0.000256,0.000012,0.000045
4.360000,0.027664,2.959678,0.511985,0.000082,0.234143,-0.080649,-0.000145,-0.941645,0.288314,0.000232,1.974210,-0.364263,0.000464,0.694961,-1.261053,1.000000,0.000758,0.000007,-0.000124,-0.000252,0.000012,0.000044
4.370000,0.027665,2.961973,0.511193,0.000080,0.224825,-0.077785,-0.000143,-0.921870,0.284608,0.000248,1.980721,-0.376719,0.001917,0.607992,-1.231091,1.000000,0.000756,0.000007,-0.000124,-0.000248,0.000012,0.000044
4.380000,0.027666,2.964175,0.510429,0.000079,0.215706,-0.074958,-0.000140,-0.902033,0.280780,0.000253,1.986385,-0.388905,-0.000902,0.524684,-1.206080,1.000000,0.000755,0.000008,-0.000124,-0.000244,0.000011,0.000043
4.390000,0.027666,2.966288,0.509694,0.000078,0.206785,-0.072170,-0.000138,-0.882145,0.276831,0.000247,1.991190,-0.400813,0.000386,0.434992,-1.174121,1.000000,0.000754,0.000008,-0.000123,-0.000240,0.000011,0.000042
4.400000,0.027667,2.968312,0.508986,0.000076,0.198063,-0.069421,-0.000135,-0.862213,0.272765,0.000254,1.995093,-0.412395,0.000282,0.345958,-1.143114,1.000000,0.000753,0.000008,-0.000123,-0.000236,0.000011,0.000041
4.410000,0.027668,2.970250,0.508305,0.000075,0.189541,-0.066715,-0.000133,-0.842246,0.268584,0.000264,1.998099,-0.423668,0.000400,0.255222,-1.110914,1.000000,0.000752,0.000008,-0.000123,-0.000232,0.000011,0.000041
4.420000,0.027669,2.972103,0.507651,0.000074,0.181218,-0.064050,-0.000130,-0.822254,0.264293,0.000249,2.000196,-0.434605,-0.002082,0.163712,-1.076644,1.000000,0.000750,0.000008,-0.000123,-0.000229,0.000011,0.000040
4.430000,0.027669,2.973875,0.507024,0.000072,0.173096,-0.061429,-0.000127,-0.802245,0.259893,0.000251,2.001361,-0.445208,0.002539,0.069081,-1.043765,1.000000,0.000749,0.000008,-0.000123,-0.000225,0.000011,0.000039
4.440000,0.027670,2.975566,0.506423,0.000071,0.165173,-0.058853,-0.000125,-0.782230,0.255390,0.000273,2.001579,-0.455466,0.000359,-0.025402,-1.007300,1.000000,0.000748,0.000008,-0.000122,-0.000221,0.000011,0.000038
4.450000,0.027671,2.977179,0.505847,0.000070,0.157451,-0.056322,-0.000122,-0.762217,0.250785,0.000270,2.000848,-0.465353,0.000500,-0.121640,-0.970452,1.000000,0.000747,0.000008,-0.000122,-0.000217,0.000010,0.000038
4.460000,0.027671,2.978716,0.505296,0.000069,0.149929,-0.053837,-0.000119,-0.742216,0.246084,0.000270,1.999143,-0.474865,0.000444,-0.219423,-0.932335,1.000000,0.000746,0.000008,-0.000122,-0.000213,0.000010,0.000037
4.470000,0.027672,2.980178,0.504770,0.000068,0.142607,-0.051400,-0.000117,-0.722237,0.241289,0.000289,1.996458,-0.484003,0.002353,-0.318112,-0.894333,1.000000,0.000745,0.000008,-0.000122,-0.000209,0.000010,0.000036
4.480000,0.027673,2.981568,0.504268,0.000066,0.135484,-0.049012,-0.000114,-0.702290,0.236405,0.000295,1.992770,-0.492733,-0.001054,-0.419705,-0.851596,1.000000,0.000744,0.000008,-0.000122,-0.000205,0.000010,0.000036
4.490000,0.027673,2.982888,0.503789,0.000065,0.128561,-0.046673,-0.000111,-0.682385,0.231436,0.000288,1.988064,-0.501044,0.000661,-0.521547,-0.811102,1.000000,0.000743,0.000008,-0.000122,-0.000201,0.000010,0.000035
4.500000,0.027674,2.984140,0.503334,0.000064,0.121836,-0.044383,-0.000108,-0.662532,0.226386,0.000300,1.982339,-0.508944,0.000647,-0.624698,-0.768074,1.000000,0.000742,0.000008,-0.000121,-0.000198,0.000010,0.000034
4.510000,0.027675,2.985326,0.502902,0.000063,0.115310,-0.042145,-0.000105,-0.642742,0.221258,0.000315,1.975568,-0.516407,0.000874,-0.729612,-0.723995,1.000000,0.000741,0.000008,-0.000121,-0.000194,0.000009,0.000033
4.520000,0.027675,2.986447,0.502491,0.000062,0.108981,-0.039958,-0.000102,-0.623024,0.216059,0.000304,1.967743,-0.523416,-0.001602,-0.835764,-0.677909,1.000000,0.000740,0.000008,-0.000121,-0.000190,0.000009,0.000033
4.530000,0.027676,2.987506,0.502102,0.000061,0.102849,-0.037824,-0.000099,-0.603390,0.210792,0.000312,1.958846,-0.529969,0.003304,-0.943942,-0.632673,1.000000,0.000739,0.000008,-0.000121,-0.000186,0.000009,0.000032
4.540000,0.027677,2.988505,0.501734,0.000060,0.096913,-0.035743,-0.000095,-0.583851,0.205461,0.000342,1.948861,-0.536057,0.001133,-1.053109,-0.584187,1.000000,0.000738,0.000008,-0.000121,-0.000182,0.000009,0.000031
4.550000,0.027677,2.989445,0.501387,0.000059,0.091172,-0.033715,-0.000092,-0.564417,0.200072,0.000347,1.937781,-0.541652,0.001374,-1.163619,-0.535059,1.000000,0.000737,0.000008,-0.000121,-0.000178,0.000009,0.000031
4.560000,0.027678,2.990329,0.501060,0.000058,0.085624,-0.031742,-0.000088,-0.545099,0.194630,0.000360,1.925583,-0.546752,0.001486,-1.275783,-0.484676,1.000000,0.000736,0.000008,-0.000120,-0.000175,0.000009,0.000030
4.570000,0.027678,2.991158,0.500752,0.000057,0.080269,-0.029823,-0.000085,-0.525909,0.189139,0.000379,1.912265,-0.551339,0.002128,-1.388564,-0.432680,1.000000,0.000735,0.000008,-0.000120,-0.000171,0.000009,0.000029
4.580000,0.027679,2.991935,0.500463,0.000057,0.075106,-0.027959,-0.000081,-0.506858,0.183605,0.000397,1.897799,-0.555405,0.001292,-1.504903,-0.380253,1.000000,0.000735,0.000009,-0.000120,-0.000167,0.000008,0.000028
4.590000,0.027680,2.992661,0.500193,0.000056,0.070132,-0.026151,-0.000077,-0.487957,0.178033,0.000411,1.882172,-0.558937,0.001845,-1.620237,-0.325667,1.000000,0.000734,0.000009,-0.000120,-0.000163,0.000008,0.000028
4.600000,0.027680,2.993338,0.499940,0.000055,0.065346,-0.024398,-0.000073,-0.469218,0.172428,0.000431,1.865373,-0.561916,0.001904,-1.738787,-0.270063,1.000000,0.000733,0.000009,-0.000120,-0.000160,0.000008,0.000027
4.610000,0.027681,2.993968,0.499705,0.000054,0.060747,-0.022702,-0.000068,-0.450653,0.166796,0.000439,1.847391,-0.564331,0.001727,-1.858145,-0.213062,1.000000,0.000732,0.000009,-0.000120,-0.000156,0.000008,0.000026
4.620000,0.027681,2.994554,0.499486,0.000054,0.056332,-0.021063,-0.000064,-0.432274,0.161143,0.000485,1.828203,-0.566175,0.005419,-1.979378,-0.155322,1.000000,0.000731,0.000009,-0.000120,-0.000152,0.000008,0.000025
4.630000,0.027682,2.995096,0.499283,0.000053,0.052101,-0.019479,-0.000059,-0.414093,0.155475,0.000505,1.807803,-0.567426,-0.001442,-2.100827,-0.094585,1.000000,0.000731,0.000009,-0.000119,-0.000148,0.000007,0.000025
4.640000,0.027682,2.995596,0.499096,0.000052,0.048050,-0.017953,-0.000054,-0.396122,0.149797,0.000497,1.786178,-0.568069,0.001820,-2.224597,-0.034089,1.000000,0.000730,0.000009,-0.000119,-0.000145,0.000007,0.000024
4.650000,0.027683,2.996057,0.498924,0.000052,0.044178,-0.016483,-0.000049,-0.378374,0.144115,0.000524,1.763300,-0.568100,0.001646,-2.350187,0.028399,1.000000,0.000729,0.000009,-0.000119,-0.000141,0.000007,0.000023
4.660000,0.027683,2.996480,0.498766,0.000051,0.040482,-0.015071,-0.000043,-0.360861,0.138437,0.000547,1.739162,-0.567493,0.001745,-2.476912,0.092312,1.000000,0.000728,0.000009,-0.000119,-0.000137,0.000007,0.000023
4.670000,0.027684,2.996867,0.498622,0.000051,0.036960,-0.013715,-0.000038,-0.343595,0.132767,0.000548,1.713763,-0.566257,-0.000378,-2.603840,0.155875,1.000000,0.000728,0.000009,-0.000119,-0.000133,0.000007,0.000022
4.680000,0.027684,2.997220,0.498492,0.000051,0.033609,-0.012415,-0.000032,-0.326590,0.127114,0.000564,1.687067,-0.564352,0.003603,-2.735654,0.225563,1.000000,0.000727,0.000009,-0.000119,-0.000129,0.000006,0.000021
4.690000,0.027685,2.997540,0.498374,0.000050,0.030427,-0.011172,-0.000026,-0.309858,0.121483,0.000597,1.659058,-0.561760,0.001763,-2.865653,0.292123,1.000000,0.000726,0.000009,-0.000119,-0.000126,0.000006,0.000021
4.700000,0.027685,2.997829,0.498268,0.000050,0.027411,-0.009986,-0.000020,-0.293413,0.115881,0.000609,1.629744,-0.558497,0.001942,-2.998133,0.361608,1.000000,0.000726,0.000009,-0.000119,-0.000122,0.000006,0.000020
4.710000,0.027686,2.998089,0.498174,0.000050,0.024558,-0.008855,-0.000014,-0.277268,0.110315,0.000638,1.599087,-0.554536,0.002242,-3.132223,0.432297,1.000000,0.000725,0.000009,-0.000119,-0.000118,0.000006,0.000020
4.720000,0.027686,2.998321,0.498091,0.000050,0.021864,-0.007779,-0.000008,-0.261435,0.104793,0.000640,1.567107,-0.549833,-0.000404,-3.265291,0.507180,1.000000,0.000725,0.000009,-0.000118,-0.000114,0.000006,0.000019
4.730000,0.027687,2.998527,0.498018,0.000050,0.019328,-0.006759,-0.000001,-0.245930,0.099321,0.000662,1.533750,-0.544418,0.005011,-3.406520,0.575971,1.000000,0.000724,0.000009,-0.000118,-0.000110,0.000005,0.000018
4.740000,0.027687,2.998708,0.497956,0.000050,0.016945,-0.005793,0.000006,-0.230765,0.093907,0.000709,1.498998,-0.538279,0.002700,-3.542750,0.653442,1.000000,0.000724,0.000009,-0.000118,-0.000107,0.000005,0.000018
4.750000,0.027688,2.998866,0.497902,0.000050,0.014711,-0.004880,0.000013,-0.215955,0.088558,0.000730,1.462881,-0.531357,0.003022,-3.682461,0.729898,1.000000,0.000723,0.000009,-0.000118,-0.000103,0.000005,0.000017
4.760000,0.027688,2.999003,0.497858,0.000050,0.012624,-0.004021,0.000020,-0.201512,0.083282,0.000747,1.425354,-0.523665,0.002959,-3.823526,0.807996,1.000000,0.000723,0.000009,-0.000118,-0.000099,0.000005,0.000016
4.770000,0.027689,2.999119,0.497822,0.000050,0.010680,-0.003214,0.000028,-0.187452,0.078087,0.000812,1.386401,-0.515198,0.007607,-3.966859,0.886354,1.000000,0.000722,0.000009,-0.000118,-0.000095,0.000004,0.000016
4.780000,0.027689,2.999217,0.497793,0.000051,0.008874,-0.002459,0.000036,-0.173789,0.072981,0.000848,1.346022,-0.505920,-0.000550,-4.109243,0.969507,1.000000,0.000722,0.000009,-0.000118,-0.000091,0.000004,0.000015
4.790000,0.027690,2.999297,0.497772,0.000051,0.007203,-0.001754,0.000045,-0.160537,0.067972,0.000850,1.304203,-0.495815,0.003599,-4.255341,1.050956,1.000000,0.000721,0.000009,-0.000118,-0.000087,0.000004,0.000014
4.800000,0.027690,2.999361,0.497758,0.000052,0.005662,-0.001099,0.000054,-0.147710,0.063067,0.000899,1.260914,-0.484890,0.003572,-4.402193,1.134960,1.000000,0.000721,0.000009,-0.000118,-0.000084,0.000004,0.000014
4.810000,0.027691,2.999411,0.497750,0.000052,0.004247,-0.000493,0.000063,-0.135323,0.058277,0.000946,1.216158,-0.473109,0.003934,-4.549914,1.220688,1.000000,0.000720,0.000009,-0.000118,-0.000080,0.000003,0.000013
4.820000,0.027691,2.999447,0.497748,0.000053,0.002954,0.000067,0.000072,-0.123392,0.053608,0.000960,1.169916,-0.460474,0.000698,-4.698879,1.307081,1.000000,0.000720,0.000009,-0.000118,-0.000076,0.000003,0.000012
4.830000,0.027692,2.999470,0.497751,0.000054,0.001778,0.000580,0.000082,-0.111930,0.049070,0.000999,1.122171,-0.446955,0.007300,-4.850265,1.397012,1.000000,0.000720,0.000009,-0.000118,-0.000072,0.000003,0.000012
4.840000,0.027692,2.999483,0.497759,0.000055,0.000714,0.001049,0.000092,-0.100953,0.044672,0.001068,1.072912,-0.432536,0.004479,-5.001573,1.486582,1.000000,0.000719,0.000009,-0.000118,-0.000068,0.000003,0.000011
4.850000,0.027693,2.999485,0.497772,0.000056,-0.000243,0.001474,0.000103,-0.090477,0.040422,0.001105,1.022121,-0.417215,0.004887,-5.155620,1.578293,1.000000,0.000719,0.000009,-0.000118,-0.000065,0.000002,0.000011
4.860000,0.027694,2.999478,0.497789,0.000057,-0.001098,0.001857,0.000115,-0.080516,0.036331,0.001155,0.969792,-0.400967,0.005176,-5.310406,1.671569,1.000000,0.000719,0.000009,-0.000117,-0.000061,0.000002,0.000010
4.870000,0.027694,2.999463,0.497809,0.000058,-0.001855,0.002201,0.000126,-0.071086,0.032406,0.001209,0.915908,-0.383779,0.005463,-5.466501,1.766405,1.000000,0.000718,0.000009,-0.000117,-0.000057,0.000002,0.000010
4.880000,0.027695,2.999441,0.497833,0.000059,-0.002521,0.002506,0.000139,-0.062203,0.028658,0.001265,0.860458,-0.365634,0.005747,-5.623828,1.862805,1.000000,0.000718,0.000009,-0.000117,-0.000053,0.000002,0.000009
4.890000,0.027695,2.999413,0.497859,0.000061,-0.003101,0.002775,0.000152,-0.053882,0.025097,0.001323,0.803428,-0.346517,0.006022,-5.782222,1.960777,1.000000,0.000718,0.000009,-0.000117,-0.000050,0.000001,0.000009
4.900000,0.027696,2.999379,0.497888,0.000062,-0.003601,0.003009,0.000165,-0.046140,0.021731,0.001385,0.744799,-0.326413,0.006285,-5.942748,2.060362,1.000000,0.000718,0.000009,-0.000117,-0.000046,0.000001,0.000008
4.910000,0.027697,2.999341,0.497919,0.000064,-0.004026,0.003210,0.000179,-0.038992,0.018572,0.001449,0.684566,-0.305305,0.006533,-6.104094,2.161518,1.000000,0.000717,0.000009,-0.000117,-0.000042,0.000001,0.000008
4.920000,0.027697,2.999299,0.497952,0.000066,-0.004383,0.003381,0.000194,-0.032454,0.015629,0.001516,0.622713,-0.283177,0.006761,-6.266739,2.264270,1.000000,0.000717,0.000009,-0.000117,-0.000038,0.000000,0.000007
4.930000,0.027698,2.999254,0.497987,0.000068,-0.004677,0.003523,0.000210,-0.026543,0.012912,0.001584,0.559226,-0.260014,0.006966,-6.430731,2.368626,1.000000,0.000717,0.000009,-0.000117,-0.000034,0.000000,0.000007
4.940000,0.027699,2.999206,0.498023,0.000070,-0.004916,0.003640,0.000226,-0.021275,0.010432,0.001655,0.494093,-0.235799,0.007145,-6.596259,2.474595,1.000000,0.000717,0.000009,-0.000117,-0.000031,-0.000000,0.000006
4.950000,0.027699,2.999156,0.498059,0.000072,-0.005105,0.003733,0.000243,-0.016666,0.008199,0.001727,0.427306,-0.210517,0.007290,-6.762294,2.582182,1.000000,0.000717,0.000009,-0.000117,-0.000027,-0.000000,0.000006
4.960000,0.027700,2.999104,0.498097,0.000075,-0.005251,0.003805,0.000260,-0.012734,0.006225,0.001800,0.358845,-0.184150,0.007403,-6.930008,2.691394,1.000000,0.000716,0.000009,-0.000117,-0.000023,-0.000000,0.000005
4.970000,0.027701,2.999051,0.498135,0.000078,-0.005362,0.003858,0.000279,-0.009495,0.004520,0.001875,0.288702,-0.156683,0.007477,-7.098960,2.802236,1.000000,0.000716,0.000009,-0.000117,-0.000020,0.000001,0.000004
4.980000,0.027702,2.998997,0.498174,0.000080,-0.005444,0.003896,0.000298,-0.006966,0.003095,0.001950,0.216862,-0.128100,0.007509,-7.269130,2.914704,1.000000,0.000716,0.000009,-0.000117,-0.000016,0.000002,0.000003
4.990000,0.027702,2.998942,0.498213,0.000083,-0.005504,0.003921,0.000318,-0.005164,0.001962,0.002025,0.143315,-0.098384,0.007495,-7.440529,3.028781,1.000000,0.000716,0.000009,-0.000117,-0.000013,0.000005,0.000002
5.000000,0.027703,2.998887,0.498253,0.000087,-0.005549,0.003936,0.000338,-0.004105,0.001131,0.002100,0.068047,-0.067519,0.007433,-7.613270,3.144420,1.000000,0.000716,0.000009,-0.000117,-0.000010,0.000009,0.000001
