time,x,y,z,vx,vy,vz,ax,ay,az,jx,jy,jz,sx,sy,sz,roll,pitch,yaw,p,q,r
0.000000,-2.839880,-2.175015,-1.447291,0.013133,-0.007862,-0.001844,-0.277178,0.140298,-0.028899,-10.402806,4.989695,-1.195370,314.654164,-168.681998,20.906175,0.014253,0.028164,0.000000,0.504681,1.052949,0.000000
0.010000,-2.839749,-2.175093,-1.447309,0.010361,-0.006459,-0.002133,-0.381206,0.190195,-0.040852,-7.256264,3.302875,-0.986308,703.588594,-346.632969,57.503840,0.019291,0.038678,0.000000,0.332436,0.731506,-0.000000
0.020000,-2.839673,-2.175144,-1.447333,0.005509,-0.004058,-0.002661,-0.422303,0.206356,-0.048625,3.668966,-1.942965,-0.045293,882.978855,-383.093739,76.759728,0.020909,0.042810,0.000000,-0.196579,-0.371592,0.000000
0.030000,-2.839639,-2.175174,-1.447362,0.001915,-0.002332,-0.003105,-0.307826,0.151336,-0.041758,10.403313,-4.359000,0.548887,241.170764,-16.156750,17.051271,0.015353,0.031236,0.000000,-0.440779,-1.053092,-0.000000
0.040000,-2.839635,-2.175190,-1.447395,-0.000648,-0.001031,-0.003496,-0.214237,0.119176,-0.037647,8.492381,-2.266100,0.295733,-174.346671,191.104810,-23.195735,0.012098,0.021752,0.000000,-0.229438,-0.861253,0.000000
0.050000,-2.839652,-2.175195,-1.447432,-0.002369,0.000052,-0.003858,-0.137979,0.106014,-0.035844,6.916380,-0.536904,0.084972,-142.850898,156.909266,-19.188705,0.010766,0.014013,0.000000,-0.054320,-0.702167,-0.000000
0.060000,-2.839682,-2.175189,-1.447472,-0.003407,0.001089,-0.004213,-0.075909,0.108438,-0.035948,5.635363,0.872086,-0.088041,-115.229097,126.927209,-15.632244,0.011013,0.007710,0.000000,0.088510,-0.572354,-0.000000
0.070000,-2.839720,-2.175173,-1.447516,-0.003888,0.002221,-0.004577,-0.025271,0.123455,-0.037605,4.611798,2.001640,-0.227673,-91.240409,100.885968,-12.498216,0.012536,0.002566,0.000000,0.202954,-0.468336,-0.000000
0.080000,-2.839760,-2.175145,-1.447564,-0.003913,0.003558,-0.004965,0.016327,0.148470,-0.040501,3.810555,2.889805,-0.338006,-70.643990,78.512858,-9.758493,0.015071,-0.001657,0.000000,0.292773,-0.386737,-0.000000
0.090000,-2.839798,-2.175102,-1.447616,-0.003561,0.005190,-0.005387,0.050940,0.181252,-0.044365,3.198918,3.571898,-0.422843,-53.198965,59.535219,-7.384931,0.018391,-0.005169,0.000000,0.361521,-0.324334,0.000000
0.100000,-2.839831,-2.175041,-1.447672,-0.002894,0.007183,-0.005852,0.080305,0.219908,-0.048958,2.746576,4.080510,-0.485704,-38.664452,43.680395,-5.349379,0.022301,-0.008145,0.000000,0.412520,-0.278098,-0.000000
0.110000,-2.839856,-2.174958,-1.447733,-0.001955,0.009588,-0.006366,0.105871,0.262862,-0.054079,2.425629,4.445506,-0.529830,-26.799615,30.675696,-3.623717,0.026641,-0.010733,0.000000,0.448830,-0.245213,0.000000
0.120000,-2.839870,-2.174849,-1.447799,-0.000776,0.012441,-0.006934,0.128818,0.308818,-0.059555,2.210584,4.694023,-0.558179,-17.363613,20.248447,-2.179817,0.031277,-0.013051,0.000000,0.473242,-0.223095,0.000000
0.130000,-2.839871,-2.174710,-1.447871,0.000621,0.015765,-0.007557,0.150083,0.356742,-0.065242,2.078357,4.850474,-0.573427,-10.115567,12.125991,-0.989527,0.036105,-0.015197,0.000000,0.488269,-0.209394,-0.000000
0.140000,-2.839858,-2.174534,-1.447950,0.002225,0.019575,-0.008239,0.170385,0.405828,-0.071023,2.008272,4.936543,-0.577969,-4.814583,6.035638,-0.024705,0.041042,-0.017242,0.000000,0.496142,-0.202006,-0.000000
0.150000,-2.839827,-2.174318,-1.448036,0.004029,0.023881,-0.008978,0.190248,0.455473,-0.076802,1.982065,4.971187,-0.573921,-1.219830,1.704730,0.742775,0.046028,-0.019240,0.000000,0.498809,-0.199074,-0.000000
0.160000,-2.839777,-2.174057,-1.448130,0.006030,0.028685,-0.009775,0.210026,0.505252,-0.082502,1.983876,4.970638,-0.563114,0.909510,-1.139390,1.341040,0.051018,-0.021228,0.000000,0.497931,-0.198986,0.000000
0.170000,-2.839706,-2.173744,-1.448232,0.008230,0.033986,-0.010628,0.229926,0.554886,-0.088064,2.000255,4.948399,-0.547100,1.843947,-2.809779,1.802707,0.055986,-0.023225,0.000000,0.494888,-0.200379,-0.000000
0.180000,-2.839612,-2.173377,-1.448342,0.010629,0.039783,-0.011536,0.250031,0.604220,-0.093444,2.020755,4.914442,-0.527060,2.341605,-4.284335,2.233938,0.060916,-0.025242,0.000000,0.490694,-0.202197,0.000000
0.190000,-2.839494,-2.172949,-1.448462,0.013230,0.046071,-0.012497,0.270341,0.653175,-0.098605,2.047087,4.862713,-0.502421,2.464444,-5.591853,2.635878,0.065800,-0.027277,0.000000,0.484759,-0.204617,0.000000
0.200000,-2.839348,-2.172455,-1.448592,0.016036,0.052846,-0.013508,0.290973,0.701474,-0.103492,2.070044,4.802605,-0.474342,-1.363398,-1.801107,2.460941,0.070611,-0.029343,0.000000,0.478037,-0.206711,0.000000
0.210000,-2.839173,-2.171892,-1.448733,0.019050,0.060100,-0.014567,0.311742,0.749227,-0.108092,2.019819,4.826691,-0.453202,-8.492104,6.257680,1.798949,0.075361,-0.031421,0.000000,0.479750,-0.201441,0.000000
0.220000,-2.838967,-2.171253,-1.448884,0.022270,0.067831,-0.015670,0.331370,0.798008,-0.112556,1.900201,4.927759,-0.438363,-7.730702,3.388614,2.328750,0.080206,-0.033383,0.000000,0.489125,-0.189206,-0.000000
0.230000,-2.838728,-2.170535,-1.449046,0.025677,0.076060,-0.016818,0.349746,0.847782,-0.116859,1.865205,4.894463,-0.406627,1.469151,-10.982464,4.106566,0.085144,-0.035218,0.000000,0.485156,-0.185546,0.000000
0.240000,-2.838453,-2.169732,-1.449220,0.029265,0.084786,-0.018007,0.368674,0.895897,-0.120689,1.929585,4.708110,-0.356232,4.117061,-16.401839,4.869318,0.089910,-0.037108,0.000000,0.466103,-0.191930,-0.000000
0.250000,-2.838142,-2.168839,-1.449406,0.033051,0.093978,-0.019232,0.388338,0.941944,-0.123984,1.947546,4.566426,-0.309241,-1.948289,-10.735964,4.417784,0.094466,-0.039072,0.000000,0.451602,-0.193667,-0.000000
0.260000,-2.837792,-2.167853,-1.449605,0.037032,0.103625,-0.020487,0.407625,0.987225,-0.126873,1.890619,4.493390,-0.267876,-6.312422,-8.035656,4.300260,0.098942,-0.040998,0.000000,0.443994,-0.187916,-0.000000
0.270000,-2.837402,-2.166767,-1.449816,0.041203,0.113723,-0.021769,0.426150,1.031812,-0.129341,1.821298,4.405713,-0.223236,-5.641847,-10.296327,4.624029,0.103346,-0.042849,0.000000,0.435035,-0.180973,-0.000000
0.280000,-2.836968,-2.165578,-1.450040,0.045555,0.124261,-0.023074,0.444051,1.075340,-0.131338,1.777782,4.287464,-0.175396,-3.368640,-12.701693,4.850974,0.107643,-0.044637,0.000000,0.423141,-0.176656,0.000000
0.290000,-2.836491,-2.164282,-1.450277,0.050084,0.135229,-0.024396,0.461706,1.117561,-0.132849,1.753925,4.151679,-0.126216,-3.015164,-13.865411,4.980719,0.111809,-0.046403,0.000000,0.409601,-0.174337,0.000000
0.300000,-2.835967,-2.162874,-1.450528,0.054789,0.146613,-0.025731,0.479129,1.158373,-0.133863,1.717479,4.010155,-0.075781,-4.546131,-14.408380,5.105281,0.115835,-0.048146,0.000000,0.395605,-0.170799,-0.000000
0.310000,-2.835395,-2.161350,-1.450792,0.059667,0.158397,-0.027073,0.496055,1.197764,-0.134365,1.663003,3.863512,-0.024111,-5.651216,-15.099573,5.204092,0.119722,-0.049842,0.000000,0.381221,-0.165502,0.000000
0.320000,-2.834773,-2.159706,-1.451069,0.064710,0.170568,-0.028418,0.512389,1.235644,-0.134345,1.604454,3.708164,0.028301,-5.687487,-15.821737,5.227980,0.123460,-0.051480,0.000000,0.366084,-0.159836,-0.000000
0.330000,-2.834101,-2.157938,-1.451360,0.069914,0.183110,-0.029760,0.528144,1.271928,-0.133799,1.549253,3.547077,0.080449,-5.416189,-16.312205,5.181336,0.127044,-0.053063,0.000000,0.350469,-0.154536,-0.000000
0.340000,-2.833375,-2.156043,-1.451665,0.075273,0.196006,-0.031094,0.543374,1.306585,-0.132736,1.496130,3.381920,0.131927,-5.494327,-16.801518,5.130144,0.130470,-0.054596,0.000000,0.334533,-0.149468,-0.000000
0.350000,-2.832595,-2.154018,-1.451982,0.080782,0.209242,-0.032415,0.558067,1.339566,-0.131160,1.439366,3.211046,0.183052,-5.888268,-17.368756,5.097259,0.133735,-0.056078,0.000000,0.318119,-0.144066,0.000000
0.360000,-2.831759,-2.151859,-1.452313,0.086435,0.222798,-0.033717,0.572161,1.370806,-0.129075,1.378365,3.034545,0.233873,-6.174682,-17.847592,5.037376,0.136832,-0.057503,0.000000,0.301232,-0.138269,0.000000
0.370000,-2.830866,-2.149562,-1.452656,0.092225,0.236658,-0.034996,0.585634,1.400257,-0.126483,1.315873,2.854095,0.283799,-6.269612,-18.165835,4.896859,0.139760,-0.058870,0.000000,0.284025,-0.132344,-0.000000
0.380000,-2.829915,-2.147125,-1.453013,0.098147,0.250803,-0.036247,0.598479,1.427888,-0.123399,1.252973,2.671228,0.331810,-6.316298,-18.381641,4.688665,0.142513,-0.060176,0.000000,0.266627,-0.126392,-0.000000
0.390000,-2.828903,-2.144546,-1.453381,0.104195,0.265215,-0.037464,0.610694,1.453681,-0.119847,1.189547,2.486462,0.377573,-6.391220,-18.582194,4.484790,0.145092,-0.061423,0.000000,0.249075,-0.120395,0.000000
0.400000,-2.827831,-2.141821,-1.453762,0.110361,0.279877,-0.038644,0.622270,1.477617,-0.115847,1.125148,2.299584,0.421506,-6.477104,-18.768541,4.304298,0.147495,-0.062610,0.000000,0.231348,-0.114309,0.000000
0.410000,-2.826696,-2.138948,-1.454154,0.116640,0.294768,-0.039781,0.633197,1.499673,-0.111417,1.060005,2.111091,0.463659,-6.528634,-18.887058,4.099781,0.149719,-0.063735,0.000000,0.213488,-0.108153,-0.000000
0.420000,-2.825498,-2.135926,-1.454558,0.123025,0.309870,-0.040872,0.643470,1.519839,-0.106574,0.994576,1.921843,0.503501,-6.556619,-18.937864,3.830167,0.151765,-0.064797,0.000000,0.195562,-0.101969,-0.000000
0.430000,-2.824236,-2.132751,-1.454972,0.129509,0.325165,-0.041913,0.653088,1.538110,-0.101347,0.928872,1.732334,0.540262,-6.578661,-18.943132,3.511714,0.153631,-0.065798,0.000000,0.177598,-0.095748,-0.000000
0.440000,-2.822908,-2.129422,-1.455396,0.136087,0.340632,-0.042899,0.662047,1.554486,-0.095769,0.863003,1.542980,0.573735,-6.577426,-18.902790,3.200443,0.155317,-0.066735,0.000000,0.159627,-0.089497,0.000000
0.450000,-2.821514,-2.125938,-1.455830,0.142750,0.356254,-0.043828,0.670348,1.568970,-0.089872,0.797324,1.354278,0.604271,-6.545197,-18.811952,2.906970,0.156823,-0.067610,0.000000,0.141691,-0.083251,0.000000
0.460000,-2.820053,-2.122297,-1.456272,0.149494,0.372012,-0.044696,0.677994,1.581571,-0.083683,0.732099,1.166741,0.631875,-6.495982,-18.675581,2.596591,0.158151,-0.068421,0.000000,0.123835,-0.077033,0.000000
0.470000,-2.818524,-2.118498,-1.456724,0.156310,0.387886,-0.045502,0.684990,1.592304,-0.077234,0.667404,0.980766,0.656203,-6.444575,-18.508428,2.251231,0.159300,-0.069170,0.000000,0.106084,-0.070847,0.000000
0.480000,-2.816927,-2.114540,-1.457182,0.163194,0.403858,-0.046241,0.691342,1.601186,-0.070559,0.603207,0.796573,0.676899,-6.387611,-18.312623,1.885419,0.160272,-0.069856,0.000000,0.088446,-0.064683,-0.000000
0.490000,-2.815260,-2.110421,-1.457648,0.170137,0.419909,-0.046913,0.697054,1.608236,-0.063696,0.539652,0.614514,0.693911,-6.307483,-18.073335,1.525672,0.161069,-0.070480,0.000000,0.070948,-0.058553,-0.000000
0.500000,-2.813524,-2.106142,-1.458121,0.177135,0.436022,-0.047515,0.702135,1.613477,-0.056681,0.477057,0.435106,0.707413,-6.202435,-17.788112,1.172366,0.161691,-0.071042,0.000000,0.053638,-0.052489,-0.000000
0.510000,-2.811718,-2.101701,-1.458599,0.184180,0.452179,-0.048046,0.706595,1.616938,-0.049548,0.415603,0.258752,0.717358,-6.085281,-17.470849,0.811975,0.162142,-0.071544,0.000000,0.036548,-0.046506,-0.000000
0.520000,-2.809840,-2.097098,-1.459082,0.191267,0.468361,-0.048506,0.710447,1.618652,-0.042334,0.355352,0.085689,0.723652,-5.961070,-17.133654,0.452671,0.162422,-0.071985,0.000000,0.019696,-0.040609,0.000000
0.530000,-2.807892,-2.092333,-1.459569,0.198389,0.484552,-0.048893,0.713702,1.618652,-0.035075,0.296382,-0.083922,0.726412,-5.825984,-16.775139,0.103872,0.162535,-0.072367,0.000000,0.003095,-0.034803,-0.000000
0.540000,-2.805873,-2.087407,-1.460060,0.205541,0.500734,-0.049207,0.716375,1.616973,-0.027806,0.238832,-0.249814,0.725730,-5.675398,-16.384530,-0.241996,0.162484,-0.072690,0.000000,-0.013230,-0.029104,-0.000000
0.550000,-2.803781,-2.082319,-1.460553,0.212716,0.516891,-0.049449,0.718479,1.613656,-0.020560,0.182874,-0.411612,0.721572,-5.511215,-15.960904,-0.594310,0.162271,-0.072957,0.000000,-0.029244,-0.023527,-0.000000
0.560000,-2.801618,-2.077069,-1.461049,0.219910,0.533007,-0.049619,0.720032,1.608741,-0.013374,0.128608,-0.569032,0.713844,-5.337096,-15.514920,-0.943123,0.161899,-0.073167,0.000000,-0.044924,-0.018080,-0.000000
0.570000,-2.799383,-2.071659,-1.461545,0.227117,0.549066,-0.049717,0.721051,1.602275,-0.006284,0.076132,-0.721911,0.702709,-5.149774,-15.055843,-1.256859,0.161372,-0.073323,0.000000,-0.060249,-0.012776,-0.000000
0.580000,-2.797076,-2.066088,-1.462043,0.234331,0.565053,-0.049744,0.721555,1.594303,0.000680,0.025612,-0.870149,0.688706,-4.948101,-14.583190,-1.532996,0.160694,-0.073426,0.000000,-0.075203,-0.007634,0.000000
0.590000,-2.794697,-2.060357,-1.462540,0.241548,0.580952,-0.049703,0.721563,1.584872,0.007491,-0.022830,-1.013574,0.672049,-4.738144,-14.089410,-1.809881,0.159868,-0.073478,0.000000,-0.089764,-0.002669,0.000000
0.600000,-2.792245,-2.054469,-1.463037,0.248763,0.596750,-0.049595,0.721098,1.574031,0.014121,-0.069151,-1.151937,0.652509,-4.523514,-13.573217,-2.104193,0.158898,-0.073480,0.000000,-0.103909,0.002117,0.000000
0.610000,-2.789721,-2.048422,-1.463532,0.255970,0.612433,-0.049421,0.720180,1.561833,0.020541,-0.113300,-1.285039,0.629966,-4.300581,-13.042995,-2.385629,0.157790,-0.073435,0.000000,-0.117617,0.006718,-0.000000
0.620000,-2.787126,-2.042220,-1.464025,0.263166,0.627987,-0.049184,0.718832,1.548331,0.026720,-0.155162,-1.412797,0.604796,-4.062331,-12.508878,-2.606517,0.156546,-0.073344,0.000000,-0.130873,0.011119,-0.000000
0.630000,-2.784458,-2.035863,-1.464516,0.270347,0.643400,-0.048886,0.717077,1.533577,0.032637,-0.194547,-1.535216,0.577835,-3.810140,-11.971225,-2.771291,0.155172,-0.073209,0.000000,-0.143659,0.015294,0.000000
0.640000,-2.781719,-2.029352,-1.465003,0.277508,0.658658,-0.048531,0.714941,1.517626,0.038277,-0.231365,-1.652221,0.549370,-3.554793,-11.420732,-2.939949,0.153673,-0.073034,0.000000,-0.155961,0.019230,0.000000
0.650000,-2.778908,-2.022690,-1.465486,0.284645,0.673752,-0.048121,0.712450,1.500533,0.043624,-0.265643,-1.763631,0.519036,-3.300123,-10.854198,-3.132943,0.152053,-0.072820,0.000000,-0.167761,0.022932,-0.000000
0.660000,-2.776026,-2.015877,-1.465965,0.291757,0.688669,-0.047659,0.709628,1.482354,0.048658,-0.297367,-1.869305,0.486712,-3.039581,-10.281094,-3.306547,0.150317,-0.072570,0.000000,-0.179044,0.026397,-0.000000
0.670000,-2.773073,-2.008916,-1.466440,0.298838,0.703399,-0.047148,0.706503,1.463147,0.053358,-0.326435,-1.969253,0.452905,-2.766191,-9.715872,-3.406569,0.148472,-0.072286,0.000000,-0.189796,0.029610,-0.000000
0.680000,-2.770049,-2.001809,-1.466908,0.305887,0.717932,-0.046591,0.703100,1.442969,0.057716,-0.352691,-2.063623,0.418580,-2.482703,-9.158711,-3.442985,0.146521,-0.071971,0.000000,-0.200016,0.032547,0.000000
0.690000,-2.766955,-1.994558,-1.467371,0.312900,0.732259,-0.045993,0.699449,1.421874,0.061730,-0.376089,-2.152427,0.384046,-2.199629,-8.594086,-3.485303,0.144472,-0.071628,0.000000,-0.209693,0.035200,0.000000
0.700000,-2.763791,-1.987164,-1.467828,0.319876,0.746370,-0.045357,0.695578,1.399920,0.065397,-0.396684,-2.235504,0.348874,-1.919531,-8.016324,-3.553978,0.142328,-0.071260,0.000000,-0.218816,0.037575,0.000000
0.710000,-2.760557,-1.979630,-1.468279,0.326812,0.760257,-0.044685,0.691515,1.377164,0.068707,-0.414479,-2.312753,0.312966,-1.636502,-7.438894,-3.600452,0.140095,-0.070869,0.000000,-0.227368,0.039674,0.000000
0.720000,-2.757255,-1.971959,-1.468722,0.333706,0.773913,-0.043983,0.687288,1.353665,0.071656,-0.429414,-2.384282,0.276865,-1.346962,-6.881494,-3.573841,0.137780,-0.070459,0.000000,-0.235350,0.041483,-0.000000
0.730000,-2.753883,-1.964152,-1.469158,0.340557,0.787330,-0.043252,0.682927,1.329479,0.074245,-0.441418,-2.450383,0.241489,-1.053827,-6.342982,-3.487546,0.135388,-0.070032,0.000000,-0.242774,0.042989,0.000000
0.740000,-2.750444,-1.956212,-1.469587,0.347365,0.800502,-0.042498,0.678460,1.304657,0.076486,-0.450490,-2.511142,0.207114,-0.763251,-5.800373,-3.407839,0.132925,-0.069591,0.000000,-0.249641,0.044189,-0.000000
0.750000,-2.746936,-1.948142,-1.470008,0.354127,0.813423,-0.041723,0.673917,1.279256,0.078387,-0.456683,-2.566391,0.173332,-0.475990,-5.245958,-3.351693,0.130395,-0.069140,0.000000,-0.255937,0.045090,0.000000
0.760000,-2.743361,-1.939944,-1.470421,0.360843,0.826088,-0.040930,0.669326,1.253330,0.079952,-0.460010,-2.616061,0.140080,-0.189280,-4.697858,-3.274494,0.127806,-0.068681,0.000000,-0.261652,0.045693,-0.000000
0.770000,-2.739719,-1.931620,-1.470827,0.367513,0.838490,-0.040123,0.664717,1.226935,0.081189,-0.460469,-2.660348,0.107843,0.095637,-4.179544,-3.136901,0.125162,-0.068219,0.000000,-0.266798,0.045994,0.000000
0.780000,-2.736011,-1.923174,-1.471224,0.374137,0.850626,-0.039306,0.660117,1.200123,0.082109,-0.458097,-2.699652,0.077342,0.376439,-3.688018,-2.953079,0.122470,-0.067754,0.000000,-0.271402,0.045991,0.000000
0.790000,-2.732236,-1.914608,-1.471613,0.380715,0.862492,-0.038481,0.655555,1.172941,0.082735,-0.452940,-2.734108,0.048781,0.653336,-3.194790,-2.775307,0.119734,-0.067292,0.000000,-0.275477,0.045688,0.000000
0.800000,-2.728396,-1.905924,-1.471994,0.387248,0.874085,-0.037652,0.651058,1.145440,0.083085,-0.445031,-2.763548,0.021836,0.927585,-2.691325,-2.614681,0.116961,-0.066834,0.000000,-0.279007,0.045089,-0.000000
0.810000,-2.724491,-1.897126,-1.472366,0.393737,0.885401,-0.036820,0.646654,1.117671,0.083172,-0.434389,-2.787935,-0.003513,1.197502,-2.198861,-2.437598,0.114154,-0.066384,0.000000,-0.281987,0.044197,0.000000
0.820000,-2.720522,-1.888216,-1.472730,0.400181,0.896438,-0.035988,0.642370,1.089682,0.083015,-0.421081,-2.807525,-0.026916,1.457114,-1.741445,-2.221536,0.111321,-0.065944,0.000000,-0.284441,0.043016,0.000000
0.830000,-2.716488,-1.879197,-1.473086,0.406584,0.907195,-0.035159,0.638233,1.061520,0.082634,-0.405246,-2.822764,-0.047943,1.705379,-1.314387,-1.979002,0.108466,-0.065518,0.000000,-0.286407,0.041558,0.000000
0.840000,-2.712390,-1.870072,-1.473433,0.412946,0.917669,-0.034335,0.634265,1.033226,0.082056,-0.386973,-2.833813,-0.066496,1.948682,-0.887816,-1.741187,0.105593,-0.065108,0.000000,-0.287903,0.039832,0.000000
0.850000,-2.708229,-1.860844,-1.473772,0.419269,0.927859,-0.033518,0.630493,1.004844,0.081304,-0.366273,-2.840520,-0.082767,2.189872,-0.454029,-1.512098,0.102708,-0.064717,0.000000,-0.288916,0.037840,-0.000000
0.860000,-2.704005,-1.851515,-1.474104,0.425556,0.937766,-0.032709,0.626940,0.976416,0.080400,-0.343176,-2.842893,-0.096738,2.423196,-0.034543,-1.273504,0.099815,-0.064347,0.000000,-0.289447,0.035585,0.000000
0.870000,-2.699718,-1.842088,-1.474427,0.431808,0.947388,-0.031910,0.623630,0.947986,0.079369,-0.317809,-2.841211,-0.108237,2.639072,0.350068,-1.021646,0.096919,-0.064002,0.000000,-0.289526,0.033081,0.000000
0.880000,-2.695369,-1.832567,-1.474742,0.438028,0.956725,-0.031122,0.620584,0.919592,0.078236,-0.290394,-2.835892,-0.117171,2.837781,0.705452,-0.765490,0.094024,-0.063683,0.000000,-0.289195,0.030349,-0.000000
0.890000,-2.690957,-1.822954,-1.475049,0.444220,0.965780,-0.030345,0.617822,0.891268,0.077026,-0.261053,-2.827102,-0.123547,3.030553,1.057472,-0.512264,0.091135,-0.063392,0.000000,-0.288474,0.027402,-0.000000
0.900000,-2.686484,-1.813252,-1.475349,0.450385,0.974551,-0.029581,0.615363,0.863050,0.075765,-0.229783,-2.814742,-0.127416,3.221189,1.411941,-0.259118,0.088255,-0.063132,0.000000,-0.287355,0.024241,-0.000000
0.910000,-2.681950,-1.803463,-1.475641,0.456527,0.983041,-0.028830,0.613226,0.834973,0.074477,-0.196629,-2.798863,-0.128729,3.400843,1.750809,-0.004583,0.085388,-0.062905,0.000000,-0.285846,0.020871,0.000000
0.920000,-2.677354,-1.793591,-1.475925,0.462649,0.991250,-0.028092,0.611430,0.807073,0.073190,-0.161766,-2.779726,-0.127508,3.558124,2.059435,0.237893,0.082538,-0.062713,0.000000,-0.283975,0.017309,-0.000000
0.930000,-2.672697,-1.783638,-1.476203,0.468756,0.999182,-0.027366,0.609991,0.779379,0.071927,-0.125467,-2.757674,-0.123972,3.694531,2.343186,0.463965,0.079708,-0.062558,0.000000,-0.281782,0.013585,0.000000
0.940000,-2.667978,-1.773607,-1.476473,0.474849,1.006838,-0.026653,0.608921,0.751919,0.070711,-0.087876,-2.732862,-0.118228,3.823885,2.620497,0.688781,0.076902,-0.062441,0.000000,-0.279285,0.009715,0.000000
0.950000,-2.663200,-1.763501,-1.476736,0.480934,1.014220,-0.025952,0.608233,0.724721,0.069563,-0.048989,-2.705264,-0.110196,3.950366,2.894507,0.920916,0.074123,-0.062363,0.000000,-0.276484,0.005698,0.000000
0.960000,-2.658360,-1.753323,-1.476992,0.487014,1.021332,-0.025262,0.607941,0.697814,0.068507,-0.008868,-2.674972,-0.099810,4.063686,3.152826,1.146733,0.071373,-0.062327,0.000000,-0.273391,0.001540,0.000000
0.970000,-2.653459,-1.743074,-1.477241,0.493093,1.028177,-0.024582,0.608056,0.671222,0.067566,0.032285,-2.642208,-0.087261,4.152034,3.388202,1.339392,0.068655,-0.062332,0.000000,-0.270030,-0.002738,-0.000000
0.980000,-2.648498,-1.732759,-1.477483,0.499175,1.034757,-0.023911,0.608587,0.644970,0.066761,0.074172,-2.607208,-0.073022,4.217631,3.604834,1.499281,0.065972,-0.062381,0.000000,-0.266433,-0.007101,-0.000000
0.990000,-2.643476,-1.722379,-1.477719,0.505265,1.041076,-0.023247,0.609539,0.619078,0.066106,0.116637,-2.570111,-0.057276,4.275157,3.811889,1.659310,0.063326,-0.062475,0.000000,-0.262614,-0.011534,0.000000
1.000000,-2.638393,-1.711938,-1.477948,0.511366,1.047138,-0.022589,0.610919,0.593567,0.065616,0.159675,-2.530971,-0.039836,4.328849,4.009939,1.831957,0.060720,-0.062613,0.000000,-0.258581,-0.016037,-0.000000
1.010000,-2.633248,-1.701437,-1.478171,0.517483,1.052947,-0.021934,0.612733,0.568458,0.065309,0.203214,-2.489912,-0.020636,4.368187,4.193217,1.992113,0.058155,-0.062796,0.000000,-0.254348,-0.020604,0.000000
1.020000,-2.628043,-1.690879,-1.478387,0.523620,1.058507,-0.021282,0.614984,0.543769,0.065203,0.247039,-2.447106,0.000006,4.381827,4.361089,2.104859,0.055633,-0.063025,0.000000,-0.249934,-0.025211,0.000000
1.030000,-2.622776,-1.680266,-1.478596,0.529783,1.063823,-0.020630,0.617674,0.519516,0.065309,0.290851,-2.402691,0.021461,4.372315,4.516009,2.174757,0.053156,-0.063301,0.000000,-0.245359,-0.029825,0.000000
1.040000,-2.617447,-1.669602,-1.478799,0.535974,1.068898,-0.019976,0.620801,0.495715,0.065632,0.334486,-2.356786,0.043501,4.354105,4.658759,2.245855,0.050726,-0.063623,0.000000,-0.240637,-0.034426,-0.000000
1.050000,-2.612057,-1.658888,-1.478996,0.542199,1.073737,-0.019318,0.624363,0.472381,0.066179,0.377933,-2.309515,0.066378,4.331408,4.788122,2.332391,0.048343,-0.063990,0.000000,-0.235778,-0.039017,-0.000000
1.060000,-2.606603,-1.648127,-1.479186,0.548461,1.078345,-0.018653,0.628359,0.449525,0.066960,0.421114,-2.261024,0.090149,4.294134,4.904137,2.402627,0.046010,-0.064404,0.000000,-0.230799,-0.043591,-0.000000
1.070000,-2.601087,-1.637322,-1.479369,0.554766,1.082728,-0.017979,0.632786,0.427160,0.067982,0.463815,-2.211433,0.114430,4.231703,5.010419,2.419311,0.043727,-0.064863,0.000000,-0.225713,-0.048123,0.000000
1.080000,-2.595508,-1.626473,-1.479545,0.561117,1.086889,-0.017293,0.637636,0.405296,0.069249,0.505748,-2.160815,0.138535,4.146822,5.107576,2.390115,0.041496,-0.065367,0.000000,-0.220531,-0.052581,0.000000
1.090000,-2.589865,-1.615584,-1.479715,0.567519,1.090834,-0.016594,0.642901,0.383944,0.070753,0.546752,-2.109281,0.162233,4.053302,5.191063,2.362909,0.039316,-0.065916,0.000000,-0.215265,-0.056946,0.000000
1.100000,-2.584158,-1.604656,-1.479877,0.573975,1.094567,-0.015878,0.648571,0.363111,0.072493,0.586814,-2.056994,0.185794,3.955300,5.258996,2.351540,0.037190,-0.066507,0.000000,-0.209929,-0.061220,0.000000
1.110000,-2.578386,-1.593692,-1.480032,0.580490,1.098096,-0.015144,0.654637,0.342804,0.074469,0.625858,-2.004101,0.209263,3.843478,5.314911,2.322845,0.035118,-0.067141,0.000000,-0.204537,-0.065395,-0.000000
1.120000,-2.572548,-1.582694,-1.480180,0.587068,1.101424,-0.014389,0.661088,0.323029,0.076679,0.663683,-1.950696,0.232251,3.707860,5.363883,2.242589,0.033100,-0.067816,0.000000,-0.199101,-0.069449,-0.000000
1.130000,-2.566644,-1.571664,-1.480320,0.593712,1.104556,-0.013610,0.667910,0.303790,0.079114,0.700015,-1.896824,0.254115,3.551160,5.405138,2.120088,0.031136,-0.068531,0.000000,-0.193626,-0.073349,-0.000000
1.140000,-2.560674,-1.560603,-1.480452,0.600426,1.107499,-0.012806,0.675088,0.285092,0.081761,0.734707,-1.842593,0.274652,3.386808,5.432331,2.000189,0.029227,-0.069284,0.000000,-0.188122,-0.077078,-0.000000
1.150000,-2.554636,-1.549514,-1.480576,0.607214,1.110258,-0.011975,0.682605,0.266938,0.084607,0.767751,-1.788177,0.294119,3.218855,5.444557,1.894588,0.027373,-0.070073,0.000000,-0.182606,-0.080638,-0.000000
1.160000,-2.548529,-1.538398,-1.480692,0.614078,1.112838,-0.011114,0.690443,0.249329,0.087643,0.799084,-1.733702,0.312544,3.038501,5.446319,1.773303,0.025575,-0.070897,0.000000,-0.177088,-0.084022,-0.000000
1.170000,-2.542354,-1.527257,-1.480799,0.621022,1.115245,-0.010222,0.698586,0.232264,0.090858,0.828521,-1.679251,0.329585,2.836709,5.439705,1.609507,0.023832,-0.071754,0.000000,-0.171577,-0.087208,0.000000
1.180000,-2.536109,-1.516093,-1.480896,0.628050,1.117483,-0.009297,0.707014,0.215744,0.094235,0.855818,-1.624908,0.344734,2.616271,5.423290,1.412793,0.022143,-0.072642,0.000000,-0.166081,-0.090168,0.000000
1.190000,-2.529793,-1.504908,-1.480985,0.635163,1.119560,-0.008337,0.715703,0.199766,0.097753,0.880847,-1.570785,0.357841,2.389714,5.394838,1.219104,0.020510,-0.073558,0.000000,-0.160612,-0.092885,-0.000000
1.200000,-2.523406,-1.493702,-1.481063,0.642364,1.121479,-0.007342,0.724631,0.184328,0.101392,0.903612,-1.517011,0.369116,2.161060,5.354737,1.036659,0.018931,-0.074500,0.000000,-0.155180,-0.095363,0.000000
1.210000,-2.516946,-1.482478,-1.481131,0.649655,1.123246,-0.006310,0.733775,0.169426,0.105135,0.924068,-1.463690,0.378574,1.922408,5.304534,0.842556,0.017406,-0.075465,0.000000,-0.149795,-0.097594,-0.000000
1.220000,-2.510413,-1.471237,-1.481189,0.657039,1.124867,-0.005239,0.743112,0.155054,0.108963,0.942060,-1.410920,0.385967,1.665203,5.243467,0.620187,0.015935,-0.076452,0.000000,-0.144466,-0.099560,0.000000
1.230000,-2.503805,-1.459981,-1.481236,0.664517,1.126347,-0.004130,0.752616,0.141207,0.112854,0.957372,-1.358821,0.390978,1.392182,5.170824,0.378100,0.014517,-0.077457,0.000000,-0.139205,-0.101236,-0.000000
1.240000,-2.497122,-1.448710,-1.481272,0.672092,1.127691,-0.002982,0.762259,0.127878,0.116783,0.969904,-1.307504,0.393529,1.115619,5.088042,0.139511,0.013151,-0.078477,0.000000,-0.134022,-0.102609,-0.000000
1.250000,-2.490363,-1.437427,-1.481296,0.679763,1.128905,-0.001795,0.772014,0.115057,0.120725,0.979684,-1.257060,0.393768,0.839247,4.997144,-0.091826,0.011837,-0.079509,0.000000,-0.128926,-0.103683,-0.000000
1.260000,-2.483527,-1.426132,-1.481308,0.687532,1.129993,-0.000568,0.781853,0.102737,0.124658,0.986689,-1.207561,0.391693,0.555588,4.897122,-0.329437,0.010573,-0.080551,0.000000,-0.123923,-0.104453,-0.000000
1.270000,-2.476613,-1.414827,-1.481307,0.695400,1.130960,0.000699,0.791748,0.090906,0.128559,0.990796,-1.159117,0.387179,0.257515,4.782943,-0.577920,0.009358,-0.081598,0.000000,-0.119023,-0.104904,-0.000000
1.280000,-2.469619,-1.403513,-1.481294,0.703367,1.131811,0.002004,0.801669,0.079554,0.132402,0.991839,-1.111902,0.380134,-0.052001,4.654460,-0.830760,0.008192,-0.082649,0.000000,-0.114244,-0.105018,0.000000
1.290000,-2.462545,-1.392191,-1.481267,0.711433,1.132551,0.003347,0.811585,0.068668,0.136161,0.989756,-1.066028,0.370564,-0.362333,4.518878,-1.079961,0.007073,-0.083699,0.000000,-0.109597,-0.104786,-0.000000
1.300000,-2.455390,-1.380862,-1.481227,0.719598,1.133184,0.004727,0.821464,0.058234,0.139813,0.984592,-1.021524,0.358535,-0.670679,4.380286,-1.326390,0.006000,-0.084745,0.000000,-0.105084,-0.104213,0.000000
1.310000,-2.448153,-1.369527,-1.481173,0.727862,1.133715,0.006143,0.831277,0.048238,0.143332,0.976342,-0.978422,0.344036,-0.983104,4.233795,-1.572884,0.004972,-0.085783,0.000000,-0.100709,-0.103296,-0.000000
1.320000,-2.440833,-1.358187,-1.481104,0.736224,1.134149,0.007593,0.840991,0.038665,0.146694,0.964930,-0.936849,0.327078,-1.303964,4.069573,-1.812239,0.003986,-0.086811,0.000000,-0.096483,-0.102027,-0.000000
1.330000,-2.433429,-1.346844,-1.481021,0.744682,1.134489,0.009077,0.850575,0.029501,0.149874,0.950263,-0.897031,0.307792,-1.630422,3.888763,-2.040711,0.003042,-0.087824,0.000000,-0.092430,-0.100396,0.000000
1.340000,-2.425939,-1.335498,-1.480922,0.753236,1.134739,0.010591,0.859996,0.020725,0.152850,0.932322,-0.859073,0.286263,-1.955304,3.705088,-2.265654,0.002138,-0.088818,0.000000,-0.088562,-0.098401,-0.000000
1.350000,-2.418364,-1.324149,-1.480809,0.761882,1.134903,0.012134,0.869222,0.012319,0.155599,0.911157,-0.822929,0.262479,-2.276924,3.523322,-2.492196,0.001271,-0.089792,0.000000,-0.084872,-0.096047,-0.000000
1.360000,-2.410702,-1.312800,-1.480680,0.770620,1.134985,0.013703,0.878219,0.004266,0.158099,0.886783,-0.788607,0.236419,-2.598804,3.334418,-2.712705,0.000440,-0.090739,0.000000,-0.081362,-0.093333,-0.000000
1.370000,-2.402952,-1.301450,-1.480535,0.779447,1.134988,0.015296,0.886957,-0.003453,0.160327,0.859181,-0.756241,0.208224,-2.922285,3.128026,-2.909883,-0.000356,-0.091658,0.000000,-0.078045,-0.090258,-0.000000
1.380000,-2.395113,-1.290100,-1.480374,0.788359,1.134916,0.016909,0.895403,-0.010859,0.162264,0.828338,-0.726046,0.178222,-3.245055,2.906991,-3.083135,-0.001121,-0.092545,0.000000,-0.074945,-0.086825,-0.000000
1.390000,-2.387184,-1.278751,-1.480197,0.797355,1.134771,0.018541,0.903524,-0.017974,0.163892,0.794280,-0.698101,0.146562,-3.563756,2.685720,-3.253181,-0.001855,-0.093395,0.000000,-0.072069,-0.083037,-0.000000
1.400000,-2.379166,-1.267404,-1.480003,0.806430,1.134557,0.020187,0.911289,-0.024821,0.165195,0.757063,-0.672332,0.113158,-3.878052,2.468656,-3.428428,-0.002562,-0.094205,0.000000,-0.069411,-0.078898,0.000000
1.410000,-2.371056,-1.256060,-1.479793,0.815580,1.134275,0.021845,0.918665,-0.031421,0.166155,0.716719,-0.648728,0.077993,-4.188725,2.246666,-3.592481,-0.003243,-0.094973,0.000000,-0.066968,-0.074414,0.000000
1.420000,-2.362854,-1.244719,-1.479566,0.824803,1.133928,0.023510,0.925623,-0.037795,0.166755,0.673288,-0.627399,0.041309,-4.493610,2.010483,-3.720922,-0.003901,-0.095693,0.000000,-0.064753,-0.069589,-0.000000
1.430000,-2.354560,-1.233382,-1.479323,0.834093,1.133519,0.025180,0.932131,-0.043969,0.166981,0.626847,-0.608518,0.003575,-4.790902,1.763390,-3.816204,-0.004538,-0.096364,0.000000,-0.062784,-0.064438,0.000000
1.440000,-2.346172,-1.222049,-1.479063,0.843446,1.133049,0.026850,0.938160,-0.049966,0.166826,0.577470,-0.592131,-0.035016,-5.081799,1.518664,-3.908759,-0.005157,-0.096982,0.000000,-0.061066,-0.058972,0.000000
1.450000,-2.337691,-1.210721,-1.478786,0.852856,1.132520,0.028516,0.943680,-0.055811,0.166281,0.525211,-0.578145,-0.074600,-5.368524,1.279627,-4.008881,-0.005760,-0.097544,0.000000,-0.059589,-0.053194,0.000000
1.460000,-2.329115,-1.199398,-1.478492,0.862319,1.131933,0.030176,0.948664,-0.061529,0.165334,0.470100,-0.566538,-0.115193,-5.648719,1.038238,-4.094214,-0.006349,-0.098046,0.000000,-0.058351,-0.047110,0.000000
1.470000,-2.320445,-1.188082,-1.478182,0.871829,1.131289,0.031823,0.953082,-0.067142,0.163977,0.412236,-0.557380,-0.156485,-5.913566,0.788757,-4.137013,-0.006927,-0.098486,0.000000,-0.057360,-0.040735,0.000000
1.480000,-2.311679,-1.176772,-1.477856,0.881381,1.130590,0.033455,0.956909,-0.072676,0.162205,0.351828,-0.550763,-0.197933,-6.162085,0.534633,-4.142226,-0.007496,-0.098861,0.000000,-0.056626,-0.034096,-0.000000
1.490000,-2.302817,-1.165470,-1.477513,0.890967,1.129835,0.035067,0.960119,-0.078157,0.160018,0.288995,-0.546688,-0.239329,-6.404467,0.284657,-4.145231,-0.008059,-0.099168,0.000000,-0.056148,-0.027210,0.000000
1.500000,-2.293859,-1.154176,-1.477154,0.900583,1.129027,0.036655,0.962689,-0.083610,0.157418,0.223739,-0.545070,-0.280838,-6.644359,0.040225,-4.156650,-0.008619,-0.099405,0.000000,-0.055918,-0.020077,0.000000
1.510000,-2.284805,-1.142890,-1.476780,0.910221,1.128163,0.038216,0.964594,-0.089059,0.154402,0.156107,-0.545883,-0.322462,-6.873458,-0.203333,-4.151584,-0.009178,-0.099570,0.000000,-0.055933,-0.012704,0.000000
1.520000,-2.275655,-1.131612,-1.476390,0.919875,1.127245,0.039744,0.965811,-0.094528,0.150969,0.086270,-0.549137,-0.363870,-7.080574,-0.446584,-4.103135,-0.009738,-0.099659,0.000000,-0.056193,-0.005113,0.000000
1.530000,-2.266408,-1.120345,-1.475985,0.929537,1.126273,0.041235,0.966319,-0.100041,0.147124,0.014496,-0.554815,-0.404525,-7.266883,-0.686710,-4.017930,-0.010301,-0.099672,0.000000,-0.056698,0.002660,-0.000000
1.540000,-2.257064,-1.109087,-1.475565,0.939201,1.125245,0.042686,0.966101,-0.105624,0.142878,-0.059068,-0.562871,-0.444228,-7.445750,-0.921680,-3.930876,-0.010872,-0.099606,0.000000,-0.057442,0.010596,-0.000000
1.550000,-2.247624,-1.097840,-1.475131,0.948859,1.124160,0.044093,0.965138,-0.111299,0.138240,-0.134419,-0.573248,-0.483143,-7.620914,-1.152413,-3.851371,-0.011450,-0.099460,0.000000,-0.058419,0.018696,0.000000
1.560000,-2.238087,-1.086604,-1.474684,0.958504,1.123019,0.045451,0.963412,-0.117089,0.133215,-0.211486,-0.585919,-0.521256,-7.782203,-1.378800,-3.755715,-0.012040,-0.099232,0.000000,-0.059626,0.026949,0.000000
1.570000,-2.228454,-1.075379,-1.474222,0.968128,1.121818,0.046757,0.960908,-0.123017,0.127814,-0.290063,-0.600824,-0.558257,-7.918734,-1.595658,-3.621617,-0.012643,-0.098921,0.000000,-0.061057,0.035330,0.000000
1.580000,-2.218724,-1.064167,-1.473748,0.977722,1.120558,0.048007,0.957611,-0.129105,0.122050,-0.369861,-0.617832,-0.593688,-8.032394,-1.801449,-3.456279,-0.013261,-0.098526,0.000000,-0.062698,0.043803,0.000000
1.590000,-2.208899,-1.052968,-1.473262,0.987280,1.119236,0.049198,0.953511,-0.135374,0.115941,-0.450711,-0.636853,-0.627382,-8.136362,-2.001695,-3.289236,-0.013897,-0.098045,0.000000,-0.064539,0.052348,0.000000
1.600000,-2.198979,-1.041783,-1.472764,0.996793,1.117851,0.050326,0.948597,-0.141842,0.109503,-0.532588,-0.657866,-0.659473,-8.235784,-2.199192,-3.127530,-0.014552,-0.097479,0.000000,-0.066579,0.060962,0.000000
1.610000,-2.188963,-1.030611,-1.472256,1.006252,1.116400,0.051388,0.942859,-0.148531,0.102751,-0.615427,-0.680837,-0.689933,-8.320807,-2.388745,-2.951890,-0.015228,-0.096826,0.000000,-0.068813,0.069637,-0.000000
1.620000,-2.178854,-1.019455,-1.471737,1.015650,1.114880,0.052381,0.936288,-0.155459,0.095704,-0.699004,-0.705641,-0.718511,-8.376803,-2.560949,-2.747174,-0.015928,-0.096086,0.000000,-0.071228,0.078347,0.000000
1.630000,-2.168650,-1.008314,-1.471208,1.024978,1.113290,0.053302,0.928879,-0.162644,0.088381,-0.782963,-0.732056,-0.744876,-8.405727,-2.715792,-2.520125,-0.016653,-0.095259,0.000000,-0.073802,0.087052,0.000000
1.640000,-2.158354,-0.997189,-1.470671,1.034227,1.111627,0.054149,0.920629,-0.170100,0.080806,-0.867119,-0.759957,-0.768913,-8.426357,-2.864412,-2.291460,-0.017404,-0.094345,0.000000,-0.076523,0.095732,-0.000000
1.650000,-2.147966,-0.986081,-1.470125,1.043390,1.109888,0.054918,0.911537,-0.177843,0.073003,-0.951490,-0.789344,-0.790706,-8.444120,-3.011579,-2.065133,-0.018183,-0.093344,0.000000,-0.079388,0.104389,0.000000
1.660000,-2.137486,-0.974991,-1.469572,1.052458,1.108070,0.055609,0.901599,-0.185887,0.064992,-1.036001,-0.820189,-0.810216,-8.445773,-3.148433,-1.828500,-0.018992,-0.092256,0.000000,-0.082397,0.113015,0.000000
1.670000,-2.126917,-0.963920,-1.469013,1.061422,1.106171,0.056218,0.890817,-0.194247,0.056798,-1.120405,-0.852313,-0.827276,-8.417876,-3.260891,-1.574880,-0.019831,-0.091083,0.000000,-0.085530,0.121584,0.000000
1.680000,-2.116258,-0.952868,-1.468448,1.070274,1.104186,0.056745,0.879191,-0.202933,0.048447,-1.204359,-0.885406,-0.841713,-8.364092,-3.350257,-1.309659,-0.020702,-0.089824,0.000000,-0.088757,0.130061,0.000000
1.690000,-2.105511,-0.941836,-1.467878,1.079006,1.102112,0.057187,0.866729,-0.211955,0.039964,-1.287687,-0.919318,-0.853469,-8.301745,-3.434128,-1.042965,-0.021606,-0.088481,0.000000,-0.092062,0.138427,0.000000
1.700000,-2.094678,-0.930825,-1.467304,1.087609,1.099946,0.057544,0.853438,-0.221320,0.031377,-1.370394,-0.954089,-0.862573,-8.234746,-3.517921,-0.775456,-0.022544,-0.087055,0.000000,-0.095451,0.146686,-0.000000
1.710000,-2.083759,-0.919837,-1.466727,1.096075,1.097686,0.057814,0.839322,-0.231037,0.022713,-1.452382,-0.989677,-0.868978,-8.151330,-3.588810,-0.501984,-0.023515,-0.085547,0.000000,-0.098918,0.154827,-0.000000
1.720000,-2.072756,-0.908872,-1.466148,1.104395,1.095326,0.057998,0.824390,-0.241113,0.013998,-1.533420,-1.025865,-0.872612,-8.042362,-3.632523,-0.224383,-0.024522,-0.083958,0.000000,-0.102444,0.162829,0.000000
1.730000,-2.061671,-0.897931,-1.465567,1.112563,1.092863,0.058094,0.808653,-0.251554,0.005260,-1.613229,-1.062327,-0.873466,-7.911499,-3.652080,0.053881,-0.025564,-0.082289,0.000000,-0.105995,0.170666,0.000000
1.740000,-2.050505,-0.887015,-1.464986,1.120568,1.090295,0.058103,0.792125,-0.262360,-0.003471,-1.691650,-1.098907,-0.871535,-7.770714,-3.665438,0.333561,-0.026642,-0.080544,0.000000,-0.109556,0.178323,0.000000
1.750000,-2.039260,-0.876125,-1.464405,1.128405,1.087616,0.058025,0.774820,-0.273532,-0.012170,-1.768644,-1.135636,-0.866794,-7.622839,-3.677596,0.616634,-0.027755,-0.078722,0.000000,-0.113131,0.185800,0.000000
1.760000,-2.027937,-0.865262,-1.463826,1.136065,1.084824,0.057860,0.756752,-0.285073,-0.020807,-1.844107,-1.172459,-0.859202,-7.460063,-3.675932,0.900749,-0.028904,-0.076826,0.000000,-0.116717,0.193087,-0.000000
1.770000,-2.016538,-0.854428,-1.463248,1.143540,1.081915,0.057609,0.737938,-0.296981,-0.029354,-1.917845,-1.209154,-0.848779,-7.276074,-3.647613,1.177599,-0.030089,-0.074858,0.000000,-0.120292,0.200168,-0.000000
1.780000,-2.005066,-0.843624,-1.462673,1.150824,1.078884,0.057273,0.718396,-0.309256,-0.037783,-1.989628,-1.245411,-0.835650,-7.073600,-3.595929,1.445958,-0.031310,-0.072821,0.000000,-0.123825,0.207025,-0.000000
1.790000,-1.993522,-0.832851,-1.462103,1.157908,1.075729,0.056853,0.698145,-0.321890,-0.046067,-2.059317,-1.281073,-0.819860,-6.861284,-3.537424,1.715107,-0.032566,-0.070716,0.000000,-0.127302,0.213645,0.000000
1.800000,-1.981908,-0.822109,-1.461536,1.164787,1.072447,0.056351,0.677209,-0.334877,-0.054180,-2.126854,-1.316159,-0.801348,-6.640823,-3.477139,1.988892,-0.033856,-0.068546,0.000000,-0.130725,0.220027,0.000000
1.810000,-1.970226,-0.811402,-1.460975,1.171452,1.069032,0.055770,0.655608,-0.348213,-0.062094,-2.192133,-1.350616,-0.780082,-6.406926,-3.403749,2.259276,-0.035180,-0.066313,0.000000,-0.134093,0.226163,-0.000000
1.820000,-1.958479,-0.800729,-1.460421,1.177899,1.065482,0.055110,0.633367,-0.361890,-0.069782,-2.254993,-1.384234,-0.756162,-6.156705,-3.304778,2.513828,-0.036538,-0.064020,0.000000,-0.137384,0.232040,-0.000000
1.830000,-1.946668,-0.790092,-1.459873,1.184120,1.061794,0.054374,0.610509,-0.375897,-0.077217,-2.315267,-1.416711,-0.729806,-5.892371,-3.183497,2.753292,-0.037928,-0.061669,0.000000,-0.140569,0.237648,-0.000000
1.840000,-1.934796,-0.779493,-1.459333,1.190109,1.057964,0.053565,0.587061,-0.390224,-0.084378,-2.372840,-1.447904,-0.701097,-5.618260,-3.056510,2.992423,-0.039349,-0.059263,0.000000,-0.143635,0.242977,-0.000000
1.850000,-1.922866,-0.768933,-1.458802,1.195861,1.053990,0.052686,0.563052,-0.404856,-0.091239,-2.427633,-1.477842,-0.669957,-5.334923,-2.927916,3.235859,-0.040801,-0.056806,0.000000,-0.146587,0.248023,0.000000
1.860000,-1.910879,-0.758413,-1.458280,1.201370,1.049867,0.051740,0.538509,-0.419781,-0.097777,-2.479538,-1.506463,-0.636379,-5.040139,-2.786760,3.472186,-0.042281,-0.054299,0.000000,-0.149421,0.252779,-0.000000
1.870000,-1.898839,-0.747935,-1.457767,1.206631,1.045594,0.050731,0.513461,-0.434985,-0.103967,-2.528435,-1.533577,-0.600514,-4.733952,-2.624217,3.687716,-0.043789,-0.051745,0.000000,-0.152120,0.257237,-0.000000
1.880000,-1.886747,-0.737501,-1.457265,1.211639,1.041168,0.049661,0.487940,-0.450452,-0.109787,-2.574218,-1.558947,-0.562625,-4.417731,-2.443949,3.884616,-0.045324,-0.049149,0.000000,-0.154659,0.261391,-0.000000
1.890000,-1.874606,-0.727112,-1.456774,1.216390,1.036585,0.048535,0.461977,-0.466164,-0.115219,-2.616790,-1.582456,-0.522821,-4.092121,-2.257928,4.079506,-0.046882,-0.046512,0.000000,-0.157028,0.265235,-0.000000
1.900000,-1.862419,-0.716769,-1.456294,1.220879,1.031844,0.047357,0.435604,-0.482101,-0.120244,-2.656060,-1.604106,-0.481035,-3.756958,-2.069045,4.276782,-0.048464,-0.043838,0.000000,-0.159231,0.268763,-0.000000
1.910000,-1.850188,-0.706475,-1.455827,1.225102,1.026943,0.046130,0.408855,-0.498246,-0.124840,-2.691929,-1.623837,-0.437286,-3.412558,-1.869826,4.464158,-0.050067,-0.041130,0.000000,-0.161262,0.271967,0.000000
1.920000,-1.837917,-0.696231,-1.455372,1.229056,1.021879,0.044860,0.381765,-0.514578,-0.128990,-2.724311,-1.641502,-0.391752,-3.060675,-1.654506,4.629427,-0.051689,-0.038392,0.000000,-0.163107,0.274844,0.000000
1.930000,-1.825607,-0.686037,-1.454930,1.232737,1.016651,0.043550,0.354369,-0.531076,-0.132675,-2.753143,-1.656927,-0.344697,-2.701879,-1.425966,4.775536,-0.053329,-0.035626,0.000000,-0.164751,0.277389,-0.000000
1.940000,-1.813262,-0.675898,-1.454501,1.236143,1.011258,0.042206,0.326703,-0.547716,-0.135883,-2.778349,-1.670021,-0.296241,-2.334707,-1.192527,4.917286,-0.054985,-0.032836,0.000000,-0.166184,0.279600,-0.000000
1.950000,-1.800884,-0.665812,-1.454085,1.239271,1.005697,0.040833,0.298802,-0.564476,-0.138600,-2.799837,-1.680777,-0.246351,-1.958742,-0.955900,5.058073,-0.056653,-0.030026,0.000000,-0.167407,0.281467,0.000000
1.960000,-1.788477,-0.655784,-1.453684,1.242119,0.999968,0.039434,0.270706,-0.581332,-0.140810,-2.817524,-1.689139,-0.195080,-1.575663,-0.711343,5.187381,-0.058333,-0.027198,0.000000,-0.168417,0.282987,0.000000
1.970000,-1.776042,-0.645813,-1.453297,1.244685,0.994070,0.038017,0.242452,-0.598259,-0.142502,-2.831350,-1.695004,-0.142604,-1.187711,-0.456579,5.296145,-0.060021,-0.024356,0.000000,-0.169203,0.284154,0.000000
1.980000,-1.763583,-0.635902,-1.452924,1.246968,0.988003,0.036584,0.214079,-0.615232,-0.143663,-2.841278,-1.698271,-0.089157,-0.794889,-0.193884,5.387224,-0.061717,-0.021504,0.000000,-0.169756,0.284967,-0.000000
1.990000,-1.751103,-0.626053,-1.452565,1.248967,0.981766,0.035143,0.185626,-0.632225,-0.144285,-2.847248,-1.698882,-0.034859,-0.395193,0.072827,5.471534,-0.063417,-0.018646,0.000000,-0.170069,0.285423,0.000000
2.000000,-1.738604,-0.616267,-1.452221,1.250681,0.975359,0.033699,0.157134,-0.649210,-0.144360,-2.849182,-1.696814,0.020274,0.011330,0.342963,5.550738,-0.065118,-0.015784,0.000000,-0.170142,0.285515,0.000000
2.010000,-1.726089,-0.606546,-1.451891,1.252110,0.968782,0.032256,0.128643,-0.666161,-0.143879,-2.847021,-1.692023,0.076155,0.422748,0.618160,5.617266,-0.066820,-0.012923,0.000000,-0.169970,0.285237,-0.000000
2.020000,-1.713561,-0.596891,-1.451576,1.253254,0.962035,0.030821,0.100193,-0.683050,-0.142837,-2.840727,-1.684451,0.132619,0.838027,0.897902,5.666714,-0.068518,-0.010066,0.000000,-0.169548,0.284586,0.000000
2.030000,-1.701024,-0.587305,-1.451275,1.254113,0.955121,0.029399,0.071828,-0.699850,-0.141227,-2.830261,-1.674065,0.189490,1.257435,1.180890,5.701422,-0.070211,-0.007218,0.000000,-0.168871,0.283561,-0.000000
2.040000,-1.688479,-0.577789,-1.450988,1.254690,0.948038,0.027997,0.043588,-0.716532,-0.139047,-2.815578,-1.660833,0.246648,1.681426,1.466687,5.726573,-0.071895,-0.004381,0.000000,-0.167936,0.282155,-0.000000
2.050000,-1.675930,-0.568344,-1.450715,1.254985,0.940790,0.026618,0.015516,-0.733067,-0.136294,-2.796632,-1.644731,0.304021,2.108803,1.754487,5.742203,-0.073569,-0.001560,0.000000,-0.166740,0.280364,-0.000000
2.060000,-1.663379,-0.558973,-1.450455,1.255001,0.933377,0.025271,-0.012344,-0.749426,-0.132966,-2.773402,-1.625744,0.361492,2.538718,2.043595,5.744770,-0.075230,0.001242,0.000000,-0.165282,0.278187,-0.000000
2.070000,-1.650830,-0.549677,-1.450209,1.254738,0.925801,0.023959,-0.039952,-0.765581,-0.129064,-2.745858,-1.603859,0.418917,2.973158,2.334404,5.734030,-0.076875,0.004020,0.000000,-0.163558,0.275618,-0.000000
2.080000,-1.638285,-0.540457,-1.449976,1.254201,0.918065,0.022689,-0.067262,-0.781503,-0.124588,-2.713939,-1.579056,0.476172,3.412116,2.626615,5.711246,-0.078501,0.006770,0.000000,-0.161567,0.272651,-0.000000
2.090000,-1.625746,-0.531315,-1.449756,1.253393,0.910171,0.021467,-0.094230,-0.797163,-0.119541,-2.677615,-1.551327,0.533141,3.851991,2.918277,5.676316,-0.080107,0.009490,0.000000,-0.159304,0.269280,-0.000000
2.100000,-1.613217,-0.522254,-1.449547,1.252317,0.902122,0.020299,-0.120814,-0.812530,-0.113925,-2.636899,-1.520690,0.589699,4.291324,3.207195,5.628216,-0.081688,0.012173,0.000000,-0.156772,0.265507,0.000000
2.110000,-1.600700,-0.513273,-1.449350,1.250977,0.893921,0.019189,-0.146968,-0.827576,-0.107747,-2.591789,-1.487183,0.645706,4.731960,3.493806,5.567020,-0.083242,0.014818,0.000000,-0.153971,0.261328,-0.000000
2.120000,-1.588197,-0.504375,-1.449163,1.249377,0.885571,0.018144,-0.172650,-0.842273,-0.101011,-2.542260,-1.450814,0.701039,5.175924,3.781870,5.495057,-0.084767,0.017418,0.000000,-0.150901,0.256737,-0.000000
2.130000,-1.575712,-0.495562,-1.448987,1.247524,0.877075,0.017169,-0.197814,-0.856593,-0.093726,-2.488271,-1.411545,0.755607,5.622439,4.071012,5.412446,-0.086260,0.019971,0.000000,-0.147556,0.251730,-0.000000
2.140000,-1.563247,-0.486834,-1.448820,1.245421,0.868439,0.016269,-0.222415,-0.870504,-0.085899,-2.429811,-1.369394,0.809288,6.067876,4.354562,5.315797,-0.087718,0.022472,0.000000,-0.143935,0.246300,0.000000
2.150000,-1.550804,-0.478193,-1.448661,1.243076,0.859665,0.015451,-0.246410,-0.883980,-0.077540,-2.366913,-1.324454,0.861923,6.509400,4.628110,5.203899,-0.089139,0.024916,0.000000,-0.140045,0.240447,0.000000
2.160000,-1.538385,-0.469640,-1.448511,1.240493,0.850759,0.014718,-0.269753,-0.896993,-0.068661,-2.299623,-1.276831,0.913366,6.948924,4.895338,5.079003,-0.090519,0.027300,0.000000,-0.135893,0.234174,0.000000
2.170000,-1.525994,-0.461178,-1.448367,1.237680,0.841725,0.014077,-0.292402,-0.909517,-0.059273,-2.227935,-1.226547,0.963503,7.392577,5.165314,4.943528,-0.091857,0.029619,0.000000,-0.131479,0.227473,-0.000000
2.180000,-1.513632,-0.452806,-1.448229,1.234645,0.832569,0.013533,-0.314312,-0.921524,-0.049391,-2.151771,-1.173525,1.012237,7.839366,5.437633,4.796625,-0.093149,0.031869,0.000000,-0.126791,0.220335,0.000000
2.190000,-1.501301,-0.444526,-1.448096,1.231394,0.823295,0.013090,-0.335438,-0.932988,-0.039028,-2.071147,-1.117795,1.059435,8.279955,5.698108,4.634962,-0.094393,0.034045,0.000000,-0.121830,0.212754,-0.000000
2.200000,-1.489004,-0.436340,-1.447967,1.227936,0.813909,0.012752,-0.355735,-0.943880,-0.028202,-1.986172,-1.059563,1.104936,8.712751,5.934057,4.458401,-0.095585,0.036143,0.000000,-0.116612,0.204737,-0.000000
2.210000,-1.476742,-0.428248,-1.447841,1.224280,0.804417,0.012526,-0.375161,-0.954179,-0.016929,-1.896892,-0.999114,1.148603,9.143230,6.154575,4.268983,-0.096725,0.038158,0.000000,-0.111161,0.196283,0.000000
2.220000,-1.464518,-0.420252,-1.447717,1.220433,0.794826,0.012414,-0.393673,-0.963863,-0.005230,-1.803308,-0.936471,1.190315,9.573260,6.389099,4.066232,-0.097809,0.040087,0.000000,-0.105476,0.187387,-0.000000
2.230000,-1.452334,-0.412352,-1.447593,1.216406,0.785140,0.012421,-0.411227,-0.972908,0.006877,-1.705427,-0.871332,1.229928,10.015339,6.605755,3.848931,-0.098834,0.041924,0.000000,-0.099523,0.178043,0.000000
2.240000,-1.440190,-0.404549,-1.447468,1.212208,0.775367,0.012551,-0.427781,-0.981289,0.019369,-1.603001,-0.804356,1.267294,10.462131,6.770159,3.617748,-0.099799,0.043665,0.000000,-0.093363,0.168220,0.000000
2.250000,-1.428089,-0.396844,-1.447342,1.207850,0.765514,0.012808,-0.443287,-0.988995,0.032223,-1.496184,-0.735928,1.302283,10.802172,7.088289,3.375064,-0.100702,0.045305,0.000000,-0.087030,0.157927,-0.000000
2.260000,-1.416033,-0.389238,-1.447212,1.203343,0.755587,0.013196,-0.457705,-0.996008,0.045414,-1.386957,-0.662591,1.334795,11.047839,7.565452,3.120011,-0.101540,0.046840,0.000000,-0.080170,0.147359,0.000000
2.270000,-1.404023,-0.381732,-1.447078,1.198696,0.745594,0.013717,-0.471026,-1.002247,0.058919,-1.275228,-0.584619,1.364683,11.513960,7.604344,2.845729,-0.102305,0.048268,0.000000,-0.072805,0.136501,0.000000
2.280000,-1.392059,-0.374327,-1.446938,1.193922,0.735542,0.014374,-0.483210,-1.007700,0.072708,-1.156678,-0.510504,1.391710,12.152349,7.289784,2.551296,-0.102996,0.049584,0.000000,-0.065789,0.124906,0.000000
2.290000,-1.380144,-0.367022,-1.446791,1.189032,0.725440,0.015171,-0.494160,-1.012457,0.086753,-1.032181,-0.438824,1.415709,12.538833,7.421998,2.246122,-0.103621,0.050779,0.000000,-0.058978,0.112656,0.000000
2.300000,-1.368279,-0.359818,-1.446635,1.184039,0.715293,0.016109,-0.503853,-1.016477,0.101022,-0.905902,-0.362064,1.436632,13.017803,7.297890,1.937529,-0.104175,0.051849,0.000000,-0.051602,0.100167,0.000000
2.310000,-1.356463,-0.352716,-1.446468,1.178955,0.705111,0.017191,-0.512278,-1.019699,0.115486,-0.771825,-0.292866,1.454460,13.840188,6.443708,1.618604,-0.104653,0.052793,0.000000,-0.044945,0.086821,0.000000
2.320000,-1.344699,-0.345716,-1.446291,1.173793,0.694899,0.018419,-0.519290,-1.022334,0.130112,-0.629098,-0.233190,1.469004,13.910947,7.073781,1.270021,-0.105074,0.053595,0.000000,-0.039212,0.072519,0.000000
2.330000,-1.332987,-0.338818,-1.446100,1.168569,0.684664,0.019793,-0.524860,-1.024362,0.144866,-0.493606,-0.151390,1.479860,13.185906,9.258950,0.892850,-0.105437,0.054251,0.000000,-0.031155,0.058882,0.000000
2.340000,-1.321328,-0.332022,-1.445895,1.163296,0.674412,0.021316,-0.529162,-1.025362,0.159709,-0.365380,-0.048011,1.486861,13.176839,9.938825,0.513520,-0.105697,0.054779,0.000000,-0.020811,0.045914,-0.000000
2.350000,-1.309722,-0.325329,-1.445674,1.157986,0.664157,0.022988,-0.532168,-1.025323,0.174603,-0.230069,0.047386,1.490131,13.425248,10.058596,0.139847,-0.105853,0.055174,0.000000,-0.011205,0.032139,0.000000
2.360000,-1.298168,-0.318739,-1.445435,1.152653,0.653906,0.024808,-0.533763,-1.024414,0.189511,-0.096875,0.153161,1.489658,12.961594,11.573868,-0.246040,-0.105921,0.055425,0.000000,-0.000452,0.018499,0.000000
2.370000,-1.286668,-0.312251,-1.445178,1.147311,0.643668,0.026778,-0.534105,-1.022259,0.204396,0.029163,0.278864,1.485210,13.503286,10.953449,-0.660986,-0.105862,0.055546,0.000000,0.012449,0.005513,-0.000000
2.380000,-1.275222,-0.305866,-1.444900,1.141971,0.633460,0.028896,-0.533180,-1.018837,0.219216,0.173191,0.372230,1.476439,15.420961,7.459949,-1.100260,-0.105672,0.055536,0.000000,0.022118,-0.009418,0.000000
2.390000,-1.263829,-0.299582,-1.444600,1.136647,0.623292,0.031162,-0.530641,-1.014815,0.233925,0.337582,0.428063,1.463205,16.271062,6.103729,-1.541047,-0.105419,0.055357,0.000000,0.027995,-0.026555,0.000000
2.400000,-1.252489,-0.293400,-1.444276,1.131358,0.613164,0.033575,-0.526428,-1.010276,0.248480,0.498612,0.494305,1.445618,16.035563,6.805299,-1.971410,-0.105112,0.055001,0.000000,0.035025,-0.043450,-0.000000
2.410000,-1.241202,-0.287319,-1.443928,1.126119,0.603086,0.036132,-0.520669,-1.004929,0.262837,0.658294,0.564169,1.423776,16.350327,6.214629,-2.406489,-0.104719,0.054483,0.000000,0.042514,-0.060306,-0.000000
2.420000,-1.229967,-0.281338,-1.443554,1.120945,0.593066,0.038831,-0.513262,-0.998992,0.276955,0.825619,0.618597,1.397488,16.549041,6.015519,-2.876217,-0.104262,0.053788,0.000000,0.048483,-0.078060,-0.000000
2.430000,-1.218783,-0.275458,-1.443151,1.115853,0.583106,0.041671,-0.504157,-0.992557,0.290787,0.989274,0.684479,1.366252,15.928129,7.599007,-3.376493,-0.103749,0.052913,0.000000,0.055726,-0.095537,0.000000
2.440000,-1.207650,-0.269676,-1.442720,1.110861,0.573214,0.044647,-0.493477,-0.985303,0.304280,1.144181,0.770578,1.329958,15.556567,8.340554,-3.865523,-0.103147,0.051867,0.000000,0.065168,-0.112201,-0.000000
2.450000,-1.196566,-0.263993,-1.442259,1.105984,0.563400,0.047756,-0.481273,-0.977145,0.317386,1.300406,0.851290,1.288942,16.271797,6.889999,-4.331723,-0.102445,0.050656,0.000000,0.074145,-0.129093,0.000000
2.460000,-1.185530,-0.258408,-1.441765,1.101236,0.553672,0.050995,-0.467469,-0.968277,0.330059,1.469617,0.908378,1.243324,17.263932,5.159022,-4.802215,-0.101664,0.049271,0.000000,0.080739,-0.147431,0.000000
2.470000,-1.174541,-0.252920,-1.441239,1.096634,0.544035,0.054358,-0.451881,-0.958978,0.342253,1.645684,0.954471,1.192897,16.572603,5.995863,-5.299847,-0.100831,0.047692,0.000000,0.086259,-0.166575,-0.000000
2.480000,-1.163597,-0.247527,-1.440678,1.092198,0.534492,0.057840,-0.434555,-0.949187,0.353917,1.801069,1.028295,1.137327,14.582417,8.552566,-5.815732,-0.099939,0.045923,0.000000,0.094766,-0.183629,-0.000000
2.490000,-1.152697,-0.242230,-1.440082,1.087943,0.525051,0.061436,-0.415859,-0.938412,0.364999,1.937333,1.125522,1.076583,13.888792,9.122871,-6.317804,-0.098935,0.044001,0.000000,0.105821,-0.198735,-0.000000
2.500000,-1.141838,-0.237026,-1.439449,1.083881,0.515724,0.065140,-0.395808,-0.926677,0.375449,2.078845,1.210752,1.010971,13.489169,9.384944,-6.793655,-0.097822,0.041928,0.000000,0.115702,-0.214439,-0.000000
2.510000,-1.131019,-0.231916,-1.438779,1.080027,0.506517,0.068945,-0.374282,-0.914197,0.385219,2.207116,1.313221,0.940709,11.756574,11.627083,-7.263120,-0.096621,0.039692,0.000000,0.127471,-0.228784,0.000000
2.520000,-1.120238,-0.226896,-1.438070,1.076396,0.497440,0.072844,-0.351666,-0.900412,0.394263,2.313977,1.443294,0.865708,12.103572,10.353548,-7.753758,-0.095273,0.037331,0.000000,0.142230,-0.240887,-0.000000
2.530000,-1.109492,-0.221967,-1.437322,1.072994,0.488509,0.076830,-0.328003,-0.885331,0.402533,2.449188,1.520292,0.785634,15.130225,4.698911,-8.258391,-0.093776,0.034852,0.000000,0.151469,-0.255991,-0.000000
2.540000,-1.098778,-0.217126,-1.436534,1.069835,0.479733,0.080895,-0.302682,-0.870007,0.409976,2.616581,1.537272,0.700540,16.024880,2.382942,-8.736949,-0.092243,0.032189,0.000000,0.154418,-0.274501,0.000000
2.550000,-1.088095,-0.212372,-1.435704,1.066940,0.471109,0.085030,-0.275671,-0.854585,0.416543,2.769685,1.567951,0.610895,15.024177,3.112439,-9.179129,-0.090688,0.029339,0.000000,0.158839,-0.291489,0.000000
2.560000,-1.077439,-0.207704,-1.434833,1.064322,0.462642,0.089226,-0.247289,-0.838648,0.422193,2.917065,1.599521,0.516958,15.330805,1.744227,-9.609265,-0.089066,0.026335,0.000000,0.163376,-0.307839,-0.000000
2.570000,-1.066808,-0.203119,-1.433920,1.061994,0.454336,0.093474,-0.217330,-0.822595,0.426883,3.076301,1.602835,0.418710,14.907587,1.249136,-10.044382,-0.087421,0.023158,0.000000,0.164934,-0.325399,-0.000000
2.580000,-1.056199,-0.198617,-1.432964,1.059975,0.446190,0.097763,-0.185763,-0.806591,0.430568,3.215216,1.624504,0.316070,12.512479,3.589124,-10.473593,-0.085768,0.019803,0.000000,0.168440,-0.340736,-0.000000
2.590000,-1.045609,-0.194195,-1.431964,1.058279,0.438204,0.102085,-0.153026,-0.790105,0.433204,3.326551,1.674618,0.209238,11.221907,4.246693,-10.871153,-0.084052,0.016318,0.000000,0.174959,-0.353055,0.000000
2.600000,-1.035034,-0.189853,-1.430922,1.056915,0.430388,0.106428,-0.119232,-0.773099,0.434752,3.439655,1.709437,0.098647,11.642298,2.454856,-11.236797,-0.082269,0.012717,0.000000,0.179846,-0.365453,0.000000
2.610000,-1.024471,-0.185588,-1.429836,1.055895,0.422742,0.110780,-0.084232,-0.755916,0.435177,3.559397,1.723715,-0.015498,11.625667,1.368595,-11.583840,-0.080455,0.008985,0.000000,0.182531,-0.378432,-0.000000
2.620000,-1.013916,-0.181398,-1.428706,1.055230,0.415269,0.115131,-0.048044,-0.738624,0.434442,3.672168,1.736809,-0.133030,10.551168,1.499070,-11.902970,-0.078618,0.005124,0.000000,0.185057,-0.390527,0.000000
2.630000,-1.003366,-0.177282,-1.427533,1.054934,0.407970,0.119469,-0.010789,-0.721180,0.432516,3.770420,1.753696,-0.253557,9.207819,1.746628,-12.185263,-0.076754,0.001151,0.000000,0.187944,-0.400918,0.000000
2.640000,-0.992817,-0.173239,-1.426317,1.055015,0.400846,0.123781,0.027365,-0.703550,0.429371,3.856324,1.771742,-0.376735,8.254128,1.692240,-12.440092,-0.074860,-0.002917,0.000000,0.190900,-0.409823,-0.000000
2.650000,-0.982266,-0.169265,-1.425058,1.055481,0.393899,0.128056,0.066337,-0.685745,0.424982,3.935503,1.787541,-0.502359,7.299812,1.474506,-12.674921,-0.072937,-0.007068,0.000000,0.193557,-0.417826,0.000000
2.660000,-0.971708,-0.165361,-1.423756,1.056341,0.387131,0.132281,0.106075,-0.667800,0.419324,4.002321,1.801232,-0.630233,5.972541,1.320047,-12.878982,-0.070989,-0.011295,0.000000,0.195922,-0.424318,0.000000
2.670000,-0.961139,-0.161523,-1.422412,1.057602,0.380543,0.136443,0.146384,-0.649720,0.412377,4.054953,1.813942,-0.759939,5.284448,1.140750,-13.027033,-0.069018,-0.015575,0.000000,0.198104,-0.429099,-0.000000
2.680000,-0.950556,-0.157750,-1.421027,1.059269,0.374136,0.140529,0.187174,-0.631521,0.404125,4.108010,1.824047,-0.890774,5.414818,0.749137,-13.116853,-0.067027,-0.019897,0.000000,0.199925,-0.433717,-0.000000
2.690000,-0.939953,-0.154040,-1.419602,1.061346,0.367912,0.144525,0.228544,-0.613239,0.394562,4.163250,1.828925,-1.022276,4.953452,0.288338,-13.178361,-0.065020,-0.024269,0.000000,0.201101,-0.438350,0.000000
2.700000,-0.929329,-0.150392,-1.418137,1.063840,0.361872,0.148420,0.270439,-0.594942,0.383680,4.207079,1.829814,-1.154341,3.739637,0.467791,-13.230189,-0.063006,-0.028682,0.000000,0.201761,-0.441556,-0.000000
2.710000,-0.918677,-0.146803,-1.416633,1.066755,0.356014,0.152199,0.312686,-0.576643,0.371475,4.238043,1.838280,-1.286879,2.739896,1.118088,-13.247683,-0.060985,-0.033117,0.000000,0.203123,-0.443186,0.000000
2.720000,-0.907994,-0.143271,-1.415093,1.070094,0.350339,0.155849,0.355200,-0.558177,0.357942,4.261876,1.852176,-1.419295,2.056784,0.228313,-13.175774,-0.058943,-0.037561,0.000000,0.204950,-0.443851,-0.000000
2.730000,-0.897275,-0.139796,-1.413516,1.073859,0.344850,0.159358,0.397923,-0.539600,0.343089,4.279178,1.842847,-1.550395,1.334851,-2.154454,-13.015654,-0.056887,-0.042008,0.000000,0.204218,-0.443627,-0.000000
2.740000,-0.886516,-0.136374,-1.411905,1.078052,0.339547,0.162711,0.440783,-0.521320,0.326934,4.288573,1.809086,-1.679608,0.522817,-3.286564,-12.838536,-0.054859,-0.046448,0.000000,0.200816,-0.442379,-0.000000
2.750000,-0.875714,-0.133005,-1.410262,1.082674,0.334424,0.165896,0.483695,-0.503418,0.309497,4.289635,1.777115,-1.807166,-0.206434,-3.357384,-12.674439,-0.052871,-0.050869,0.000000,0.197513,-0.440074,-0.000000
2.760000,-0.864863,-0.129686,-1.408587,1.087726,0.329478,0.168901,0.526576,-0.485777,0.290791,4.284445,1.741939,-1.933097,-0.845704,-4.167962,-12.471564,-0.050909,-0.055261,0.000000,0.193790,-0.436945,-0.000000
2.770000,-0.853959,-0.126415,-1.406884,1.093206,0.324708,0.171712,0.569383,-0.468579,0.270835,4.272721,1.693756,-2.056597,-1.781641,-4.526811,-12.151932,-0.048995,-0.059618,0.000000,0.188629,-0.432980,0.000000
2.780000,-0.842999,-0.123192,-1.405153,1.099114,0.320107,0.174318,0.612030,-0.451902,0.249659,4.248812,1.651403,-2.176135,-3.058402,-3.661775,-11.726634,-0.047137,-0.063930,0.000000,0.184002,-0.427619,0.000000
2.790000,-0.831977,-0.120013,-1.403398,1.105447,0.315670,0.176705,0.654360,-0.435551,0.227312,4.211552,1.620521,-2.291130,-4.138523,-3.367965,-11.298225,-0.045315,-0.068180,0.000000,0.180491,-0.420773,0.000000
2.800000,-0.820890,-0.116878,-1.401619,1.112201,0.311396,0.178864,0.696261,-0.419492,0.203836,4.166042,1.584043,-2.402100,-4.776864,-4.460614,-10.899248,-0.043527,-0.072354,0.000000,0.176329,-0.412997,0.000000
2.810000,-0.809733,-0.113785,-1.399820,1.119372,0.307280,0.180782,0.737681,-0.403870,0.179270,4.116015,1.531308,-2.509115,-5.350939,-5.641033,-10.458914,-0.041789,-0.076447,0.000000,0.170431,-0.404698,0.000000
2.820000,-0.798502,-0.110733,-1.398003,1.126954,0.303318,0.182449,0.778582,-0.388866,0.153654,4.059023,1.471223,-2.611278,-6.437989,-5.192834,-9.899388,-0.040119,-0.080455,0.000000,0.163738,-0.395651,-0.000000
2.830000,-0.787194,-0.107719,-1.396171,1.134943,0.299503,0.183855,0.818861,-0.374446,0.127044,3.987255,1.427452,-2.707102,-7.864451,-3.639993,-9.241110,-0.038514,-0.084367,0.000000,0.158688,-0.385096,0.000000
2.840000,-0.775804,-0.104743,-1.394326,1.143332,0.295829,0.184990,0.858327,-0.360317,0.099512,3.901734,1.398423,-2.796100,-8.871056,-3.206447,-8.587221,-0.036945,-0.088163,0.000000,0.155103,-0.373182,0.000000
2.850000,-0.764327,-0.101802,-1.392471,1.152110,0.292297,0.185845,0.896896,-0.346477,0.071122,3.809834,1.363323,-2.878847,-9.805286,-3.129157,-7.962538,-0.035412,-0.091835,0.000000,0.150858,-0.360688,-0.000000
2.860000,-0.752761,-0.098897,-1.390609,1.161270,0.288900,0.186413,0.934523,-0.333050,0.041935,3.705628,1.335840,-2.955351,-11.130150,-2.014046,-7.298858,-0.033928,-0.095381,0.000000,0.147361,-0.347038,-0.000000
2.870000,-0.741102,-0.096024,-1.388743,1.170800,0.285636,0.186684,0.971008,-0.319761,0.012015,3.587231,1.323042,-3.024824,-11.695621,-2.429315,-6.542487,-0.032465,-0.098780,0.000000,0.145316,-0.332086,0.000000
2.880000,-0.729345,-0.093184,-1.386876,1.180690,0.282505,0.186653,1.006268,-0.306589,-0.018561,3.471716,1.287253,-3.086201,-11.320556,-4.899129,-5.715680,-0.031022,-0.102027,0.000000,0.140907,-0.317595,0.000000
2.890000,-0.717488,-0.090374,-1.385010,1.190926,0.279504,0.186313,1.040443,-0.294016,-0.049709,3.360820,1.225059,-3.139138,-11.612408,-5.793371,-4.891061,-0.029647,-0.105136,0.000000,0.133838,-0.303750,0.000000
2.900000,-0.705527,-0.087594,-1.383149,1.201499,0.276624,0.185659,1.073485,-0.282088,-0.081344,3.239467,1.171386,-3.184022,-12.517424,-5.220092,-4.088949,-0.028345,-0.108105,0.000000,0.127648,-0.289048,-0.000000
2.910000,-0.693458,-0.084842,-1.381297,1.212395,0.273862,0.184686,1.105232,-0.270588,-0.113389,3.110472,1.120657,-3.220916,-12.958950,-5.609434,-3.263667,-0.027093,-0.110919,0.000000,0.121770,-0.273800,0.000000
2.920000,-0.681279,-0.082117,-1.379456,1.223603,0.271213,0.183391,1.135694,-0.259675,-0.145762,2.980288,1.059197,-3.249295,-13.521331,-5.620397,-2.371577,-0.025909,-0.113583,0.000000,0.114851,-0.258668,-0.000000
2.930000,-0.668986,-0.079418,-1.377629,1.235109,0.268668,0.181771,1.164838,-0.249404,-0.178375,2.840045,1.008249,-3.268348,-14.596088,-4.355021,-1.429921,-0.024796,-0.116095,0.000000,0.109014,-0.242798,-0.000000
2.940000,-0.656577,-0.076743,-1.375820,1.246900,0.266224,0.179824,1.192495,-0.239510,-0.211129,2.688367,0.972097,-3.277894,-15.286493,-3.863575,-0.501121,-0.023729,-0.118441,0.000000,0.104668,-0.226080,-0.000000
2.950000,-0.644048,-0.074093,-1.374033,1.258959,0.263878,0.177548,1.218605,-0.229962,-0.243933,2.534315,0.930978,-3.278370,-15.537343,-4.338821,0.403686,-0.022703,-0.120618,0.000000,0.099855,-0.209418,0.000000
2.960000,-0.631398,-0.071466,-1.372269,1.271272,0.261625,0.174945,1.243181,-0.220890,-0.276697,2.377620,0.885320,-3.269820,-15.963594,-4.365026,1.321448,-0.021731,-0.122631,0.000000,0.094630,-0.192790,-0.000000
2.970000,-0.618623,-0.068861,-1.370534,1.283823,0.259460,0.172014,1.266157,-0.212255,-0.309329,2.215043,0.843677,-3.251942,-16.370696,-4.181055,2.265731,-0.020810,-0.124476,0.000000,0.089835,-0.175891,-0.000000
2.980000,-0.605721,-0.066277,-1.368829,1.296595,0.257380,0.168758,1.287482,-0.204017,-0.341736,2.050206,0.801699,-3.224505,-16.531096,-4.295244,3.219220,-0.019934,-0.126150,0.000000,0.085045,-0.159082,-0.000000
2.990000,-0.592691,-0.063713,-1.367159,1.309572,0.255380,0.165180,1.307161,-0.196222,-0.373819,1.884421,0.757772,-3.187557,-16.766891,-4.251813,4.159135,-0.019109,-0.127659,0.000000,0.080106,-0.142491,0.000000
3.000000,-0.579530,-0.061169,-1.365526,1.322738,0.253456,0.161282,1.325170,-0.188862,-0.405487,1.714868,0.716663,-3.141323,-17.150344,-3.950506,5.086248,-0.018332,-0.129001,0.000000,0.075483,-0.125840,-0.000000
3.010000,-0.566236,-0.058644,-1.363933,1.336076,0.251603,0.157070,1.341459,-0.181888,-0.436646,1.541415,0.678762,-3.085832,-17.452768,-3.720235,6.009368,-0.017599,-0.130177,0.000000,0.071212,-0.109117,-0.000000
3.020000,-0.552808,-0.056137,-1.362384,1.349568,0.249818,0.152549,1.355999,-0.175286,-0.467203,1.365813,0.642258,-3.021135,-17.621756,-3.554095,6.914031,-0.016908,-0.131185,0.000000,0.067114,-0.092487,0.000000
3.030000,-0.539245,-0.053647,-1.360882,1.363196,0.248097,0.147726,1.368775,-0.169043,-0.497068,1.188979,0.607680,-2.947552,-17.735409,-3.335750,7.790517,-0.016257,-0.132027,0.000000,0.063241,-0.076027,-0.000000
3.040000,-0.525544,-0.051175,-1.359430,1.376943,0.246437,0.142608,1.379778,-0.163133,-0.526154,1.011105,0.575543,-2.865325,-17.845402,-3.106921,8.652066,-0.015643,-0.132706,0.000000,0.059640,-0.059745,0.000000
3.050000,-0.511706,-0.048719,-1.358030,1.390791,0.244835,0.137203,1.388997,-0.157532,-0.554375,0.832071,0.545542,-2.774510,-17.952460,-2.890302,9.509015,-0.015064,-0.133223,0.000000,0.056278,-0.043618,-0.000000
3.060000,-0.497728,-0.046278,-1.356686,1.404723,0.243286,0.131520,1.396420,-0.152222,-0.581645,0.652055,0.517737,-2.675145,-18.025112,-2.653925,10.345631,-0.014517,-0.133579,0.000000,0.053159,-0.027652,-0.000000
3.070000,-0.483611,-0.043853,-1.355399,1.418720,0.241790,0.125570,1.402038,-0.147177,-0.607878,0.471569,0.492464,-2.567598,-18.043201,-2.389689,11.124248,-0.014000,-0.133776,0.000000,0.050312,-0.011880,-0.000000
3.080000,-0.469354,-0.041442,-1.354174,1.432764,0.240343,0.119363,1.405851,-0.142373,-0.632997,0.291191,0.469943,-2.452660,-18.018026,-2.108909,11.842444,-0.013511,-0.133817,0.000000,0.047756,0.003667,0.000000
3.090000,-0.454956,-0.039046,-1.353012,1.446837,0.238943,0.112910,1.407862,-0.137779,-0.656931,0.111209,0.450285,-2.330749,-17.976818,-1.821030,12.544065,-0.013045,-0.133703,0.000000,0.045500,0.018982,-0.000000
3.100000,-0.440417,-0.036664,-1.351916,1.460921,0.237587,0.106224,1.408075,-0.133367,-0.679611,-0.068345,0.433523,-2.201779,-17.921947,-1.529984,13.247245,-0.012600,-0.133438,0.000000,0.043542,0.034075,0.000000
3.110000,-0.425738,-0.034294,-1.350888,1.474998,0.236275,0.099318,1.406495,-0.129108,-0.700967,-0.247230,0.419686,-2.065804,-17.837239,-1.230454,13.916126,-0.012174,-0.133022,0.000000,0.041882,0.048940,-0.000000
3.120000,-0.410917,-0.031938,-1.349930,1.489051,0.235005,0.092205,1.403131,-0.124973,-0.720928,-0.425090,0.408914,-1.923456,-17.721791,-0.910679,14.495662,-0.011763,-0.132459,0.000000,0.040533,0.063569,-0.000000
3.130000,-0.395957,-0.029594,-1.349044,1.503061,0.233776,0.084899,1.397993,-0.120930,-0.739436,-0.601666,0.401472,-1.775891,-17.583536,-0.572254,14.990187,-0.011363,-0.131751,0.000000,0.039517,0.077967,0.000000
3.140000,-0.380856,-0.027263,-1.348232,1.517011,0.232587,0.077416,1.391097,-0.116944,-0.756445,-0.776761,0.397469,-1.623652,-17.424863,-0.232655,15.467238,-0.010972,-0.130900,0.000000,0.038843,0.092139,0.000000
3.150000,-0.365616,-0.024943,-1.347495,1.530883,0.231437,0.069770,1.382458,-0.112980,-0.771909,-0.950163,0.396819,-1.466546,-17.241108,0.100977,15.950316,-0.010586,-0.129908,0.000000,0.038500,0.106081,0.000000
3.160000,-0.350238,-0.022634,-1.346836,1.544660,0.230327,0.061978,1.372094,-0.109007,-0.785776,-1.121583,0.399488,-1.304646,-17.033392,0.439522,16.388789,-0.010202,-0.128778,0.000000,0.038484,0.119781,-0.000000
3.170000,-0.334723,-0.020336,-1.346256,1.558325,0.229257,0.054055,1.360027,-0.104991,-0.798002,-1.290831,0.405609,-1.138770,-16.817951,0.797670,16.717348,-0.009817,-0.127512,0.000000,0.038808,0.133251,0.000000
3.180000,-0.319072,-0.018049,-1.345755,1.571860,0.228227,0.046018,1.346277,-0.100895,-0.808552,-1.457942,0.415442,-0.970299,-16.597701,1.171727,16.946086,-0.009426,-0.126113,0.000000,0.039496,0.146525,0.000000
3.190000,-0.303286,-0.015771,-1.345335,1.585250,0.227239,0.037884,1.330868,-0.096682,-0.817408,-1.622785,0.429044,-0.799848,-16.352758,1.540199,17.157445,-0.009027,-0.124581,0.000000,0.040554,0.159614,-0.000000
3.200000,-0.287367,-0.013504,-1.344997,1.598478,0.226293,0.029670,1.313822,-0.092314,-0.824549,-1.784997,0.446246,-0.627150,-16.073693,1.895309,17.377694,-0.008615,-0.122920,0.000000,0.041967,0.172495,0.000000
3.210000,-0.271316,-0.011246,-1.344742,1.611527,0.225393,0.021393,1.295168,-0.087757,-0.829951,-1.944259,0.466950,-0.452294,-15.776476,2.250214,17.547828,-0.008187,-0.121131,0.000000,0.043725,0.185157,0.000000
3.220000,-0.255136,-0.008996,-1.344570,1.624381,0.224538,0.013071,1.274937,-0.082975,-0.833595,-2.100526,0.491250,-0.276194,-15.487878,2.620504,17.599343,-0.007740,-0.119216,0.000000,0.045842,0.197618,0.000000
3.230000,-0.238829,-0.006755,-1.344481,1.637026,0.223733,0.004721,1.253157,-0.077932,-0.835475,-2.254017,0.519360,-0.100308,-15.205832,3.001520,17.546600,-0.007270,-0.117178,0.000000,0.048339,0.209929,0.000000
3.240000,-0.222396,-0.004521,-1.344475,1.649444,0.222980,-0.003639,1.229856,-0.072588,-0.835601,-2.404643,0.551280,0.074738,-14.896592,3.370113,17.478013,-0.006773,-0.115017,0.000000,0.051219,0.222101,-0.000000
3.250000,-0.205840,-0.002295,-1.344553,1.661623,0.222281,-0.011991,1.205064,-0.066906,-0.833980,-2.551949,0.586762,0.249253,-14.548448,3.717285,17.420255,-0.006246,-0.112736,0.000000,0.054462,0.234099,0.000000
3.260000,-0.189163,-0.000076,-1.344715,1.673546,0.221642,-0.020319,1.178817,-0.060853,-0.830616,-2.695612,0.625626,0.423144,-14.186058,4.056915,17.312238,-0.005684,-0.110335,0.000000,0.058056,0.245905,-0.000000
3.270000,-0.172369,0.002138,-1.344960,1.685199,0.221064,-0.028604,1.151152,-0.054394,-0.825517,-2.835670,0.667901,0.595497,-13.839864,4.406159,17.088265,-0.005085,-0.107817,0.000000,0.062006,0.257542,0.000000
3.280000,-0.155459,0.004346,-1.345287,1.696569,0.220554,-0.036829,1.122104,-0.047495,-0.818706,-2.972409,0.713749,0.764909,-13.494904,4.743056,16.765486,-0.004444,-0.105183,0.000000,0.066334,0.269059,-0.000000
3.290000,-0.138438,0.006549,-1.345696,1.707641,0.220114,-0.044978,1.091704,-0.040119,-0.810219,-3.105568,0.762762,0.930807,-13.114695,5.046189,16.430572,-0.003758,-0.102435,0.000000,0.071007,0.280445,0.000000
3.300000,-0.121307,0.008748,-1.346187,1.718403,0.219751,-0.053033,1.059993,-0.032240,-0.800090,-3.234703,0.814673,1.093520,-12.756735,5.429733,16.106948,-0.003024,-0.099574,0.000000,0.076002,0.291662,0.000000
3.310000,-0.104070,0.010944,-1.346757,1.728841,0.219470,-0.060979,1.027010,-0.023825,-0.788348,-3.360703,0.871357,1.252946,-12.441377,5.896542,15.736866,-0.002238,-0.096601,0.000000,0.081502,0.302797,-0.000000
3.320000,-0.086730,0.013137,-1.347406,1.738943,0.219275,-0.068800,0.992778,-0.014812,-0.775031,-3.483531,0.932604,1.408258,-12.001279,6.113149,15.267034,-0.001393,-0.093517,0.000000,0.087494,0.313860,0.000000
3.330000,-0.069291,0.015329,-1.348133,1.748696,0.219173,-0.076480,0.957339,-0.005173,-0.760183,-3.600728,0.993620,1.558287,-11.459023,6.127195,14.715843,-0.000487,-0.090323,0.000000,0.093533,0.324635,0.000000
3.340000,-0.051756,0.017521,-1.348936,1.758090,0.219171,-0.084004,0.920764,0.005060,-0.743865,-3.712711,1.055148,1.702574,-11.040448,6.382957,14.155311,0.000478,-0.087024,0.000000,0.099690,0.335161,0.000000
3.350000,-0.034129,0.019713,-1.349813,1.767112,0.219275,-0.091357,0.883085,0.015930,-0.726132,-3.821537,1.121279,1.841393,-10.515194,6.476285,13.603603,0.001507,-0.083619,0.000000,0.106357,0.345631,0.000000
3.360000,-0.016414,0.021906,-1.350763,1.775751,0.219490,-0.098527,0.844333,0.027486,-0.707037,-3.923015,1.184673,1.974647,-9.752662,6.143621,13.014792,0.002605,-0.080111,0.000000,0.112845,0.355648,0.000000
3.370000,0.001386,0.024102,-1.351784,1.783998,0.219824,-0.105498,0.804625,0.039623,-0.686639,-4.016590,1.244151,2.101689,-9.473611,6.650670,12.351261,0.003764,-0.076506,0.000000,0.119039,0.365158,-0.000000
3.380000,0.019266,0.026303,-1.352873,1.791844,0.220282,-0.112259,0.764001,0.052369,-0.665003,-4.112487,1.317687,2.221672,-9.692742,8.033202,11.629300,0.004986,-0.072807,0.000000,0.126651,0.375131,-0.000000
3.390000,0.037223,0.028508,-1.354029,1.799278,0.220872,-0.118798,0.722375,0.065977,-0.642205,-4.210445,1.404815,2.334275,-9.416454,8.540439,10.902114,0.006297,-0.069002,0.000000,0.135653,0.385544,0.000000
3.400000,0.055252,0.030720,-1.355249,1.806291,0.221602,-0.125103,0.679792,0.080465,-0.618318,-4.300816,1.488496,2.439714,-8.956109,8.718065,10.184456,0.007700,-0.065095,0.000000,0.144425,0.395474,-0.000000
3.410000,0.073349,0.032940,-1.356531,1.812874,0.222481,-0.131165,0.636359,0.095747,-0.593411,-4.389567,1.579176,2.537964,-8.946297,9.682568,9.444443,0.009186,-0.061092,0.000000,0.153967,0.405479,0.000000
3.420000,0.091509,0.035170,-1.357872,1.819019,0.223517,-0.136972,0.592001,0.112048,-0.567558,-4.479742,1.682147,2.628603,-8.231418,9.397056,8.654290,0.010779,-0.056985,0.000000,0.164799,0.415849,0.000000
3.430000,0.109729,0.037410,-1.359270,1.824714,0.224722,-0.142516,0.546764,0.129390,-0.540839,-4.554196,1.767118,2.711050,-6.573901,7.440548,7.828290,0.012482,-0.052774,0.000000,0.174007,0.424929,0.000000
3.440000,0.128004,0.039664,-1.360723,1.829954,0.226105,-0.147788,0.500917,0.147391,-0.513337,-4.611220,1.830958,2.785169,-5.612833,6.699588,7.008273,0.014260,-0.048485,0.000000,0.181263,0.432526,-0.000000
3.450000,0.146328,0.041933,-1.362226,1.834733,0.227670,-0.152782,0.454539,0.166009,-0.485136,-4.666452,1.901109,2.851215,-5.310204,7.115548,6.196094,0.016108,-0.044122,0.000000,0.189207,0.440125,-0.000000
3.460000,0.164698,0.044218,-1.363778,1.839045,0.229425,-0.157491,0.407588,0.185413,-0.456313,-4.717424,1.973269,2.909091,-4.571377,6.757899,5.369273,0.018044,-0.039681,0.000000,0.197427,0.447477,0.000000
3.470000,0.183109,0.046521,-1.365376,1.842884,0.231378,-0.161909,0.360191,0.205474,-0.426954,-4.757880,2.036267,2.958601,-3.980688,6.627413,4.538424,0.020057,-0.035171,0.000000,0.204826,0.453953,-0.000000
3.480000,0.201556,0.048845,-1.367016,1.846249,0.233534,-0.166030,0.312431,0.226138,-0.397141,-4.797038,2.105817,2.999859,-3.977273,7.497122,3.717390,0.022141,-0.030599,0.000000,0.212928,0.460429,-0.000000
3.490000,0.220034,0.051192,-1.368696,1.849133,0.235901,-0.169852,0.264250,0.247591,-0.366957,-4.837425,2.186210,3.032949,-3.660937,7.817679,2.896341,0.024316,-0.025960,0.000000,0.222159,0.467140,0.000000
3.500000,0.238539,0.053563,-1.370413,1.851534,0.238486,-0.173369,0.215682,0.269863,-0.336482,-4.870257,2.262171,3.057786,-2.708994,7.014742,2.065463,0.026584,-0.021254,0.000000,0.231019,0.473207,-0.000000
3.510000,0.257065,0.055961,-1.372164,1.853447,0.241298,-0.176581,0.166845,0.292834,-0.305801,-4.891605,2.326505,3.074258,-1.765339,6.197033,1.237840,0.028936,-0.016492,0.000000,0.238781,0.478218,-0.000000
3.520000,0.275608,0.058389,-1.373945,1.854870,0.244343,-0.179485,0.117850,0.316393,-0.274997,-4.905564,2.386111,3.082543,-1.410989,6.409806,0.447487,0.031360,-0.011685,0.000000,0.246107,0.482547,-0.000000
3.530000,0.294162,0.060848,-1.375754,1.855804,0.247626,-0.182081,0.068734,0.340556,-0.244150,-4.919825,2.454701,3.083208,-1.379416,7.193836,-0.303453,0.033858,-0.006836,0.000000,0.254350,0.486934,0.000000
3.540000,0.312724,0.063342,-1.377587,1.856245,0.251154,-0.184368,0.019453,0.365487,-0.213333,-4.933152,2.529988,3.076474,-0.939558,7.226374,-1.054339,0.036447,-0.001941,0.000000,0.263286,0.491243,0.000000
3.550000,0.331287,0.065871,-1.379441,1.856193,0.254936,-0.186348,-0.029929,0.391156,-0.182621,-4.938616,2.599228,3.062121,-0.480595,7.174829,-1.817835,0.039124,0.002995,0.000000,0.271635,0.494761,0.000000
3.560000,0.349848,0.068440,-1.381314,1.855647,0.258977,-0.188021,-0.079319,0.417471,-0.152090,-4.942764,2.673485,3.040117,-0.446596,7.844680,-2.561869,0.041880,0.007962,0.000000,0.280486,0.498118,0.000000
3.570000,0.368400,0.071051,-1.383201,1.854606,0.263285,-0.189390,-0.128785,0.444626,-0.121818,-4.947548,2.756122,3.010883,0.376983,7.133437,-3.247148,0.044734,0.012966,0.000000,0.290179,0.501496,0.000000
3.580000,0.386940,0.073706,-1.385101,1.853071,0.267870,-0.190457,-0.178270,0.472594,-0.091873,-4.935224,2.816153,2.975174,2.154339,4.741258,-3.877474,0.047684,0.018002,0.000000,0.297588,0.503087,-0.000000
3.590000,0.405462,0.076408,-1.387011,1.851041,0.272737,-0.191227,-0.227489,0.500949,-0.062315,-4.904461,2.850947,2.933334,3.184826,3.612540,-4.499252,0.050686,0.023039,0.000000,0.302412,0.502722,0.000000
3.600000,0.423961,0.079161,-1.388926,1.848521,0.277889,-0.191703,-0.276359,0.529613,-0.033206,-4.871528,2.888404,2.885189,3.568466,3.581212,-5.133709,0.053732,0.028069,0.000000,0.307442,0.502020,0.000000
3.610000,0.442432,0.081966,-1.390845,1.845514,0.283329,-0.191891,-0.324920,0.558717,-0.004611,-4.833092,2.922571,2.830660,4.433794,2.690018,-5.744569,0.056835,0.033094,0.000000,0.312069,0.500627,-0.000000
3.620000,0.460871,0.084827,-1.392764,1.842023,0.289063,-0.191796,-0.373021,0.588064,0.023407,-4.782852,2.942205,2.770298,5.030986,2.216587,-6.268823,0.059973,0.038097,0.000000,0.315137,0.497883,0.000000
3.630000,0.479272,0.087747,-1.394680,1.838053,0.295090,-0.191423,-0.420577,0.617561,0.050795,-4.732472,2.966903,2.705283,4.938546,2.887369,-6.711709,0.063137,0.043069,0.000000,0.318629,0.494961,-0.000000
3.640000,0.497632,0.090729,-1.396592,1.833611,0.301414,-0.190780,-0.467670,0.647402,0.077513,-4.684081,2.999952,2.636063,5.278800,2.784810,-7.153768,0.066346,0.048016,0.000000,0.322882,0.492074,-0.000000
3.650000,0.515945,0.093776,-1.398496,1.828700,0.308038,-0.189873,-0.514258,0.677560,0.103516,-4.626896,3.022599,2.562208,6.137420,1.776360,-7.620474,0.069595,0.052931,0.000000,0.325973,0.488108,-0.000000
3.660000,0.534206,0.096890,-1.400390,1.823326,0.314965,-0.188709,-0.560208,0.707854,0.128757,-4.561333,3.035479,2.483654,6.741032,1.180456,-8.053741,0.072865,0.057801,0.000000,0.327951,0.483089,0.000000
3.670000,0.552411,0.100075,-1.402270,1.817496,0.322196,-0.187298,-0.605485,0.738270,0.153189,-4.492076,3.046208,2.401133,7.245895,0.681961,-8.388372,0.076153,0.062618,0.000000,0.329591,0.477491,0.000000
3.680000,0.570556,0.103334,-1.404136,1.811216,0.329731,-0.185646,-0.650050,0.768778,0.176780,-4.416415,3.049118,2.315886,7.930141,-0.197241,-8.638947,0.079456,0.067378,0.000000,0.330312,0.471037,0.000000
3.690000,0.588635,0.106670,-1.405983,1.804495,0.337571,-0.183762,-0.693813,0.799252,0.199507,-4.333473,3.042263,2.228354,8.506679,-0.902214,-8.889245,0.082759,0.072068,0.000000,0.329912,0.463633,-0.000000
3.700000,0.606646,0.110085,-1.407811,1.797340,0.345716,-0.181656,-0.736719,0.829623,0.221347,-4.246281,3.031074,2.138102,8.908412,-1.306245,-9.161438,0.086054,0.076682,0.000000,0.328939,0.455585,-0.000000
3.710000,0.624582,0.113584,-1.409616,1.789760,0.354164,-0.179335,-0.778739,0.859873,0.242269,-4.155304,3.016139,2.045125,9.339360,-1.803155,-9.397566,0.089338,0.081213,0.000000,0.327450,0.446940,-0.000000
3.720000,0.642441,0.117169,-1.411398,1.781765,0.362913,-0.176810,-0.819825,0.889946,0.262249,-4.059494,2.995011,1.950150,9.818335,-2.447985,-9.543649,0.092603,0.085656,0.000000,0.325197,0.437593,0.000000
3.730000,0.660218,0.120842,-1.413153,1.773364,0.371962,-0.174090,-0.859929,0.919774,0.281272,-3.958938,2.967179,1.854252,10.269740,-3.099164,-9.616689,0.095841,0.090002,0.000000,0.322136,0.427566,0.000000
3.740000,0.677908,0.124608,-1.414879,1.764567,0.381309,-0.171185,-0.899004,0.949290,0.299334,-3.854099,2.933028,1.757816,10.684796,-3.714440,-9.686782,0.099045,0.094246,0.000000,0.318313,0.416914,0.000000
3.750000,0.695509,0.128468,-1.416576,1.755384,0.390948,-0.168103,-0.937011,0.978434,0.316428,-3.745242,2.892890,1.660517,11.090905,-4.324318,-9.769974,0.102207,0.098381,0.000000,0.313758,0.405666,0.000000
3.760000,0.713016,0.132427,-1.418241,1.745826,0.400877,-0.164856,-0.973909,1.007148,0.332545,-3.632281,2.846541,1.562417,11.487598,-4.947339,-9.819670,0.105320,0.102401,0.000000,0.308454,0.393819,-0.000000
3.770000,0.730425,0.136486,-1.419873,1.735906,0.411091,-0.161453,-1.009656,1.035365,0.347677,-3.515490,2.793943,1.464123,11.817773,-5.533704,-9.799590,0.108376,0.106301,0.000000,0.302405,0.381416,-0.000000
3.780000,0.747734,0.140649,-1.421470,1.725633,0.421585,-0.157903,-1.044219,1.063026,0.361827,-3.395925,2.735867,1.366425,12.076753,-6.071705,-9.725343,0.111368,0.110074,0.000000,0.295705,0.368583,0.000000
3.790000,0.764938,0.144918,-1.423031,1.715021,0.432352,-0.154216,-1.077575,1.090082,0.375005,-3.273955,2.672509,1.269616,12.340908,-6.626865,-9.645264,0.114290,0.113718,0.000000,0.288383,0.355370,-0.000000
3.800000,0.782034,0.149296,-1.424555,1.704082,0.443386,-0.150402,-1.109698,1.116477,0.387219,-3.149107,2.603330,1.173520,12.626848,-7.210954,-9.567651,0.117135,0.117228,0.000000,0.280388,0.341738,-0.000000
3.810000,0.799020,0.153785,-1.426039,1.692827,0.454681,-0.146472,-1.140557,1.142149,0.398476,-3.021418,2.528290,1.078263,12.880653,-7.775610,-9.462165,0.119897,0.120599,0.000000,0.271726,0.327701,-0.000000
3.820000,0.815891,0.158389,-1.427484,1.681271,0.466229,-0.142433,-1.170126,1.167042,0.408785,-2.891494,2.447818,0.984277,13.068639,-8.297396,-9.313991,0.122569,0.123829,0.000000,0.262453,0.313338,0.000000
3.830000,0.832645,0.163110,-1.428888,1.669425,0.478022,-0.138296,-1.198387,1.191105,0.418161,-2.760045,2.362342,0.891984,13.206605,-8.789102,-9.135344,0.125146,0.126913,0.000000,0.252625,0.298739,0.000000
3.840000,0.849279,0.167950,-1.430250,1.657303,0.490051,-0.134070,-1.225327,1.214289,0.426624,-2.627362,2.272036,0.801570,13.335418,-9.275241,-8.947360,0.127622,0.129850,0.000000,0.242271,0.283947,-0.000000
3.850000,0.865791,0.172911,-1.431569,1.644918,0.502308,-0.129763,-1.250934,1.236546,0.434193,-2.493337,2.176837,0.713036,13.465554,-9.763283,-8.750802,0.129991,0.132638,0.000000,0.231393,0.268963,0.000000
3.860000,0.882178,0.177996,-1.432845,1.632284,0.514782,-0.125386,-1.275194,1.257826,0.440885,-2.358051,2.076770,0.626554,13.568983,-10.234134,-8.534626,0.132249,0.135275,0.000000,0.220003,0.253806,-0.000000
3.870000,0.898437,0.183207,-1.434077,1.619414,0.527464,-0.120946,-1.298095,1.278081,0.446724,-2.221957,1.972155,0.542344,13.616569,-10.659971,-8.303121,0.134391,0.137759,0.000000,0.208146,0.238539,0.000000
3.880000,0.914566,0.188545,-1.435264,1.606322,0.540344,-0.116451,-1.319633,1.297269,0.451732,-2.085720,1.863571,0.460491,13.616156,-11.043589,-8.063316,0.136412,0.140089,0.000000,0.195887,0.223239,0.000000
3.890000,0.930563,0.194013,-1.436406,1.593022,0.553410,-0.111911,-1.339809,1.315353,0.455933,-1.949634,1.751283,0.381078,13.605901,-11.419161,-7.812011,0.138309,0.142265,0.000000,0.183264,0.207949,0.000000
3.900000,0.946427,0.199613,-1.437503,1.579526,0.566651,-0.107333,-1.358626,1.332295,0.459353,-1.813602,1.635187,0.304251,13.595517,-11.797140,-7.544201,0.140078,0.144288,0.000000,0.170273,0.192669,-0.000000
3.910000,0.962154,0.205346,-1.438553,1.565849,0.580056,-0.102724,-1.376081,1.348057,0.462018,-1.677724,1.515340,0.230194,13.559436,-12.152180,-7.265512,0.141714,0.146157,0.000000,0.156930,0.177419,0.000000
3.920000,0.977744,0.211214,-1.439557,1.552005,0.593612,-0.098092,-1.392180,1.362602,0.463957,-1.542413,1.392144,0.158941,13.475411,-12.455595,-6.994158,0.143216,0.147872,0.000000,0.143281,0.162251,0.000000
3.930000,0.993194,0.217219,-1.440515,1.538006,0.607308,-0.093445,-1.406930,1.375899,0.465197,-1.408215,1.266228,0.090310,13.351605,-12.712903,-6.732039,0.144580,0.149435,0.000000,0.129394,0.147225,0.000000
3.940000,1.008504,0.223361,-1.441426,1.523866,0.621130,-0.088788,-1.420344,1.387926,0.465764,-1.275381,1.137886,0.024300,13.217829,-12.959868,-6.457978,0.145804,0.150848,0.000000,0.115300,0.132373,-0.000000
3.950000,1.023671,0.229641,-1.442291,1.509599,0.635066,-0.084130,-1.432437,1.398657,0.465683,-1.143859,1.007031,-0.038849,13.081130,-13.207332,-6.163520,0.146886,0.152111,0.000000,0.101001,0.117698,0.000000
3.960000,1.038696,0.236062,-1.443109,1.495217,0.649103,-0.079475,-1.443222,1.408067,0.464987,-1.013758,0.873739,-0.098970,12.922429,-13.429683,-5.866089,0.147824,0.153227,0.000000,0.086507,0.103218,0.000000
3.970000,1.053576,0.242623,-1.443880,1.480734,0.663228,-0.074830,-1.452713,1.416132,0.463704,-0.885410,0.738437,-0.156171,12.727110,-13.598121,-5.591454,0.148616,0.154198,0.000000,0.071865,0.088972,-0.000000
3.980000,1.068310,0.249326,-1.444605,1.466163,0.677426,-0.070201,-1.460930,1.422836,0.461863,-0.759216,0.601777,-0.210799,12.502382,-13.718951,-5.337393,0.149261,0.155026,0.000000,0.057136,0.074996,-0.000000
3.990000,1.082899,0.256172,-1.445284,1.451516,0.691684,-0.065593,-1.467897,1.428167,0.459488,-0.635363,0.464058,-0.262919,12.268669,-13.829099,-5.072644,0.149759,0.155715,0.000000,0.042353,0.061313,-0.000000
4.000000,1.097341,0.263160,-1.445917,1.436805,0.705989,-0.061011,-1.473637,1.432117,0.456605,-0.513843,0.325195,-0.312252,12.028321,-13.939052,-4.787475,0.150109,0.156267,0.000000,0.027510,0.047929,0.000000
4.010000,1.111635,0.270292,-1.446504,1.422043,0.720327,-0.056461,-1.478174,1.434671,0.453243,-0.394796,0.185277,-0.358668,11.769374,-14.023238,-4.505483,0.150309,0.156684,0.000000,0.012620,0.034860,0.000000
4.020000,1.125781,0.277567,-1.447046,1.407242,0.734683,-0.051946,-1.481533,1.435822,0.449431,-0.278455,0.044730,-0.402362,11.490488,-14.055749,-4.254092,0.150361,0.156972,0.000000,-0.002277,0.022131,0.000000
4.030000,1.139780,0.284985,-1.447543,1.392412,0.749043,-0.047472,-1.483743,1.435566,0.445196,-0.164986,-0.095838,-0.443750,11.197417,-14.044112,-4.028296,0.150264,0.157132,0.000000,-0.017126,0.009751,0.000000
4.040000,1.153630,0.292548,-1.447996,1.377567,0.763394,-0.043042,-1.484833,1.433905,0.440556,-0.054507,-0.236152,-0.482928,10.893281,-14.022138,-3.794278,0.150019,0.157169,0.000000,-0.031901,-0.002267,0.000000
4.050000,1.167331,0.300253,-1.448404,1.362716,0.777721,-0.038661,-1.484833,1.430843,0.435537,0.052879,-0.376281,-0.519636,10.577018,-13.996385,-3.542946,0.149626,0.157086,0.000000,-0.046606,-0.013910,0.000000
4.060000,1.180884,0.308102,-1.448769,1.347870,0.792011,-0.034331,-1.483775,1.426380,0.430164,0.157034,-0.516080,-0.553787,10.248652,-13.944421,-3.298738,0.149087,0.156888,0.000000,-0.061226,-0.025162,-0.000000
4.070000,1.194289,0.316093,-1.449091,1.333040,0.806249,-0.030058,-1.481692,1.420521,0.424461,0.257852,-0.655169,-0.585610,9.914046,-13.852464,-3.086173,0.148402,0.156577,0.000000,-0.075728,-0.036016,-0.000000
4.080000,1.207545,0.324227,-1.449370,1.318236,0.820421,-0.025842,-1.478618,1.413276,0.418451,0.355314,-0.793129,-0.615510,9.574800,-13.727948,-2.899096,0.147572,0.156159,0.000000,-0.090076,-0.046477,-0.000000
4.090000,1.220653,0.332502,-1.449607,1.303468,0.834514,-0.021688,-1.474586,1.404659,0.412151,0.449348,-0.929728,-0.643592,9.225353,-13.589048,-2.706829,0.146600,0.155638,0.000000,-0.104249,-0.056539,-0.000000
4.100000,1.233614,0.340917,-1.449804,1.288744,0.848514,-0.017599,-1.469631,1.394682,0.405580,0.539822,-1.064910,-0.669647,8.866054,-13.440639,-2.502078,0.145487,0.155017,0.000000,-0.118240,-0.066188,-0.000000
4.110000,1.246428,0.349472,-1.449959,1.274075,0.862408,-0.013577,-1.463790,1.383361,0.398758,0.626669,-1.198541,-0.693634,8.502377,-13.271375,-2.306374,0.144235,0.154300,0.000000,-0.132037,-0.075416,0.000000
4.120000,1.259096,0.358165,-1.450075,1.259469,0.876182,-0.009624,-1.457098,1.370711,0.391707,0.709869,-1.330338,-0.715774,8.135670,-13.070214,-2.138453,0.142846,0.153492,0.000000,-0.145615,-0.084226,0.000000
4.130000,1.271618,0.366996,-1.450152,1.244933,0.889822,-0.005743,-1.449592,1.356754,0.384443,0.789383,-1.459945,-0.736403,7.766016,-12.841329,-1.992203,0.141323,0.152598,0.000000,-0.158944,-0.092619,0.000000
4.140000,1.283994,0.375962,-1.450190,1.230477,0.903317,-0.001935,-1.441310,1.341512,0.376979,0.865189,-1.587164,-0.755618,7.394347,-12.600588,-1.843891,0.139668,0.151621,0.000000,-0.172006,-0.100598,-0.000000
4.150000,1.296227,0.385062,-1.450191,1.216107,0.916652,0.001797,-1.432288,1.325010,0.369330,0.937270,-1.711957,-0.773281,7.017460,-12.351713,-1.688550,0.137883,0.150566,0.000000,-0.184796,-0.108157,-0.000000
4.160000,1.308316,0.394295,-1.450154,1.201831,0.929817,0.005451,-1.422565,1.307273,0.361513,1.005539,-1.834199,-0.789389,6.636671,-12.085237,-1.542332,0.135972,0.149438,0.000000,-0.197303,-0.115290,0.000000
4.170000,1.320264,0.403658,-1.450082,1.187656,0.942798,0.009027,-1.412178,1.288326,0.353543,1.070003,-1.953662,-0.804127,6.265848,-11.795224,-1.417168,0.133937,0.148239,0.000000,-0.209507,-0.122001,0.000000
4.180000,1.332070,0.413151,-1.449974,1.173587,0.955583,0.012522,-1.401165,1.268200,0.345431,1.130856,-2.070103,-0.817733,5.907072,-11.486008,-1.307946,0.131782,0.146976,0.000000,-0.221386,-0.128315,-0.000000
4.190000,1.343735,0.422770,-1.449831,1.159632,0.968162,0.015936,-1.389561,1.246924,0.337188,1.188144,-2.183382,-0.830286,5.543285,-11.166848,-1.199341,0.129509,0.145651,0.000000,-0.232927,-0.134237,-0.000000
4.200000,1.355262,0.432514,-1.449655,1.145796,0.980522,0.019266,-1.377402,1.224532,0.328825,1.241721,-2.293440,-0.841720,5.168115,-10.838057,-1.088753,0.127123,0.144268,0.000000,-0.244124,-0.139754,-0.000000
4.210000,1.366651,0.442381,-1.449446,1.132084,0.992653,0.022512,-1.364726,1.201056,0.320353,1.291507,-2.400143,-0.852061,4.795014,-10.495085,-0.986152,0.124627,0.142833,0.000000,-0.254963,-0.144857,-0.000000
4.220000,1.377904,0.452367,-1.449205,1.118502,1.004543,0.025673,-1.351572,1.176529,0.311784,1.337622,-2.503342,-0.861443,4.441706,-10.141014,-0.897034,0.122024,0.141348,0.000000,-0.265432,-0.149563,0.000000
4.230000,1.389021,0.462471,-1.448932,1.105053,1.016183,0.028748,-1.337974,1.150989,0.303125,1.380341,-2.602963,-0.870002,4.105462,-9.778874,-0.817764,0.119318,0.139819,0.000000,-0.275522,-0.153901,-0.000000
4.240000,1.400005,0.472691,-1.448630,1.091742,1.027563,0.031736,-1.323965,1.124470,0.294384,1.419731,-2.698919,-0.877798,3.764653,-9.406088,-0.741016,0.116513,0.138248,0.000000,-0.285225,-0.157880,-0.000000
4.250000,1.410856,0.483023,-1.448298,1.078574,1.038673,0.034636,-1.309579,1.097010,0.285569,1.455634,-2.791085,-0.884822,3.415684,-9.022130,-0.666133,0.113614,0.136640,0.000000,-0.294529,-0.161484,-0.000000
4.260000,1.421576,0.493464,-1.447937,1.065551,1.049503,0.037447,-1.294852,1.068648,0.276687,1.488044,-2.879362,-0.891121,3.074296,-8.630415,-0.597404,0.110623,0.134998,0.000000,-0.303422,-0.164715,0.000000
4.270000,1.432167,0.504013,-1.447549,1.052677,1.060046,0.040169,-1.279818,1.039423,0.267746,1.517120,-2.963693,-0.896770,2.750022,-8.234505,-0.535273,0.107545,0.133326,0.000000,-0.311900,-0.167588,-0.000000
4.280000,1.442630,0.514665,-1.447134,1.039954,1.070292,0.042802,-1.264510,1.009375,0.258752,1.543045,-3.044052,-0.901826,2.438889,-7.834763,-0.477674,0.104385,0.131627,0.000000,-0.319958,-0.170125,0.000000
4.290000,1.452966,0.525419,-1.446693,1.027386,1.080233,0.045344,-1.248957,0.978542,0.249710,1.565898,-3.120389,-0.906324,2.130194,-7.428576,-0.423595,0.101146,0.129904,0.000000,-0.327591,-0.172335,-0.000000
4.300000,1.463178,0.536270,-1.446227,1.014975,1.089862,0.047796,-1.233192,0.946967,0.240625,1.585649,-3.192623,-0.910298,1.820339,-7.014687,-0.373741,0.097833,0.128162,0.000000,-0.334790,-0.174215,0.000000
4.310000,1.473266,0.547216,-1.445737,1.002723,1.099172,0.050157,-1.217244,0.914690,0.231504,1.602304,-3.260682,-0.913799,1.517410,-6.596445,-0.328066,0.094450,0.126403,0.000000,-0.341548,-0.175767,0.000000
4.320000,1.483232,0.558253,-1.445224,0.990630,1.108156,0.052426,-1.201146,0.881753,0.222349,1.615997,-3.324552,-0.916859,1.233034,-6.180480,-0.283555,0.091002,0.124631,0.000000,-0.347862,-0.177005,0.000000
4.330000,1.493078,0.569379,-1.444688,0.978700,1.116807,0.054604,-1.184924,0.848199,0.213167,1.626965,-3.384292,-0.919470,0.965668,-5.767307,-0.239441,0.087493,0.122849,0.000000,-0.353737,-0.177954,0.000000
4.340000,1.502806,0.580589,-1.444132,0.966932,1.125120,0.056690,-1.168606,0.814067,0.203960,1.635310,-3.439898,-0.921648,0.700688,-5.349911,-0.199120,0.083928,0.121058,0.000000,-0.359172,-0.178626,-0.000000
4.350000,1.512417,0.591881,-1.443554,0.955328,1.133089,0.058683,-1.152218,0.779401,0.194734,1.640979,-3.491290,-0.923452,0.434361,-4.925953,-0.164101,0.080310,0.119263,0.000000,-0.364158,-0.179015,-0.000000
4.360000,1.521913,0.603251,-1.442958,0.943887,1.140708,0.060584,-1.135787,0.744241,0.185491,1.643998,-3.538417,-0.924930,0.177168,-4.501683,-0.131400,0.076644,0.117467,0.000000,-0.368691,-0.179125,-0.000000
4.370000,1.531295,0.614695,-1.442343,0.932612,1.147974,0.062393,-1.119338,0.708632,0.176235,1.644522,-3.581324,-0.926080,-0.061383,-4.085556,-0.096206,0.072936,0.115670,0.000000,-0.372773,-0.178973,0.000000
4.380000,1.540565,0.626211,-1.441710,0.921501,1.154881,0.064109,-1.102896,0.672615,0.166969,1.642770,-3.620129,-0.926854,-0.284063,-3.677045,-0.058761,0.069189,0.113878,0.000000,-0.376417,-0.178581,0.000000
4.390000,1.549725,0.637793,-1.441061,0.910554,1.161426,0.065732,-1.086483,0.636230,0.157698,1.638841,-3.654865,-0.927256,-0.502728,-3.266641,-0.024783,0.065408,0.112090,0.000000,-0.379625,-0.177960,0.000000
4.400000,1.558776,0.649439,-1.440395,0.899771,1.167605,0.067263,-1.070119,0.599518,0.148424,1.632715,-3.685461,-0.927350,-0.720150,-2.851521,0.003942,0.061597,0.110311,0.000000,-0.382390,-0.177108,-0.000000
4.410000,1.567720,0.661145,-1.439715,0.889152,1.173416,0.068701,-1.053828,0.562521,0.139151,1.624438,-3.711895,-0.927177,-0.928068,-2.439413,0.031838,0.057760,0.108541,0.000000,-0.384711,-0.176032,0.000000
4.420000,1.576559,0.672907,-1.439021,0.878694,1.178856,0.070046,-1.037631,0.525280,0.129881,1.614154,-3.734250,-0.926713,-1.119395,-2.039611,0.064172,0.053902,0.106784,0.000000,-0.386595,-0.174746,-0.000000
4.430000,1.585294,0.684722,-1.438314,0.868399,1.183922,0.071298,-1.021545,0.487836,0.120617,1.602050,-3.752687,-0.925893,-1.296497,-1.650944,0.100104,0.050028,0.105041,0.000000,-0.388060,-0.173270,-0.000000
4.440000,1.593927,0.696586,-1.437595,0.858264,1.188613,0.072458,-1.005590,0.450226,0.111363,1.588224,-3.767269,-0.924711,-1.468379,-1.262588,0.133254,0.046141,0.103314,0.000000,-0.389112,-0.171613,-0.000000
4.450000,1.602459,0.708495,-1.436865,0.848287,1.192926,0.073526,-0.989781,0.412490,0.102122,1.572683,-3.777939,-0.923228,-1.637059,-0.871480,0.161902,0.042246,0.101605,0.000000,-0.389746,-0.169779,-0.000000
4.460000,1.610893,0.720444,-1.436125,0.838468,1.196862,0.074501,-0.974136,0.374667,0.092898,1.555483,-3.784698,-0.921473,-1.796430,-0.485996,0.190768,0.038346,0.099916,0.000000,-0.389964,-0.167773,0.000000
4.470000,1.619229,0.732432,-1.435375,0.828804,1.200420,0.075384,-0.958671,0.336796,0.083693,1.536754,-3.787659,-0.919413,-1.941696,-0.115555,0.224678,0.034447,0.098247,0.000000,-0.389778,-0.165609,0.000000
4.480000,1.627469,0.744453,-1.434617,0.819295,1.203598,0.076174,-0.943401,0.298914,0.074510,1.516649,-3.787009,-0.916979,-2.074800,0.241429,0.262535,0.030551,0.096602,0.000000,-0.389208,-0.163302,-0.000000
4.490000,1.635615,0.756504,-1.433852,0.809936,1.206398,0.076874,-0.928338,0.261056,0.065353,1.495258,-3.782830,-0.914162,-2.201981,0.596217,0.298419,0.026663,0.094980,0.000000,-0.388263,-0.160863,-0.000000
4.500000,1.643668,0.768581,-1.433080,0.800728,1.208819,0.077482,-0.913496,0.223257,0.056227,1.472609,-3.775085,-0.911011,-2.324523,0.951891,0.330876,0.022786,0.093383,0.000000,-0.386942,-0.158296,-0.000000
4.510000,1.651629,0.780680,-1.432302,0.791666,1.210863,0.077998,-0.898886,0.185554,0.047133,1.448767,-3.763793,-0.907545,-2.438390,1.300029,0.364160,0.018924,0.091813,0.000000,-0.385248,-0.155607,0.000000
4.520000,1.659501,0.792798,-1.431520,0.782750,1.212530,0.078424,-0.884520,0.147982,0.038076,1.423841,-3.749084,-0.903728,-2.540805,1.631695,0.402205,0.015081,0.090271,0.000000,-0.383196,-0.152809,0.000000
4.530000,1.667284,0.804931,-1.430734,0.773976,1.213823,0.078760,-0.870409,0.110573,0.029059,1.397951,-3.731159,-0.899500,-2.633207,1.948740,0.443908,0.011260,0.088757,0.000000,-0.380808,-0.149913,-0.000000
4.540000,1.674980,0.817075,-1.429945,0.765342,1.214742,0.079005,-0.856561,0.073358,0.020086,1.371177,-3.710110,-0.894850,-2.719396,2.262063,0.484386,0.007465,0.087272,0.000000,-0.378096,-0.146929,0.000000
4.550000,1.682591,0.829226,-1.429154,0.756845,1.215290,0.079162,-0.842986,0.036370,0.011162,1.343563,-3.685917,-0.889813,-2.800083,2.574541,0.522508,0.003698,0.085818,0.000000,-0.375059,-0.143861,-0.000000
4.560000,1.690117,0.841380,-1.428361,0.748482,1.215469,0.079229,-0.829690,-0.000360,0.002290,1.315176,-3.658619,-0.884400,-2.872990,2.878261,0.561697,-0.000037,0.084395,0.000000,-0.371704,-0.140717,-0.000000
4.570000,1.697561,0.853535,-1.427569,0.740251,1.215283,0.079207,-0.816682,-0.036802,-0.006526,1.286104,-3.628352,-0.878579,-2.936946,3.165270,0.604899,-0.003736,0.083003,0.000000,-0.368047,-0.137507,0.000000
4.580000,1.704922,0.865686,-1.426777,0.732148,1.214733,0.079098,-0.803968,-0.072927,-0.015282,1.256437,-3.595313,-0.872302,-2.992928,3.437502,0.651140,-0.007398,0.081645,0.000000,-0.364110,-0.134240,0.000000
4.590000,1.712204,0.877830,-1.425987,0.724172,1.213824,0.078902,-0.791553,-0.108708,-0.023972,1.226245,-3.559602,-0.865556,-3.042769,3.704847,0.696715,-0.011018,0.080319,0.000000,-0.359906,-0.130923,-0.000000
4.600000,1.719406,0.889962,-1.425199,0.716317,1.212559,0.078619,-0.779443,-0.144119,-0.032593,1.195581,-3.521216,-0.858367,-3.086758,3.969823,0.740798,-0.014596,0.079026,0.000000,-0.355435,-0.127563,0.000000
4.610000,1.726530,0.902081,-1.424415,0.708583,1.210942,0.078250,-0.767642,-0.179133,-0.041140,1.164510,-3.480206,-0.850740,-3.124005,4.225448,0.785901,-0.018127,0.077767,0.000000,-0.350706,-0.124166,-0.000000
4.620000,1.733577,0.914181,-1.423634,0.700965,1.208976,0.077796,-0.756153,-0.213723,-0.049608,1.133101,-3.436707,-0.842649,-3.154466,4.465097,0.834099,-0.021610,0.076542,0.000000,-0.345735,-0.120740,0.000000
4.630000,1.740549,0.926260,-1.422859,0.693460,1.206667,0.077258,-0.744980,-0.247867,-0.057993,1.101421,-3.390904,-0.834058,-3.178740,4.690644,0.884646,-0.025042,0.075352,0.000000,-0.340543,-0.117291,-0.000000
4.640000,1.747447,0.938315,-1.422089,0.686065,1.204019,0.076636,-0.734125,-0.281541,-0.066289,1.069527,-3.342895,-0.824956,-3.197262,4.910489,0.934842,-0.028421,0.074196,0.000000,-0.335141,-0.113826,0.000000
4.650000,1.754271,0.950341,-1.421326,0.678777,1.201037,0.075932,-0.723589,-0.314725,-0.074492,1.037475,-3.292694,-0.815361,-3.209909,5.126687,0.984042,-0.031745,0.073074,0.000000,-0.329533,-0.110351,0.000000
4.660000,1.761022,0.962335,-1.420570,0.671593,1.197725,0.075146,-0.713375,-0.347395,-0.082596,1.005328,-3.240361,-0.805275,-3.216749,5.333465,1.034041,-0.035011,0.071987,0.000000,-0.323728,-0.106873,-0.000000
4.670000,1.767702,0.974295,-1.419823,0.664510,1.194089,0.074280,-0.703483,-0.379532,-0.090597,0.973140,-3.186025,-0.794680,-3.218867,5.525746,1.086277,-0.038219,0.070935,0.000000,-0.317739,-0.103396,0.000000
4.680000,1.774312,0.986217,-1.419085,0.657524,1.190134,0.073334,-0.693912,-0.411116,-0.098490,0.940951,-3.129846,-0.783550,-3.216586,5.705252,1.140145,-0.041366,0.069918,0.000000,-0.311586,-0.099926,0.000000
4.690000,1.780853,0.998098,-1.418356,0.650631,1.185866,0.072310,-0.684664,-0.442129,-0.106268,0.908809,-3.071920,-0.771877,-3.208849,5.878550,1.193714,-0.044451,0.068935,0.000000,-0.305280,-0.096467,-0.000000
4.700000,1.787325,1.009934,-1.417639,0.643830,1.181291,0.071209,-0.675736,-0.472554,-0.113927,0.876774,-3.012275,-0.759676,-3.195433,6.047155,1.246510,-0.047472,0.067987,0.000000,-0.298825,-0.093025,0.000000
4.710000,1.793730,1.021724,-1.416932,0.637117,1.176415,0.070032,-0.667128,-0.502374,-0.121462,0.844900,-2.950977,-0.746947,-3.177397,6.206720,1.299731,-0.050428,0.067072,0.000000,-0.292230,-0.089606,0.000000
4.720000,1.800067,1.033463,-1.416238,0.630488,1.171244,0.068780,-0.658838,-0.531573,-0.128866,0.813226,-2.888140,-0.733681,-3.155840,6.353760,1.354389,-0.053317,0.066192,0.000000,-0.285507,-0.086214,0.000000
4.730000,1.806339,1.045149,-1.415557,0.623940,1.165784,0.067454,-0.650864,-0.560137,-0.136135,0.781783,-2.823901,-0.719860,-3.130639,6.489685,1.410065,-0.056138,0.065346,0.000000,-0.278671,-0.082852,-0.000000
4.740000,1.812546,1.056778,-1.414889,0.617470,1.160041,0.066057,-0.643202,-0.588051,-0.143264,0.750613,-2.758347,-0.705480,-3.100808,6.619179,1.465284,-0.058890,0.064533,0.000000,-0.271733,-0.079523,-0.000000
4.750000,1.818689,1.068349,-1.414235,0.611076,1.154023,0.064589,-0.635851,-0.615304,-0.150245,0.719767,-2.691518,-0.690554,-3.066697,6.743336,1.519615,-0.061573,0.063752,0.000000,-0.264697,-0.076234,-0.000000
4.760000,1.824768,1.079859,-1.413597,0.604753,1.147735,0.063052,-0.628807,-0.641882,-0.157075,0.689279,-2.623480,-0.675087,-3.029234,6.859195,1.573943,-0.064184,0.063005,0.000000,-0.257572,-0.072987,0.000000
4.770000,1.830784,1.091304,-1.412974,0.598500,1.141185,0.061447,-0.622066,-0.667774,-0.163747,0.659182,-2.554334,-0.659075,-2.988001,6.964522,1.629013,-0.066724,0.062290,0.000000,-0.250367,-0.069786,-0.000000
4.780000,1.836738,1.102683,-1.412368,0.592312,1.134380,0.059777,-0.615623,-0.692969,-0.170256,0.629519,-2.484190,-0.642507,-2.943022,7.060470,1.684450,-0.069192,0.061606,0.000000,-0.243095,-0.066634,-0.000000
4.790000,1.842630,1.113992,-1.411779,0.586187,1.127326,0.058042,-0.609475,-0.717457,-0.176597,0.600322,-2.413124,-0.625386,-2.895322,7.150234,1.739139,-0.071586,0.060954,0.000000,-0.235763,-0.063534,0.000000
4.800000,1.848461,1.125229,-1.411207,0.580123,1.120030,0.056245,-0.603617,-0.741231,-0.182764,0.571613,-2.341185,-0.607724,-2.844270,7.234141,1.792715,-0.073907,0.060332,0.000000,-0.228378,-0.060489,-0.000000
4.810000,1.854232,1.136392,-1.410654,0.574115,1.112501,0.054387,-0.598043,-0.764281,-0.188751,0.543436,-2.268442,-0.589532,-2.789539,7.310326,1.845750,-0.076154,0.059741,0.000000,-0.220946,-0.057504,-0.000000
4.820000,1.859944,1.147479,-1.410120,0.568162,1.104745,0.052470,-0.592748,-0.786600,-0.194554,0.515822,-2.194978,-0.570809,-2.733951,7.378696,1.898803,-0.078326,0.059179,0.000000,-0.213475,-0.054579,0.000000
4.830000,1.865596,1.158487,-1.409605,0.562260,1.096769,0.050496,-0.587727,-0.808181,-0.200168,0.488757,-2.120868,-0.551556,-2.678016,7.440150,1.951579,-0.080423,0.058646,0.000000,-0.205974,-0.051715,-0.000000
4.840000,1.871189,1.169415,-1.409110,0.556407,1.088581,0.048467,-0.582973,-0.829017,-0.205586,0.462262,-2.046175,-0.531778,-2.618171,7.495114,2.003179,-0.082446,0.058141,0.000000,-0.198448,-0.048912,0.000000
4.850000,1.876724,1.180259,-1.408635,0.550601,1.080189,0.046384,-0.578482,-0.849104,-0.210803,0.436394,-1.970965,-0.511492,-2.553703,7.543674,2.053364,-0.084392,0.057664,0.000000,-0.190903,-0.046176,-0.000000
4.860000,1.882201,1.191018,-1.408182,0.544838,1.071599,0.044251,-0.574245,-0.868437,-0.215815,0.411188,-1.895302,-0.490710,-2.487335,7.585878,2.102548,-0.086264,0.057214,0.000000,-0.183345,-0.043511,-0.000000
4.870000,1.887621,1.201691,-1.407750,0.539116,1.062820,0.042068,-0.570258,-0.887010,-0.220617,0.386647,-1.819248,-0.469441,-2.420796,7.621975,2.150954,-0.088059,0.056791,0.000000,-0.175781,-0.040916,0.000000
4.880000,1.892983,1.212275,-1.407341,0.533432,1.053859,0.039838,-0.566512,-0.904821,-0.225204,0.362772,-1.742862,-0.447691,-2.353291,7.652218,2.198310,-0.089779,0.056393,0.000000,-0.168215,-0.038390,-0.000000
4.890000,1.898289,1.222768,-1.406953,0.527785,1.044724,0.037564,-0.563002,-0.921867,-0.229571,0.339582,-1.666203,-0.425475,-2.283025,7.676702,2.244092,-0.091424,0.056020,0.000000,-0.160653,-0.035937,0.000000
4.900000,1.903539,1.233169,-1.406589,0.522172,1.035422,0.035247,-0.559721,-0.938146,-0.233714,0.317111,-1.589328,-0.402810,-2.210560,7.695402,2.288177,-0.092993,0.055671,0.000000,-0.153099,-0.033558,-0.000000
4.910000,1.908733,1.243476,-1.406249,0.516591,1.025961,0.032890,-0.556660,-0.953654,-0.237627,0.295370,-1.512295,-0.379711,-2.137236,7.708572,2.330735,-0.094486,0.055346,0.000000,-0.145558,-0.031254,0.000000
4.920000,1.913871,1.253688,-1.405932,0.511039,1.016349,0.030494,-0.553813,-0.968391,-0.241308,0.274367,-1.435157,-0.356195,-2.061892,7.717028,2.371650,-0.095904,0.055043,0.000000,-0.138035,-0.029027,0.000000
4.930000,1.918953,1.263803,-1.405639,0.505515,1.006593,0.028063,-0.551173,-0.982357,-0.244751,0.254132,-1.357955,-0.332278,-1.984237,7.721076,2.410680,-0.097247,0.054762,0.000000,-0.130532,-0.026878,-0.000000
4.940000,1.923981,1.273820,-1.405370,0.500016,0.996701,0.025599,-0.548731,-0.995551,-0.247954,0.234682,-1.280735,-0.307981,-1.906265,7.719988,2.447760,-0.098515,0.054503,0.000000,-0.123053,-0.024808,0.000000
4.950000,1.928954,1.283737,-1.405127,0.494540,0.986682,0.023104,-0.546479,-1.007972,-0.250911,0.216007,-1.203555,-0.283323,-1.827866,7.713121,2.482979,-0.099708,0.054264,0.000000,-0.115601,-0.022818,0.000000
4.960000,1.933872,1.293554,-1.404908,0.489086,0.976542,0.020581,-0.544411,-1.019622,-0.253620,0.198124,-1.126473,-0.258322,-1.747914,7.701337,2.516176,-0.100827,0.054044,0.000000,-0.108183,-0.020908,0.000000
4.970000,1.938736,1.303268,-1.404715,0.483652,0.966289,0.018032,-0.542517,-1.030501,-0.256077,0.181049,-1.049528,-0.233000,-1.667850,7.686950,2.546712,-0.101871,0.053843,0.000000,-0.100799,-0.019078,0.000000
4.980000,1.943545,1.312880,-1.404548,0.478236,0.955932,0.015460,-0.540790,-1.040612,-0.258280,0.164767,-0.972734,-0.207387,-1.588336,7.670037,2.574433,-0.102843,0.053661,0.000000,-0.093450,-0.017329,-0.000000
4.990000,1.948300,1.322387,-1.404406,0.472836,0.945477,0.012866,-0.539221,-1.049956,-0.260225,0.149282,-0.896128,-0.181511,-1.507551,7.647850,2.599962,-0.103740,0.053495,0.000000,-0.086138,-0.015659,-0.000000
5.000000,1.953002,1.331789,-1.404290,0.467451,0.934933,0.010255,-0.537804,-1.058535,-0.261910,0.134616,-0.819777,-0.155388,-1.425128,7.619773,2.623618,-0.104565,0.053346,0.000000,-0.078868,-0.014072,-0.000000
5.010000,1.957649,1.341086,-1.404201,0.462080,0.924306,0.007628,-0.536529,-1.066352,-0.263333,0.120780,-0.743732,-0.129039,-1.342544,7.587964,2.644777,-0.105318,0.053212,0.000000,-0.071644,-0.012566,-0.000000
5.020000,1.962243,1.350275,-1.404138,0.456721,0.913606,0.004988,-0.535388,-1.073409,-0.264491,0.107766,-0.668018,-0.102493,-1.260676,7.554236,2.662256,-0.105998,0.053093,0.000000,-0.064466,-0.011143,0.000000
5.030000,1.966784,1.359358,-1.404101,0.451372,0.902838,0.002338,-0.534374,-1.079712,-0.265383,0.095566,-0.592647,-0.075793,-1.179202,7.518163,2.676024,-0.106607,0.052988,0.000000,-0.057333,-0.009800,-0.000000
5.040000,1.971271,1.368332,-1.404091,0.446033,0.892012,-0.000319,-0.533477,-1.085262,-0.266007,0.084182,-0.517654,-0.048972,-1.097355,7.477689,2.687437,-0.107145,0.052896,0.000000,-0.050248,-0.008539,-0.000000
5.050000,1.975704,1.377198,-1.404107,0.440703,0.881133,-0.002982,-0.532690,-1.090065,-0.266362,0.073619,-0.443094,-0.022045,-1.015051,7.432226,2.697089,-0.107612,0.052816,0.000000,-0.043214,-0.007358,-0.000000
5.060000,1.980085,1.385955,-1.404150,0.435379,0.870210,-0.005646,-0.532005,-1.094124,-0.266448,0.063881,-0.369010,0.004970,-0.932925,7.383439,2.703881,-0.108009,0.052748,0.000000,-0.036234,-0.006259,-0.000000
5.070000,1.984412,1.394602,-1.404220,0.430063,0.859251,-0.008311,-0.531412,-1.097445,-0.266263,0.054961,-0.295425,0.032033,-0.851542,7.333386,2.706026,-0.108337,0.052690,0.000000,-0.029308,-0.005241,0.000000
5.080000,1.988686,1.403140,-1.404317,0.424751,0.848261,-0.010972,-0.530905,-1.100033,-0.265807,0.046850,-0.222342,0.059090,-0.770864,7.281808,2.703644,-0.108595,0.052642,0.000000,-0.022434,-0.004303,0.000000
5.090000,1.992907,1.411567,-1.404440,0.419445,0.837250,-0.013627,-0.530475,-1.101892,-0.265081,0.039543,-0.149789,0.086106,-0.690485,7.226157,2.698924,-0.108786,0.052604,0.000000,-0.015614,-0.003445,0.000000
5.100000,1.997075,1.419885,-1.404589,0.414142,0.826224,-0.016273,-0.530115,-1.103029,-0.264085,0.033040,-0.077819,0.113069,-0.610297,7.165587,2.692677,-0.108908,0.052573,0.000000,-0.008851,-0.002666,-0.000000
5.110000,2.001190,1.428092,-1.404765,0.408842,0.815189,-0.018909,-0.529815,-1.103448,-0.262820,0.027337,-0.006477,0.139959,-0.530714,7.102056,2.683282,-0.108963,0.052550,0.000000,-0.002148,-0.001966,-0.000000
5.120000,2.005252,1.436189,-1.404967,0.403545,0.804155,-0.021530,-0.529568,-1.103158,-0.261286,0.022426,0.064222,0.166734,-0.452435,7.037927,2.668474,-0.108951,0.052534,0.000000,0.004495,-0.001344,-0.000000
5.130000,2.009261,1.444175,-1.405196,0.398251,0.793126,-0.024134,-0.529366,-1.102164,-0.259485,0.018289,0.134282,0.193329,-0.375485,6.972783,2.648546,-0.108873,0.052523,0.000000,0.011081,-0.000800,0.000000
5.140000,2.013217,1.452051,-1.405450,0.392958,0.782111,-0.026719,-0.529202,-1.100472,-0.257419,0.014916,0.203678,0.219705,-0.299141,6.903696,2.626403,-0.108729,0.052517,0.000000,0.017609,-0.000332,0.000000
5.150000,2.017120,1.459817,-1.405730,0.387667,0.771117,-0.029283,-0.529068,-1.098090,-0.255091,0.012306,0.272355,0.245857,-0.223273,6.829902,2.603072,-0.108520,0.052516,0.000000,0.024075,0.000061,-0.000000
5.160000,2.020970,1.467473,-1.406036,0.382377,0.760149,-0.031821,-0.528956,-1.095025,-0.252502,0.010451,0.340276,0.271767,-0.148520,6.753512,2.576471,-0.108248,0.052519,0.000000,0.030477,0.000378,-0.000000
5.170000,2.024767,1.475020,-1.406367,0.377088,0.749216,-0.034333,-0.528859,-1.091285,-0.249656,0.009335,0.407426,0.297386,-0.075492,6.676532,2.543984,-0.107911,0.052524,0.000000,0.036814,0.000621,-0.000000
5.180000,2.028512,1.482458,-1.406722,0.371800,0.738324,-0.036814,-0.528769,-1.086877,-0.246554,0.008941,0.473806,0.322646,-0.004129,6.598444,2.506116,-0.107511,0.052531,0.000000,0.043089,0.000791,0.000000
5.190000,2.032203,1.489787,-1.407103,0.366512,0.727479,-0.039264,-0.528680,-1.081809,-0.243203,0.009253,0.539395,0.347509,0.066171,6.516739,2.466281,-0.107049,0.052540,0.000000,0.049301,0.000890,0.000000
5.200000,2.035842,1.497007,-1.407508,0.361226,0.716688,-0.041678,-0.528584,-1.076089,-0.239604,0.010264,0.604141,0.371972,0.135541,6.430604,2.425594,-0.106525,0.052549,0.000000,0.055446,0.000918,0.000000
5.210000,2.039428,1.504120,-1.407936,0.355941,0.705957,-0.044056,-0.528475,-1.069726,-0.235763,0.011964,0.668007,0.396021,0.203425,6.341809,2.381713,-0.105940,0.052558,0.000000,0.061522,0.000876,-0.000000
5.220000,2.042961,1.511126,-1.408389,0.350656,0.695293,-0.046394,-0.528345,-1.062729,-0.231684,0.014333,0.730977,0.419606,0.269222,6.252512,2.331909,-0.105295,0.052567,0.000000,0.067528,0.000765,0.000000
5.230000,2.046441,1.518026,-1.408864,0.345374,0.684702,-0.048690,-0.528188,-1.055106,-0.227371,0.017348,0.793057,0.442659,0.332998,6.162283,2.276826,-0.104590,0.052574,0.000000,0.073466,0.000587,0.000000
5.240000,2.049868,1.524821,-1.409363,0.340093,0.674191,-0.050941,-0.527998,-1.046868,-0.222831,0.020993,0.854223,0.465143,0.395350,6.068294,2.220114,-0.103825,0.052579,0.000000,0.079335,0.000345,-0.000000
5.250000,2.053243,1.531510,-1.409883,0.334814,0.663765,-0.053146,-0.527768,-1.038022,-0.218068,0.025255,0.914423,0.487061,0.456384,5.969637,2.162900,-0.103003,0.052581,0.000000,0.085130,0.000037,-0.000000
5.260000,2.056565,1.538096,-1.410426,0.329537,0.653430,-0.055302,-0.527493,-1.028579,-0.213089,0.030120,0.973616,0.508401,0.515576,5.868257,2.102764,-0.102123,0.052579,0.000000,0.090849,-0.000333,-0.000000
5.270000,2.059834,1.544579,-1.410989,0.324264,0.643193,-0.057408,-0.527166,-1.018550,-0.207900,0.035567,1.031788,0.529116,0.572401,5.766312,2.037116,-0.101186,0.052574,0.000000,0.096491,-0.000765,-0.000000
5.280000,2.063050,1.550960,-1.411574,0.318994,0.633060,-0.059460,-0.526781,-1.007943,-0.202507,0.041568,1.088942,0.549143,0.626902,5.663254,1.966707,-0.100193,0.052564,0.000000,0.102056,-0.001256,-0.000000
5.290000,2.066214,1.557240,-1.412178,0.313728,0.623035,-0.061458,-0.526334,-0.996771,-0.196917,0.048105,1.145053,0.568450,0.679604,5.556234,1.895116,-0.099145,0.052549,0.000000,0.107544,-0.001805,-0.000000
5.300000,2.069324,1.563420,-1.412803,0.308467,0.613124,-0.063399,-0.525819,-0.985042,-0.191138,0.055160,1.200067,0.587045,0.730655,5.444347,1.823325,-0.098042,0.052528,0.000000,0.112949,-0.002411,-0.000000
5.310000,2.072383,1.569502,-1.413446,0.303212,0.603334,-0.065281,-0.525231,-0.972769,-0.185176,0.062718,1.253940,0.604917,0.779592,5.329449,1.749009,-0.096886,0.052500,0.000000,0.118267,-0.003072,0.000000
5.320000,2.075389,1.575487,-1.414108,0.297963,0.593669,-0.067102,-0.524565,-0.959964,-0.179040,0.070752,1.306656,0.622025,0.825850,5.213558,1.670098,-0.095676,0.052466,0.000000,0.123496,-0.003785,-0.000000
5.330000,2.078342,1.581376,-1.414788,0.292721,0.584134,-0.068862,-0.523816,-0.946636,-0.172736,0.079235,1.358211,0.638319,0.869477,5.096110,1.587424,-0.094416,0.052424,0.000000,0.128638,-0.004549,-0.000000
5.340000,2.081243,1.587170,-1.415486,0.287486,0.574736,-0.070557,-0.522980,-0.932799,-0.166273,0.088142,1.408578,0.653774,0.911058,4.974396,1.503955,-0.093104,0.052374,0.000000,0.133688,-0.005362,-0.000000
5.350000,2.084092,1.592870,-1.416200,0.282261,0.565478,-0.072187,-0.522053,-0.918465,-0.159660,0.097456,1.457699,0.668398,0.950639,4.847410,1.420469,-0.091742,0.052316,0.000000,0.138642,-0.006221,-0.000000
5.360000,2.086888,1.598479,-1.416929,0.277045,0.556367,-0.073750,-0.521031,-0.903645,-0.152905,0.107155,1.505526,0.682183,0.987736,4.716853,1.335163,-0.090331,0.052250,0.000000,0.143494,-0.007126,-0.000000
5.370000,2.089633,1.603998,-1.417675,0.271840,0.547406,-0.075245,-0.519910,-0.888354,-0.146017,0.117211,1.552036,0.695101,1.022087,4.585091,1.246583,-0.088872,0.052173,0.000000,0.148241,-0.008073,-0.000000
5.380000,2.092325,1.609427,-1.418434,0.266647,0.538600,-0.076671,-0.518687,-0.872605,-0.139003,0.127596,1.597228,0.707115,1.053765,4.451614,1.155467,-0.087366,0.052087,0.000000,0.152884,-0.009060,-0.000000
5.390000,2.094966,1.614770,-1.419208,0.261467,0.529953,-0.078025,-0.517358,-0.856410,-0.131874,0.138286,1.641068,0.718211,1.082970,4.313037,1.064004,-0.085814,0.051991,0.000000,0.157418,-0.010085,-0.000000
5.400000,2.097555,1.620026,-1.419995,0.256300,0.521471,-0.079308,-0.515921,-0.839783,-0.124639,0.149256,1.683489,0.728395,1.109722,4.168273,0.972683,-0.084217,0.051885,0.000000,0.161837,-0.011146,-0.000000
5.410000,2.100092,1.625199,-1.420794,0.251148,0.513158,-0.080518,-0.514373,-0.822740,-0.117307,0.160480,1.724434,0.737664,1.133786,4.019470,0.880299,-0.082577,0.051768,0.000000,0.166133,-0.012241,-0.000000
5.420000,2.102577,1.630290,-1.421605,0.246013,0.505017,-0.081654,-0.512712,-0.805295,-0.109886,0.171931,1.763878,0.746001,1.154937,3.868787,0.786251,-0.080895,0.051639,0.000000,0.170303,-0.013365,0.000000
5.430000,2.105012,1.635300,-1.422427,0.240894,0.497052,-0.082716,-0.510935,-0.787462,-0.102387,0.183579,1.801810,0.753389,1.173167,3.715417,0.691170,-0.079171,0.051499,0.000000,0.174346,-0.014518,-0.000000
5.440000,2.107395,1.640231,-1.423260,0.235794,0.489267,-0.083702,-0.509040,-0.769258,-0.094818,0.195395,1.838186,0.759824,1.188650,3.556265,0.596163,-0.077408,0.051348,0.000000,0.178255,-0.015696,-0.000000
5.450000,2.109728,1.645085,-1.424101,0.230713,0.481667,-0.084612,-0.507027,-0.750699,-0.087190,0.207352,1.872935,0.765312,1.201489,3.390623,0.501362,-0.075606,0.051185,0.000000,0.182023,-0.016896,-0.000000
5.460000,2.112010,1.649864,-1.424952,0.225653,0.474253,-0.085446,-0.504893,-0.731800,-0.079512,0.219425,1.905999,0.769852,1.211471,3.220324,0.406336,-0.073767,0.051009,0.000000,0.185643,-0.018117,-0.000000
5.470000,2.114241,1.654570,-1.425810,0.220615,0.467031,-0.086202,-0.502638,-0.712579,-0.071793,0.231581,1.937341,0.773439,1.218138,3.046506,0.311411,-0.071893,0.050821,0.000000,0.189110,-0.019354,-0.000000
5.480000,2.116422,1.659205,-1.426676,0.215601,0.460002,-0.086882,-0.500261,-0.693053,-0.064043,0.243787,1.966929,0.776080,1.221485,2.868443,0.217028,-0.069985,0.050621,0.000000,0.192418,-0.020604,0.000000
5.490000,2.118553,1.663770,-1.427548,0.210610,0.453170,-0.087483,-0.497762,-0.673240,-0.056271,0.256011,1.994710,0.777780,1.222018,2.684314,0.123099,-0.068045,0.050408,0.000000,0.195562,-0.021864,-0.000000
5.500000,2.120634,1.668268,-1.428425,0.205645,0.446537,-0.088007,-0.495141,-0.653159,-0.048487,0.268228,2.020615,0.778542,1.219755,2.493315,0.029394,-0.066074,0.050183,0.000000,0.198532,-0.023132,-0.000000
5.510000,2.122666,1.672701,-1.429308,0.200707,0.440106,-0.088453,-0.492398,-0.632828,-0.040701,0.280406,2.044576,0.778368,1.214278,2.296410,-0.063696,-0.064074,0.049945,0.000000,0.201321,-0.024405,0.000000
5.520000,2.124648,1.677070,-1.430195,0.195797,0.433880,-0.088821,-0.489533,-0.612267,-0.032920,0.292513,2.066543,0.777268,1.205479,2.095099,-0.154936,-0.062047,0.049694,0.000000,0.203921,-0.025678,0.000000
5.530000,2.126582,1.681378,-1.431084,0.190917,0.427861,-0.089111,-0.486548,-0.591497,-0.025155,0.304516,2.086478,0.775269,1.193440,1.888900,-0.244118,-0.059996,0.049430,0.000000,0.206326,-0.026948,0.000000
5.540000,2.128467,1.685627,-1.431977,0.186066,0.422051,-0.089324,-0.483443,-0.570538,-0.017415,0.316382,2.104321,0.772386,1.178137,1.675357,-0.332571,-0.057921,0.049154,0.000000,0.208530,-0.028212,0.000000
5.550000,2.130303,1.689819,-1.432871,0.181248,0.416450,-0.089460,-0.480220,-0.549410,-0.009707,0.328079,2.119986,0.768617,1.159566,1.453741,-0.420794,-0.055825,0.048865,0.000000,0.210521,-0.029466,0.000000
5.560000,2.132092,1.693956,-1.433766,0.176462,0.411062,-0.089518,-0.476881,-0.528138,-0.002042,0.339573,2.133396,0.763970,1.137712,1.225415,-0.507536,-0.053710,0.048563,0.000000,0.212290,-0.030707,-0.000000
5.570000,2.133832,1.698041,-1.434661,0.171710,0.405888,-0.089501,-0.473428,-0.506743,0.005572,0.350833,2.144494,0.758467,1.112457,0.991390,-0.590942,-0.051579,0.048250,0.000000,0.213829,-0.031931,-0.000000
5.580000,2.135526,1.702074,-1.435556,0.166993,0.400927,-0.089407,-0.469865,-0.485248,0.013127,0.361822,2.153224,0.752151,1.083779,0.750979,-0.671088,-0.049434,0.047924,0.000000,0.215131,-0.033133,-0.000000
5.590000,2.137172,1.706059,-1.436449,0.162313,0.396183,-0.089238,-0.466192,-0.463678,0.020615,0.372508,2.159513,0.745045,1.051666,0.502362,-0.750152,-0.047277,0.047586,0.000000,0.216186,-0.034312,-0.000000
5.600000,2.138772,1.709998,-1.437341,0.157670,0.391654,-0.088995,-0.462414,-0.442058,0.028028,0.382856,2.163271,0.737148,1.015873,0.244999,-0.828918,-0.045110,0.047237,0.000000,0.216983,-0.035461,-0.000000
5.610000,2.140326,1.713892,-1.438229,0.153065,0.387342,-0.088677,-0.458535,-0.420413,0.035358,0.392826,2.164413,0.728467,0.976390,-0.020235,-0.905610,-0.042937,0.046876,0.000000,0.217511,-0.036578,0.000000
5.620000,2.141833,1.717745,-1.439114,0.148499,0.383246,-0.088287,-0.454558,-0.398769,0.042597,0.402384,2.162867,0.719036,0.933710,-0.292836,-0.977804,-0.040760,0.046505,0.000000,0.217762,-0.037658,0.000000
5.630000,2.143296,1.721557,-1.439995,0.143973,0.379366,-0.087826,-0.450487,-0.377155,0.049739,0.411500,2.158557,0.708911,0.887928,-0.573333,-1.045765,-0.038582,0.046123,0.000000,0.217725,-0.038697,0.000000
5.640000,2.144713,1.725332,-1.440871,0.139489,0.375703,-0.087293,-0.446328,-0.355598,0.056775,0.420142,2.151400,0.698120,0.838241,-0.862884,-1.112422,-0.036405,0.045730,0.000000,0.217391,-0.039692,0.000000
5.650000,2.146085,1.729071,-1.441741,0.135047,0.372254,-0.086690,-0.442084,-0.334127,0.063701,0.428265,2.141299,0.686662,0.783524,-1.162293,-1.178684,-0.034234,0.045328,0.000000,0.216748,-0.040638,0.000000
5.660000,2.147414,1.732777,-1.442605,0.130647,0.369020,-0.086019,-0.437763,-0.312772,0.070509,0.435813,2.128154,0.674547,0.724324,-1.471150,-1.242354,-0.032070,0.044917,0.000000,0.215783,-0.041529,-0.000000
5.670000,2.148698,1.736452,-1.443461,0.126292,0.365999,-0.085280,-0.433368,-0.291564,0.077192,0.442751,2.111876,0.661815,0.663522,-1.788133,-1.300830,-0.029918,0.044497,0.000000,0.214487,-0.042360,-0.000000
5.680000,2.149940,1.740097,-1.444310,0.121980,0.363189,-0.084475,-0.428907,-0.270535,0.083745,0.449083,2.092391,0.648530,0.601022,-2.113773,-1.354577,-0.027781,0.044069,0.000000,0.212849,-0.043131,-0.000000
5.690000,2.151138,1.743715,-1.445151,0.117713,0.360588,-0.083605,-0.424387,-0.249716,0.090163,0.454772,2.069601,0.634724,0.532737,-2.450406,-1.406813,-0.025661,0.043634,0.000000,0.210859,-0.043839,0.000000
5.700000,2.152294,1.747309,-1.445982,0.113492,0.358194,-0.082672,-0.419812,-0.229143,0.096439,0.459738,2.043383,0.620394,0.457689,-2.797603,-1.458442,-0.023564,0.043192,0.000000,0.208501,-0.044474,0.000000
5.710000,2.153408,1.750879,-1.446804,0.109317,0.356005,-0.081676,-0.415192,-0.208849,0.102570,0.463926,2.013649,0.605555,0.378538,-3.154283,-1.507150,-0.021491,0.042744,0.000000,0.205767,-0.045030,-0.000000
5.720000,2.154480,1.754429,-1.447616,0.105189,0.354017,-0.080620,-0.410534,-0.188870,0.108551,0.467309,1.980298,0.590251,0.296769,-3.523336,-1.550487,-0.019448,0.042291,0.000000,0.202644,-0.045504,0.000000
