time,x,y,z,vx,vy,vz,ax,ay,az,jx,jy,jz,sx,sy,sz,roll,pitch,yaw,p,q,r
0.000000,-2.217184,-2.173872,-1.475166,0.016439,-0.010242,-0.000740,-0.718883,0.431646,-0.072998,18.324210,-14.291683,1.609034,-341.343689,400.831533,-36.492336,0.043533,0.072611,0.000000,-1.426672,-1.830840,0.000000
0.010000,-2.217053,-2.173955,-1.475176,0.010112,-0.006576,-0.001396,-0.551864,0.307777,-0.058639,15.161946,-10.578921,1.271929,-291.937949,342.709303,-31.022191,0.031129,0.055863,0.000000,-1.062603,-1.523664,0.000000
0.020000,-2.216977,-2.174007,-1.475193,0.005305,-0.003972,-0.001923,-0.414079,0.218228,-0.047386,12.469279,-7.418225,0.986764,-247.383738,290.368878,-26.099735,0.022115,0.041982,0.000000,-0.748142,-1.258234,0.000000
0.030000,-2.216943,-2.174037,-1.475214,0.001748,-0.002114,-0.002352,-0.301071,0.157761,-0.038748,10.198904,-4.753265,0.748203,-207.439628,243.512265,-21.696588,0.016010,0.030560,0.000000,-0.480556,-1.032134,0.000000
0.040000,-2.216939,-2.174051,-1.475240,-0.000786,-0.000736,-0.002706,-0.208843,0.121688,-0.032284,8.305925,-2.530693,0.551196,-171.864211,201.841449,-17.784430,0.012360,0.021216,0.000000,-0.256114,-0.842270,-0.000000
0.050000,-2.216956,-2.174052,-1.475268,-0.002486,0.000387,-0.003004,-0.133836,0.105841,-0.027602,6.747866,-0.700139,0.390978,-140.415638,165.058802,-14.334283,0.010757,0.013604,0.000000,-0.070627,-0.685219,0.000000
0.060000,-2.216986,-2.174043,-1.475300,-0.003510,0.001436,-0.003262,-0.072903,0.106537,-0.024357,5.484661,0.785784,0.263065,-112.852949,132.865940,-11.318389,0.010832,0.007413,0.000000,0.080225,-0.557442,0.000000
0.070000,-2.217024,-2.174023,-1.475334,-0.003982,0.002562,-0.003495,-0.023286,0.120556,-0.022247,4.478660,1.971486,0.163259,-88.934494,104.965041,-8.708091,0.012261,0.002368,0.000000,0.200698,-0.455431,0.000000
0.080000,-2.217064,-2.173991,-1.475370,-0.004005,0.003883,-0.003710,0.017410,0.145105,-0.021011,3.694629,2.898398,0.087646,-68.418787,81.058108,-6.474963,0.014759,-0.001771,0.000000,0.294879,-0.375787,-0.000000
0.090000,-2.217103,-2.173945,-1.475408,-0.003657,0.005491,-0.003917,0.051237,0.177790,-0.020425,3.099747,3.604968,0.032597,-51.064303,60.847098,-4.590553,0.018083,-0.005212,0.000000,0.366621,-0.315279,-0.000000
0.100000,-2.217136,-2.173880,-1.475448,-0.002997,0.007459,-0.004120,0.079934,0.216588,-0.020302,2.663604,4.126671,-0.005235,-36.630118,44.034505,-3.026623,0.022028,-0.008131,0.000000,0.419513,-0.270871,0.000000
0.110000,-2.217162,-2.173794,-1.475490,-0.002070,0.009838,-0.004324,0.104945,0.259816,-0.020483,2.358214,4.495993,-0.028909,-24.874116,30.321809,-1.754548,0.026422,-0.010675,0.000000,0.456862,-0.239746,0.000000
0.120000,-2.217177,-2.173682,-1.475534,-0.000907,0.012665,-0.004531,0.127448,0.306099,-0.020842,2.157999,4.742447,-0.041204,-15.555094,19.411250,-0.745988,0.031124,-0.012963,0.000000,0.481679,-0.219316,-0.000000
0.130000,-2.217179,-2.173539,-1.475581,0.000473,0.015966,-0.004741,0.148378,0.354344,-0.021277,2.039794,4.892565,-0.044613,-8.431594,11.004873,0.027457,0.036023,-0.015091,0.000000,0.496675,-0.207230,0.000000
0.140000,-2.217167,-2.173361,-1.475629,0.002058,0.019756,-0.004956,0.168448,0.403708,-0.021712,1.982853,4.969899,-0.041344,-3.262109,4.804736,0.594156,0.041033,-0.017131,0.000000,0.504258,-0.201379,0.000000
0.150000,-2.217137,-2.173143,-1.475680,0.003841,0.024042,-0.005175,0.188178,0.453568,-0.022088,1.968844,4.995021,-0.033324,0.195007,0.512902,0.982422,0.046090,-0.019137,0.000000,0.506529,-0.199896,-0.000000
0.160000,-2.217089,-2.172879,-1.475733,0.005822,0.028827,-0.005398,0.207915,0.503493,-0.022368,1.981844,4.985518,-0.022187,2.180397,-2.169110,1.221483,0.051152,-0.021143,0.000000,0.505280,-0.201162,0.000000
0.170000,-2.217020,-2.172564,-1.475788,0.008000,0.034111,-0.005622,0.227859,0.553212,-0.022526,2.008352,4.956010,-0.009296,2.936385,-3.538560,1.338739,0.056189,-0.023170,0.000000,0.502000,-0.203802,-0.000000
0.180000,-2.216929,-2.172195,-1.475845,0.010380,0.039890,-0.005848,0.248089,0.602586,-0.022552,2.037278,4.918128,0.004278,2.704126,-3.893683,1.362987,0.061189,-0.025226,0.000000,0.497867,-0.206689,-0.000000
0.190000,-2.216812,-2.171765,-1.475905,0.012963,0.046161,-0.006073,0.268584,0.651576,-0.022441,2.059945,4.880525,0.017748,1.725043,-3.532418,1.322666,0.066147,-0.027309,0.000000,0.493758,-0.208940,-0.000000
0.200000,-2.216669,-2.171270,-1.475967,0.015752,0.052921,-0.006296,0.289246,0.700216,-0.022199,2.070095,4.848873,0.030610,0.240692,-2.752854,1.246131,0.071066,-0.029410,0.000000,0.490246,-0.209921,-0.000000
0.210000,-2.216496,-2.170705,-1.476031,0.018750,0.060161,-0.006516,0.310807,0.747271,-0.021696,2.264224,4.526017,0.073766,2.452747,-7.780151,1.777039,0.075823,-0.031602,0.000000,0.457496,-0.229644,-0.000000
0.220000,-2.216293,-2.170065,-1.476097,0.021967,0.067867,-0.006730,0.331668,0.794960,-0.021161,1.786461,5.190493,0.014553,-63.009706,88.268357,-8.180243,0.080640,-0.033724,0.000000,0.523866,-0.180967,-0.000000
0.230000,-2.216056,-2.169346,-1.476165,0.025367,0.076084,-0.006941,0.348229,0.848480,-0.021134,1.738966,5.190931,0.024373,54.591447,-89.817954,10.313989,0.086038,-0.035406,0.000000,0.523458,-0.176096,0.000000
0.240000,-2.215785,-2.168542,-1.476236,0.028946,0.084812,-0.007150,0.368318,0.895909,-0.020376,2.169603,4.454531,0.110767,-3.826470,-4.544509,1.471877,0.090822,-0.037450,0.000000,0.449367,-0.219906,0.000000
0.250000,-2.215477,-2.167648,-1.476308,0.032734,0.093998,-0.007348,0.388879,0.941603,-0.019337,1.962605,4.650707,0.100431,-2.328202,-8.967919,1.934099,0.095430,-0.039542,0.000000,0.468703,-0.198851,0.000000
0.260000,-2.215130,-2.166660,-1.476383,0.036721,0.103645,-0.007536,0.408570,0.987581,-0.018236,1.979872,4.541455,0.119895,-2.204101,-10.266378,2.026674,0.100062,-0.041547,0.000000,0.457456,-0.200598,0.000000
0.270000,-2.214742,-2.165574,-1.476459,0.040904,0.113746,-0.007712,0.427831,1.032601,-0.016931,1.845070,4.469555,0.141562,-17.007714,-6.631759,2.235899,0.104596,-0.043509,0.000000,0.450089,-0.187000,-0.000000
0.280000,-2.214311,-2.164384,-1.476537,0.045273,0.124294,-0.007874,0.445835,1.076815,-0.015406,1.802429,4.355939,0.163124,8.725060,-16.160088,2.071568,0.109048,-0.045345,0.000000,0.438527,-0.182729,-0.000000
0.290000,-2.213836,-2.163086,-1.476616,0.049823,0.135277,-0.008019,0.464285,1.119552,-0.013670,1.862921,4.197710,0.184320,-4.443656,-12.922691,2.233807,0.113350,-0.047227,0.000000,0.422468,-0.188878,-0.000000
0.300000,-2.213314,-2.161677,-1.476697,0.054557,0.146681,-0.008147,0.482480,1.160935,-0.011713,1.780072,4.076027,0.207155,-4.324220,-13.947240,2.261352,0.117515,-0.049084,0.000000,0.410220,-0.180582,-0.000000
0.310000,-2.212744,-2.160151,-1.476779,0.059470,0.158491,-0.008253,0.500095,1.200999,-0.009531,1.743580,3.935819,0.229034,-4.503671,-14.673480,2.258148,0.121547,-0.050885,0.000000,0.396126,-0.176973,0.000000
0.320000,-2.212124,-2.158506,-1.476862,0.064558,0.170696,-0.008336,0.517221,1.239581,-0.007121,1.675982,3.777385,0.253597,-7.522669,-16.431003,2.509565,0.125430,-0.052637,0.000000,0.380313,-0.170257,-0.000000
0.330000,-2.211452,-2.156736,-1.476946,0.069813,0.183278,-0.008395,0.533680,1.276552,-0.004467,1.624478,3.619414,0.276185,-2.726561,-15.133812,2.000278,0.129154,-0.054323,0.000000,0.364569,-0.165169,-0.000000
0.340000,-2.210727,-2.154839,-1.477030,0.075230,0.196222,-0.008425,0.549784,1.311980,-0.001606,1.591438,3.463386,0.296407,-5.379283,-16.637112,2.184151,0.132723,-0.055975,0.000000,0.349026,-0.161942,0.000000
0.350000,-2.209947,-2.152811,-1.477114,0.080806,0.209512,-0.008426,0.565387,1.345758,0.001470,1.529751,3.291790,0.318589,-5.455268,-17.096820,2.106093,0.136128,-0.057579,0.000000,0.332026,-0.155856,-0.000000
0.360000,-2.209110,-2.150648,-1.477198,0.086536,0.223131,-0.008395,0.580415,1.377819,0.004756,1.475741,3.119699,0.338322,-5.573682,-17.507115,1.999964,0.139364,-0.059125,0.000000,0.314990,-0.150541,-0.000000
0.370000,-2.208216,-2.148347,-1.477282,0.092413,0.237062,-0.008330,0.594879,1.408124,0.008246,1.416237,2.940050,0.360021,-6.098478,-18.221957,2.179026,0.142426,-0.060617,0.000000,0.297282,-0.144699,-0.000000
0.380000,-2.207262,-2.145906,-1.477365,0.098431,0.251287,-0.008229,0.608747,1.436618,0.011945,1.358568,2.759459,0.378532,-5.424101,-17.880560,1.515358,0.145309,-0.062050,0.000000,0.279482,-0.139034,0.000000
0.390000,-2.206247,-2.143320,-1.477447,0.104586,0.265789,-0.008091,0.622060,1.463314,0.015803,1.303293,2.578780,0.393460,-5.853826,-18.437811,1.626568,0.148015,-0.063428,0.000000,0.261661,-0.133598,0.000000
0.400000,-2.205170,-2.140589,-1.477527,0.110871,0.280548,-0.007913,0.634794,1.488171,0.019821,1.243489,2.392519,0.409657,-5.877174,-18.613575,1.451416,0.150540,-0.064749,0.000000,0.243345,-0.127723,0.000000
0.410000,-2.204029,-2.137709,-1.477605,0.117280,0.295546,-0.007694,0.646935,1.511163,0.023984,1.184624,2.205624,0.422556,-5.893892,-18.749003,1.256420,0.152882,-0.066012,0.000000,0.224950,-0.121929,-0.000000
0.420000,-2.202824,-2.134677,-1.477680,0.123807,0.310765,-0.007433,0.658486,1.532281,0.028276,1.125663,2.017779,0.435938,-5.893708,-18.819139,1.291092,0.155039,-0.067217,0.000000,0.206499,-0.116136,-0.000000
0.430000,-2.201552,-2.131493,-1.477753,0.130448,0.326185,-0.007128,0.669448,1.551517,0.032689,1.066837,1.829249,0.445676,-5.868570,-18.879114,0.650672,0.157012,-0.068363,0.000000,0.187949,-0.110337,0.000000
0.440000,-2.200214,-2.128153,-1.477823,0.137194,0.341789,-0.006779,0.679824,1.568865,0.037175,1.008322,1.640502,0.451473,-5.833170,-18.855311,0.634719,0.158798,-0.069451,0.000000,0.169335,-0.104545,-0.000000
0.450000,-2.198808,-2.124656,-1.477889,0.144042,0.357556,-0.006384,0.689616,1.584328,0.041721,0.950234,1.452228,0.457255,-5.780318,-18.799691,0.392248,0.160399,-0.070481,0.000000,0.150782,-0.098799,-0.000000
0.460000,-2.197333,-2.121001,-1.477950,0.150985,0.373469,-0.005944,0.698830,1.597911,0.046308,0.892580,1.264465,0.459588,-5.716771,-18.705816,0.141749,0.161814,-0.071452,0.000000,0.132235,-0.093072,0.000000
0.470000,-2.195788,-2.117187,-1.478007,0.158017,0.389508,-0.005458,0.707473,1.609625,0.050910,0.836231,1.078617,0.460697,-5.581472,-18.496298,0.012637,0.163044,-0.072367,0.000000,0.113862,-0.087468,-0.000000
0.480000,-2.194172,-2.113211,-1.478059,0.165132,0.405655,-0.004926,0.715556,1.619487,0.055510,0.780348,0.893844,0.458428,-5.594141,-18.453233,-0.469303,0.164091,-0.073225,0.000000,0.095543,-0.081885,0.000000
0.490000,-2.192485,-2.109073,-1.478106,0.172326,0.421892,-0.004348,0.723081,1.627506,0.060066,0.725001,0.710465,0.452646,-5.442868,-18.177190,-0.620459,0.164955,-0.074027,0.000000,0.077300,-0.076327,-0.000000
0.500000,-2.190726,-2.104773,-1.478146,0.179592,0.438199,-0.003725,0.730062,1.633707,0.064559,0.671263,0.530073,0.445447,-5.334279,-17.934398,-0.886549,0.165638,-0.074773,0.000000,0.059323,-0.070916,0.000000
0.510000,-2.188893,-2.100309,-1.478180,0.186926,0.454560,-0.003057,0.736509,1.638114,0.068965,0.618306,0.351928,0.435291,-5.219494,-17.659784,-1.147741,0.166142,-0.075465,0.000000,0.041509,-0.065558,0.000000
0.520000,-2.186987,-2.095681,-1.478207,0.194321,0.470956,-0.002346,0.742435,1.640757,0.073256,0.567230,0.177251,0.422470,-5.029758,-17.299474,-1.412777,0.166469,-0.076104,0.000000,0.023981,-0.060363,-0.000000
0.530000,-2.185007,-2.090890,-1.478227,0.201773,0.487369,-0.001592,0.747856,1.641669,0.077406,0.516995,0.005432,0.407115,-5.017339,-17.060584,-1.657342,0.166622,-0.076690,0.000000,0.006679,-0.055228,0.000000
0.540000,-2.182951,-2.085934,-1.478239,0.209276,0.503783,-0.000798,0.752777,1.640876,0.081390,0.467611,-0.163291,0.389279,-4.823238,-16.650752,-1.912012,0.166604,-0.077224,0.000000,-0.010374,-0.050153,-0.000000
0.550000,-2.180821,-2.080814,-1.478243,0.216827,0.520181,0.000035,0.757215,1.638418,0.085183,0.420246,-0.327750,0.368928,-4.684707,-16.265426,-2.153661,0.166416,-0.077707,0.000000,-0.027065,-0.045255,0.000000
0.560000,-2.178615,-2.075530,-1.478238,0.224419,0.536546,0.000905,0.761185,1.634333,0.088762,0.373898,-0.488480,0.346595,-4.544879,-15.857153,-2.378829,0.166063,-0.078142,0.000000,-0.043438,-0.040438,-0.000000
0.570000,-2.176332,-2.070083,-1.478224,0.232049,0.552863,0.001809,0.764701,1.628664,0.092102,0.329720,-0.644640,0.320765,-4.328622,-15.390507,-2.719758,0.165549,-0.078528,0.000000,-0.059434,-0.035805,0.000000
0.580000,-2.173974,-2.064473,-1.478202,0.239711,0.569115,0.002746,0.767782,1.621454,0.095174,0.286528,-0.796628,0.293620,-4.310650,-15.004692,-2.704997,0.164876,-0.078868,0.000000,-0.075056,-0.031255,-0.000000
0.590000,-2.171538,-2.058701,-1.478169,0.247403,0.585287,0.003712,0.770435,1.612745,0.097972,0.244285,-0.944285,0.265382,-4.099209,-14.504458,-3.006426,0.164049,-0.079162,0.000000,-0.090283,-0.026785,0.000000
0.600000,-2.169025,-2.052768,-1.478127,0.255119,0.601365,0.004704,0.772676,1.602586,0.100470,0.204217,-1.086828,0.234105,-3.952832,-14.020865,-3.180322,0.163072,-0.079412,0.000000,-0.105069,-0.022504,-0.000000
0.610000,-2.166436,-2.046674,-1.478075,0.262855,0.617334,0.005720,0.774522,1.591024,0.102652,0.165186,-1.224673,0.202095,-3.809540,-13.524211,-3.330348,0.161949,-0.079619,0.000000,-0.119413,-0.018317,0.000000
0.620000,-2.163768,-2.040422,-1.478013,0.270608,0.633181,0.006756,0.775988,1.578111,0.104498,0.128415,-1.357077,0.166514,-3.586601,-12.974998,-3.673444,0.160685,-0.079784,0.000000,-0.133286,-0.014323,-0.000000
0.630000,-2.161023,-2.034011,-1.477940,0.278374,0.648892,0.007809,0.777093,1.563899,0.105983,0.092575,-1.484567,0.130982,-3.582961,-12.521959,-3.426402,0.159285,-0.079909,0.000000,-0.146679,-0.010420,0.000000
0.640000,-2.158201,-2.027444,-1.477857,0.286149,0.664454,0.008875,0.777842,1.548436,0.107120,0.057591,-1.607069,0.095837,-3.372110,-11.956198,-3.709829,0.157753,-0.079995,0.000000,-0.159574,-0.006601,0.000000
0.650000,-2.155300,-2.020723,-1.477763,0.293929,0.679856,0.009950,0.778253,1.531777,0.107889,0.024768,-1.723841,0.057789,-3.235029,-11.417661,-3.786355,0.156095,-0.080043,0.000000,-0.171950,-0.002975,0.000000
0.660000,-2.152322,-2.013848,-1.477658,0.301713,0.695086,0.011031,0.778340,1.513976,0.108279,-0.007146,-1.835470,0.020328,-3.103249,-10.874955,-3.834913,0.154316,-0.080056,0.000000,-0.183804,0.000558,-0.000000
0.670000,-2.149266,-2.006822,-1.477542,0.309495,0.710132,0.012114,0.778118,1.495088,0.108283,-0.036895,-1.941027,-0.020058,-2.890810,-10.267093,-4.110300,0.152421,-0.080033,0.000000,-0.195095,0.003898,-0.000000
0.680000,-2.146132,-1.999646,-1.477415,0.317274,0.724984,0.013196,0.777604,1.475172,0.107883,-0.065889,-2.041457,-0.059112,-2.910008,-9.819364,-3.693140,0.150416,-0.079977,0.000000,-0.205848,0.007151,-0.000000
0.690000,-2.142921,-1.992323,-1.477278,0.325046,0.739633,0.014271,0.776802,1.454276,0.107108,-0.094226,-2.136775,-0.096449,-2.714005,-9.212521,-3.900251,0.148306,-0.079888,0.000000,-0.216056,0.010325,0.000000
0.700000,-2.139631,-1.984854,-1.477130,0.332809,0.754067,0.015336,0.775727,1.432458,0.105945,-0.120562,-2.225974,-0.135946,-2.597251,-8.658730,-3.866514,0.146097,-0.079769,0.000000,-0.225673,0.013314,-0.000000
0.710000,-2.136265,-1.977242,-1.476971,0.340560,0.768279,0.016388,0.774392,1.409773,0.104396,-0.146197,-2.310048,-0.173694,-2.486795,-8.108964,-3.806112,0.143794,-0.079620,0.000000,-0.234738,0.016218,-0.000000
0.720000,-2.132820,-1.969489,-1.476802,0.348296,0.782260,0.017423,0.772810,1.386279,0.102463,-0.169910,-2.387725,-0.213163,-2.298983,-7.472809,-3.961646,0.141404,-0.079442,0.000000,-0.243172,0.018939,-0.000000
0.730000,-2.129299,-1.961598,-1.476623,0.356015,0.796002,0.018436,0.770996,1.362035,0.100141,-0.193085,-2.460480,-0.250283,-2.338271,-7.080200,-3.455192,0.138932,-0.079237,0.000000,-0.251058,0.021585,-0.000000
0.740000,-2.125700,-1.953570,-1.476434,0.363715,0.809498,0.019425,0.768950,1.337085,0.097468,-0.215831,-2.528416,-0.284685,-2.168736,-6.461496,-3.545732,0.136385,-0.079006,0.000000,-0.258404,0.024163,-0.000000
0.750000,-2.122024,-1.945408,-1.476235,0.371394,0.822741,0.020385,0.766686,1.311488,0.094442,-0.236839,-2.590120,-0.320087,-2.076598,-5.926831,-3.407634,0.133766,-0.078750,0.000000,-0.265117,0.026571,-0.000000
0.760000,-2.118272,-1.937116,-1.476026,0.379048,0.835726,0.021312,0.764214,1.285298,0.091076,-0.257365,-2.647061,-0.352881,-1.990877,-5.402799,-3.248020,0.131084,-0.078470,0.000000,-0.271293,0.028905,0.000000
0.770000,-2.114444,-1.928695,-1.475808,0.386677,0.848446,0.022205,0.761544,1.258569,0.087382,-0.276316,-2.697651,-0.385908,-1.837579,-4.774617,-3.257705,0.128343,-0.078167,0.000000,-0.276810,0.031079,0.000000
0.780000,-2.110539,-1.920148,-1.475582,0.394279,0.860896,0.023059,0.758689,1.231359,0.083368,-0.294920,-2.743802,-0.415950,-1.884968,-4.458931,-2.745013,0.125549,-0.077844,0.000000,-0.281816,0.033190,0.000000
0.790000,-2.106558,-1.911478,-1.475347,0.401850,0.873071,0.023871,0.755646,1.203707,0.079075,-0.313272,-2.785686,-0.442716,-1.748393,-3.861015,-2.703581,0.122708,-0.077499,0.000000,-0.286328,0.035245,-0.000000
0.800000,-2.102502,-1.902687,-1.475105,0.409391,0.884968,0.024640,0.752428,1.175667,0.074513,-0.330225,-2.821555,-0.469141,-1.680408,-3.372925,-2.482164,0.119825,-0.077134,0.000000,-0.290207,0.037152,-0.000000
0.810000,-2.098370,-1.893779,-1.474855,0.416898,0.896583,0.025361,0.749043,1.147289,0.069703,-0.346857,-2.853231,-0.492501,-1.617253,-2.899496,-2.247754,0.116906,-0.076750,0.000000,-0.293602,0.038999,-0.000000
0.820000,-2.094164,-1.884757,-1.474598,0.424371,0.907913,0.026033,0.745496,1.118623,0.064667,-0.362314,-2.878988,-0.514608,-1.503137,-2.316707,-2.113855,0.113955,-0.076349,0.000000,-0.296364,0.040712,0.000000
0.830000,-2.089883,-1.875622,-1.474334,0.431808,0.918955,0.026653,0.741797,1.089721,0.059422,-0.377529,-2.900927,-0.533524,-1.541321,-2.075280,-1.665944,0.110980,-0.075931,0.000000,-0.298683,0.042372,-0.000000
0.840000,-2.085528,-1.866379,-1.474065,0.439207,0.929707,0.027221,0.737945,1.060616,0.054008,-0.392576,-2.919264,-0.549074,-1.440028,-1.530803,-1.501211,0.107983,-0.075496,0.000000,-0.300581,0.043986,-0.000000
0.850000,-2.081099,-1.857029,-1.473790,0.446566,0.940167,0.027733,0.733949,1.031355,0.048445,-0.406584,-2.932127,-0.563026,-1.390720,-1.107331,-1.229668,0.104970,-0.075047,0.000000,-0.301893,0.045478,-0.000000
0.860000,-2.076597,-1.847576,-1.473510,0.453885,0.950334,0.028189,0.729815,1.001984,0.042758,-0.420323,-2.941459,-0.573881,-1.342756,-0.700693,-0.954900,0.101946,-0.074582,0.000000,-0.302800,0.046916,-0.000000
0.870000,-2.072022,-1.838023,-1.473226,0.461162,0.960206,0.028588,0.725546,0.972544,0.036975,-0.433287,-2.945636,-0.582257,-1.266584,-0.195524,-0.704609,0.098916,-0.074104,0.000000,-0.303147,0.048254,0.000000
0.880000,-2.067374,-1.828373,-1.472939,0.468396,0.969785,0.028928,0.721149,0.943082,0.031123,-0.446001,-2.946644,-0.587646,-1.277030,-0.010318,-0.372337,0.095885,-0.073612,0.000000,-0.303134,0.049541,0.000000
0.890000,-2.062654,-1.818629,-1.472648,0.475585,0.979068,0.029210,0.716626,0.913621,0.025232,-0.458506,-2.944710,-0.590005,-1.207682,0.453623,-0.114742,0.092855,-0.073108,0.000000,-0.302786,0.050782,0.000000
0.900000,-2.057862,-1.808793,-1.472355,0.482728,0.988057,0.029433,0.711982,0.884204,0.019331,-0.470294,-2.938120,-0.589810,-1.166825,0.802874,0.168716,0.089831,-0.072593,0.000000,-0.301939,0.051930,-0.000000
0.910000,-2.052999,-1.798868,-1.472060,0.489824,0.996752,0.029597,0.707221,0.854868,0.013445,-0.481770,-2.928652,-0.586857,-1.126084,1.135564,0.446752,0.086817,-0.072066,0.000000,-0.300772,0.053024,0.000000
0.920000,-2.048066,-1.788859,-1.471763,0.496872,1.005155,0.029702,0.702348,0.825646,0.007605,-0.492794,-2.915024,-0.580652,-1.081044,1.541634,0.769095,0.083817,-0.071528,0.000000,-0.299157,0.054048,-0.000000
0.930000,-2.043062,-1.778766,-1.471466,0.503871,1.013266,0.029749,0.697367,0.796575,0.001840,-0.503441,-2.898832,-0.572005,-1.048446,1.692732,0.958663,0.080835,-0.070981,0.000000,-0.297265,0.055016,0.000000
0.940000,-2.037989,-1.768594,-1.471168,0.510819,1.021087,0.029739,0.692281,0.767676,-0.003827,-0.513713,-2.880291,-0.561001,-1.003476,2.059331,1.265797,0.077872,-0.070425,0.000000,-0.295120,0.055929,-0.000000
0.950000,-2.032846,-1.758345,-1.470871,0.517716,1.028620,0.029673,0.687094,0.738982,-0.009369,-0.523523,-2.858089,-0.546921,-0.961273,2.332456,1.524069,0.074933,-0.069859,0.000000,-0.292590,0.056774,-0.000000
0.960000,-2.027634,-1.748023,-1.470575,0.524560,1.035867,0.029552,0.681812,0.710522,-0.014759,-0.532857,-2.833611,-0.530733,-0.916620,2.590396,1.769145,0.072021,-0.069286,0.000000,-0.289823,0.057557,-0.000000
0.970000,-2.022355,-1.737629,-1.470280,0.531352,1.042831,0.029379,0.676438,0.682321,-0.019971,-0.541954,-2.806056,-0.511043,-0.891506,2.889334,2.111657,0.069138,-0.068705,0.000000,-0.286732,0.058294,-0.000000
0.980000,-2.017008,-1.727167,-1.469988,0.538089,1.049515,0.029154,0.670975,0.654407,-0.024975,-0.550450,-2.776480,-0.489700,-0.806936,3.022600,2.153487,0.066287,-0.068118,0.000000,-0.283441,0.058961,-0.000000
0.990000,-2.011593,-1.716640,-1.469697,0.544771,1.055920,0.028880,0.665431,0.626797,-0.029761,-0.558307,-2.745067,-0.466890,-0.775346,3.286747,2.462483,0.063470,-0.067524,0.000000,-0.279970,0.059556,-0.000000
1.000000,-2.006112,-1.706050,-1.469410,0.551397,1.062052,0.028559,0.659810,0.599515,-0.034301,-0.565851,-2.711040,-0.440969,-0.722042,3.487264,2.663772,0.060689,-0.066924,0.000000,-0.276232,0.060101,0.000000
1.010000,-2.000566,-1.695400,-1.469126,0.557967,1.067912,0.028195,0.654116,0.572582,-0.038576,-0.572670,-2.675283,-0.413791,-0.664095,3.674383,2.846615,0.057946,-0.066320,0.000000,-0.272332,0.060569,-0.000000
1.020000,-1.994953,-1.684692,-1.468846,0.564479,1.073505,0.027789,0.648356,0.546016,-0.042565,-0.579331,-2.637484,-0.383376,-0.645385,3.871048,3.159266,0.055243,-0.065711,0.000000,-0.268227,0.061003,-0.000000
1.030000,-1.989276,-1.673930,-1.468571,0.570934,1.078834,0.027344,0.642533,0.519837,-0.046242,-0.585104,-2.598159,-0.352226,-0.508060,3.991334,3.065785,0.052582,-0.065098,0.000000,-0.263986,0.061348,-0.000000
1.040000,-1.983535,-1.663116,-1.468300,0.577330,1.083903,0.026865,0.636658,0.494058,-0.049609,-0.589926,-2.557457,-0.320599,-0.477877,4.159006,3.332461,0.049964,-0.064483,0.000000,-0.259626,0.061598,-0.000000
1.050000,-1.977730,-1.652253,-1.468033,0.583667,1.088716,0.026353,0.630735,0.468694,-0.052644,-0.594454,-2.515127,-0.286274,-0.405621,4.293030,3.454730,0.047390,-0.063865,0.000000,-0.255111,0.061807,-0.000000
1.060000,-1.971862,-1.641343,-1.467773,0.589944,1.093278,0.025813,0.624772,0.443759,-0.055334,-0.597973,-2.471571,-0.251630,-0.327670,4.415354,3.555791,0.044862,-0.063246,0.000000,-0.250494,0.061918,0.000000
1.070000,-1.965931,-1.630388,-1.467517,0.596162,1.097593,0.025248,0.618776,0.419266,-0.057666,-0.601271,-2.426867,-0.214437,-0.301921,4.524116,3.797823,0.042380,-0.062625,0.000000,-0.245774,0.061996,0.000000
1.080000,-1.959939,-1.619392,-1.467268,0.602320,1.101665,0.024661,0.612751,0.395225,-0.059624,-0.603383,-2.381116,-0.177452,-0.118896,4.624078,3.593707,0.039946,-0.062005,0.000000,-0.240973,0.061963,0.000000
1.090000,-1.953885,-1.608356,-1.467024,0.608417,1.105499,0.024057,0.606713,0.371647,-0.061218,-0.604226,-2.334437,-0.140962,-0.078437,4.709179,3.784217,0.037561,-0.061386,0.000000,-0.236104,0.061811,0.000000
1.100000,-1.947770,-1.597283,-1.466787,0.614454,1.109099,0.023438,0.600667,0.348539,-0.062435,-0.604692,-2.286973,-0.102536,0.016037,4.783225,3.816245,0.035225,-0.060768,0.000000,-0.231171,0.061616,0.000000
1.110000,-1.941596,-1.586175,-1.466555,0.620430,1.112471,0.022809,0.594623,0.325910,-0.063271,-0.603869,-2.238770,-0.064708,0.116793,4.847078,3.827160,0.032938,-0.060153,0.000000,-0.226189,0.061301,-0.000000
1.120000,-1.935362,-1.575034,-1.466330,0.626347,1.115619,0.022174,0.588591,0.303765,-0.063723,-0.602639,-2.190144,-0.025308,0.161257,4.884278,3.971595,0.030701,-0.059541,0.000000,-0.221181,0.060942,-0.000000
1.130000,-1.929069,-1.563863,-1.466112,0.632202,1.118548,0.021536,0.582576,0.282109,-0.063782,-0.599970,-2.140952,0.013019,0.374244,4.952581,3.688461,0.028514,-0.058934,0.000000,-0.216140,0.060451,0.000000
1.140000,-1.922718,-1.552664,-1.465900,0.637998,1.121263,0.020899,0.576596,0.260948,-0.063468,-0.595777,-2.091291,0.049990,0.433245,4.969702,3.782118,0.026378,-0.058332,0.000000,-0.211076,0.059821,0.000000
1.150000,-1.916309,-1.541438,-1.465694,0.643734,1.123769,0.020268,0.570661,0.240283,-0.062777,-0.591017,-2.041521,0.087935,0.550451,4.990295,3.724790,0.024293,-0.057737,0.000000,-0.206017,0.059133,-0.000000
1.160000,-1.909844,-1.530189,-1.465494,0.649412,1.126070,0.019645,0.564782,0.220118,-0.061714,-0.584749,-1.991540,0.124473,0.672604,5.000358,3.648341,0.022258,-0.057150,0.000000,-0.200958,0.058308,0.000000
1.170000,-1.903321,-1.518918,-1.465301,0.655030,1.128173,0.019035,0.558968,0.200453,-0.060285,-0.577840,-1.941585,0.161475,0.740100,4.992885,3.683229,0.020273,-0.056571,0.000000,-0.195917,0.057421,0.000000
1.180000,-1.896743,-1.507626,-1.465114,0.660591,1.130081,0.018441,0.553230,0.181286,-0.058491,-0.569302,-1.891635,0.196699,0.968844,4.995601,3.356971,0.018339,-0.056002,0.000000,-0.190896,0.056385,0.000000
1.190000,-1.890110,-1.496317,-1.464932,0.666095,1.131800,0.017866,0.547588,0.162620,-0.056358,-0.559064,-1.841783,0.229902,1.048867,4.969323,3.347979,0.016455,-0.055444,0.000000,-0.185902,0.055193,0.000000
1.200000,-1.883422,-1.484991,-1.464756,0.671543,1.133335,0.017315,0.542051,0.144450,-0.053892,-0.548057,-1.792246,0.263045,1.183370,4.940289,3.211779,0.014621,-0.054898,0.000000,-0.180952,0.053928,0.000000
1.210000,-1.876679,-1.473651,-1.464586,0.676937,1.134691,0.016789,0.536633,0.126774,-0.051105,-0.535421,-1.743029,0.294161,1.320789,4.901081,3.060031,0.012836,-0.054365,0.000000,-0.176048,0.052513,0.000000
1.220000,-1.869883,-1.462298,-1.464420,0.682276,1.135872,0.016294,0.531345,0.109587,-0.048010,-0.521849,-1.694272,0.324655,1.416562,4.850265,2.988667,0.011100,-0.053848,0.000000,-0.171201,0.051010,-0.000000
1.230000,-1.863034,-1.450934,-1.464260,0.687564,1.136884,0.015830,0.526201,0.092886,-0.044620,-0.506608,-1.646023,0.352884,1.632634,4.798100,2.653808,0.009412,-0.053346,0.000000,-0.166416,0.049353,-0.000000
1.240000,-1.856132,-1.439561,-1.464104,0.692801,1.137732,0.015402,0.521219,0.076665,-0.040961,-0.489652,-1.598369,0.378667,1.735867,4.729737,2.549650,0.007771,-0.052861,0.000000,-0.161700,0.047538,-0.000000
1.250000,-1.849178,-1.428180,-1.463952,0.697989,1.138419,0.015012,0.516411,0.060917,-0.037049,-0.471691,-1.551445,0.403426,1.878984,4.655203,2.352566,0.006178,-0.052395,0.000000,-0.157064,0.045627,0.000000
1.260000,-1.842172,-1.416793,-1.463803,0.703130,1.138951,0.014662,0.511791,0.045633,-0.032901,-0.452116,-1.505338,0.425791,2.022408,4.571384,2.146472,0.004630,-0.051949,0.000000,-0.152516,0.043566,0.000000
1.270000,-1.835115,-1.405401,-1.463658,0.708225,1.139333,0.014354,0.507373,0.030807,-0.028538,-0.431367,-1.459983,0.446581,2.140526,4.491796,1.983510,0.003127,-0.051524,0.000000,-0.148047,0.041394,0.000000
1.280000,-1.828008,-1.394007,-1.463516,0.713278,1.139569,0.014092,0.503169,0.016430,-0.023978,-0.409032,-1.415665,0.464876,2.326683,4.370252,1.673612,0.001669,-0.051122,0.000000,-0.143686,0.039073,0.000000
1.290000,-1.820850,-1.382610,-1.463376,0.718290,1.139663,0.013875,0.499197,0.002490,-0.019249,-0.385102,-1.372473,0.480572,2.446074,4.273442,1.491535,0.000253,-0.050743,0.000000,-0.139439,0.036602,0.000000
1.300000,-1.813642,-1.371214,-1.463238,0.723263,1.139620,0.013707,0.495471,-0.011023,-0.014372,-0.360007,-1.330279,0.494459,2.586127,4.157853,1.258402,-0.001121,-0.050390,0.000000,-0.135292,0.034019,0.000000
1.310000,-1.806385,-1.359818,-1.463102,0.728200,1.139444,0.013588,0.492002,-0.024120,-0.009369,-0.333439,-1.289412,0.505843,2.723899,4.033245,1.022251,-0.002453,-0.050063,0.000000,-0.131278,0.031297,-0.000000
1.320000,-1.799078,-1.348425,-1.462966,0.733104,1.139139,0.013520,0.488806,-0.036813,-0.004263,-0.305567,-1.249463,0.514935,2.853192,3.936901,0.791275,-0.003746,-0.049765,0.000000,-0.127353,0.028451,0.000000
1.330000,-1.791723,-1.337036,-1.462831,0.737977,1.138709,0.013503,0.485895,-0.049115,0.000922,-0.276320,-1.211082,0.521570,2.995904,3.737767,0.535231,-0.005001,-0.049495,0.000000,-0.123583,0.025473,0.000000
1.340000,-1.784319,-1.325651,-1.462696,0.742823,1.138158,0.013539,0.483284,-0.061041,0.006160,-0.245724,-1.174358,0.525724,3.119492,3.624347,0.299874,-0.006219,-0.049256,0.000000,-0.119976,0.022366,0.000000
1.350000,-1.776867,-1.314273,-1.462560,0.747644,1.137490,0.013627,0.480985,-0.072605,0.011428,-0.213917,-1.138772,0.527531,3.244408,3.473398,0.057060,-0.007401,-0.049048,0.000000,-0.116477,0.019142,-0.000000
1.360000,-1.769366,-1.302902,-1.462423,0.752443,1.136707,0.013767,0.479010,-0.083822,0.016703,-0.180921,-1.104923,0.526984,3.363708,3.315578,-0.182863,-0.008549,-0.048873,0.000000,-0.113148,0.015804,-0.000000
1.370000,-1.761818,-1.291539,-1.462285,0.757225,1.135814,0.013961,0.477371,-0.094707,0.021959,-0.146571,-1.072294,0.523727,3.496113,3.189792,-0.452026,-0.009664,-0.048732,0.000000,-0.109934,0.012335,-0.000000
1.380000,-1.754222,-1.280186,-1.462144,0.761992,1.134814,0.014206,0.476082,-0.105275,0.027170,-0.111212,-1.041552,0.518292,3.574441,2.957316,-0.634020,-0.010748,-0.048627,0.000000,-0.106903,0.008769,-0.000000
1.390000,-1.746578,-1.268843,-1.462001,0.766748,1.133710,0.014504,0.475150,-0.115545,0.032318,-0.074912,-1.012770,0.510733,3.693954,2.817899,-0.893293,-0.011803,-0.048557,0.000000,-0.104063,0.005111,0.000000
1.400000,-1.738887,-1.257512,-1.461854,0.771496,1.132504,0.014852,0.474587,-0.125534,0.037376,-0.037436,-0.985373,0.500577,3.791083,2.641151,-1.120467,-0.012830,-0.048525,0.000000,-0.101353,0.001340,-0.000000
1.410000,-1.731148,-1.246194,-1.461703,0.776241,1.131200,0.015251,0.474404,-0.135259,0.042323,0.000818,-0.959966,0.488444,3.879976,2.459683,-1.339245,-0.013830,-0.048531,0.000000,-0.098835,-0.002506,0.000000
1.420000,-1.723362,-1.234889,-1.461549,0.780986,1.129800,0.015699,0.474608,-0.144738,0.047135,0.040336,-0.936006,0.473500,4.001780,2.312299,-1.615326,-0.014807,-0.048575,0.000000,-0.096453,-0.006473,0.000000
1.430000,-1.715528,-1.223598,-1.461389,0.785734,1.128306,0.016193,0.475212,-0.153987,0.051788,0.080394,-0.914135,0.456855,4.007979,2.061019,-1.711480,-0.015760,-0.048660,0.000000,-0.094274,-0.010492,0.000000
1.440000,-1.707647,-1.212323,-1.461225,0.790491,1.126721,0.016734,0.476218,-0.163028,0.056267,0.120889,-0.894402,0.438628,4.110397,1.904770,-1.965776,-0.016693,-0.048785,0.000000,-0.092302,-0.014553,0.000000
1.450000,-1.699718,-1.201064,-1.461054,0.795260,1.125046,0.017318,0.477634,-0.171879,0.060551,0.162397,-0.876211,0.417851,4.169125,1.713741,-2.154954,-0.017607,-0.048952,0.000000,-0.090476,-0.018709,-0.000000
1.460000,-1.691742,-1.189822,-1.460878,0.800045,1.123284,0.017944,0.479467,-0.180559,0.064620,0.204256,-0.860103,0.395651,4.219914,1.521480,-2.331183,-0.018503,-0.049160,0.000000,-0.088851,-0.022897,-0.000000
1.470000,-1.683717,-1.178598,-1.460695,0.804851,1.121435,0.018610,0.481722,-0.189087,0.068455,0.246966,-0.845654,0.370836,4.300394,1.354668,-2.584931,-0.019384,-0.049410,0.000000,-0.087382,-0.027163,0.000000
1.480000,-1.675645,-1.167394,-1.460506,0.809681,1.119502,0.019312,0.484406,-0.197479,0.072033,0.289810,-0.833292,0.344936,4.266391,1.117369,-2.591809,-0.020252,-0.049703,0.000000,-0.086116,-0.031439,0.000000
1.490000,-1.667524,-1.156209,-1.460309,0.814540,1.117486,0.020049,0.487518,-0.205760,0.075351,0.332672,-0.823031,0.318122,4.324866,0.948643,-2.814841,-0.021107,-0.050039,0.000000,-0.085055,-0.035713,0.000000
1.500000,-1.659354,-1.145044,-1.460105,0.819433,1.115388,0.020818,0.491062,-0.213945,0.078388,0.376109,-0.814433,0.289067,4.340045,0.757965,-2.948827,-0.021953,-0.050418,0.000000,-0.084150,-0.040035,0.000000
1.510000,-1.651135,-1.133901,-1.459893,0.824363,1.113208,0.021616,0.495039,-0.222055,0.081130,0.419395,-0.807811,0.259234,4.343849,0.569827,-3.068103,-0.022791,-0.050840,0.000000,-0.083438,-0.044338,-0.000000
1.520000,-1.642866,-1.122780,-1.459672,0.829335,1.110947,0.022440,0.499452,-0.230108,0.083564,0.463213,-0.802999,0.227265,4.390802,0.390020,-3.272998,-0.023622,-0.051305,0.000000,-0.082897,-0.048682,-0.000000
1.530000,-1.634548,-1.111683,-1.459444,0.834354,1.108606,0.023286,0.504302,-0.238121,0.085674,0.506607,-0.800063,0.194882,4.285603,0.197659,-3.199763,-0.024449,-0.051813,0.000000,-0.082538,-0.052978,-0.000000
1.540000,-1.626179,-1.100609,-1.459207,0.839423,1.106184,0.024152,0.509582,-0.246115,0.087462,0.549445,-0.798973,0.162285,4.307977,0.024172,-3.368878,-0.025274,-0.052365,0.000000,-0.082358,-0.057212,0.000000
1.550000,-1.617759,-1.089559,-1.458961,0.844547,1.103683,0.025034,0.515292,-0.254106,0.088913,0.592496,-0.799592,0.127982,4.273682,-0.150110,-3.438241,-0.026097,-0.052958,0.000000,-0.082341,-0.061454,-0.000000
1.560000,-1.609288,-1.078535,-1.458706,0.849730,1.101102,0.025929,0.521429,-0.262112,0.090021,0.634832,-0.801887,0.093577,4.227731,-0.318052,-3.491986,-0.026921,-0.053594,0.000000,-0.082485,-0.065616,-0.000000
1.570000,-1.600765,-1.067537,-1.458442,0.854977,1.098441,0.026834,0.527990,-0.270151,0.090779,0.677348,-0.806027,0.057713,4.239133,-0.499295,-3.628775,-0.027747,-0.054271,0.000000,-0.082805,-0.069781,-0.000000
1.580000,-1.592188,-1.056567,-1.458169,0.860291,1.095699,0.027744,0.534973,-0.278238,0.091177,0.718854,-0.811646,0.022093,4.059415,-0.623144,-3.491399,-0.028578,-0.054990,0.000000,-0.083267,-0.073836,0.000000
1.590000,-1.583559,-1.045624,-1.457887,0.865677,1.092876,0.028656,0.542363,-0.286388,0.091223,0.759208,-0.818666,-0.013082,4.044861,-0.789517,-3.591822,-0.029413,-0.055748,0.000000,-0.083865,-0.077767,-0.000000
1.600000,-1.574875,-1.034709,-1.457596,0.871140,1.089971,0.029567,0.550157,-0.294617,0.090911,0.799421,-0.827328,-0.049266,3.961510,-0.931795,-3.593297,-0.030256,-0.056545,0.000000,-0.084617,-0.081667,0.000000
1.610000,-1.566136,-1.023825,-1.457296,0.876682,1.086983,0.030473,0.558347,-0.302938,0.090240,0.838479,-0.837211,-0.084917,3.869137,-1.064591,-3.580261,-0.031106,-0.057381,0.000000,-0.085486,-0.085440,0.000000
1.620000,-1.557341,-1.012970,-1.456987,0.882308,1.083912,0.031371,0.566925,-0.311367,0.089210,0.876964,-0.848785,-0.121248,3.806401,-1.228371,-3.639602,-0.031966,-0.058255,0.000000,-0.086515,-0.089139,-0.000000
1.630000,-1.548489,-1.002147,-1.456668,0.888022,1.080756,0.032256,0.575882,-0.319917,0.087818,0.914159,-0.861322,-0.156740,3.630517,-1.276749,-3.455450,-0.032837,-0.059165,0.000000,-0.087634,-0.092698,0.000000
1.640000,-1.539580,-0.991355,-1.456341,0.893827,1.077513,0.033126,0.585203,-0.328596,0.086079,0.949950,-0.874702,-0.191209,3.546416,-1.418300,-3.480938,-0.033719,-0.060109,0.000000,-0.088832,-0.096106,-0.000000
1.650000,-1.530612,-0.980597,-1.456006,0.899727,1.074183,0.033976,0.594879,-0.337416,0.083992,0.984894,-0.889482,-0.225942,3.420456,-1.515413,-3.419063,-0.034614,-0.061088,0.000000,-0.090160,-0.099411,0.000000
1.660000,-1.521585,-0.969872,-1.455662,0.905726,1.070764,0.034805,0.604896,-0.346388,0.081564,1.018360,-0.904886,-0.259596,3.285995,-1.599721,-3.344520,-0.035522,-0.062098,0.000000,-0.091545,-0.102558,-0.000000
1.670000,-1.512497,-0.959182,-1.455310,0.911826,1.067255,0.035607,0.615242,-0.355520,0.078800,1.050723,-0.921773,-0.293116,3.171149,-1.740917,-3.323970,-0.036445,-0.063140,0.000000,-0.093069,-0.105578,0.000000
1.680000,-1.503348,-0.948527,-1.454950,0.918031,1.063653,0.036379,0.625905,-0.364824,0.075706,1.081462,-0.938936,-0.325329,2.974996,-1.688859,-3.115825,-0.037384,-0.064211,0.000000,-0.094614,-0.108425,0.000000
1.690000,-1.494136,-0.937909,-1.454582,0.924345,1.059958,0.037120,0.636866,-0.374298,0.072299,1.110485,-0.956220,-0.356082,2.842649,-1.801288,-3.067207,-0.038337,-0.065309,0.000000,-0.096165,-0.111091,-0.000000
1.700000,-1.484861,-0.927328,-1.454208,0.930770,1.056167,0.037824,0.648111,-0.383952,0.068585,1.138170,-0.974626,-0.386350,2.678945,-1.842862,-2.950765,-0.039307,-0.066434,0.000000,-0.097820,-0.113608,0.000000
1.710000,-1.475521,-0.916786,-1.453826,0.937308,1.052278,0.038490,0.659623,-0.393790,0.064577,1.164079,-0.993012,-0.415138,2.510380,-1.870868,-2.825616,-0.040294,-0.067582,0.000000,-0.099467,-0.115940,-0.000000
1.720000,-1.466114,-0.906283,-1.453438,0.943963,1.048290,0.039115,0.671387,-0.403817,0.060285,1.188472,-1.012355,-0.443038,2.356207,-1.958879,-2.731903,-0.041297,-0.068754,0.000000,-0.101202,-0.118108,-0.000000
1.730000,-1.456641,-0.895820,-1.453044,0.950737,1.044201,0.039695,0.683386,-0.414036,0.055722,1.210950,-1.031373,-0.469306,2.137976,-1.841579,-2.519794,-0.042318,-0.069946,0.000000,-0.102899,-0.120077,0.000000
1.740000,-1.447099,-0.885399,-1.452644,0.957631,1.040009,0.040229,0.695600,-0.424442,0.050905,1.231440,-1.049898,-0.493836,1.970491,-1.898764,-2.406294,-0.043355,-0.071157,0.000000,-0.104540,-0.121843,-0.000000
1.750000,-1.437488,-0.875021,-1.452240,0.964649,1.035712,0.040713,0.708010,-0.435037,0.045848,1.250249,-1.068991,-0.517219,1.779176,-1.880815,-2.248942,-0.044409,-0.072384,0.000000,-0.106233,-0.123432,0.000000
1.760000,-1.427806,-0.864685,-1.451830,0.971792,1.031308,0.041145,0.720598,-0.445819,0.040567,1.267062,-1.087464,-0.538856,1.583819,-1.849426,-2.086022,-0.045479,-0.073627,0.000000,-0.107858,-0.124819,0.000000
1.770000,-1.418052,-0.854395,-1.451417,0.979062,1.026795,0.041523,0.733344,-0.456788,0.035076,1.281923,-1.106288,-0.558999,1.386634,-1.876931,-1.933311,-0.046566,-0.074883,0.000000,-0.109515,-0.126007,-0.000000
1.780000,-1.408224,-0.844150,-1.451000,0.986460,1.022171,0.041846,0.746230,-0.467942,0.029393,1.294756,-1.124196,-0.577331,1.179337,-1.701663,-1.731971,-0.047669,-0.076149,0.000000,-0.111077,-0.126992,0.000000
1.790000,-1.398322,-0.833952,-1.450580,0.993987,1.017435,0.042110,0.759233,-0.479268,0.023536,1.305523,-1.141023,-0.593791,0.974596,-1.698850,-1.567729,-0.048787,-0.077425,0.000000,-0.112527,-0.127772,0.000000
1.800000,-1.388344,-0.823802,-1.450158,1.001645,1.012585,0.042316,0.772333,-0.490763,0.017522,1.314231,-1.157822,-0.608604,0.765076,-1.622186,-1.385565,-0.049920,-0.078707,0.000000,-0.113974,-0.128347,-0.000000
1.810000,-1.378289,-0.813700,-1.449734,1.009434,1.007619,0.042460,0.785510,-0.502420,0.011370,1.320855,-1.173404,-0.621553,0.553452,-1.532500,-1.200847,-0.051066,-0.079994,0.000000,-0.115298,-0.128719,0.000000
1.820000,-1.368155,-0.803650,-1.449309,1.017355,1.002536,0.042543,0.798743,-0.514231,0.005098,1.325240,-1.188804,-0.632583,0.328766,-1.506990,-1.007699,-0.052226,-0.081284,0.000000,-0.116605,-0.128873,-0.000000
1.830000,-1.357941,-0.793650,-1.448883,1.025409,0.997334,0.042562,0.812008,-0.526191,-0.001276,1.327541,-1.202694,-0.641763,0.131376,-1.267961,-0.828054,-0.053398,-0.082575,0.000000,-0.117762,-0.128827,0.000000
1.840000,-1.347646,-0.783703,-1.448458,1.033595,0.992012,0.042517,0.825287,-0.538279,-0.007731,1.327749,-1.214916,-0.649079,-0.095659,-1.214115,-0.631945,-0.054580,-0.083864,0.000000,-0.118754,-0.128581,-0.000000
1.850000,-1.337269,-0.773810,-1.448033,1.041914,0.986568,0.042407,0.838556,-0.550488,-0.014250,1.325670,-1.226610,-0.654425,-0.314510,-1.084080,-0.440074,-0.055773,-0.085149,0.000000,-0.119699,-0.128118,0.000000
1.860000,-1.326808,-0.763972,-1.447610,1.050366,0.981002,0.042232,0.851793,-0.562805,-0.020814,1.321482,-1.236609,-0.657930,-0.533443,-0.944050,-0.249042,-0.056974,-0.086429,0.000000,-0.120480,-0.127458,-0.000000
1.870000,-1.316261,-0.754191,-1.447189,1.058950,0.975312,0.041991,0.864977,-0.575218,-0.027402,1.314905,-1.245736,-0.659297,-0.772114,-0.850988,-0.036058,-0.058182,-0.087702,0.000000,-0.121182,-0.126576,-0.000000
1.880000,-1.305628,-0.744466,-1.446770,1.067665,0.969497,0.041684,0.878084,-0.587713,-0.033994,1.306247,-1.252994,-0.658896,-0.959230,-0.598367,0.115753,-0.059397,-0.088965,0.000000,-0.121704,-0.125502,0.000000
1.890000,-1.294907,-0.734801,-1.446355,1.076511,0.963557,0.041311,0.891095,-0.600271,-0.040574,1.295519,-1.258262,-0.656753,-1.196248,-0.483205,0.324113,-0.060615,-0.090216,0.000000,-0.122036,-0.124239,-0.000000
1.900000,-1.284097,-0.725196,-1.445944,1.085487,0.957492,0.040873,0.903987,-0.612875,-0.047122,1.282409,-1.262390,-0.652518,-1.415945,-0.311605,0.510925,-0.061837,-0.091453,0.000000,-0.122268,-0.122759,-0.000000
1.910000,-1.273197,-0.715652,-1.445538,1.094591,0.951300,0.040369,0.916737,-0.625511,-0.053619,1.267217,-1.264519,-0.646577,-1.634451,-0.132830,0.694084,-0.063060,-0.092675,0.000000,-0.122311,-0.121092,0.000000
1.920000,-1.262205,-0.706170,-1.445137,1.103821,0.944982,0.039800,0.929323,-0.638161,-0.060046,1.249610,-1.265207,-0.638486,-1.874944,0.015302,0.906692,-0.064283,-0.093879,0.000000,-0.122227,-0.119210,0.000000
1.930000,-1.251120,-0.696752,-1.444742,1.113176,0.938537,0.039168,0.941722,-0.650808,-0.066383,1.229970,-1.263794,-0.628806,-2.052625,0.268658,1.028201,-0.065504,-0.095063,0.000000,-0.121948,-0.117147,-0.000000
1.940000,-1.239941,-0.687400,-1.444354,1.122655,0.931965,0.038473,0.953915,-0.663430,-0.072617,1.208323,-1.260203,-0.617595,-2.288384,0.431115,1.230298,-0.066721,-0.096226,0.000000,-0.121466,-0.114906,-0.000000
1.950000,-1.228667,-0.678114,-1.443973,1.132254,0.925268,0.037716,0.965880,-0.676007,-0.078728,1.184308,-1.254994,-0.604358,-2.502381,0.630492,1.399551,-0.067933,-0.097366,0.000000,-0.120844,-0.112459,0.000000
1.960000,-1.217296,-0.668895,-1.443600,1.141972,0.918445,0.036899,0.977595,-0.688522,-0.084700,1.158273,-1.247658,-0.589649,-2.714658,0.832681,1.562305,-0.069137,-0.098480,0.000000,-0.120027,-0.109835,0.000000
1.970000,-1.205827,-0.659745,-1.443235,1.151805,0.911498,0.036023,0.989038,-0.700954,-0.090514,1.129917,-1.238376,-0.572955,-2.945543,1.028851,1.756832,-0.070333,-0.099567,0.000000,-0.119040,-0.107010,-0.000000
1.980000,-1.194259,-0.650665,-1.442880,1.161751,0.904427,0.035089,1.000187,-0.713283,-0.096154,1.099595,-1.226974,-0.554926,-3.118243,1.252049,1.847355,-0.071518,-0.100625,0.000000,-0.117861,-0.104016,0.000000
1.990000,-1.182592,-0.641657,-1.442534,1.171808,0.897233,0.034100,1.011023,-0.725486,-0.101609,1.067342,-1.213425,-0.535645,-3.342749,1.453255,2.026987,-0.072689,-0.101652,0.000000,-0.116489,-0.100854,0.000000
2.000000,-1.170823,-0.632721,-1.442198,1.181971,0.889918,0.033058,1.021526,-0.737545,-0.106861,1.032841,-1.197865,-0.514574,-3.546386,1.663619,2.167828,-0.073847,-0.102647,0.000000,-0.114942,-0.097501,0.000000
2.010000,-1.158952,-0.623859,-1.441873,1.192237,0.882482,0.031964,1.031674,-0.749437,-0.111897,0.996410,-1.180228,-0.492316,-3.747416,1.873079,2.301597,-0.074988,-0.103607,0.000000,-0.113211,-0.093982,-0.000000
2.020000,-1.146978,-0.615072,-1.441559,1.202603,0.874929,0.030821,1.041447,-0.761142,-0.116701,0.957829,-1.160318,-0.468389,-3.960550,2.099869,2.464293,-0.076110,-0.104531,0.000000,-0.111281,-0.090281,0.000000
2.030000,-1.134899,-0.606361,-1.441256,1.213065,0.867260,0.029631,1.050824,-0.772637,-0.121261,0.917369,-1.138424,-0.443442,-4.130859,2.278418,2.523405,-0.077213,-0.105418,0.000000,-0.109176,-0.086419,0.000000
2.040000,-1.122716,-0.597727,-1.440966,1.223618,0.859477,0.028396,1.059788,-0.783904,-0.125567,0.875067,-1.114570,-0.417571,-4.336643,2.501270,2.668186,-0.078293,-0.106264,0.000000,-0.106900,-0.082398,0.000000
2.050000,-1.110427,-0.589172,-1.440689,1.234259,0.851583,0.027120,1.068319,-0.794921,-0.129607,0.830712,-1.088483,-0.390261,-4.526087,2.706760,2.773917,-0.079350,-0.107070,0.000000,-0.104430,-0.078203,-0.000000
2.060000,-1.098031,-0.580696,-1.440424,1.244983,0.843580,0.025805,1.076396,-0.805667,-0.133370,0.784532,-1.060473,-0.362118,-4.713146,2.908447,2.871085,-0.080381,-0.107833,0.000000,-0.101792,-0.073850,-0.000000
2.070000,-1.085527,-0.572300,-1.440173,1.255785,0.835471,0.024454,1.084003,-0.816122,-0.136845,0.736412,-1.030204,-0.332709,-4.905584,3.131994,2.992716,-0.081385,-0.108551,0.000000,-0.098956,-0.069333,0.000000
2.080000,-1.072915,-0.563987,-1.439935,1.266661,0.827259,0.023069,1.091119,-0.826265,-0.140022,0.686530,-0.998114,-0.302641,-5.070001,3.285013,3.019024,-0.082360,-0.109224,0.000000,-0.095963,-0.064662,-0.000000
2.090000,-1.060193,-0.555756,-1.439711,1.277606,0.818947,0.021654,1.097728,-0.836079,-0.142896,0.634928,-0.964259,-0.272018,-5.254657,3.498236,3.120938,-0.083304,-0.109848,0.000000,-0.092816,-0.059840,-0.000000
2.100000,-1.047362,-0.547608,-1.439502,1.288614,0.810538,0.020212,1.103811,-0.845543,-0.145459,0.581489,-0.928275,-0.240389,-5.427718,3.684940,3.186295,-0.084216,-0.110424,0.000000,-0.089484,-0.054860,0.000000
2.110000,-1.034421,-0.539545,-1.439307,1.299680,0.802037,0.018746,1.109352,-0.854639,-0.147703,0.526300,-0.890560,-0.208314,-5.598629,3.866336,3.242441,-0.085093,-0.110949,0.000000,-0.086000,-0.049723,0.000000
2.120000,-1.021369,-0.531568,-1.439127,1.310799,0.793447,0.017259,1.114332,-0.863347,-0.149622,0.469630,-0.850882,-0.175430,-5.745271,4.059277,3.318374,-0.085935,-0.111422,0.000000,-0.082345,-0.044459,0.000000
2.130000,-1.008205,-0.523676,-1.438962,1.321965,0.784771,0.015755,1.118738,-0.871651,-0.151211,0.411184,-0.809581,-0.142284,-5.943545,4.199616,3.308910,-0.086740,-0.111841,0.000000,-0.078547,-0.039033,-0.000000
2.140000,-0.994929,-0.515872,-1.438812,1.333172,0.776015,0.014236,1.122550,-0.879534,-0.152467,0.350988,-0.766732,-0.108983,-6.084337,4.378107,3.364686,-0.087506,-0.112205,0.000000,-0.074612,-0.033444,-0.000000
2.150000,-0.981541,-0.508156,-1.438677,1.344414,0.767182,0.012707,1.125754,-0.886979,-0.153388,0.289420,-0.722119,-0.075150,-6.239063,4.534324,3.386147,-0.088231,-0.112512,0.000000,-0.070522,-0.027732,-0.000000
2.160000,-0.968041,-0.500529,-1.438558,1.355685,0.758277,0.011169,1.128333,-0.893971,-0.153971,0.226204,-0.676011,-0.041289,-6.390132,4.683881,3.398458,-0.088916,-0.112761,0.000000,-0.066297,-0.021865,-0.000000
2.170000,-0.954427,-0.492991,-1.438454,1.366979,0.749304,0.009628,1.130274,-0.900495,-0.154213,0.161756,-0.628487,-0.007084,-6.511540,4.821578,3.427672,-0.089557,-0.112951,0.000000,-0.061947,-0.015884,0.000000
2.180000,-0.940701,-0.485543,-1.438365,1.378288,0.740269,0.008086,1.131563,-0.906536,-0.154113,0.095717,-0.579565,0.026955,-6.695916,4.961436,3.378234,-0.090154,-0.113079,0.000000,-0.057468,-0.009747,0.000000
2.190000,-0.926862,-0.478186,-1.438292,1.389608,0.731175,0.006547,1.132183,-0.912082,-0.153675,0.028117,-0.529329,0.060722,-6.809948,5.082220,3.387078,-0.090706,-0.113146,0.000000,-0.052867,-0.003455,0.000000
2.200000,-0.912909,-0.470920,-1.438234,1.400930,0.722029,0.005014,1.132122,-0.917119,-0.152898,-0.040578,-0.477936,0.094551,-6.941061,5.196972,3.364055,-0.091211,-0.113148,0.000000,-0.048161,0.002944,0.000000
2.210000,-0.898843,-0.463745,-1.438192,1.412248,0.712834,0.003490,1.131366,-0.921635,-0.151785,-0.110862,-0.425007,0.127963,-7.070491,5.310198,3.331546,-0.091668,-0.113086,0.000000,-0.043306,0.009507,0.000000
2.220000,-0.884664,-0.456663,-1.438165,1.423555,0.703598,0.001979,1.129904,-0.925622,-0.150339,-0.181561,-0.372476,0.161287,-7.111233,5.268863,3.317731,-0.092077,-0.112957,0.000000,-0.038494,0.016115,0.000000
2.230000,-0.870372,-0.449674,-1.438152,1.434844,0.694324,0.000485,1.127728,-0.929078,-0.148562,-0.253966,-0.318101,0.193989,-7.369935,5.606365,3.220698,-0.092438,-0.112762,0.000000,-0.033499,0.022903,-0.000000
2.240000,-0.855967,-0.442777,-1.438155,1.446107,0.685018,-0.000991,1.124818,-0.931977,-0.146462,-0.328069,-0.261900,0.225961,-7.406162,5.556387,3.186617,-0.092747,-0.112497,0.000000,-0.028319,0.029875,0.000000
2.250000,-0.841450,-0.435973,-1.438172,1.457337,0.675686,-0.002444,1.121167,-0.934319,-0.144043,-0.402433,-0.206378,0.257570,-7.508468,5.620818,3.119594,-0.093004,-0.112162,0.000000,-0.023204,0.036885,-0.000000
2.260000,-0.826821,-0.429263,-1.438204,1.468528,0.666333,-0.003871,1.116790,-0.936151,-0.141313,-0.472454,-0.161367,0.288395,-7.490823,5.440066,3.044929,-0.093215,-0.111758,0.000000,-0.019115,0.043485,-0.000000
2.270000,-0.812080,-0.422647,-1.438249,1.479671,0.656965,-0.005269,1.111637,-0.937386,-0.138278,-0.561401,-0.078641,0.318450,-9.331790,9.105718,2.963763,-0.093371,-0.111280,0.000000,-0.011301,0.051976,0.000000
2.280000,-0.797227,-0.416124,-1.438309,1.490758,0.647588,-0.006635,1.105607,-0.937823,-0.134947,-0.638799,-0.021215,0.347622,-6.118029,2.318342,2.869249,-0.093451,-0.110718,0.000000,-0.005965,0.059351,0.000000
2.290000,-0.782265,-0.409695,-1.438382,1.501781,0.638210,-0.007967,1.098912,-0.937919,-0.131329,-0.703330,0.008209,0.375828,-7.765237,5.587562,2.771445,-0.093501,-0.110093,0.000000,-0.003376,0.065478,0.000000
2.300000,-0.767192,-0.403360,-1.438468,1.512733,0.628832,-0.009261,1.091464,-0.937504,-0.127434,-0.785852,0.073476,0.403014,-7.768592,5.458829,2.663669,-0.093503,-0.109395,0.000000,0.002763,0.073414,0.000000
2.310000,-0.752010,-0.397118,-1.438567,1.523607,0.619462,-0.010515,1.083125,-0.936313,-0.123274,-0.884707,0.170067,0.428711,-8.260583,6.321154,2.540741,-0.093432,-0.108611,0.000000,0.012018,0.083004,-0.000000
2.320000,-0.736720,-0.390971,-1.438678,1.534393,0.610107,-0.011725,1.074057,-0.934687,-0.118858,-0.916638,0.130551,0.454412,-1.757291,-6.906833,2.533955,-0.093321,-0.107756,0.000000,0.007846,0.085983,0.000000
2.330000,-0.721323,-0.384916,-1.438801,1.545087,0.600767,-0.012891,1.064607,-0.933333,-0.114193,-0.996084,0.185530,0.478017,-14.242729,18.126850,2.183847,-0.093239,-0.106865,0.000000,0.013026,0.093710,-0.000000
2.340000,-0.705819,-0.378955,-1.438936,1.555681,0.591446,-0.014009,1.053932,-0.930571,-0.109306,-1.127937,0.344904,0.499366,-8.455911,6.350413,2.149756,-0.093020,-0.105853,0.000000,0.028569,0.106689,-0.000000
2.350000,-0.690209,-0.373087,-1.439081,1.566163,0.582158,-0.015076,1.042324,-0.926995,-0.104206,-1.196210,0.375025,0.520438,-8.845760,7.022961,1.999142,-0.092723,-0.104750,0.000000,0.031354,0.113389,0.000000
2.360000,-0.674496,-0.367312,-1.439237,1.576525,0.572907,-0.016092,1.030061,-0.923190,-0.098902,-1.252495,0.377444,0.540004,-8.297726,5.762393,1.853368,-0.092405,-0.103581,0.000000,0.031417,0.118936,0.000000
2.370000,-0.658679,-0.361629,-1.439403,1.586761,0.563697,-0.017054,1.016814,-0.918489,-0.093415,-1.416242,0.603308,0.556938,-18.725090,27.446246,1.590355,-0.091999,-0.102315,0.000000,0.053669,0.135226,-0.000000
2.380000,-0.642761,-0.356038,-1.439578,1.596856,0.554545,-0.017960,1.002022,-0.911726,-0.087766,-1.506786,0.675222,0.573007,0.799632,-13.444392,1.624449,-0.091391,-0.100893,0.000000,0.060713,0.144284,0.000000
2.390000,-0.626743,-0.350538,-1.439762,1.606801,0.545459,-0.018809,0.986995,-0.905649,-0.081957,-1.515900,0.576125,0.588238,-8.395349,5.690032,1.362428,-0.090851,-0.099448,0.000000,0.050789,0.145259,-0.000000
2.400000,-0.610626,-0.345128,-1.439954,1.616593,0.536433,-0.019598,0.971268,-0.899294,-0.076011,-1.625652,0.686599,0.600735,-7.800100,4.382223,1.194238,-0.090284,-0.097932,0.000000,0.061716,0.156315,0.000000
2.410000,-0.594411,-0.339809,-1.440154,1.626223,0.527476,-0.020328,0.954562,-0.892057,-0.069949,-1.716910,0.764647,0.611319,-7.875611,4.626470,1.007084,-0.089630,-0.096317,0.000000,0.069470,0.165580,-0.000000
2.420000,-0.578102,-0.334579,-1.440361,1.635682,0.518593,-0.020997,0.937136,-0.884529,-0.063784,-1.759519,0.718528,0.621629,-3.153944,-7.423534,0.972601,-0.088948,-0.094628,0.000000,0.064870,0.170013,0.000000
2.430000,-0.561698,-0.329437,-1.440574,1.644965,0.509783,-0.021604,0.919252,-0.877377,-0.057527,-1.832649,0.751110,0.629046,-11.555853,14.152697,0.507582,-0.088302,-0.092891,0.000000,0.068143,0.177545,-0.000000
2.440000,-0.545203,-0.324383,-1.440792,1.654063,0.501050,-0.022147,0.900349,-0.869162,-0.051214,-1.940107,0.872048,0.633417,-7.414413,3.570613,0.448328,-0.087550,-0.091050,0.000000,0.080292,0.188574,-0.000000
2.450000,-0.528618,-0.319415,-1.441016,1.662969,0.492402,-0.022628,0.880644,-0.860433,-0.044859,-2.002516,0.877759,0.637300,-7.592427,4.039282,0.246181,-0.086746,-0.089125,0.000000,0.080957,0.195122,-0.000000
2.460000,-0.511944,-0.314534,-1.441245,1.671674,0.483843,-0.023045,0.860088,-0.851233,-0.038477,-2.113031,0.968645,0.638785,-8.324420,5.149251,0.047212,-0.085893,-0.087111,0.000000,0.090170,0.206544,0.000000
2.470000,-0.495185,-0.309738,-1.441477,1.680168,0.475378,-0.023397,0.838861,-0.841753,-0.032090,-2.112091,0.898060,0.638208,2.507554,-10.537484,-0.159688,-0.085012,-0.085027,0.000000,0.083279,0.206814,0.000000
2.480000,-0.478342,-0.305026,-1.441712,1.688451,0.467005,-0.023686,0.817543,-0.832829,-0.025719,-2.188919,0.941101,0.635652,-18.055646,19.411807,-0.351777,-0.084183,-0.082929,0.000000,0.087762,0.214922,-0.000000
2.490000,-0.461417,-0.300398,-1.441951,1.696514,0.458727,-0.023912,0.794750,-0.822444,-0.019384,-2.351553,1.109501,0.631108,-8.397617,5.441370,-0.560196,-0.083207,-0.080679,0.000000,0.104857,0.231721,-0.000000
2.500000,-0.444412,-0.295852,-1.442191,1.704343,0.450558,-0.024074,0.770971,-0.811304,-0.013104,-2.408095,1.124378,0.624468,-8.939032,6.294760,-0.764057,-0.082153,-0.078325,0.000000,0.106612,0.237881,-0.000000
2.510000,-0.427331,-0.291386,-1.442432,1.711931,0.442501,-0.024174,0.746729,-0.800193,-0.006902,-2.432098,1.085174,0.615592,-7.681548,4.383173,-0.971975,-0.081099,-0.075919,0.000000,0.102953,0.240784,-0.000000
2.520000,-0.410174,-0.287001,-1.442674,1.719274,0.434557,-0.024213,0.721411,-0.788160,-0.000796,-2.670319,1.382193,0.605391,-28.464213,37.009042,-1.105903,-0.079949,-0.073400,0.000000,0.133139,0.265355,-0.000000
2.530000,-0.392946,-0.282695,-1.442916,1.726351,0.426748,-0.024191,0.693903,-0.773455,0.005197,-2.760008,1.447256,0.592683,10.894296,-24.571266,-1.436498,-0.078527,-0.070654,0.000000,0.140079,0.274986,0.000000
2.540000,-0.375648,-0.278466,-1.443157,1.733155,0.419082,-0.024109,0.666851,-0.760216,0.011049,-2.684663,1.254607,0.577436,-7.417220,4.202992,-1.574155,-0.077248,-0.067949,0.000000,0.121038,0.267918,0.000000
2.550000,-0.358284,-0.274313,-1.443398,1.739687,0.411545,-0.023970,0.639339,-0.746996,0.016742,-2.809886,1.377092,0.560884,-6.071845,2.192974,-1.773689,-0.075968,-0.065191,0.000000,0.133782,0.281166,-0.000000
2.560000,-0.340856,-0.270234,-1.443637,1.745938,0.404145,-0.023775,0.610767,-0.732859,0.022259,-2.908531,1.456697,0.542155,-6.313046,2.633526,-1.967240,-0.074591,-0.062320,0.000000,0.142242,0.291751,0.000000
2.570000,-0.323366,-0.266229,-1.443873,1.751900,0.396888,-0.023526,0.581757,-0.718748,0.027579,-2.868664,1.327845,0.521594,7.146269,-17.612895,-2.148147,-0.073213,-0.059400,0.000000,0.129630,0.288279,0.000000
2.580000,-0.305818,-0.262296,-1.444107,1.757575,0.389765,-0.023224,0.553052,-0.705782,0.032685,-2.915513,1.331000,0.499123,-16.745782,18.594053,-2.345114,-0.071946,-0.056505,0.000000,0.130358,0.293601,-0.000000
2.590000,-0.288216,-0.258434,-1.444337,1.762957,0.382777,-0.022873,0.523066,-0.691551,0.037556,-3.059404,1.481938,0.474796,-4.836975,0.724418,-2.515159,-0.070547,-0.053474,0.000000,0.146094,0.308807,-0.000000
2.600000,-0.270560,-0.254640,-1.444564,1.768034,0.375935,-0.022474,0.492423,-0.676983,0.042175,-3.073499,1.438097,0.448810,-5.164353,1.363246,-2.685104,-0.069109,-0.050370,0.000000,0.142093,0.310804,-0.000000
2.610000,-0.252856,-0.250914,-1.444787,1.772804,0.369237,-0.022030,0.461401,-0.662517,0.046528,-3.131499,1.455566,0.421491,-5.186610,1.432578,-2.840159,-0.067678,-0.047223,0.000000,0.144309,0.317258,-0.000000
2.620000,-0.235105,-0.247255,-1.445005,1.777260,0.362685,-0.021544,0.429893,-0.647926,0.050595,-3.165733,1.460375,0.391457,-2.872433,0.216438,-3.104283,-0.066229,-0.044021,0.000000,0.145253,0.321280,0.000000
2.630000,-0.217312,-0.243660,-1.445218,1.781400,0.356279,-0.021019,0.398029,-0.633274,0.054355,-3.214383,1.474303,0.360713,-6.892690,2.592888,-3.041052,-0.064769,-0.040777,0.000000,0.147114,0.326749,0.000000
2.640000,-0.199478,-0.240129,-1.445425,1.785219,0.350020,-0.020458,0.365543,-0.618400,0.057808,-3.278964,1.498440,0.329435,-4.793714,1.545231,-3.274557,-0.063282,-0.037466,0.000000,0.150006,0.333823,0.000000
2.650000,-0.181608,-0.236659,-1.445627,1.788710,0.343911,-0.019864,0.332548,-0.603355,0.060935,-3.320533,1.511051,0.295777,-4.733624,1.662822,-3.394037,-0.061774,-0.034098,0.000000,0.151732,0.338524,-0.000000
2.660000,-0.163705,-0.233250,-1.445822,1.791869,0.337954,-0.019241,0.299197,-0.588165,0.063720,-3.346845,1.526892,0.261098,-4.146179,1.698710,-3.511000,-0.060246,-0.030689,0.000000,0.153781,0.341631,0.000000
2.670000,-0.145772,-0.229900,-1.446011,1.794692,0.332149,-0.018591,0.265337,-0.572801,0.066155,-3.436652,1.546746,0.225849,-10.289509,2.075625,-3.564398,-0.058697,-0.027225,0.000000,0.156217,0.351202,-0.000000
2.680000,-0.127813,-0.226607,-1.446194,1.797172,0.326498,-0.017919,0.230649,-0.557240,0.068232,-3.478622,1.564267,0.189274,2.012441,1.415340,-3.749656,-0.057123,-0.023672,0.000000,0.158417,0.355842,0.000000
2.690000,-0.109830,-0.223369,-1.446370,1.799305,0.321004,-0.017227,0.195969,-0.541527,0.069936,-3.467443,1.578756,0.151448,-3.322145,1.666339,-3.785801,-0.055529,-0.020117,0.000000,0.160299,0.354993,-0.000000
2.700000,-0.091828,-0.220186,-1.446538,1.801091,0.315668,-0.016521,0.161043,-0.525653,0.071261,-3.514799,1.595758,0.113364,-2.604125,1.531180,-3.856393,-0.053916,-0.016535,0.000000,0.162411,0.360094,-0.000000
2.710000,-0.073809,-0.217055,-1.446700,1.802525,0.310491,-0.015804,0.125779,-0.509784,0.072202,-3.537012,1.573037,0.074748,-2.064365,0.604611,-3.907586,-0.052299,-0.012916,0.000000,0.160439,0.362569,-0.000000
2.720000,-0.055778,-0.213976,-1.446854,1.803606,0.305473,-0.015078,0.090303,-0.493680,0.072751,-3.558146,1.669231,0.034863,-1.938459,12.136657,-4.025564,-0.050655,-0.009274,0.000000,0.170628,0.364883,0.000000
2.730000,-0.037738,-0.210945,-1.447002,1.804330,0.300621,-0.014350,0.054645,-0.476734,0.072900,-3.571092,1.679387,-0.004845,-0.643300,-10.311205,-3.912368,-0.048921,-0.005612,0.000000,0.171982,0.366304,-0.000000
2.740000,-0.019693,-0.207963,-1.447141,1.804698,0.295936,-0.013622,0.018911,-0.460461,0.072656,-3.575507,1.594303,-0.044179,-0.464630,-0.151275,-3.994091,-0.047253,-0.001942,0.000000,0.163546,0.366793,0.000000
2.750000,-0.001646,-0.205026,-1.447274,1.804709,0.291411,-0.012898,-0.016864,-0.444362,0.072013,-3.578506,1.620786,-0.084316,0.086740,-1.078580,-3.989763,-0.045600,0.001732,0.000000,0.166517,0.367081,0.000000
2.760000,0.016400,-0.202134,-1.447399,1.804361,0.287049,-0.012183,-0.052666,-0.428111,0.070972,-3.581847,1.631729,-0.123706,0.473697,-1.060850,-3.964884,-0.043929,0.005408,0.000000,0.167864,0.367349,0.000000
2.770000,0.034440,-0.199285,-1.447518,1.803655,0.282849,-0.011480,-0.088388,-0.412078,0.069533,-3.557759,1.559864,-0.164294,3.146182,-9.093498,-4.073351,-0.042279,0.009074,0.000000,0.160702,0.364746,-0.000000
2.780000,0.052472,-0.196476,-1.447629,1.802594,0.278805,-0.010793,-0.123865,-0.396714,0.067692,-3.544070,1.538431,-0.203510,-0.448846,4.949368,-3.765047,-0.040695,0.012713,0.000000,0.158675,0.363156,-0.000000
2.790000,0.070491,-0.193708,-1.447734,1.801178,0.274915,-0.010127,-0.159320,-0.381087,0.065469,-3.542630,1.573936,-0.241100,1.939691,-2.085931,-3.828192,-0.039083,0.016348,0.000000,0.162450,0.362772,-0.000000
2.800000,0.088494,-0.190978,-1.447832,1.799408,0.271183,-0.009485,-0.194611,-0.365564,0.062866,-3.515585,1.533013,-0.279365,2.263717,-1.852218,-3.745125,-0.037480,0.019963,0.000000,0.158369,0.359710,0.000000
2.810000,0.106478,-0.188284,-1.447923,1.797287,0.267604,-0.008871,-0.229693,-0.350200,0.059889,-3.501625,1.543570,-0.315814,2.435497,-1.251000,-3.641602,-0.035892,0.023554,0.000000,0.159530,0.357944,-0.000000
2.820000,0.124439,-0.185625,-1.448009,1.794815,0.264178,-0.008289,-0.264483,-0.335096,0.056545,-3.449343,1.460079,-0.353066,6.166797,-10.374426,-3.710042,-0.034331,0.027110,0.000000,0.151037,0.352205,-0.000000
2.830000,0.142373,-0.183000,-1.448089,1.791999,0.260899,-0.007742,-0.298761,-0.320741,0.052836,-3.417204,1.442550,-0.387944,0.203339,7.028275,-3.260361,-0.032845,0.030610,0.000000,0.149272,0.348493,-0.000000
2.840000,0.160278,-0.180407,-1.448164,1.788840,0.257765,-0.007233,-0.332917,-0.305962,0.048796,-3.407771,1.498098,-0.420182,3.555752,-1.038316,-3.282584,-0.031316,0.034093,0.000000,0.154953,0.347071,-0.000000
2.850000,0.178149,-0.177844,-1.448234,1.785342,0.254780,-0.006767,-0.366762,-0.291163,0.044430,-3.361922,1.465119,-0.452727,3.752911,-0.465401,-3.127375,-0.029785,0.037539,0.000000,0.151553,0.341887,-0.000000
2.860000,0.195983,-0.175310,-1.448300,1.781507,0.251941,-0.006346,-0.400098,-0.276744,0.039749,-3.301990,1.413049,-0.483311,4.505497,-1.238937,-2.968841,-0.028294,0.040928,0.000000,0.146178,0.335241,-0.000000
2.870000,0.213778,-0.172805,-1.448361,1.777341,0.249245,-0.005973,-0.433080,-0.262220,0.034771,-3.306079,1.520383,-0.511895,-1.699824,14.238402,-2.764263,-0.026792,0.044275,0.000000,0.157070,0.335112,-0.000000
2.880000,0.231529,-0.170325,-1.448419,1.772845,0.246700,-0.005651,-0.466025,-0.246757,0.029516,-3.259921,1.520065,-0.538942,11.045845,-14.571223,-2.644090,-0.025196,0.047612,0.000000,0.156927,0.329829,-0.000000
2.890000,0.249234,-0.167870,-1.448474,1.768024,0.244306,-0.005383,-0.498065,-0.232285,0.023997,-3.158409,1.400048,-0.564376,5.600222,-0.892368,-2.422689,-0.023701,0.050852,0.000000,0.144552,0.318897,0.000000
2.900000,0.266889,-0.165438,-1.448527,1.762886,0.242053,-0.005172,-0.529457,-0.218108,0.018236,-3.116906,1.429706,-0.587520,6.341765,-1.687153,-2.222877,-0.022239,0.054019,0.000000,0.147438,0.314079,-0.000000
2.910000,0.284490,-0.163029,-1.448578,1.757436,0.239944,-0.005019,-0.560360,-0.203779,0.012255,-3.064546,1.439296,-0.608215,6.560240,-1.360150,-2.002631,-0.020762,0.057131,0.000000,0.148252,0.308156,0.000000
2.920000,0.302036,-0.160639,-1.448628,1.751681,0.237977,-0.004928,-0.590543,-0.189715,0.006072,-2.963389,1.356879,-0.628340,11.305599,-10.294473,-1.936791,-0.019314,0.060163,0.000000,0.139683,0.297271,0.000000
2.930000,0.319523,-0.158269,-1.448677,1.745629,0.236147,-0.004899,-0.619731,-0.176405,-0.000300,-2.888096,1.334780,-0.645158,3.675380,6.030164,-1.423075,-0.017944,0.063088,0.000000,0.137252,0.289040,-0.000000
2.940000,0.336948,-0.155916,-1.448726,1.739288,0.234450,-0.004934,-0.648422,-0.162757,-0.006819,-2.842175,1.379989,-0.658484,7.889912,-1.854396,-1.326073,-0.016542,0.065956,0.000000,0.141649,0.283813,-0.000000
2.950000,0.354308,-0.153579,-1.448776,1.732663,0.232891,-0.005035,-0.676381,-0.149177,-0.013468,-2.750603,1.339103,-0.670939,8.044927,-1.466423,-1.079434,-0.015149,0.068745,0.000000,0.137284,0.273970,0.000000
2.960000,0.371600,-0.151257,-1.448827,1.725763,0.231466,-0.005204,-0.703466,-0.135886,-0.020227,-2.665388,1.318478,-0.680455,8.403422,-1.507179,-0.832720,-0.013787,0.071440,0.000000,0.134973,0.264807,-0.000000
2.970000,0.388822,-0.148949,-1.448880,1.718596,0.230173,-0.005440,-0.729725,-0.122715,-0.027070,-2.588029,1.319560,-0.687670,7.641152,0.608202,-0.600524,-0.012440,0.074046,0.000000,0.134860,0.256472,-0.000000
2.980000,0.405971,-0.146654,-1.448936,1.711171,0.229012,-0.005745,-0.755188,-0.109547,-0.033972,-2.500535,1.307219,-0.692262,9.873405,-3.110676,-0.317178,-0.011095,0.076566,0.000000,0.133379,0.247152,0.000000
2.990000,0.423045,-0.144369,-1.448995,1.703496,0.227981,-0.006120,-0.779696,-0.096629,-0.040906,-2.402239,1.279944,-0.694198,9.202968,-1.216614,-0.079245,-0.009778,0.078985,0.000000,0.130386,0.236787,0.000000
3.000000,0.440040,-0.142093,-1.449059,1.695580,0.227079,-0.006563,-0.803269,-0.083860,-0.047848,-2.311595,1.273332,-0.693763,9.502073,-1.228201,0.175283,-0.008479,0.081306,0.000000,0.129487,0.227241,-0.000000
3.010000,0.456956,-0.139827,-1.449127,1.687434,0.226304,-0.007077,-0.825907,-0.071184,-0.054772,-2.215682,1.261939,-0.690756,9.741553,-1.151053,0.428295,-0.007191,0.083528,0.000000,0.128105,0.217215,0.000000
3.020000,0.473788,-0.137567,-1.449200,1.679065,0.225655,-0.007659,-0.847569,-0.058627,-0.061654,-2.116233,1.249396,-0.685181,10.083839,-1.257990,0.684148,-0.005917,0.085649,0.000000,0.126611,0.206887,-0.000000
3.030000,0.490536,-0.135313,-1.449280,1.670486,0.225131,-0.008309,-0.868227,-0.046189,-0.068468,-2.015359,1.238867,-0.677129,10.086106,-0.843836,0.925600,-0.004658,0.087666,0.000000,0.125326,0.196471,0.000000
3.040000,0.507197,-0.133064,-1.449367,1.661704,0.224731,-0.009028,-0.887873,-0.033841,-0.075189,-1.913317,1.230542,-0.666634,10.381836,-0.919902,1.174941,-0.003410,0.089578,0.000000,0.124270,0.185995,-0.000000
3.050000,0.523770,-0.130818,-1.449461,1.652732,0.224454,-0.009813,-0.906483,-0.021583,-0.081792,-1.808309,1.221330,-0.653664,10.554491,-0.822674,1.415950,-0.002173,0.091385,0.000000,0.123132,0.175281,0.000000
3.060000,0.540251,-0.128574,-1.449563,1.643578,0.224299,-0.010663,-0.924036,-0.009409,-0.088255,-1.702213,1.213565,-0.638462,10.708265,-0.727904,1.648833,-0.000946,0.093084,0.000000,0.122149,0.164516,-0.000000
3.070000,0.556641,-0.126332,-1.449674,1.634254,0.224265,-0.011577,-0.940518,0.002692,-0.094552,-1.593776,1.206799,-0.620475,10.931119,-0.626430,1.922861,0.000271,0.094674,0.000000,0.121276,0.153580,0.000000
3.080000,0.572936,-0.124089,-1.449795,1.624771,0.224352,-0.012554,-0.955910,0.014730,-0.100658,-1.484597,1.201013,-0.600546,10.900176,-0.530264,2.060834,0.001479,0.096155,0.000000,0.120514,0.142626,-0.000000
3.090000,0.589136,-0.121844,-1.449926,1.615140,0.224560,-0.013590,-0.970209,0.026715,-0.106557,-1.374920,1.196235,-0.578787,11.077737,-0.423257,2.314558,0.002681,0.097527,0.000000,0.119865,0.131678,0.000000
3.100000,0.605238,-0.119597,-1.450067,1.605371,0.224886,-0.014684,-0.983402,0.038658,-0.112225,-1.263491,1.192542,-0.554497,11.159896,-0.316740,2.517192,0.003877,0.098788,0.000000,0.119338,0.120615,0.000000
3.110000,0.621243,-0.117346,-1.450219,1.595476,0.225333,-0.015834,-0.995478,0.050570,-0.117642,-1.151728,1.189947,-0.528591,11.223091,-0.207643,2.706823,0.005068,0.099939,0.000000,0.118935,0.109570,0.000000
3.120000,0.637147,-0.115090,-1.450384,1.585465,0.225898,-0.017036,-1.006432,0.062460,-0.122787,-1.038781,1.188341,-0.499984,11.330827,-0.107840,2.969479,0.006256,0.100980,0.000000,0.118647,0.098468,0.000000
3.130000,0.652952,-0.112828,-1.450560,1.575351,0.226582,-0.018288,-1.016254,0.074341,-0.127638,-0.925855,1.187910,-0.470146,11.250252,0.021878,2.994876,0.007442,0.101909,0.000000,0.118491,0.087412,-0.000000
3.140000,0.668654,-0.110558,-1.450750,1.565144,0.227385,-0.019588,-1.024950,0.086223,-0.132187,-0.813178,1.188668,-0.439250,11.315116,0.124208,3.226076,0.008626,0.102728,0.000000,0.118470,0.076421,-0.000000
3.150000,0.684254,-0.108280,-1.450952,1.554855,0.228306,-0.020931,-1.032515,0.098117,-0.136414,-0.699892,1.190441,-0.406036,11.306323,0.236019,3.371098,0.009812,0.103437,0.000000,0.118567,0.065420,-0.000000
3.160000,0.699751,-0.105992,-1.451168,1.544497,0.229347,-0.022315,-1.038950,0.110035,-0.140305,-0.587085,1.193383,-0.371964,11.278796,0.347507,3.499434,0.010998,0.104037,0.000000,0.118798,0.054501,0.000000
3.170000,0.715144,-0.103692,-1.451399,1.534080,0.230507,-0.023736,-1.044256,0.121988,-0.143845,-0.474132,1.197344,-0.335564,11.283169,0.449103,3.722524,0.012188,0.104527,0.000000,0.119149,0.043613,-0.000000
3.180000,0.730433,-0.101381,-1.451643,1.523616,0.231787,-0.025190,-1.048435,0.133986,-0.147015,-0.362019,1.202458,-0.298731,11.135619,0.573494,3.640034,0.013382,0.104910,0.000000,0.119632,0.032832,-0.000000
3.190000,0.745616,-0.099056,-1.451903,1.513115,0.233187,-0.026675,-1.051500,0.146041,-0.149819,-0.250957,1.208714,-0.261679,11.099924,0.672645,3.824451,0.014581,0.105185,0.000000,0.120245,0.022174,-0.000000
3.200000,0.760695,-0.096717,-1.452177,1.502590,0.234708,-0.028186,-1.053455,0.158164,-0.152242,-0.140298,1.215942,-0.222770,11.003219,0.777291,3.899032,0.015787,0.105353,0.000000,0.120976,0.011587,0.000000
3.210000,0.775668,-0.094362,-1.452466,1.492050,0.236351,-0.029718,-1.054310,0.170364,-0.154275,-0.030949,1.224260,-0.183796,10.888616,0.879398,3.956100,0.017001,0.105417,0.000000,0.121832,0.001141,0.000000
3.220000,0.790536,-0.091989,-1.452771,1.481507,0.238116,-0.031270,-1.054076,0.182652,-0.155911,0.077648,1.233461,-0.143118,10.803907,0.966304,4.116202,0.018224,0.105376,0.000000,0.122797,-0.009206,0.000000
3.230000,0.805298,-0.089599,-1.453092,1.470972,0.240004,-0.032835,-1.052763,0.195037,-0.157139,0.184570,1.243701,-0.102799,10.577142,1.081128,3.943441,0.019457,0.105233,0.000000,0.123882,-0.019387,0.000000
3.240000,0.819955,-0.087189,-1.453428,1.460455,0.242017,-0.034411,-1.050391,0.207529,-0.157969,0.289625,1.254945,-0.063065,10.455432,1.160834,4.062358,0.020702,0.104989,0.000000,0.125084,-0.029390,0.000000
3.250000,0.834507,-0.084758,-1.453780,1.449968,0.244155,-0.035993,-1.046974,0.220138,-0.158395,0.393422,1.266953,-0.022122,10.277186,1.245918,4.062713,0.021959,0.104646,0.000000,0.126383,-0.039257,0.000000
3.260000,0.848955,-0.082305,-1.454148,1.439519,0.246420,-0.037578,-1.042530,0.232871,-0.158415,0.495048,1.279917,0.018140,10.081387,1.327154,4.046342,0.023230,0.104205,0.000000,0.127793,-0.048923,-0.000000
3.270000,0.863298,-0.079829,-1.454532,1.429120,0.248813,-0.039160,-1.037077,0.245737,-0.158028,0.595331,1.293301,0.059302,9.937922,1.366857,4.126472,0.024515,0.103667,0.000000,0.129266,-0.058455,0.000000
3.280000,0.877537,-0.077329,-1.454931,1.418781,0.251335,-0.040737,-1.030633,0.258741,-0.157233,0.693031,1.307617,0.099421,9.598739,1.495778,3.893418,0.025816,0.103036,0.000000,0.130847,-0.067752,-0.000000
3.290000,0.891674,-0.074802,-1.455346,1.408511,0.253988,-0.042304,-1.023226,0.271893,-0.156045,0.787963,1.322821,0.138285,9.420530,1.525082,3.934917,0.027133,0.102313,0.000000,0.132532,-0.076802,0.000000
3.300000,0.905708,-0.072249,-1.455777,1.398320,0.256773,-0.043857,-1.014879,0.285198,-0.154464,0.881098,1.338250,0.177585,9.169705,1.577780,3.865466,0.028466,0.101500,0.000000,0.134258,-0.085685,-0.000000
3.310000,0.919640,-0.069666,-1.456223,1.388216,0.259692,-0.045392,-1.005599,0.298633,-0.152498,0.974820,1.348247,0.215497,8.974374,1.501983,3.780051,0.029815,0.100598,0.000000,0.135458,-0.094659,0.000000
3.320000,0.933472,-0.067054,-1.456685,1.378211,0.262747,-0.046905,-0.995438,0.312248,-0.150152,1.055035,1.378222,0.253746,7.646227,3.443565,3.804649,0.031184,0.099611,0.000000,0.138667,-0.102307,0.000000
3.330000,0.947205,-0.064411,-1.457161,1.368310,0.265938,-0.048393,-0.984479,0.326146,-0.147430,1.139871,1.395091,0.290225,9.336180,-0.102314,3.487255,0.032584,0.098548,0.000000,0.140583,-0.110454,0.000000
3.340000,0.960839,-0.061735,-1.457653,1.358524,0.269270,-0.049853,-0.972618,0.340093,-0.144355,1.229955,1.397417,0.324736,8.091235,1.628126,3.477070,0.033990,0.097399,0.000000,0.141059,-0.119165,-0.000000
3.350000,0.974376,-0.059025,-1.458158,1.348861,0.272741,-0.051279,-0.959935,0.354176,-0.140934,1.306597,1.418693,0.359191,7.817129,1.573467,3.348836,0.035413,0.096169,0.000000,0.143442,-0.126564,-0.000000
3.360000,0.987817,-0.056280,-1.458678,1.339328,0.276354,-0.052670,-0.946542,0.368544,-0.137176,1.369583,1.457674,0.392234,7.212964,2.059649,3.219784,0.036867,0.094871,0.000000,0.147602,-0.132641,-0.000000
3.370000,1.001163,-0.053498,-1.459212,1.329932,0.280112,-0.054022,-0.932365,0.383008,-0.133097,1.473214,1.421582,0.423204,11.147217,-5.238072,3.010163,0.038333,0.093497,0.000000,0.144281,-0.142812,-0.000000
3.380000,1.014416,-0.050677,-1.459758,1.320684,0.284013,-0.055331,-0.917209,0.397179,-0.128715,1.542863,1.437717,0.453195,2.708142,8.588231,2.987897,0.039773,0.092026,0.000000,0.146179,-0.149636,0.000000
3.390000,1.027577,-0.047817,-1.460318,1.311589,0.288058,-0.056595,-0.901651,0.411986,-0.124036,1.575207,1.511507,0.482181,6.148323,2.084073,2.770339,0.041279,0.090516,0.000000,0.153847,-0.152771,0.000000
3.400000,1.040648,-0.044915,-1.460890,1.302653,0.292254,-0.057811,-0.885536,0.427100,-0.119079,1.645605,1.513888,0.508899,5.555168,2.449488,2.609676,0.042819,0.088951,0.000000,0.154391,-0.159746,0.000000
3.410000,1.053631,-0.041971,-1.461474,1.293881,0.296600,-0.058976,-0.868714,0.442198,-0.113866,1.720821,1.500943,0.533411,5.569277,1.743493,2.425188,0.044360,0.087315,0.000000,0.153404,-0.167250,0.000000
3.420000,1.066526,-0.038983,-1.462070,1.285280,0.301098,-0.060087,-0.851438,0.457646,-0.108407,1.720966,1.611062,0.558613,-1.732242,13.682673,2.484854,0.045940,0.085634,0.000000,0.164738,-0.167267,-0.000000
3.430000,1.079337,-0.035949,-1.462676,1.276852,0.305757,-0.061143,-0.834117,0.474087,-0.102706,1.766114,1.636102,0.580372,10.881671,-8.885697,1.862271,0.047622,0.083948,0.000000,0.167569,-0.171827,-0.000000
3.440000,1.092064,-0.032867,-1.463292,1.268601,0.310578,-0.062141,-0.815918,0.490001,-0.096812,1.861610,1.566594,0.598469,4.374547,1.635206,1.887398,0.049254,0.082174,0.000000,0.160924,-0.181484,0.000000
3.450000,1.104709,-0.029737,-1.463918,1.260535,0.315557,-0.063079,-0.797188,0.505919,-0.090733,1.886192,1.612311,0.617003,4.368898,0.877959,1.688750,0.050890,0.080345,0.000000,0.165822,-0.184059,0.000000
3.460000,1.117275,-0.026556,-1.464554,1.252658,0.320697,-0.063955,-0.778168,0.522172,-0.084480,1.915776,1.640542,0.633368,3.841123,0.984692,1.506149,0.052563,0.078485,0.000000,0.168969,-0.187168,0.000000
3.470000,1.129763,-0.023322,-1.465197,1.244973,0.326001,-0.064768,-0.758704,0.538426,-0.078078,1.984064,1.597248,0.646409,7.582693,-5.962926,1.177781,0.054239,0.076579,0.000000,0.164933,-0.194205,0.000000
3.480000,1.142175,-0.020035,-1.465849,1.237486,0.331464,-0.065516,-0.738609,0.554293,-0.071554,2.020531,1.598561,0.658516,-0.363256,6.345308,1.246239,0.055879,0.074608,0.000000,0.165362,-0.198076,-0.000000
3.490000,1.154514,-0.016692,-1.466507,1.230201,0.337088,-0.066199,-0.718428,0.570593,-0.064910,2.021816,1.649893,0.669808,2.866875,0.215077,0.936123,0.057566,0.072625,0.000000,0.170814,-0.198427,0.000000
3.500000,1.166780,-0.013293,-1.467172,1.223119,0.342876,-0.066814,-0.698015,0.587004,-0.058170,2.058683,1.634466,0.677893,2.258932,0.403009,0.757813,0.059267,0.070616,0.000000,0.169547,-0.202389,-0.000000
3.510000,1.178977,-0.009834,-1.467843,1.216242,0.348828,-0.067362,-0.677368,0.603445,-0.051354,2.068580,1.655983,0.685085,1.571489,0.726453,0.588090,0.060973,0.068581,0.000000,0.171988,-0.203653,0.000000
3.520000,1.191106,-0.006316,-1.468519,1.209572,0.354945,-0.067841,-0.656516,0.619876,-0.044482,2.107134,1.619794,0.688811,4.340750,-4.882769,0.248032,0.062682,0.066523,0.000000,0.168601,-0.207835,-0.000000
3.530000,1.203169,-0.002735,-1.469200,1.203113,0.361225,-0.068251,-0.635332,0.635995,-0.037579,2.117647,1.623006,0.691952,-2.293103,5.618534,0.383552,0.064361,0.064427,0.000000,0.169168,-0.209202,0.000000
3.540000,1.215169,0.000910,-1.469884,1.196865,0.367667,-0.068592,-0.614279,0.652506,-0.030643,2.097693,1.669726,0.694671,0.120716,0.608011,0.070036,0.066082,0.062342,0.000000,0.174115,-0.207496,-0.000000
3.550000,1.227107,0.004619,-1.470572,1.190827,0.374275,-0.068864,-0.593257,0.669152,-0.023698,2.104730,1.661435,0.694139,-0.517634,0.826237,-0.084887,0.067819,0.060256,0.000000,0.173497,-0.208533,0.000000
3.560000,1.238986,0.008396,-1.471261,1.185000,0.381049,-0.069066,-0.572145,0.685640,-0.016766,2.119561,1.631338,0.692059,-0.558017,0.025098,-0.249800,0.069542,0.058158,0.000000,0.170662,-0.210368,-0.000000
3.570000,1.250808,0.012241,-1.471953,1.179384,0.387988,-0.069200,-0.551195,0.702310,-0.009856,2.056437,1.725060,0.689899,-8.134830,12.035372,-0.259239,0.071286,0.056072,0.000000,0.180313,-0.204307,0.000000
3.580000,1.262574,0.016156,-1.472645,1.173974,0.395099,-0.069264,-0.530834,0.719802,-0.002976,2.039408,1.731738,0.685256,4.855230,-10.913690,-0.670828,0.073114,0.054042,0.000000,0.181166,-0.202911,-0.000000
3.590000,1.274288,0.020143,-1.473338,1.168768,0.402382,-0.069259,-0.510204,0.736570,0.003840,2.074138,1.641774,0.678082,-1.872590,-0.340953,-0.684084,0.074871,0.051982,0.000000,0.172224,-0.206774,-0.000000
3.600000,1.285950,0.024204,-1.474030,1.163769,0.409830,-0.069187,-0.489665,0.753141,0.010587,2.035639,1.667678,0.670932,-1.875016,-1.195411,-0.823365,0.076610,0.049927,0.000000,0.174976,-0.203203,-0.000000
3.610000,1.297564,0.028340,-1.474721,1.158974,0.417445,-0.069048,-0.469474,0.769865,0.017256,2.000131,1.679663,0.662740,-2.444710,-1.084209,-0.936275,0.078365,0.047904,0.000000,0.176307,-0.199925,0.000000
3.620000,1.309130,0.032554,-1.475411,1.154379,0.425226,-0.068842,-0.449455,0.786358,0.023828,2.012325,1.603010,0.651107,2.181715,-9.701740,-1.270065,0.080098,0.045895,0.000000,0.168630,-0.201499,-0.000000
3.630000,1.320652,0.036845,-1.476098,1.149985,0.433169,-0.068572,-0.429372,0.802141,0.030280,1.987045,1.581044,0.639862,-7.322664,5.453491,-0.973766,0.081759,0.043876,0.000000,0.166473,-0.199254,0.000000
3.640000,1.332131,0.041217,-1.476782,1.145789,0.441271,-0.068237,-0.409873,0.818219,0.036628,1.920504,1.620252,0.629255,-3.258720,-2.195003,-1.266388,0.083451,0.041913,0.000000,0.170508,-0.192790,-0.000000
3.650000,1.343568,0.045671,-1.477462,1.141786,0.449533,-0.067839,-0.390765,0.834188,0.042853,1.898733,1.576098,0.615581,-3.812027,-2.065171,-1.347236,0.085133,0.039987,0.000000,0.166062,-0.190878,0.000000
3.660000,1.354967,0.050209,-1.478139,1.137973,0.457953,-0.067380,-0.371955,0.849811,0.048941,1.863158,1.547308,0.601877,-4.092218,-2.375843,-1.423499,0.086780,0.038088,0.000000,0.163157,-0.187545,-0.000000
3.670000,1.366329,0.054831,-1.478810,1.134346,0.466529,-0.066861,-0.353575,0.865231,0.054885,1.809670,1.540687,0.586864,-5.836143,-0.228121,-1.548386,0.088406,0.036229,0.000000,0.162477,-0.182374,0.000000
3.680000,1.377655,0.059540,-1.479476,1.130900,0.475258,-0.066283,-0.335735,0.880555,0.060677,1.762584,1.515876,0.571553,-3.554535,-4.774941,-1.511572,0.090022,0.034423,0.000000,0.159937,-0.177837,0.000000
3.690000,1.388947,0.064337,-1.480135,1.127630,0.484138,-0.065648,-0.318292,0.895472,0.066316,1.723122,1.471040,0.556066,-5.109193,-2.902025,-1.614112,0.091597,0.032655,0.000000,0.155349,-0.174061,0.000000
3.700000,1.400208,0.069223,-1.480788,1.124532,0.493166,-0.064957,-0.301342,0.910067,0.071795,1.667028,1.446858,0.539548,-5.335237,-3.221835,-1.658491,0.093138,0.030934,0.000000,0.152836,-0.168574,0.000000
3.710000,1.411438,0.074200,-1.481434,1.121601,0.502339,-0.064213,-0.284939,0.924368,0.077107,1.613099,1.412997,0.522970,-5.579838,-3.470534,-1.692848,0.094649,0.029268,0.000000,0.149326,-0.163289,-0.000000
3.720000,1.422640,0.079270,-1.482072,1.118832,0.511652,-0.063416,-0.269098,0.938325,0.082250,1.554271,1.378182,0.505377,-6.055099,-3.570287,-1.788656,0.096125,0.027656,0.000000,0.145698,-0.157488,0.000000
3.730000,1.433815,0.084434,-1.482702,1.116217,0.521104,-0.062568,-0.253855,0.951920,0.087216,1.494738,1.339962,0.487973,-5.844859,-4.075835,-1.689872,0.097562,0.026103,0.000000,0.141714,-0.151597,0.000000
3.740000,1.444965,0.089693,-1.483324,1.113753,0.530689,-0.061672,-0.239204,0.965112,0.092011,1.434838,1.298242,0.470878,-6.261872,-4.189572,-1.764045,0.098958,0.024610,0.000000,0.137365,-0.145650,-0.000000
3.750000,1.456091,0.095048,-1.483936,1.111431,0.540405,-0.060729,-0.225175,0.977883,0.096630,1.370652,1.255514,0.453022,-6.443945,-4.433424,-1.770167,0.100309,0.023178,0.000000,0.132896,-0.139250,-0.000000
3.760000,1.467194,0.100501,-1.484538,1.109247,0.550246,-0.059740,-0.211795,0.990216,0.101072,1.305126,1.210747,0.435419,-6.622698,-4.653490,-1.770017,0.101615,0.021811,0.000000,0.128211,-0.132696,-0.000000
3.770000,1.478276,0.106053,-1.485130,1.107193,0.560207,-0.058708,-0.199075,1.002080,0.105337,1.238581,1.161226,0.417452,-6.718546,-5.119791,-1.802484,0.102871,0.020510,0.000000,0.123029,-0.126022,-0.000000
3.780000,1.489339,0.111706,-1.485712,1.105263,0.570285,-0.057634,-0.187030,1.013439,0.109423,1.170074,1.111102,0.399809,-6.981493,-4.899848,-1.724703,0.104075,0.019278,0.000000,0.117780,-0.119132,-0.000000
3.790000,1.500382,0.117459,-1.486283,1.103450,0.580475,-0.056520,-0.175680,1.024302,0.113335,1.099711,1.060614,0.382570,-7.053188,-5.328362,-1.742266,0.105227,0.018116,0.000000,0.112489,-0.112036,0.000000
3.800000,1.511408,0.123316,-1.486842,1.101747,0.590770,-0.055368,-0.165037,1.034634,0.117073,1.028763,1.005672,0.365149,-7.168835,-5.527902,-1.720975,0.106323,0.017025,0.000000,0.106735,-0.104868,-0.000000
3.810000,1.522417,0.129275,-1.487390,1.100147,0.601165,-0.054179,-0.155108,1.044412,0.120639,0.956845,0.949431,0.348082,-7.260935,-5.728269,-1.696108,0.107361,0.016007,0.000000,0.100844,-0.097587,0.000000
3.820000,1.533411,0.135339,-1.487926,1.098643,0.611656,-0.052956,-0.145907,1.053616,0.124035,0.883148,0.891045,0.331200,-7.428473,-5.938933,-1.675471,0.108339,0.015063,0.000000,0.094730,-0.090111,0.000000
3.830000,1.544390,0.141509,-1.488449,1.097226,0.622236,-0.051699,-0.137445,1.062227,0.127264,0.809322,0.830865,0.314672,-7.332694,-6.095546,-1.629399,0.109255,0.014194,0.000000,0.088430,-0.082610,-0.000000
3.840000,1.555356,0.147784,-1.488960,1.095891,0.632899,-0.050411,-0.129720,1.070227,0.130330,0.735587,0.768979,0.298537,-7.459500,-6.289254,-1.601546,0.110107,0.013400,0.000000,0.081956,-0.075109,0.000000
3.850000,1.566309,0.154167,-1.489457,1.094630,0.643638,-0.049093,-0.122738,1.077600,0.133236,0.660596,0.705183,0.282690,-7.489334,-6.459489,-1.563602,0.110894,0.012683,0.000000,0.075283,-0.067468,0.000000
3.860000,1.577249,0.160657,-1.489941,1.093434,0.654448,-0.047747,-0.116507,1.084326,0.135985,0.585783,0.639896,0.267203,-7.503774,-6.619177,-1.524875,0.111613,0.012043,0.000000,0.068458,-0.059836,0.000000
3.870000,1.588177,0.167256,-1.490412,1.092297,0.665323,-0.046374,-0.111026,1.090390,0.138582,0.510265,0.572620,0.252277,-7.565314,-6.812485,-1.468310,0.112262,0.011479,0.000000,0.061431,-0.052124,-0.000000
3.880000,1.599095,0.173964,-1.490869,1.091211,0.676254,-0.044976,-0.106300,1.095775,0.141032,0.435200,0.504141,0.237666,-7.444391,-6.881023,-1.453929,0.112841,0.010993,0.000000,0.054281,-0.044450,0.000000
3.890000,1.610002,0.180781,-1.491312,1.090168,0.687236,-0.043554,-0.102319,1.100470,0.143336,0.360774,0.434585,0.223371,-7.470829,-7.050961,-1.396612,0.113347,0.010584,0.000000,0.047020,-0.036835,0.000000
3.900000,1.620898,0.187709,-1.491740,1.089162,0.698261,-0.042109,-0.099085,1.104461,0.145501,0.286103,0.363344,0.209665,-7.428832,-7.173238,-1.352819,0.113781,0.010252,0.000000,0.039590,-0.029188,-0.000000
3.910000,1.631785,0.194747,-1.492154,1.088184,0.709323,-0.040644,-0.096594,1.107734,0.147530,0.212199,0.291173,0.196256,-7.372178,-7.284020,-1.310778,0.114139,0.009997,0.000000,0.032065,-0.021614,-0.000000
3.920000,1.642662,0.201895,-1.492553,1.087228,0.720413,-0.039159,-0.094841,1.110278,0.149429,0.138514,0.217471,0.183601,-7.342353,-7.430665,-1.236705,0.114421,0.009817,0.000000,0.024388,-0.014058,0.000000
3.930000,1.653530,0.209155,-1.492937,1.086285,0.731526,-0.037656,-0.093821,1.112081,0.151203,0.065821,0.143098,0.171175,-7.193496,-7.441433,-1.249017,0.114627,0.009713,0.000000,0.016642,-0.006598,0.000000
3.940000,1.664388,0.216526,-1.493306,1.085349,0.742652,-0.036135,-0.093521,1.113139,0.152853,-0.005728,0.068194,0.158951,-7.134797,-7.561898,-1.179395,0.114754,0.009684,0.000000,0.008840,0.000747,-0.000000
3.950000,1.675237,0.224008,-1.493659,1.084412,0.753786,-0.034599,-0.093934,1.113441,0.154385,-0.076666,-0.007898,0.147443,-7.029965,-7.630439,-1.138869,0.114803,0.009728,0.000000,0.000922,0.008035,0.000000
3.960000,1.686076,0.231602,-1.493998,1.083468,0.764919,-0.033048,-0.095050,1.112980,0.155802,-0.146362,-0.084323,0.136142,-6.914364,-7.685873,-1.100808,0.114772,0.009845,0.000000,-0.007032,0.015197,-0.000000
3.970000,1.696906,0.239306,-1.494320,1.082509,0.776043,-0.031484,-0.096857,1.111750,0.157110,-0.214981,-0.161882,0.125613,-6.801002,-7.791896,-1.025442,0.114662,0.010034,0.000000,-0.015096,0.022252,-0.000000
3.980000,1.707726,0.247122,-1.494627,1.081528,0.787151,-0.029906,-0.099345,1.109743,0.158315,-0.282208,-0.239453,0.115206,-6.642456,-7.719491,-1.056845,0.114470,0.010293,0.000000,-0.023164,0.029167,0.000000
3.990000,1.718536,0.255049,-1.494918,1.080520,0.798235,-0.028318,-0.102496,1.106962,0.159415,-0.347933,-0.316882,0.104877,-6.507678,-7.796714,-0.989054,0.114199,0.010620,0.000000,-0.031220,0.035929,0.000000
4.000000,1.729336,0.263087,-1.495194,1.079476,0.809288,-0.026718,-0.106299,1.103402,0.160415,-0.412281,-0.395077,0.095244,-6.352888,-7.808204,-0.957779,0.113846,0.011015,0.000000,-0.039351,0.042552,-0.000000
4.010000,1.740126,0.271235,-1.495453,1.078392,0.820301,-0.025110,-0.110736,1.099062,0.161320,-0.474928,-0.472979,0.085706,-6.188087,-7.806650,-0.929578,0.113412,0.011476,0.000000,-0.047454,0.049001,0.000000
4.020000,1.750904,0.279493,-1.495696,1.077260,0.831266,-0.023492,-0.115793,1.093940,0.162132,-0.536136,-0.551508,0.076835,-6.039564,-7.862136,-0.865110,0.112896,0.012001,0.000000,-0.055617,0.055304,0.000000
4.030000,1.761671,0.287860,-1.495923,1.076074,0.842177,-0.021867,-0.121453,1.088034,0.162856,-0.595428,-0.629446,0.067976,-5.817336,-7.722573,-0.907617,0.112300,0.012589,0.000000,-0.063724,0.061410,0.000000
4.040000,1.772425,0.296336,-1.496133,1.074829,0.853024,-0.020235,-0.127695,1.081353,0.163491,-0.652715,-0.706637,0.059079,-5.651741,-7.749578,-0.852194,0.111622,0.013237,0.000000,-0.071759,0.067311,0.000000
4.050000,1.783167,0.304920,-1.496327,1.073518,0.863801,-0.018598,-0.134501,1.073899,0.164040,-0.708330,-0.784100,0.050758,-5.457807,-7.705899,-0.833094,0.110864,0.013943,0.000000,-0.079819,0.073041,-0.000000
4.060000,1.793896,0.313612,-1.496505,1.072137,0.874500,-0.016955,-0.141854,1.065674,0.164506,-0.761894,-0.860852,0.042418,-5.258488,-7.653249,-0.817451,0.110026,0.014706,0.000000,-0.087810,0.078559,-0.000000
4.070000,1.804610,0.322410,-1.496666,1.070679,0.885112,-0.015308,-0.149733,1.056683,0.164890,-0.813523,-0.937229,0.034565,-5.062101,-7.610438,-0.770893,0.109108,0.015523,0.000000,-0.095762,0.083879,0.000000
4.080000,1.815309,0.331314,-1.496811,1.069140,0.895631,-0.013657,-0.158118,1.046932,0.165197,-0.863031,-1.012814,0.026627,-4.838792,-7.504563,-0.817666,0.108111,0.016393,0.000000,-0.103636,0.088980,-0.000000
4.090000,1.825992,0.340322,-1.496939,1.067515,0.906048,-0.012004,-0.166986,1.036430,0.165422,-0.910371,-1.087496,0.018554,-4.632906,-7.440652,-0.779716,0.107036,0.017312,0.000000,-0.111423,0.093857,-0.000000
4.100000,1.836659,0.349434,-1.497051,1.065799,0.916357,-0.010349,-0.176318,1.025184,0.165569,-0.955642,-1.161509,0.010876,-4.416542,-7.350097,-0.773906,0.105883,0.018280,0.000000,-0.119140,0.098520,-0.000000
4.110000,1.847308,0.358649,-1.497146,1.063987,0.926550,-0.008693,-0.186092,1.013204,0.165639,-0.998886,-1.234433,0.003082,-4.199920,-7.249651,-0.771148,0.104653,0.019293,0.000000,-0.126749,0.102973,-0.000000
4.120000,1.857938,0.367965,-1.497225,1.062076,0.936619,-0.007037,-0.196286,1.000498,0.165632,-1.039314,-1.306627,-0.004428,-3.918212,-7.171640,-0.744714,0.103348,0.020350,0.000000,-0.134283,0.107135,-0.000000
4.130000,1.868549,0.377381,-1.497287,1.060060,0.946557,-0.005381,-0.206873,0.987076,0.165550,-1.077934,-1.377500,-0.012103,-3.806407,-7.001129,-0.790939,0.101968,0.021447,0.000000,-0.141686,0.111109,0.000000
4.140000,1.879139,0.386896,-1.497333,1.057937,0.956358,-0.003726,-0.217839,0.972953,0.165389,-1.114772,-1.446949,-0.019982,-3.527759,-6.903723,-0.771631,0.100515,0.022583,0.000000,-0.148945,0.114896,-0.000000
4.150000,1.889707,0.396508,-1.497362,1.055702,0.966014,-0.002073,-0.229158,0.958140,0.165151,-1.148765,-1.515411,-0.027661,-3.303977,-6.771157,-0.777750,0.098989,0.023755,0.000000,-0.156103,0.118389,-0.000000
4.160000,1.900253,0.406215,-1.497374,1.053353,0.975518,-0.000423,-0.240808,0.942650,0.164835,-1.180693,-1.582371,-0.035521,-3.077665,-6.631193,-0.785803,0.097393,0.024961,0.000000,-0.163108,0.121665,0.000000
4.170000,1.910774,0.416018,-1.497370,1.050885,0.984865,0.001223,-0.252764,0.926496,0.164441,-1.210282,-1.648118,-0.043302,-2.843746,-6.505872,-0.779263,0.095728,0.026199,0.000000,-0.169988,0.124698,-0.000000
4.180000,1.921270,0.425912,-1.497350,1.048297,0.994046,0.002865,-0.265006,0.909693,0.163969,-1.237644,-1.712233,-0.051291,-2.628929,-6.315921,-0.819050,0.093994,0.027466,0.000000,-0.176702,0.127498,0.000000
4.190000,1.931740,0.435898,-1.497313,1.045584,1.003056,0.004502,-0.277510,0.892257,0.163415,-1.262787,-1.774641,-0.059516,-2.396011,-6.175859,-0.817385,0.092194,0.028760,0.000000,-0.183241,0.130065,-0.000000
4.200000,1.942181,0.445973,-1.497260,1.042746,1.011889,0.006133,-0.290254,0.874204,0.162778,-1.285595,-1.835637,-0.067722,-2.169681,-6.011175,-0.832219,0.090330,0.030078,0.000000,-0.189633,0.132387,-0.000000
4.210000,1.952594,0.456135,-1.497190,1.039778,1.020539,0.007758,-0.303214,0.855550,0.162059,-1.306161,-1.894956,-0.076144,-1.944244,-5.842928,-0.848022,0.088402,0.031418,0.000000,-0.195850,0.134474,0.000000
4.220000,1.962977,0.466383,-1.497105,1.036681,1.028998,0.009374,-0.316369,0.836312,0.161255,-1.324489,-1.952398,-0.084647,-1.721138,-5.653301,-0.857024,0.086413,0.032777,0.000000,-0.201872,0.136325,-0.000000
4.230000,1.973327,0.476714,-1.497003,1.033451,1.037263,0.010983,-0.329697,0.816508,0.160366,-1.340579,-2.008187,-0.093374,-1.497240,-5.504015,-0.888541,0.084365,0.034153,0.000000,-0.207722,0.137941,0.000000
4.240000,1.983645,0.487128,-1.496885,1.030086,1.045327,0.012581,-0.343174,0.796154,0.159387,-1.354450,-2.062291,-0.102338,-1.277871,-5.307514,-0.900180,0.082260,0.035545,0.000000,-0.213394,0.139322,-0.000000
4.250000,1.993929,0.497620,-1.496751,1.026587,1.053184,0.014170,-0.356778,0.775269,0.158319,-1.366144,-2.114398,-0.111416,-1.060460,-5.121843,-0.919568,0.080098,0.036949,0.000000,-0.218856,0.140474,-0.000000
4.260000,2.004176,0.508190,-1.496602,1.022950,1.060830,0.015747,-0.370490,0.753872,0.157158,-1.375819,-2.164683,-0.120713,-0.848779,-4.932411,-0.939241,0.077883,0.038363,0.000000,-0.224124,0.141411,-0.000000
4.270000,2.014387,0.518836,-1.496436,1.019177,1.068260,0.017313,-0.384286,0.731982,0.155904,-1.382888,-2.213015,-0.130194,-0.591055,-4.735673,-0.957745,0.075616,0.039784,0.000000,-0.229185,0.142074,-0.000000
4.280000,2.024559,0.529555,-1.496255,1.015264,1.075468,0.018865,-0.398142,0.709618,0.154553,-1.388188,-2.259433,-0.139885,-0.470474,-4.547456,-0.980526,0.073300,0.041212,0.000000,-0.234042,0.142548,0.000000
4.290000,2.034692,0.540345,-1.496059,1.011214,1.082451,0.020404,-0.412044,0.686799,0.153105,-1.391792,-2.303912,-0.149789,-0.225204,-4.345915,-0.999538,0.070936,0.042643,0.000000,-0.238691,0.142842,0.000000
4.300000,2.044783,0.551203,-1.495847,1.007023,1.089203,0.021927,-0.425969,0.663546,0.151557,-1.392925,-2.346363,-0.159877,-0.027663,-4.145952,-1.019258,0.068527,0.044075,0.000000,-0.243122,0.142874,-0.000000
4.310000,2.054832,0.562128,-1.495621,1.002694,1.095720,0.023434,-0.439897,0.639878,0.149907,-1.392293,-2.386859,-0.170155,0.165966,-3.944938,-1.038606,0.066074,0.045506,0.000000,-0.247342,0.142718,-0.000000
4.320000,2.064837,0.573117,-1.495379,0.998226,1.101999,0.024925,-0.453808,0.615816,0.148153,-1.389504,-2.425182,-0.180667,0.378853,-3.727403,-1.061543,0.063581,0.046935,0.000000,-0.251328,0.142332,0.000000
4.330000,2.074796,0.584167,-1.495122,0.993618,1.108035,0.026397,-0.467681,0.591381,0.146293,-1.384988,-2.461566,-0.191340,0.523114,-3.549474,-1.072750,0.061049,0.048358,0.000000,-0.255102,0.141763,-0.000000
4.340000,2.084709,0.595277,-1.494851,0.988872,1.113826,0.027850,-0.481502,0.566592,0.144326,-1.378809,-2.496011,-0.202163,0.724311,-3.331461,-1.093817,0.058480,0.049775,0.000000,-0.258665,0.141016,0.000000
4.350000,2.094573,0.606443,-1.494565,0.983988,1.119366,0.029283,-0.495251,0.541468,0.142249,-1.370628,-2.528261,-0.213194,0.899271,-3.126188,-1.110270,0.055876,0.051182,0.000000,-0.261988,0.140057,0.000000
4.360000,2.104388,0.617663,-1.494265,0.978967,1.124654,0.030695,-0.508909,0.516033,0.140062,-1.360849,-2.558551,-0.224352,1.068710,-2.921251,-1.125299,0.053241,0.052579,0.000000,-0.265096,0.138926,-0.000000
4.370000,2.114152,0.628935,-1.493951,0.973811,1.129686,0.032084,-0.522461,0.490305,0.137761,-1.349152,-2.586588,-0.235735,1.257268,-2.696515,-1.147040,0.050575,0.053964,0.000000,-0.267958,0.137592,-0.000000
4.380000,2.123864,0.640256,-1.493624,0.968519,1.134459,0.033450,-0.535887,0.464307,0.135347,-1.335986,-2.612696,-0.247202,1.374576,-2.525460,-1.145821,0.047882,0.055334,0.000000,-0.270607,0.136102,-0.000000
4.390000,2.133522,0.651623,-1.493282,0.963093,1.138971,0.034791,-0.549176,0.438058,0.132817,-1.321423,-2.636892,-0.258731,1.549902,-2.303369,-1.163920,0.045164,0.056689,0.000000,-0.273044,0.134462,-0.000000
4.400000,2.143125,0.663035,-1.492928,0.957536,1.143220,0.036106,-0.562310,0.411577,0.130171,-1.305120,-2.658855,-0.270437,1.697711,-2.099550,-1.173130,0.042422,0.058026,0.000000,-0.275235,0.132638,-0.000000
4.410000,2.152672,0.674487,-1.492560,0.951848,1.147202,0.037394,-0.575274,0.384887,0.127408,-1.287489,-2.678895,-0.282177,1.839606,-1.897130,-1.180308,0.039660,0.059343,0.000000,-0.277212,0.130673,-0.000000
4.420000,2.162162,0.685978,-1.492180,0.946031,1.150917,0.038653,-0.588054,0.358007,0.124527,-1.268236,-2.696696,-0.294090,1.998249,-1.674362,-1.196297,0.036879,0.060641,0.000000,-0.278944,0.128537,-0.000000
4.430000,2.171592,0.697504,-1.491787,0.940087,1.154362,0.039884,-0.600635,0.330959,0.121527,-1.247787,-2.712619,-0.305980,2.090290,-1.510898,-1.181296,0.034081,0.061916,0.000000,-0.280466,0.126274,-0.000000
4.440000,2.180963,0.709064,-1.491383,0.934019,1.157535,0.041084,-0.613006,0.303761,0.118408,-1.226214,-2.726694,-0.317821,2.235099,-1.293029,-1.191990,0.031270,0.063167,0.000000,-0.281781,0.123893,-0.000000
4.450000,2.190272,0.720654,-1.490966,0.927828,1.160436,0.042252,-0.625154,0.276433,0.115170,-1.203209,-2.738582,-0.329768,2.353780,-1.095880,-1.191248,0.028447,0.064394,0.000000,-0.282855,0.121361,0.000000
4.460000,2.199519,0.732272,-1.490538,0.921516,1.163064,0.043387,-0.637067,0.248995,0.111813,-1.179156,-2.748621,-0.341631,2.466384,-0.900936,-1.187728,0.025614,0.065595,0.000000,-0.283723,0.118720,-0.000000
4.470000,2.208702,0.743914,-1.490098,0.915087,1.165416,0.044487,-0.648733,0.221468,0.108337,-1.153804,-2.756504,-0.353577,2.592754,-0.686814,-1.194449,0.022773,0.066769,0.000000,-0.284353,0.115943,-0.000000
4.480000,2.217820,0.755579,-1.489648,0.908543,1.167493,0.045553,-0.660140,0.193871,0.104742,-1.127535,-2.762594,-0.365375,2.659909,-0.531851,-1.164629,0.019927,0.067914,0.000000,-0.284783,0.113071,-0.000000
4.490000,2.226873,0.767263,-1.489187,0.901885,1.169293,0.046582,-0.671281,0.166221,0.101030,-1.100419,-2.766927,-0.376993,2.772461,-0.324087,-1.165126,0.017078,0.069030,0.000000,-0.285018,0.110113,0.000000
4.500000,2.235858,0.778964,-1.488717,0.895118,1.170817,0.047573,-0.682145,0.138539,0.097202,-1.072193,-2.769177,-0.388612,2.861599,-0.137324,-1.151866,0.014228,0.070116,0.000000,-0.285024,0.107041,0.000000
4.510000,2.244775,0.790679,-1.488236,0.888243,1.172064,0.048526,-0.692722,0.110844,0.093259,-1.043202,-2.769679,-0.400015,2.944626,0.046723,-1.135644,0.011378,0.071171,0.000000,-0.284836,0.103892,0.000000
4.520000,2.253622,0.802405,-1.487746,0.881265,1.173034,0.049438,-0.703005,0.083153,0.089201,-1.013239,-2.768158,-0.411385,3.038322,0.247212,-1.130653,0.008532,0.072194,0.000000,-0.284427,0.100644,0.000000
4.530000,2.262400,0.814139,-1.487247,0.874184,1.173727,0.050309,-0.712985,0.055486,0.085032,-0.982634,-2.764948,-0.422468,3.081526,0.394066,-1.085333,0.005690,0.073184,0.000000,-0.283832,0.097333,-0.000000
4.540000,2.271106,0.825878,-1.486740,0.867006,1.174144,0.051138,-0.722656,0.027859,0.080753,-0.951455,-2.760087,-0.433227,3.161907,0.587542,-1.073306,0.002856,0.074141,0.000000,-0.283055,0.093967,-0.000000
4.550000,2.279739,0.837621,-1.486225,0.859732,1.174284,0.051924,-0.732011,0.000291,0.076368,-0.919485,-2.753292,-0.443869,3.222268,0.761537,-1.046714,0.000030,0.075063,0.000000,-0.282069,0.090523,0.000000
4.560000,2.288300,0.849363,-1.485702,0.852367,1.174150,0.052665,-0.741044,-0.027201,0.071877,-0.887020,-2.744859,-0.454149,3.276686,0.932684,-1.016744,-0.002785,0.075951,0.000000,-0.280904,0.087034,0.000000
4.570000,2.296786,0.861103,-1.485172,0.844912,1.173741,0.053361,-0.749749,-0.054600,0.067285,-0.853905,-2.734572,-0.464266,3.338688,1.116301,-0.998671,-0.005588,0.076804,0.000000,-0.279540,0.083483,-0.000000
4.580000,2.305198,0.872837,-1.484635,0.837373,1.173058,0.054011,-0.758121,-0.081888,0.062593,-0.820407,-2.722707,-0.473954,3.359769,1.256042,-0.938292,-0.008375,0.077620,0.000000,-0.278006,0.079899,-0.000000
4.590000,2.313534,0.884563,-1.484092,0.829751,1.172103,0.054613,-0.766157,-0.109049,0.057807,-0.786590,-2.709301,-0.483177,3.409575,1.432563,-0.913422,-0.011147,0.078401,0.000000,-0.276308,0.076290,-0.000000
4.600000,2.321793,0.896278,-1.483543,0.822051,1.170878,0.055166,-0.773851,-0.136068,0.052931,-0.752289,-2.694132,-0.492143,3.442732,1.592883,-0.872463,-0.013901,0.079146,0.000000,-0.274422,0.072637,-0.000000
4.610000,2.329974,0.907980,-1.482988,0.814275,1.169383,0.055671,-0.781202,-0.162927,0.047966,-0.717744,-2.677442,-0.500612,3.470538,1.750305,-0.828727,-0.016635,0.079854,0.000000,-0.272377,0.068969,0.000000
4.620000,2.338078,0.919665,-1.482429,0.806428,1.167620,0.056125,-0.788205,-0.189611,0.042919,-0.682848,-2.659084,-0.508782,3.502826,1.915493,-0.797112,-0.019348,0.080526,0.000000,-0.270156,0.065272,0.000000
4.630000,2.346103,0.931331,-1.481866,0.798512,1.165591,0.056529,-0.794858,-0.216104,0.037793,-0.647807,-2.639256,-0.516386,3.504468,2.049274,-0.723021,-0.022038,0.081160,0.000000,-0.267784,0.061570,-0.000000
4.640000,2.354048,0.942976,-1.481299,0.790532,1.163298,0.056881,-0.801161,-0.242391,0.032594,-0.612675,-2.617997,-0.523389,3.526137,2.207674,-0.684889,-0.024703,0.081757,0.000000,-0.265264,0.057870,0.000000
4.650000,2.361913,0.954596,-1.480729,0.782490,1.160744,0.057181,-0.807111,-0.268458,0.027326,-0.577343,-2.595155,-0.530007,3.534580,2.354317,-0.630994,-0.027342,0.082318,0.000000,-0.262582,0.054158,0.000000
4.660000,2.369698,0.966190,-1.480156,0.774391,1.157930,0.057427,-0.812708,-0.294290,0.021996,-0.541998,-2.570905,-0.535999,3.538369,2.498059,-0.574539,-0.029954,0.082841,0.000000,-0.259758,0.050456,-0.000000
4.670000,2.377401,0.977754,-1.479580,0.766237,1.154859,0.057620,-0.817950,-0.319871,0.016607,-0.506548,-2.545175,-0.541559,3.546446,2.644636,-0.529828,-0.032537,0.083327,0.000000,-0.256786,0.046754,-0.000000
4.680000,2.385022,0.989286,-1.479003,0.758033,1.151533,0.057759,-0.822839,-0.345189,0.011167,-0.471178,-2.518082,-0.546435,3.526609,2.773524,-0.444817,-0.035090,0.083777,0.000000,-0.253679,0.043072,0.000000
4.690000,2.392561,1.000784,-1.478425,0.749782,1.147956,0.057844,-0.827374,-0.370228,0.005681,-0.435939,-2.489656,-0.550595,3.525220,2.914222,-0.394208,-0.037610,0.084189,0.000000,-0.250442,0.039416,0.000000
4.700000,2.400018,1.012244,-1.477847,0.741487,1.144130,0.057873,-0.831558,-0.394977,0.000156,-0.400720,-2.459833,-0.554254,3.512592,3.047195,-0.329443,-0.040098,0.084566,0.000000,-0.247069,0.035773,0.000000
4.710000,2.407391,1.023665,-1.477268,0.733152,1.140058,0.057847,-0.835389,-0.419421,-0.005401,-0.365683,-2.428709,-0.557181,3.495972,3.177797,-0.262354,-0.042551,0.084905,0.000000,-0.243572,0.032162,0.000000
4.720000,2.414681,1.035045,-1.476690,0.724780,1.135742,0.057765,-0.838872,-0.443547,-0.010986,-0.330797,-2.396281,-0.559556,3.478925,3.306731,-0.205953,-0.044969,0.085209,0.000000,-0.239951,0.028578,-0.000000
4.730000,2.421886,1.046380,-1.476113,0.716375,1.131188,0.057627,-0.842006,-0.467342,-0.016590,-0.296152,-2.362592,-0.561159,3.449478,3.430674,-0.114119,-0.047350,0.085478,0.000000,-0.236213,0.025032,0.000000
4.740000,2.429008,1.057668,-1.475538,0.707941,1.126397,0.057433,-0.844796,-0.490795,-0.022206,-0.261785,-2.327667,-0.561964,3.425059,3.554558,-0.053129,-0.049693,0.085711,0.000000,-0.232361,0.021529,-0.000000
4.750000,2.436045,1.068907,-1.474964,0.699481,1.121373,0.057183,-0.847243,-0.513891,-0.027827,-0.227671,-2.291517,-0.562164,3.394905,3.674811,0.020033,-0.051997,0.085909,0.000000,-0.228397,0.018063,-0.000000
4.760000,2.442998,1.080094,-1.474394,0.690997,1.116120,0.056876,-0.849350,-0.536621,-0.033447,-0.193858,-2.254172,-0.561565,3.362125,3.792903,0.094720,-0.054260,0.086073,0.000000,-0.224326,0.014641,-0.000000
4.770000,2.449865,1.091228,-1.473827,0.682495,1.110642,0.056514,-0.851121,-0.558971,-0.039057,-0.160484,-2.215676,-0.560315,3.317076,3.906898,0.160631,-0.056483,0.086202,0.000000,-0.220152,0.011276,0.000000
4.780000,2.456647,1.102306,-1.473264,0.673976,1.104942,0.056095,-0.852561,-0.580931,-0.044650,-0.127424,-2.176024,-0.558242,3.294609,4.022990,0.254224,-0.058663,0.086299,0.000000,-0.215878,0.007956,0.000000
4.790000,2.463344,1.113326,-1.472705,0.665445,1.099025,0.055621,-0.853671,-0.602488,-0.050219,-0.094699,-2.135241,-0.555331,3.245196,4.132422,0.322893,-0.060800,0.086362,0.000000,-0.211507,0.004684,0.000000
4.800000,2.469956,1.124286,-1.472152,0.656904,1.092894,0.055091,-0.854457,-0.623632,-0.055755,-0.062487,-2.093376,-0.551738,3.201720,4.241051,0.400905,-0.062893,0.086393,0.000000,-0.207044,0.001476,0.000000
4.810000,2.476483,1.135184,-1.471604,0.648357,1.086553,0.054506,-0.854922,-0.644352,-0.061251,-0.030737,-2.050417,-0.547324,3.154135,4.347140,0.479249,-0.064941,0.086392,0.000000,-0.202489,-0.001672,0.000000
4.820000,2.482923,1.146017,-1.471062,0.639806,1.080008,0.053866,-0.855073,-0.664637,-0.066699,0.000631,-2.006487,-0.542184,3.114201,4.442860,0.551911,-0.066942,0.086359,0.000000,-0.197855,-0.004770,-0.000000
4.830000,2.489279,1.156783,-1.470527,0.631256,1.073262,0.053172,-0.854912,-0.684478,-0.072091,0.031437,-1.961476,-0.536219,3.046556,4.559013,0.641041,-0.068898,0.086296,0.000000,-0.193132,-0.007798,0.000000
4.840000,2.495548,1.167481,-1.469999,0.622709,1.066320,0.052425,-0.854446,-0.703863,-0.077420,0.061655,-1.915403,-0.529427,3.001673,4.650896,0.714324,-0.070805,0.086203,0.000000,-0.188323,-0.010755,0.000000
4.850000,2.501733,1.178109,-1.469478,0.614168,1.059186,0.051624,-0.853680,-0.722783,-0.082678,0.091417,-1.868429,-0.521907,2.946119,4.747889,0.792701,-0.072664,0.086081,0.000000,-0.183444,-0.013655,0.000000
4.860000,2.507832,1.188664,-1.468966,0.605637,1.051866,0.050771,-0.852619,-0.741228,-0.087856,0.120595,-1.820460,-0.513586,2.889453,4.842553,0.870526,-0.074473,0.085930,0.000000,-0.178487,-0.016485,-0.000000
4.870000,2.513846,1.199146,-1.468463,0.597117,1.044363,0.049867,-0.851270,-0.759189,-0.092947,0.149201,-1.771613,-0.504507,2.831427,4.929225,0.946013,-0.076233,0.085750,0.000000,-0.173464,-0.019247,0.000000
4.880000,2.519774,1.209551,-1.467969,0.588612,1.036684,0.048913,-0.849637,-0.776657,-0.097943,0.177218,-1.721822,-0.494650,2.771609,5.028721,1.025309,-0.077942,0.085544,0.000000,-0.168368,-0.021939,-0.000000
4.890000,2.525618,1.219879,-1.467485,0.580125,1.028832,0.047909,-0.847728,-0.793623,-0.102837,0.204632,-1.671106,-0.484022,2.711063,5.111191,1.099156,-0.079600,0.085311,0.000000,-0.163202,-0.024561,0.000000
4.900000,2.531377,1.230127,-1.467011,0.571658,1.020813,0.046856,-0.845547,-0.810077,-0.107621,0.231433,-1.619582,-0.472663,2.649120,5.196122,1.173356,-0.081206,0.085051,0.000000,-0.157977,-0.027111,-0.000000
4.910000,2.537051,1.240294,-1.466548,0.563215,1.012632,0.045757,-0.843101,-0.826011,-0.112288,0.257663,-1.567193,-0.460573,2.587400,5.278736,1.245954,-0.082760,0.084767,0.000000,-0.152688,-0.029596,-0.000000
4.920000,2.542641,1.250379,-1.466096,0.554797,1.004295,0.044611,-0.840396,-0.841418,-0.116830,0.283092,-1.514039,-0.447734,2.507388,5.354108,1.320005,-0.084260,0.084458,0.000000,-0.147345,-0.031992,-0.000000
4.930000,2.548147,1.260380,-1.465656,0.546408,0.995806,0.043420,-0.837441,-0.856289,-0.121240,0.307999,-1.460068,-0.434211,2.474163,5.439870,1.384250,-0.085706,0.084125,0.000000,-0.141943,-0.034328,0.000000
4.940000,2.553569,1.270295,-1.465228,0.538049,0.987171,0.042187,-0.834238,-0.870617,-0.125512,0.332390,-1.405300,-0.420024,2.394791,5.510681,1.454409,-0.087099,0.083769,0.000000,-0.136484,-0.036606,-0.000000
4.950000,2.558908,1.280123,-1.464812,0.529724,0.978395,0.040911,-0.830796,-0.884393,-0.129639,0.355969,-1.349842,-0.405144,2.330336,5.583104,1.519798,-0.088436,0.083390,0.000000,-0.130977,-0.038796,-0.000000
4.960000,2.564164,1.289862,-1.464410,0.521434,0.969485,0.039594,-0.827121,-0.897611,-0.133613,0.378948,-1.293633,-0.389652,2.265007,5.653328,1.582620,-0.089718,0.082990,0.000000,-0.125416,-0.040920,-0.000000
4.970000,2.569337,1.299512,-1.464021,0.513182,0.960445,0.038239,-0.823219,-0.910264,-0.137429,0.401266,-1.236831,-0.373460,2.198816,5.711479,1.651199,-0.090944,0.082569,0.000000,-0.119819,-0.042972,-0.000000
4.980000,2.574428,1.309071,-1.463645,0.504971,0.951281,0.036846,-0.819097,-0.922345,-0.141081,0.422930,-1.179310,-0.356725,2.133950,5.792426,1.695183,-0.092114,0.082127,0.000000,-0.114169,-0.044954,0.000000
4.990000,2.579437,1.318537,-1.463284,0.496801,0.942000,0.035418,-0.814763,-0.933848,-0.144562,0.443938,-1.121090,-0.339479,2.067532,5.846053,1.757787,-0.093227,0.081666,0.000000,-0.108469,-0.046868,0.000000
5.000000,2.584364,1.327910,-1.462937,0.488676,0.932606,0.033956,-0.810221,-0.944766,-0.147868,0.464283,-1.062356,-0.321618,2.001635,5.905222,1.810080,-0.094283,0.081186,0.000000,-0.102737,-0.048711,-0.000000
5.010000,2.589210,1.337189,-1.462605,0.480597,0.923106,0.032461,-0.805479,-0.955093,-0.150993,0.483986,-1.003014,-0.303303,1.936135,5.961322,1.859070,-0.095282,0.080688,0.000000,-0.096963,-0.050489,0.000000
5.020000,2.593976,1.346372,-1.462288,0.472567,0.913506,0.030936,-0.800544,-0.964824,-0.153932,0.502980,-0.943153,-0.284385,1.865393,6.011732,1.917471,-0.096223,0.080172,0.000000,-0.091155,-0.052192,0.000000
5.030000,2.598662,1.355459,-1.461986,0.464587,0.903812,0.029383,-0.795421,-0.973954,-0.156680,0.521354,-0.882760,-0.265100,1.809671,6.066492,1.938760,-0.097105,0.079639,0.000000,-0.085310,-0.053833,-0.000000
5.040000,2.603268,1.364448,-1.461700,0.456659,0.894029,0.027803,-0.790119,-0.982478,-0.159233,0.539117,-0.821862,-0.245489,1.740037,6.111034,1.989447,-0.097929,0.079090,0.000000,-0.079430,-0.055413,0.000000
5.050000,2.607795,1.373339,-1.461430,0.448785,0.884164,0.026199,-0.784642,-0.990390,-0.161588,0.556180,-0.760537,-0.225377,1.675374,6.154789,2.025872,-0.098693,0.078526,0.000000,-0.073522,-0.056922,-0.000000
5.060000,2.612244,1.382131,-1.461176,0.440967,0.874224,0.024572,-0.778997,-0.997687,-0.163740,0.572648,-0.698774,-0.205012,1.612591,6.195540,2.057069,-0.099399,0.077947,0.000000,-0.067584,-0.058374,-0.000000
5.070000,2.616615,1.390823,-1.460939,0.433206,0.864213,0.022925,-0.773191,-1.004364,-0.165686,0.588398,-0.636652,-0.184175,1.541666,6.229852,2.101327,-0.100045,0.077353,0.000000,-0.061623,-0.059753,0.000000
5.080000,2.620908,1.399415,-1.460718,0.425504,0.854138,0.021259,-0.767231,-1.010419,-0.167423,0.603572,-0.574155,-0.163172,1.493562,6.269144,2.098439,-0.100631,0.076746,0.000000,-0.055634,-0.061078,0.000000
5.090000,2.625125,1.407906,-1.460514,0.417862,0.844007,0.019577,-0.761121,-1.015846,-0.168949,0.618186,-0.511313,-0.142051,1.424943,6.297081,2.133444,-0.101158,0.076125,0.000000,-0.049620,-0.062350,-0.000000
5.100000,2.629266,1.416295,-1.460326,0.410282,0.833824,0.017881,-0.754869,-1.020644,-0.170263,0.632109,-0.448216,-0.120585,1.364252,6.323876,2.150561,-0.101624,0.075492,0.000000,-0.043590,-0.063555,0.000000
5.110000,2.633331,1.424582,-1.460156,0.402765,0.823596,0.016173,-0.748481,-1.024810,-0.171361,0.645469,-0.384849,-0.099063,1.304591,6.347327,2.163141,-0.102029,0.074848,0.000000,-0.037539,-0.064708,-0.000000
5.120000,2.637321,1.432767,-1.460003,0.395313,0.813329,0.014455,-0.741962,-1.028340,-0.172243,0.658172,-0.321295,-0.077245,1.239391,6.364384,2.190210,-0.102374,0.074192,0.000000,-0.031476,-0.065798,-0.000000
5.130000,2.641237,1.440849,-1.459867,0.387926,0.803031,0.012729,-0.735319,-1.031235,-0.172906,0.670330,-0.257545,-0.055472,1.192589,6.385055,2.163413,-0.102659,0.073525,0.000000,-0.025397,-0.066839,-0.000000
5.140000,2.645080,1.448827,-1.459748,0.380607,0.792707,0.010997,-0.728557,-1.033491,-0.173352,0.681959,-0.193635,-0.033796,1.129983,6.394775,2.180763,-0.102882,0.072848,0.000000,-0.019303,-0.067833,0.000000
5.150000,2.648850,1.456703,-1.459647,0.373355,0.782363,0.009262,-0.721682,-1.035107,-0.173581,0.692963,-0.129651,-0.011956,1.074229,6.402967,2.177406,-0.103045,0.072161,0.000000,-0.013204,-0.068769,0.000000
5.160000,2.652547,1.464475,-1.459563,0.366173,0.772007,0.007526,-0.714700,-1.036084,-0.173592,0.703452,-0.065597,0.009732,1.019699,6.407078,2.169771,-0.103146,0.071466,0.000000,-0.007098,-0.069660,0.000000
5.170000,2.656173,1.472143,-1.459496,0.359062,0.761644,0.005791,-0.707615,-1.036419,-0.173386,0.713326,-0.001523,0.031520,0.959046,6.407080,2.177293,-0.103187,0.070761,0.000000,-0.000989,-0.070494,-0.000000
5.180000,2.659729,1.479708,-1.459447,0.352021,0.751281,0.004059,-0.700435,-1.036114,-0.172963,0.722715,0.062531,0.053056,0.919145,6.402977,2.129034,-0.103166,0.070048,0.000000,0.005123,-0.071288,-0.000000
5.190000,2.663214,1.487169,-1.459415,0.345053,0.740924,0.002333,-0.693163,-1.035169,-0.172326,0.731636,0.126522,0.074288,0.861521,6.394624,2.126778,-0.103084,0.069328,0.000000,0.011234,-0.072043,0.000000
5.200000,2.666630,1.494526,-1.459401,0.338158,0.730579,0.000613,-0.685804,-1.033584,-0.171477,0.739982,0.190407,0.095492,0.811530,6.381752,2.103521,-0.102941,0.068600,0.000000,0.017339,-0.072746,0.000000
5.210000,2.669977,1.501780,-1.459403,0.331337,0.720254,-0.001096,-0.678365,-1.031361,-0.170417,0.747872,0.254146,0.116345,0.762906,6.364653,2.076128,-0.102738,0.067865,0.000000,0.023438,-0.073412,-0.000000
5.220000,2.673257,1.508931,-1.459422,0.324591,0.709954,-0.002794,-0.670849,-1.028502,-0.169150,0.755208,0.317678,0.137092,0.708266,6.341665,2.063253,-0.102473,0.067124,0.000000,0.029523,-0.074028,-0.000000
5.230000,2.676470,1.515979,-1.459459,0.317921,0.699686,-0.004478,-0.663262,-1.025008,-0.167677,0.762120,0.380979,0.157399,0.674520,6.317820,1.997322,-0.102147,0.066377,0.000000,0.035597,-0.074612,0.000000
5.240000,2.679616,1.522925,-1.459512,0.311326,0.689456,-0.006147,-0.655608,-1.020883,-0.166004,0.768628,0.444004,0.177218,0.623394,6.285668,1.975467,-0.101761,0.065624,0.000000,0.041656,-0.075163,0.000000
5.250000,2.682696,1.529769,-1.459582,0.304809,0.679271,-0.007798,-0.647891,-1.016129,-0.164133,0.774616,0.506684,0.196811,0.579172,6.250077,1.933568,-0.101314,0.064866,0.000000,0.047692,-0.075670,-0.000000
5.260000,2.685712,1.536511,-1.459668,0.298369,0.669136,-0.009429,-0.640117,-1.010751,-0.162070,0.780215,0.568992,0.215881,0.536766,6.209666,1.888230,-0.100807,0.064103,0.000000,0.053705,-0.076146,0.000000
5.270000,2.688664,1.543152,-1.459770,0.292007,0.659058,-0.011039,-0.632288,-1.004751,-0.159817,0.785319,0.630850,0.234642,0.488162,6.162091,1.855356,-0.100240,0.063335,0.000000,0.059687,-0.076581,-0.000000
5.280000,2.691553,1.549692,-1.459889,0.285723,0.649043,-0.012625,-0.624411,-0.998135,-0.157379,0.790062,0.692242,0.252806,0.460819,6.115539,1.776747,-0.099613,0.062564,0.000000,0.065640,-0.076989,0.000000
5.290000,2.694379,1.556133,-1.460023,0.279518,0.639097,-0.014186,-0.616488,-0.990908,-0.154763,0.794461,0.753120,0.270331,0.415297,6.058053,1.736027,-0.098927,0.061788,0.000000,0.071559,-0.077371,-0.000000
5.300000,2.697143,1.562474,-1.460172,0.273393,0.629227,-0.015719,-0.608524,-0.983075,-0.151973,0.798405,0.813395,0.287447,0.377343,5.997300,1.678369,-0.098182,0.061009,0.000000,0.077435,-0.077715,-0.000000
5.310000,2.699847,1.568718,-1.460337,0.267348,0.619438,-0.017225,-0.600521,-0.974642,-0.149016,0.802018,0.873047,0.303907,0.341183,5.931261,1.618502,-0.097379,0.060226,0.000000,0.083268,-0.078035,0.000000
5.320000,2.702490,1.574863,-1.460517,0.261383,0.609736,-0.018699,-0.592485,-0.965616,-0.145897,0.805199,0.931992,0.319870,0.298827,5.857862,1.567436,-0.096517,0.059441,0.000000,0.089048,-0.078320,-0.000000
5.330000,2.705075,1.580913,-1.460711,0.255499,0.600127,-0.020142,-0.584418,-0.956005,-0.142621,0.808074,0.990207,0.335120,0.276408,5.784341,1.482155,-0.095598,0.058653,0.000000,0.094776,-0.078582,-0.000000
5.340000,2.707601,1.586866,-1.460919,0.249695,0.590618,-0.021551,-0.576324,-0.945815,-0.139197,0.810657,1.047639,0.349628,0.236544,5.700022,1.425246,-0.094622,0.057862,0.000000,0.100448,-0.078824,-0.000000
5.350000,2.710069,1.592725,-1.461142,0.243972,0.581213,-0.022925,-0.568206,-0.935055,-0.135630,0.812850,1.104198,0.363567,0.204712,5.611805,1.355954,-0.093589,0.057069,0.000000,0.106051,-0.079034,-0.000000
5.360000,2.712480,1.598491,-1.461378,0.238331,0.571918,-0.024263,-0.560068,-0.923734,-0.131928,0.814762,1.159869,0.376754,0.173581,5.518074,1.284748,-0.092501,0.056274,0.000000,0.111588,-0.079225,0.000000
5.370000,2.714836,1.604164,-1.461627,0.232771,0.562740,-0.025564,-0.551913,-0.911861,-0.128097,0.816285,1.214509,0.389290,0.135258,5.412154,1.218604,-0.091358,0.055478,0.000000,0.117043,-0.079383,0.000000
5.380000,2.717136,1.609746,-1.461889,0.227293,0.553683,-0.026825,-0.543743,-0.899447,-0.124145,0.817558,1.268160,0.401048,0.119643,5.317237,1.132663,-0.090161,0.054680,0.000000,0.122421,-0.079525,-0.000000
5.390000,2.719382,1.615238,-1.462163,0.221896,0.544753,-0.028046,-0.535562,-0.886501,-0.120079,0.818595,1.320767,0.412010,0.083689,5.199725,1.063015,-0.088910,0.053881,0.000000,0.127716,-0.079650,-0.000000
5.400000,2.721574,1.620642,-1.462450,0.216581,0.535955,-0.029226,-0.527373,-0.873036,-0.115907,0.819273,1.372164,0.422274,0.055857,5.081723,0.986216,-0.087607,0.053081,0.000000,0.132910,-0.079746,0.000000
5.410000,2.723714,1.625958,-1.462748,0.211349,0.527294,-0.030364,-0.519177,-0.859062,-0.111636,0.819715,1.422382,0.431746,0.028688,4.957412,0.908654,-0.086252,0.052280,0.000000,0.138009,-0.079825,-0.000000
5.420000,2.725802,1.631188,-1.463057,0.206198,0.518775,-0.031459,-0.510979,-0.844593,-0.107275,0.819813,1.471259,0.440451,-0.005238,4.820248,0.831507,-0.084847,0.051479,0.000000,0.142994,-0.079876,-0.000000
5.430000,2.727838,1.636334,-1.463377,0.201129,0.510404,-0.032509,-0.502782,-0.829641,-0.102830,0.819692,1.518834,0.448362,-0.018694,4.693708,0.750645,-0.083392,0.050677,0.000000,0.147869,-0.079911,-0.000000
5.440000,2.729824,1.641396,-1.463707,0.196142,0.502184,-0.033515,-0.494586,-0.814220,-0.098310,0.819364,1.565044,0.455475,-0.050577,4.543873,0.672463,-0.081890,0.049875,0.000000,0.152627,-0.079931,0.000000
5.450000,2.731761,1.646378,-1.464047,0.191237,0.494121,-0.034475,-0.486396,-0.798345,-0.093723,0.818704,1.609714,0.461805,-0.076471,4.392591,0.593037,-0.080340,0.049073,0.000000,0.157250,-0.079924,0.000000
5.460000,2.733649,1.651279,-1.464396,0.186414,0.486218,-0.035389,-0.478213,-0.782031,-0.089076,0.817826,1.652859,0.467351,-0.101613,4.234279,0.513928,-0.078745,0.048271,0.000000,0.161739,-0.079900,-0.000000
5.470000,2.735490,1.656103,-1.464754,0.181673,0.478481,-0.036256,-0.470040,-0.765294,-0.084379,0.816649,1.694366,0.472063,-0.131355,4.066880,0.430637,-0.077106,0.047470,0.000000,0.166081,-0.079851,0.000000
5.480000,2.737283,1.660850,-1.465121,0.177013,0.470914,-0.037077,-0.461881,-0.748149,-0.079638,0.815251,1.734194,0.476013,-0.148024,3.897365,0.359572,-0.075424,0.046670,0.000000,0.170272,-0.079785,0.000000
5.490000,2.739030,1.665522,-1.465496,0.172435,0.463520,-0.037849,-0.453736,-0.730616,-0.074861,0.813639,1.772269,0.479210,-0.176969,3.715474,0.277655,-0.073701,0.045870,0.000000,0.174302,-0.079701,-0.000000
5.500000,2.740732,1.670121,-1.465878,0.167939,0.456303,-0.038574,-0.445609,-0.712710,-0.070056,0.811724,1.808483,0.481588,-0.202510,3.527462,0.200316,-0.071939,0.045071,0.000000,0.178161,-0.079591,-0.000000
5.510000,2.742389,1.674648,-1.466267,0.163523,0.449267,-0.039250,-0.437502,-0.694452,-0.065232,0.809588,1.842804,0.483234,-0.227707,3.332121,0.124275,-0.070138,0.044274,0.000000,0.181843,-0.079462,0.000000
5.520000,2.744003,1.679107,-1.466663,0.159188,0.442415,-0.039878,-0.429418,-0.675861,-0.060395,0.807141,1.875070,0.484031,-0.258813,3.122982,0.040076,-0.068302,0.043478,0.000000,0.185331,-0.079305,-0.000000
5.530000,2.745573,1.683497,-1.467064,0.154935,0.435751,-0.040458,-0.421360,-0.656958,-0.055553,0.804471,1.905301,0.484140,-0.275215,2.921797,-0.017960,-0.066432,0.042684,0.000000,0.188626,-0.079128,0.000000
5.540000,2.747102,1.687822,-1.467472,0.150761,0.429277,-0.040989,-0.413330,-0.637762,-0.050714,0.801577,1.933417,0.483580,-0.306649,2.696988,-0.098668,-0.064531,0.041892,0.000000,0.191717,-0.078931,0.000000
5.550000,2.748589,1.692083,-1.467884,0.146668,0.422996,-0.041472,-0.405330,-0.618297,-0.045884,0.798361,1.959239,0.482213,-0.333668,2.469013,-0.169768,-0.062599,0.041102,0.000000,0.194586,-0.078704,0.000000
5.560000,2.750035,1.696283,-1.468301,0.142654,0.416912,-0.041907,-0.397363,-0.598585,-0.041072,0.794892,1.982771,0.480206,-0.361913,2.232908,-0.238551,-0.060640,0.040315,0.000000,0.197232,-0.078452,0.000000
5.570000,2.751442,1.700422,-1.468722,0.138720,0.411025,-0.042294,-0.389433,-0.578650,-0.036283,0.791094,2.003847,0.477385,-0.395384,1.983215,-0.318593,-0.058655,0.039531,0.000000,0.199637,-0.078170,-0.000000
5.580000,2.752810,1.704504,-1.469147,0.134866,0.405339,-0.042633,-0.381542,-0.558516,-0.031526,0.787031,2.022457,0.473980,-0.417349,1.737466,-0.361868,-0.056648,0.038749,0.000000,0.201797,-0.077861,-0.000000
5.590000,2.754140,1.708530,-1.469575,0.131089,0.399855,-0.042924,-0.373693,-0.538209,-0.026805,0.782695,2.038517,0.470019,-0.452555,1.470417,-0.436847,-0.054620,0.037971,0.000000,0.203702,-0.077525,-0.000000
5.600000,2.755432,1.712502,-1.470005,0.127392,0.394576,-0.043169,-0.365890,-0.517755,-0.022128,0.778000,2.051855,0.465313,-0.484703,1.198314,-0.497830,-0.052575,0.037197,0.000000,0.205334,-0.077153,0.000000
5.610000,2.756688,1.716422,-1.470438,0.123772,0.389501,-0.043367,-0.358134,-0.497181,-0.017501,0.773003,2.062446,0.460080,-0.518183,0.916885,-0.556424,-0.050514,0.036426,0.000000,0.206689,-0.076751,-0.000000
5.620000,2.757908,1.720292,-1.470872,0.120229,0.384632,-0.043519,-0.350431,-0.476516,-0.012929,0.767601,2.070148,0.454119,-0.559297,0.623216,-0.627643,-0.048442,0.035660,0.000000,0.207751,-0.076308,0.000000
5.630000,2.759093,1.724115,-1.471308,0.116763,0.379971,-0.043626,-0.342783,-0.455788,-0.008420,0.761878,2.074908,0.447697,-0.585530,0.327186,-0.656077,-0.046360,0.034898,0.000000,0.208512,-0.075831,0.000000
5.640000,2.760243,1.727892,-1.471745,0.113373,0.375517,-0.043688,-0.335194,-0.435028,-0.003977,0.755820,2.076630,0.440849,-0.629490,0.014189,-0.721072,-0.044273,0.034142,0.000000,0.208962,-0.075319,0.000000
5.650000,2.761360,1.731626,-1.472182,0.110059,0.371270,-0.043706,-0.327668,-0.414266,0.000395,0.749309,2.075170,0.433355,-0.669958,-0.306463,-0.769939,-0.042182,0.033390,0.000000,0.209084,-0.074760,-0.000000
5.660000,2.762445,1.735319,-1.472619,0.106819,0.367231,-0.043680,-0.320209,-0.393535,0.004689,0.742454,2.070487,0.425463,-0.711612,-0.636898,-0.816061,-0.040092,0.032645,0.000000,0.208873,-0.074164,-0.000000
5.670000,2.763497,1.738972,-1.473055,0.103654,0.363399,-0.043612,-0.312822,-0.372868,0.008902,0.734975,2.062351,0.416968,-0.774762,-0.987134,-0.874714,-0.038006,0.031906,0.000000,0.208305,-0.073503,-0.000000
5.680000,2.764518,1.742587,-1.473491,0.100563,0.359773,-0.043503,-0.305511,-0.352299,0.013028,0.727161,2.050810,0.408143,-0.788143,-1.322665,-0.889632,-0.035927,0.031174,0.000000,0.207382,-0.072806,-0.000000
5.690000,2.765509,1.746168,-1.473925,0.097544,0.356353,-0.043352,-0.298279,-0.331863,0.017064,0.719002,2.035763,0.399025,-0.854116,-1.693489,-0.941294,-0.033859,0.030449,0.000000,0.206093,-0.072071,0.000000
5.700000,2.766469,1.749715,-1.474358,0.094597,0.353136,-0.043162,-0.291133,-0.311597,0.021006,0.710146,2.016948,0.389391,-0.906524,-2.066807,-0.977013,-0.031807,0.029732,0.000000,0.204411,-0.071263,-0.000000
5.710000,2.767401,1.753231,-1.474788,0.091721,0.350120,-0.042932,-0.284078,-0.291537,0.024851,0.700834,1.994321,0.379491,-0.961711,-2.452696,-1.009624,-0.029772,0.029023,0.000000,0.202330,-0.070406,0.000000
5.720000,2.768304,1.756718,-1.475216,0.088915,0.347304,-0.042665,-0.277119,-0.271723,0.028595,0.690854,1.967928,0.369141,-1.029779,-2.835468,-1.053042,-0.027761,0.028324,0.000000,0.199853,-0.069478,-0.000000
