time,x,y,z,vx,vy,vz,ax,ay,az,jx,jy,jz,sx,sy,sz,roll,pitch,yaw,p,q,r
0.000000,-2.217184,-2.173872,-1.475166,0.013137,-0.008306,-0.001080,-0.277149,0.155318,-0.029449,-10.403539,5.516229,-1.190102,314.371553,-188.554279,24.960410,0.015778,0.028160,0.000000,0.557886,1.052956,0.000000
0.010000,-2.217053,-2.173955,-1.475176,0.010365,-0.006752,-0.001374,-0.381184,0.210480,-0.041350,-7.259823,3.630686,-0.940498,703.125824,-387.258419,64.195373,0.021346,0.038674,0.000000,0.365462,0.731980,0.000000
0.020000,-2.216977,-2.174007,-1.475193,0.005513,-0.004096,-0.001907,-0.422345,0.227931,-0.048259,3.658978,-2.228940,0.093806,882.379363,-430.267147,85.474867,0.023096,0.042816,0.000000,-0.225185,-0.369973,-0.000000
0.030000,-2.216943,-2.174037,-1.475214,0.001918,-0.002194,-0.002340,-0.308005,0.165901,-0.039474,10.387764,-4.974657,0.769000,240.728435,-24.898042,23.790214,0.016834,0.031261,0.000000,-0.502811,-1.051033,-0.000000
0.040000,-2.216939,-2.174051,-1.475240,-0.000647,-0.000778,-0.002696,-0.214590,0.128438,-0.032879,8.473546,-2.726900,0.569610,-174.615473,205.100199,-18.092487,0.013045,0.021798,0.000000,-0.275931,-0.859138,-0.000000
0.050000,-2.216956,-2.174052,-1.475268,-0.002374,0.000375,-0.002997,-0.138534,0.111363,-0.028081,6.895454,-0.872653,0.407150,-143.006102,168.118760,-14.623627,0.011318,0.014080,0.000000,-0.088101,-0.700128,0.000000
0.060000,-2.216986,-2.174043,-1.475300,-0.003418,0.001449,-0.003258,-0.076681,0.110985,-0.024736,5.613424,0.635475,0.277137,-115.282442,135.727258,-11.588785,0.011284,0.007797,0.000000,0.064973,-0.570485,-0.000000
0.070000,-2.217024,-2.174023,-1.475334,-0.003907,0.002595,-0.003492,-0.026265,0.124072,-0.022539,4.589806,1.841892,0.175374,-91.203047,107.627720,-8.959548,0.012618,0.002671,0.000000,0.187536,-0.466709,0.000000
0.080000,-2.217064,-2.173991,-1.475370,-0.003943,0.003931,-0.003709,0.015115,0.147823,-0.021228,3.789363,2.788029,0.097946,-70.526418,83.522177,-6.707488,0.015035,-0.001537,0.000000,0.283666,-0.385412,-0.000000
0.090000,-2.217103,-2.173945,-1.475408,-0.003605,0.005551,-0.003916,0.049522,0.179833,-0.020580,3.179277,3.512336,0.041224,-53.011122,63.112668,-4.804190,0.018291,-0.005037,0.000000,0.357210,-0.323366,-0.000000
0.100000,-2.217136,-2.173880,-1.475448,-0.002953,0.007527,-0.004120,0.078701,0.218070,-0.020404,2.729141,4.050283,0.001863,-38.415738,46.101238,-3.221243,0.022179,-0.008006,0.000000,0.411755,-0.277538,-0.000000
0.110000,-2.217162,-2.173794,-1.475490,-0.002031,0.009912,-0.004325,0.104105,0.260839,-0.020543,2.410962,4.434361,-0.023200,-26.498777,32.189906,-1.930228,0.026526,-0.010590,0.000000,0.450606,-0.245113,-0.000000
0.120000,-2.217177,-2.173682,-1.475534,-0.000871,0.012744,-0.004531,0.126920,0.306757,-0.020868,2.199165,4.694081,-0.036742,-17.018761,21.080674,-0.902715,0.031191,-0.012910,0.000000,0.476773,-0.223506,0.000000
0.130000,-2.217179,-2.173539,-1.475581,0.000507,0.016048,-0.004742,0.148088,0.354720,-0.021277,2.070587,4.855974,-0.041255,-9.734267,12.475595,-0.110290,0.036061,-0.015062,0.000000,0.492968,-0.210364,0.000000
0.140000,-2.217167,-2.173361,-1.475629,0.002091,0.019839,-0.004957,0.168332,0.403876,-0.021693,2.004480,4.943593,-0.038948,-4.403872,6.076775,0.475427,0.041050,-0.017120,0.000000,0.501596,-0.203580,0.000000
0.150000,-2.217137,-2.173143,-1.475680,0.003874,0.024125,-0.005176,0.188178,0.453592,-0.022056,1.982510,4.977509,-0.031746,-0.786080,1.586177,0.882881,0.046093,-0.019137,0.000000,0.504760,-0.201288,0.000000
0.160000,-2.217089,-2.172879,-1.475733,0.005855,0.028910,-0.005398,0.207982,0.503426,-0.022328,1.988758,4.975316,-0.021290,1.360601,-1.294257,1.140533,0.051145,-0.021150,0.000000,0.504252,-0.201867,-0.000000
0.170000,-2.217020,-2.172564,-1.475788,0.008034,0.034194,-0.005622,0.227953,0.553099,-0.022482,2.009722,4.951624,-0.008935,2.307158,-2.906664,1.281346,0.056178,-0.023179,0.000000,0.501560,-0.203943,-0.000000
0.180000,-2.216929,-2.172195,-1.475845,0.010414,0.039972,-0.005848,0.248176,0.602459,-0.022506,2.034901,4.917183,0.004337,2.812069,-4.322812,1.414033,0.061176,-0.025235,0.000000,0.497775,-0.206449,-0.000000
0.190000,-2.216812,-2.171765,-1.475905,0.012997,0.046243,-0.006072,0.268651,0.651442,-0.022395,2.065963,4.865168,0.019345,2.938038,-5.573166,1.539276,0.066133,-0.027316,0.000000,0.492217,-0.209556,-0.000000
0.200000,-2.216669,-2.171270,-1.475967,0.015787,0.053001,-0.006296,0.289496,0.699762,-0.022120,2.093662,4.805719,0.035122,-0.888674,-1.245575,1.092854,0.071021,-0.029435,0.000000,0.485915,-0.212325,0.000000
0.210000,-2.216496,-2.170705,-1.476031,0.018787,0.060238,-0.006515,0.310524,0.747557,-0.021693,2.048190,4.840257,0.041202,-8.017861,7.750227,0.166666,0.075852,-0.031573,0.000000,0.489060,-0.207651,0.000000
0.220000,-2.216293,-2.170065,-1.476097,0.021997,0.067952,-0.006729,0.330459,0.796567,-0.021296,1.933305,4.960724,0.038456,-7.262282,4.741619,0.488340,0.080802,-0.033600,0.000000,0.500798,-0.195916,0.000000
0.230000,-2.216056,-2.169346,-1.476165,0.025396,0.076169,-0.006941,0.349190,0.846771,-0.020924,1.902944,4.935089,0.050969,1.927681,-10.896718,2.115383,0.085867,-0.035505,0.000000,0.497846,-0.192794,0.000000
0.240000,-2.215785,-2.168542,-1.476236,0.028981,0.084888,-0.007148,0.368518,0.895269,-0.020276,1.971859,4.742790,0.080763,4.568028,-16.721451,2.717636,0.090759,-0.037471,0.000000,0.478231,-0.199791,0.000000
0.250000,-2.215477,-2.167648,-1.476308,0.032767,0.094075,-0.007346,0.388627,0.941627,-0.019309,1.994305,4.600660,0.105322,-1.506700,-10.415933,2.088190,0.095432,-0.039517,0.000000,0.463698,-0.202076,0.000000
0.260000,-2.215130,-2.166660,-1.476383,0.036754,0.103720,-0.007534,0.408404,0.987282,-0.018170,1.941725,4.534471,0.122527,-5.884841,-7.393808,1.820417,0.100033,-0.041531,0.000000,0.456802,-0.196755,-0.000000
0.270000,-2.214742,-2.165574,-1.476459,0.040935,0.113820,-0.007710,0.427462,1.032316,-0.016858,1.876608,4.452784,0.141730,-5.217272,-9.769703,2.027887,0.104568,-0.043472,0.000000,0.448397,-0.190188,0.000000
0.280000,-2.214311,-2.164384,-1.476537,0.045303,0.124367,-0.007871,0.445936,1.076338,-0.015335,1.837379,4.339077,0.163085,-2.932674,-12.257105,2.156373,0.109001,-0.045355,0.000000,0.436822,-0.186260,-0.000000
0.290000,-2.213836,-2.163086,-1.476616,0.049854,0.135347,-0.008016,0.464209,1.119098,-0.013596,1.817954,4.207642,0.184858,-2.574112,-13.435724,2.199826,0.113305,-0.047219,0.000000,0.423502,-0.184345,0.000000
0.300000,-2.213314,-2.161677,-1.476697,0.054587,0.146749,-0.008143,0.482296,1.160491,-0.011638,1.785897,4.070362,0.207081,-4.115927,-13.989987,2.250508,0.117471,-0.049066,0.000000,0.409655,-0.181171,0.000000
0.310000,-2.212744,-2.160151,-1.476779,0.059499,0.158557,-0.008249,0.499927,1.200505,-0.009455,1.735636,3.927842,0.229868,-5.232331,-14.695049,2.290173,0.121498,-0.050868,0.000000,0.395350,-0.176178,0.000000
0.320000,-2.212124,-2.158506,-1.476862,0.064586,0.170759,-0.008332,0.517008,1.239048,-0.007041,1.681250,3.776461,0.252885,-5.256025,-15.434025,2.271835,0.125378,-0.052616,0.000000,0.380216,-0.170786,-0.000000
0.330000,-2.211452,-2.156736,-1.476946,0.069840,0.183338,-0.008390,0.533552,1.276034,-0.004397,1.630515,3.619161,0.275304,-4.951377,-15.943244,2.198403,0.129103,-0.054311,0.000000,0.364535,-0.165775,-0.000000
0.340000,-2.210727,-2.154839,-1.477030,0.075257,0.196279,-0.008420,0.549619,1.311431,-0.001535,1.582223,3.457597,0.296853,-5.007024,-16.452850,2.131675,0.132669,-0.055959,0.000000,0.348467,-0.161019,-0.000000
0.350000,-2.209947,-2.152811,-1.477114,0.080832,0.209567,-0.008421,0.565197,1.345186,0.001540,1.530375,3.290104,0.317938,-5.398918,-17.042050,2.093327,0.136072,-0.057560,0.000000,0.331855,-0.155917,0.000000
0.360000,-2.209110,-2.150648,-1.477198,0.086561,0.223183,-0.008389,0.580226,1.377233,0.004824,1.474244,3.116756,0.338719,-5.681744,-17.544487,2.039749,0.139306,-0.059107,0.000000,0.314710,-0.150395,0.000000
0.370000,-2.208216,-2.148347,-1.477282,0.092436,0.237111,-0.008324,0.594682,1.407521,0.008314,1.416740,2.939215,0.358733,-5.748174,-17.887579,1.917893,0.142367,-0.060597,0.000000,0.297186,-0.144743,0.000000
0.380000,-2.207262,-2.145906,-1.477365,0.098454,0.251333,-0.008223,0.608561,1.436017,0.011999,1.359281,2.759004,0.377077,-5.747656,-18.129338,1.739257,0.145250,-0.062031,0.000000,0.279420,-0.139098,-0.000000
0.390000,-2.206247,-2.143320,-1.477447,0.104608,0.265832,-0.008084,0.621867,1.462701,0.015856,1.301787,2.576628,0.393518,-5.787258,-18.357203,1.573640,0.147955,-0.063409,0.000000,0.261453,-0.133448,0.000000
0.400000,-2.205170,-2.140589,-1.477527,0.110891,0.280588,-0.007906,0.634597,1.487550,0.019869,1.243536,2.391860,0.408550,-5.856709,-18.572211,1.439773,0.150479,-0.064729,0.000000,0.243267,-0.127722,-0.000000
0.410000,-2.204029,-2.137709,-1.477605,0.117300,0.295583,-0.007687,0.646738,1.510539,0.024027,1.184653,2.205184,0.422314,-5.890266,-18.720367,1.290571,0.152821,-0.065992,0.000000,0.224906,-0.121932,0.000000
0.420000,-2.202824,-2.134677,-1.477680,0.123826,0.310798,-0.007425,0.658290,1.531654,0.028316,1.125730,2.017453,0.434362,-5.883236,-18.801481,1.083219,0.154978,-0.067197,0.000000,0.206445,-0.116133,0.000000
0.430000,-2.201552,-2.131493,-1.477753,0.130465,0.326216,-0.007120,0.669253,1.550888,0.032714,1.066988,1.829154,0.443978,-5.860103,-18.837703,0.832705,0.156950,-0.068343,0.000000,0.187915,-0.110341,0.000000
0.440000,-2.200214,-2.128153,-1.477823,0.137211,0.341816,-0.006771,0.679629,1.568237,0.037195,1.008528,1.640699,0.451016,-5.824052,-18.829100,0.596024,0.158736,-0.069431,0.000000,0.169349,-0.104563,0.000000
0.450000,-2.198808,-2.124656,-1.477889,0.144058,0.357580,-0.006377,0.689423,1.583702,0.041735,0.950507,1.452572,0.455898,-5.770045,-18.770687,0.384641,0.160337,-0.070461,0.000000,0.150795,-0.098817,0.000000
0.460000,-2.197333,-2.121001,-1.477950,0.151000,0.373490,-0.005936,0.698640,1.597288,0.046313,0.893128,1.265285,0.458708,-5.699189,-18.667152,0.161936,0.161752,-0.071433,0.000000,0.132302,-0.093121,0.000000
0.470000,-2.195788,-2.117187,-1.478007,0.158031,0.389526,-0.005450,0.707286,1.609007,0.050909,0.836523,1.079229,0.459137,-5.622345,-18.533137,-0.094610,0.162983,-0.072348,0.000000,0.113898,-0.087486,-0.000000
0.480000,-2.194172,-2.113211,-1.478059,0.165145,0.405670,-0.004918,0.715370,1.618873,0.055496,0.780681,0.894622,0.456816,-5.541675,-18.370711,-0.371084,0.164030,-0.073206,0.000000,0.095593,-0.081906,-0.000000
0.490000,-2.192485,-2.109073,-1.478106,0.172338,0.421904,-0.004340,0.722899,1.626900,0.060045,0.725689,0.711815,0.451715,-5.445090,-18.164931,-0.636421,0.164895,-0.074008,0.000000,0.077418,-0.076389,-0.000000
0.500000,-2.190726,-2.104773,-1.478146,0.179603,0.438208,-0.003717,0.729884,1.633109,0.064530,0.671779,0.531323,0.444088,-5.328696,-17.913262,-0.888308,0.165578,-0.074755,0.000000,0.059423,-0.070958,0.000000
0.510000,-2.188893,-2.100309,-1.478180,0.186936,0.454566,-0.003050,0.736335,1.637526,0.068927,0.619116,0.353550,0.433949,-5.203034,-17.629484,-1.144540,0.166083,-0.075447,0.000000,0.041646,-0.065629,-0.000000
0.520000,-2.186987,-2.095681,-1.478207,0.194330,0.470959,-0.002339,0.742266,1.640180,0.073209,0.567718,0.178734,0.421197,-5.081031,-17.325532,-1.403961,0.166411,-0.076086,0.000000,0.024105,-0.060402,-0.000000
0.530000,-2.185007,-2.090890,-1.478227,0.201781,0.487369,-0.001586,0.747689,1.641101,0.077351,0.517495,0.007039,0.405870,-4.961514,-16.999895,-1.657054,0.166565,-0.076672,0.000000,0.006816,-0.055268,0.000000
0.540000,-2.182951,-2.085934,-1.478239,0.209284,0.503781,-0.000792,0.752616,1.640321,0.081326,0.468488,-0.161264,0.388056,-4.830024,-16.641781,-1.903308,0.166547,-0.077207,0.000000,-0.010196,-0.050231,0.000000
0.550000,-2.180821,-2.080814,-1.478243,0.216834,0.520176,0.000041,0.757059,1.637876,0.085112,0.420894,-0.325797,0.367804,-4.682403,-16.250353,-2.149152,0.166361,-0.077691,0.000000,-0.026892,-0.045312,-0.000000
0.560000,-2.178615,-2.075530,-1.478238,0.224425,0.536538,0.000910,0.761034,1.633805,0.088683,0.374840,-0.486271,0.345073,-4.530390,-15.836100,-2.391170,0.166009,-0.078126,0.000000,-0.043246,-0.040521,-0.000000
0.570000,-2.176332,-2.070083,-1.478224,0.232054,0.552852,0.001815,0.764556,1.628150,0.092013,0.330287,-0.642519,0.319980,-4.387858,-15.407598,-2.606932,0.165496,-0.078513,0.000000,-0.059238,-0.035856,-0.000000
0.580000,-2.173974,-2.064473,-1.478202,0.239716,0.569101,0.002751,0.767640,1.620954,0.095082,0.287083,-0.794423,0.292934,-4.253035,-14.964195,-2.793010,0.164825,-0.078853,0.000000,-0.074850,-0.031305,-0.000000
0.590000,-2.171538,-2.058701,-1.478169,0.247407,0.585271,0.003716,0.770298,1.612262,0.097872,0.245226,-0.941803,0.264120,-4.109753,-14.499078,-2.976605,0.163999,-0.079147,0.000000,-0.090059,-0.026870,0.000000
0.600000,-2.169025,-2.052768,-1.478127,0.255122,0.601347,0.004708,0.772544,1.602118,0.100365,0.204888,-1.084405,0.233402,-3.953313,-14.011404,-3.170808,0.163023,-0.079397,0.000000,-0.104840,-0.022566,0.000000
0.610000,-2.166436,-2.046674,-1.478075,0.262858,0.617313,0.005723,0.774395,1.590574,0.102540,0.166160,-1.222031,0.200704,-3.796333,-13.508840,-3.353765,0.161902,-0.079605,0.000000,-0.119174,-0.018404,0.000000
0.620000,-2.163768,-2.040422,-1.478013,0.270610,0.633158,0.006759,0.775867,1.577678,0.104379,0.128961,-1.354581,0.166327,-3.653418,-12.999986,-3.488035,0.160640,-0.079770,0.000000,-0.133042,-0.014377,0.000000
0.630000,-2.161023,-2.034011,-1.477940,0.278375,0.648867,0.007811,0.776975,1.563482,0.105867,0.093091,-1.482030,0.130943,-3.522287,-12.485187,-3.576319,0.159241,-0.079896,0.000000,-0.146427,-0.010471,0.000000
0.640000,-2.158201,-2.027444,-1.477857,0.286150,0.664428,0.008876,0.777729,1.548037,0.106998,0.058515,-1.604285,0.094801,-3.385289,-11.957027,-3.665789,0.157711,-0.079982,0.000000,-0.159314,-0.006686,-0.000000
0.650000,-2.155300,-2.020723,-1.477763,0.293930,0.679828,0.009951,0.778145,1.531396,0.107763,0.025386,-1.721171,0.057628,-3.237090,-11.413176,-3.772979,0.156055,-0.080031,0.000000,-0.171686,-0.003036,-0.000000
0.660000,-2.152322,-2.013848,-1.477658,0.301713,0.695056,0.011032,0.778237,1.513614,0.108150,-0.006227,-1.832549,0.019341,-3.090944,-10.861641,-3.863436,0.154278,-0.080044,0.000000,-0.183527,0.000473,0.000000
0.670000,-2.149266,-2.006822,-1.477542,0.309495,0.710100,0.012114,0.778020,1.494745,0.108149,-0.036433,-1.938404,-0.019641,-2.962091,-10.314362,-3.893396,0.152384,-0.080022,0.000000,-0.194826,0.003848,0.000000
0.680000,-2.146132,-1.999646,-1.477415,0.317273,0.724950,0.013195,0.777508,1.474846,0.107757,-0.065468,-2.038836,-0.058527,-2.847718,-9.771727,-3.870584,0.150381,-0.079966,0.000000,-0.205576,0.007104,-0.000000
0.690000,-2.142921,-1.992323,-1.477278,0.325045,0.739597,0.014269,0.776711,1.453969,0.106979,-0.093388,-2.133838,-0.097053,-2.728970,-9.221433,-3.851205,0.148273,-0.079878,0.000000,-0.215770,0.010245,0.000000
0.700000,-2.139631,-1.984854,-1.477130,0.332807,0.754030,0.015334,0.775640,1.432169,0.105816,-0.120048,-2.223265,-0.135551,-2.600382,-8.658991,-3.852035,0.146066,-0.079759,0.000000,-0.225395,0.013259,0.000000
0.710000,-2.136265,-1.977242,-1.476971,0.340558,0.768240,0.016385,0.774310,1.409503,0.104268,-0.145395,-2.307018,-0.174093,-2.475561,-8.095562,-3.833783,0.143765,-0.079610,0.000000,-0.234439,0.016139,0.000000
0.720000,-2.132820,-1.969489,-1.476802,0.348293,0.782220,0.017419,0.772733,1.386029,0.102334,-0.169559,-2.385176,-0.212227,-2.369207,-7.547764,-3.754701,0.141377,-0.079433,0.000000,-0.242900,0.018895,-0.000000
0.730000,-2.129299,-1.961598,-1.476623,0.356012,0.795961,0.018432,0.770919,1.361800,0.100023,-0.192779,-2.457973,-0.249187,-2.277987,-7.014999,-3.625543,0.138907,-0.079228,0.000000,-0.250789,0.021545,-0.000000
0.740000,-2.125700,-1.953570,-1.476434,0.363712,0.809456,0.019420,0.768877,1.336869,0.097351,-0.215119,-2.525476,-0.284738,-2.183292,-6.478305,-3.500748,0.136361,-0.078998,0.000000,-0.258107,0.024091,0.000000
0.750000,-2.122024,-1.945408,-1.476235,0.371390,0.822698,0.020379,0.766616,1.311290,0.094329,-0.236445,-2.587539,-0.319202,-2.080045,-5.931185,-3.394476,0.133745,-0.078742,0.000000,-0.264843,0.026523,-0.000000
0.760000,-2.118272,-1.937116,-1.476026,0.379044,0.835682,0.021306,0.764148,1.285118,0.090967,-0.256720,-2.644100,-0.352627,-1.981245,-5.389002,-3.270025,0.131064,-0.078462,0.000000,-0.270989,0.028837,-0.000000
0.770000,-2.114444,-1.928695,-1.475808,0.386673,0.848401,0.022199,0.761482,1.258408,0.087276,-0.276070,-2.695319,-0.384603,-1.899755,-4.872299,-3.094587,0.128325,-0.078160,0.000000,-0.276556,0.031043,0.000000
0.780000,-2.110539,-1.920148,-1.475582,0.394274,0.860850,0.023052,0.758627,1.231212,0.083274,-0.294715,-2.741546,-0.414519,-1.831945,-4.378874,-2.879777,0.125533,-0.077836,0.000000,-0.281569,0.033157,-0.000000
0.790000,-2.106558,-1.911478,-1.475347,0.401845,0.873025,0.023864,0.755588,1.203577,0.078986,-0.312709,-2.782897,-0.442198,-1.761219,-3.884125,-2.669196,0.122694,-0.077492,0.000000,-0.286039,0.035184,0.000000
0.800000,-2.102502,-1.902687,-1.475105,0.409385,0.884921,0.024632,0.752372,1.175554,0.074431,-0.329939,-2.819228,-0.467903,-1.683484,-3.380440,-2.472333,0.119813,-0.077127,0.000000,-0.289955,0.037113,-0.000000
0.810000,-2.098370,-1.893779,-1.474855,0.416893,0.896536,0.025353,0.748989,1.147193,0.069628,-0.346379,-2.850506,-0.491645,-1.609929,-2.886498,-2.261125,0.116895,-0.076744,0.000000,-0.293316,0.038943,0.000000
0.820000,-2.094164,-1.884757,-1.474598,0.424365,0.907865,0.026024,0.745445,1.118544,0.064598,-0.362138,-2.876958,-0.513125,-1.550216,-2.424339,-2.016109,0.113947,-0.076343,0.000000,-0.296141,0.040682,-0.000000
0.830000,-2.089883,-1.875622,-1.474334,0.431802,0.918907,0.026645,0.741746,1.089654,0.059365,-0.377383,-2.898993,-0.531967,-1.500833,-1.990174,-1.747592,0.110972,-0.075925,0.000000,-0.298469,0.042345,0.000000
0.840000,-2.085528,-1.866379,-1.474065,0.439200,0.929658,0.027212,0.737897,1.060564,0.053958,-0.392154,-2.916761,-0.548077,-1.449055,-1.556893,-1.482459,0.107977,-0.075491,0.000000,-0.300317,0.043935,-0.000000
0.850000,-2.081099,-1.857029,-1.473790,0.446559,0.940118,0.027724,0.733903,1.031318,0.048404,-0.406364,-2.930130,-0.561616,-1.392165,-1.117051,-1.224791,0.104966,-0.075042,0.000000,-0.301675,0.045445,-0.000000
0.860000,-2.076597,-1.847576,-1.473510,0.453878,0.950285,0.028180,0.729770,1.001961,0.042726,-0.419998,-2.939102,-0.572573,-1.338333,-0.690407,-0.958806,0.101944,-0.074577,0.000000,-0.302547,0.046873,-0.000000
0.870000,-2.072022,-1.838023,-1.473226,0.461155,0.960157,0.028578,0.725503,0.972536,0.036952,-0.433131,-2.943939,-0.580793,-1.293142,-0.297282,-0.679591,0.098915,-0.074099,0.000000,-0.302961,0.048227,0.000000
0.880000,-2.067374,-1.828373,-1.472939,0.468388,0.969735,0.028919,0.721107,0.943083,0.031110,-0.445861,-2.945048,-0.586165,-1.253591,0.067164,-0.394671,0.095885,-0.073608,0.000000,-0.302958,0.049515,-0.000000
0.890000,-2.062654,-1.818629,-1.472648,0.475577,0.979019,0.029200,0.716586,0.913635,0.025229,-0.458203,-2.942595,-0.588686,-1.212076,0.428311,-0.112365,0.092856,-0.073104,0.000000,-0.302560,0.050741,-0.000000
0.900000,-2.057862,-1.808793,-1.472355,0.482720,0.988008,0.029423,0.711943,0.884231,0.019336,-0.470102,-2.936482,-0.588412,-1.167703,0.792373,0.168750,0.089833,-0.072589,0.000000,-0.301761,0.051900,-0.000000
0.910000,-2.052999,-1.798868,-1.472060,0.489816,0.996704,0.029587,0.707184,0.854906,0.013461,-0.481557,-2.926748,-0.585311,-1.124926,1.141423,0.451410,0.086821,-0.072062,0.000000,-0.300567,0.052991,-0.000000
0.920000,-2.048066,-1.788859,-1.471763,0.496864,1.005106,0.029692,0.702312,0.825696,0.007630,-0.492601,-2.913653,-0.579384,-1.084501,1.459421,0.726782,0.083822,-0.071525,0.000000,-0.299009,0.054019,0.000000
0.930000,-2.043062,-1.778766,-1.471466,0.503862,1.013217,0.029740,0.697332,0.796633,0.001873,-0.503247,-2.897559,-0.570775,-1.044253,1.751387,0.990895,0.080841,-0.070978,0.000000,-0.297127,0.054988,-0.000000
0.940000,-2.037989,-1.768594,-1.471168,0.510810,1.021039,0.029730,0.692247,0.767745,-0.003785,-0.513486,-2.878626,-0.559566,-1.002707,2.037516,1.253099,0.077880,-0.070422,0.000000,-0.294942,0.055896,0.000000
0.950000,-2.032846,-1.758345,-1.470871,0.517707,1.028572,0.029664,0.687062,0.739060,-0.009318,-0.523301,-2.856809,-0.545713,-0.960778,2.321973,1.519268,0.074942,-0.069857,0.000000,-0.292453,0.056743,-0.000000
0.960000,-2.027634,-1.748023,-1.470575,0.524552,1.035820,0.029544,0.681781,0.710608,-0.014700,-0.532701,-2.832186,-0.529181,-0.918672,2.590960,1.780204,0.072030,-0.069284,0.000000,-0.289670,0.057531,-0.000000
0.970000,-2.022355,-1.737629,-1.470280,0.531343,1.042785,0.029370,0.676408,0.682416,-0.019902,-0.541674,-2.804990,-0.510109,-0.872604,2.834326,2.016549,0.069148,-0.068703,0.000000,-0.286621,0.058260,-0.000000
0.980000,-2.017008,-1.727167,-1.469988,0.538080,1.049468,0.029146,0.670948,0.654509,-0.024902,-0.550153,-2.775500,-0.488850,-0.821535,3.056405,2.228033,0.066298,-0.068116,0.000000,-0.283338,0.058925,0.000000
0.990000,-2.011593,-1.716640,-1.469697,0.544762,1.055875,0.028872,0.665405,0.626906,-0.029679,-0.558105,-2.743862,-0.465549,-0.769933,3.270118,2.437902,0.063481,-0.067522,0.000000,-0.279842,0.059526,0.000000
1.000000,-2.006112,-1.706050,-1.469410,0.551388,1.062007,0.028552,0.659786,0.599631,-0.034213,-0.565552,-2.710097,-0.440092,-0.720325,3.477463,2.655087,0.060701,-0.066923,0.000000,-0.276134,0.060065,0.000000
1.010000,-2.000566,-1.695400,-1.469126,0.557957,1.067867,0.028188,0.654094,0.572705,-0.038481,-0.572512,-2.674313,-0.412447,-0.668891,3.669979,2.861377,0.057959,-0.066318,0.000000,-0.272229,0.060544,-0.000000
1.020000,-1.994953,-1.684692,-1.468846,0.564470,1.073461,0.027782,0.648335,0.546145,-0.042462,-0.578930,-2.636698,-0.382864,-0.608110,3.843375,3.030909,0.055256,-0.065710,0.000000,-0.268147,0.060959,-0.000000
1.030000,-1.989276,-1.673930,-1.468571,0.570924,1.078790,0.027339,0.642515,0.519971,-0.046138,-0.584674,-2.597445,-0.351829,-0.538222,4.000716,3.166626,0.052596,-0.065097,0.000000,-0.263915,0.061302,0.000000
1.040000,-1.983535,-1.663116,-1.468300,0.577320,1.083860,0.026860,0.636642,0.494196,-0.049498,-0.589694,-2.556683,-0.319531,-0.468647,4.147587,3.300684,0.049978,-0.064482,0.000000,-0.259545,0.061568,0.000000
1.050000,-1.977730,-1.652253,-1.468033,0.583657,1.088674,0.026349,0.630722,0.468837,-0.052529,-0.594047,-2.514493,-0.285815,-0.403043,4.284241,3.443539,0.047405,-0.063864,0.000000,-0.255048,0.061764,0.000000
1.060000,-1.971862,-1.641343,-1.467773,0.589934,1.093237,0.025809,0.624761,0.443906,-0.055215,-0.597755,-2.470999,-0.250661,-0.334412,4.407392,3.571615,0.044877,-0.063245,0.000000,-0.250435,0.061890,0.000000
1.070000,-1.965931,-1.630388,-1.467517,0.596152,1.097552,0.025244,0.618766,0.419417,-0.057542,-0.600735,-2.426345,-0.214383,-0.252829,4.517205,3.656721,0.042396,-0.062625,0.000000,-0.245724,0.061943,-0.000000
1.080000,-1.959939,-1.619392,-1.467268,0.602310,1.101625,0.024658,0.612746,0.395379,-0.059502,-0.602812,-2.380655,-0.177526,-0.159639,4.615292,3.704194,0.039962,-0.062005,0.000000,-0.240930,0.061907,0.000000
1.090000,-1.953885,-1.608356,-1.467024,0.608407,1.105460,0.024054,0.606710,0.371804,-0.061093,-0.603928,-2.334040,-0.140299,-0.067630,4.701655,3.749820,0.037577,-0.061386,0.000000,-0.236064,0.061778,0.000000
1.100000,-1.947770,-1.597283,-1.466787,0.614444,1.109061,0.023436,0.600668,0.348699,-0.062308,-0.604164,-2.286621,-0.102530,0.018961,4.775448,3.804100,0.035241,-0.060769,0.000000,-0.231139,0.061563,-0.000000
1.110000,-1.941596,-1.586175,-1.466555,0.620420,1.112434,0.022808,0.594627,0.326071,-0.063143,-0.603548,-2.238531,-0.064217,0.109188,4.837234,3.841855,0.032954,-0.060154,0.000000,-0.226166,0.061266,0.000000
1.120000,-1.935362,-1.575034,-1.466330,0.626337,1.115583,0.022173,0.588597,0.303928,-0.063593,-0.601980,-2.189877,-0.025693,0.213696,4.889812,3.836300,0.030718,-0.059543,0.000000,-0.221158,0.060879,-0.000000
1.130000,-1.929069,-1.563863,-1.466112,0.632192,1.118512,0.021536,0.582587,0.282274,-0.063657,-0.599275,-2.140734,0.012509,0.330171,4.933431,3.794097,0.028531,-0.058936,0.000000,-0.216122,0.060385,-0.000000
1.140000,-1.922718,-1.552664,-1.465900,0.637988,1.121228,0.020900,0.576611,0.261113,-0.063342,-0.595377,-2.091208,0.050189,0.444710,4.964842,3.749934,0.026395,-0.058335,0.000000,-0.211070,0.059780,0.000000
1.150000,-1.916309,-1.541438,-1.465694,0.643725,1.123735,0.020269,0.570680,0.240450,-0.062653,-0.590380,-2.041438,0.087508,0.553096,4.983552,3.713208,0.024310,-0.057740,0.000000,-0.206012,0.059072,0.000000
1.160000,-1.909844,-1.530189,-1.465494,0.649402,1.126037,0.019647,0.564804,0.220285,-0.061592,-0.584315,-1.991537,0.124453,0.664797,4.992157,3.660308,0.022275,-0.057153,0.000000,-0.200960,0.058265,-0.000000
1.170000,-1.903321,-1.518918,-1.465301,0.655021,1.128140,0.019038,0.558994,0.200619,-0.060164,-0.577084,-1.941594,0.160714,0.789939,4.992258,3.568792,0.020290,-0.056574,0.000000,-0.195922,0.057350,0.000000
1.180000,-1.896743,-1.507626,-1.465114,0.660582,1.130050,0.018444,0.553262,0.181453,-0.058378,-0.568516,-1.891692,0.195829,0.925738,4.983303,3.445771,0.018356,-0.056005,0.000000,-0.190905,0.056311,-0.000000
1.190000,-1.890110,-1.496317,-1.464932,0.666086,1.131769,0.017870,0.547623,0.162785,-0.056248,-0.558570,-1.841928,0.229629,1.058651,4.963803,3.320966,0.016472,-0.055448,0.000000,-0.185919,0.055145,-0.000000
1.200000,-1.883422,-1.484991,-1.464756,0.671534,1.133305,0.017319,0.542091,0.144614,-0.053785,-0.547343,-1.792416,0.262248,1.185186,4.933721,3.201660,0.014638,-0.054902,0.000000,-0.180972,0.053861,0.000000
1.210000,-1.876679,-1.473651,-1.464586,0.676928,1.134662,0.016794,0.536676,0.126937,-0.051003,-0.534866,-1.743254,0.293663,1.314235,4.894360,3.068350,0.012853,-0.054370,0.000000,-0.176073,0.052460,0.000000
1.220000,-1.869883,-1.462298,-1.464420,0.682268,1.135844,0.016299,0.531393,0.109749,-0.047912,-0.521059,-1.694529,0.323615,1.453351,4.846500,2.905040,0.011117,-0.053853,0.000000,-0.171229,0.050936,0.000000
1.230000,-1.863034,-1.450934,-1.464260,0.687556,1.136857,0.015836,0.526255,0.093046,-0.044530,-0.505799,-1.646324,0.351763,1.599508,4.789877,2.718406,0.009428,-0.053352,0.000000,-0.166449,0.049278,0.000000
1.240000,-1.856132,-1.439561,-1.464104,0.692793,1.137705,0.015408,0.521277,0.076823,-0.040877,-0.489068,-1.598731,0.377984,1.742346,4.724009,2.530374,0.007788,-0.052868,0.000000,-0.161738,0.047482,0.000000
1.250000,-1.849178,-1.428180,-1.463952,0.697981,1.138393,0.015018,0.516474,0.061072,-0.036971,-0.470952,-1.551844,0.402371,1.879570,4.649772,2.345667,0.006193,-0.052402,0.000000,-0.157106,0.045558,0.000000
1.260000,-1.842172,-1.416793,-1.463803,0.703122,1.138926,0.014669,0.511858,0.045786,-0.032829,-0.451477,-1.505736,0.424897,2.017590,4.567722,2.150723,0.004645,-0.051956,0.000000,-0.152557,0.043506,0.000000
1.270000,-1.835115,-1.405401,-1.463658,0.708218,1.139309,0.014362,0.507444,0.030957,-0.028473,-0.430600,-1.460489,0.445385,2.160671,4.476040,1.936859,0.003142,-0.051532,0.000000,-0.148099,0.041322,-0.000000
1.280000,-1.828008,-1.394007,-1.463516,0.713271,1.139545,0.014099,0.503246,0.016576,-0.023922,-0.408264,-1.416215,0.463634,2.306257,4.374451,1.709568,0.001683,-0.051130,0.000000,-0.143742,0.039001,-0.000000
1.290000,-1.820850,-1.382610,-1.463376,0.718283,1.139640,0.013883,0.499279,0.002633,-0.019200,-0.384475,-1.373000,0.479577,2.448087,4.266021,1.481621,0.000267,-0.050752,0.000000,-0.139492,0.036543,-0.000000
1.300000,-1.813642,-1.371214,-1.463238,0.723257,1.139598,0.013715,0.495557,-0.010884,-0.014330,-0.359302,-1.330895,0.493267,2.585119,4.153226,1.254882,-0.001106,-0.050399,0.000000,-0.135355,0.033954,0.000000
1.310000,-1.806385,-1.359818,-1.463102,0.728194,1.139423,0.013597,0.492093,-0.023985,-0.009335,-0.332773,-1.289936,0.504674,2.720805,4.034185,1.022442,-0.002440,-0.050073,0.000000,-0.131331,0.031235,-0.000000
1.320000,-1.799078,-1.348425,-1.462966,0.733099,1.139118,0.013529,0.488901,-0.036683,-0.004237,-0.304886,-1.250211,0.513715,2.855980,3.903210,0.783286,-0.003733,-0.049774,0.000000,-0.127429,0.028387,-0.000000
1.330000,-1.791723,-1.337036,-1.462831,0.737972,1.138689,0.013512,0.485995,-0.048989,0.000940,-0.275653,-1.211872,0.520340,2.988713,3.760770,0.541332,-0.004988,-0.049505,0.000000,-0.123663,0.025411,-0.000000
1.340000,-1.784319,-1.325651,-1.462696,0.742819,1.138139,0.013548,0.483388,-0.060920,0.006170,-0.245112,-1.174995,0.524542,3.117130,3.615178,0.299570,-0.006206,-0.049266,0.000000,-0.120040,0.022309,-0.000000
1.350000,-1.776867,-1.314273,-1.462560,0.747640,1.137471,0.013636,0.481093,-0.072489,0.011431,-0.213310,-1.139568,0.526332,3.241807,3.469499,0.057079,-0.007389,-0.049059,0.000000,-0.116557,0.019086,-0.000000
1.360000,-1.769366,-1.302902,-1.462423,0.752440,1.136689,0.013776,0.479122,-0.083712,0.016697,-0.180275,-1.105605,0.525684,3.363087,3.318438,-0.186233,-0.008537,-0.048884,0.000000,-0.113216,0.015744,0.000000
1.370000,-1.761818,-1.291539,-1.462285,0.757223,1.135796,0.013969,0.477487,-0.094602,0.021944,-0.146049,-1.073199,0.522607,3.477631,3.155763,-0.424381,-0.009653,-0.048744,0.000000,-0.110024,0.012287,0.000000
1.380000,-1.754222,-1.280186,-1.462144,0.761990,1.134797,0.014215,0.476201,-0.105176,0.027149,-0.110723,-1.042490,0.517196,3.584270,2.983245,-0.655299,-0.010738,-0.048639,0.000000,-0.106997,0.008723,0.000000
1.390000,-1.746578,-1.268843,-1.462001,0.766747,1.133693,0.014512,0.475273,-0.115451,0.032288,-0.074363,-1.013534,0.509501,3.686639,2.809850,-0.885104,-0.011793,-0.048570,0.000000,-0.104138,0.005060,-0.000000
1.400000,-1.738887,-1.257512,-1.461854,0.771496,1.132488,0.014861,0.474714,-0.125446,0.037339,-0.036990,-0.986293,0.499494,3.786954,2.638624,-1.117165,-0.012821,-0.048538,0.000000,-0.101444,0.001299,0.000000
1.410000,-1.731148,-1.246194,-1.461703,0.776241,1.131184,0.015259,0.474533,-0.135177,0.042278,0.001376,-0.960762,0.487158,3.881806,2.464039,-1.345413,-0.013822,-0.048544,0.000000,-0.098914,-0.002558,-0.000000
1.420000,-1.723362,-1.234889,-1.461549,0.780986,1.129784,0.015706,0.474741,-0.144661,0.047082,0.040646,-0.937012,0.472586,3.964072,2.279964,-1.558107,-0.014799,-0.048589,0.000000,-0.096554,-0.006501,0.000000
1.430000,-1.715528,-1.223598,-1.461389,0.785736,1.128291,0.016201,0.475346,-0.153917,0.051730,0.080657,-0.915163,0.455995,4.033833,2.088494,-1.755113,-0.015753,-0.048674,0.000000,-0.094377,-0.010516,0.000000
1.440000,-1.707647,-1.212323,-1.461225,0.790493,1.126706,0.016741,0.476354,-0.162965,0.056202,0.121323,-0.895242,0.437483,4.099685,1.898656,-1.950240,-0.016686,-0.048799,0.000000,-0.092386,-0.014592,-0.000000
1.450000,-1.699718,-1.201064,-1.461054,0.795263,1.125031,0.017325,0.477773,-0.171822,0.060479,0.162651,-0.877189,0.416991,4.164264,1.712908,-2.148641,-0.017601,-0.048966,0.000000,-0.090573,-0.018731,-0.000000
1.460000,-1.691742,-1.189822,-1.460878,0.800049,1.123269,0.017951,0.479607,-0.180508,0.064542,0.204608,-0.860984,0.394511,4.221055,1.525906,-2.339218,-0.018498,-0.049174,0.000000,-0.088938,-0.022928,0.000000
1.470000,-1.683717,-1.178598,-1.460695,0.804855,1.121421,0.018616,0.481865,-0.189042,0.068370,0.247072,-0.846671,0.370206,4.262728,1.333514,-2.506361,-0.019379,-0.049424,0.000000,-0.087484,-0.027171,0.000000
1.480000,-1.675645,-1.167394,-1.460506,0.809686,1.119489,0.019318,0.484549,-0.197442,0.071946,0.289863,-0.834314,0.344383,4.290482,1.138114,-2.651693,-0.020247,-0.049717,0.000000,-0.086219,-0.031441,-0.000000
1.490000,-1.667524,-1.156209,-1.460309,0.814546,1.117472,0.020055,0.487662,-0.205728,0.075257,0.332882,-0.823909,0.317172,4.313141,0.946191,-2.794422,-0.021104,-0.050053,0.000000,-0.085142,-0.035730,-0.000000
1.500000,-1.659354,-1.145044,-1.460105,0.819439,1.115374,0.020823,0.491206,-0.213920,0.078289,0.376125,-0.815390,0.288495,4.333965,0.758930,-2.940892,-0.021950,-0.050432,0.000000,-0.084246,-0.040034,-0.000000
1.510000,-1.651135,-1.133901,-1.459893,0.824370,1.113194,0.021620,0.495185,-0.222036,0.081027,0.419561,-0.808730,0.258355,4.346428,0.572939,-3.076744,-0.022789,-0.050854,0.000000,-0.083529,-0.044350,-0.000000
1.520000,-1.642866,-1.122780,-1.459672,0.829343,1.110933,0.022444,0.499598,-0.230095,0.083456,0.463054,-0.803931,0.226960,4.341264,0.387554,-3.184417,-0.023621,-0.051319,0.000000,-0.082990,-0.048664,0.000000
1.530000,-1.634548,-1.111683,-1.459444,0.834362,1.108592,0.023290,0.504446,-0.238115,0.085566,0.506386,-0.800979,0.194666,4.319669,0.204869,-3.266951,-0.024448,-0.051828,0.000000,-0.082630,-0.052954,0.000000
1.540000,-1.626179,-1.100609,-1.459207,0.839432,1.106171,0.024155,0.509725,-0.246114,0.087350,0.549447,-0.799834,0.161621,4.293544,0.026819,-3.346398,-0.025273,-0.052379,0.000000,-0.082444,-0.057208,0.000000
1.550000,-1.617759,-1.089559,-1.458961,0.844556,1.103670,0.025037,0.515435,-0.254111,0.088799,0.592257,-0.800443,0.127738,4.267368,-0.147126,-3.429328,-0.026097,-0.052972,0.000000,-0.082426,-0.061427,-0.000000
1.560000,-1.609288,-1.078535,-1.458706,0.849740,1.101089,0.025931,0.521571,-0.262123,0.089905,0.634795,-0.802777,0.093034,4.232679,-0.317111,-3.499985,-0.026922,-0.053608,0.000000,-0.082574,-0.065608,-0.000000
1.570000,-1.600765,-1.067537,-1.458442,0.854988,1.098427,0.026835,0.528130,-0.270167,0.090659,0.676911,-0.806785,0.057739,4.177872,-0.479512,-3.541230,-0.027749,-0.054285,0.000000,-0.082882,-0.069736,0.000000
1.580000,-1.592188,-1.056567,-1.458169,0.860303,1.095685,0.027744,0.535109,-0.278259,0.091059,0.718352,-0.812367,0.022210,4.105143,-0.633062,-3.557055,-0.028579,-0.055003,0.000000,-0.083341,-0.073785,-0.000000
1.590000,-1.583559,-1.045624,-1.457887,0.865690,1.092862,0.028656,0.542498,-0.286414,0.091104,0.759014,-0.819446,-0.013403,4.029755,-0.781477,-3.569408,-0.029416,-0.055761,0.000000,-0.083943,-0.077744,-0.000000
1.600000,-1.574875,-1.034709,-1.457596,0.871153,1.089957,0.029566,0.550289,-0.294648,0.090791,0.798947,-0.827996,-0.049178,3.954977,-0.926838,-3.584369,-0.030258,-0.056558,0.000000,-0.084685,-0.081617,-0.000000
1.610000,-1.566136,-1.023825,-1.457296,0.876696,1.086969,0.030472,0.558476,-0.302974,0.090120,0.838113,-0.837983,-0.085090,3.870513,-1.065473,-3.586802,-0.031109,-0.057394,0.000000,-0.085563,-0.085400,0.000000
1.620000,-1.557341,-1.012970,-1.456987,0.882323,1.083898,0.031369,0.567051,-0.311407,0.089089,0.876358,-0.849306,-0.120914,3.769369,-1.190175,-3.561676,-0.031970,-0.058267,0.000000,-0.086568,-0.089077,-0.000000
1.630000,-1.548489,-1.002147,-1.456668,0.888037,1.080741,0.032253,0.576004,-0.319960,0.087702,0.913500,-0.861787,-0.156323,3.654841,-1.300735,-3.513314,-0.032841,-0.059176,0.000000,-0.087682,-0.092631,0.000000
1.640000,-1.539580,-0.991355,-1.456341,0.893843,1.077498,0.033123,0.585321,-0.328643,0.085963,0.949454,-0.875321,-0.191181,3.536014,-1.405679,-3.461402,-0.033723,-0.060121,0.000000,-0.088894,-0.096054,-0.000000
1.650000,-1.530612,-0.980597,-1.456006,0.899743,1.074168,0.033973,0.594993,-0.337467,0.083878,0.984221,-0.889900,-0.225551,3.414972,-1.509029,-3.410944,-0.034618,-0.061099,0.000000,-0.090203,-0.099343,0.000000
1.660000,-1.521585,-0.969872,-1.455662,0.905742,1.070749,0.034800,0.605006,-0.346441,0.081452,1.017754,-0.905501,-0.259399,3.285879,-1.603927,-3.348822,-0.035527,-0.062109,0.000000,-0.091607,-0.102496,0.000000
1.670000,-1.512497,-0.959182,-1.455310,0.911843,1.067239,0.035602,0.615348,-0.355577,0.078690,1.049938,-0.921979,-0.292528,3.144076,-1.678475,-3.263651,-0.036450,-0.063150,0.000000,-0.093091,-0.105500,0.000000
1.680000,-1.503348,-0.948527,-1.454950,0.918049,1.063638,0.036374,0.626005,-0.364881,0.075601,1.080635,-0.939071,-0.324672,2.991576,-1.733548,-3.159677,-0.037389,-0.064220,0.000000,-0.094630,-0.108343,0.000000
1.690000,-1.494136,-0.937909,-1.454582,0.924364,1.059942,0.037114,0.636960,-0.374358,0.072197,1.109770,-0.956650,-0.355721,2.834791,-1.784132,-3.052142,-0.038343,-0.065318,0.000000,-0.096210,-0.111019,-0.000000
1.700000,-1.484861,-0.927328,-1.454208,0.930789,1.056150,0.037818,0.648200,-0.384014,0.068487,1.137331,-0.974753,-0.385715,2.675619,-1.835106,-2.944589,-0.039313,-0.066442,0.000000,-0.097835,-0.113526,0.000000
1.710000,-1.475521,-0.916786,-1.453826,0.937328,1.052262,0.038484,0.659707,-0.393853,0.064482,1.163282,-0.993352,-0.414613,2.510239,-1.875544,-2.827379,-0.040300,-0.067590,0.000000,-0.099503,-0.115860,0.000000
1.720000,-1.466114,-0.906283,-1.453438,0.943983,1.048273,0.039108,0.671466,-0.403881,0.060195,1.187536,-1.012264,-0.442263,2.334926,-1.892671,-2.693402,-0.041303,-0.068761,0.000000,-0.101195,-0.118016,-0.000000
1.730000,-1.456641,-0.895820,-1.453044,0.950757,1.044184,0.039687,0.683458,-0.414098,0.055637,1.209981,-1.031205,-0.468481,2.151278,-1.889007,-2.546286,-0.042324,-0.069953,0.000000,-0.102884,-0.119983,-0.000000
1.740000,-1.447099,-0.885399,-1.452644,0.957652,1.039991,0.040220,0.695665,-0.424505,0.050825,1.230562,-1.050044,-0.493189,1.964683,-1.880790,-2.395976,-0.043361,-0.071163,0.000000,-0.104557,-0.121757,-0.000000
1.750000,-1.437488,-0.875021,-1.452240,0.964670,1.035694,0.040704,0.708069,-0.435099,0.045773,1.249274,-1.068821,-0.516401,1.775862,-1.872909,-2.244270,-0.044415,-0.072390,0.000000,-0.106218,-0.123338,0.000000
1.760000,-1.427806,-0.864685,-1.451830,0.971813,1.031289,0.041136,0.720651,-0.445881,0.040497,1.266079,-1.087502,-0.538074,1.581851,-1.853980,-2.085445,-0.045485,-0.073632,0.000000,-0.107865,-0.124724,0.000000
1.770000,-1.418052,-0.854395,-1.451417,0.979083,1.026776,0.041514,0.733391,-0.456849,0.035012,1.280911,-1.105901,-0.558110,1.382382,-1.811559,-1.916977,-0.046572,-0.074887,0.000000,-0.109479,-0.125910,-0.000000
1.780000,-1.408224,-0.844150,-1.451000,0.986481,1.022152,0.041836,0.746269,-0.467999,0.029335,1.293726,-1.123734,-0.576414,1.179027,-1.748555,-1.741543,-0.047675,-0.076153,0.000000,-0.111033,-0.126893,0.000000
1.790000,-1.398322,-0.833952,-1.450580,0.994009,1.017416,0.042101,0.759265,-0.479324,0.023484,1.304492,-1.140872,-0.592941,0.972721,-1.681211,-1.563449,-0.048793,-0.077428,0.000000,-0.112516,-0.127673,0.000000
1.800000,-1.388344,-0.823802,-1.450158,1.001666,1.012566,0.042306,0.772359,-0.490817,0.017476,1.313181,-1.157358,-0.607683,0.763126,-1.614822,-1.383039,-0.049925,-0.078709,0.000000,-0.113931,-0.128247,-0.000000
1.810000,-1.378289,-0.813700,-1.449734,1.009456,1.007600,0.042450,0.785529,-0.502471,0.011330,1.319754,-1.173168,-0.620601,0.550317,-1.538313,-1.198505,-0.051071,-0.079996,0.000000,-0.115278,-0.128614,-0.000000
1.820000,-1.368155,-0.803650,-1.449309,1.017377,1.002517,0.042532,0.798754,-0.514280,0.005064,1.324187,-1.188124,-0.631653,0.336394,-1.438748,-1.011199,-0.052230,-0.081285,0.000000,-0.116541,-0.128773,-0.000000
1.830000,-1.357941,-0.793650,-1.448883,1.025431,0.997314,0.042551,0.812012,-0.526234,-0.001303,1.326482,-1.201943,-0.640825,0.122042,-1.319328,-0.822778,-0.053402,-0.082575,0.000000,-0.117691,-0.128727,-0.000000
1.840000,-1.347646,-0.783703,-1.448458,1.033617,0.991992,0.042506,0.825283,-0.538319,-0.007752,1.326628,-1.214511,-0.648108,-0.094837,-1.197422,-0.632563,-0.054584,-0.083863,0.000000,-0.118719,-0.128475,0.000000
1.850000,-1.337269,-0.773810,-1.448033,1.041936,0.986548,0.042396,0.838545,-0.550524,-0.014265,1.324586,-1.225892,-0.653477,-0.315227,-1.077550,-0.439667,-0.055776,-0.085148,0.000000,-0.119632,-0.128017,-0.000000
1.860000,-1.326808,-0.763972,-1.447610,1.050388,0.980981,0.042221,0.851775,-0.562837,-0.020822,1.320323,-1.236062,-0.656902,-0.537015,-0.948305,-0.245700,-0.056977,-0.086427,0.000000,-0.120430,-0.127350,-0.000000
1.870000,-1.316261,-0.754191,-1.447189,1.058972,0.975291,0.041980,0.864952,-0.575245,-0.027403,1.313845,-1.244858,-0.658391,-0.756600,-0.800017,-0.054961,-0.058185,-0.087699,0.000000,-0.121099,-0.126478,-0.000000
1.880000,-1.305628,-0.744466,-1.446770,1.067687,0.969476,0.041673,0.878052,-0.587734,-0.033990,1.305191,-1.252062,-0.658001,-0.973984,-0.636509,0.131937,-0.059399,-0.088961,0.000000,-0.121616,-0.125404,-0.000000
1.890000,-1.294907,-0.734801,-1.446355,1.076533,0.963537,0.041300,0.891055,-0.600286,-0.040563,1.294366,-1.257588,-0.655752,-1.193220,-0.471036,0.319497,-0.060617,-0.090212,0.000000,-0.121975,-0.124132,-0.000000
1.900000,-1.284097,-0.725196,-1.445944,1.085508,0.957471,0.040862,0.903939,-0.612886,-0.047105,1.281327,-1.261483,-0.651611,-1.415613,-0.306802,0.509416,-0.061838,-0.091449,0.000000,-0.122183,-0.122660,0.000000
1.910000,-1.273197,-0.715652,-1.445538,1.094612,0.951279,0.040358,0.916682,-0.625516,-0.053595,1.266053,-1.263724,-0.645563,-1.637816,-0.135555,0.697577,-0.063061,-0.092670,0.000000,-0.122239,-0.120986,-0.000000
1.920000,-1.262205,-0.706170,-1.445137,1.103842,0.944960,0.039790,0.929260,-0.638160,-0.060016,1.248571,-1.264194,-0.637659,-1.855611,0.048881,0.877854,-0.064283,-0.093873,0.000000,-0.122132,-0.119114,0.000000
1.930000,-1.251120,-0.696752,-1.444742,1.113197,0.938516,0.039158,0.941653,-0.650800,-0.066349,1.228941,-1.262746,-0.628006,-2.069481,0.243227,1.050511,-0.065503,-0.095057,0.000000,-0.121849,-0.117052,-0.000000
1.940000,-1.239941,-0.687400,-1.444354,1.122675,0.931944,0.038463,0.953839,-0.663415,-0.072576,1.207181,-1.259329,-0.616649,-2.284308,0.438527,1.222569,-0.066720,-0.096219,0.000000,-0.121386,-0.114802,0.000000
1.950000,-1.228667,-0.678114,-1.443973,1.132274,0.925247,0.037706,0.965797,-0.675987,-0.078682,1.183255,-1.253976,-0.603555,-2.501423,0.633284,1.396035,-0.067931,-0.097358,0.000000,-0.120749,-0.112362,0.000000
1.960000,-1.217296,-0.668895,-1.443600,1.141991,0.918425,0.036889,0.977504,-0.688495,-0.084647,1.157153,-1.246664,-0.588728,-2.717078,0.832519,1.565166,-0.069135,-0.098472,0.000000,-0.119936,-0.109733,0.000000
1.970000,-1.205827,-0.659745,-1.443235,1.151824,0.911477,0.036013,0.988940,-0.700920,-0.090456,1.128913,-1.237325,-0.572252,-2.927282,1.037608,1.723361,-0.070330,-0.099558,0.000000,-0.118941,-0.106918,0.000000
1.980000,-1.194259,-0.650665,-1.442880,1.161770,0.904406,0.035080,1.000083,-0.713241,-0.096092,1.098607,-1.225911,-0.554261,-3.132810,1.245914,1.871556,-0.071514,-0.100615,0.000000,-0.117761,-0.103925,0.000000
1.990000,-1.182592,-0.641657,-1.442534,1.171826,0.897213,0.034091,1.010912,-0.725438,-0.101541,1.066257,-1.212407,-0.534821,-3.338282,1.454666,2.017541,-0.072685,-0.101642,0.000000,-0.116395,-0.100756,-0.000000
2.000000,-1.170823,-0.632721,-1.442198,1.181988,0.889898,0.033049,1.021408,-0.737489,-0.106789,1.031841,-1.196818,-0.513910,-3.544602,1.664292,2.163487,-0.073842,-0.102636,0.000000,-0.114845,-0.097410,0.000000
2.010000,-1.158952,-0.623859,-1.441873,1.192254,0.882463,0.031956,1.031549,-0.749374,-0.111820,0.995365,-1.179121,-0.491551,-3.748336,1.875463,2.303345,-0.074982,-0.103596,0.000000,-0.113109,-0.093888,0.000000
2.020000,-1.146978,-0.615072,-1.441559,1.202619,0.874910,0.030813,1.041315,-0.761072,-0.116620,0.956875,-1.159309,-0.467843,-3.946686,2.084796,2.430487,-0.076104,-0.104519,0.000000,-0.111187,-0.090194,0.000000
2.030000,-1.134899,-0.606361,-1.441256,1.213080,0.867241,0.029623,1.050686,-0.772561,-0.121177,0.916431,-1.137425,-0.442941,-4.140446,2.290936,2.546113,-0.077206,-0.105405,0.000000,-0.109083,-0.086332,-0.000000
2.040000,-1.122716,-0.597727,-1.440966,1.223633,0.859459,0.028389,1.059644,-0.783820,-0.125479,0.874066,-1.113490,-0.416921,-4.332792,2.497252,2.658163,-0.078286,-0.106251,0.000000,-0.106800,-0.082307,0.000000
2.050000,-1.110427,-0.589172,-1.440689,1.234273,0.851565,0.027114,1.068168,-0.794830,-0.129515,0.829776,-1.087480,-0.389778,-4.524325,2.704938,2.768618,-0.079342,-0.107056,0.000000,-0.104336,-0.078117,-0.000000
2.060000,-1.098031,-0.580696,-1.440424,1.244996,0.843562,0.025799,1.076239,-0.805570,-0.133274,0.783579,-1.059391,-0.361549,-4.712688,2.910552,2.871526,-0.080373,-0.107818,0.000000,-0.101691,-0.073763,-0.000000
2.070000,-1.085527,-0.572300,-1.440173,1.255798,0.835454,0.024448,1.083839,-0.816018,-0.136746,0.735522,-1.029269,-0.332347,-4.895994,3.109327,2.961056,-0.081376,-0.108536,0.000000,-0.098869,-0.069250,-0.000000
2.080000,-1.072915,-0.563987,-1.439935,1.266673,0.827242,0.023064,1.090950,-0.826155,-0.139921,0.685659,-0.997205,-0.302328,-5.074994,3.301411,3.038537,-0.082350,-0.109208,0.000000,-0.095878,-0.064581,0.000000
2.090000,-1.060193,-0.555756,-1.439711,1.277617,0.818930,0.021650,1.097553,-0.835962,-0.142792,0.634022,-0.963241,-0.271577,-5.251680,3.491823,3.111086,-0.083293,-0.109832,0.000000,-0.092721,-0.059757,0.000000
2.100000,-1.047362,-0.547608,-1.439502,1.288624,0.810523,0.020208,1.103630,-0.845420,-0.145353,0.580626,-0.927368,-0.240106,-5.424861,3.681388,3.180575,-0.084205,-0.110407,0.000000,-0.089399,-0.054779,-0.000000
2.110000,-1.034421,-0.539545,-1.439307,1.299689,0.802022,0.018743,1.109165,-0.854510,-0.147595,0.525525,-0.889613,-0.207965,-5.593153,3.865737,3.241764,-0.085082,-0.110932,0.000000,-0.085911,-0.049651,0.000000
2.120000,-1.021369,-0.531568,-1.439127,1.310807,0.793432,0.017256,1.114141,-0.863212,-0.149512,0.468763,-0.850054,-0.175271,-5.759674,4.041252,3.289467,-0.085923,-0.111404,0.000000,-0.082266,-0.044376,0.000000
2.130000,-1.008205,-0.523676,-1.438962,1.321972,0.784758,0.015752,1.118540,-0.871511,-0.151100,0.410331,-0.808788,-0.142176,-5.925041,4.208689,3.324968,-0.086727,-0.111822,0.000000,-0.078472,-0.038951,0.000000
2.140000,-0.994929,-0.515872,-1.438812,1.333178,0.776002,0.014234,1.122347,-0.879388,-0.152355,0.350262,-0.765880,-0.108771,-6.084521,4.371453,3.354643,-0.087492,-0.112186,0.000000,-0.074532,-0.033375,0.000000
2.150000,-0.981541,-0.508156,-1.438677,1.344419,0.767170,0.012705,1.125546,-0.886828,-0.153275,0.288641,-0.721359,-0.075083,-6.236069,4.529019,3.380196,-0.088218,-0.112493,0.000000,-0.070449,-0.027657,0.000000
2.160000,-0.968041,-0.500529,-1.438558,1.355689,0.758266,0.011169,1.128120,-0.893815,-0.153857,0.225540,-0.675299,-0.041167,-6.382782,4.678326,3.397094,-0.088901,-0.112741,0.000000,-0.066229,-0.021801,0.000000
2.170000,-0.954427,-0.492991,-1.438454,1.366981,0.749294,0.009628,1.130056,-0.900334,-0.154099,0.160985,-0.627793,-0.007141,-6.528851,4.819378,3.400718,-0.089542,-0.112930,0.000000,-0.061879,-0.015808,0.000000
2.180000,-0.940701,-0.485543,-1.438365,1.378290,0.740259,0.008087,1.131340,-0.906371,-0.154000,0.094963,-0.578912,0.026847,-6.673741,4.953719,3.392188,-0.090139,-0.113059,0.000000,-0.057404,-0.009672,-0.000000
2.190000,-0.926862,-0.478186,-1.438292,1.389608,0.731166,0.006548,1.131956,-0.911913,-0.153562,0.027510,-0.528718,0.060703,-6.811393,5.079669,3.377380,-0.090690,-0.113124,0.000000,-0.052808,-0.003395,-0.000000
2.200000,-0.912909,-0.470920,-1.438234,1.400929,0.722021,0.005016,1.131890,-0.916946,-0.152786,-0.041264,-0.477318,0.094395,-6.936560,5.188405,3.358160,-0.091195,-0.113127,0.000000,-0.048100,0.003014,-0.000000
2.210000,-0.898843,-0.463745,-1.438192,1.412246,0.712827,0.003492,1.131130,-0.921459,-0.151674,-0.111221,-0.424950,0.127866,-7.053304,5.280913,3.330439,-0.091652,-0.113064,0.000000,-0.043300,0.009544,0.000000
2.220000,-0.884664,-0.456663,-1.438165,1.423552,0.703592,0.001982,1.129666,-0.925445,-0.150229,-0.182330,-0.371700,0.161003,-7.174297,5.378391,3.289433,-0.092061,-0.112935,0.000000,-0.038416,0.016194,0.000000
2.230000,-0.870372,-0.449674,-1.438152,1.434839,0.694318,0.000488,1.127484,-0.928893,-0.148454,-0.254707,-0.317382,0.193655,-7.283977,5.451045,3.236394,-0.092421,-0.112739,0.000000,-0.033426,0.022981,-0.000000
2.240000,-0.855967,-0.442777,-1.438155,1.446101,0.685014,-0.000987,1.124571,-0.931792,-0.146355,-0.328010,-0.262679,0.225731,-7.368366,5.476219,3.177587,-0.092730,-0.112473,0.000000,-0.028394,0.029872,-0.000000
2.250000,-0.841450,-0.435973,-1.438172,1.457331,0.675683,-0.002439,1.120924,-0.934146,-0.143939,-0.402074,-0.207858,0.257206,-7.530791,5.667899,3.113561,-0.092989,-0.112139,0.000000,-0.023346,0.036854,0.000000
2.260000,-0.826821,-0.429263,-1.438204,1.468520,0.666331,-0.003866,1.116530,-0.935949,-0.141211,-0.478626,-0.149321,0.288002,-7.772091,6.023757,3.040196,-0.093197,-0.111733,0.000000,-0.017925,0.044100,0.000000
2.270000,-0.812080,-0.422647,-1.438249,1.479661,0.656964,-0.005263,1.111351,-0.937133,-0.138179,-0.557516,-0.087383,0.318010,-7.794057,5.926540,2.956856,-0.093347,-0.111253,0.000000,-0.012158,0.051598,0.000000
2.280000,-0.797227,-0.416124,-1.438309,1.490747,0.647588,-0.006629,1.105380,-0.937697,-0.134851,-0.634507,-0.030791,0.347140,-7.640156,5.464778,2.864106,-0.093440,-0.110697,0.000000,-0.006904,0.058933,0.000000
2.290000,-0.782265,-0.409695,-1.438382,1.501769,0.638210,-0.007961,1.098661,-0.937749,-0.131236,-0.710319,0.021913,0.375292,-7.710195,5.466561,2.762857,-0.093485,-0.110069,0.000000,-0.002020,0.066178,0.000000
2.300000,-0.767192,-0.403360,-1.438468,1.512720,0.628833,-0.009254,1.091173,-0.937259,-0.127345,-0.788711,0.078541,0.402397,-7.651766,5.224044,2.660021,-0.093480,-0.109367,0.000000,0.003269,0.073706,0.000000
2.310000,-0.752010,-0.397118,-1.438567,1.523592,0.619465,-0.010507,1.082887,-0.936178,-0.123188,-0.863354,0.126394,0.428493,-7.228654,4.246454,2.554643,-0.093420,-0.108588,0.000000,0.007710,0.080894,0.000000
2.320000,-0.736720,-0.390971,-1.438678,1.534378,0.610110,-0.011718,1.073906,-0.934731,-0.118775,-0.933284,0.163470,0.453490,-7.551130,4.769404,2.426765,-0.093326,-0.107742,0.000000,0.011105,0.087645,-0.000000
2.330000,-0.721323,-0.384916,-1.438801,1.545071,0.600770,-0.012883,1.064221,-0.932909,-0.114119,-1.014377,0.221782,0.477028,-8.657452,6.869232,2.277055,-0.093198,-0.106828,0.000000,0.016621,0.095539,-0.000000
2.340000,-0.705819,-0.378955,-1.438936,1.555662,0.591451,-0.014000,1.053619,-0.930295,-0.109235,-1.106433,0.300854,0.499031,-9.012951,7.456765,2.133165,-0.092993,-0.105823,0.000000,0.024218,0.104562,-0.000000
2.350000,-0.690209,-0.373087,-1.439081,1.566143,0.582164,-0.015068,1.042092,-0.926891,-0.104138,-1.194636,0.370917,0.519691,-9.070142,7.489905,1.991728,-0.092713,-0.104727,0.000000,0.030955,0.113243,-0.000000
2.360000,-0.674496,-0.367312,-1.439237,1.576504,0.572914,-0.016083,1.029726,-0.922877,-0.098841,-1.287836,0.450652,0.538865,-9.811653,8.943749,1.835011,-0.092374,-0.103548,0.000000,0.038682,0.122464,-0.000000
2.370000,-0.658679,-0.361629,-1.439403,1.586737,0.563706,-0.017044,1.016336,-0.917878,-0.093361,-1.390869,0.549792,0.556392,-9.528950,8.243855,1.679818,-0.091939,-0.102267,0.000000,0.048373,0.132712,0.000000
2.380000,-0.642761,-0.356038,-1.439578,1.596831,0.554556,-0.017950,1.001909,-0.911881,-0.087713,-1.478415,0.615530,0.572462,-7.844807,4.648392,1.532203,-0.091407,-0.100883,0.000000,0.054793,0.141466,-0.000000
2.390000,-0.626743,-0.350538,-1.439762,1.606776,0.545469,-0.018799,0.986767,-0.905568,-0.081912,-1.547765,0.642760,0.587036,-7.188168,3.230004,1.368413,-0.090843,-0.099426,0.000000,0.057420,0.148450,0.000000
2.400000,-0.610626,-0.345128,-1.439954,1.616566,0.536445,-0.019588,0.970953,-0.899026,-0.075973,-1.622178,0.680130,0.599830,-7.576728,3.894267,1.194229,-0.090258,-0.097901,0.000000,0.061084,0.155981,-0.000000
2.410000,-0.594411,-0.339809,-1.440154,1.626195,0.527488,-0.020318,0.954324,-0.891965,-0.069915,-1.699300,0.720645,0.610920,-7.381378,3.252035,1.025638,-0.089622,-0.096294,0.000000,0.065093,0.163828,-0.000000
2.420000,-0.578102,-0.334579,-1.440361,1.635653,0.518605,-0.020987,0.936967,-0.884613,-0.063754,-1.769806,0.745170,0.620343,-7.261913,3.050324,0.838868,-0.088956,-0.094611,0.000000,0.067538,0.171056,-0.000000
2.430000,-0.561698,-0.329437,-1.440574,1.644934,0.509796,-0.021593,0.918928,-0.877062,-0.057508,-1.844538,0.781652,0.627698,-7.915827,4.698241,0.627815,-0.088271,-0.092859,0.000000,0.071207,0.178751,-0.000000
2.440000,-0.545203,-0.324383,-1.440792,1.654031,0.501064,-0.022137,0.900076,-0.868980,-0.051200,-1.928122,0.839135,0.632899,-8.280259,5.482089,0.427452,-0.087532,-0.091022,0.000000,0.077010,0.187381,0.000000
2.450000,-0.528618,-0.319415,-1.441016,1.662936,0.492416,-0.022617,0.880365,-0.860279,-0.044850,-2.010143,0.891293,0.636247,-7.526543,4.035094,0.241997,-0.086731,-0.089097,0.000000,0.082320,0.195899,0.000000
2.460000,-0.511944,-0.314534,-1.441245,1.671639,0.483859,-0.023034,0.859874,-0.851154,-0.038475,-2.078653,0.919837,0.637739,-6.456793,2.331178,0.048219,-0.085886,-0.087089,0.000000,0.085305,0.203104,-0.000000
2.470000,-0.495185,-0.309738,-1.441477,1.680133,0.475393,-0.023387,0.838792,-0.841882,-0.032095,-2.139279,0.937917,0.637211,-7.002494,3.242632,-0.154434,-0.085024,-0.085020,0.000000,0.087273,0.209555,-0.000000
2.480000,-0.478342,-0.305026,-1.441712,1.688414,0.467021,-0.023676,0.817088,-0.832396,-0.025731,-2.218703,0.984690,0.634650,-8.776571,5.903275,-0.357685,-0.084140,-0.082883,0.000000,0.092140,0.217932,-0.000000
2.490000,-0.461417,-0.300398,-1.441951,1.696475,0.458745,-0.023901,0.794418,-0.822189,-0.019402,-2.314810,1.055982,0.630057,-9.219859,6.578933,-0.561610,-0.083182,-0.080645,0.000000,0.099504,0.228032,0.000000
2.500000,-0.444412,-0.295852,-1.442191,1.704303,0.450577,-0.024064,0.770792,-0.811276,-0.013130,-2.403100,1.116268,0.623418,-9.352628,6.928999,-0.762802,-0.082150,-0.078307,0.000000,0.105807,0.237387,-0.000000
2.510000,-0.427331,-0.291386,-1.442432,1.711891,0.442520,-0.024164,0.746356,-0.799863,-0.006934,-2.501863,1.194562,0.614801,-10.773920,9.261176,-0.960293,-0.081065,-0.075881,0.000000,0.113958,0.247837,0.000000
2.520000,-0.410174,-0.287001,-1.442674,1.719230,0.434580,-0.024203,0.720755,-0.787385,-0.000834,-2.618579,1.301492,0.604212,-10.022468,8.135778,-1.165299,-0.079871,-0.073333,0.000000,0.125037,0.260142,0.000000
2.530000,-0.392946,-0.282695,-1.442916,1.726306,0.426772,-0.024181,0.693984,-0.773833,0.005150,-2.702312,1.357278,0.591495,-6.502077,2.681780,-1.377878,-0.078565,-0.070662,0.000000,0.131018,0.269154,0.000000
2.540000,-0.375648,-0.278466,-1.443157,1.733110,0.419103,-0.024100,0.666708,-0.760239,0.010996,-2.748620,1.355128,0.576655,-5.087537,0.542365,-1.581044,-0.077250,-0.067934,0.000000,0.131183,0.274401,-0.000000
2.550000,-0.358284,-0.274313,-1.443398,1.739640,0.411567,-0.023961,0.639012,-0.746731,0.016683,-2.804063,1.368125,0.559874,-5.567006,1.419489,-1.772073,-0.075941,-0.065157,0.000000,0.132887,0.280585,-0.000000
2.560000,-0.340856,-0.270234,-1.443637,1.745890,0.404169,-0.023766,0.610627,-0.732877,0.022194,-2.859960,1.383517,0.541213,-4.692656,0.220045,-1.961372,-0.074593,-0.062306,0.000000,0.134851,0.286827,-0.000000
2.570000,-0.323366,-0.266229,-1.443873,1.751852,0.396910,-0.023517,0.581813,-0.719060,0.027508,-2.897916,1.372526,0.520647,-4.438170,-0.088903,-2.150372,-0.073244,-0.059405,0.000000,0.134155,0.291254,-0.000000
2.580000,-0.305818,-0.262296,-1.444107,1.757526,0.389787,-0.023216,0.552669,-0.705426,0.032607,-2.948724,1.381739,0.498206,-6.055586,2.433919,-2.333627,-0.071910,-0.056465,0.000000,0.135509,0.296985,-0.000000
2.590000,-0.288216,-0.258434,-1.444337,1.762906,0.382801,-0.022865,0.522838,-0.691426,0.037472,-3.019028,1.421204,0.473974,-6.552467,3.278803,-2.508659,-0.070534,-0.053450,0.000000,0.139941,0.304701,0.000000
2.600000,-0.270560,-0.254640,-1.444564,1.767983,0.375959,-0.022466,0.492288,-0.677002,0.042086,-3.079773,1.447315,0.448032,-5.352308,1.692942,-2.681677,-0.069111,-0.050356,0.000000,0.143033,0.311445,-0.000000
2.610000,-0.252856,-0.250914,-1.444787,1.772752,0.369261,-0.022023,0.461243,-0.662479,0.046432,-3.126074,1.455063,0.420341,-4.545401,0.822648,-2.852450,-0.067673,-0.047206,0.000000,0.144267,0.316709,0.000000
2.620000,-0.235105,-0.247255,-1.445005,1.777208,0.362709,-0.021538,0.429767,-0.647901,0.050493,-3.170681,1.463768,0.390984,-4.679988,1.143256,-3.001321,-0.066225,-0.044007,0.000000,0.145599,0.321785,0.000000
2.630000,-0.217312,-0.243660,-1.445218,1.781347,0.356303,-0.021013,0.397829,-0.633204,0.054252,-3.219674,1.477928,0.360315,-4.982589,1.557164,-3.127155,-0.064761,-0.040756,0.000000,0.147484,0.327289,-0.000000
2.640000,-0.199478,-0.240129,-1.445425,1.785164,0.350045,-0.020453,0.365373,-0.618342,0.057699,-3.270333,1.494912,0.328440,-4.892491,1.691511,-3.255395,-0.063276,-0.037448,0.000000,0.149654,0.332942,0.000000
2.650000,-0.181608,-0.236659,-1.445627,1.788654,0.343937,-0.019859,0.332423,-0.603306,0.060821,-3.317524,1.511759,0.295207,-4.830770,1.677371,-3.385089,-0.061768,-0.034084,0.000000,0.151807,0.338215,-0.000000
2.660000,-0.163705,-0.233250,-1.445822,1.791813,0.337979,-0.019236,0.299023,-0.588107,0.063603,-3.366948,1.528459,0.260739,-5.104857,1.709863,-3.498294,-0.060240,-0.030671,0.000000,0.153939,0.343686,-0.000000
2.670000,-0.145772,-0.229900,-1.446011,1.794635,0.332174,-0.018587,0.265084,-0.572737,0.066036,-3.419621,1.545956,0.225241,-4.632940,1.729271,-3.601503,-0.058689,-0.027198,0.000000,0.156142,0.349457,0.000000
2.680000,-0.127813,-0.226607,-1.446194,1.797114,0.326524,-0.017915,0.230630,-0.557188,0.068108,-3.459607,1.563044,0.188709,-3.256394,1.557905,-3.699966,-0.057117,-0.023670,0.000000,0.158296,0.353892,-0.000000
2.690000,-0.109830,-0.223369,-1.446370,1.799247,0.321031,-0.017225,0.195892,-0.541476,0.069810,-3.484749,1.577114,0.151241,-2.480912,1.295626,-3.782025,-0.055524,-0.020109,0.000000,0.160128,0.356763,-0.000000
2.700000,-0.091828,-0.220186,-1.446538,1.801032,0.315695,-0.016519,0.160935,-0.525646,0.071133,-3.509225,1.588957,0.113068,-2.491343,1.655815,-3.849700,-0.053914,-0.016524,0.000000,0.161715,0.359519,-0.000000
2.710000,-0.073809,-0.217055,-1.446700,1.802466,0.310518,-0.015802,0.125707,-0.509697,0.072071,-3.534576,1.610230,0.074247,-2.260417,2.496596,-3.909877,-0.052289,-0.012908,0.000000,0.164249,0.362315,-0.000000
2.720000,-0.055778,-0.213976,-1.446854,1.803546,0.305501,-0.015078,0.090244,-0.493441,0.072618,-3.554434,1.638889,0.034871,-1.637682,1.778575,-3.949602,-0.050629,-0.009268,0.000000,0.167519,0.364497,-0.000000
2.730000,-0.037738,-0.210945,-1.447002,1.804271,0.300649,-0.014350,0.054618,-0.476919,0.072769,-3.567329,1.645802,-0.004745,-1.001632,-0.463345,-3.964175,-0.048939,-0.005609,0.000000,0.168538,0.365912,-0.000000
2.740000,-0.019693,-0.207963,-1.447141,1.804639,0.295962,-0.013622,0.018897,-0.460525,0.072523,-3.574466,1.629622,-0.044413,-0.471366,-1.445457,-3.971235,-0.047259,-0.001941,0.000000,0.167163,0.366681,-0.000000
2.750000,-0.001646,-0.205026,-1.447274,1.804649,0.291438,-0.012899,-0.016871,-0.444326,0.071880,-3.576756,1.616893,-0.084169,0.115788,-1.349823,-3.980773,-0.045596,0.001732,0.000000,0.166115,0.366897,-0.000000
2.760000,0.016400,-0.202134,-1.447399,1.804301,0.287076,-0.012185,-0.052638,-0.428187,0.070840,-3.572150,1.602625,-0.124028,0.806590,-2.006336,-3.979386,-0.043937,0.005405,0.000000,0.164881,0.366349,0.000000
2.770000,0.034440,-0.199285,-1.447518,1.803596,0.282875,-0.011483,-0.088314,-0.412274,0.069400,-3.560625,1.576766,-0.163757,1.224542,-2.234072,-3.941591,-0.042298,0.009066,0.000000,0.162430,0.365035,0.000000
2.780000,0.052472,-0.196476,-1.447629,1.802535,0.278830,-0.010797,-0.123850,-0.396652,0.067564,-3.547660,1.557944,-0.202860,1.305879,-1.253321,-3.869369,-0.040688,0.012712,0.000000,0.160670,0.363520,-0.000000
2.790000,0.070491,-0.193708,-1.447734,1.801119,0.274942,-0.010131,-0.159267,-0.381115,0.065343,-3.534507,1.551700,-0.241144,1.569372,-0.848035,-3.796442,-0.039085,0.016343,0.000000,0.160169,0.361934,-0.000000
2.800000,0.088494,-0.190978,-1.447832,1.799350,0.271208,-0.009490,-0.194540,-0.365618,0.062742,-3.516272,1.540983,-0.278789,2.265939,-1.822896,-3.735811,-0.037485,0.019956,0.000000,0.159181,0.359778,0.000000
2.810000,0.106478,-0.188284,-1.447923,1.797228,0.267629,-0.008877,-0.229593,-0.350295,0.059767,-3.489188,1.515242,-0.315861,3.022961,-2.887972,-3.663842,-0.035901,0.023543,0.000000,0.156626,0.356666,0.000000
2.820000,0.124439,-0.185625,-1.448009,1.794758,0.264202,-0.008295,-0.264324,-0.335313,0.056424,-3.455813,1.483224,-0.352066,3.233989,-2.360140,-3.548547,-0.034352,0.027094,0.000000,0.153402,0.352867,0.000000
2.830000,0.142373,-0.183000,-1.448089,1.791942,0.260923,-0.007748,-0.298709,-0.320631,0.052725,-3.424509,1.468039,-0.386832,3.062332,-0.760292,-3.397490,-0.032834,0.030604,0.000000,0.151875,0.349240,-0.000000
2.840000,0.160278,-0.180407,-1.448164,1.788784,0.257790,-0.007240,-0.332814,-0.305952,0.048688,-3.394566,1.468018,-0.420016,3.299895,-0.268160,-3.252968,-0.031315,0.034082,0.000000,0.151872,0.345718,0.000000
2.850000,0.178149,-0.177844,-1.448234,1.785286,0.254804,-0.006774,-0.366600,-0.291270,0.044325,-3.358511,1.462676,-0.451891,3.617619,-0.128401,-3.116303,-0.029796,0.037522,0.000000,0.151299,0.341539,0.000000
2.860000,0.195983,-0.175310,-1.448300,1.781452,0.251964,-0.006354,-0.399985,-0.276699,0.039650,-3.322214,1.465450,-0.482342,3.522719,1.024080,-2.959942,-0.028289,0.040916,0.000000,0.151530,0.337309,0.000000
2.870000,0.213778,-0.172805,-1.448361,1.777286,0.249270,-0.005981,-0.433044,-0.261961,0.034678,-3.288056,1.483157,-0.511090,4.107124,0.651936,-2.787628,-0.026766,0.044271,0.000000,0.153261,0.333273,0.000000
2.880000,0.231529,-0.170325,-1.448419,1.772791,0.246725,-0.005660,-0.465746,-0.247036,0.029428,-3.240072,1.478489,-0.538094,5.552814,-1.759101,-2.608567,-0.025224,0.047584,0.000000,0.152680,0.327809,-0.000000
2.890000,0.249234,-0.167870,-1.448474,1.767971,0.244329,-0.005393,-0.497846,-0.232392,0.023916,-3.177000,1.447975,-0.563261,6.323059,-2.623823,-2.416600,-0.023712,0.050829,0.000000,0.149440,0.320796,-0.000000
2.900000,0.266889,-0.165438,-1.448527,1.762834,0.242077,-0.005182,-0.529286,-0.218076,0.018163,-3.113610,1.426012,-0.586426,6.497267,-2.046065,-2.219283,-0.022235,0.054001,0.000000,0.147057,0.313748,0.000000
2.910000,0.284490,-0.163029,-1.448578,1.757385,0.239968,-0.005029,-0.560118,-0.203871,0.012188,-3.047055,1.407054,-0.607647,7.097844,-2.426247,-2.021274,-0.020771,0.057106,0.000000,0.144965,0.306380,0.000000
2.920000,0.302036,-0.160639,-1.448628,1.751631,0.238000,-0.004938,-0.590227,-0.189935,0.006010,-2.971653,1.377487,-0.626852,7.467936,-2.450342,-1.797311,-0.019336,0.060130,0.000000,0.141779,0.298121,-0.000000
2.930000,0.319523,-0.158269,-1.448677,1.745581,0.236169,-0.004909,-0.619551,-0.176322,-0.000349,-2.897696,1.358047,-0.643593,7.226136,-1.231735,-1.545473,-0.017935,0.063069,0.000000,0.139615,0.290025,0.000000
2.940000,0.336948,-0.155916,-1.448726,1.739240,0.234473,-0.004945,-0.648181,-0.162774,-0.006862,-2.827131,1.352853,-0.657761,7.359665,-0.781223,-1.302609,-0.016544,0.065932,0.000000,0.138889,0.282294,-0.000000
2.950000,0.354308,-0.153579,-1.448776,1.732617,0.232914,-0.005047,-0.676094,-0.149265,-0.013504,-2.750503,1.342423,-0.669645,7.950796,-1.288860,-1.074237,-0.015158,0.068716,0.000000,0.137619,0.273971,-0.000000
2.960000,0.371600,-0.151257,-1.448827,1.725719,0.231488,-0.005215,-0.703191,-0.135926,-0.020255,-2.668115,1.327075,-0.679246,8.319019,-1.365931,-0.836531,-0.013791,0.071412,0.000000,0.135844,0.265094,0.000000
2.970000,0.388822,-0.148949,-1.448880,1.718553,0.230195,-0.005452,-0.729456,-0.122723,-0.027089,-2.584122,1.315104,-0.686376,8.587160,-1.246159,-0.585409,-0.012441,0.074018,0.000000,0.134406,0.256090,0.000000
2.980000,0.405971,-0.146654,-1.448936,1.711129,0.229034,-0.005757,-0.754873,-0.109624,-0.033982,-2.496372,1.302152,-0.690954,8.998911,-1.428344,-0.330324,-0.011103,0.076534,0.000000,0.132865,0.246745,-0.000000
2.990000,0.423045,-0.144369,-1.448995,1.703456,0.228003,-0.006131,-0.779384,-0.096680,-0.040908,-2.404144,1.286537,-0.692982,9.322963,-1.466132,-0.076788,-0.009783,0.078953,0.000000,0.131053,0.236992,0.000000
3.000000,0.440040,-0.142093,-1.449059,1.695542,0.227100,-0.006575,-0.802956,-0.083893,-0.047842,-2.309912,1.272830,-0.692490,9.510236,-1.259891,0.175254,-0.008482,0.081274,0.000000,0.129436,0.227086,0.000000
3.010000,0.456956,-0.139827,-1.449127,1.687397,0.226325,-0.007088,-0.825582,-0.071223,-0.054758,-2.213939,1.261339,-0.689477,9.726061,-1.131855,0.427573,-0.007195,0.083495,0.000000,0.128045,0.217054,-0.000000
3.020000,0.473788,-0.137567,-1.449200,1.679030,0.225676,-0.007670,-0.847235,-0.058666,-0.061632,-2.115391,1.250193,-0.683939,9.964817,-1.079111,0.678675,-0.005921,0.085615,0.000000,0.126692,0.206817,0.000000
3.030000,0.490536,-0.135313,-1.449280,1.670452,0.225151,-0.008321,-0.867890,-0.046220,-0.068437,-2.014643,1.239757,-0.675904,10.166614,-0.988089,0.926252,-0.004661,0.087632,0.000000,0.125416,0.196414,-0.000000
3.040000,0.507197,-0.133064,-1.449367,1.661672,0.224751,-0.009039,-0.887528,-0.033871,-0.075150,-1.912059,1.230431,-0.665414,10.354070,-0.894213,1.170358,-0.003413,0.089544,0.000000,0.124259,0.185884,0.000000
3.050000,0.523770,-0.130818,-1.449461,1.652701,0.224474,-0.009824,-0.906131,-0.021611,-0.081745,-1.807562,1.221873,-0.652497,10.542099,-0.817018,1.412910,-0.002176,0.091350,0.000000,0.123187,0.175221,0.000000
3.060000,0.540251,-0.128574,-1.449563,1.643550,0.224319,-0.010674,-0.923679,-0.009434,-0.088200,-1.701217,1.214090,-0.637155,10.712161,-0.728957,1.651980,-0.000949,0.093048,0.000000,0.122203,0.164432,0.000000
3.070000,0.556641,-0.126332,-1.449674,1.634228,0.224285,-0.011588,-0.940155,0.002671,-0.094488,-1.593318,1.207294,-0.619457,10.848246,-0.628503,1.878798,0.000268,0.094639,0.000000,0.121327,0.153548,0.000000
3.080000,0.572936,-0.124089,-1.449795,1.624747,0.224372,-0.012564,-0.955545,0.014712,-0.100589,-1.484252,1.201520,-0.599579,10.955530,-0.526002,2.091833,0.001478,0.096119,0.000000,0.120566,0.142605,-0.000000
3.090000,0.589136,-0.121844,-1.449926,1.615117,0.224580,-0.013600,-0.969840,0.026701,-0.106480,-1.374208,1.196774,-0.577620,11.053769,-0.421865,2.301023,0.002680,0.097491,0.000000,0.119921,0.131622,-0.000000
3.100000,0.605238,-0.119597,-1.450067,1.605350,0.224906,-0.014693,-0.983030,0.038648,-0.112141,-1.263177,1.193083,-0.553559,11.147300,-0.315707,2.511168,0.003876,0.098752,0.000000,0.119394,0.120597,-0.000000
3.110000,0.621243,-0.117346,-1.450219,1.595456,0.225352,-0.015842,-0.995104,0.050563,-0.117551,-1.151262,1.190459,-0.527397,11.222382,-0.208293,2.713689,0.005068,0.099903,0.000000,0.118989,0.109539,0.000000
3.120000,0.637147,-0.115090,-1.450384,1.585448,0.225918,-0.017044,-1.006055,0.062457,-0.122689,-1.038729,1.188917,-0.499285,11.267586,-0.098361,2.893542,0.006256,0.100943,0.000000,0.118707,0.098473,0.000000
3.130000,0.652952,-0.112828,-1.450560,1.575335,0.226602,-0.018296,-1.015878,0.074341,-0.127537,-0.925910,1.188492,-0.469526,11.286798,0.013912,3.051313,0.007442,0.101872,0.000000,0.118552,0.087427,-0.000000
3.140000,0.668654,-0.110558,-1.450750,1.565130,0.227404,-0.019595,-1.024573,0.086227,-0.132080,-0.812993,1.189195,-0.438259,11.294489,0.125682,3.205413,0.008627,0.102692,0.000000,0.118525,0.076416,0.000000
3.150000,0.684254,-0.108280,-1.450952,1.554844,0.228326,-0.020938,-1.032138,0.098125,-0.136302,-0.700020,1.191006,-0.405418,11.294141,0.235732,3.362623,0.009812,0.103401,0.000000,0.118626,0.065442,-0.000000
3.160000,0.699751,-0.105992,-1.451168,1.544487,0.229367,-0.022321,-1.038573,0.110047,-0.140188,-0.587110,1.193910,-0.371006,11.275896,0.345272,3.508907,0.011000,0.104001,0.000000,0.118853,0.054516,-0.000000
3.170000,0.715144,-0.103692,-1.451399,1.534072,0.230527,-0.023741,-1.043880,0.122003,-0.143722,-0.474502,1.197911,-0.335240,11.231030,0.455434,3.625151,0.012190,0.104491,0.000000,0.119208,0.043655,0.000000
3.180000,0.730433,-0.101381,-1.451643,1.523610,0.231807,-0.025195,-1.048063,0.134005,-0.146893,-0.362490,1.203019,-0.298503,11.162432,0.565313,3.713945,0.013384,0.104874,0.000000,0.119690,0.032883,-0.000000
3.190000,0.745616,-0.099056,-1.451903,1.513111,0.233207,-0.026679,-1.051130,0.146064,-0.149692,-0.251254,1.209218,-0.260961,11.081595,0.672357,3.799422,0.014583,0.105149,0.000000,0.120299,0.022212,-0.000000
3.200000,0.760695,-0.096717,-1.452177,1.502587,0.234728,-0.028189,-1.053088,0.158190,-0.152112,-0.140858,1.216466,-0.222515,10.991904,0.775307,3.889495,0.015790,0.105318,0.000000,0.121030,0.011647,-0.000000
3.210000,0.775668,-0.094362,-1.452466,1.492049,0.236371,-0.029722,-1.053947,0.170393,-0.154142,-0.031416,1.224724,-0.183171,10.885751,0.875109,3.966760,0.017004,0.105382,0.000000,0.121881,0.001195,-0.000000
3.220000,0.790536,-0.091989,-1.452771,1.481508,0.238136,-0.031272,-1.053717,0.182684,-0.155775,0.076857,1.233968,-0.143180,10.755157,0.973310,4.010438,0.018228,0.105342,0.000000,0.122849,-0.009128,0.000000
3.230000,0.805298,-0.089599,-1.453092,1.470975,0.240025,-0.032837,-1.052410,0.195072,-0.157006,0.183688,1.244190,-0.102962,10.602281,1.069255,4.024682,0.019461,0.105200,0.000000,0.123932,-0.019301,0.000000
3.240000,0.819955,-0.087189,-1.453428,1.460460,0.242038,-0.034412,-1.050043,0.207568,-0.157835,0.288903,1.255353,-0.062686,10.438109,1.159684,4.036247,0.020706,0.104956,0.000000,0.125127,-0.029314,-0.000000
3.250000,0.834507,-0.084758,-1.453780,1.449974,0.244176,-0.035994,-1.046632,0.220179,-0.158260,0.392450,1.267384,-0.022237,10.267350,1.241897,4.053012,0.021964,0.104613,0.000000,0.126427,-0.039163,0.000000
3.260000,0.848955,-0.082305,-1.454148,1.439527,0.246441,-0.037577,-1.042194,0.232915,-0.158279,0.494250,1.280191,0.018374,10.082868,1.317378,4.056430,0.023235,0.104173,0.000000,0.127823,-0.048842,0.000000
3.270000,0.863298,-0.079829,-1.454532,1.429130,0.248834,-0.039159,-1.036747,0.245783,-0.157892,0.594107,1.293731,0.058891,9.874046,1.390604,4.027054,0.024520,0.103636,0.000000,0.129309,-0.058339,-0.000000
3.280000,0.877537,-0.077329,-1.454931,1.418792,0.251357,-0.040735,-1.030312,0.258790,-0.157102,0.691731,1.308003,0.098915,9.652044,1.445045,3.969825,0.025821,0.103005,0.000000,0.130886,-0.067630,0.000000
3.290000,0.891674,-0.074802,-1.455346,1.408524,0.254010,-0.042301,-1.022912,0.271943,-0.155914,0.787148,1.322632,0.138288,9.429446,1.477534,3.910318,0.027138,0.102283,0.000000,0.132515,-0.076723,0.000000
3.300000,0.905708,-0.072249,-1.455777,1.398334,0.256796,-0.043854,-1.014569,0.285243,-0.154336,0.880320,1.337554,0.177122,9.144581,1.601105,3.857160,0.028471,0.101470,0.000000,0.134189,-0.085614,-0.000000
3.310000,0.919640,-0.069666,-1.456223,1.388233,0.259715,-0.045388,-1.005306,0.298694,-0.152372,0.970040,1.354654,0.215431,8.794569,1.808276,3.793108,0.029822,0.100570,0.000000,0.136098,-0.094187,-0.000000
3.320000,0.933472,-0.067054,-1.456685,1.378228,0.262770,-0.046901,-0.995168,0.312336,-0.150027,1.056211,1.373719,0.252984,8.558332,1.774589,3.697345,0.031193,0.099586,0.000000,0.138217,-0.102434,-0.000000
3.330000,0.947205,-0.064411,-1.457161,1.368329,0.265962,-0.048389,-0.984182,0.326169,-0.147312,1.141206,1.390146,0.289378,8.408213,1.551412,3.576200,0.032586,0.098520,0.000000,0.140089,-0.110598,0.000000
3.340000,0.960839,-0.061735,-1.457653,1.358544,0.269293,-0.049847,-0.972344,0.340139,-0.144240,1.224375,1.404748,0.324508,8.105423,1.572303,3.457614,0.033995,0.097372,0.000000,0.141791,-0.118615,-0.000000
3.350000,0.974376,-0.059025,-1.458158,1.348882,0.272764,-0.051273,-0.959694,0.354264,-0.140822,1.303315,1.421592,0.358530,7.881650,1.443504,3.339890,0.035422,0.096146,0.000000,0.143730,-0.126246,0.000000
3.360000,0.987817,-0.056280,-1.458678,1.339351,0.276378,-0.052664,-0.946278,0.368571,-0.137069,1.382008,1.433618,0.391306,7.876822,0.909611,3.205550,0.036870,0.094846,0.000000,0.145201,-0.133890,0.000000
3.370000,1.001163,-0.053498,-1.459212,1.329957,0.280136,-0.054015,-0.932054,0.382936,-0.132996,1.460851,1.439784,0.422641,7.367635,1.206057,3.065261,0.038326,0.093467,0.000000,0.146096,-0.141589,-0.000000
3.380000,1.014416,-0.050677,-1.459758,1.320710,0.284037,-0.055324,-0.917061,0.397366,-0.128616,1.529361,1.457739,0.452611,6.335835,2.369174,2.924398,0.039792,0.092012,0.000000,0.148177,-0.148297,-0.000000
3.390000,1.027577,-0.047817,-1.460318,1.311616,0.288083,-0.056587,-0.901467,0.412091,-0.123943,1.587568,1.487168,0.481129,5.780710,2.692318,2.768480,0.041290,0.090498,0.000000,0.151413,-0.154017,-0.000000
3.400000,1.040648,-0.044915,-1.460890,1.302680,0.292279,-0.057802,-0.885309,0.427110,-0.118994,1.644975,1.511585,0.507980,5.398527,2.703676,2.609796,0.042820,0.088929,0.000000,0.154158,-0.159695,0.000000
3.410000,1.053631,-0.041971,-1.461474,1.293909,0.296625,-0.058967,-0.868567,0.442323,-0.113784,1.695538,1.541241,0.533325,4.551111,3.493597,2.458259,0.044373,0.087301,0.000000,0.157433,-0.164727,-0.000000
3.420000,1.066526,-0.038983,-1.462070,1.285309,0.301125,-0.060078,-0.851399,0.457934,-0.108327,1.735998,1.581457,0.557146,4.376370,3.091084,2.274818,0.045969,0.085631,0.000000,0.161773,-0.168784,0.000000
3.430000,1.079337,-0.035949,-1.462676,1.276881,0.305784,-0.061134,-0.833847,0.473952,-0.102641,1.783066,1.603063,0.578822,5.111946,1.088098,2.056557,0.047609,0.083922,0.000000,0.164255,-0.173540,-0.000000
3.440000,1.092064,-0.032867,-1.463292,1.268632,0.310604,-0.062131,-0.815737,0.489996,-0.096751,1.838236,1.603219,0.598277,5.144534,0.280305,1.859554,0.049254,0.082156,0.000000,0.164590,-0.179148,-0.000000
3.450000,1.104709,-0.029737,-1.463918,1.260567,0.315584,-0.063069,-0.797083,0.506016,-0.090675,1.885956,1.608669,0.616013,4.524805,0.600171,1.682343,0.050900,0.080335,0.000000,0.165453,-0.184045,0.000000
3.460000,1.117275,-0.026556,-1.464554,1.252690,0.320725,-0.063944,-0.778018,0.522169,-0.084430,1.928733,1.615223,0.631924,4.330454,0.180217,1.488999,0.052563,0.078470,0.000000,0.166424,-0.188482,-0.000000
3.470000,1.129763,-0.023322,-1.465197,1.245006,0.326027,-0.064757,-0.758508,0.538321,-0.078037,1.972566,1.612273,0.645793,3.948451,0.025063,1.301185,0.054229,0.076560,0.000000,0.166435,-0.193058,0.000000
3.480000,1.142175,-0.020035,-1.465849,1.237520,0.331491,-0.065505,-0.738567,0.554415,-0.071515,2.007702,1.615724,0.657947,2.944302,0.886399,1.134965,0.055892,0.074604,0.000000,0.167081,-0.196792,0.000000
3.490000,1.154514,-0.016692,-1.466507,1.230235,0.337116,-0.066187,-0.718354,0.570635,-0.064878,2.031452,1.630001,0.668492,2.258793,1.216255,0.959073,0.057571,0.072618,0.000000,0.168809,-0.199407,-0.000000
3.500000,1.166780,-0.013293,-1.467172,1.223153,0.342904,-0.066803,-0.697938,0.587015,-0.058145,2.052877,1.640049,0.677129,2.229317,0.442931,0.759686,0.059268,0.070609,0.000000,0.170103,-0.201811,0.000000
3.510000,1.178977,-0.009834,-1.467843,1.216276,0.348856,-0.067350,-0.677297,0.603436,-0.051335,2.076038,1.638860,0.683686,2.185790,-0.325976,0.560741,0.060973,0.068574,0.000000,0.170257,-0.204415,-0.000000
3.520000,1.191106,-0.006316,-1.468519,1.209607,0.354972,-0.067829,-0.656417,0.619792,-0.044471,2.096593,1.633529,0.688344,1.515664,-0.042365,0.393022,0.062673,0.066513,0.000000,0.169979,-0.206777,0.000000
3.530000,1.203169,-0.002735,-1.469200,1.203148,0.361252,-0.068240,-0.635365,0.636107,-0.037569,2.106351,1.638013,0.691546,0.494238,0.839261,0.248981,0.064372,0.064431,0.000000,0.170676,-0.208065,-0.000000
3.540000,1.215169,0.000910,-1.469884,1.196900,0.367695,-0.068581,-0.614290,0.652552,-0.030640,2.106478,1.650315,0.693323,-0.102762,0.991779,0.090189,0.066087,0.062343,0.000000,0.172150,-0.208391,-0.000000
3.550000,1.227107,0.004619,-1.470572,1.190862,0.374303,-0.068853,-0.593235,0.669113,-0.023702,2.104296,1.657848,0.693350,-0.652052,1.054620,-0.077069,0.067815,0.060254,0.000000,0.173129,-0.208494,-0.000000
3.560000,1.238986,0.008396,-1.471261,1.185035,0.381077,-0.069055,-0.572204,0.685709,-0.016773,2.093437,1.671407,0.691782,-1.625450,1.838825,-0.226901,0.069549,0.058163,0.000000,0.174700,-0.207725,0.000000
3.570000,1.250808,0.012241,-1.471953,1.179418,0.388017,-0.069188,-0.551366,0.702541,-0.009866,2.071787,1.694625,0.688812,-1.832042,1.322222,-0.381027,0.071309,0.056089,0.000000,0.177234,-0.205865,-0.000000
3.580000,1.262574,0.016156,-1.472645,1.174008,0.395128,-0.069252,-0.530768,0.719601,-0.002997,2.056796,1.697851,0.684161,-1.096543,-0.794816,-0.546977,0.073094,0.054036,0.000000,0.177733,-0.204680,0.000000
3.590000,1.274288,0.020143,-1.473338,1.168803,0.402409,-0.069248,-0.510230,0.736498,0.003817,2.049856,1.678728,0.677872,-1.085077,-1.678339,-0.691837,0.074864,0.051985,0.000000,0.175954,-0.204312,0.000000
3.600000,1.285950,0.024204,-1.474030,1.163803,0.409858,-0.069176,-0.489771,0.753176,0.010561,2.035095,1.664285,0.670324,-1.692046,-1.500480,-0.823549,0.076613,0.049938,0.000000,0.174627,-0.203149,0.000000
3.610000,1.297564,0.028340,-1.474721,1.159007,0.417473,-0.069037,-0.469529,0.769784,0.017223,2.016015,1.648719,0.661401,-1.808556,-2.145138,-0.962826,0.078356,0.047910,0.000000,0.173164,-0.201544,-0.000000
3.620000,1.309130,0.032554,-1.475411,1.154413,0.425253,-0.068831,-0.449451,0.786150,0.023789,1.998923,1.621382,0.651068,-2.189057,-2.343592,-1.073740,0.080076,0.045895,0.000000,0.170487,-0.200137,0.000000
3.630000,1.320652,0.036845,-1.476098,1.150018,0.433196,-0.068561,-0.429550,0.802211,0.030245,1.972234,1.601847,0.639926,-3.244555,-1.395457,-1.146604,0.081766,0.043894,0.000000,0.168579,-0.197745,0.000000
3.640000,1.332131,0.041217,-1.476782,1.145822,0.441297,-0.068227,-0.410006,0.818187,0.036587,1.934032,1.593473,0.628136,-3.843297,-1.201679,-1.231970,0.083448,0.041927,0.000000,0.167784,-0.194170,-0.000000
3.650000,1.343568,0.045671,-1.477462,1.141818,0.449559,-0.067829,-0.390869,0.834081,0.042807,1.895368,1.577813,0.615287,-3.904024,-1.899178,-1.338658,0.085122,0.039997,0.000000,0.166231,-0.190535,-0.000000
3.660000,1.354967,0.050209,-1.478139,1.138004,0.457979,-0.067370,-0.372099,0.849744,0.048893,1.855952,1.555489,0.601363,-4.201819,-2.182631,-1.431383,0.086772,0.038102,0.000000,0.163980,-0.186811,0.000000
3.670000,1.366329,0.054831,-1.478810,1.134376,0.466554,-0.066851,-0.353750,0.865191,0.054835,1.811332,1.534161,0.586659,-4.560032,-2.343941,-1.498013,0.088401,0.036247,0.000000,0.161811,-0.182542,0.000000
3.680000,1.377655,0.059540,-1.479476,1.130929,0.475283,-0.066274,-0.335872,0.880427,0.060626,1.764751,1.508610,0.571402,-4.694484,-2.857080,-1.549865,0.090009,0.034437,0.000000,0.159196,-0.178057,-0.000000
3.690000,1.388947,0.064337,-1.480135,1.127659,0.484163,-0.065639,-0.318455,0.895363,0.066263,1.717442,1.477019,0.555662,-4.916010,-3.202741,-1.600480,0.091585,0.032671,0.000000,0.155951,-0.173481,0.000000
3.700000,1.400208,0.069223,-1.480788,1.124560,0.493190,-0.064948,-0.301523,0.909967,0.071739,1.666431,1.444556,0.539393,-5.305264,-3.258947,-1.653371,0.093128,0.030953,0.000000,0.152599,-0.168511,-0.000000
3.710000,1.411438,0.074200,-1.481434,1.121628,0.502362,-0.064204,-0.285127,0.924254,0.077051,1.611337,1.411840,0.522595,-5.637480,-3.397202,-1.699549,0.094637,0.029287,0.000000,0.149203,-0.163108,0.000000
3.720000,1.422640,0.079270,-1.482072,1.118858,0.511675,-0.063407,-0.269297,0.938204,0.082191,1.553681,1.376612,0.505402,-5.852887,-3.672934,-1.727174,0.096112,0.027676,0.000000,0.145537,-0.157426,-0.000000
3.730000,1.433815,0.084434,-1.482702,1.116242,0.521126,-0.062560,-0.254053,0.951786,0.087159,1.494279,1.338381,0.488051,-6.028288,-3.954489,-1.738822,0.097548,0.026124,0.000000,0.141552,-0.151548,-0.000000
3.740000,1.444965,0.089693,-1.483324,1.113776,0.530711,-0.061664,-0.239411,0.964972,0.091952,1.433116,1.297522,0.470625,-6.223368,-4.199826,-1.750413,0.098943,0.024631,0.000000,0.137288,-0.145473,-0.000000
3.750000,1.456091,0.095048,-1.483936,1.111454,0.540426,-0.060721,-0.225391,0.977737,0.096571,1.369812,1.254385,0.453043,-6.428849,-4.436548,-1.765419,0.100294,0.023200,0.000000,0.132780,-0.139162,-0.000000
3.760000,1.467194,0.100501,-1.484538,1.109269,0.550266,-0.059733,-0.212015,0.990059,0.101013,1.304539,1.208791,0.435317,-6.607086,-4.685755,-1.773383,0.101598,0.021834,0.000000,0.128010,-0.132634,-0.000000
3.770000,1.478276,0.106053,-1.485130,1.107214,0.560227,-0.058701,-0.199300,1.001912,0.105277,1.237670,1.160670,0.417575,-6.765846,-4.907527,-1.767455,0.102854,0.020534,0.000000,0.122973,-0.125927,-0.000000
3.780000,1.489339,0.111706,-1.485712,1.105283,0.570304,-0.057627,-0.187261,1.013273,0.109365,1.169222,1.110640,0.399968,-6.917669,-5.091964,-1.751379,0.104058,0.019302,0.000000,0.117733,-0.119042,-0.000000
3.790000,1.500382,0.117459,-1.486283,1.103468,0.580492,-0.056514,-0.175916,1.024125,0.113277,1.099317,1.058831,0.382548,-7.048580,-5.293884,-1.734384,0.105208,0.018140,0.000000,0.112306,-0.111994,-0.000000
3.800000,1.511408,0.123316,-1.486842,1.101764,0.590786,-0.055362,-0.165275,1.034449,0.117016,1.028250,1.004763,0.365280,-7.160524,-5.519960,-1.717623,0.106304,0.017049,0.000000,0.106642,-0.104814,0.000000
3.810000,1.522417,0.129275,-1.487390,1.100163,0.601181,-0.054173,-0.155351,1.044221,0.120582,0.956106,0.948431,0.348195,-7.262987,-5.731482,-1.695558,0.107341,0.016032,0.000000,0.100743,-0.097509,-0.000000
3.820000,1.533411,0.135339,-1.487926,1.098657,0.611671,-0.052950,-0.146153,1.053418,0.123979,0.882990,0.890133,0.331369,-7.341932,-5.921902,-1.666789,0.108319,0.015088,0.000000,0.094638,-0.090093,-0.000000
3.830000,1.544390,0.141509,-1.488449,1.097240,0.622250,-0.051694,-0.137691,1.062023,0.127210,0.809267,0.829993,0.314859,-7.393018,-6.103543,-1.633849,0.109234,0.014219,0.000000,0.088343,-0.082603,-0.000000
3.840000,1.555356,0.147784,-1.488960,1.095903,0.632911,-0.050406,-0.129968,1.070018,0.130277,0.735130,0.768062,0.298692,-7.436620,-6.280758,-1.599055,0.110085,0.013426,0.000000,0.081863,-0.075060,0.000000
3.850000,1.566309,0.154167,-1.489457,1.094641,0.643650,-0.049088,-0.122988,1.077384,0.133184,0.660535,0.704378,0.282878,-7.478722,-6.454082,-1.561809,0.110871,0.012709,0.000000,0.075203,-0.067460,-0.000000
3.860000,1.577249,0.160657,-1.489941,1.093444,0.654459,-0.047742,-0.116757,1.084105,0.135934,0.585556,0.638980,0.267456,-7.505279,-6.620099,-1.521391,0.111589,0.012068,0.000000,0.068367,-0.059812,0.000000
3.870000,1.588177,0.167256,-1.490412,1.092305,0.665332,-0.046370,-0.111277,1.090164,0.138533,0.510429,0.571976,0.252451,-7.505232,-6.771239,-1.480779,0.112238,0.011505,0.000000,0.061367,-0.052139,0.000000
3.880000,1.599095,0.173964,-1.490869,1.091218,0.676262,-0.044972,-0.106548,1.095545,0.140983,0.435451,0.503556,0.237840,-7.483040,-6.907504,-1.441101,0.112817,0.011019,0.000000,0.054223,-0.044475,-0.000000
3.890000,1.610002,0.180781,-1.491312,1.090174,0.687243,-0.043550,-0.102568,1.100235,0.143290,0.360769,0.433826,0.223629,-7.453208,-7.038220,-1.399012,0.113323,0.010610,0.000000,0.046945,-0.036833,0.000000
3.900000,1.620898,0.187709,-1.491740,1.089167,0.698267,-0.042106,-0.099333,1.104221,0.145456,0.286387,0.362791,0.209860,-7.418923,-7.166436,-1.352812,0.113756,0.010278,0.000000,0.039536,-0.029216,0.000000
3.910000,1.631785,0.194747,-1.492154,1.088188,0.709327,-0.040641,-0.096840,1.107491,0.147487,0.212390,0.290497,0.196572,-7.370841,-7.285083,-1.305645,0.114114,0.010022,0.000000,0.031999,-0.021633,0.000000
3.920000,1.642662,0.201895,-1.492553,1.087230,0.720417,-0.039156,-0.095085,1.110031,0.149387,0.138970,0.217090,0.183747,-7.302116,-7.385781,-1.263092,0.114396,0.009842,0.000000,0.024350,-0.014104,0.000000
3.930000,1.653530,0.209155,-1.492937,1.086286,0.731528,-0.037653,-0.094061,1.111833,0.151162,0.066348,0.142782,0.171310,-7.216102,-7.469852,-1.225038,0.114601,0.009738,0.000000,0.016611,-0.006652,0.000000
3.940000,1.664388,0.216526,-1.493306,1.085349,0.742653,-0.036133,-0.093758,1.112887,0.152813,-0.005352,0.067693,0.159247,-7.122250,-7.547690,-1.184699,0.114728,0.009708,0.000000,0.008792,0.000710,-0.000000
3.950000,1.675237,0.224008,-1.493659,1.084411,0.753786,-0.034597,-0.094168,1.113187,0.154347,-0.076097,-0.008172,0.147616,-7.022127,-7.623242,-1.139636,0.114776,0.009752,0.000000,0.000895,0.007977,0.000000
3.960000,1.686076,0.231602,-1.493998,1.083465,0.764917,-0.033046,-0.095280,1.112724,0.155766,-0.145795,-0.084772,0.136454,-6.910076,-7.688907,-1.095177,0.114746,0.009869,0.000000,-0.007075,0.015139,-0.000000
3.970000,1.696906,0.239306,-1.494320,1.082505,0.776040,-0.031481,-0.097084,1.111491,0.157076,-0.214299,-0.161950,0.125713,-6.783929,-7.733885,-1.058336,0.114635,0.010057,0.000000,-0.015103,0.022183,-0.000000
3.980000,1.707726,0.247122,-1.494627,1.081524,0.787147,-0.029904,-0.099566,1.109485,0.158280,-0.281473,-0.239450,0.115287,-6.645978,-7.759721,-1.028140,0.114444,0.010316,0.000000,-0.023163,0.029092,-0.000000
3.990000,1.718536,0.255049,-1.494918,1.080514,0.798230,-0.028316,-0.102713,1.106702,0.159381,-0.347218,-0.317145,0.105150,-6.499795,-7.780454,-0.995966,0.114172,0.010643,0.000000,-0.031245,0.035856,-0.000000
4.000000,1.729336,0.263087,-1.495194,1.079469,0.809281,-0.026717,-0.106511,1.103142,0.160383,-0.411469,-0.395059,0.095368,-6.347261,-7.800851,-0.959278,0.113819,0.011037,0.000000,-0.039348,0.042468,-0.000000
4.010000,1.740126,0.271235,-1.495453,1.078384,0.820293,-0.025108,-0.110943,1.098801,0.161289,-0.474163,-0.473162,0.085965,-6.186695,-7.811087,-0.924379,0.113385,0.011498,0.000000,-0.047470,0.048922,-0.000000
4.020000,1.750904,0.279493,-1.495696,1.077251,0.831257,-0.023491,-0.115994,1.093678,0.162102,-0.535203,-0.551281,0.076880,-6.014452,-7.799335,-0.898214,0.112869,0.012022,0.000000,-0.055594,0.055208,0.000000
4.030000,1.761671,0.287860,-1.495923,1.076064,0.842166,-0.021866,-0.121647,1.087775,0.162826,-0.594452,-0.629148,0.068000,-5.831612,-7.768493,-0.879331,0.112273,0.012609,0.000000,-0.063694,0.061310,0.000000
4.040000,1.772425,0.296336,-1.496133,1.074818,0.853013,-0.020234,-0.127883,1.081096,0.163462,-0.651835,-0.706651,0.059294,-5.644206,-7.734101,-0.859012,0.111595,0.013256,0.000000,-0.071758,0.067221,0.000000
4.050000,1.783167,0.304920,-1.496327,1.073506,0.863788,-0.018597,-0.134683,1.073642,0.164012,-0.707337,-0.783830,0.050820,-5.453641,-7.698403,-0.834911,0.110838,0.013962,0.000000,-0.079791,0.072939,0.000000
4.060000,1.793896,0.313612,-1.496505,1.072124,0.874485,-0.016954,-0.142030,1.065419,0.164479,-0.760908,-0.860619,0.042595,-5.256735,-7.651102,-0.813212,0.110000,0.014724,0.000000,-0.087785,0.078458,-0.000000
4.070000,1.804610,0.322410,-1.496666,1.070666,0.885097,-0.015307,-0.149902,1.056430,0.164864,-0.812471,-0.936852,0.034556,-5.052412,-7.588308,-0.799941,0.109082,0.015540,0.000000,-0.095723,0.083771,0.000000
4.080000,1.815309,0.331314,-1.496811,1.069126,0.895614,-0.013657,-0.158279,1.046682,0.165170,-0.861956,-1.012385,0.026597,-4.842964,-7.513482,-0.793423,0.108085,0.016409,0.000000,-0.103593,0.088869,0.000000
4.090000,1.825992,0.340322,-1.496939,1.067500,0.906030,-0.012004,-0.167141,1.036182,0.165396,-0.909331,-1.087122,0.018687,-4.630785,-7.431530,-0.785993,0.107010,0.017328,0.000000,-0.111383,0.093750,-0.000000
4.100000,1.836659,0.349434,-1.497051,1.065783,0.916338,-0.010349,-0.176466,1.024939,0.165544,-0.954572,-1.161015,0.010877,-4.412825,-7.344392,-0.775784,0.105857,0.018295,0.000000,-0.119090,0.098410,0.000000
4.110000,1.847308,0.358649,-1.497146,1.063971,0.926529,-0.008693,-0.186232,1.012962,0.165614,-0.997587,-1.234010,0.003172,-4.188703,-7.249131,-0.768063,0.104628,0.019308,0.000000,-0.126705,0.102839,-0.000000
4.120000,1.857938,0.367965,-1.497225,1.062059,0.936597,-0.007037,-0.196417,1.000259,0.165607,-1.038346,-1.305998,-0.004485,-3.969264,-7.140651,-0.767427,0.103323,0.020363,0.000000,-0.134220,0.107035,-0.000000
4.130000,1.868549,0.377381,-1.497287,1.060042,0.946534,-0.005381,-0.206999,0.986842,0.165524,-1.076972,-1.376823,-0.012177,-3.755801,-7.019966,-0.772290,0.101944,0.021460,0.000000,-0.141617,0.111009,0.000000
4.140000,1.879139,0.386896,-1.497333,1.057919,0.956334,-0.003726,-0.217957,0.972723,0.165364,-1.113462,-1.446397,-0.019930,-3.534574,-6.894466,-0.776665,0.100491,0.022595,0.000000,-0.148888,0.114761,0.000000
4.150000,1.889707,0.396508,-1.497362,1.055683,0.965989,-0.002074,-0.229268,0.957914,0.165125,-1.147664,-1.514712,-0.027710,-3.304243,-6.766189,-0.779244,0.098966,0.023767,0.000000,-0.156032,0.118275,0.000000
4.160000,1.900253,0.406215,-1.497374,1.053333,0.975492,-0.000424,-0.240910,0.942429,0.164809,-1.179547,-1.581721,-0.035515,-3.074918,-6.630591,-0.783986,0.097370,0.024972,0.000000,-0.163042,0.121547,-0.000000
4.170000,1.910774,0.416018,-1.497370,1.050865,0.984837,0.001223,-0.252859,0.926280,0.164415,-1.209162,-1.647324,-0.043390,-2.848971,-6.484135,-0.793807,0.095705,0.026209,0.000000,-0.169908,0.124582,-0.000000
4.180000,1.921270,0.425912,-1.497350,1.048276,0.994018,0.002865,-0.265093,0.909482,0.163942,-1.236526,-1.711404,-0.051391,-2.623489,-6.328846,-0.807357,0.093972,0.027475,0.000000,-0.176618,0.127382,0.000000
4.190000,1.931740,0.435898,-1.497313,1.045563,1.003027,0.004501,-0.277590,0.892052,0.163387,-1.261632,-1.773901,-0.059537,-2.397075,-6.169952,-0.820739,0.092173,0.028768,0.000000,-0.183165,0.129945,0.000000
4.200000,1.942181,0.445973,-1.497260,1.042724,1.011859,0.006132,-0.290326,0.874004,0.162751,-1.284468,-1.834803,-0.067806,-2.170473,-6.007136,-0.833224,0.090309,0.030085,0.000000,-0.189547,0.132270,0.000000
4.210000,1.952594,0.456135,-1.497190,1.039757,1.020507,0.007756,-0.303279,0.855355,0.162031,-1.305041,-1.894044,-0.076202,-1.945171,-5.837604,-0.847228,0.088382,0.031424,0.000000,-0.195757,0.134358,0.000000
4.220000,1.962977,0.466383,-1.497105,1.036659,1.028966,0.009373,-0.316427,0.836123,0.161227,-1.323371,-1.951555,-0.084751,-1.721514,-5.664150,-0.864110,0.086394,0.032783,0.000000,-0.201786,0.136209,-0.000000
4.230000,1.973327,0.476714,-1.497003,1.033428,1.037229,0.010981,-0.329747,0.816324,0.160336,-1.339472,-2.007327,-0.093484,-1.499880,-5.488376,-0.882903,0.084346,0.034159,0.000000,-0.207634,0.137826,0.000000
4.240000,1.983645,0.487128,-1.496885,1.030064,1.045292,0.012580,-0.343216,0.795977,0.159357,-1.353369,-2.061323,-0.102409,-1.280718,-5.307025,-0.901626,0.082241,0.035549,0.000000,-0.213294,0.139210,0.000000
4.250000,1.993929,0.497620,-1.496751,1.026564,1.053149,0.014168,-0.356814,0.775098,0.158288,-1.365086,-2.113467,-0.111516,-1.061711,-5.119724,-0.919997,0.080080,0.036952,0.000000,-0.218760,0.140364,-0.000000
4.260000,2.004176,0.508190,-1.496602,1.022927,1.060794,0.015745,-0.370518,0.753707,0.157127,-1.374603,-2.163717,-0.120809,-0.843392,-4.929345,-0.939066,0.077866,0.038365,0.000000,-0.224025,0.141285,-0.000000
4.270000,2.014387,0.518836,-1.496436,1.019153,1.068223,0.017311,-0.384306,0.731824,0.155872,-1.381954,-2.212054,-0.130298,-0.634127,-4.737132,-0.959013,0.075600,0.039786,0.000000,-0.229086,0.141977,0.000000
4.280000,2.024559,0.529555,-1.496255,1.015241,1.075431,0.018863,-0.398157,0.709466,0.154521,-1.387286,-2.258460,-0.139989,-0.434674,-4.542690,-0.979253,0.073284,0.041213,0.000000,-0.233942,0.142454,-0.000000
4.290000,2.034692,0.540345,-1.496059,1.011190,1.082412,0.020401,-0.412052,0.686654,0.153072,-1.390647,-2.302908,-0.149883,-0.234286,-4.345341,-0.999263,0.070921,0.042643,0.000000,-0.238588,0.142723,0.000000
4.300000,2.044783,0.551203,-1.495847,1.007000,1.089164,0.021924,-0.425970,0.663408,0.151523,-1.391971,-2.345366,-0.159974,-0.030873,-4.144611,-1.019114,0.068513,0.044075,0.000000,-0.243019,0.142775,0.000000
4.310000,2.054832,0.562128,-1.495621,1.002671,1.095681,0.023432,-0.439891,0.639747,0.149872,-1.391265,-2.385800,-0.170265,0.167685,-3.941559,-1.038868,0.066061,0.045505,0.000000,-0.247233,0.142611,0.000000
4.320000,2.064837,0.573117,-1.495379,0.998202,1.101959,0.024922,-0.453795,0.615692,0.148118,-1.388618,-2.424198,-0.180752,0.356665,-3.739018,-1.057720,0.063568,0.046933,0.000000,-0.251226,0.142240,0.000000
4.330000,2.074796,0.584167,-1.495122,0.993595,1.107994,0.026394,-0.467663,0.591263,0.146257,-1.384132,-2.460580,-0.191419,0.538164,-3.537301,-1.075338,0.061036,0.048356,0.000000,-0.255000,0.141674,-0.000000
4.340000,2.084709,0.595277,-1.494851,0.988849,1.113784,0.027847,-0.481478,0.566480,0.144289,-1.377854,-2.494944,-0.202258,0.717464,-3.333302,-1.092493,0.058468,0.049772,0.000000,-0.258554,0.140917,0.000000
4.350000,2.094573,0.606443,-1.494565,0.983965,1.119324,0.029280,-0.495221,0.541364,0.142212,-1.369782,-2.527247,-0.213269,0.895864,-3.125926,-1.109581,0.055865,0.051179,0.000000,-0.261883,0.139969,0.000000
4.360000,2.104388,0.617663,-1.494265,0.978945,1.124611,0.030691,-0.508874,0.515935,0.140024,-1.359937,-2.557462,-0.224450,1.069441,-2.917872,-1.125777,0.053230,0.052576,0.000000,-0.264983,0.138832,0.000000
4.370000,2.114152,0.628935,-1.493951,0.973788,1.129643,0.032080,-0.522419,0.490215,0.137723,-1.348393,-2.585604,-0.235785,1.233768,-2.712832,-1.139577,0.050566,0.053960,0.000000,-0.267856,0.137514,-0.000000
4.380000,2.123864,0.640256,-1.493624,0.968496,1.134416,0.033446,-0.535841,0.464223,0.135308,-1.335262,-2.611719,-0.247242,1.389677,-2.510524,-1.150936,0.047873,0.055329,0.000000,-0.270505,0.136027,0.000000
4.390000,2.133522,0.651623,-1.493282,0.963071,1.138927,0.034786,-0.549125,0.437981,0.132778,-1.320600,-2.635814,-0.258803,1.542570,-2.306708,-1.161535,0.045156,0.056683,0.000000,-0.272932,0.134377,0.000000
4.400000,2.143125,0.663035,-1.492928,0.957514,1.143175,0.036101,-0.562253,0.411507,0.130132,-1.304410,-2.657853,-0.270472,1.693892,-2.100131,-1.171982,0.042415,0.058020,0.000000,-0.275131,0.132565,0.000000
4.410000,2.152672,0.674487,-1.492560,0.951826,1.147157,0.037389,-0.575213,0.384824,0.127369,-1.286722,-2.677817,-0.282243,1.839729,-1.894152,-1.180864,0.039653,0.059337,0.000000,-0.277100,0.130594,-0.000000
4.420000,2.162162,0.685978,-1.492180,0.946010,1.150872,0.038649,-0.587988,0.357951,0.124487,-1.267616,-2.695736,-0.294090,1.976026,-1.692740,-1.186208,0.036873,0.060634,0.000000,-0.278844,0.128473,-0.000000
4.430000,2.171592,0.697504,-1.491787,0.940066,1.154316,0.039879,-0.600565,0.330909,0.121487,-1.247202,-2.711672,-0.305967,2.103722,-1.495319,-1.188175,0.034076,0.061908,0.000000,-0.280367,0.126214,0.000000
4.440000,2.180963,0.709064,-1.491383,0.933998,1.157490,0.041078,-0.612932,0.303717,0.118368,-1.225541,-2.725642,-0.317853,2.227870,-1.297198,-1.189097,0.031265,0.063159,0.000000,-0.281671,0.123823,-0.000000
4.450000,2.190272,0.720654,-1.490966,0.927808,1.160391,0.042246,-0.625076,0.276396,0.115130,-1.202644,-2.737616,-0.329749,2.349788,-1.097083,-1.189748,0.028443,0.064386,0.000000,-0.282754,0.121303,-0.000000
4.460000,2.199519,0.732272,-1.490538,0.921497,1.163018,0.043381,-0.636985,0.248965,0.111773,-1.178545,-2.747584,-0.341648,2.465924,-0.898527,-1.188316,0.025610,0.065586,0.000000,-0.283615,0.118657,0.000000
4.470000,2.208702,0.743914,-1.490098,0.915068,1.165370,0.044482,-0.648647,0.221444,0.108297,-1.153326,-2.755586,-0.353516,2.572759,-0.705401,-1.182515,0.022771,0.066760,0.000000,-0.284257,0.115894,0.000000
4.480000,2.217820,0.755579,-1.489648,0.908524,1.167447,0.045547,-0.660051,0.193853,0.104703,-1.127090,-2.761692,-0.365298,2.671211,-0.516972,-1.172671,0.019925,0.067905,0.000000,-0.284690,0.113026,-0.000000
4.490000,2.226873,0.767263,-1.489187,0.901867,1.169247,0.046576,-0.671189,0.166210,0.100991,-1.099901,-2.765926,-0.376969,2.765774,-0.328559,-1.161583,0.017077,0.069021,0.000000,-0.284914,0.110060,-0.000000
4.500000,2.235858,0.778964,-1.488717,0.895100,1.170771,0.047567,-0.682049,0.138535,0.097163,-1.071775,-2.768263,-0.388530,2.857630,-0.138944,-1.150134,0.014227,0.070106,0.000000,-0.284929,0.106999,-0.000000
4.510000,2.244775,0.790679,-1.488236,0.888226,1.172018,0.048519,-0.692624,0.110845,0.093221,-1.042749,-2.768705,-0.399972,2.943688,0.048433,-1.136273,0.011378,0.071161,0.000000,-0.284735,0.103846,0.000000
4.520000,2.253622,0.802405,-1.487746,0.881248,1.172988,0.049431,-0.702904,0.083161,0.089164,-1.012901,-2.767295,-0.411255,3.021028,0.230120,-1.117518,0.008532,0.072183,0.000000,-0.284338,0.100610,-0.000000
4.530000,2.262400,0.814139,-1.487247,0.874168,1.173681,0.050302,-0.712882,0.055499,0.084995,-0.982328,-2.764102,-0.422322,3.090532,0.406944,-1.094298,0.005692,0.073173,0.000000,-0.283744,0.097303,-0.000000
4.540000,2.271106,0.825878,-1.486740,0.866990,1.174098,0.051131,-0.722551,0.027879,0.080718,-0.951090,-2.759156,-0.433141,3.156018,0.583129,-1.069753,0.002858,0.074129,0.000000,-0.282959,0.093931,-0.000000
4.550000,2.279739,0.837621,-1.486225,0.859717,1.174239,0.051916,-0.731904,0.000316,0.076333,-0.919208,-2.752440,-0.443717,3.218480,0.759684,-1.044889,0.000032,0.075052,0.000000,-0.281981,0.090497,0.000000
4.560000,2.288300,0.849363,-1.485702,0.852352,1.174104,0.052658,-0.740935,-0.027170,0.071843,-0.886721,-2.743962,-0.454039,3.275372,0.933594,-1.017457,-0.002782,0.075939,0.000000,-0.280812,0.087005,-0.000000
4.570000,2.296786,0.861103,-1.485172,0.844898,1.173695,0.053353,-0.749638,-0.054563,0.067252,-0.853700,-2.733768,-0.464066,3.324408,1.102097,-0.984873,-0.005584,0.076792,0.000000,-0.279458,0.083464,0.000000
4.580000,2.305198,0.872837,-1.484635,0.837359,1.173013,0.054003,-0.758009,-0.081846,0.062562,-0.820233,-2.721920,-0.473737,3.366397,1.265982,-0.947714,-0.008371,0.077609,0.000000,-0.277926,0.079883,-0.000000
4.590000,2.313534,0.884563,-1.484092,0.829738,1.172058,0.054605,-0.766043,-0.109001,0.057777,-0.786373,-2.708448,-0.483020,3.404417,1.428685,-0.909310,-0.011142,0.078390,0.000000,-0.276220,0.076269,-0.000000
4.600000,2.321793,0.896278,-1.483543,0.822038,1.170833,0.055158,-0.773736,-0.136014,0.052901,-0.752144,-2.693346,-0.491923,3.439250,1.590949,-0.870677,-0.013896,0.079134,0.000000,-0.274342,0.072625,0.000000
4.610000,2.329974,0.907980,-1.482988,0.814263,1.169338,0.055663,-0.781086,-0.162868,0.047939,-0.717588,-2.676629,-0.500434,3.468926,1.750386,-0.829541,-0.016629,0.079842,0.000000,-0.272294,0.068955,0.000000
4.620000,2.338078,0.919665,-1.482429,0.806417,1.167575,0.056117,-0.788088,-0.189547,0.042893,-0.682766,-2.658339,-0.508514,3.491819,1.905068,-0.783346,-0.019341,0.080514,0.000000,-0.270081,0.065266,-0.000000
4.630000,2.346103,0.931331,-1.481866,0.798502,1.165547,0.056520,-0.794741,-0.216035,0.037768,-0.647751,-2.638528,-0.516101,3.508622,2.055683,-0.732710,-0.022031,0.081148,0.000000,-0.267710,0.061568,0.000000
4.640000,2.354048,0.942976,-1.481299,0.790522,1.163255,0.056872,-0.801043,-0.242318,0.032571,-0.612593,-2.617225,-0.523168,3.521624,2.204652,-0.681043,-0.024696,0.081745,0.000000,-0.265186,0.057864,-0.000000
4.650000,2.361913,0.954596,-1.480729,0.782481,1.160701,0.057172,-0.806993,-0.268380,0.027305,-0.577319,-2.594435,-0.529722,3.531532,2.352415,-0.629384,-0.027334,0.082306,0.000000,-0.262510,0.054159,-0.000000
4.660000,2.369698,0.966190,-1.480156,0.774382,1.157887,0.057418,-0.812590,-0.294206,0.021976,-0.541963,-2.570177,-0.535755,3.536969,2.497321,-0.575471,-0.029946,0.082829,0.000000,-0.259685,0.050455,0.000000
4.670000,2.377401,0.977754,-1.479580,0.766229,1.154817,0.057611,-0.817832,-0.319783,0.016590,-0.506579,-2.544488,-0.541231,3.536519,2.638340,-0.516896,-0.032528,0.083315,0.000000,-0.256718,0.046760,0.000000
4.680000,2.385022,0.989286,-1.479003,0.758025,1.151491,0.057750,-0.822721,-0.345096,0.011152,-0.471232,-2.517410,-0.546093,3.530725,2.776036,-0.454331,-0.035080,0.083765,0.000000,-0.253613,0.043081,-0.000000
4.690000,2.392561,1.000784,-1.478425,0.749774,1.147915,0.057834,-0.827257,-0.370131,0.005668,-0.435965,-2.488968,-0.550318,3.521716,2.911688,-0.391081,-0.037600,0.084177,0.000000,-0.250374,0.039422,-0.000000
4.700000,2.400018,1.012244,-1.477847,0.741480,1.144089,0.057864,-0.831440,-0.394875,0.000145,-0.400798,-2.459176,-0.553915,3.509956,3.045384,-0.328145,-0.040088,0.084554,0.000000,-0.247005,0.035785,-0.000000
4.710000,2.407391,1.023665,-1.477268,0.733146,1.140017,0.057837,-0.835273,-0.419315,-0.005410,-0.365766,-2.428060,-0.556881,3.494214,3.176320,-0.263381,-0.042541,0.084894,0.000000,-0.243509,0.032174,0.000000
4.720000,2.414681,1.035045,-1.476690,0.724775,1.135703,0.057755,-0.838756,-0.443437,-0.010992,-0.330914,-2.395650,-0.559183,3.473986,3.304309,-0.194678,-0.044958,0.085198,0.000000,-0.239890,0.028594,-0.000000
4.730000,2.421886,1.046380,-1.476113,0.716371,1.131148,0.057618,-0.841891,-0.467228,-0.016594,-0.296286,-2.361974,-0.560774,3.449934,3.429673,-0.122775,-0.047338,0.085466,0.000000,-0.236153,0.025050,-0.000000
4.740000,2.429008,1.057668,-1.475538,0.707937,1.126358,0.057424,-0.844682,-0.490676,-0.022208,-0.261915,-2.327056,-0.561638,3.422950,3.552646,-0.050636,-0.049681,0.085699,0.000000,-0.232302,0.021545,0.000000
4.750000,2.436045,1.068907,-1.474964,0.699477,1.121335,0.057173,-0.847129,-0.513769,-0.027827,-0.227827,-2.290921,-0.561787,3.392684,3.673125,0.020906,-0.051984,0.085898,0.000000,-0.228339,0.018082,-0.000000
4.760000,2.442998,1.080094,-1.474394,0.690994,1.116083,0.056867,-0.849238,-0.536495,-0.033443,-0.194061,-2.253594,-0.561220,3.358820,3.791036,0.093674,-0.054248,0.086061,0.000000,-0.224270,0.014665,0.000000
4.770000,2.449865,1.091228,-1.473827,0.682492,1.110605,0.056504,-0.851011,-0.558841,-0.039051,-0.160651,-2.215100,-0.559914,3.322945,3.906633,0.169280,-0.056470,0.086191,0.000000,-0.220098,0.011297,0.000000
4.780000,2.456647,1.102306,-1.473264,0.673974,1.104906,0.056086,-0.852451,-0.580797,-0.044642,-0.127602,-2.175461,-0.557834,3.285362,4.020057,0.247023,-0.058650,0.086288,0.000000,-0.215825,0.007978,0.000000
4.790000,2.463344,1.113326,-1.472705,0.665443,1.098989,0.055612,-0.853563,-0.602350,-0.050208,-0.094943,-2.134699,-0.554973,3.244231,4.131067,0.324548,-0.060786,0.086351,0.000000,-0.211456,0.004713,-0.000000
4.800000,2.469956,1.124286,-1.472152,0.656903,1.092859,0.055082,-0.854350,-0.623491,-0.055741,-0.062718,-2.092840,-0.551344,3.199931,4.239065,0.401195,-0.062879,0.086382,0.000000,-0.206994,0.001503,-0.000000
4.810000,2.476483,1.135184,-1.471604,0.648356,1.086519,0.054497,-0.854817,-0.644207,-0.061235,-0.030945,-2.049918,-0.546949,3.153859,4.344230,0.478285,-0.064926,0.086381,0.000000,-0.202442,-0.001647,0.000000
4.820000,2.482923,1.146017,-1.471062,0.639806,1.079975,0.053857,-0.854969,-0.664489,-0.066680,0.000359,-2.005955,-0.541778,3.104843,4.448164,0.556847,-0.066928,0.086349,0.000000,-0.197806,-0.004739,-0.000000
4.830000,2.489279,1.156783,-1.470527,0.631257,1.073229,0.053163,-0.854810,-0.684326,-0.072070,0.031152,-1.960954,-0.535812,3.052541,4.550923,0.636262,-0.068882,0.086286,0.000000,-0.193084,-0.007766,-0.000000
4.840000,2.495548,1.167481,-1.469999,0.622710,1.066288,0.052416,-0.854346,-0.703708,-0.077396,0.061410,-1.914937,-0.529053,2.999077,4.650475,0.714910,-0.070790,0.086193,0.000000,-0.188281,-0.010727,-0.000000
4.850000,2.501733,1.178109,-1.469478,0.614170,1.059155,0.051615,-0.853582,-0.722625,-0.082651,0.091134,-1.867945,-0.521514,2.944858,4.746358,0.792467,-0.072648,0.086071,0.000000,-0.183400,-0.013623,0.000000
4.860000,2.507832,1.188664,-1.468966,0.605639,1.051836,0.050763,-0.852523,-0.741067,-0.087827,0.120307,-1.820010,-0.513203,2.888651,4.839923,0.869714,-0.074458,0.085920,0.000000,-0.178447,-0.016453,-0.000000
4.870000,2.513846,1.199146,-1.468463,0.597119,1.044334,0.049859,-0.851176,-0.759025,-0.092915,0.148907,-1.771146,-0.504120,2.830467,4.932181,0.946825,-0.076217,0.085741,0.000000,-0.173422,-0.019214,0.000000
4.880000,2.519774,1.209551,-1.467969,0.588615,1.036655,0.048904,-0.849545,-0.776490,-0.097909,0.176917,-1.721366,-0.494267,2.771069,5.022744,1.023283,-0.077926,0.085535,0.000000,-0.168327,-0.021905,0.000000
4.890000,2.525618,1.219879,-1.467485,0.580128,1.028804,0.047901,-0.847637,-0.793452,-0.102801,0.204328,-1.670692,-0.483654,2.710633,5.110301,1.098515,-0.079584,0.085302,0.000000,-0.163165,-0.024527,-0.000000
4.900000,2.531377,1.230127,-1.467011,0.571662,1.020786,0.046848,-0.845458,-0.809904,-0.107582,0.231129,-1.619160,-0.472296,2.648263,5.194501,1.172517,-0.081189,0.085043,0.000000,-0.157939,-0.027078,-0.000000
4.910000,2.537051,1.240294,-1.466548,0.563219,1.012606,0.045749,-0.843015,-0.825835,-0.112247,0.257293,-1.566802,-0.460204,2.584185,5.276225,1.245352,-0.082743,0.084759,0.000000,-0.152654,-0.029556,-0.000000
4.920000,2.542641,1.250379,-1.466096,0.554802,1.004269,0.044603,-0.840313,-0.841240,-0.116786,0.282813,-1.513635,-0.447389,2.521387,5.356307,1.316372,-0.084243,0.084450,0.000000,-0.147310,-0.031961,-0.000000
4.930000,2.548147,1.260380,-1.465656,0.546413,0.995781,0.043413,-0.837358,-0.856108,-0.121194,0.307721,-1.459675,-0.433876,2.460088,5.434521,1.385241,-0.085689,0.084117,0.000000,-0.141909,-0.034298,-0.000000
4.940000,2.553569,1.270295,-1.465228,0.538055,0.987147,0.042180,-0.834158,-0.870433,-0.125464,0.332015,-1.404945,-0.419685,2.396500,5.509728,1.452460,-0.087081,0.083761,0.000000,-0.136453,-0.036566,0.000000
4.950000,2.558908,1.280123,-1.464812,0.529730,0.978373,0.040904,-0.830718,-0.884207,-0.129588,0.355651,-1.349481,-0.404827,2.330332,5.581300,1.518382,-0.088418,0.083383,0.000000,-0.130945,-0.038761,0.000000
4.960000,2.564164,1.289862,-1.464410,0.521441,0.969463,0.039588,-0.827045,-0.897423,-0.133560,0.378621,-1.293319,-0.389317,2.264359,5.650001,1.582340,-0.089700,0.082983,0.000000,-0.125390,-0.040885,-0.000000
4.970000,2.569337,1.299512,-1.464021,0.513189,0.960424,0.038233,-0.823146,-0.910073,-0.137374,0.400938,-1.236481,-0.373180,2.199009,5.717393,1.642798,-0.090926,0.082562,0.000000,-0.119788,-0.042937,-0.000000
4.980000,2.574428,1.309071,-1.463645,0.504978,0.951262,0.036840,-0.819026,-0.922152,-0.141024,0.422602,-1.178971,-0.356461,2.133501,5.783239,1.699619,-0.092096,0.082121,0.000000,-0.114139,-0.044920,0.000000
4.990000,2.579437,1.318537,-1.463284,0.496808,0.941981,0.035412,-0.814694,-0.933653,-0.144504,0.443608,-1.120816,-0.339188,2.067741,5.845364,1.754502,-0.093209,0.081660,0.000000,-0.108446,-0.046833,0.000000
5.000000,2.584364,1.327910,-1.462937,0.488684,0.932589,0.033950,-0.810154,-0.944569,-0.147808,0.463956,-1.062064,-0.321371,2.001639,5.903392,1.808147,-0.094265,0.081180,0.000000,-0.102712,-0.048677,0.000000
5.010000,2.589210,1.337189,-1.462605,0.480605,0.923090,0.032456,-0.805415,-0.954894,-0.150931,0.483641,-1.002748,-0.303025,1.935417,5.958727,1.859096,-0.095263,0.080682,0.000000,-0.096940,-0.050452,0.000000
5.020000,2.593976,1.346372,-1.462288,0.472575,0.913491,0.030932,-0.800481,-0.964624,-0.153868,0.502665,-0.942889,-0.284189,1.870079,6.011874,1.905039,-0.096203,0.080166,0.000000,-0.091132,-0.052160,-0.000000
5.030000,2.598662,1.355459,-1.461986,0.464596,0.903797,0.029379,-0.795361,-0.973752,-0.156615,0.521043,-0.882511,-0.264924,1.805776,6.062307,1.946091,-0.097086,0.079634,0.000000,-0.085288,-0.053801,-0.000000
5.040000,2.603268,1.364448,-1.461700,0.456668,0.894016,0.027799,-0.790061,-0.982274,-0.159167,0.538780,-0.821643,-0.245267,1.741333,6.109342,1.985067,-0.097909,0.079085,0.000000,-0.079411,-0.055378,0.000000
5.050000,2.607795,1.373339,-1.461430,0.448795,0.884152,0.026195,-0.784586,-0.990185,-0.161520,0.555869,-0.760324,-0.225223,1.676283,6.152728,2.022894,-0.098674,0.078521,0.000000,-0.073504,-0.056891,0.000000
5.060000,2.612244,1.382131,-1.461176,0.440976,0.874212,0.024569,-0.778943,-0.997480,-0.163671,0.572306,-0.698589,-0.204809,1.611629,6.192804,2.057359,-0.099379,0.077942,0.000000,-0.067568,-0.058339,0.000000
5.070000,2.616615,1.390823,-1.460939,0.433216,0.864202,0.022922,-0.773139,-1.004157,-0.165616,0.588102,-0.636468,-0.184076,1.548811,6.230082,2.085696,-0.100025,0.077348,0.000000,-0.061606,-0.059724,-0.000000
5.080000,2.620908,1.399415,-1.460718,0.425514,0.854129,0.021257,-0.767181,-1.010210,-0.167353,0.603282,-0.573987,-0.163095,1.487699,6.264412,2.108293,-0.100611,0.076741,0.000000,-0.055619,-0.061049,-0.000000
5.090000,2.625125,1.407906,-1.460514,0.417872,0.843998,0.019575,-0.761074,-1.015636,-0.168878,0.617856,-0.511180,-0.141910,1.426530,6.294976,2.128646,-0.101138,0.076121,0.000000,-0.049609,-0.062317,-0.000000
5.100000,2.629266,1.416295,-1.460326,0.410292,0.833816,0.017879,-0.754824,-1.020433,-0.170191,0.631813,-0.448087,-0.120522,1.364853,6.321484,2.147977,-0.101604,0.075488,0.000000,-0.043578,-0.063525,-0.000000
5.110000,2.633331,1.424582,-1.460156,0.402776,0.823589,0.016171,-0.748438,-1.024598,-0.171289,0.645153,-0.384750,-0.098950,1.304032,6.344380,2.163679,-0.102009,0.074844,0.000000,-0.037530,-0.064676,-0.000000
5.120000,2.637321,1.432767,-1.460003,0.395323,0.813324,0.014453,-0.741921,-1.028128,-0.172170,0.657893,-0.321200,-0.077249,1.245290,6.364078,2.172472,-0.102354,0.074188,0.000000,-0.031467,-0.065771,-0.000000
5.130000,2.641237,1.440849,-1.459867,0.387937,0.803027,0.012728,-0.735280,-1.031022,-0.172834,0.670059,-0.257468,-0.055501,1.188308,6.380344,2.174944,-0.102639,0.073522,0.000000,-0.025389,-0.066813,-0.000000
5.140000,2.645080,1.448827,-1.459748,0.380618,0.792704,0.010997,-0.728520,-1.033278,-0.173280,0.681660,-0.193593,-0.033750,1.131666,6.392472,2.175263,-0.102862,0.072845,0.000000,-0.019299,-0.067804,0.000000
5.150000,2.648850,1.456703,-1.459647,0.373367,0.782361,0.009262,-0.721647,-1.034894,-0.173509,0.692692,-0.129619,-0.011996,1.074945,6.400334,2.174737,-0.103025,0.072158,0.000000,-0.013201,-0.068743,-0.000000
5.160000,2.652547,1.464475,-1.459563,0.366185,0.772006,0.007526,-0.714666,-1.035870,-0.173520,0.703158,-0.065586,0.009745,1.019197,6.404281,2.170439,-0.103126,0.071463,0.000000,-0.007096,-0.069631,0.000000
5.170000,2.656173,1.472143,-1.459496,0.359073,0.761644,0.005792,-0.707583,-1.036206,-0.173314,0.713076,-0.001533,0.031413,0.965718,6.404279,2.159014,-0.103166,0.070758,0.000000,-0.000988,-0.070471,0.000000
5.180000,2.659729,1.479708,-1.459447,0.352033,0.751282,0.004060,-0.700404,-1.035901,-0.172892,0.722473,0.062499,0.052925,0.914314,6.400106,2.141208,-0.103146,0.070046,0.000000,0.005121,-0.071266,0.000000
5.190000,2.663214,1.487169,-1.459415,0.345065,0.740926,0.002334,-0.693134,-1.034956,-0.172255,0.731362,0.126469,0.074237,0.863352,6.391657,2.121413,-0.103064,0.069325,0.000000,0.011230,-0.072017,0.000000
5.200000,2.666630,1.494526,-1.459401,0.338171,0.730583,0.000615,-0.685777,-1.033371,-0.171407,0.739740,0.190332,0.095353,0.812337,6.378784,2.100952,-0.102921,0.068598,0.000000,0.017333,-0.072723,0.000000
5.210000,2.669977,1.501780,-1.459403,0.331350,0.720258,-0.001094,-0.678339,-1.031149,-0.170348,0.747609,0.254045,0.116256,0.762449,6.361431,2.076835,-0.102717,0.067863,0.000000,0.023429,-0.073387,-0.000000
5.220000,2.673257,1.508931,-1.459422,0.324604,0.709960,-0.002792,-0.670825,-1.028290,-0.169082,0.754989,0.317561,0.136890,0.714982,6.339747,2.045889,-0.102453,0.067122,0.000000,0.029514,-0.074009,0.000000
5.230000,2.676470,1.515979,-1.459459,0.317933,0.699693,-0.004476,-0.663239,-1.024798,-0.167610,0.761909,0.380839,0.157174,0.669663,6.313657,2.009002,-0.102127,0.066375,0.000000,0.035586,-0.074593,-0.000000
5.240000,2.679616,1.522925,-1.459512,0.311339,0.689464,-0.006144,-0.655587,-1.020674,-0.165938,0.768382,0.443834,0.177070,0.624839,6.282765,1.970400,-0.101741,0.065622,0.000000,0.041642,-0.075140,0.000000
5.250000,2.682696,1.529769,-1.459582,0.304822,0.679279,-0.007795,-0.647872,-1.015921,-0.164069,0.774405,0.506495,0.196582,0.579989,6.246834,1.931269,-0.101294,0.064864,0.000000,0.047676,-0.075651,-0.000000
5.260000,2.685712,1.536511,-1.459668,0.298382,0.669145,-0.009425,-0.640099,-1.010544,-0.162007,0.779982,0.568771,0.215695,0.536278,6.206005,1.888846,-0.100787,0.064102,0.000000,0.053686,-0.076125,-0.000000
5.270000,2.688664,1.543152,-1.459770,0.292020,0.659068,-0.011035,-0.632272,-1.004546,-0.159755,0.785131,0.630615,0.234359,0.495010,6.160553,1.840462,-0.100220,0.063334,0.000000,0.059668,-0.076565,0.000000
5.280000,2.691553,1.549692,-1.459889,0.285736,0.649054,-0.012621,-0.624396,-0.997931,-0.157319,0.789882,0.691982,0.252505,0.455879,6.110349,1.787001,-0.099594,0.062563,0.000000,0.065618,-0.076973,-0.000000
5.290000,2.694379,1.556133,-1.460023,0.279532,0.639110,-0.014181,-0.616474,-0.990706,-0.154705,0.794249,0.752822,0.270099,0.417179,6.054853,1.732118,-0.098908,0.061787,0.000000,0.071533,-0.077352,-0.000000
5.300000,2.697143,1.562474,-1.460172,0.273407,0.629240,-0.015715,-0.608511,-0.982875,-0.151917,0.798226,0.813079,0.287147,0.378393,5.993772,1.676853,-0.098163,0.061008,0.000000,0.077408,-0.077700,0.000000
5.310000,2.699847,1.568718,-1.460337,0.267361,0.619452,-0.017220,-0.600510,-0.974444,-0.148962,0.801816,0.872697,0.303636,0.340689,5.927299,1.618941,-0.097360,0.060226,0.000000,0.083237,-0.078017,-0.000000
5.320000,2.702490,1.574863,-1.460517,0.261396,0.609751,-0.018694,-0.592475,-0.965421,-0.145845,0.805039,0.931625,0.319526,0.305286,5.855788,1.556319,-0.096498,0.059440,0.000000,0.089016,-0.078306,-0.000000
5.330000,2.705075,1.580913,-1.460711,0.255512,0.600144,-0.020136,-0.584409,-0.955812,-0.142571,0.807922,0.989813,0.334763,0.271823,5.779109,1.489823,-0.095579,0.058652,0.000000,0.094742,-0.078570,0.000000
5.340000,2.707601,1.586866,-1.460919,0.249708,0.590635,-0.021545,-0.576316,-0.945625,-0.139149,0.810476,1.047207,0.349322,0.238687,5.696631,1.422367,-0.094603,0.057862,0.000000,0.100409,-0.078808,-0.000000
5.350000,2.710069,1.592725,-1.461142,0.243986,0.581231,-0.022919,-0.568200,-0.934868,-0.135585,0.812696,1.103746,0.363210,0.205335,5.607881,1.354628,-0.093571,0.057069,0.000000,0.106011,-0.079022,-0.000000
5.360000,2.712480,1.598491,-1.461378,0.238344,0.571938,-0.024257,-0.560062,-0.923550,-0.131885,0.814583,1.159365,0.376415,0.172804,5.513125,1.284909,-0.092483,0.056274,0.000000,0.111543,-0.079209,-0.000000
5.370000,2.714836,1.604164,-1.461627,0.232784,0.562760,-0.025557,-0.551908,-0.911681,-0.128057,0.816152,1.214008,0.388908,0.142443,5.413309,1.212133,-0.091340,0.055478,0.000000,0.116998,-0.079373,-0.000000
5.380000,2.717136,1.609746,-1.461889,0.227306,0.553704,-0.026818,-0.543739,-0.899270,-0.124107,0.817432,1.267631,0.400657,0.113949,5.308297,1.137058,-0.090143,0.054680,0.000000,0.122373,-0.079514,0.000000
5.390000,2.719382,1.615238,-1.462163,0.221910,0.544775,-0.028039,-0.535559,-0.886328,-0.120044,0.818431,1.320174,0.411649,0.085431,5.196552,1.061414,-0.088893,0.053881,0.000000,0.127661,-0.079636,-0.000000
5.400000,2.721574,1.620642,-1.462450,0.216595,0.535978,-0.029219,-0.527371,-0.872866,-0.115874,0.819140,1.371562,0.421886,0.056310,5.077480,0.985505,-0.087590,0.053081,0.000000,0.132855,-0.079735,-0.000000
5.410000,2.723714,1.625958,-1.462748,0.211362,0.527317,-0.030357,-0.519177,-0.858897,-0.111606,0.819557,1.421724,0.431359,0.027779,4.951964,0.908476,-0.086236,0.052280,0.000000,0.137948,-0.079811,-0.000000
5.420000,2.725802,1.631188,-1.463057,0.206211,0.518800,-0.031451,-0.510980,-0.844432,-0.107247,0.819696,1.470601,0.440055,0.001067,4.821006,0.830235,-0.084831,0.051479,0.000000,0.142933,-0.079866,-0.000000
5.430000,2.727838,1.636334,-1.463377,0.201143,0.510429,-0.032502,-0.502783,-0.829485,-0.102805,0.819579,1.518144,0.447964,-0.024217,4.684203,0.751352,-0.083377,0.050677,0.000000,0.147804,-0.079902,0.000000
5.440000,2.729824,1.641396,-1.463707,0.196156,0.502210,-0.033507,-0.494588,-0.814069,-0.098288,0.819211,1.564285,0.455082,-0.049837,4.539971,0.672288,-0.081875,0.049875,0.000000,0.152556,-0.079918,0.000000
5.450000,2.731761,1.646378,-1.464047,0.191251,0.494147,-0.034467,-0.486398,-0.798199,-0.093703,0.818582,1.608943,0.461410,-0.076263,4.387966,0.592963,-0.080326,0.049073,0.000000,0.157177,-0.079914,-0.000000
5.460000,2.733649,1.651279,-1.464396,0.186428,0.486246,-0.035381,-0.478216,-0.781890,-0.089059,0.817686,1.652045,0.466942,-0.102406,4.229058,0.513407,-0.078731,0.048272,0.000000,0.161662,-0.079888,0.000000
5.470000,2.735490,1.656103,-1.464754,0.181687,0.478510,-0.036249,-0.470045,-0.765158,-0.084364,0.816534,1.693524,0.471678,-0.127466,4.063514,0.434503,-0.077093,0.047471,0.000000,0.166001,-0.079842,0.000000
5.480000,2.737283,1.660850,-1.465121,0.177027,0.470943,-0.037069,-0.461886,-0.748020,-0.079626,0.815137,1.733315,0.475632,-0.151844,3.890916,0.356592,-0.075411,0.046670,0.000000,0.170188,-0.079775,-0.000000
5.490000,2.739030,1.665522,-1.465496,0.172449,0.463549,-0.037841,-0.453742,-0.730492,-0.074852,0.813497,1.771343,0.478810,-0.176750,3.710653,0.278855,-0.073689,0.045871,0.000000,0.174213,-0.079689,0.000000
5.500000,2.740732,1.670121,-1.465878,0.167952,0.456333,-0.038566,-0.445616,-0.712593,-0.070050,0.811602,1.807528,0.481209,-0.202670,3.522247,0.200846,-0.071927,0.045072,0.000000,0.178068,-0.079580,0.000000
5.510000,2.742389,1.674648,-1.466267,0.163536,0.449297,-0.039242,-0.437510,-0.694341,-0.065227,0.809443,1.841788,0.482827,-0.228893,3.325906,0.123467,-0.070127,0.044275,0.000000,0.181744,-0.079449,-0.000000
5.520000,2.744003,1.679107,-1.466663,0.159202,0.442446,-0.039870,-0.429427,-0.675757,-0.060393,0.807024,1.874046,0.483678,-0.254542,3.122493,0.048450,-0.068292,0.043479,0.000000,0.185231,-0.079294,-0.000000
5.530000,2.745573,1.683497,-1.467064,0.154948,0.435782,-0.040450,-0.421369,-0.656860,-0.055554,0.804353,1.904237,0.483796,-0.279941,2.911806,-0.024135,-0.066423,0.042685,0.000000,0.188521,-0.079117,-0.000000
5.540000,2.747102,1.687822,-1.467472,0.150774,0.429309,-0.040981,-0.413340,-0.637672,-0.050717,0.801425,1.932282,0.483195,-0.306425,2.692313,-0.096236,-0.064522,0.041893,0.000000,0.191605,-0.078917,0.000000
5.550000,2.748589,1.692083,-1.467884,0.146681,0.423029,-0.041464,-0.405341,-0.618215,-0.045890,0.798224,1.958084,0.481871,-0.334466,2.463529,-0.168585,-0.062591,0.041104,0.000000,0.194472,-0.078691,-0.000000
5.560000,2.750035,1.696283,-1.468301,0.142668,0.416945,-0.041899,-0.397375,-0.598511,-0.041080,0.794736,1.981553,0.479824,-0.363338,2.226276,-0.239541,-0.060632,0.040316,0.000000,0.197112,-0.078438,-0.000000
5.570000,2.751442,1.700422,-1.468722,0.138734,0.411059,-0.042286,-0.389446,-0.578584,-0.036294,0.790957,2.002609,0.477080,-0.392271,1.981173,-0.306745,-0.058648,0.039532,0.000000,0.199514,-0.078157,-0.000000
5.580000,2.752810,1.704504,-1.469147,0.134879,0.405373,-0.042625,-0.381556,-0.558458,-0.031538,0.786890,2.021176,0.473689,-0.421615,1.727775,-0.370401,-0.056642,0.038751,0.000000,0.201669,-0.077848,0.000000
5.590000,2.754140,1.708530,-1.469575,0.131103,0.399889,-0.042917,-0.373708,-0.538160,-0.026820,0.782525,2.037165,0.469672,-0.452577,1.464883,-0.433309,-0.054615,0.037973,0.000000,0.203567,-0.077509,0.000000
5.600000,2.755432,1.712502,-1.470005,0.127405,0.394610,-0.043161,-0.365906,-0.517715,-0.022145,0.777839,2.050474,0.465023,-0.485647,1.192107,-0.496370,-0.052570,0.037198,0.000000,0.205196,-0.077138,-0.000000
5.610000,2.756688,1.716422,-1.470438,0.123784,0.389535,-0.043360,-0.358152,-0.497151,-0.017519,0.772812,2.061007,0.459745,-0.520227,0.910010,-0.557443,-0.050511,0.036428,0.000000,0.206544,-0.076733,-0.000000
5.620000,2.757908,1.720292,-1.470872,0.120242,0.384667,-0.043512,-0.350449,-0.476495,-0.012950,0.767434,2.068674,0.453874,-0.555400,0.618936,-0.613835,-0.048440,0.035661,0.000000,0.207602,-0.076291,0.000000
5.630000,2.759093,1.724115,-1.471308,0.116775,0.380005,-0.043619,-0.342803,-0.455777,-0.008442,0.761704,2.073386,0.447468,-0.591336,0.318546,-0.665934,-0.046359,0.034900,0.000000,0.208358,-0.075814,0.000000
5.640000,2.760243,1.727892,-1.471745,0.113385,0.375551,-0.043681,-0.335215,-0.435027,-0.004000,0.755608,2.075045,0.440555,-0.629605,0.008017,-0.717063,-0.044272,0.034144,0.000000,0.208801,-0.075298,0.000000
5.650000,2.761360,1.731626,-1.472182,0.110071,0.371305,-0.043699,-0.327691,-0.414276,0.000369,0.749112,2.073546,0.433127,-0.671532,-0.313385,-0.768211,-0.042183,0.033393,0.000000,0.208919,-0.074740,0.000000
5.660000,2.762445,1.735319,-1.472619,0.106832,0.367266,-0.043673,-0.320233,-0.393556,0.004662,0.742177,2.068777,0.425191,-0.716211,-0.645352,-0.816953,-0.040094,0.032647,0.000000,0.208700,-0.074136,0.000000
5.670000,2.763497,1.738972,-1.473055,0.103666,0.363434,-0.043605,-0.312847,-0.372901,0.008873,0.734788,2.060639,0.416788,-0.760582,-0.986513,-0.860568,-0.038009,0.031909,0.000000,0.208131,-0.073484,0.000000
5.680000,2.764518,1.742587,-1.473491,0.100575,0.359808,-0.043496,-0.305537,-0.352343,0.012998,0.726965,2.049047,0.407979,-0.804957,-1.337293,-0.899603,-0.035931,0.031177,0.000000,0.207202,-0.072786,0.000000
5.690000,2.765509,1.746168,-1.473925,0.097556,0.356387,-0.043345,-0.298308,-0.331920,0.017033,0.718689,2.033893,0.398796,-0.853863,-1.699932,-0.937486,-0.033865,0.030452,0.000000,0.205903,-0.072040,0.000000
5.700000,2.766469,1.749715,-1.474358,0.094609,0.353169,-0.043155,-0.291164,-0.311666,0.020974,0.709888,2.015048,0.389230,-0.908413,-2.073963,-0.975166,-0.031813,0.029735,0.000000,0.204217,-0.071237,-0.000000
5.710000,2.767401,1.753231,-1.474788,0.091732,0.350153,-0.042926,-0.284110,-0.291619,0.024817,0.700520,1.992414,0.379292,-0.965779,-2.458275,-1.010207,-0.029781,0.029027,0.000000,0.202135,-0.070374,-0.000000
5.720000,2.768304,1.756718,-1.475216,0.088926,0.347337,-0.042659,-0.277153,-0.271817,0.028560,0.690572,1.965883,0.369026,-1.024535,-2.855552,-1.040187,-0.027771,0.028327,0.000000,0.199644,-0.069449,0.000000
5.730000,2.769179,1.760178,-1.475641,0.086189,0.344717,-0.042355,-0.270299,-0.252301,0.032198,0.680030,1.935303,0.358489,-1.089289,-3.270657,-1.065764,-0.025788,0.027637,0.000000,0.196727,-0.068460,0.000000
