time,x,y,z,vx,vy,vz,ax,ay,az,jx,jy,jz,sx,sy,sz,roll,pitch,yaw,p,q,r
0.000000,-2.524055,-1.639572,-1.462297,0.013508,-0.008098,-0.003815,-0.289867,0.148118,0.022827,-10.853305,5.262906,0.685619,330.695246,-179.161946,-38.707778,0.015126,0.029608,0.000000,0.537939,1.109906,0.000000
0.010000,-2.523920,-1.639653,-1.462335,0.010609,-0.006617,-0.003587,-0.398400,0.200747,0.029684,-7.546353,3.471287,0.298541,736.760694,-368.000881,-68.914470,0.020506,0.040712,0.000000,0.354464,0.771387,0.000000
0.020000,-2.523843,-1.639704,-1.462369,0.005540,-0.004083,-0.003221,-0.440794,0.217543,0.028798,3.881909,-2.097111,-0.692670,921.344263,-407.961487,-68.286151,0.022215,0.045035,0.000000,-0.215252,-0.399156,-0.000000
0.030000,-2.523809,-1.639734,-1.462400,0.001793,-0.002266,-0.003011,-0.320762,0.158805,0.015830,10.880533,-4.687943,-1.067182,247.278404,-21.006828,2.175125,0.016204,0.032739,0.000000,-0.479439,-1.113148,-0.000000
0.040000,-2.523807,-1.639749,-1.462429,-0.000876,-0.000907,-0.002905,-0.223184,0.123785,0.007455,8.827477,-2.517248,-0.649168,-187.191220,198.122114,37.924536,0.012624,0.022764,0.000000,-0.257265,-0.901498,-0.000000
0.050000,-2.523827,-1.639753,-1.462458,-0.002671,0.000210,-0.002862,-0.144213,0.108460,0.002847,7.136708,-0.725501,-0.308691,-153.131052,162.501025,30.648240,0.011058,0.014704,0.000000,-0.074189,-0.727965,0.000000
0.060000,-2.523861,-1.639745,-1.462486,-0.003760,0.001263,-0.002848,-0.080449,0.109275,0.001281,5.764856,0.732773,-0.036203,-123.276649,131.284583,24.296627,0.011140,0.008202,0.000000,0.074707,-0.587682,0.000000
0.070000,-2.523902,-1.639727,-1.462515,-0.004280,0.002396,-0.002836,-0.028915,0.123115,0.002123,4.671175,1.900191,0.177241,-97.365337,104.187310,18.809406,0.012552,0.002948,0.000000,0.193954,-0.476173,0.000000
0.080000,-2.523946,-1.639697,-1.462543,-0.004338,0.003725,-0.002805,0.012974,0.147278,0.004826,3.817549,2.816519,0.339985,-75.134391,80.923713,14.126262,0.015019,-0.001323,0.000000,0.287696,-0.389342,0.000000
0.090000,-2.523989,-1.639653,-1.462571,-0.004020,0.005341,-0.002740,0.047436,0.179445,0.008922,3.168487,3.518665,0.459767,-56.321162,61.208319,10.186918,0.018306,-0.004840,0.000000,0.359713,-0.323445,0.000000
0.100000,-2.524027,-1.639590,-1.462598,-0.003389,0.007314,-0.002627,0.076344,0.217652,0.014021,2.691126,4.040685,0.543723,-40.663025,44.755661,6.931116,0.022214,-0.007793,0.000000,0.413453,-0.275065,0.000000
0.110000,-2.524057,-1.639507,-1.462623,-0.002493,0.009694,-0.002459,0.101258,0.260259,0.019797,2.355227,4.413778,0.598389,-27.897240,31.280247,4.298533,0.026576,-0.010342,0.000000,0.452051,-0.241091,-0.000000
0.120000,-2.524076,-1.639397,-1.462647,-0.001364,0.012519,-0.002231,0.123448,0.305927,0.025989,2.133181,4.666290,0.629694,-17.761137,20.496589,2.228839,0.031255,-0.012617,0.000000,0.478351,-0.218698,-0.000000
0.130000,-2.524084,-1.639256,-1.462668,-0.000024,0.015813,-0.001939,0.143922,0.353585,0.032391,2.000004,4.823710,0.642966,-9.992075,12.119218,0.661772,0.036143,-0.014718,0.000000,0.494910,-0.205339,0.000000
0.140000,-2.524077,-1.639080,-1.462686,0.001514,0.019591,-0.001583,0.163448,0.402402,0.038848,1.933340,4.908674,0.642929,-4.327292,5.862654,-0.462873,0.041154,-0.016726,0.000000,0.504011,-0.198739,-0.000000
0.150000,-2.524054,-1.638864,-1.462699,0.003245,0.023861,-0.001162,0.182588,0.451758,0.045249,1.913458,4.940963,0.633708,-0.504165,1.441417,-1.205467,0.046223,-0.018697,0.000000,0.507657,-0.196890,-0.000000
0.160000,-2.524012,-1.638603,-1.462709,0.005166,0.028626,-0.000678,0.201718,0.501221,0.051522,1.923256,4.937503,0.618820,1.739886,-1.429977,-1.626398,0.051307,-0.020668,0.000000,0.507570,-0.198051,-0.000000
0.170000,-2.523950,-1.638292,-1.462713,0.007279,0.033885,-0.000132,0.221054,0.550509,0.057626,1.948256,4.912364,0.601180,2.700566,-3.079431,-1.794821,0.056374,-0.022663,0.000000,0.505193,-0.200747,-0.000000
0.180000,-2.523866,-1.637925,-1.462711,0.009587,0.039636,0.000474,0.240683,0.599468,0.063546,1.977268,4.875914,0.582924,3.215597,-4.533696,-1.928135,0.061410,-0.024689,0.000000,0.501594,-0.203838,-0.000000
0.190000,-2.523759,-1.637499,-1.462704,0.012093,0.045874,0.001139,0.260599,0.648027,0.069284,2.012568,4.821690,0.562618,3.348735,-5.821924,-2.032378,0.066406,-0.026747,0.000000,0.496104,-0.207552,-0.000000
0.200000,-2.523625,-1.637008,-1.462689,0.014799,0.052596,0.001860,0.280934,0.695902,0.074798,2.044242,4.759476,0.542276,-0.880367,-1.759740,-1.008373,0.071332,-0.028850,0.000000,0.489734,-0.210878,-0.000000
0.210000,-2.523463,-1.636447,-1.462666,0.017711,0.059793,0.002635,0.301484,0.743216,0.080130,1.994961,4.786495,0.542450,-8.754411,6.781326,0.959360,0.076201,-0.030975,0.000000,0.492599,-0.205964,0.000000
0.220000,-2.523270,-1.635812,-1.462636,0.020829,0.067461,0.003463,0.320833,0.791632,0.085647,1.869154,4.895102,0.561463,-7.838185,3.830058,0.486010,0.081184,-0.032981,0.000000,0.503953,-0.193269,-0.000000
0.230000,-2.523046,-1.635098,-1.462597,0.024128,0.075625,0.004348,0.338867,0.841118,0.091359,1.838197,4.863096,0.552170,2.460686,-11.213694,-2.548968,0.086280,-0.034854,0.000000,0.500677,-0.190180,-0.000000
0.240000,-2.522788,-1.634300,-1.462549,0.027606,0.084283,0.005290,0.357597,0.888894,0.096691,1.918368,4.670828,0.510484,5.476479,-16.850580,-3.590413,0.091197,-0.036799,0.000000,0.480659,-0.198336,-0.000000
0.250000,-2.522494,-1.633412,-1.462491,0.031280,0.093403,0.006282,0.377234,0.934535,0.101569,1.947727,4.526085,0.480362,-1.108867,-10.853425,-2.213413,0.095893,-0.038837,0.000000,0.465546,-0.201310,0.000000
0.260000,-2.522162,-1.632432,-1.462423,0.035151,0.102974,0.007321,0.396552,0.979415,0.106298,1.896190,4.453760,0.466216,-5.732250,-7.988249,-1.542588,0.100508,-0.040843,0.000000,0.457968,-0.196049,0.000000
0.270000,-2.521791,-1.631353,-1.462345,0.039211,0.112991,0.008408,0.415158,1.023610,0.110893,1.833082,4.366320,0.449510,-4.950462,-10.303770,-1.876321,0.105052,-0.042778,0.000000,0.448802,-0.189578,0.000000
0.280000,-2.521378,-1.630172,-1.462255,0.043454,0.123446,0.009539,0.433213,1.066742,0.115288,1.797181,4.247684,0.428689,-2.590339,-12.735225,-2.142766,0.109484,-0.044656,0.000000,0.436377,-0.185861,0.000000
0.290000,-2.520922,-1.628884,-1.462154,0.047875,0.134326,0.010713,0.451102,1.108564,0.119467,1.781275,4.111615,0.406655,-2.214771,-13.890470,-2.233833,0.113779,-0.046517,0.000000,0.422130,-0.184169,0.000000
0.300000,-2.520420,-1.627485,-1.462041,0.052476,0.145617,0.011928,0.468839,1.148974,0.123421,1.752886,3.969875,0.384013,-3.740119,-14.430341,-2.276686,0.117927,-0.048363,0.000000,0.407287,-0.181184,-0.000000
0.310000,-2.519872,-1.625972,-1.461916,0.057252,0.157306,0.013182,0.486159,1.187961,0.127147,1.706472,3.823008,0.361121,-4.841670,-15.117819,-2.310947,0.121925,-0.050166,0.000000,0.391918,-0.176342,-0.000000
0.320000,-2.519275,-1.624339,-1.461777,0.062199,0.169377,0.014471,0.502968,1.225434,0.130644,1.656052,3.667519,0.337794,-4.862343,-15.818131,-2.391469,0.125765,-0.051916,0.000000,0.375665,-0.171077,0.000000
0.330000,-2.518628,-1.622584,-1.461626,0.067311,0.181814,0.015795,0.519280,1.261312,0.133903,1.609226,3.506646,0.313292,-4.566004,-16.269461,-2.513896,0.129438,-0.053615,0.000000,0.358846,-0.166163,0.000000
0.340000,-2.517929,-1.620703,-1.461461,0.072585,0.194603,0.017149,0.535153,1.295567,0.136909,1.564732,3.342129,0.287516,-4.627768,-16.725418,-2.608222,0.132942,-0.055268,0.000000,0.341640,-0.161470,0.000000
0.350000,-2.517177,-1.618692,-1.461283,0.078015,0.207726,0.018533,0.550575,1.328154,0.139653,1.516670,3.172137,0.261127,-5.019152,-17.273109,-2.651561,0.136271,-0.056873,0.000000,0.323878,-0.156399,-0.000000
0.360000,-2.516369,-1.616548,-1.461091,0.083596,0.221166,0.019942,0.565486,1.359010,0.142132,1.464349,2.996667,0.234484,-5.304230,-17.729790,-2.694231,0.139419,-0.058425,0.000000,0.305568,-0.150885,-0.000000
0.370000,-2.515505,-1.614269,-1.460884,0.089324,0.234906,0.021375,0.579862,1.388088,0.144343,1.410586,2.817542,0.207243,-5.386134,-18.003650,-2.794766,0.142383,-0.059920,0.000000,0.286894,-0.145212,-0.000000
0.380000,-2.514582,-1.611850,-1.460663,0.095193,0.248928,0.022829,0.593698,1.415361,0.146277,1.356627,2.636594,0.178589,-5.411691,-18.157188,-2.940524,0.145157,-0.061359,0.000000,0.268028,-0.139504,0.000000
0.390000,-2.513601,-1.609290,-1.460428,0.101198,0.263213,0.024301,0.606995,1.440819,0.147915,1.302352,2.454398,0.148432,-5.474150,-18.303226,-3.056222,0.147743,-0.062740,0.000000,0.249030,-0.133748,0.000000
0.400000,-2.512558,-1.606586,-1.460177,0.107333,0.277744,0.025788,0.619745,1.464449,0.149245,1.247144,2.270530,0.117465,-5.559802,-18.449400,-3.122792,0.150138,-0.064063,0.000000,0.229868,-0.127886,-0.000000
0.410000,-2.511454,-1.603735,-1.459912,0.113593,0.292502,0.027286,0.631937,1.486230,0.150264,1.191156,2.085410,0.085976,-5.612137,-18.524733,-3.192079,0.152341,-0.065327,0.000000,0.210590,-0.121937,0.000000
0.420000,-2.510287,-1.600736,-1.459632,0.119972,0.307469,0.028793,0.643568,1.506157,0.150965,1.134901,1.900035,0.053623,-5.633991,-18.514210,-3.309762,0.154350,-0.066530,0.000000,0.191292,-0.115950,0.000000
0.430000,-2.509055,-1.597586,-1.459336,0.126465,0.322625,0.030305,0.654636,1.524231,0.151337,1.078476,1.715126,0.019781,-5.646738,-18.445534,-3.460074,0.156166,-0.067674,0.000000,0.172037,-0.109932,0.000000
0.440000,-2.507757,-1.594283,-1.459025,0.133065,0.337953,0.031820,0.665138,1.540459,0.151361,1.021966,1.531124,-0.015578,-5.643504,-18.338619,-3.583887,0.157791,-0.068756,0.000000,0.152870,-0.103892,0.000000
0.450000,-2.506393,-1.590827,-1.458700,0.139767,0.353434,0.033332,0.675075,1.554853,0.151025,0.965606,1.348353,-0.051897,-5.617595,-18.192201,-3.670346,0.159224,-0.069777,0.000000,0.133830,-0.097856,0.000000
0.460000,-2.504962,-1.587215,-1.458359,0.146566,0.369050,0.034840,0.684450,1.567426,0.150323,0.909614,1.167280,-0.088985,-5.576442,-17.998356,-3.758437,0.160467,-0.070738,0.000000,0.114968,-0.091851,-0.000000
0.470000,-2.503462,-1.583446,-1.458003,0.153456,0.384783,0.036339,0.693267,1.578199,0.149245,0.854077,0.988386,-0.127065,-5.533691,-17.764887,-3.871172,0.161523,-0.071638,0.000000,0.096329,-0.085882,0.000000
0.480000,-2.501893,-1.579519,-1.457632,0.160432,0.400614,0.037825,0.701531,1.587194,0.147781,0.798940,0.811983,-0.166409,-5.488886,-17.498901,-3.994513,0.162394,-0.072478,0.000000,0.077939,-0.079944,-0.000000
0.490000,-2.500253,-1.575433,-1.457246,0.167487,0.416527,0.039294,0.709246,1.594439,0.145917,0.744299,0.638408,-0.206956,-5.425971,-17.195013,-4.098275,0.163082,-0.073259,0.000000,0.059833,-0.074046,0.000000
0.500000,-2.498543,-1.571188,-1.456846,0.174617,0.432503,0.040743,0.716417,1.599962,0.143642,0.690421,0.468082,-0.248374,-5.341406,-16.850796,-4.181318,0.163591,-0.073979,0.000000,0.042058,-0.068218,0.000000
0.510000,-2.496761,-1.566783,-1.456432,0.181815,0.448526,0.042167,0.723054,1.603800,0.140950,0.637471,0.301392,-0.290582,-5.247711,-16.474863,-4.261731,0.163923,-0.074641,0.000000,0.024655,-0.062479,0.000000
0.520000,-2.494907,-1.562218,-1.456003,0.189078,0.464579,0.043562,0.729167,1.605990,0.137831,0.585467,0.138585,-0.333609,-5.155535,-16.081432,-4.337572,0.164084,-0.075246,0.000000,0.007648,-0.056830,-0.000000
0.530000,-2.492980,-1.557492,-1.455560,0.196399,0.480646,0.044924,0.734764,1.606572,0.134277,0.534360,-0.020237,-0.377333,-5.062192,-15.672181,-4.399927,0.164076,-0.075793,0.000000,-0.008950,-0.051268,-0.000000
0.540000,-2.490979,-1.552605,-1.455104,0.203773,0.496711,0.046248,0.739854,1.605585,0.130284,0.484223,-0.174859,-0.421607,-4.955840,-15.234099,-4.450725,0.163905,-0.076285,0.000000,-0.025115,-0.045802,-0.000000
0.550000,-2.488904,-1.547558,-1.454635,0.211196,0.512758,0.047530,0.744448,1.603075,0.125845,0.435244,-0.324919,-0.466348,-4.834455,-14.763160,-4.497478,0.163574,-0.076722,0.000000,-0.040809,-0.040452,0.000000
0.560000,-2.486755,-1.542350,-1.454154,0.218662,0.528772,0.048765,0.748559,1.599087,0.120957,0.387534,-0.470122,-0.511557,-4.707270,-14.272795,-4.536092,0.163089,-0.077105,0.000000,-0.056002,-0.035231,-0.000000
0.570000,-2.484531,-1.536982,-1.453660,0.226167,0.544739,0.049949,0.752199,1.593672,0.115614,0.341098,-0.610374,-0.557070,-4.581612,-13.781846,-4.543655,0.162454,-0.077436,0.000000,-0.070681,-0.030140,0.000000
0.580000,-2.482232,-1.531455,-1.453155,0.233706,0.560645,0.051077,0.755381,1.586880,0.109816,0.295902,-0.745759,-0.602430,-4.455565,-13.290463,-4.517795,0.161675,-0.077716,0.000000,-0.084845,-0.025181,-0.000000
0.590000,-2.479857,-1.525769,-1.452639,0.241274,0.576477,0.052145,0.758117,1.578757,0.103566,0.251987,-0.876184,-0.647426,-4.321291,-12.779148,-4.487739,0.160757,-0.077946,0.000000,-0.098482,-0.020359,0.000000
0.600000,-2.477406,-1.519926,-1.452112,0.248868,0.592221,0.053148,0.760420,1.569356,0.096867,0.209476,-1.001342,-0.692185,-4.177328,-12.241449,-4.466876,0.159706,-0.078129,0.000000,-0.111562,-0.015688,0.000000
0.610000,-2.474879,-1.513925,-1.451576,0.256483,0.607864,0.054082,0.762306,1.558730,0.089722,0.168440,-1.121013,-0.736763,-4.029953,-11.694869,-4.432992,0.158526,-0.078264,0.000000,-0.124063,-0.011173,0.000000
0.620000,-2.472276,-1.507768,-1.451030,0.264114,0.623395,0.054943,0.763789,1.546936,0.082132,0.128877,-1.235239,-0.780845,-3.884890,-11.163627,-4.350216,0.157225,-0.078355,0.000000,-0.135983,-0.006818,-0.000000
0.630000,-2.469597,-1.501457,-1.450477,0.271759,0.638803,0.055725,0.764884,1.534025,0.074105,0.090743,-1.344285,-0.823767,-3.741037,-10.646513,-4.222395,0.155807,-0.078402,0.000000,-0.147339,-0.002624,-0.000000
0.640000,-2.466841,-1.494992,-1.449916,0.279412,0.654076,0.056425,0.765604,1.520050,0.065656,0.054056,-1.448169,-0.865293,-3.592300,-10.116246,-4.095956,0.154278,-0.078408,0.000000,-0.158128,0.001404,0.000000
0.650000,-2.464009,-1.488375,-1.449348,0.287071,0.669204,0.057038,0.765965,1.505062,0.056799,0.018897,-1.546610,-0.905687,-3.437286,-9.563762,-3.986637,0.152644,-0.078374,0.000000,-0.168326,0.005261,0.000000
0.660000,-2.461100,-1.481608,-1.448775,0.294731,0.684177,0.057561,0.765982,1.489118,0.047543,-0.014690,-1.639445,-0.945025,-3.280945,-9.011356,-3.861559,0.150912,-0.078302,0.000000,-0.177917,0.008942,0.000000
0.670000,-2.458114,-1.474692,-1.448197,0.302390,0.698986,0.057989,0.765671,1.472273,0.037899,-0.046722,-1.726837,-0.982918,-3.128636,-8.488428,-3.681277,0.149086,-0.078193,0.000000,-0.186914,0.012445,-0.000000
0.680000,-2.455052,-1.467628,-1.447615,0.310045,0.713622,0.058319,0.765048,1.454581,0.027884,-0.077262,-1.809213,-1.018651,-2.979675,-7.991943,-3.454211,0.147173,-0.078050,0.000000,-0.195347,0.015773,-0.000000
0.690000,-2.451913,-1.460419,-1.447031,0.317691,0.728078,0.058547,0.764126,1.436089,0.017526,-0.106316,-1.886676,-1.052002,-2.828046,-7.487012,-3.231986,0.145179,-0.077874,0.000000,-0.203227,0.018922,0.000000
0.700000,-2.448698,-1.453067,-1.446444,0.325327,0.742344,0.058669,0.762921,1.416847,0.006844,-0.133823,-1.958953,-1.083291,-2.671977,-6.962600,-3.029222,0.143109,-0.077668,0.000000,-0.210530,0.021891,-0.000000
0.710000,-2.445407,-1.445573,-1.445857,0.332950,0.756415,0.058684,0.761449,1.396910,-0.004140,-0.159755,-2.025928,-1.112586,-2.516308,-6.445468,-2.810821,0.140969,-0.077432,0.000000,-0.217249,0.024677,-0.000000
0.720000,-2.442039,-1.437939,-1.445271,0.340556,0.770282,0.058587,0.759726,1.376329,-0.015407,-0.184150,-2.087863,-1.139507,-2.366927,-5.968168,-2.542413,0.138764,-0.077169,0.000000,-0.223406,0.027280,0.000000
0.730000,-2.438596,-1.430167,-1.444685,0.348144,0.783941,0.058375,0.757767,1.355153,-0.026930,-0.207094,-2.145291,-1.163435,-2.223098,-5.525627,-2.234666,0.136501,-0.076881,0.000000,-0.229048,0.029707,0.000000
0.740000,-2.435076,-1.422260,-1.444103,0.355712,0.797385,0.058048,0.755584,1.333423,-0.038676,-0.228612,-2.198375,-1.184200,-2.077902,-5.077960,-1.933260,0.134183,-0.076569,0.000000,-0.234191,0.031957,-0.000000
0.750000,-2.431481,-1.414219,-1.443525,0.363256,0.810610,0.057602,0.753194,1.311185,-0.050614,-0.248652,-2.246851,-1.202100,-1.929212,-4.613442,-1.649042,0.131817,-0.076236,0.000000,-0.238817,0.034031,0.000000
0.760000,-2.427811,-1.406048,-1.442951,0.370775,0.823609,0.057036,0.750611,1.288486,-0.062718,-0.267196,-2.290644,-1.217181,-1.782334,-4.161357,-1.352242,0.129407,-0.075883,0.000000,-0.242921,0.035925,0.000000
0.770000,-2.424066,-1.397747,-1.442384,0.378268,0.836379,0.056348,0.747850,1.265372,-0.074958,-0.284299,-2.330078,-1.229145,-1.643710,-3.753983,-1.019754,0.126959,-0.075512,0.000000,-0.246536,0.037645,-0.000000
0.780000,-2.420246,-1.389320,-1.441824,0.385732,0.848917,0.055536,0.744925,1.241885,-0.087301,-0.300070,-2.365724,-1.237576,-1.512365,-3.384508,-0.662064,0.124476,-0.075124,0.000000,-0.249717,0.039200,0.000000
0.790000,-2.416351,-1.380769,-1.441273,0.393167,0.861217,0.054602,0.741849,1.218058,-0.099710,-0.314546,-2.397768,-1.242386,-1.380432,-3.012569,-0.310821,0.121964,-0.074721,0.000000,-0.252485,0.040594,-0.000000
0.800000,-2.412382,-1.372096,-1.440732,0.400569,0.873278,0.053542,0.738634,1.193929,-0.112149,-0.327679,-2.425975,-1.243793,-1.245587,-2.627379,0.028360,0.119427,-0.074306,0.000000,-0.254823,0.041823,-0.000000
0.810000,-2.408340,-1.363303,-1.440202,0.407939,0.885096,0.052359,0.735295,1.169538,-0.124585,-0.339458,-2.450316,-1.241819,-1.113637,-2.257544,0.374731,0.116868,-0.073879,0.000000,-0.256734,0.042890,-0.000000
0.820000,-2.404224,-1.354394,-1.439685,0.415275,0.896669,0.051051,0.731845,1.144923,-0.136985,-0.349951,-2.471126,-1.236298,-0.991017,-1.931142,0.737136,0.114292,-0.073442,0.000000,-0.258252,0.043800,0.000000
0.830000,-2.400034,-1.345370,-1.439181,0.422576,0.907994,0.049619,0.728296,1.120116,-0.149311,-0.359278,-2.488938,-1.227076,-0.876406,-1.640499,1.107193,0.111703,-0.072997,0.000000,-0.259433,0.044565,-0.000000
0.840000,-2.395772,-1.336234,-1.438692,0.429841,0.919071,0.048064,0.724660,1.095144,-0.161527,-0.367479,-2.503936,-1.214154,-0.761812,-1.349942,1.471431,0.109103,-0.072545,0.000000,-0.260301,0.045191,0.000000
0.850000,-2.391438,-1.326988,-1.438220,0.437069,0.929897,0.046388,0.720947,1.070037,-0.173594,-0.374514,-2.515937,-1.197647,-0.645052,-1.051040,1.829727,0.106497,-0.072088,0.000000,-0.260841,0.045676,0.000000
0.860000,-2.387031,-1.317636,-1.437765,0.444260,0.940472,0.044592,0.717169,1.044825,-0.185480,-0.380380,-2.524957,-1.177560,-0.531792,-0.768274,2.188381,0.103886,-0.071627,0.000000,-0.261061,0.046020,0.000000
0.870000,-2.382552,-1.308179,-1.437328,0.451413,0.950794,0.042679,0.713339,1.019538,-0.197146,-0.385150,-2.531303,-1.153880,-0.427723,-0.522214,2.542199,0.101275,-0.071163,0.000000,-0.260995,0.046233,-0.000000
0.880000,-2.378003,-1.298620,-1.436911,0.458527,0.960862,0.040650,0.709466,0.994199,-0.208557,-0.388935,-2.535401,-1.126716,-0.331338,-0.305409,2.886161,0.098666,-0.070697,0.000000,-0.260690,0.046326,-0.000000
0.890000,-2.373382,-1.288962,-1.436515,0.465602,0.970678,0.038508,0.705560,0.968830,-0.219680,-0.391777,-2.537411,-1.096157,-0.235485,-0.091326,3.224901,0.096062,-0.070232,0.000000,-0.260167,0.046305,0.000000
0.900000,-2.368690,-1.279206,-1.436141,0.472638,0.980239,0.036256,0.701631,0.943451,-0.230480,-0.393645,-2.537228,-1.062218,-0.138549,0.125164,3.563184,0.093463,-0.069767,0.000000,-0.259419,0.046170,0.000000
0.910000,-2.363929,-1.269357,-1.435790,0.479635,0.989547,0.033898,0.697688,0.918085,-0.240924,-0.394548,-2.534908,-1.024893,-0.045432,0.326558,3.894911,0.090873,-0.069304,0.000000,-0.258455,0.045921,-0.000000
0.920000,-2.359098,-1.259416,-1.435463,0.486592,0.998601,0.031437,0.693740,0.892753,-0.250978,-0.394553,-2.530696,-0.984319,0.039869,0.501619,4.203169,0.088294,-0.068845,0.000000,-0.257305,0.045567,0.000000
0.930000,-2.354197,-1.249385,-1.435161,0.493510,1.007402,0.028878,0.689796,0.867471,-0.260611,-0.393750,-2.524875,-0.940830,0.118848,0.656504,4.486659,0.085727,-0.068389,0.000000,-0.256002,0.045119,0.000000
0.940000,-2.349228,-1.239267,-1.434885,0.500388,1.015950,0.026225,0.685865,0.842255,-0.269795,-0.392176,-2.517566,-0.894586,0.196612,0.806053,4.765316,0.083174,-0.067939,0.000000,-0.254563,0.044584,-0.000000
0.950000,-2.344189,-1.229066,-1.434637,0.507227,1.024247,0.023483,0.681953,0.817120,-0.278502,-0.389818,-2.508754,-0.845523,0.274046,0.951863,5.047404,0.080636,-0.067494,0.000000,-0.252988,0.043960,0.000000
0.960000,-2.339083,-1.218783,-1.434416,0.514027,1.032292,0.020655,0.678069,0.792080,-0.286705,-0.386695,-2.498529,-0.793638,0.347774,1.084893,5.316789,0.078114,-0.067057,0.000000,-0.251289,0.043250,-0.000000
0.970000,-2.333909,-1.208420,-1.434224,0.520788,1.040088,0.017748,0.674219,0.767149,-0.294375,-0.382863,-2.487056,-0.739187,0.415841,1.203186,5.548817,0.075610,-0.066627,0.000000,-0.249485,0.042461,0.000000
0.980000,-2.328667,-1.197981,-1.434061,0.527511,1.047635,0.014768,0.670411,0.742339,-0.301489,-0.378379,-2.474465,-0.682662,0.479431,1.310787,5.745601,0.073124,-0.066205,0.000000,-0.247596,0.041602,0.000000
0.990000,-2.323359,-1.187467,-1.433928,0.534196,1.054935,0.011719,0.666651,0.717660,-0.308028,-0.373274,-2.460841,-0.624275,0.541086,1.410773,5.937548,0.070658,-0.065792,0.000000,-0.245633,0.040678,0.000000
1.000000,-2.317983,-1.176882,-1.433826,0.540844,1.061989,0.008607,0.662946,0.693122,-0.313974,-0.367557,-2.446250,-0.563911,0.600932,1.501746,6.134904,0.068211,-0.065389,0.000000,-0.243603,0.039690,0.000000
1.010000,-2.312542,-1.166228,-1.433756,0.547455,1.068798,0.005439,0.659300,0.668735,-0.319307,-0.361255,-2.430806,-0.501577,0.657424,1.582853,6.315050,0.065785,-0.064997,0.000000,-0.241519,0.038640,-0.000000
1.020000,-2.307034,-1.155506,-1.433718,0.554030,1.075363,0.002221,0.655721,0.644506,-0.324006,-0.354408,-2.414593,-0.437610,0.710602,1.659586,6.449823,0.063381,-0.064615,0.000000,-0.239391,0.037533,-0.000000
1.030000,-2.301461,-1.144720,-1.433712,0.560570,1.081688,-0.001041,0.652212,0.620443,-0.328059,-0.347043,-2.397614,-0.372581,0.761183,1.733609,6.543992,0.060997,-0.064245,0.000000,-0.237225,0.036377,0.000000
1.040000,-2.295823,-1.133872,-1.433739,0.567075,1.087772,-0.004340,0.648780,0.596554,-0.331458,-0.339185,-2.379921,-0.306730,0.809159,1.798438,6.633111,0.058636,-0.063886,0.000000,-0.235027,0.035175,0.000000
1.050000,-2.290120,-1.122965,-1.433799,0.573545,1.093619,-0.007670,0.645428,0.572845,-0.334193,-0.330860,-2.361645,-0.239919,0.854031,1.850726,6.727910,0.056297,-0.063540,0.000000,-0.232809,0.033929,0.000000
1.060000,-2.284352,-1.112000,-1.433892,0.579983,1.099229,-0.011024,0.642163,0.549321,-0.336256,-0.322104,-2.342906,-0.172172,0.896006,1.896029,6.803089,0.053980,-0.063206,0.000000,-0.230584,0.032642,-0.000000
1.070000,-2.278520,-1.100980,-1.434019,0.586389,1.104605,-0.014395,0.638986,0.525987,-0.337637,-0.312940,-2.323725,-0.103857,0.936641,1.944273,6.830848,0.051685,-0.062886,0.000000,-0.228355,0.031317,-0.000000
1.080000,-2.272624,-1.089908,-1.434180,0.592763,1.109749,-0.017777,0.635904,0.502847,-0.338333,-0.303371,-2.304021,-0.035555,0.976138,1.994979,6.817607,0.049412,-0.062579,0.000000,-0.226117,0.029959,0.000000
1.090000,-2.266665,-1.078785,-1.434375,0.599107,1.114662,-0.021162,0.632919,0.479906,-0.338348,-0.293417,-2.283825,0.032495,1.012516,2.035898,6.799152,0.047162,-0.062286,0.000000,-0.223874,0.028570,0.000000
1.100000,-2.260642,-1.067615,-1.434603,0.605421,1.119347,-0.024544,0.630035,0.457170,-0.337683,-0.283121,-2.263303,0.100428,1.044946,2.062877,6.785482,0.044935,-0.062007,0.000000,-0.221639,0.027153,0.000000
1.110000,-2.254556,-1.056398,-1.434865,0.611707,1.123806,-0.027916,0.627257,0.434640,-0.336339,-0.272518,-2.242567,0.168205,1.074954,2.085110,6.751976,0.042730,-0.061742,0.000000,-0.219423,0.025712,0.000000
1.120000,-2.248408,-1.045139,-1.435161,0.617966,1.128040,-0.031271,0.624585,0.412319,-0.334319,-0.261622,-2.221601,0.235468,1.104733,2.113971,6.674248,0.040546,-0.061492,0.000000,-0.217226,0.024249,-0.000000
1.130000,-2.242197,-1.033838,-1.435491,0.624199,1.132052,-0.034602,0.622024,0.390208,-0.331630,-0.250424,-2.200288,0.301690,1.134012,2.147419,6.559429,0.038385,-0.061257,0.000000,-0.215036,0.022766,-0.000000
1.140000,-2.235924,-1.022498,-1.435853,0.630407,1.135844,-0.037903,0.619577,0.368313,-0.328285,-0.238942,-2.178652,0.366656,1.160005,2.171221,6.439552,0.036245,-0.061037,0.000000,-0.212855,0.021265,0.000000
1.150000,-2.229589,-1.011121,-1.436249,0.636591,1.139418,-0.041168,0.617245,0.346635,-0.324297,-0.227224,-2.156864,0.430481,1.181774,2.182074,6.322882,0.034128,-0.060831,0.000000,-0.210698,0.019749,-0.000000
1.160000,-2.223192,-0.999709,-1.436677,0.642752,1.142777,-0.044389,0.615032,0.325176,-0.319676,-0.215306,-2.135011,0.493114,1.201334,2.190105,6.188181,0.032031,-0.060641,0.000000,-0.208571,0.018223,0.000000
1.170000,-2.216734,-0.988265,-1.437137,0.648891,1.145922,-0.047561,0.612939,0.303935,-0.314435,-0.203197,-2.113062,0.554245,1.221053,2.203689,6.016679,0.029956,-0.060467,0.000000,-0.206472,0.016687,0.000000
1.180000,-2.210214,-0.976791,-1.437628,0.655011,1.148855,-0.050678,0.610968,0.282914,-0.308591,-0.190885,-2.090937,0.613448,1.240404,2.220025,5.815284,0.027902,-0.060308,0.000000,-0.204391,0.015143,0.000000
1.190000,-2.203634,-0.965288,-1.438150,0.661111,1.151580,-0.053733,0.609121,0.262116,-0.302166,-0.178389,-2.068661,0.670550,1.256431,2.228793,5.609389,0.025868,-0.060164,0.000000,-0.202329,0.013593,-0.000000
1.200000,-2.196992,-0.953759,-1.438703,0.667193,1.154098,-0.056721,0.607400,0.241541,-0.295180,-0.165757,-2.046361,0.725635,1.268420,2.227803,5.404976,0.023855,-0.060036,0.000000,-0.200297,0.012040,-0.000000
1.210000,-2.190290,-0.942206,-1.439285,0.673259,1.156411,-0.059637,0.605806,0.221189,-0.287653,-0.153021,-2.024105,0.778650,1.278318,2.224167,5.185971,0.021862,-0.059923,0.000000,-0.198299,0.010487,0.000000
1.220000,-2.183527,-0.930631,-1.439895,0.679309,1.158521,-0.062474,0.604340,0.201059,-0.279607,-0.140190,-2.001878,0.829355,1.287646,2.223506,4.940389,0.019889,-0.059826,0.000000,-0.196332,0.008937,0.000000
1.230000,-2.176704,-0.919036,-1.440534,0.685346,1.160432,-0.065229,0.603003,0.181152,-0.271066,-0.127268,-1.979635,0.877458,1.295748,2.223626,4.674281,0.017935,-0.059744,0.000000,-0.194389,0.007390,0.000000
1.240000,-2.169820,-0.907422,-1.441200,0.691369,1.162144,-0.067895,0.601795,0.161466,-0.262058,-0.114275,-1.957405,0.922840,1.300845,2.217522,4.404704,0.016001,-0.059678,0.000000,-0.192473,0.005850,0.000000
1.250000,-2.162876,-0.895793,-1.441892,0.697381,1.163661,-0.070470,0.600717,0.142003,-0.252609,-0.101251,-1.935284,0.965552,1.302897,2.204575,4.134996,0.014086,-0.059627,0.000000,-0.190589,0.004318,-0.000000
1.260000,-2.155872,-0.884149,-1.442609,0.703384,1.164985,-0.072948,0.599770,0.122761,-0.242747,-0.088217,-1.913314,1.005540,1.302976,2.189413,3.855255,0.012189,-0.059592,0.000000,-0.188740,0.002797,-0.000000
1.270000,-2.148809,-0.872493,-1.443351,0.709377,1.166116,-0.075325,0.598953,0.103737,-0.232498,-0.075191,-1.891496,1.042657,1.301121,2.173180,3.560765,0.010311,-0.059571,0.000000,-0.186924,0.001290,0.000000
1.280000,-2.141685,-0.860827,-1.444116,0.715363,1.167059,-0.077598,0.598266,0.084931,-0.221893,-0.062195,-1.869850,1.076756,1.296893,2.154064,3.256226,0.008451,-0.059566,0.000000,-0.185140,-0.000201,0.000000
1.290000,-2.134501,-0.849152,-1.444903,0.721342,1.167815,-0.079763,0.597709,0.066340,-0.210963,-0.049253,-1.848415,1.107781,1.290264,2.130847,2.949541,0.006608,-0.059575,0.000000,-0.183390,-0.001673,-0.000000
1.300000,-2.127258,-0.837470,-1.445711,0.727317,1.168386,-0.081817,0.597281,0.047963,-0.199738,-0.036390,-1.827233,1.135746,1.281543,2.105043,2.641308,0.004783,-0.059599,0.000000,-0.181675,-0.003124,0.000000
1.310000,-2.119955,-0.825784,-1.446539,0.733288,1.168774,-0.083757,0.596981,0.029795,-0.188248,-0.023622,-1.806314,1.160607,1.270658,2.077234,2.328153,0.002975,-0.059638,0.000000,-0.179996,-0.004552,-0.000000
1.320000,-2.112592,-0.814095,-1.447386,0.739256,1.168982,-0.085582,0.596808,0.011836,-0.176526,-0.010976,-1.785688,1.182309,1.256772,2.043163,2.012477,0.001183,-0.059690,0.000000,-0.178351,-0.005955,0.000000
1.330000,-2.105170,-0.802405,-1.448251,0.745224,1.169011,-0.087288,0.596761,-0.005918,-0.164602,0.001513,-1.765451,1.200857,1.239756,2.002138,1.697287,-0.000592,-0.059757,0.000000,-0.176750,-0.007328,-0.000000
1.340000,-2.097688,-0.790715,-1.449132,0.751192,1.168864,-0.088874,0.596839,-0.023473,-0.152509,0.013819,-1.745646,1.216255,1.220715,1.960084,1.381353,-0.002352,-0.059837,0.000000,-0.175193,-0.008670,0.000000
1.350000,-2.090146,-0.779027,-1.450028,0.757161,1.168542,-0.090338,0.597038,-0.040831,-0.140277,0.025927,-1.726249,1.228484,1.200475,1.919580,1.062770,-0.004096,-0.059930,0.000000,-0.173676,-0.009978,0.000000
1.360000,-2.082545,-0.767344,-1.450939,0.763132,1.168047,-0.091679,0.597357,-0.057998,-0.127939,0.037828,-1.707254,1.237511,1.178191,1.876432,0.744416,-0.005825,-0.060037,0.000000,-0.172198,-0.011251,0.000000
1.370000,-2.074883,-0.755666,-1.451862,0.769108,1.167382,-0.092897,0.597794,-0.074976,-0.115527,0.049491,-1.688720,1.243372,1.151644,1.824577,0.434880,-0.007540,-0.060155,0.000000,-0.170761,-0.012485,0.000000
1.380000,-2.067162,-0.743996,-1.452797,0.775088,1.166547,-0.093990,0.598347,-0.091772,-0.103071,0.060861,-1.670763,1.246208,1.120906,1.764998,0.135378,-0.009241,-0.060286,0.000000,-0.169375,-0.013677,0.000000
1.390000,-2.059382,-0.732335,-1.453742,0.781075,1.165546,-0.094958,0.599012,-0.108392,-0.090603,0.071909,-1.653420,1.246080,1.088978,1.705834,-0.163465,-0.010928,-0.060429,0.000000,-0.168043,-0.014823,0.000000
1.400000,-2.051541,-0.720685,-1.454696,0.787068,1.164380,-0.095802,0.599785,-0.124841,-0.078150,0.082641,-1.636646,1.242939,1.057185,1.650023,-0.465686,-0.012601,-0.060583,0.000000,-0.166758,-0.015922,-0.000000
1.410000,-2.043640,-0.709048,-1.455658,0.793070,1.163049,-0.096521,0.600664,-0.141124,-0.065744,0.093053,-1.620420,1.236766,1.023444,1.592067,-0.763002,-0.014263,-0.060747,0.000000,-0.165516,-0.016975,0.000000
1.420000,-2.035679,-0.697424,-1.456626,0.799082,1.161557,-0.097117,0.601646,-0.157249,-0.053415,0.103110,-1.604805,1.227679,0.984508,1.524991,-1.042015,-0.015912,-0.060922,0.000000,-0.164323,-0.017977,-0.000000
1.430000,-2.027659,-0.685817,-1.457600,0.805103,1.159904,-0.097590,0.602727,-0.173221,-0.041190,0.112743,-1.589920,1.215926,0.940978,1.450365,-1.303234,-0.017549,-0.061107,0.000000,-0.163188,-0.018923,-0.000000
1.440000,-2.019577,-0.674226,-1.458578,0.811136,1.158093,-0.097941,0.603901,-0.189047,-0.029096,0.121929,-1.575797,1.201614,0.897185,1.377699,-1.562479,-0.019175,-0.061301,0.000000,-0.162115,-0.019810,0.000000
1.450000,-2.011436,-0.662655,-1.459559,0.817181,1.156124,-0.098172,0.605165,-0.204736,-0.017158,0.130687,-1.562366,1.184676,0.853880,1.309781,-1.825476,-0.020791,-0.061503,0.000000,-0.161095,-0.020639,-0.000000
1.460000,-2.003234,-0.651104,-1.460542,0.823240,1.153998,-0.098284,0.606515,-0.220295,-0.005402,0.139007,-1.549602,1.165105,0.808269,1.240396,-2.079916,-0.022397,-0.061714,0.000000,-0.160123,-0.021410,0.000000
1.470000,-1.994971,-0.639575,-1.461525,0.829312,1.151718,-0.098280,0.607945,-0.235729,0.006144,0.146852,-1.537558,1.143078,0.759174,1.163553,-2.309024,-0.023994,-0.061932,0.000000,-0.159205,-0.022118,-0.000000
1.480000,-1.986648,-0.628069,-1.462507,0.835398,1.149283,-0.098161,0.609452,-0.251046,0.017459,0.154190,-1.526331,1.118924,0.707575,1.081385,-2.514854,-0.025581,-0.062156,0.000000,-0.158349,-0.022761,-0.000000
1.490000,-1.978263,-0.616589,-1.463488,0.841501,1.146697,-0.097930,0.611029,-0.266255,0.028523,0.161004,-1.515931,1.092781,0.654925,1.002185,-2.717946,-0.027161,-0.062387,0.000000,-0.157557,-0.023339,0.000000
1.500000,-1.969818,-0.605135,-1.464466,0.847619,1.143958,-0.097590,0.612672,-0.281364,0.039315,0.167289,-1.506287,1.064565,0.601785,0.927809,-2.924689,-0.028732,-0.062623,0.000000,-0.156821,-0.023850,0.000000
1.510000,-1.961311,-0.593710,-1.465440,0.853754,1.141069,-0.097144,0.614375,-0.296381,0.049814,0.173039,-1.497374,1.034287,0.547370,0.853130,-3.120011,-0.030297,-0.062864,0.000000,-0.156135,-0.024292,0.000000
1.520000,-1.952742,-0.582314,-1.466409,0.859907,1.138031,-0.096594,0.616133,-0.311312,0.060000,0.178236,-1.489224,1.002165,0.490179,0.774804,-3.286313,-0.031855,-0.063109,0.000000,-0.155505,-0.024665,0.000000
1.530000,-1.944113,-0.570949,-1.467372,0.866077,1.134843,-0.095944,0.617940,-0.326165,0.069857,0.182843,-1.481878,0.968561,0.430381,0.694936,-3.426931,-0.033407,-0.063358,0.000000,-0.154933,-0.024966,-0.000000
1.540000,-1.935421,-0.559617,-1.468327,0.872265,1.131507,-0.095197,0.619790,-0.340949,0.079372,0.186844,-1.475326,0.933626,0.370278,0.618441,-3.564043,-0.034954,-0.063609,0.000000,-0.154420,-0.025195,-0.000000
1.550000,-1.926667,-0.548319,-1.469275,0.878473,1.128024,-0.094357,0.621677,-0.355672,0.088530,0.190249,-1.469510,0.897280,0.311243,0.545842,-3.704071,-0.036495,-0.063862,0.000000,-0.153959,-0.025352,-0.000000
1.560000,-1.917851,-0.537057,-1.470215,0.884699,1.124394,-0.093426,0.623595,-0.370340,0.097317,0.193069,-1.464409,0.859545,0.251826,0.474496,-3.831274,-0.038033,-0.064116,0.000000,-0.153546,-0.025437,0.000000
1.570000,-1.908973,-0.525831,-1.471144,0.890945,1.120617,-0.092410,0.625538,-0.384960,0.105721,0.195285,-1.460020,0.820654,0.188885,0.404556,-3.929041,-0.039566,-0.064371,0.000000,-0.153182,-0.025449,-0.000000
1.580000,-1.900033,-0.514644,-1.472063,0.897210,1.116695,-0.091312,0.627500,-0.399540,0.113730,0.196846,-1.456318,0.780964,0.123057,0.337565,-4.001469,-0.041096,-0.064626,0.000000,-0.152866,-0.025386,-0.000000
1.590000,-1.891029,-0.503497,-1.472970,0.903495,1.112627,-0.090136,0.629475,-0.414086,0.121340,0.197746,-1.453268,0.740625,0.058815,0.273907,-4.069869,-0.042624,-0.064879,0.000000,-0.152594,-0.025247,0.000000
1.600000,-1.881963,-0.492392,-1.473866,0.909799,1.108413,-0.088885,0.631455,-0.428605,0.128543,0.198023,-1.450839,0.699567,-0.003769,0.212914,-4.139978,-0.044148,-0.065131,0.000000,-0.152362,-0.025036,0.000000
1.610000,-1.872833,-0.481329,-1.474748,0.916124,1.104054,-0.087565,0.633435,-0.443103,0.135331,0.197671,-1.449010,0.657826,-0.067397,0.155076,-4.197169,-0.045671,-0.065380,0.000000,-0.152169,-0.024752,-0.000000
1.620000,-1.863640,-0.470311,-1.475617,0.922468,1.099551,-0.086179,0.635409,-0.457586,0.141699,0.196675,-1.447738,0.615623,-0.130985,0.103395,-4.227439,-0.047191,-0.065626,0.000000,-0.152011,-0.024394,-0.000000
1.630000,-1.854384,-0.459338,-1.476472,0.928832,1.094903,-0.084731,0.637369,-0.472058,0.147644,0.195051,-1.446942,0.573277,-0.193251,0.058622,-4.235082,-0.048711,-0.065869,0.000000,-0.151880,-0.023968,0.000000
1.640000,-1.845064,-0.448413,-1.477311,0.935215,1.090110,-0.083226,0.639310,-0.486524,0.153165,0.192810,-1.446565,0.530922,-0.255582,0.017413,-4.238459,-0.050229,-0.066106,0.000000,-0.151772,-0.023473,-0.000000
1.650000,-1.835679,-0.437536,-1.478136,0.941618,1.085172,-0.081668,0.641225,-0.500989,0.158262,0.189939,-1.446594,0.488508,-0.318788,-0.022570,-4.242076,-0.051746,-0.066339,0.000000,-0.151685,-0.022910,0.000000
1.660000,-1.826231,-0.426709,-1.478945,0.948040,1.080090,-0.080060,0.643108,-0.515456,0.162935,0.186434,-1.447017,0.446080,-0.381573,-0.058281,-4.233787,-0.053263,-0.066565,0.000000,-0.151618,-0.022277,0.000000
1.670000,-1.816719,-0.415934,-1.479737,0.954480,1.074863,-0.078409,0.644954,-0.529930,0.167184,0.182308,-1.447759,0.403832,-0.441721,-0.082453,-4.203482,-0.054779,-0.066785,0.000000,-0.151565,-0.021578,-0.000000
1.680000,-1.807142,-0.405212,-1.480513,0.960939,1.069491,-0.076717,0.646755,-0.544412,0.171012,0.177599,-1.448666,0.362011,-0.499355,-0.095138,-4.155192,-0.056294,-0.066997,0.000000,-0.151512,-0.020818,-0.000000
1.690000,-1.797500,-0.394544,-1.481272,0.967415,1.063975,-0.074989,0.648506,-0.558903,0.174424,0.172321,-1.449662,0.320728,-0.557089,-0.105436,-4.102525,-0.057809,-0.067202,0.000000,-0.151450,-0.020000,-0.000000
1.700000,-1.787793,-0.383933,-1.482013,0.973909,1.058313,-0.073228,0.650201,-0.573405,0.177426,0.166458,-1.450775,0.279960,-0.615438,-0.116401,-4.048446,-0.059323,-0.067398,0.000000,-0.151385,-0.019122,-0.000000
1.710000,-1.778022,-0.373378,-1.482736,0.980419,1.052507,-0.071440,0.651835,-0.587918,0.180023,0.160012,-1.451990,0.239759,-0.672401,-0.121290,-3.984458,-0.060836,-0.067585,0.000000,-0.151314,-0.018184,0.000000
1.720000,-1.768185,-0.362882,-1.483442,0.986946,1.046555,-0.069628,0.653401,-0.602445,0.182221,0.153010,-1.453200,0.200271,-0.726459,-0.112055,-3.904889,-0.062349,-0.067762,0.000000,-0.151228,-0.017191,-0.000000
1.730000,-1.758283,-0.352447,-1.484129,0.993487,1.040458,-0.067796,0.654895,-0.616982,0.184029,0.145483,-1.454231,0.161661,-0.777999,-0.090153,-3.813051,-0.063861,-0.067929,0.000000,-0.151111,-0.016148,-0.000000
1.740000,-1.748315,-0.342073,-1.484797,1.000044,1.034215,-0.065947,0.656311,-0.631529,0.185455,0.137450,-1.455004,0.124010,-0.828674,-0.065673,-3.717019,-0.065371,-0.068086,0.000000,-0.150955,-0.015057,-0.000000
1.750000,-1.738282,-0.331763,-1.485448,1.006613,1.027827,-0.064087,0.657644,-0.646082,0.186509,0.128910,-1.455545,0.087321,-0.879251,-0.041654,-3.618016,-0.066880,-0.068231,0.000000,-0.150765,-0.013919,-0.000000
1.760000,-1.728183,-0.321517,-1.486079,1.013196,1.021294,-0.062217,0.658889,-0.660640,0.187201,0.119865,-1.455837,0.051650,-0.928405,-0.010930,-3.511548,-0.068386,-0.068365,0.000000,-0.150538,-0.012734,0.000000
1.770000,-1.718018,-0.311337,-1.486692,1.019791,1.014615,-0.060343,0.660041,-0.675199,0.187542,0.110341,-1.455763,0.017090,-0.973622,0.034440,-3.396525,-0.069891,-0.068487,0.000000,-0.150266,-0.011506,-0.000000
1.780000,-1.707787,-0.301224,-1.487286,1.026397,1.007790,-0.058466,0.661096,-0.689755,0.187543,0.100392,-1.455148,-0.016281,-1.015039,0.092753,-3.275297,-0.071392,-0.068596,0.000000,-0.149930,-0.010242,0.000000
1.790000,-1.697490,-0.291181,-1.487861,1.033013,1.000819,-0.056592,0.662049,-0.704302,0.187216,0.090041,-1.453908,-0.048416,-1.055834,0.153748,-3.150195,-0.072889,-0.068692,0.000000,-0.149524,-0.008945,-0.000000
1.800000,-1.687127,-0.281208,-1.488418,1.039638,0.993704,-0.054722,0.662897,-0.718834,0.186575,0.079276,-1.452073,-0.079285,-1.097062,0.213809,-3.020927,-0.074382,-0.068775,0.000000,-0.149052,-0.007613,0.000000
1.810000,-1.676697,-0.271307,-1.488956,1.046271,0.986443,-0.052860,0.663635,-0.733344,0.185631,0.068099,-1.449632,-0.108835,-1.136410,0.280058,-2.886983,-0.075870,-0.068845,0.000000,-0.148514,-0.006248,0.000000
1.820000,-1.666201,-0.261479,-1.489475,1.052911,0.979037,-0.051009,0.664259,-0.747826,0.184398,0.056547,-1.446472,-0.137024,-1.171091,0.361629,-2.751106,-0.077352,-0.068900,0.000000,-0.147899,-0.004855,0.000000
1.830000,-1.655639,-0.251726,-1.489976,1.059556,0.971486,-0.049172,0.664766,-0.762273,0.182890,0.044678,-1.442400,-0.163857,-1.201621,0.456588,-2.614539,-0.078828,-0.068942,0.000000,-0.147189,-0.003438,0.000000
1.840000,-1.645010,-0.242049,-1.490459,1.066206,0.963791,-0.047352,0.665152,-0.776674,0.181121,0.032515,-1.437340,-0.189315,-1.231570,0.552763,-2.474673,-0.080296,-0.068969,0.000000,-0.146378,-0.002003,0.000000
1.850000,-1.634315,-0.232450,-1.490923,1.072859,0.955953,-0.045550,0.665416,-0.791020,0.179104,0.020046,-1.431344,-0.213350,-1.261943,0.647006,-2.329995,-0.081756,-0.068982,0.000000,-0.145472,-0.000546,-0.000000
1.860000,-1.623553,-0.222930,-1.491370,1.079515,0.947971,-0.043769,0.665553,-0.805301,0.176854,0.007276,-1.424400,-0.235915,-1.290232,0.747439,-2.183336,-0.083206,-0.068980,0.000000,-0.144471,0.000929,0.000000
1.870000,-1.612725,-0.213491,-1.491798,1.086170,0.939847,-0.042013,0.665561,-0.819508,0.174385,-0.005758,-1.416396,-0.257017,-1.313966,0.860906,-2.040335,-0.084645,-0.068964,0.000000,-0.143365,0.002420,-0.000000
1.880000,-1.601830,-0.204133,-1.492210,1.092826,0.931581,-0.040282,0.665438,-0.833629,0.171713,-0.019003,-1.407182,-0.276722,-1.333837,0.984771,-1.901187,-0.086073,-0.068932,0.000000,-0.142140,0.003921,-0.000000
1.890000,-1.590868,-0.194859,-1.492604,1.099479,0.923174,-0.038578,0.665181,-0.847652,0.168851,-0.032435,-1.396700,-0.295041,-1.353030,1.109818,-1.759464,-0.087488,-0.068885,0.000000,-0.140791,0.005429,-0.000000
1.900000,-1.579840,-0.185670,-1.492981,1.106129,0.914628,-0.036905,0.664789,-0.861563,0.165813,-0.046064,-1.384985,-0.311911,-1.372365,1.233823,-1.612844,-0.088889,-0.068823,0.000000,-0.139322,0.006945,-0.000000
1.910000,-1.568746,-0.176567,-1.493342,1.112775,0.905943,-0.035262,0.664260,-0.875351,0.162613,-0.059882,-1.372024,-0.327297,-1.389670,1.362629,-1.466623,-0.090274,-0.068745,0.000000,-0.137735,0.008468,-0.000000
1.920000,-1.557585,-0.167551,-1.493687,1.119415,0.897121,-0.033652,0.663592,-0.889003,0.159267,-0.073857,-1.357733,-0.341244,-1.403046,1.500781,-1.328149,-0.091643,-0.068653,0.000000,-0.136021,0.009995,-0.000000
1.930000,-1.546357,-0.158624,-1.494015,1.126047,0.888163,-0.032077,0.662783,-0.902506,0.155788,-0.087943,-1.342008,-0.353860,-1.413181,1.646060,-1.196732,-0.092995,-0.068545,0.000000,-0.134170,0.011521,-0.000000
1.940000,-1.535064,-0.149788,-1.494328,1.132670,0.879071,-0.030537,0.661833,-0.915844,0.152189,-0.102121,-1.324812,-0.365178,-1.422538,1.792037,-1.063576,-0.094327,-0.068421,0.000000,-0.132179,0.013045,-0.000000
1.950000,-1.523704,-0.141043,-1.494626,1.139283,0.869846,-0.029033,0.660740,-0.929002,0.148484,-0.116394,-1.306167,-0.375132,-1.431672,1.937712,-0.926000,-0.095638,-0.068283,0.000000,-0.130052,0.014567,0.000000
1.960000,-1.512278,-0.132391,-1.494909,1.145885,0.860491,-0.027567,0.659505,-0.941967,0.144687,-0.130754,-1.286057,-0.383698,-1.439017,2.086810,-0.790743,-0.096928,-0.068129,0.000000,-0.127789,0.016086,-0.000000
1.970000,-1.500786,-0.123833,-1.495177,1.152474,0.851007,-0.026139,0.658125,-0.954723,0.140810,-0.145175,-1.264431,-0.390947,-1.443446,2.240338,-0.665631,-0.098194,-0.067959,0.000000,-0.125386,0.017599,-0.000000
1.980000,-1.489228,-0.115371,-1.495432,1.159048,0.841396,-0.024751,0.656601,-0.967256,0.136868,-0.159623,-1.241251,-0.397011,-1.445545,2.396452,-0.549308,-0.099435,-0.067775,0.000000,-0.122838,0.019104,0.000000
1.990000,-1.477605,-0.107005,-1.495672,1.165606,0.831662,-0.023402,0.654933,-0.979548,0.132870,-0.174085,-1.216502,-0.401933,-1.446795,2.553319,-0.432194,-0.100651,-0.067575,0.000000,-0.120144,0.020601,-0.000000
2.000000,-1.465916,-0.098738,-1.495900,1.172146,0.821805,-0.022093,0.653120,-0.991586,0.128829,-0.188559,-1.190184,-0.405655,-1.447340,2.711407,-0.311617,-0.101838,-0.067361,0.000000,-0.117305,0.022088,-0.000000
2.010000,-1.454162,-0.090569,-1.496114,1.178668,0.811830,-0.020825,0.651162,-1.003352,0.124757,-0.203032,-1.162274,-0.408165,-1.446339,2.871204,-0.194599,-0.102997,-0.067131,0.000000,-0.114322,0.023564,-0.000000
2.020000,-1.442343,-0.082501,-1.496316,1.185169,0.801738,-0.019598,0.649059,-1.014831,0.120666,-0.217486,-1.132760,-0.409547,-1.443664,3.030142,-0.088535,-0.104125,-0.066887,0.000000,-0.111191,0.025028,0.000000
2.030000,-1.430459,-0.074534,-1.496506,1.191649,0.791533,-0.018412,0.646812,-1.026007,0.116566,-0.231905,-1.101671,-0.409936,-1.439699,3.187353,0.008233,-0.105221,-0.066628,0.000000,-0.107917,0.026480,-0.000000
2.040000,-1.418510,-0.066670,-1.496684,1.198106,0.781218,-0.017267,0.644421,-1.036865,0.112467,-0.246280,-1.069013,-0.409382,-1.434739,3.345612,0.104888,-0.106283,-0.066354,0.000000,-0.104499,0.027919,0.000000
2.050000,-1.406497,-0.058910,-1.496851,1.204538,0.770796,-0.016163,0.641886,-1.047387,0.108379,-0.260600,-1.034759,-0.407838,-1.428744,3.505775,0.203822,-0.107311,-0.066067,0.000000,-0.100936,0.029344,-0.000000
2.060000,-1.394419,-0.051254,-1.497008,1.210943,0.760270,-0.015099,0.639209,-1.057560,0.104310,-0.274855,-0.998897,-0.405306,-1.421645,3.665274,0.298528,-0.108302,-0.065764,0.000000,-0.097228,0.030754,0.000000
2.070000,-1.382278,-0.043705,-1.497153,1.217322,0.749645,-0.014077,0.636389,-1.067365,0.100272,-0.289033,-0.961453,-0.401868,-1.413761,3.821059,0.382756,-0.109255,-0.065448,0.000000,-0.093377,0.032148,-0.000000
2.080000,-1.370073,-0.036261,-1.497289,1.223671,0.738923,-0.013094,0.633428,-1.076789,0.096273,-0.303130,-0.922476,-0.397650,-1.405405,3.973446,0.458240,-0.110169,-0.065117,0.000000,-0.089386,0.033528,0.000000
2.090000,-1.357804,-0.028926,-1.497415,1.229990,0.728109,-0.012151,0.630327,-1.085815,0.092319,-0.317141,-0.881984,-0.392703,-1.396291,4.125658,0.532858,-0.111043,-0.064773,0.000000,-0.085258,0.034893,0.000000
2.100000,-1.345473,-0.021699,-1.497532,1.236278,0.717207,-0.011248,0.627085,-1.094428,0.088419,-0.331056,-0.839963,-0.386993,-1.385030,4.277863,0.608460,-0.111875,-0.064415,0.000000,-0.080993,0.036242,0.000000
2.110000,-1.333079,-0.014582,-1.497640,1.242532,0.706220,-0.010383,0.623706,-1.102614,0.084580,-0.344842,-0.796427,-0.380534,-1.372029,4.427348,0.679638,-0.112663,-0.064044,0.000000,-0.076590,0.037572,-0.000000
2.120000,-1.320622,-0.007575,-1.497740,1.248752,0.695154,-0.009556,0.620189,-1.110357,0.080808,-0.358496,-0.751416,-0.373401,-1.361533,4.572899,0.741782,-0.113406,-0.063659,0.000000,-0.072055,0.038884,-0.000000
2.130000,-1.308104,-0.000679,-1.497831,1.254936,0.684013,-0.008767,0.616536,-1.117642,0.077112,-0.372073,-0.704969,-0.365698,-1.353820,4.715165,0.796481,-0.114104,-0.063261,0.000000,-0.067389,0.040183,-0.000000
2.140000,-1.295524,0.006105,-1.497915,1.261083,0.672802,-0.008014,0.612747,-1.124456,0.073494,-0.385573,-0.657113,-0.357471,-1.343132,4.854844,0.849679,-0.114754,-0.062850,0.000000,-0.062596,0.041471,-0.000000
2.150000,-1.282882,0.012777,-1.497992,1.267191,0.661524,-0.007297,0.608824,-1.130785,0.069962,-0.398935,-0.607872,-0.348704,-1.327531,4.990589,0.902657,-0.115356,-0.062426,0.000000,-0.057677,0.042742,-0.000000
2.160000,-1.270180,0.019336,-1.498061,1.273259,0.650186,-0.006614,0.604768,-1.136614,0.066520,-0.412123,-0.557301,-0.339418,-1.311062,5.121546,0.951440,-0.115908,-0.061990,0.000000,-0.052638,0.043992,0.000000
2.170000,-1.257417,0.025781,-1.498124,1.279286,0.638792,-0.005966,0.600582,-1.141931,0.063174,-0.425156,-0.505441,-0.329676,-1.298192,5.250401,0.993151,-0.116409,-0.061540,0.000000,-0.047482,0.045223,0.000000
2.180000,-1.244594,0.032112,-1.498180,1.285271,0.627347,-0.005351,0.596265,-1.146723,0.059927,-0.438087,-0.452293,-0.319555,-1.288333,5.378320,1.029164,-0.116858,-0.061079,0.000000,-0.042209,0.046442,0.000000
2.190000,-1.231712,0.038328,-1.498231,1.291211,0.615857,-0.004768,0.591820,-1.150977,0.056783,-0.450923,-0.397875,-0.309092,-1.275475,5.500508,1.063251,-0.117253,-0.060605,0.000000,-0.036818,0.047650,0.000000
2.200000,-1.218770,0.044429,-1.498276,1.297107,0.604328,-0.004215,0.587247,-1.154680,0.053745,-0.463597,-0.342283,-0.298290,-1.254185,5.607594,1.095906,-0.117594,-0.060119,0.000000,-0.031321,0.048840,0.000000
2.210000,-1.205769,0.050414,-1.498315,1.302956,0.592764,-0.003693,0.582548,-1.157822,0.050817,-0.476007,-0.285723,-0.287174,-1.228782,5.702947,1.124783,-0.117879,-0.059622,0.000000,-0.025735,0.050003,-0.000000
2.220000,-1.192711,0.056284,-1.498350,1.308758,0.581171,-0.003199,0.577727,-1.160395,0.048001,-0.488172,-0.228224,-0.275794,-1.213119,5.809525,1.149067,-0.118109,-0.059112,0.000000,-0.020065,0.051140,0.000000
2.230000,-1.179594,0.062038,-1.498379,1.314511,0.569556,-0.002733,0.572785,-1.162387,0.045301,-0.500269,-0.169533,-0.264193,-1.191339,5.897282,1.169635,-0.118281,-0.058592,0.000000,-0.014282,0.052271,-0.000000
2.240000,-1.166421,0.067675,-1.498404,1.320214,0.557923,-0.002293,0.567721,-1.163785,0.042718,-0.511999,-0.110278,-0.252401,-1.148331,5.941582,1.187687,-0.118394,-0.058059,0.000000,-0.008450,0.053364,0.000000
2.250000,-1.153190,0.073196,-1.498425,1.325865,0.546280,-0.001878,0.562545,-1.164592,0.040253,-0.523236,-0.050701,-0.240439,-1.190713,6.153999,1.203784,-0.118450,-0.057517,0.000000,-0.002591,0.054408,-0.000000
2.260000,-1.139903,0.078601,-1.498442,1.331465,0.534632,-0.001488,0.557257,-1.164799,0.037909,-0.535814,0.012802,-0.228326,-1.320091,6.533918,1.217317,-0.118446,-0.056964,0.000000,0.003657,0.055589,-0.000000
2.270000,-1.126561,0.083889,-1.498455,1.337010,0.522984,-0.001120,0.551828,-1.164336,0.035686,-0.549638,0.079977,-0.216093,-1.229140,6.471315,1.227073,-0.118377,-0.056397,0.000000,0.010269,0.056897,-0.000000
2.280000,-1.113163,0.089061,-1.498464,1.342501,0.511345,-0.000774,0.546264,-1.163200,0.033587,-0.560396,0.142228,-0.203784,-0.962225,6.053849,1.233455,-0.118241,-0.055818,0.000000,0.016383,0.057897,0.000000
2.290000,-1.099711,0.094116,-1.498470,1.347936,0.499720,-0.000449,0.540620,-1.161492,0.031611,-0.568882,0.201054,-0.191424,-0.931887,6.100159,1.238376,-0.118049,-0.055231,0.000000,0.022152,0.058668,-0.000000
2.300000,-1.086204,0.099055,-1.498473,1.353314,0.488115,-0.000142,0.534886,-1.159179,0.029758,-0.579034,0.264231,-0.179017,-0.777993,5.906416,1.241703,-0.117798,-0.054636,0.000000,0.028357,0.059610,-0.000000
2.310000,-1.072644,0.103878,-1.498473,1.358633,0.476537,0.000147,0.529040,-1.156207,0.028030,-0.584442,0.319183,-0.166590,-0.256800,4.987933,1.242427,-0.117482,-0.054031,0.000000,0.033736,0.060074,0.000000
2.320000,-1.059032,0.108586,-1.498470,1.363894,0.464991,0.000419,0.523197,-1.152795,0.026427,-0.584170,0.363990,-0.154168,-0.504548,5.567065,1.241784,-0.117123,-0.053426,0.000000,0.038098,0.059966,-0.000000
2.330000,-1.045367,0.113178,-1.498465,1.369097,0.453481,0.000675,0.517356,-1.148927,0.024947,-0.594533,0.430524,-0.141754,-1.561513,7.718798,1.240530,-0.116720,-0.052823,0.000000,0.044641,0.060936,0.000000
2.340000,-1.031650,0.117655,-1.498457,1.374242,0.442012,0.000918,0.511307,-1.144185,0.023592,-0.615400,0.518366,-0.129358,-1.857327,8.372674,1.237158,-0.116230,-0.052199,0.000000,0.053325,0.062973,-0.000000
2.350000,-1.017882,0.122018,-1.498446,1.379324,0.430597,0.001147,0.505048,-1.138560,0.022360,-0.631679,0.597977,-0.117011,-1.853886,8.480207,1.230346,-0.115653,-0.051555,0.000000,0.061187,0.064548,0.000000
2.360000,-1.004063,0.126267,-1.498434,1.384342,0.419241,0.001365,0.498673,-1.132225,0.021251,-0.652478,0.687970,-0.104751,-2.557114,10.004647,1.221459,-0.115006,-0.050900,0.000000,0.070097,0.066584,-0.000000
2.370000,-0.990195,0.130403,-1.498419,1.389297,0.407953,0.001572,0.491999,-1.124801,0.020265,-0.682822,0.798070,-0.092582,-2.222432,9.395543,1.214299,-0.114251,-0.050214,0.000000,0.081033,0.069590,-0.000000
2.380000,-0.976277,0.134426,-1.498402,1.394182,0.396745,0.001770,0.485017,-1.116264,0.019400,-0.696927,0.875881,-0.080465,-0.464425,5.916158,1.208391,-0.113386,-0.049499,0.000000,0.088734,0.070957,-0.000000
2.390000,-0.962311,0.138338,-1.498384,1.398997,0.385627,0.001960,0.478060,-1.107283,0.018656,-0.692110,0.916394,-0.068414,0.236219,4.605161,1.198951,-0.112477,-0.048786,0.000000,0.092697,0.070410,-0.000000
2.400000,-0.948297,0.142139,-1.498363,1.403744,0.374600,0.002143,0.471175,-1.097936,0.018031,-0.692202,0.967984,-0.056486,-0.135462,5.364789,1.187782,-0.111532,-0.048081,0.000000,0.097779,0.070365,0.000000
2.410000,-0.934236,0.145830,-1.498341,1.408421,0.363669,0.002321,0.464216,-1.087923,0.017526,-0.694819,1.023689,-0.044658,0.083860,4.828955,1.178116,-0.110521,-0.047370,0.000000,0.103282,0.070578,0.000000
2.420000,-0.920129,0.149412,-1.498317,1.413028,0.352841,0.002494,0.457278,-1.077462,0.017138,-0.690525,1.064563,-0.032923,0.210711,4.744901,1.164257,-0.109466,-0.046661,0.000000,0.107301,0.070094,-0.000000
2.430000,-0.905976,0.152887,-1.498291,1.417566,0.342119,0.002663,0.450406,-1.066632,0.016867,-0.690605,1.118587,-0.021373,-0.463860,6.515586,1.145734,-0.108375,-0.045960,0.000000,0.112652,0.070057,0.000000
2.440000,-0.891778,0.156255,-1.498264,1.422036,0.331508,0.002831,0.443466,-1.055090,0.016711,-0.699802,1.194875,-0.010009,-0.842372,7.428213,1.130743,-0.107213,-0.045252,0.000000,0.120254,0.070948,0.000000
2.450000,-0.877535,0.159517,-1.498234,1.426436,0.321017,0.002998,0.436410,-1.042735,0.016667,-0.707453,1.267152,0.001242,-0.105020,6.101374,1.114886,-0.105970,-0.044532,0.000000,0.127464,0.071685,0.000000
2.460000,-0.863249,0.162675,-1.498204,1.430764,0.310654,0.003164,0.429317,-1.029747,0.016736,-0.701903,1.316902,0.012289,0.922874,4.508987,1.093214,-0.104664,-0.043810,0.000000,0.132419,0.071088,0.000000
2.470000,-0.848920,0.165730,-1.498171,1.435022,0.300423,0.003332,0.422372,-1.016396,0.016913,-0.688995,1.357331,0.023106,0.347213,5.568284,1.081138,-0.103322,-0.043103,0.000000,0.136447,0.069749,0.000000
2.480000,-0.834548,0.168683,-1.498137,1.439212,0.290326,0.003503,0.415537,-1.002600,0.017198,-0.694958,1.428268,0.033912,-1.436790,8.414288,1.080061,-0.101935,-0.042407,0.000000,0.143555,0.070325,-0.000000
2.490000,-0.820136,0.171536,-1.498101,1.443333,0.280371,0.003676,0.408472,-0.987831,0.017591,-0.717731,1.525617,0.044707,-1.924100,9.249882,1.068730,-0.100450,-0.041689,0.000000,0.153336,0.072609,0.000000
2.500000,-0.805682,0.174291,-1.498063,1.447381,0.270569,0.003854,0.401182,-0.972088,0.018092,-0.733440,1.613266,0.055286,-2.133945,9.727577,1.052405,-0.098868,-0.040948,0.000000,0.162158,0.074182,-0.000000
2.510000,-0.791188,0.176948,-1.498024,1.451356,0.260929,0.004038,0.393804,-0.955566,0.018697,-0.760410,1.720169,0.065755,-3.629806,12.196611,1.044977,-0.097207,-0.040198,0.000000,0.172939,0.076902,0.000000
2.520000,-0.776655,0.179509,-1.497983,1.455257,0.251458,0.004228,0.385974,-0.937685,0.019407,-0.806037,1.857198,0.076186,-2.970739,11.220461,1.025833,-0.095409,-0.039403,0.000000,0.186781,0.081521,-0.000000
2.530000,-0.762083,0.181977,-1.497939,1.459076,0.242175,0.004426,0.377683,-0.918422,0.020221,-0.819825,1.944578,0.086272,0.425095,5.912394,0.990171,-0.093471,-0.038560,0.000000,0.195639,0.082915,0.000000
2.540000,-0.747473,0.184353,-1.497894,1.462811,0.233089,0.004633,0.369578,-0.898793,0.021133,-0.797535,1.975446,0.095989,1.713054,3.913039,0.967585,-0.091496,-0.037737,0.000000,0.198808,0.080649,0.000000
2.550000,-0.732827,0.186639,-1.497847,1.466467,0.224199,0.004849,0.361732,-0.878913,0.022141,-0.785564,2.022839,0.105624,1.111966,4.926096,0.955906,-0.089495,-0.036940,0.000000,0.203654,0.079432,0.000000
2.560000,-0.718144,0.188837,-1.497797,1.470046,0.215511,0.005076,0.353866,-0.858336,0.023245,-0.775295,2.073968,0.115107,1.847767,3.857993,0.935602,-0.087423,-0.036142,0.000000,0.208892,0.078390,0.000000
2.570000,-0.703426,0.190949,-1.497745,1.473545,0.207032,0.005314,0.346226,-0.837434,0.024443,-0.748608,2.099999,0.124336,1.936830,3.672652,0.922112,-0.085317,-0.035367,0.000000,0.211603,0.075680,0.000000
2.580000,-0.688673,0.192977,-1.497691,1.476970,0.198762,0.005564,0.338894,-0.816336,0.025732,-0.736559,2.147421,0.133550,0.134138,6.310176,0.923710,-0.083191,-0.034623,0.000000,0.216486,0.074459,0.000000
2.590000,-0.673886,0.194924,-1.497634,1.480323,0.190706,0.005828,0.331495,-0.794485,0.027114,-0.745926,2.226202,0.142810,-0.556972,7.262959,0.917499,-0.080988,-0.033872,0.000000,0.224558,0.075418,0.000000
2.600000,-0.659066,0.196792,-1.497574,1.483600,0.182873,0.006107,0.323976,-0.771812,0.028588,-0.747698,2.292680,0.151900,0.438805,5.777573,0.895661,-0.078700,-0.033109,0.000000,0.231401,0.075608,0.000000
2.610000,-0.644214,0.198582,-1.497512,1.486802,0.175269,0.006400,0.316541,-0.748632,0.030152,-0.737149,2.341754,0.160723,1.023705,4.997322,0.874451,-0.076360,-0.032355,0.000000,0.236495,0.074546,-0.000000
2.620000,-0.629330,0.200297,-1.497446,1.489931,0.167900,0.006710,0.309233,-0.724977,0.031802,-0.727224,2.392626,0.169389,0.651261,5.396303,0.868783,-0.073970,-0.031614,0.000000,0.241783,0.073549,-0.000000
2.630000,-0.614416,0.201940,-1.497378,1.492987,0.160770,0.007036,0.301997,-0.700779,0.033539,-0.724124,2.449680,0.178099,0.094485,5.874828,0.872981,-0.071524,-0.030880,0.000000,0.247710,0.073248,-0.000000
2.640000,-0.599471,0.203512,-1.497306,1.495971,0.153885,0.007381,0.294750,-0.675984,0.035364,-0.725334,2.510123,0.186848,-0.088811,6.059836,0.867973,-0.069016,-0.030145,0.000000,0.253995,0.073387,-0.000000
2.650000,-0.584496,0.205017,-1.497230,1.498882,0.147250,0.007744,0.287490,-0.650577,0.037276,-0.725900,2.570876,0.195458,-0.299710,6.095223,0.855912,-0.066444,-0.029409,0.000000,0.260325,0.073464,0.000000
2.660000,-0.569493,0.206457,-1.497151,1.501721,0.140873,0.008126,0.280232,-0.624566,0.039274,-0.731329,2.632027,0.203967,-0.845563,6.173666,0.848963,-0.063809,-0.028673,0.000000,0.266709,0.074038,-0.000000
2.670000,-0.554462,0.207835,-1.497067,1.504487,0.134759,0.008529,0.272863,-0.597936,0.041356,-0.742812,2.694350,0.212438,-0.704637,6.194791,0.838262,-0.061110,-0.027925,0.000000,0.273226,0.075233,0.000000
2.680000,-0.539403,0.209153,-1.496980,1.507178,0.128914,0.008953,0.265376,-0.570679,0.043522,-0.745421,2.755923,0.220732,0.279245,5.978717,0.818928,-0.058345,-0.027165,0.000000,0.279683,0.075526,-0.000000
2.690000,-0.524318,0.210413,-1.496888,1.509794,0.123345,0.009399,0.257955,-0.542818,0.045770,-0.737227,2.813924,0.228816,0.683509,5.679683,0.803974,-0.055516,-0.026412,0.000000,0.285792,0.074716,-0.000000
2.700000,-0.509207,0.211619,-1.496792,1.512337,0.118058,0.009869,0.250632,-0.514401,0.048099,-0.731751,2.869517,0.236811,0.333467,6.020004,0.795545,-0.052629,-0.025669,0.000000,0.291666,0.074185,-0.000000
2.710000,-0.494072,0.212774,-1.496691,1.514807,0.113057,0.010361,0.243320,-0.485427,0.050507,-0.730557,2.934324,0.244727,0.200633,6.819842,0.784375,-0.049683,-0.024926,0.000000,0.298493,0.074093,-0.000000
2.720000,-0.478911,0.213881,-1.496585,1.517203,0.108349,0.010879,0.236020,-0.455714,0.052993,-0.727739,3.005914,0.252499,0.426500,6.024327,0.768525,-0.046659,-0.024185,0.000000,0.306028,0.073837,-0.000000
2.730000,-0.463727,0.214941,-1.496473,1.519527,0.103943,0.011421,0.228765,-0.425309,0.055557,-0.722027,3.054811,0.260098,0.652024,3.679770,0.751464,-0.043562,-0.023448,0.000000,0.311256,0.073285,0.000000
2.740000,-0.448521,0.215959,-1.496356,1.521779,0.099843,0.011990,0.221580,-0.394618,0.058195,-0.714698,3.079509,0.267528,0.767188,2.587479,0.734688,-0.040434,-0.022718,0.000000,0.314017,0.072569,-0.000000
2.750000,-0.433292,0.216938,-1.496234,1.523959,0.096051,0.012585,0.214471,-0.363719,0.060907,-0.706684,3.106560,0.274791,0.938773,2.572511,0.714954,-0.037282,-0.021996,0.000000,0.317023,0.071782,-0.000000
2.760000,-0.418042,0.217880,-1.496105,1.526068,0.092569,0.013208,0.207446,-0.332487,0.063691,-0.695923,3.130959,0.281827,1.209104,1.792780,0.691464,-0.034093,-0.021281,0.000000,0.319763,0.070715,-0.000000
2.770000,-0.402771,0.218790,-1.495969,1.528108,0.089401,0.013859,0.200553,-0.301100,0.066544,-0.682502,3.142416,0.288621,1.187126,1.407023,0.672360,-0.030886,-0.020580,0.000000,0.321181,0.069375,-0.000000
2.780000,-0.387479,0.219669,-1.495828,1.530079,0.086547,0.014539,0.193796,-0.269639,0.069463,-0.672180,3.159100,0.295274,0.812132,2.198261,0.658550,-0.027670,-0.019893,0.000000,0.323137,0.068352,0.000000
2.790000,-0.372169,0.220520,-1.495679,1.531984,0.084008,0.015248,0.187109,-0.237918,0.072449,-0.666259,3.186381,0.301792,0.624534,2.412246,0.638360,-0.024424,-0.019213,0.000000,0.326182,0.067781,0.000000
2.800000,-0.356840,0.221349,-1.495523,1.533821,0.081789,0.015988,0.180471,-0.205911,0.075499,-0.659689,3.207345,0.308042,0.871761,1.248082,0.607038,-0.021146,-0.018537,0.000000,0.328583,0.067143,0.000000
2.810000,-0.341493,0.222156,-1.495359,1.535593,0.079890,0.016758,0.173915,-0.173771,0.078610,-0.648824,3.211343,0.313932,1.168829,-0.024020,0.572505,-0.017852,-0.017870,0.000000,0.329244,0.066065,0.000000
2.820000,-0.326128,0.222946,-1.495187,1.537300,0.078313,0.017560,0.167494,-0.141684,0.081778,-0.636313,3.206864,0.319492,0.927247,0.273854,0.545076,-0.014561,-0.017216,0.000000,0.329032,0.064817,0.000000
2.830000,-0.310747,0.223723,-1.495008,1.538943,0.077056,0.018394,0.161189,-0.109633,0.085000,-0.630279,3.216820,0.324834,0.315317,1.626500,0.520912,-0.011271,-0.016573,0.000000,0.330302,0.064235,-0.000000
2.840000,-0.295349,0.224488,-1.494820,1.540523,0.076120,0.019260,0.154889,-0.077348,0.088274,-0.630006,3.239394,0.329910,0.101750,1.860708,0.486252,-0.007955,-0.015931,0.000000,0.332870,0.064245,0.000000
2.850000,-0.279936,0.225245,-1.494623,1.542041,0.075509,0.020159,0.148589,-0.044846,0.091598,-0.628244,3.254034,0.334559,-0.034566,1.742516,0.448213,-0.004614,-0.015288,0.000000,0.334623,0.064103,0.000000
2.860000,-0.264508,0.225998,-1.494416,1.543495,0.075224,0.021092,0.142324,-0.012267,0.094966,-0.630698,3.274245,0.338874,-0.569705,2.632684,0.414857,-0.001263,-0.014649,0.000000,0.336947,0.064395,0.000000
2.870000,-0.249066,0.226749,-1.494201,1.544887,0.075264,0.022059,0.135975,0.020639,0.098376,-0.639638,3.306688,0.342856,-0.438215,1.963182,0.362607,0.002125,-0.014000,0.000000,0.340530,0.065356,-0.000000
2.880000,-0.233611,0.227503,-1.493975,1.546215,0.075636,0.023060,0.129531,0.053867,0.101823,-0.639462,3.313508,0.346126,0.537875,-0.778883,0.287791,0.005548,-0.013342,0.000000,0.341473,0.065380,0.000000
2.890000,-0.218142,0.228262,-1.493740,1.547478,0.076341,0.024095,0.123186,0.086909,0.105298,-0.628880,3.291110,0.348612,0.861810,-1.965156,0.223023,0.008954,-0.012693,0.000000,0.339400,0.064333,0.000000
2.900000,-0.202661,0.229030,-1.493493,1.548678,0.077375,0.025166,0.116954,0.119689,0.108795,-0.622226,3.274205,0.350587,0.607428,-1.696923,0.169226,0.012336,-0.012055,0.000000,0.337884,0.063689,0.000000
2.910000,-0.187168,0.229810,-1.493236,1.549817,0.078735,0.026271,0.110741,0.152394,0.112310,-0.616732,3.257171,0.351996,0.772626,-2.402348,0.104232,0.015712,-0.011419,0.000000,0.336348,0.063165,-0.000000
2.920000,-0.171665,0.230605,-1.492968,1.550893,0.080422,0.027412,0.104619,0.184832,0.115835,-0.606773,3.226158,0.352671,0.732030,-2.762922,0.033513,0.019063,-0.010792,0.000000,0.333360,0.062180,0.000000
2.930000,-0.156150,0.231418,-1.492688,1.551909,0.082432,0.028588,0.098606,0.216917,0.119363,-0.602091,3.201913,0.352667,0.115670,-1.881352,-0.035478,0.022379,-0.010175,0.000000,0.331059,0.061739,0.000000
2.940000,-0.140626,0.232253,-1.492396,1.552865,0.084761,0.029799,0.092577,0.248871,0.122888,-0.604460,3.188531,0.351962,-0.132389,-1.775104,-0.112316,0.025684,-0.009556,0.000000,0.329868,0.062025,-0.000000
2.950000,-0.125093,0.233113,-1.492092,1.553761,0.087409,0.031045,0.086517,0.280687,0.126402,-0.604739,3.166411,0.350420,0.064223,-2.632882,-0.195579,0.028977,-0.008934,0.000000,0.327764,0.062095,0.000000
2.960000,-0.109551,0.234001,-1.491775,1.554596,0.090374,0.032327,0.080482,0.312199,0.129897,-0.603175,3.135873,0.348050,0.056279,-3.059814,-0.278839,0.032239,-0.008314,0.000000,0.324778,0.061975,-0.000000
2.970000,-0.094001,0.234921,-1.491445,1.555370,0.093653,0.033643,0.074453,0.343405,0.133363,-0.603613,3.105215,0.344844,-0.026181,-3.295817,-0.371627,0.035472,-0.007694,0.000000,0.321765,0.062061,0.000000
2.980000,-0.078444,0.235874,-1.491102,1.556085,0.097243,0.034994,0.068410,0.374303,0.136794,-0.603699,3.069957,0.340618,0.051507,-3.840841,-0.477004,0.038675,-0.007072,0.000000,0.318262,0.062111,-0.000000
2.990000,-0.062880,0.236866,-1.490746,1.556739,0.101139,0.036379,0.062379,0.404804,0.140176,-0.602583,3.028398,0.335304,0.052616,-4.237399,-0.581172,0.041837,-0.006451,0.000000,0.314092,0.062035,0.000000
3.000000,-0.047309,0.237897,-1.490375,1.557332,0.105339,0.037798,0.056358,0.434871,0.143500,-0.602647,2.985209,0.328994,-0.075004,-4.384363,-0.679565,0.044956,-0.005830,0.000000,0.309735,0.062081,0.000000
3.010000,-0.031733,0.238972,-1.489990,1.557866,0.109837,0.039249,0.050326,0.464508,0.146756,-0.604083,2.940711,0.321712,-0.161155,-4.609968,-0.781795,0.048032,-0.005208,0.000000,0.305226,0.062267,-0.000000
3.020000,-0.016152,0.240094,-1.489590,1.558339,0.114629,0.040733,0.044277,0.493685,0.149934,-0.605870,2.893010,0.313358,-0.196866,-4.908933,-0.896905,0.051061,-0.004583,0.000000,0.300366,0.062487,-0.000000
3.030000,-0.000566,0.241265,-1.489175,1.558751,0.119710,0.042248,0.038209,0.522368,0.153023,-0.608021,2.842532,0.303774,-0.241772,-5.163988,-1.022117,0.054039,-0.003957,0.000000,0.295199,0.062745,-0.000000
3.040000,0.015023,0.242488,-1.488745,1.559103,0.125076,0.043793,0.032116,0.550536,0.156009,-0.610705,2.789730,0.292916,-0.291641,-5.412269,-1.145474,0.056965,-0.003327,0.000000,0.289770,0.063055,-0.000000
3.050000,0.030616,0.243767,-1.488299,1.559394,0.130721,0.045368,0.025995,0.578163,0.158881,-0.613854,2.734286,0.280865,-0.336649,-5.674764,-1.263150,0.059835,-0.002693,0.000000,0.284046,0.063412,0.000000
3.060000,0.046211,0.245103,-1.487837,1.559623,0.136639,0.046971,0.019839,0.605222,0.161627,-0.617438,2.676235,0.267653,-0.381695,-5.920945,-1.383059,0.062646,-0.002056,0.000000,0.278031,0.063811,-0.000000
3.070000,0.061808,0.246499,-1.487360,1.559790,0.142825,0.048601,0.013646,0.631688,0.164234,-0.621487,2.615868,0.253204,-0.429705,-6.142963,-1.514237,0.065395,-0.001415,0.000000,0.271753,0.064256,-0.000000
3.080000,0.077407,0.247959,-1.486865,1.559896,0.149273,0.050256,0.007410,0.657539,0.166691,-0.626032,2.553375,0.237368,-0.478753,-6.350365,-1.654269,0.068081,-0.000768,0.000000,0.265231,0.064750,-0.000000
3.090000,0.093006,0.249485,-1.486355,1.559939,0.155976,0.051934,0.001125,0.682755,0.168982,-0.631062,2.488860,0.220118,-0.525037,-6.550016,-1.790721,0.070700,-0.000117,0.000000,0.258474,0.065290,0.000000
3.100000,0.108606,0.251079,-1.485827,1.559918,0.162928,0.053635,-0.005212,0.707316,0.171093,-0.636533,2.422375,0.201554,-0.568333,-6.744284,-1.919882,0.073250,0.000541,0.000000,0.251490,0.065872,0.000000
3.110000,0.124205,0.252743,-1.485282,1.559834,0.170123,0.055356,-0.011605,0.731203,0.173013,-0.642429,2.353975,0.181720,-0.610906,-6.927873,-2.049732,0.075729,0.001204,0.000000,0.244283,0.066494,0.000000
3.120000,0.139802,0.254481,-1.484720,1.559686,0.177552,0.057096,-0.018060,0.754396,0.174728,-0.648751,2.283818,0.160559,-0.652837,-7.089513,-2.188100,0.078136,0.001874,0.000000,0.236869,0.067156,0.000000
3.130000,0.155398,0.256294,-1.484140,1.559473,0.185211,0.058851,-0.024580,0.776879,0.176224,-0.655486,2.212184,0.137958,-0.693108,-7.229508,-2.332193,0.080467,0.002551,0.000000,0.229277,0.067856,-0.000000
3.140000,0.170992,0.258185,-1.483543,1.559195,0.193090,0.060620,-0.031170,0.798639,0.177487,-0.662613,2.139228,0.113915,-0.731455,-7.362244,-2.470943,0.082721,0.003236,0.000000,0.221522,0.068591,-0.000000
3.150000,0.186582,0.260156,-1.482928,1.558850,0.201183,0.062401,-0.037833,0.819664,0.178502,-0.670115,2.064939,0.088540,-0.768113,-7.493132,-2.601543,0.084897,0.003928,0.000000,0.213605,0.069360,-0.000000
3.160000,0.202169,0.262209,-1.482295,1.558438,0.209483,0.064190,-0.044572,0.839938,0.179257,-0.677976,1.989365,0.061885,-0.802970,-7.611647,-2.730746,0.086993,0.004628,0.000000,0.205530,0.070159,0.000000
3.170000,0.217751,0.264346,-1.481644,1.557958,0.217982,0.065986,-0.051392,0.859451,0.179740,-0.686174,1.912707,0.033925,-0.835093,-7.703664,-2.863630,0.089008,0.005336,0.000000,0.197320,0.070987,-0.000000
3.180000,0.233328,0.266569,-1.480975,1.557410,0.226672,0.067785,-0.058296,0.878192,0.179936,-0.694678,1.835292,0.004612,-0.864262,-7.771370,-2.997387,0.090940,0.006053,0.000000,0.189008,0.071839,0.000000
3.190000,0.248899,0.268879,-1.480288,1.556792,0.235546,0.069584,-0.065286,0.896157,0.179832,-0.703460,1.757279,-0.026023,-0.891381,-7.833053,-3.124407,0.092788,0.006779,0.000000,0.180611,0.072712,-0.000000
3.200000,0.264464,0.271280,-1.479583,1.556104,0.244595,0.071382,-0.072365,0.913338,0.179416,-0.712505,1.678631,-0.057876,-0.916554,-7.895257,-3.243395,0.094552,0.007514,0.000000,0.172126,0.073604,-0.000000
3.210000,0.280021,0.273771,-1.478860,1.555345,0.253813,0.073173,-0.079536,0.929729,0.178675,-0.721791,1.599374,-0.090891,-0.938916,-7.945167,-3.358503,0.096230,0.008258,0.000000,0.163559,0.074513,-0.000000
3.220000,0.295571,0.276356,-1.478120,1.554514,0.263190,0.074955,-0.086801,0.945325,0.177598,-0.731283,1.519727,-0.125046,-0.957848,-7.966246,-3.470679,0.097823,0.009011,0.000000,0.154933,0.075434,-0.000000
3.230000,0.311112,0.279035,-1.477361,1.553609,0.272719,0.076725,-0.094162,0.960124,0.176174,-0.740948,1.440049,-0.160305,-0.973501,-7.961428,-3.577512,0.099329,0.009774,0.000000,0.146285,0.076363,-0.000000
3.240000,0.326643,0.281810,-1.476585,1.552630,0.282392,0.078478,-0.101620,0.974126,0.174392,-0.750753,1.360499,-0.196597,-0.986315,-7.952744,-3.676776,0.100749,0.010546,0.000000,0.137635,0.077297,0.000000
3.250000,0.342164,0.284683,-1.475792,1.551577,0.292202,0.080213,-0.109177,0.987334,0.172242,-0.760674,1.280994,-0.233840,-0.995711,-7.949185,-3.769394,0.102082,0.011328,0.000000,0.128975,0.078232,-0.000000
3.260000,0.357675,0.287654,-1.474981,1.550447,0.302139,0.081923,-0.116833,0.999746,0.169715,-0.770668,1.201515,-0.271984,-1.001196,-7.935705,-3.855667,0.103328,0.012119,0.000000,0.120306,0.079164,0.000000
3.270000,0.373173,0.290726,-1.474153,1.549240,0.312197,0.083607,-0.124590,1.011364,0.166802,-0.780698,1.122280,-0.310953,-1.003466,-7.891072,-3.930910,0.104488,0.012919,0.000000,0.111652,0.080089,0.000000
3.280000,0.388659,0.293898,-1.473309,1.547955,0.322366,0.085259,-0.132447,1.022192,0.163496,-0.790737,1.043693,-0.350603,-0.994119,-7.835301,-3.993982,0.105561,0.013729,0.000000,0.103057,0.081004,-0.000000
3.290000,0.404132,0.297173,-1.472448,1.546591,0.332640,0.086877,-0.140405,1.032238,0.159790,-0.800580,0.965574,-0.390833,-0.974072,-7.793070,-4.050023,0.106549,0.014548,0.000000,0.094506,0.081886,-0.000000
3.300000,0.419591,0.300551,-1.471571,1.545147,0.343011,0.088455,-0.148459,1.041503,0.155679,-0.810218,0.887832,-0.431603,-1.005176,-7.655349,-4.099703,0.107451,0.015376,0.000000,0.085990,0.082736,-0.000000
3.310000,0.435035,0.304033,-1.470679,1.543622,0.353471,0.089990,-0.156609,1.049995,0.151158,-0.820684,0.812467,-0.472827,-1.081866,-7.414861,-4.138514,0.108269,0.016213,0.000000,0.077718,0.083659,0.000000
3.320000,0.450464,0.307620,-1.469772,1.542015,0.364011,0.091478,-0.164872,1.057753,0.146223,-0.831856,0.739535,-0.514373,-1.027655,-7.387114,-4.163631,0.109006,0.017059,0.000000,0.069696,0.084642,-0.000000
3.330000,0.465875,0.311313,-1.468849,1.540324,0.374626,0.092915,-0.173246,1.064785,0.140870,-0.841237,0.664725,-0.556100,-0.871735,-7.524116,-4.173973,0.109663,0.017916,0.000000,0.061489,0.085428,0.000000
3.340000,0.481270,0.315113,-1.467913,1.538550,0.385307,0.094296,-0.181697,1.071047,0.135101,-0.849291,0.589053,-0.597853,-0.850074,-7.403758,-4.172278,0.110235,0.018778,0.000000,0.053202,0.086066,-0.000000
3.350000,0.496646,0.319020,-1.466963,1.536690,0.396047,0.095617,-0.190232,1.076566,0.128913,-0.858238,0.516650,-0.639545,-0.744937,-7.431125,-4.171610,0.110727,0.019647,0.000000,0.045262,0.086784,-0.000000
3.360000,0.512004,0.323034,-1.466001,1.534745,0.406838,0.096874,-0.198862,1.081380,0.122310,-0.864189,0.440430,-0.681285,-0.417894,-7.853377,-4.168241,0.111141,0.020524,0.000000,0.036944,0.087183,-0.000000
3.370000,0.527341,0.327156,-1.465026,1.532713,0.417674,0.098063,-0.207516,1.085375,0.115288,-0.866596,0.359582,-0.722910,-0.551580,-7.403392,-4.122834,0.111466,0.021402,0.000000,0.028173,0.087208,0.000000
3.380000,0.542658,0.331387,-1.464040,1.530595,0.428546,0.099180,-0.216194,1.088572,0.107851,-0.875221,0.292362,-0.763742,-1.164577,-6.047658,-4.036013,0.111704,0.022279,0.000000,0.020813,0.087860,0.000000
3.390000,0.557953,0.335727,-1.463042,1.528389,0.439446,0.100220,-0.225020,1.091222,0.100013,-0.889888,0.238629,-0.803630,-1.314617,-5.536248,-3.960656,0.111882,0.023170,0.000000,0.014850,0.089120,-0.000000
3.400000,0.573226,0.340176,-1.462035,1.526095,0.450370,0.101180,-0.233992,1.093344,0.091779,-0.901513,0.181637,-0.842955,-1.299344,-5.339705,-3.892795,0.112001,0.024073,0.000000,0.008575,0.090056,-0.000000
3.410000,0.588475,0.344735,-1.461019,1.523710,0.461312,0.102056,-0.243050,1.094855,0.083154,-0.915875,0.131835,-0.881486,-1.720551,-4.339597,-3.797166,0.112054,0.024982,0.000000,0.003055,0.091262,0.000000
3.420000,0.603700,0.349402,-1.459994,1.521234,0.472267,0.102843,-0.252309,1.095981,0.074149,-0.935924,0.094845,-0.918898,-1.473687,-4.520946,-3.696229,0.112062,0.025910,0.000000,-0.001141,0.093036,-0.000000
3.430000,0.618900,0.354180,-1.458962,1.518663,0.483232,0.103539,-0.261769,1.096752,0.064776,-0.945348,0.041416,-0.955411,-0.334736,-6.301972,-3.601303,0.112031,0.026855,0.000000,-0.006978,0.093714,0.000000
3.440000,0.634073,0.359067,-1.457923,1.515998,0.494202,0.104139,-0.271216,1.096809,0.055041,-0.942619,-0.031194,-0.990924,0.130216,-6.866594,-3.478579,0.111923,0.027796,0.000000,-0.014721,0.093147,0.000000
3.450000,0.649220,0.364064,-1.456879,1.513239,0.505168,0.104639,-0.280621,1.096128,0.044957,-0.942744,-0.095916,-1.024982,-0.032819,-6.286100,-3.336534,0.111737,0.028729,0.000000,-0.021625,0.092866,-0.000000
3.460000,0.664338,0.369170,-1.455831,1.510386,0.516125,0.105038,-0.290071,1.094891,0.034541,-0.943275,-0.156916,-1.057655,0.221095,-6.442507,-3.197269,0.111491,0.029665,0.000000,-0.028115,0.092623,-0.000000
3.470000,0.679428,0.374386,-1.454778,1.507438,0.527066,0.105330,-0.299487,1.092990,0.023804,-0.938322,-0.224766,-1.088928,0.306002,-6.313572,-3.023239,0.111174,0.030593,0.000000,-0.035255,0.091820,0.000000
3.480000,0.694487,0.379712,-1.453724,1.504396,0.537984,0.105514,-0.308837,1.090396,0.012763,-0.937155,-0.283188,-1.118120,-0.199541,-5.141783,-2.803422,0.110786,0.031512,0.000000,-0.041396,0.091402,0.000000
3.490000,0.709515,0.385146,-1.452668,1.501261,0.548874,0.105586,-0.318230,1.087326,0.001442,-0.942313,-0.327602,-1.144996,-0.396945,-4.502197,-2.592054,0.110346,0.032433,0.000000,-0.046081,0.091625,0.000000
3.500000,0.724512,0.390689,-1.451612,1.498031,0.559731,0.105543,-0.327684,1.083844,-0.010137,-0.945094,-0.373232,-1.169961,0.035027,-4.975822,-2.408695,0.109864,0.033356,0.000000,-0.050848,0.091607,-0.000000
3.510000,0.739476,0.396341,-1.450557,1.494707,0.570551,0.105383,-0.337132,1.079861,-0.021957,-0.941612,-0.427118,-1.193170,0.454761,-5.437171,-2.215597,0.109330,0.034276,0.000000,-0.056402,0.090955,0.000000
3.520000,0.754406,0.402100,-1.449505,1.491289,0.581328,0.105104,-0.346516,1.075301,-0.034001,-0.935999,-0.481975,-1.214273,0.279218,-4.821827,-1.972480,0.108736,0.035186,0.000000,-0.062006,0.090094,-0.000000
3.530000,0.769302,0.407967,-1.448455,1.487777,0.592057,0.104703,-0.355852,1.070222,-0.046243,-0.936028,-0.523555,-1.232620,-0.228656,-3.592309,-1.693216,0.108090,0.036089,0.000000,-0.066229,0.089808,-0.000000
3.540000,0.784162,0.413941,-1.447411,1.484172,0.602733,0.104179,-0.365236,1.064830,-0.058653,-0.940572,-0.553821,-1.248137,-0.333053,-3.098076,-1.430742,0.107411,0.036993,0.000000,-0.069274,0.089983,-0.000000
3.550000,0.798985,0.420022,-1.446372,1.480472,0.613354,0.103530,-0.374663,1.059145,-0.071206,-0.942689,-0.585516,-1.261235,-0.398994,-2.692248,-1.178520,0.106704,0.037899,0.000000,-0.072421,0.089918,-0.000000
3.560000,0.813771,0.426208,-1.445340,1.476678,0.623916,0.102755,-0.384090,1.053120,-0.083878,-0.948552,-0.607666,-1.271707,-0.874888,-1.551139,-0.903336,0.105963,0.038802,0.000000,-0.074574,0.090237,-0.000000
3.570000,0.828519,0.432500,-1.444317,1.472790,0.634416,0.101852,-0.393634,1.046992,-0.096640,-0.960187,-0.616539,-1.279301,-0.612844,-1.724112,-0.633465,0.105213,0.039713,0.000000,-0.075367,0.091141,0.000000
3.580000,0.843227,0.438897,-1.443303,1.468806,0.644855,0.100822,-0.403294,1.040789,-0.109464,-0.960809,-0.642148,-1.284377,0.552320,-3.516764,-0.381175,0.104456,0.040634,0.000000,-0.077792,0.090947,0.000000
3.590000,0.857895,0.445397,-1.442300,1.464724,0.655232,0.099663,-0.412850,1.034149,-0.122327,-0.949140,-0.686874,-1.286925,1.012989,-4.058580,-0.106748,0.103657,0.041542,0.000000,-0.082076,0.089536,0.000000
3.600000,0.872522,0.452001,-1.441310,1.460549,0.665538,0.098375,-0.422277,1.027052,-0.135202,-0.940549,-0.723320,-1.286512,0.871819,-3.522431,0.183763,0.102814,0.042435,0.000000,-0.085492,0.088451,-0.000000
3.610000,0.887106,0.458708,-1.440333,1.456279,0.675773,0.096959,-0.431661,1.019683,-0.148058,-0.931704,-0.757323,-1.283250,1.196856,-3.818028,0.462671,0.101947,0.043321,0.000000,-0.088625,0.087356,0.000000
3.620000,0.901647,0.465517,-1.439370,1.451916,0.685932,0.095414,-0.440911,1.011905,-0.160867,-0.916612,-0.799680,-1.277258,1.255205,-3.667016,0.758412,0.101042,0.044191,0.000000,-0.092546,0.085657,0.000000
3.630000,0.916144,0.472427,-1.438424,1.447461,0.696011,0.093741,-0.449994,1.003689,-0.173603,-0.906600,-0.830663,-1.268081,0.648713,-2.361183,1.080438,0.100096,0.045043,0.000000,-0.095298,0.084486,-0.000000
3.640000,0.930596,0.479437,-1.437496,1.442916,0.706006,0.091942,-0.459043,0.995292,-0.186229,-0.903638,-0.846904,-1.255649,0.473995,-1.818446,1.385390,0.099136,0.045889,0.000000,-0.096557,0.084037,0.000000
3.650000,0.945003,0.486547,-1.436586,1.438280,0.715917,0.090017,-0.468066,0.986751,-0.198716,-0.897120,-0.867032,-1.240373,0.814477,-2.173725,1.669673,0.098165,0.046732,0.000000,-0.098171,0.083253,-0.000000
3.660000,0.959362,0.493755,-1.435695,1.433554,0.725741,0.087968,-0.476985,0.977951,-0.211036,-0.887348,-0.890379,-1.222256,0.917067,-2.111434,1.961303,0.097172,0.047562,0.000000,-0.100072,0.082167,0.000000
3.670000,0.973674,0.501062,-1.434826,1.428740,0.735476,0.085796,-0.485813,0.968943,-0.223161,-0.878779,-0.909261,-1.201147,0.934951,-1.939082,2.253777,0.096164,0.048383,0.000000,-0.101504,0.081222,0.000000
3.680000,0.987937,0.508465,-1.433979,1.423838,0.745120,0.083504,-0.494561,0.959766,-0.235059,-0.868649,-0.929160,-1.177180,1.141669,-2.136144,2.535374,0.095142,0.049195,0.000000,-0.103011,0.080146,0.000000
3.690000,1.002150,0.515964,-1.433156,1.418849,0.754671,0.081095,-0.503186,0.950360,-0.246704,-0.855945,-0.951984,-1.150440,1.258919,-2.162230,2.815510,0.094103,0.049993,0.000000,-0.104781,0.078840,-0.000000
3.700000,1.016314,0.523558,-1.432357,1.413774,0.764127,0.078570,-0.511680,0.940726,-0.258068,-0.843471,-0.972405,-1.120870,1.215154,-1.890150,3.098071,0.093047,0.050778,0.000000,-0.106291,0.077581,-0.000000
3.710000,1.030426,0.531247,-1.431585,1.408615,0.773486,0.075934,-0.520056,0.930912,-0.269122,-0.831642,-0.989787,-1.088479,1.210917,-1.707028,3.374458,0.091977,0.051552,0.000000,-0.107483,0.076411,0.000000
3.720000,1.044486,0.539028,-1.430839,1.403373,0.782745,0.073188,-0.528313,0.920931,-0.279838,-0.819252,-1.006545,-1.053381,1.287283,-1.679152,3.636104,0.090897,0.052313,0.000000,-0.108596,0.075210,0.000000
3.730000,1.058493,0.546902,-1.430121,1.398049,0.791904,0.070337,-0.536441,0.910781,-0.290189,-0.805897,-1.023370,-1.015756,1.373584,-1.670776,3.883995,0.089806,0.053062,0.000000,-0.109701,0.073940,0.000000
3.740000,1.072447,0.554866,-1.429432,1.392644,0.800961,0.067384,-0.544431,0.900463,-0.300153,-0.791781,-1.039961,-0.975701,1.432403,-1.627266,4.127193,0.088703,0.053798,0.000000,-0.110770,0.072620,-0.000000
3.750000,1.086346,0.562921,-1.428773,1.387160,0.809913,0.064334,-0.552276,0.889982,-0.309703,-0.777249,-1.055915,-0.933213,1.479768,-1.573253,4.369401,0.087590,0.054520,0.000000,-0.111767,0.071285,0.000000
3.760000,1.100190,0.571064,-1.428145,1.381599,0.818760,0.061190,-0.559976,0.879345,-0.318817,-0.762185,-1.071426,-0.888313,1.537201,-1.539041,4.602832,0.086468,0.055229,0.000000,-0.112710,0.069924,-0.000000
3.770000,1.113978,0.579296,-1.427549,1.375961,0.827500,0.057957,-0.567520,0.868553,-0.327470,-0.746505,-1.086696,-0.841156,1.577231,-1.493946,4.814581,0.085336,0.055924,0.000000,-0.113624,0.068527,-0.000000
3.780000,1.127709,0.587614,-1.426986,1.370248,0.836132,0.054641,-0.574906,0.857611,-0.335640,-0.730641,-1.101305,-0.792022,1.591015,-1.425824,5.005207,0.084195,0.056605,0.000000,-0.114471,0.067137,0.000000
3.790000,1.141383,0.596019,-1.426457,1.364463,0.844653,0.051245,-0.582133,0.846527,-0.343310,-0.714684,-1.115212,-0.741052,1.617643,-1.378206,5.190224,0.083046,0.057272,0.000000,-0.115249,0.065760,-0.000000
3.800000,1.154999,0.604507,-1.425961,1.358606,0.853062,0.047774,-0.589199,0.835307,-0.350461,-0.698288,-1.128869,-0.688217,1.661995,-1.355572,5.375059,0.081890,0.057925,0.000000,-0.116003,0.064365,0.000000
3.810000,1.168555,0.613080,-1.425501,1.352679,0.861359,0.044235,-0.596099,0.823950,-0.357074,-0.681444,-1.142324,-0.633551,1.696989,-1.327268,5.547756,0.080726,0.058563,0.000000,-0.116739,0.062948,-0.000000
3.820000,1.182052,0.621735,-1.425077,1.346684,0.869541,0.040633,-0.602828,0.812460,-0.363132,-0.664348,-1.155414,-0.577262,1.719673,-1.292611,5.692674,0.079555,0.059188,0.000000,-0.117445,0.061530,-0.000000
3.830000,1.195489,0.630471,-1.424688,1.340622,0.877608,0.036973,-0.609386,0.800842,-0.368620,-0.647051,-1.168176,-0.519697,1.739275,-1.261668,5.811967,0.078377,0.059798,0.000000,-0.118127,0.060112,0.000000
3.840000,1.208865,0.639287,-1.424337,1.334496,0.885558,0.033261,-0.615769,0.789097,-0.373526,-0.629563,-1.180648,-0.461023,1.757278,-1.231780,5.925021,0.077193,0.060394,0.000000,-0.118792,0.058694,0.000000
3.850000,1.222179,0.648182,-1.424023,1.328307,0.893390,0.029502,-0.621977,0.777229,-0.377840,-0.611905,-1.192812,-0.401197,1.773207,-1.202482,6.037921,0.076001,0.060975,0.000000,-0.119438,0.057278,-0.000000
3.860000,1.235431,0.657155,-1.423747,1.322057,0.901102,0.025704,-0.628007,0.765241,-0.381550,-0.594098,-1.204697,-0.340264,1.786328,-1.175288,6.136505,0.074804,0.061543,0.000000,-0.120068,0.055867,0.000000
3.870000,1.248620,0.666204,-1.423509,1.315747,0.908695,0.021871,-0.633859,0.753135,-0.384645,-0.576179,-1.216317,-0.278467,1.794499,-1.145459,6.204327,0.073600,0.062096,0.000000,-0.120688,0.054461,-0.000000
3.880000,1.261746,0.675329,-1.423310,1.309379,0.916165,0.018011,-0.639531,0.740914,-0.387119,-0.558208,-1.227607,-0.216178,1.797778,-1.111525,6.244623,0.072390,0.062635,0.000000,-0.121293,0.053064,-0.000000
3.890000,1.274808,0.684527,-1.423149,1.302956,0.923513,0.014129,-0.645023,0.728583,-0.388969,-0.540223,-1.238548,-0.153574,1.799123,-1.079543,6.278250,0.071174,0.063160,0.000000,-0.121884,0.051678,-0.000000
3.900000,1.287805,0.693799,-1.423027,1.296479,0.930737,0.010232,-0.650335,0.716143,-0.390191,-0.522226,-1.249198,-0.090613,1.799555,-1.052339,6.311384,0.069952,0.063671,0.000000,-0.122466,0.050303,0.000000
3.910000,1.300737,0.703142,-1.422944,1.289949,0.937836,0.006325,-0.655468,0.703599,-0.390781,-0.504232,-1.259595,-0.027347,1.797056,-1.025131,6.329335,0.068725,0.064168,0.000000,-0.123045,0.048940,0.000000
3.920000,1.313604,0.712555,-1.422901,1.283370,0.944809,0.002416,-0.660420,0.690951,-0.390738,-0.486285,-1.269700,0.035974,1.789290,-0.990380,6.316314,0.067491,0.064652,0.000000,-0.123617,0.047591,0.000000
3.930000,1.326405,0.722038,-1.422896,1.276741,0.951655,-0.001490,-0.665193,0.678205,-0.390062,-0.468446,-1.279402,0.098980,1.776781,-0.948702,6.276175,0.066252,0.065122,0.000000,-0.124175,0.046260,0.000000
3.940000,1.339139,0.731589,-1.422930,1.270066,0.958373,-0.005385,-0.669789,0.665363,-0.388758,-0.450749,-1.288674,0.161498,1.762733,-0.909655,6.229389,0.065008,0.065579,0.000000,-0.124718,0.044947,0.000000
3.950000,1.351806,0.741206,-1.423004,1.263345,0.964962,-0.009265,-0.674208,0.652431,-0.386832,-0.433192,-1.297595,0.223568,1.748466,-0.877255,6.181759,0.063758,0.066023,0.000000,-0.125252,0.043653,-0.000000
3.960000,1.364406,0.750888,-1.423116,1.256582,0.971421,-0.013122,-0.678453,0.639411,-0.384287,-0.415780,-1.306219,0.285133,1.731831,-0.844514,6.119337,0.062503,0.066454,0.000000,-0.125783,0.042376,-0.000000
3.970000,1.376938,0.760634,-1.423266,1.249776,0.977750,-0.016951,-0.682524,0.626307,-0.381129,-0.398555,-1.314486,0.345954,1.709743,-0.800726,6.028152,0.061242,0.066872,0.000000,-0.126308,0.041120,-0.000000
3.980000,1.389401,0.770443,-1.423455,1.242931,0.983948,-0.020745,-0.686424,0.613122,-0.377368,-0.381585,-1.322234,0.405696,1.683060,-0.747320,5.912291,0.059976,0.067278,0.000000,-0.126811,0.039887,-0.000000
3.990000,1.401796,0.780313,-1.423681,1.236048,0.990013,-0.024498,-0.690156,0.599862,-0.373015,-0.364894,-1.329432,0.464200,1.655989,-0.698335,5.790316,0.058706,0.067672,0.000000,-0.127290,0.038678,-0.000000
4.000000,1.414122,0.790243,-1.423945,1.229128,0.995945,-0.028205,-0.693722,0.586533,-0.368084,-0.348465,-1.336200,0.521502,1.628282,-0.658384,5.667303,0.057430,0.068053,0.000000,-0.127757,0.037493,-0.000000
4.010000,1.426379,0.800232,-1.424245,1.222173,1.001743,-0.031860,-0.697125,0.573138,-0.362585,-0.332328,-1.342600,0.577546,1.597355,-0.617717,5.531041,0.056151,0.068423,0.000000,-0.128217,0.036332,-0.000000
4.020000,1.438566,0.810278,-1.424582,1.215185,1.007408,-0.035457,-0.700368,0.559681,-0.356533,-0.316518,-1.348555,0.632123,1.564903,-0.565181,5.370169,0.054866,0.068781,0.000000,-0.128663,0.035196,0.000000
4.030000,1.450682,0.820380,-1.424954,1.208166,1.012937,-0.038990,-0.703455,0.546167,-0.349943,-0.301030,-1.353903,0.684950,1.532125,-0.503803,5.188692,0.053577,0.069128,0.000000,-0.129081,0.034084,-0.000000
4.040000,1.462729,0.830537,-1.425362,1.201116,1.018331,-0.042455,-0.706389,0.532603,-0.342834,-0.285876,-1.358631,0.735897,1.496678,-0.448272,5.002183,0.052284,0.069464,0.000000,-0.129468,0.032995,-0.000000
4.050000,1.474705,0.840747,-1.425803,1.194038,1.023589,-0.045847,-0.709173,0.518994,-0.335225,-0.271097,-1.362869,0.784993,1.457695,-0.400111,4.814685,0.050988,0.069789,0.000000,-0.129836,0.031933,-0.000000
4.060000,1.486610,0.851008,-1.426279,1.186933,1.028711,-0.049160,-0.711811,0.505346,-0.327134,-0.256722,-1.366633,0.832190,1.417038,-0.349701,4.616424,0.049688,0.070103,0.000000,-0.130187,0.030899,0.000000
4.070000,1.498443,0.861321,-1.426787,1.179802,1.033696,-0.052390,-0.714307,0.491662,-0.318581,-0.242756,-1.369863,0.877322,1.376602,-0.295196,4.399222,0.048384,0.070407,0.000000,-0.130514,0.029892,-0.000000
4.080000,1.510206,0.871682,-1.427326,1.172647,1.038544,-0.055532,-0.716666,0.477948,-0.309588,-0.229190,-1.372537,0.920175,1.335552,-0.240084,4.166740,0.047077,0.070702,0.000000,-0.130815,0.028911,0.000000
4.090000,1.521896,0.882092,-1.427897,1.165469,1.043255,-0.058581,-0.718891,0.464211,-0.300178,-0.216045,-1.374664,0.960656,1.291817,-0.186472,3.930815,0.045768,0.070986,0.000000,-0.131090,0.027955,-0.000000
4.100000,1.533515,0.892548,-1.428498,1.158269,1.047828,-0.061535,-0.720987,0.450455,-0.290374,-0.203353,-1.376266,0.998791,1.247980,-0.134908,3.694166,0.044455,0.071261,0.000000,-0.131340,0.027027,0.000000
4.110000,1.545062,0.903048,-1.429128,1.151049,1.052264,-0.064389,-0.722958,0.436686,-0.280202,-0.191085,-1.377363,1.034540,1.205287,-0.084482,3.449794,0.043141,0.071527,0.000000,-0.131566,0.026125,-0.000000
4.120000,1.556536,0.913593,-1.429786,1.143810,1.056562,-0.067139,-0.724809,0.422908,-0.269684,-0.179248,-1.377956,1.067787,1.156255,-0.033682,3.193295,0.041824,0.071784,0.000000,-0.131766,0.025248,0.000000
4.130000,1.567938,0.924180,-1.430471,1.136553,1.060722,-0.069783,-0.726543,0.409127,-0.258846,-0.167960,-1.378036,1.098406,1.100445,0.016839,2.927809,0.040505,0.072033,0.000000,-0.131940,0.024406,-0.000000
4.140000,1.579267,0.934807,-1.431181,1.129279,1.064745,-0.072316,-0.728168,0.395347,-0.247716,-0.157239,-1.377619,1.126343,1.048610,0.064633,2.660531,0.039185,0.072273,0.000000,-0.132087,0.023600,0.000000
4.150000,1.590524,0.945474,-1.431917,1.121989,1.068629,-0.074737,-0.729688,0.381574,-0.236319,-0.146988,-1.376744,1.151616,1.001124,0.109862,2.392874,0.037864,0.072505,0.000000,-0.132210,0.022820,0.000000
4.160000,1.601707,0.956180,-1.432676,1.114685,1.072376,-0.077042,-0.731107,0.367812,-0.224683,-0.137216,-1.375422,1.174201,0.950974,0.153659,2.121205,0.036541,0.072730,0.000000,-0.132309,0.022068,-0.000000
4.170000,1.612817,0.966922,-1.433458,1.107367,1.075985,-0.079231,-0.732432,0.354066,-0.212835,-0.127968,-1.373670,1.194040,0.900271,0.194247,1.844839,0.035217,0.072947,0.000000,-0.132383,0.021346,0.000000
4.180000,1.623854,0.977700,-1.434261,1.100037,1.079457,-0.081299,-0.733667,0.340339,-0.200802,-0.119211,-1.371537,1.211097,0.852019,0.230426,1.566177,0.033893,0.073157,0.000000,-0.132436,0.020652,0.000000
4.190000,1.634818,0.988511,-1.435084,1.092694,1.082792,-0.083247,-0.734816,0.326635,-0.188613,-0.110928,-1.369062,1.225364,0.802994,0.264262,1.287530,0.032569,0.073360,0.000000,-0.132471,0.019982,-0.000000
4.200000,1.645708,0.999355,-1.435926,1.085340,1.085990,-0.085071,-0.735885,0.312958,-0.176295,-0.103151,-1.366252,1.236848,0.750995,0.298773,1.008717,0.031244,0.073557,0.000000,-0.132487,0.019342,-0.000000
4.210000,1.656525,1.010231,-1.436785,1.077976,1.089051,-0.086772,-0.736879,0.299310,-0.163876,-0.095908,-1.363086,1.245538,0.698723,0.331898,0.729630,0.029919,0.073747,0.000000,-0.132480,0.018732,-0.000000
4.220000,1.667268,1.021136,-1.437661,1.070603,1.091976,-0.088349,-0.737804,0.285696,-0.151384,-0.089177,-1.359614,1.251441,0.651384,0.354683,0.453512,0.028594,0.073931,0.000000,-0.132452,0.018150,0.000000
4.230000,1.677937,1.032070,-1.438552,1.063220,1.094765,-0.089800,-0.738663,0.272118,-0.138847,-0.082880,-1.355993,1.254609,0.608270,0.366953,0.181789,0.027270,0.074110,0.000000,-0.132420,0.017590,0.000000
4.240000,1.688532,1.043032,-1.439457,1.055829,1.097419,-0.091126,-0.739461,0.258576,-0.126292,-0.077011,-1.352275,1.255076,0.562798,0.380497,-0.088301,0.025946,0.074283,0.000000,-0.132385,0.017050,-0.000000
4.250000,1.699053,1.054019,-1.440375,1.048431,1.099937,-0.092326,-0.740203,0.245072,-0.113746,-0.071624,-1.348383,1.252843,0.515475,0.398489,-0.358350,0.024622,0.074451,0.000000,-0.132339,0.016537,0.000000
4.260000,1.709501,1.065030,-1.441304,1.041025,1.102320,-0.093401,-0.740894,0.231608,-0.101235,-0.066702,-1.344305,1.247909,0.470832,0.412552,-0.625058,0.023299,0.074614,0.000000,-0.132279,0.016048,0.000000
4.270000,1.719874,1.076065,-1.442243,1.033613,1.104569,-0.094351,-0.741537,0.218186,-0.088788,-0.062208,-1.340132,1.240341,0.426677,0.415398,-0.881736,0.021977,0.074772,0.000000,-0.132213,0.015580,-0.000000
4.280000,1.730173,1.087122,-1.443191,1.026195,1.106684,-0.095177,-0.742138,0.204806,-0.076429,-0.058168,-1.335997,1.230275,0.381563,0.409265,-1.127925,0.020655,0.074926,0.000000,-0.132152,0.015136,-0.000000
4.290000,1.740398,1.098199,-1.444146,1.018770,1.108665,-0.095879,-0.742700,0.191466,-0.064182,-0.054577,-1.331947,1.217783,0.339113,0.403361,-1.371020,0.019334,0.075075,0.000000,-0.132099,0.014718,-0.000000
4.300000,1.750548,1.109295,-1.445108,1.011341,1.110513,-0.096460,-0.743229,0.178167,-0.052073,-0.051386,-1.327930,1.202854,0.299353,0.400645,-1.613981,0.018013,0.075220,0.000000,-0.132049,0.014319,0.000000
4.310000,1.760625,1.120409,-1.446076,1.003906,1.112228,-0.096921,-0.743728,0.164908,-0.040125,-0.048589,-1.323934,1.185503,0.260003,0.394770,-1.850449,0.016693,0.075361,0.000000,-0.131998,0.013939,0.000000
4.320000,1.770626,1.131540,-1.447047,0.996466,1.113811,-0.097263,-0.744201,0.151688,-0.028363,-0.046186,-1.320035,1.165845,0.222780,0.378022,-2.070718,0.015373,0.075499,0.000000,-0.131953,0.013579,-0.000000
4.330000,1.780554,1.142685,-1.448021,0.989022,1.115262,-0.097488,-0.744652,0.138507,-0.016808,-0.044134,-1.316373,1.144089,0.188774,0.352104,-2.275354,0.014054,0.075633,0.000000,-0.131926,0.013236,0.000000
4.340000,1.790407,1.153845,-1.448996,0.981573,1.116581,-0.097599,-0.745084,0.125361,-0.005481,-0.042410,-1.312992,1.120338,0.155629,0.327274,-2.475890,0.012734,0.075764,0.000000,-0.131921,0.012910,-0.000000
4.350000,1.800185,1.165017,-1.449973,0.974120,1.117769,-0.097598,-0.745500,0.112247,0.005599,-0.041021,-1.309828,1.094571,0.122469,0.306411,-2.676330,0.011415,0.075891,0.000000,-0.131931,0.012599,0.000000
4.360000,1.809889,1.176200,-1.450948,0.966663,1.118826,-0.097487,-0.745904,0.099164,0.016410,-0.039961,-1.306864,1.066812,0.091138,0.282658,-2.867725,0.010096,0.076016,0.000000,-0.131952,0.012305,0.000000
4.370000,1.819519,1.187394,-1.451922,0.959202,1.119753,-0.097269,-0.746299,0.086110,0.026935,-0.039199,-1.304175,1.037217,0.063636,0.249522,-3.038301,0.008776,0.076137,0.000000,-0.131991,0.012024,0.000000
4.380000,1.829073,1.198595,-1.452894,0.951737,1.120549,-0.096948,-0.746688,0.073081,0.037155,-0.038688,-1.301874,1.006046,0.039604,0.209196,-3.189600,0.007456,0.076256,0.000000,-0.132058,0.011755,-0.000000
4.390000,1.838553,1.209804,-1.453861,0.944268,1.121214,-0.096526,-0.747073,0.060072,0.047056,-0.038406,-1.299991,0.973425,0.016605,0.170445,-3.336149,0.006135,0.076372,0.000000,-0.132156,0.011496,-0.000000
4.400000,1.847959,1.221020,-1.454824,0.936795,1.121750,-0.096007,-0.747456,0.047081,0.056623,-0.038356,-1.298465,0.939323,-0.006136,0.135312,-3.482609,0.004813,0.076486,0.000000,-0.132278,0.011247,0.000000
4.410000,1.857289,1.232239,-1.455782,0.929319,1.122156,-0.095394,-0.747840,0.034103,0.065842,-0.038529,-1.297284,0.903772,-0.026799,0.098210,-3.618298,0.003490,0.076597,0.000000,-0.132422,0.011008,-0.000000
4.420000,1.866545,1.243463,-1.456732,0.921839,1.122432,-0.094690,-0.748227,0.021135,0.074699,-0.038892,-1.296501,0.866957,-0.043271,0.055036,-3.730485,0.002165,0.076706,0.000000,-0.132592,0.010776,-0.000000
4.430000,1.875726,1.254688,-1.457675,0.914354,1.122579,-0.093900,-0.748618,0.008173,0.083181,-0.039395,-1.296184,0.829163,-0.055965,0.007869,-3.821523,0.000838,0.076813,0.000000,-0.132795,0.010548,-0.000000
4.440000,1.884832,1.265914,-1.458610,0.906866,1.122595,-0.093027,-0.749015,-0.004789,0.091282,-0.040011,-1.296343,0.790526,-0.067521,-0.037511,-3.907531,-0.000491,0.076917,0.000000,-0.133031,0.010324,-0.000000
4.450000,1.893863,1.277140,-1.459536,0.899374,1.122483,-0.092074,-0.749418,-0.017754,0.098992,-0.040745,-1.296934,0.751012,-0.078751,-0.080127,-3.993374,-0.001823,0.077019,0.000000,-0.133296,0.010104,0.000000
4.460000,1.902820,1.288364,-1.460452,0.891878,1.122240,-0.091047,-0.749830,-0.030727,0.106302,-0.041586,-1.297946,0.710659,-0.087776,-0.123364,-4.067629,-0.003157,0.077119,0.000000,-0.133588,0.009886,-0.000000
4.470000,1.911701,1.299585,-1.461357,0.884378,1.121868,-0.089948,-0.750250,-0.043713,0.113205,-0.042501,-1.299401,0.669659,-0.092458,-0.168432,-4.117821,-0.004495,0.077217,0.000000,-0.133908,0.009668,-0.000000
4.480000,1.920507,1.310801,-1.462251,0.876873,1.121366,-0.088783,-0.750680,-0.056715,0.119695,-0.043436,-1.301314,0.628302,-0.093254,-0.213695,-4.146920,-0.005835,0.077313,0.000000,-0.134259,0.009448,-0.000000
4.490000,1.929238,1.322012,-1.463133,0.869364,1.120734,-0.087554,-0.751119,-0.069739,0.125771,-0.044366,-1.303675,0.586721,-0.092933,-0.257082,-4.171038,-0.007180,0.077406,0.000000,-0.134638,0.009225,-0.000000
4.500000,1.937894,1.333216,-1.464002,0.861851,1.119971,-0.086267,-0.751567,-0.082789,0.131430,-0.045294,-1.306456,0.544882,-0.092330,-0.298775,-4.194721,-0.008528,0.077497,0.000000,-0.135044,0.008997,-0.000000
4.510000,1.946475,1.344412,-1.464858,0.854333,1.119078,-0.084926,-0.752025,-0.095868,0.136669,-0.046212,-1.309651,0.502827,-0.089528,-0.339530,-4.206956,-0.009880,0.077586,0.000000,-0.135474,0.008765,0.000000
4.520000,1.954981,1.355598,-1.465700,0.846810,1.118054,-0.083534,-0.752491,-0.108982,0.141486,-0.047085,-1.313247,0.460742,-0.082502,-0.377648,-4.196705,-0.011237,0.077672,0.000000,-0.135929,0.008527,-0.000000
4.530000,1.963412,1.366773,-1.466529,0.839283,1.116899,-0.082096,-0.752966,-0.122133,0.145884,-0.047862,-1.317204,0.418893,-0.071799,-0.412178,-4.167182,-0.012599,0.077757,0.000000,-0.136403,0.008279,-0.000000
4.540000,1.971767,1.377936,-1.467342,0.831751,1.115611,-0.080616,-0.753449,-0.135326,0.149864,-0.048521,-1.321490,0.377399,-0.060086,-0.444822,-4.132988,-0.013965,0.077838,0.000000,-0.136894,0.008020,0.000000
4.550000,1.980047,1.389085,-1.468141,0.824214,1.114192,-0.079099,-0.753937,-0.148563,0.153432,-0.049064,-1.326100,0.336233,-0.048117,-0.476808,-4.097984,-0.015337,0.077917,0.000000,-0.137402,0.007751,-0.000000
4.560000,1.988251,1.400219,-1.468924,0.816672,1.112640,-0.077548,-0.754430,-0.161848,0.156589,-0.049483,-1.331026,0.295439,-0.034118,-0.506311,-4.052540,-0.016713,0.077993,0.000000,-0.137926,0.007471,0.000000
4.570000,1.996380,1.411338,-1.469692,0.809125,1.110955,-0.075967,-0.754926,-0.175184,0.159340,-0.049746,-1.336226,0.255182,-0.016347,-0.529162,-3.987999,-0.018095,0.078066,0.000000,-0.138461,0.007178,-0.000000
4.580000,2.004434,1.422439,-1.470443,0.801573,1.109136,-0.074361,-0.755425,-0.188572,0.161692,-0.049810,-1.341610,0.215679,0.004638,-0.545189,-3.907521,-0.019483,0.078137,0.000000,-0.138999,0.006869,0.000000
4.590000,2.012412,1.433520,-1.471179,0.794017,1.107184,-0.072733,-0.755923,-0.202016,0.163654,-0.049654,-1.347130,0.177032,0.026473,-0.559358,-3.822909,-0.020875,0.078204,0.000000,-0.139537,0.006544,0.000000
4.600000,2.020314,1.444582,-1.471898,0.786455,1.105096,-0.071088,-0.756418,-0.215515,0.165233,-0.049281,-1.352797,0.139221,0.048516,-0.573681,-3.737023,-0.022273,0.078268,0.000000,-0.140074,0.006202,0.000000
4.610000,2.028141,1.455622,-1.472601,0.778888,1.102873,-0.069428,-0.756908,-0.229072,0.166438,-0.048683,-1.358604,0.102291,0.072279,-0.584193,-3.642436,-0.023677,0.078328,0.000000,-0.140611,0.005843,0.000000
4.620000,2.035892,1.466640,-1.473287,0.771317,1.100515,-0.067759,-0.757391,-0.242687,0.167279,-0.047835,-1.364481,0.066372,0.099103,-0.585026,-3.533502,-0.025085,0.078384,0.000000,-0.141142,0.005466,0.000000
4.630000,2.043567,1.477633,-1.473956,0.763741,1.098020,-0.066083,-0.757865,-0.256361,0.167766,-0.046701,-1.370304,0.031621,0.128445,-0.576751,-3.413050,-0.026499,0.078437,0.000000,-0.141655,0.005068,0.000000
4.640000,2.051166,1.488600,-1.474608,0.756160,1.095387,-0.064404,-0.758326,-0.270093,0.167911,-0.045266,-1.376016,-0.001889,0.158405,-0.566647,-3.289178,-0.027918,0.078486,0.000000,-0.142143,0.004649,0.000000
4.650000,2.058690,1.499540,-1.475244,0.748574,1.092618,-0.062725,-0.758770,-0.283882,0.167728,-0.043533,-1.381637,-0.034162,0.188645,-0.557177,-3.163549,-0.029342,0.078530,0.000000,-0.142611,0.004208,0.000000
4.660000,2.066138,1.510452,-1.475863,0.740984,1.089710,-0.061049,-0.759196,-0.297726,0.167228,-0.041493,-1.387159,-0.065160,0.220308,-0.542950,-3.031492,-0.030771,0.078570,0.000000,-0.143058,0.003746,0.000000
4.670000,2.073510,1.521335,-1.476465,0.733390,1.086663,-0.059380,-0.759600,-0.311625,0.166425,-0.039127,-1.392496,-0.094792,0.253817,-0.517313,-2.890643,-0.032203,0.078605,0.000000,-0.143477,0.003261,0.000000
4.680000,2.080806,1.532186,-1.477050,0.725792,1.083477,-0.057721,-0.759979,-0.325576,0.165332,-0.036417,-1.397506,-0.122973,0.288682,-0.481450,-2.743234,-0.033640,0.078635,0.000000,-0.143852,0.002753,-0.000000
4.690000,2.088026,1.543004,-1.477619,0.718191,1.080152,-0.056073,-0.760328,-0.339575,0.163965,-0.033353,-1.402125,-0.149657,0.324208,-0.443792,-2.593245,-0.035080,0.078660,0.000000,-0.144180,0.002220,-0.000000
4.700000,2.095170,1.553789,-1.478172,0.710586,1.076686,-0.054441,-0.760646,-0.353618,0.162339,-0.029933,-1.406381,-0.174837,0.360198,-0.406877,-2.441128,-0.036524,0.078680,0.000000,-0.144464,0.001662,0.000000
4.710000,2.102237,1.564538,-1.478708,0.702978,1.073079,-0.052827,-0.760927,-0.367703,0.160469,-0.026149,-1.410263,-0.198480,0.396964,-0.364743,-2.285154,-0.037970,0.078694,0.000000,-0.144703,0.001080,-0.000000
4.720000,2.109229,1.575250,-1.479228,0.695367,1.069332,-0.051232,-0.761169,-0.381824,0.158370,-0.021993,-1.413676,-0.220541,0.434707,-0.310887,-2.126110,-0.039418,0.078701,0.000000,-0.144889,0.000473,0.000000
4.730000,2.116145,1.585925,-1.479733,0.687754,1.065443,-0.049659,-0.761367,-0.395976,0.156058,-0.017455,-1.416480,-0.241002,0.473247,-0.246865,-1.965472,-0.040867,0.078703,0.000000,-0.145009,-0.000160,0.000000
4.740000,2.122984,1.596559,-1.480222,0.680140,1.061412,-0.048111,-0.761518,-0.410153,0.153549,-0.012528,-1.418614,-0.259850,0.512095,-0.181086,-1.803191,-0.042318,0.078698,0.000000,-0.145057,-0.000819,-0.000000
4.750000,2.129748,1.607153,-1.480695,0.672524,1.057240,-0.046588,-0.761618,-0.424348,0.150861,-0.007213,-1.420102,-0.277066,0.550679,-0.115817,-1.638614,-0.043768,0.078687,0.000000,-0.145037,-0.001504,-0.000000
4.760000,2.136435,1.617704,-1.481153,0.664907,1.052925,-0.045093,-0.761662,-0.438555,0.148008,-0.001515,-1.420930,-0.292622,0.589185,-0.045308,-1.472790,-0.045219,0.078668,0.000000,-0.144950,-0.002215,0.000000
4.770000,2.143046,1.628211,-1.481597,0.657291,1.048469,-0.043628,-0.761648,-0.452767,0.145008,0.004570,-1.421008,-0.306521,0.628839,0.035838,-1.309246,-0.046667,0.078642,0.000000,-0.144786,-0.002951,-0.000000
4.780000,2.149581,1.638673,-1.482026,0.649674,1.043870,-0.042193,-0.761571,-0.466975,0.141878,0.011062,-1.420213,-0.318807,0.669354,0.125933,-1.148649,-0.048114,0.078609,0.000000,-0.144534,-0.003714,-0.000000
4.790000,2.156039,1.649089,-1.482441,0.642059,1.039129,-0.040790,-0.761427,-0.481171,0.138632,0.017958,-1.418490,-0.329494,0.708824,0.217857,-0.987323,-0.049558,0.078568,0.000000,-0.144190,-0.004506,0.000000
4.800000,2.162422,1.659456,-1.482842,0.634446,1.034247,-0.039421,-0.761212,-0.495345,0.135288,0.025238,-1.415856,-0.338554,0.747858,0.309585,-0.823773,-0.050998,0.078519,0.000000,-0.143756,-0.005322,0.000000
4.810000,2.168728,1.669774,-1.483229,0.626835,1.029222,-0.038085,-0.760922,-0.509488,0.131861,0.032915,-1.412298,-0.345970,0.787492,0.405822,-0.661490,-0.052433,0.078461,0.000000,-0.143233,-0.006165,-0.000000
4.820000,2.174958,1.680040,-1.483603,0.619227,1.024057,-0.036783,-0.760553,-0.523591,0.128368,0.040988,-1.407740,-0.351783,0.825160,0.511237,-0.505964,-0.053863,0.078395,0.000000,-0.142613,-0.007034,-0.000000
4.830000,2.181113,1.690255,-1.483965,0.611624,1.018750,-0.035517,-0.760102,-0.537643,0.124825,0.049418,-1.402073,-0.356089,0.860164,0.624280,-0.357094,-0.055285,0.078320,0.000000,-0.141886,-0.007927,-0.000000
4.840000,2.187191,1.700415,-1.484314,0.604025,1.013304,-0.034287,-0.759565,-0.551633,0.121247,0.058191,-1.395254,-0.358925,0.895892,0.738556,-0.208522,-0.056700,0.078237,0.000000,-0.141049,-0.008842,0.000000
4.850000,2.193193,1.710521,-1.484651,0.596433,1.007718,-0.033092,-0.758938,-0.565548,0.117647,0.067336,-1.387302,-0.360260,0.933237,0.852703,-0.058006,-0.058106,0.078143,0.000000,-0.140105,-0.009781,0.000000
4.860000,2.199120,1.720570,-1.484976,0.588847,1.001993,-0.031934,-0.758218,-0.579379,0.114041,0.076856,-1.378200,-0.360085,0.969673,0.970762,0.089248,-0.059502,0.078041,0.000000,-0.139053,-0.010746,-0.000000
4.870000,2.204970,1.730561,-1.485289,0.581268,0.996130,-0.030812,-0.757401,-0.593112,0.110445,0.086729,-1.367887,-0.358475,1.003209,1.095184,0.226313,-0.060887,0.077928,0.000000,-0.137888,-0.011734,0.000000
4.880000,2.210745,1.740492,-1.485592,0.573699,0.990131,-0.029725,-0.756484,-0.606736,0.106872,0.096920,-1.356296,-0.355559,1.034611,1.224406,0.353956,-0.062260,0.077805,0.000000,-0.136603,-0.012743,-0.000000
4.890000,2.216444,1.750363,-1.485884,0.566139,0.983995,-0.028674,-0.755463,-0.620238,0.103334,0.107421,-1.343399,-0.351395,1.066183,1.354910,0.480458,-0.063620,0.077673,0.000000,-0.135196,-0.013773,0.000000
4.900000,2.222068,1.760172,-1.486165,0.558589,0.977726,-0.027658,-0.754335,-0.633604,0.099844,0.118244,-1.329198,-0.345950,1.097704,1.486069,0.608394,-0.064964,0.077529,0.000000,-0.133668,-0.014824,-0.000000
4.910000,2.227616,1.769918,-1.486437,0.551052,0.971323,-0.026677,-0.753098,-0.646822,0.096415,0.129375,-1.313677,-0.339228,1.127563,1.619848,0.731475,-0.066293,0.077376,0.000000,-0.132018,-0.015896,-0.000000
4.920000,2.233089,1.779599,-1.486699,0.543527,0.964789,-0.025730,-0.751748,-0.659878,0.093060,0.140795,-1.296801,-0.331321,1.156264,1.756965,0.842256,-0.067605,0.077211,0.000000,-0.130244,-0.016987,0.000000
4.930000,2.238486,1.789214,-1.486952,0.536017,0.958126,-0.024816,-0.750282,-0.672758,0.089789,0.152501,-1.278538,-0.322382,1.184226,1.896452,0.941987,-0.068898,0.077035,0.000000,-0.128341,-0.018098,-0.000000
4.940000,2.243809,1.798761,-1.487195,0.528522,0.951334,-0.023934,-0.748698,-0.685449,0.086612,0.164480,-1.258872,-0.312481,1.210483,2.036922,1.039836,-0.070171,0.076848,0.000000,-0.126308,-0.019229,0.000000
4.950000,2.249057,1.808240,-1.487430,0.521043,0.944417,-0.023084,-0.746992,-0.697935,0.083539,0.176710,-1.237800,-0.301586,1.235543,2.177911,1.138500,-0.071424,0.076650,0.000000,-0.124146,-0.020377,0.000000
4.960000,2.254230,1.817650,-1.487657,0.513582,0.937376,-0.022264,-0.745163,-0.710205,0.080580,0.189191,-1.215314,-0.289711,1.259957,2.319906,1.231295,-0.072654,0.076439,0.000000,-0.121854,-0.021542,0.000000
4.970000,2.259328,1.826988,-1.487876,0.506140,0.930213,-0.021472,-0.743209,-0.722242,0.077745,0.201910,-1.191401,-0.276960,1.281502,2.463301,1.310875,-0.073861,0.076218,0.000000,-0.119431,-0.022725,-0.000000
4.980000,2.264353,1.836254,-1.488086,0.498718,0.922931,-0.020709,-0.741125,-0.734033,0.075041,0.214821,-1.166048,-0.263493,1.299726,2.607549,1.378816,-0.075043,0.075984,0.000000,-0.116875,-0.023921,0.000000
4.990000,2.269303,1.845446,-1.488290,0.491317,0.915532,-0.019971,-0.738912,-0.745563,0.072475,0.227904,-1.139250,-0.249384,1.317673,2.751549,1.444360,-0.076199,0.075738,0.000000,-0.114186,-0.025130,0.000000
5.000000,2.274179,1.854564,-1.488486,0.483940,0.908020,-0.019259,-0.736567,-0.756818,0.070053,0.241174,-1.111017,-0.234606,1.336174,2.895332,1.510088,-0.077327,0.075480,0.000000,-0.111363,-0.026353,-0.000000
5.010000,2.278982,1.863607,-1.488675,0.476586,0.900396,-0.018570,-0.734089,-0.767783,0.067783,0.254628,-1.081344,-0.219182,1.353035,3.039161,1.569480,-0.078426,0.075209,0.000000,-0.108408,-0.027590,0.000000
5.020000,2.283711,1.872572,-1.488857,0.469258,0.892664,-0.017904,-0.731475,-0.778445,0.065670,0.268235,-1.050234,-0.203216,1.366545,3.181776,1.615897,-0.079495,0.074926,0.000000,-0.105320,-0.028838,-0.000000
5.030000,2.288367,1.881460,-1.489033,0.461956,0.884827,-0.017257,-0.728724,-0.788788,0.063718,0.281958,-1.017708,-0.186864,1.377355,3.322635,1.651076,-0.080532,0.074631,0.000000,-0.102099,-0.030097,0.000000
5.040000,2.292950,1.890269,-1.489202,0.454683,0.876888,-0.016629,-0.725835,-0.798799,0.061932,0.295782,-0.983781,-0.170195,1.387586,3.462926,1.683542,-0.081537,0.074322,0.000000,-0.098747,-0.031364,-0.000000
5.050000,2.297460,1.898998,-1.489366,0.447440,0.868851,-0.016018,-0.722808,-0.808463,0.060315,0.309710,-0.948450,-0.153193,1.397592,3.602882,1.715575,-0.082507,0.074001,0.000000,-0.095264,-0.032640,0.000000
5.060000,2.301899,1.907646,-1.489523,0.440227,0.860719,-0.015423,-0.719641,-0.817768,0.058869,0.323734,-0.911723,-0.135883,1.405907,3.741205,1.741353,-0.083442,0.073667,0.000000,-0.091649,-0.033924,0.000000
5.070000,2.306265,1.916212,-1.489674,0.433047,0.852496,-0.014841,-0.716334,-0.826698,0.057597,0.337828,-0.873626,-0.118366,1.411588,3.876546,1.755348,-0.084340,0.073320,0.000000,-0.087905,-0.035216,0.000000
5.080000,2.310560,1.924696,-1.489820,0.425900,0.844185,-0.014271,-0.712885,-0.835240,0.056501,0.351966,-0.834192,-0.100777,1.415061,4.008924,1.759296,-0.085200,0.072960,0.000000,-0.084033,-0.036513,0.000000
5.090000,2.314783,1.933096,-1.489959,0.418789,0.835791,-0.013711,-0.709294,-0.843382,0.055581,0.366130,-0.793447,-0.083180,1.417555,4.139562,1.760459,-0.086021,0.072587,0.000000,-0.080036,-0.037814,-0.000000
5.100000,2.318935,1.941412,-1.490094,0.411715,0.827317,-0.013159,-0.705562,-0.851109,0.054838,0.380317,-0.751401,-0.065567,1.419440,4.268653,1.760668,-0.086801,0.072201,0.000000,-0.075913,-0.039119,0.000000
5.110000,2.323017,1.949642,-1.490223,0.404678,0.818769,-0.012614,-0.701688,-0.858410,0.054270,0.394518,-0.708074,-0.047967,1.419879,4.394923,1.755154,-0.087539,0.071802,0.000000,-0.071666,-0.040428,0.000000
5.120000,2.327029,1.957787,-1.490346,0.397681,0.810149,-0.012074,-0.697672,-0.865271,0.053878,0.408714,-0.663503,-0.030464,1.417936,4.517091,1.739775,-0.088234,0.071390,0.000000,-0.067298,-0.041739,0.000000
5.130000,2.330971,1.965845,-1.490464,0.390724,0.801463,-0.011537,-0.693514,-0.871680,0.053661,0.422877,-0.617732,-0.013171,1.413876,4.635188,1.716109,-0.088885,0.070964,0.000000,-0.062811,-0.043051,-0.000000
5.140000,2.334843,1.973816,-1.490577,0.383810,0.792715,-0.011001,-0.689214,-0.877625,0.053615,0.436992,-0.570799,0.003858,1.408949,4.750338,1.689800,-0.089491,0.070525,0.000000,-0.058209,-0.044362,0.000000
5.150000,2.338647,1.981700,-1.490684,0.376940,0.783911,-0.010464,-0.684774,-0.883096,0.053738,0.451056,-0.522726,0.020625,1.403392,4.862779,1.662183,-0.090049,0.070073,0.000000,-0.053492,-0.045672,0.000000
5.160000,2.342382,1.989494,-1.490786,0.370115,0.775054,-0.009926,-0.680193,-0.888080,0.054027,0.465060,-0.473543,0.037102,1.396394,4.971335,1.629725,-0.090561,0.069608,0.000000,-0.048664,-0.046981,0.000000
5.170000,2.346049,1.997201,-1.490883,0.363336,0.766149,-0.009384,-0.675473,-0.892567,0.054480,0.478984,-0.423299,0.053219,1.387531,5.074640,1.589795,-0.091023,0.069130,0.000000,-0.043727,-0.048288,-0.000000
5.180000,2.349649,2.004817,-1.490974,0.356606,0.757202,-0.008836,-0.670613,-0.896546,0.055092,0.492810,-0.372050,0.068897,1.377113,5.172747,1.543745,-0.091435,0.068638,0.000000,-0.038686,-0.049590,0.000000
5.190000,2.353182,2.012345,-1.491059,0.349924,0.748218,-0.008282,-0.665616,-0.900008,0.055858,0.506526,-0.319844,0.084094,1.365715,5.266935,1.495369,-0.091796,0.068134,0.000000,-0.033545,-0.050888,0.000000
5.200000,2.356647,2.019782,-1.491139,0.343293,0.739202,-0.007719,-0.660483,-0.902943,0.056774,0.520125,-0.266712,0.098805,1.353378,5.357266,1.445454,-0.092106,0.067616,0.000000,-0.028306,-0.052180,0.000000
5.210000,2.360047,2.027129,-1.491214,0.336714,0.730159,-0.007146,-0.655214,-0.905342,0.057834,0.533594,-0.212699,0.113003,1.339783,5.442518,1.391831,-0.092363,0.067086,0.000000,-0.022972,-0.053466,-0.000000
5.220000,2.363382,2.034385,-1.491282,0.330189,0.721095,-0.006562,-0.649811,-0.907197,0.059034,0.546920,-0.157861,0.126641,1.324942,5.521889,1.333383,-0.092565,0.066542,0.000000,-0.017548,-0.054744,0.000000
5.230000,2.366651,2.041551,-1.491345,0.323718,0.712015,-0.005966,-0.644276,-0.908499,0.060367,0.560093,-0.102261,0.139671,1.309022,5.595512,1.271155,-0.092714,0.065986,0.000000,-0.012039,-0.056014,-0.000000
5.240000,2.369856,2.048625,-1.491402,0.317303,0.702925,-0.005355,-0.638609,-0.909242,0.061827,0.573101,-0.045951,0.152065,1.292059,5.663908,1.207048,-0.092806,0.065417,0.000000,-0.006450,-0.057274,-0.000000
5.250000,2.372997,2.055609,-1.491452,0.310946,0.693831,-0.004729,-0.632814,-0.909418,0.063408,0.585934,0.011017,0.163812,1.273943,5.726947,1.141312,-0.092843,0.064836,0.000000,-0.000785,-0.058525,0.000000
5.260000,2.376075,2.062502,-1.491496,0.304647,0.684737,-0.004087,-0.626890,-0.909021,0.065103,0.598579,0.068588,0.174891,1.254709,5.783957,1.073128,-0.092822,0.064242,0.000000,0.004951,-0.059764,0.000000
5.270000,2.379090,2.069304,-1.491534,0.298408,0.675650,-0.003427,-0.620842,-0.908046,0.066906,0.611028,0.126697,0.185274,1.234821,5.834535,1.002787,-0.092744,0.063635,0.000000,0.010753,-0.060990,0.000000
5.280000,2.382043,2.076015,-1.491565,0.292230,0.666576,-0.002749,-0.614670,-0.906488,0.068809,0.623276,0.185278,0.194947,1.214358,5.878647,0.930986,-0.092607,0.063017,0.000000,0.016614,-0.062204,-0.000000
5.290000,2.384935,2.082635,-1.491589,0.286115,0.657520,-0.002051,-0.608376,-0.904341,0.070805,0.635315,0.244269,0.203894,1.192702,5.916374,0.857858,-0.092411,0.062386,0.000000,0.022530,-0.063405,-0.000000
5.300000,2.387765,2.089165,-1.491606,0.280063,0.648489,-0.001333,-0.601964,-0.901602,0.072887,0.647130,0.303606,0.212104,1.169660,5.947514,0.783129,-0.092156,0.061743,0.000000,0.028494,-0.064590,0.000000
5.310000,2.390536,2.095605,-1.491615,0.274076,0.639488,-0.000593,-0.595434,-0.898269,0.075047,0.658708,0.363220,0.219557,1.145758,5.971664,0.707171,-0.091841,0.061088,0.000000,0.034499,-0.065759,0.000000
5.320000,2.393247,2.101955,-1.491618,0.268154,0.630524,0.000168,-0.588789,-0.894338,0.077278,0.670045,0.423039,0.226247,1.121603,5.988575,0.631579,-0.091466,0.060422,0.000000,0.040540,-0.066912,0.000000
5.330000,2.395899,2.108216,-1.491612,0.262300,0.621602,0.000952,-0.582033,-0.889808,0.079572,0.681140,0.482991,0.232188,1.097131,5.998142,0.556733,-0.091030,0.059745,0.000000,0.046609,-0.068046,0.000000
5.340000,2.398493,2.114387,-1.491599,0.256513,0.612728,0.001760,-0.575167,-0.884678,0.081922,0.691988,0.543002,0.237382,1.071510,6.000295,0.481053,-0.090534,0.059056,0.000000,0.052698,-0.069163,0.000000
5.350000,2.401029,2.120470,-1.491577,0.250796,0.603908,0.002591,-0.568193,-0.878948,0.084320,0.702571,0.602997,0.241809,1.044285,5.994714,0.403853,-0.089976,0.058356,0.000000,0.058801,-0.070260,0.000000
5.360000,2.403509,2.126465,-1.491547,0.245150,0.595149,0.003446,-0.561115,-0.872618,0.086758,0.712873,0.662896,0.245459,1.016119,5.981103,0.326675,-0.089358,0.057645,0.000000,0.064910,-0.071335,0.000000
5.370000,2.405932,2.132373,-1.491508,0.239574,0.586456,0.004326,-0.553936,-0.865690,0.089229,0.722893,0.722619,0.248343,0.988206,5.959699,0.252040,-0.088678,0.056923,0.000000,0.071016,-0.072388,0.000000
5.380000,2.408300,2.138194,-1.491460,0.234071,0.577835,0.005231,-0.546657,-0.858166,0.091725,0.732638,0.782090,0.250500,0.960424,5.930397,0.179925,-0.087938,0.056191,0.000000,0.077112,-0.073420,0.000000
5.390000,2.410614,2.143930,-1.491403,0.228641,0.569292,0.006160,-0.539283,-0.850048,0.094239,0.742101,0.841227,0.251941,0.931217,5.892377,0.107492,-0.087136,0.055449,0.000000,0.083188,-0.074428,-0.000000
5.400000,2.412873,2.149580,-1.491337,0.223285,0.560834,0.007115,-0.531815,-0.841341,0.096763,0.751262,0.899938,0.252649,0.900050,5.845282,0.033765,-0.086274,0.054697,0.000000,0.089237,-0.075412,0.000000
5.410000,2.415079,2.155147,-1.491261,0.218005,0.552465,0.008096,-0.524258,-0.832049,0.099292,0.760102,0.958133,0.252617,0.868030,5.789372,-0.038923,-0.085351,0.053935,0.000000,0.095247,-0.076368,-0.000000
5.420000,2.417233,2.160630,-1.491175,0.212800,0.544193,0.009101,-0.516613,-0.822178,0.101816,0.768622,1.015725,0.251871,0.836423,5.724686,-0.107389,-0.084369,0.053164,0.000000,0.101211,-0.077296,-0.000000
5.430000,2.419335,2.166030,-1.491079,0.207672,0.536022,0.010132,-0.508885,-0.811735,0.104329,0.776831,1.072627,0.250469,0.804887,5.650817,-0.171928,-0.083327,0.052384,0.000000,0.107118,-0.078198,0.000000
5.440000,2.421387,2.171350,-1.490973,0.202622,0.527958,0.011188,-0.501077,-0.800726,0.106825,0.784720,1.128742,0.248432,0.771780,5.567311,-0.236327,-0.082226,0.051595,0.000000,0.112957,-0.079071,0.000000
5.450000,2.423388,2.176590,-1.490855,0.197651,0.520007,0.012268,-0.493191,-0.789160,0.109298,0.792267,1.183973,0.245742,0.736717,5.474272,-0.301782,-0.081068,0.050797,0.000000,0.118720,-0.079913,0.000000
5.460000,2.425340,2.181750,-1.490727,0.192759,0.512175,0.013374,-0.485231,-0.777046,0.111740,0.799455,1.238227,0.242397,0.700761,5.371632,-0.365387,-0.079852,0.049991,0.000000,0.124395,-0.080722,0.000000
5.470000,2.427243,2.186833,-1.490588,0.187946,0.504466,0.014503,-0.477202,-0.764395,0.114146,0.806282,1.291405,0.238435,0.664850,5.258357,-0.423629,-0.078580,0.049177,0.000000,0.129971,-0.081497,-0.000000
5.480000,2.429099,2.191839,-1.490437,0.183215,0.496887,0.015657,-0.469106,-0.751218,0.116509,0.812752,1.343394,0.233924,0.628706,5.134175,-0.477055,-0.077253,0.048356,0.000000,0.135437,-0.082238,-0.000000
5.490000,2.430907,2.196771,-1.490275,0.178564,0.489442,0.016833,-0.460947,-0.737528,0.118824,0.818856,1.394089,0.228894,0.591021,5.000046,-0.529964,-0.075871,0.047528,0.000000,0.140779,-0.082944,0.000000
5.500000,2.432670,2.201628,-1.490100,0.173996,0.482137,0.018033,-0.452729,-0.723337,0.121087,0.824572,1.443395,0.223325,0.551277,4.856030,-0.583630,-0.074437,0.046692,0.000000,0.145989,-0.083612,0.000000
5.510000,2.434387,2.206414,-1.489914,0.169510,0.474975,0.019255,-0.444455,-0.708660,0.123291,0.829881,1.491210,0.217221,0.510333,4.701161,-0.634889,-0.072951,0.045851,0.000000,0.151053,-0.084241,0.000000
5.520000,2.436060,2.211128,-1.489715,0.165106,0.467963,0.020499,-0.436131,-0.693512,0.125431,0.834779,1.537418,0.210627,0.469378,4.534751,-0.680223,-0.071416,0.045003,0.000000,0.155961,-0.084828,-0.000000
5.530000,2.437689,2.215773,-1.489504,0.160787,0.461105,0.021764,-0.427760,-0.677911,0.127503,0.839269,1.581905,0.203617,0.428127,4.356803,-0.720373,-0.069832,0.044150,0.000000,0.160697,-0.085374,-0.000000
5.540000,2.439276,2.220350,-1.489280,0.156551,0.454405,0.023049,-0.419346,-0.661874,0.129503,0.843341,1.624554,0.196220,0.384857,4.167723,-0.759794,-0.068202,0.043292,0.000000,0.165250,-0.085878,-0.000000
5.550000,2.440820,2.224861,-1.489043,0.152400,0.447868,0.024354,-0.410893,-0.645420,0.131428,0.846966,1.665259,0.188421,0.339162,3.967741,-0.799599,-0.066527,0.042428,0.000000,0.169607,-0.086336,-0.000000
5.560000,2.442324,2.229307,-1.488793,0.148333,0.441497,0.025678,-0.402406,-0.628569,0.133272,0.850124,1.703909,0.180228,0.292196,3.756327,-0.836567,-0.064810,0.041561,0.000000,0.173756,-0.086745,0.000000
5.570000,2.443787,2.233691,-1.488530,0.144352,0.435296,0.027019,-0.393890,-0.611342,0.135032,0.852810,1.740386,0.171689,0.244812,3.532256,-0.867731,-0.063052,0.040690,0.000000,0.177684,-0.087105,-0.000000
5.580000,2.445211,2.238013,-1.488253,0.140456,0.429270,0.028378,-0.385350,-0.593761,0.136706,0.855021,1.774554,0.162873,0.196639,3.295372,-0.893957,-0.061256,0.039815,0.000000,0.181374,-0.087416,0.000000
5.590000,2.446596,2.242276,-1.487962,0.136645,0.423421,0.029753,-0.376790,-0.575851,0.138290,0.856743,1.806293,0.153810,0.146315,3.046828,-0.919103,-0.059425,0.038938,0.000000,0.184815,-0.087674,-0.000000
5.600000,2.447944,2.246482,-1.487657,0.132920,0.417753,0.031144,-0.368215,-0.557635,0.139782,0.857947,1.835491,0.144491,0.093215,2.786961,-0.944186,-0.057560,0.038059,0.000000,0.187993,-0.087878,0.000000
5.610000,2.449255,2.250631,-1.487339,0.129281,0.412268,0.032549,-0.359631,-0.539141,0.141179,0.858607,1.862032,0.134926,0.038238,2.514713,-0.966514,-0.055665,0.037178,0.000000,0.190895,-0.088024,0.000000
5.620000,2.450529,2.254727,-1.487007,0.125727,0.406970,0.033968,-0.351043,-0.520395,0.142480,0.858712,1.885785,0.125161,-0.017341,2.228679,-0.983594,-0.053742,0.036296,0.000000,0.193507,-0.088111,0.000000
5.630000,2.451769,2.258771,-1.486660,0.122260,0.401860,0.035399,-0.342457,-0.501425,0.143683,0.858260,1.906606,0.115255,-0.073751,1.928979,-0.996202,-0.051795,0.035413,0.000000,0.195812,-0.088137,-0.000000
5.640000,2.452975,2.262764,-1.486299,0.118878,0.396942,0.036841,-0.333878,-0.482263,0.144785,0.857237,1.924365,0.105237,-0.132866,1.617090,-1.007587,-0.049826,0.034531,0.000000,0.197797,-0.088102,-0.000000
5.650000,2.454147,2.266710,-1.485923,0.115582,0.392215,0.038294,-0.325312,-0.462938,0.145787,0.855603,1.938948,0.095103,-0.196068,1.292936,-1.018516,-0.047839,0.033649,0.000000,0.199448,-0.088001,-0.000000
5.660000,2.455286,2.270609,-1.485533,0.112372,0.387683,0.039757,-0.316766,-0.443484,0.146687,0.853315,1.950224,0.084866,-0.262153,0.955288,-1.026813,-0.045837,0.032769,0.000000,0.200752,-0.087830,-0.000000
5.670000,2.456394,2.274463,-1.485128,0.109247,0.383346,0.041228,-0.308246,-0.423934,0.147485,0.850360,1.958053,0.074567,-0.327753,0.603987,-1.030805,-0.043824,0.031890,0.000000,0.201692,-0.087586,-0.000000
5.680000,2.457471,2.278275,-1.484708,0.106207,0.379204,0.042707,-0.299759,-0.404323,0.148179,0.846760,1.962303,0.064250,-0.393225,0.239086,-1.031228,-0.041803,0.031015,0.000000,0.202256,-0.087273,0.000000
5.690000,2.458518,2.282047,-1.484274,0.103252,0.375259,0.044192,-0.291311,-0.384688,0.148770,0.842495,1.962835,0.053942,-0.463382,-0.139579,-1.030305,-0.039779,0.030143,0.000000,0.202427,-0.086888,0.000000
5.700000,2.459536,2.285781,-1.483824,0.100381,0.371510,0.045682,-0.282909,-0.365066,0.149258,0.837493,1.959512,0.043644,-0.539372,-0.531001,-1.028443,-0.037754,0.029276,0.000000,0.202191,-0.086422,-0.000000
5.710000,2.460526,2.289477,-1.483360,0.097593,0.367958,0.047177,-0.274561,-0.345497,0.149643,0.831708,1.952215,0.033373,-0.618117,-0.935394,-1.024243,-0.035735,0.028414,0.000000,0.201535,-0.085872,0.000000
5.720000,2.461488,2.293140,-1.482881,0.094889,0.364600,0.048675,-0.266275,-0.326022,0.149925,0.825130,1.940804,0.023159,-0.697917,-1.356568,-1.016956,-0.033724,0.027557,0.000000,0.200445,-0.085237,-0.000000
5.730000,2.462424,2.296769,-1.482386,0.092268,0.361437,0.050175,-0.258058,-0.306681,0.150106,0.817750,1.925084,0.013034,-0.783381,-1.798941,-1.007151,-0.031726,0.026708,0.000000,0.198900,-0.084515,0.000000
5.740000,2.463334,2.300369,-1.481877,0.089728,0.358467,0.051677,-0.249920,-0.287520,0.150186,0.809463,1.904825,0.003016,-0.876021,-2.256443,-0.995892,-0.029746,0.025866,0.000000,0.196877,-0.083696,0.000000
