time,x,y,z,vx,vy,vz,ax,ay,az,jx,jy,jz,sx,sy,sz,roll,pitch,yaw,p,q,r
0.000000,-2.839880,-2.175015,-1.447291,0.016436,-0.009612,-0.001512,-0.718966,0.390410,-0.071206,18.322301,-13.013829,1.581549,-340.501188,371.757368,-43.898114,0.039386,0.072633,0.000000,-1.299975,-1.831487,-0.000000
0.010000,-2.839749,-2.175093,-1.447309,0.010108,-0.006299,-0.002152,-0.551927,0.277943,-0.057482,15.167619,-9.568761,1.173409,-291.261490,318.162952,-37.826195,0.028116,0.055876,0.000000,-0.961708,-1.525104,-0.000000
0.020000,-2.839673,-2.175144,-1.447333,0.005301,-0.003947,-0.002675,-0.414054,0.197337,-0.047545,12.480947,-6.632889,0.823148,-246.859209,269.872706,-32.317396,0.019999,0.041979,0.000000,-0.669285,-1.260148,-0.000000
0.030000,-2.839639,-2.175174,-1.447362,0.001745,-0.002262,-0.003114,-0.300905,0.143761,-0.040845,10.215113,-4.154535,0.525278,-207.053492,226.613958,-27.343593,0.014586,0.030537,0.000000,-0.420219,-1.034274,-0.000000
0.040000,-2.839635,-2.175190,-1.447395,-0.000787,-0.000996,-0.003501,-0.208498,0.112885,-0.036883,8.325358,-2.084747,0.274587,-171.603480,188.114056,-22.876681,0.011461,0.021171,0.000000,-0.211117,-0.844457,0.000000
0.050000,-2.839652,-2.175195,-1.447432,-0.002483,0.000058,-0.003859,-0.133286,0.100858,-0.035212,6.769328,-0.377300,0.066150,-140.268247,154.100277,-18.888324,0.010243,0.013537,0.000000,-0.038152,-0.687323,0.000000
0.060000,-2.839682,-2.175189,-1.447472,-0.003499,0.001073,-0.004211,-0.072133,0.104277,-0.035434,5.507080,1.011303,-0.104681,-112.807025,124.299998,-15.350623,0.010591,0.007326,0.000000,0.102635,-0.559370,0.000000
0.070000,-2.839720,-2.175173,-1.447516,-0.003963,0.002186,-0.004573,-0.022290,0.120158,-0.037195,4.501077,2.121836,-0.242271,-88.978926,98.440525,-12.235363,0.012202,0.002264,0.000000,0.215156,-0.457112,0.000000
0.080000,-2.839760,-2.175145,-1.447564,-0.003975,0.003509,-0.004959,0.018626,0.145914,-0.040182,3.716194,2.992341,-0.350703,-68.543106,76.249169,-9.514434,0.014812,-0.001891,0.000000,0.303180,-0.377162,0.000000
0.090000,-2.839798,-2.175102,-1.447616,-0.003613,0.005129,-0.005380,0.052661,0.179323,-0.044124,3.119711,3.658137,-0.433780,-51.258716,57.453226,-7.159758,0.018195,-0.005344,0.000000,0.370269,-0.316293,0.000000
0.100000,-2.839831,-2.175041,-1.447672,-0.002939,0.007114,-0.005844,0.081547,0.218503,-0.048785,2.681320,4.151818,-0.495021,-36.884670,41.780309,-5.142789,0.022159,-0.008271,0.000000,0.419746,-0.271472,-0.000000
0.110000,-2.839856,-2.174958,-1.447733,-0.001995,0.009513,-0.006357,0.106721,0.261885,-0.053963,2.373119,4.503245,-0.537667,-25.180417,28.957387,-3.435889,0.026542,-0.010819,0.000000,0.454672,-0.239882,-0.000000
0.120000,-2.839870,-2.174849,-1.447799,-0.000813,0.012362,-0.006924,0.129358,0.308184,-0.059487,2.169616,4.739557,-0.564678,-15.904976,18.711919,-2.010738,0.031213,-0.013106,0.000000,0.477840,-0.218936,0.000000
0.130000,-2.839871,-2.174710,-1.447871,0.000587,0.015683,-0.007548,0.150385,0.356374,-0.065213,2.047727,4.885166,-0.578728,-8.817470,10.771234,-0.839200,0.036068,-0.015227,0.000000,0.491764,-0.206286,0.000000
0.140000,-2.839858,-2.174534,-1.447950,0.002192,0.019493,-0.008229,0.170515,0.405658,-0.071026,1.986777,4.961755,-0.582213,-3.676948,4.862668,0.106853,0.041025,-0.017255,0.000000,0.498675,-0.199825,0.000000
0.150000,-2.839827,-2.174318,-1.448036,0.003996,0.023798,-0.008968,0.190263,0.455443,-0.076829,1.968502,4.988284,-0.577248,-0.242286,0.713574,0.855530,0.046025,-0.019242,0.000000,0.500519,-0.197697,0.000000
0.160000,-2.839777,-2.174057,-1.448130,0.005997,0.028602,-0.009765,0.209974,0.505311,-0.082549,1.977033,4.980983,-0.565666,1.725854,-1.948791,1.435086,0.051024,-0.021222,0.000000,0.498958,-0.198289,0.000000
0.170000,-2.839706,-2.173744,-1.448232,0.008196,0.033904,-0.010619,0.229848,0.554995,-0.088126,1.998933,4.953355,-0.549017,2.470134,-3.397032,1.873531,0.055997,-0.023217,0.000000,0.495372,-0.200240,-0.000000
0.180000,-2.839612,-2.173377,-1.448342,0.010595,0.039701,-0.011527,0.249960,0.604347,-0.093517,2.023157,4.916180,-0.528572,2.230763,-3.903822,2.199036,0.060929,-0.025234,0.000000,0.490855,-0.202434,-0.000000
0.190000,-2.839494,-2.172949,-1.448462,0.013196,0.045989,-0.012488,0.270290,0.653314,-0.098688,2.041072,4.877508,-0.505319,1.248568,-3.741772,2.439725,0.065814,-0.027271,0.000000,0.486222,-0.204002,-0.000000
0.200000,-2.839348,-2.172455,-1.448592,0.016001,0.052766,-0.013500,0.290740,0.701910,-0.103616,2.046455,4.842662,-0.479965,-0.235520,-3.183887,2.623835,0.070654,-0.029319,0.000000,0.482010,-0.204322,0.000000
0.210000,-2.839173,-2.171892,-1.448733,0.019013,0.060023,-0.014560,0.312040,0.748994,-0.108150,2.235916,4.540971,-0.422704,1.981209,-7.904312,3.377008,0.075337,-0.031451,0.000000,0.451298,-0.223239,-0.000000
0.220000,-2.838967,-2.171253,-1.448884,0.022241,0.067746,-0.015662,0.332594,0.796574,-0.112488,1.753265,5.137762,-0.462619,-63.501432,79.503399,-6.079208,0.080063,-0.033507,0.000000,0.510005,-0.174376,0.000000
0.230000,-2.838728,-2.170535,-1.449046,0.025648,0.075976,-0.016811,0.348800,0.849375,-0.117132,1.701122,5.128178,-0.433401,54.154228,-82.910511,12.084346,0.085301,-0.035122,0.000000,0.508304,-0.169001,0.000000
0.240000,-2.838453,-2.169732,-1.449220,0.029231,0.084711,-0.018002,0.368488,0.896518,-0.120860,2.127381,4.445981,-0.327922,-4.278867,-5.300768,3.672105,0.089970,-0.037088,0.000000,0.440113,-0.211841,-0.000000
0.250000,-2.838142,-2.168839,-1.449406,0.033018,0.093902,-0.019226,0.388604,0.941966,-0.124092,1.915840,4.612686,-0.314730,-2.771174,-9.427558,4.280001,0.094467,-0.039098,0.000000,0.456168,-0.190470,0.000000
0.260000,-2.837792,-2.167853,-1.449605,0.037000,0.103550,-0.020482,0.407804,0.987541,-0.127023,1.928437,4.498902,-0.271159,-2.644907,-10.722399,4.509085,0.098972,-0.041016,0.000000,0.444484,-0.191679,0.000000
0.270000,-2.837402,-2.166767,-1.449816,0.041173,0.113649,-0.021765,0.426532,1.032112,-0.129501,1.789949,4.422336,-0.223918,-17.353165,-7.099229,4.855795,0.103374,-0.042887,0.000000,0.436683,-0.177834,0.000000
0.280000,-2.836968,-2.165578,-1.450040,0.045526,0.124190,-0.023071,0.443965,1.075831,-0.131499,1.743054,4.304237,-0.175787,8.217853,-16.588581,4.762546,0.107690,-0.044628,0.000000,0.424808,-0.173185,0.000000
0.290000,-2.836491,-2.164282,-1.450277,0.050054,0.135160,-0.024394,0.461796,1.118029,-0.133016,1.798638,4.141744,-0.127202,-4.869046,-13.355683,5.027413,0.111854,-0.046411,0.000000,0.408569,-0.178788,-0.000000
0.300000,-2.835967,-2.162874,-1.450528,0.054761,0.146546,-0.025729,0.479327,1.158832,-0.134033,1.711761,4.015753,-0.076017,-4.754014,-14.366314,5.125703,0.115879,-0.048165,0.000000,0.396148,-0.170224,-0.000000
0.310000,-2.835395,-2.161350,-1.450792,0.059639,0.158332,-0.027073,0.496237,1.198272,-0.134539,1.670560,3.871408,-0.025237,-4.944066,-15.078900,5.178797,0.119770,-0.049859,0.000000,0.381973,-0.166245,-0.000000
0.320000,-2.834773,-2.159706,-1.451069,0.064684,0.170506,-0.028418,0.512614,1.236189,-0.134524,1.599546,3.708998,0.028870,-7.838032,-16.820145,5.487234,0.123512,-0.051502,0.000000,0.366164,-0.159347,-0.000000
0.330000,-2.834101,-2.157938,-1.451360,0.069889,0.183051,-0.029761,0.528289,1.272458,-0.133968,1.543627,3.547231,0.081256,-3.296971,-15.503613,4.979942,0.127094,-0.053077,0.000000,0.350487,-0.153976,0.000000
0.340000,-2.833375,-2.156043,-1.451665,0.075248,0.195950,-0.031096,0.543556,1.307146,-0.132907,1.505046,3.387604,0.131391,-5.844492,-16.986936,5.192899,0.130523,-0.054613,0.000000,0.335070,-0.150348,0.000000
0.350000,-2.832595,-2.154018,-1.451982,0.080758,0.209188,-0.032418,0.558273,1.340149,-0.131331,1.438954,3.212619,0.183722,-5.942604,-17.424583,5.117857,0.133790,-0.056098,0.000000,0.318273,-0.144025,-0.000000
0.360000,-2.831759,-2.151859,-1.452313,0.086412,0.222747,-0.033721,0.572366,1.371402,-0.129243,1.379581,3.037362,0.233524,-6.088310,-17.811418,5.003504,0.136889,-0.057523,0.000000,0.301495,-0.138384,-0.000000
0.370000,-2.830866,-2.149562,-1.452656,0.092203,0.236610,-0.035001,0.585847,1.400868,-0.126651,1.315793,2.854806,0.285221,-6.509783,-18.499751,5.170081,0.139817,-0.058890,0.000000,0.284106,-0.132342,0.000000
0.380000,-2.829915,-2.147125,-1.453013,0.098126,0.250758,-0.036252,0.598686,1.428497,-0.123551,1.252727,2.671552,0.333449,-6.094813,-18.134943,4.465824,0.142571,-0.060196,0.000000,0.266674,-0.126375,0.000000
0.390000,-2.828903,-2.144546,-1.453381,0.104175,0.265174,-0.037470,0.610907,1.454302,-0.119997,1.190825,2.488469,0.377707,-6.438998,-18.663411,4.544136,0.145151,-0.061444,0.000000,0.249267,-0.120520,-0.000000
0.400000,-2.827831,-2.141821,-1.453762,0.110342,0.279838,-0.038651,0.622488,1.478245,-0.115991,1.125347,2.300099,0.422868,-6.496221,-18.810555,4.321557,0.147554,-0.062631,0.000000,0.231413,-0.114335,0.000000
0.410000,-2.826696,-2.138948,-1.454154,0.116622,0.294733,-0.039789,0.633414,1.500303,-0.111554,1.059882,2.111378,0.464219,-6.548230,-18.916484,4.071549,0.149779,-0.063756,0.000000,0.213519,-0.108143,-0.000000
0.420000,-2.825498,-2.135926,-1.454558,0.123008,0.309838,-0.040880,0.643688,1.520471,-0.106705,0.994863,1.922018,0.505392,-6.496363,-18.955156,4.036696,0.151825,-0.064818,0.000000,0.195603,-0.102008,-0.000000
0.430000,-2.824236,-2.132751,-1.454972,0.129494,0.325136,-0.041922,0.653309,1.538742,-0.101461,0.929093,1.732273,0.542306,-6.655977,-18.985860,3.339179,0.153691,-0.065819,0.000000,0.177620,-0.095782,0.000000
0.440000,-2.822908,-2.129422,-1.455396,0.136072,0.340607,-0.042909,0.662267,1.555116,-0.095876,0.862691,1.542619,0.574604,-6.577241,-18.929452,3.241686,0.155377,-0.066757,0.000000,0.159602,-0.089471,-0.000000
0.450000,-2.821514,-2.125938,-1.455830,0.142737,0.356232,-0.043838,0.670567,1.569598,-0.089970,0.797238,1.353771,0.606031,-6.555942,-18.841240,2.918005,0.156883,-0.067631,0.000000,0.141668,-0.083254,-0.000000
0.460000,-2.820053,-2.122297,-1.456272,0.149482,0.371992,-0.044707,0.678211,1.582194,-0.083770,0.731628,1.165756,0.633263,-6.520567,-18.714489,2.582840,0.158210,-0.068442,0.000000,0.123760,-0.076996,0.000000
0.470000,-2.818524,-2.118498,-1.456724,0.156299,0.387869,-0.045513,0.685204,1.592921,-0.077311,0.667272,0.979987,0.658170,-6.389444,-18.471811,2.342236,0.159359,-0.069191,0.000000,0.106039,-0.070847,0.000000
0.480000,-2.816927,-2.114540,-1.457182,0.163184,0.403844,-0.046252,0.691556,1.601799,-0.070621,0.603020,0.795627,0.678929,-6.459830,-18.395222,1.806565,0.160331,-0.069877,0.000000,0.088387,-0.064679,0.000000
0.490000,-2.815260,-2.110421,-1.457648,0.170128,0.419899,-0.046924,0.697265,1.608839,-0.063747,0.538964,0.612995,0.695389,-6.307085,-18.085727,1.539761,0.161127,-0.070501,0.000000,0.070825,-0.058496,-0.000000
0.500000,-2.813524,-2.106142,-1.458121,0.177127,0.436015,-0.047527,0.702342,1.614070,-0.056721,0.476572,0.433688,0.709244,-6.210803,-17.809200,1.175537,0.161749,-0.071063,0.000000,0.053530,-0.052455,-0.000000
0.510000,-2.811718,-2.101701,-1.458599,0.184173,0.452175,-0.048058,0.706798,1.617521,-0.049575,0.414952,0.256962,0.719318,-6.099275,-17.501081,0.815905,0.162198,-0.071564,0.000000,0.036407,-0.046456,0.000000
0.520000,-2.809840,-2.097098,-1.459082,0.191261,0.468360,-0.048518,0.710646,1.619223,-0.042348,0.354739,0.084041,0.725350,-5.952496,-17.107075,0.413445,0.162478,-0.072005,0.000000,0.019565,-0.040561,0.000000
0.530000,-2.807892,-2.092333,-1.459569,0.198384,0.484553,-0.048905,0.713897,1.619212,-0.035079,0.295709,-0.085692,0.728074,-5.851728,-16.835830,0.132838,0.162590,-0.072386,0.000000,0.002952,-0.034749,0.000000
0.540000,-2.805873,-2.087407,-1.460060,0.205537,0.500738,-0.049220,0.716564,1.617520,-0.027798,0.237975,-0.252004,0.727566,-5.681626,-16.393193,-0.256271,0.162538,-0.072709,0.000000,-0.013411,-0.029033,-0.000000
0.550000,-2.803781,-2.082319,-1.460553,0.212713,0.516898,-0.049461,0.718663,1.614188,-0.020541,0.182023,-0.413723,0.723166,-5.518408,-15.975610,-0.599096,0.162323,-0.072975,0.000000,-0.029422,-0.023455,0.000000
0.560000,-2.801618,-2.077069,-1.461049,0.219908,0.533017,-0.049631,0.720210,1.609259,-0.013343,0.127779,-0.571407,0.716019,-5.341378,-15.536041,-0.922972,0.161950,-0.073185,0.000000,-0.045118,-0.018015,-0.000000
0.570000,-2.799383,-2.071659,-1.461545,0.227116,0.549078,-0.049728,0.721223,1.602777,-0.006239,0.075114,-0.724175,0.703877,-5.177245,-15.035305,-1.411690,0.161422,-0.073341,0.000000,-0.060449,-0.012684,-0.000000
0.580000,-2.797076,-2.066088,-1.462043,0.234331,0.565067,-0.049756,0.721720,1.594790,0.000729,0.024534,-0.872492,0.689754,-4.936626,-14.625721,-1.407581,0.160743,-0.073443,0.000000,-0.075413,-0.007535,-0.000000
0.590000,-2.794697,-2.060357,-1.462540,0.241548,0.580969,-0.049714,0.721722,1.585342,0.007551,-0.023838,-1.016208,0.673922,-4.748940,-14.093486,-1.848608,0.159915,-0.073494,0.000000,-0.089990,-0.002582,0.000000
0.600000,-2.792245,-2.054469,-1.463037,0.248764,0.596770,-0.049605,0.721249,1.574484,0.014191,-0.070305,-1.154491,0.653624,-4.530312,-13.581969,-2.115946,0.158944,-0.073496,0.000000,-0.104139,0.002224,0.000000
0.610000,-2.789721,-2.048422,-1.463532,0.255972,0.612454,-0.049431,0.720324,1.562268,0.020621,-0.114324,-1.287839,0.631980,-4.298920,-13.059003,-2.354053,0.157834,-0.073450,0.000000,-0.117859,0.006805,0.000000
0.620000,-2.787126,-2.042220,-1.464025,0.263169,0.628011,-0.049194,0.718968,1.548747,0.026811,-0.156471,-1.415397,0.605291,-4.105327,-12.475769,-2.841094,0.156589,-0.073358,0.000000,-0.131119,0.011246,0.000000
0.630000,-2.784458,-2.035863,-1.464516,0.270350,0.643425,-0.048896,0.717204,1.533977,0.032726,-0.195907,-1.537848,0.578151,-3.779882,-12.013795,-2.578872,0.155213,-0.073223,0.000000,-0.143911,0.015428,0.000000
0.640000,-2.781719,-2.029352,-1.465003,0.277512,0.658686,-0.048540,0.715060,1.518007,0.038375,-0.232522,-1.655137,0.550968,-3.565805,-11.417327,-2.994619,0.153712,-0.073047,0.000000,-0.156222,0.019334,-0.000000
0.650000,-2.778908,-2.022690,-1.465486,0.284650,0.673782,-0.048129,0.712560,1.500895,0.043729,-0.266997,-1.766395,0.519537,-3.304353,-10.857780,-3.148563,0.152090,-0.072832,0.000000,-0.168025,0.023064,-0.000000
0.660000,-2.776026,-2.015877,-1.465965,0.291762,0.688700,-0.047667,0.709730,1.482696,0.048768,-0.298587,-1.872366,0.488241,-3.035691,-10.295784,-3.270090,0.150353,-0.072581,0.000000,-0.179323,0.026508,-0.000000
0.670000,-2.773073,-2.008916,-1.466440,0.298843,0.703432,-0.047155,0.706595,1.463470,0.053477,-0.327905,-1.971932,0.452709,-2.804685,-9.655777,-3.673583,0.148506,-0.072297,0.000000,-0.190064,0.029759,0.000000
0.680000,-2.770049,-2.001809,-1.466908,0.305893,0.717967,-0.046598,0.703182,1.443275,0.057827,-0.354195,-2.066288,0.418184,-2.451989,-9.216316,-3.222520,0.146554,-0.071981,0.000000,-0.200285,0.032701,0.000000
0.690000,-2.766955,-1.994558,-1.467371,0.312906,0.732294,-0.046000,0.699522,1.422161,0.061846,-0.377385,-2.155474,0.385128,-2.207849,-8.581874,-3.544777,0.144502,-0.071637,0.000000,-0.209981,0.035323,-0.000000
0.700000,-2.763791,-1.987164,-1.467828,0.319882,0.746407,-0.045363,0.695642,1.400187,0.065515,-0.398141,-2.238264,0.348731,-1.921522,-8.015019,-3.570874,0.142356,-0.071267,0.000000,-0.219093,0.037724,0.000000
0.710000,-2.760557,-1.979630,-1.468279,0.326819,0.760296,-0.044691,0.691570,1.377412,0.068828,-0.415854,-2.315892,0.313797,-1.633163,-7.454226,-3.565862,0.140122,-0.070876,0.000000,-0.227670,0.039807,0.000000
0.720000,-2.757255,-1.971959,-1.468722,0.333713,0.773953,-0.043987,0.687334,1.353893,0.071779,-0.430914,-2.386839,0.276076,-1.366479,-6.790991,-3.824983,0.137805,-0.070464,0.000000,-0.235617,0.041641,-0.000000
0.730000,-2.753883,-1.964152,-1.469158,0.340565,0.787371,-0.043256,0.682962,1.329691,0.074358,-0.442926,-2.452884,0.240512,-1.035517,-6.420716,-3.279393,0.135411,-0.070036,0.000000,-0.243038,0.043149,-0.000000
0.740000,-2.750444,-1.956212,-1.469587,0.347372,0.800544,-0.042501,0.678485,1.304851,0.076600,-0.451869,-2.514159,0.207541,-0.765404,-5.779714,-3.462039,0.132946,-0.069594,0.000000,-0.249938,0.044326,0.000000
0.750000,-2.746936,-1.948142,-1.470008,0.354134,0.813466,-0.041725,0.673933,1.279431,0.078499,-0.458134,-2.568979,0.172627,-0.475354,-5.240560,-3.366947,0.130415,-0.069142,0.000000,-0.256207,0.045243,0.000000
0.760000,-2.743361,-1.939944,-1.470421,0.360851,0.826131,-0.040932,0.669333,1.253486,0.080062,-0.461460,-2.619087,0.140136,-0.187887,-4.713618,-3.247445,0.127823,-0.068683,0.000000,-0.261957,0.045840,0.000000
0.770000,-2.739719,-1.931620,-1.470827,0.367521,0.838534,-0.040125,0.664713,1.227072,0.081297,-0.461877,-2.662649,0.106644,0.101657,-4.067183,-3.331690,0.125178,-0.068219,0.000000,-0.267046,0.046146,0.000000
0.780000,-2.736011,-1.923174,-1.471224,0.374145,0.850671,-0.039307,0.660104,1.200247,0.082205,-0.459487,-2.701867,0.075999,0.375849,-3.780237,-2.790850,0.122484,-0.067754,0.000000,-0.271643,0.046142,0.000000
0.790000,-2.732236,-1.914608,-1.471613,0.380723,0.862538,-0.038482,0.655533,1.173048,0.082828,-0.454327,-2.736939,0.048539,0.657642,-3.168605,-2.815454,0.119746,-0.067290,0.000000,-0.275767,0.045831,-0.000000
0.800000,-2.728396,-1.905924,-1.471994,0.387256,0.874131,-0.037652,0.651027,1.145530,0.083173,-0.446366,-2.765850,0.020735,0.930932,-2.682924,-2.625892,0.116971,-0.066831,0.000000,-0.279253,0.045232,0.000000
0.810000,-2.724491,-1.897126,-1.472366,0.393744,0.885448,-0.036820,0.646614,1.117744,0.083254,-0.435807,-2.790674,-0.004170,1.196788,-2.213218,-2.421710,0.114163,-0.066380,0.000000,-0.282273,0.044346,0.000000
0.820000,-2.720522,-1.888216,-1.472730,0.400188,0.896485,-0.035988,0.642321,1.089738,0.083091,-0.422297,-2.809505,-0.028291,1.487818,-1.623965,-2.333743,0.111328,-0.065940,0.000000,-0.284658,0.043149,-0.000000
0.830000,-2.716488,-1.879197,-1.473086,0.406591,0.907242,-0.035158,0.638176,1.061565,0.082698,-0.406417,-2.824641,-0.049402,1.686339,-1.407590,-1.884640,0.108471,-0.065513,0.000000,-0.286614,0.041687,0.000000
0.840000,-2.712390,-1.870072,-1.473433,0.412952,0.917716,-0.034334,0.634200,1.033256,0.082114,-0.388265,-2.836312,-0.067307,1.959145,-0.859576,-1.762366,0.105597,-0.065102,0.000000,-0.288166,0.039969,0.000000
0.850000,-2.708229,-1.860844,-1.473772,0.419275,0.927907,-0.033517,0.630420,1.004859,0.081355,-0.367403,-2.842469,-0.084050,2.195406,-0.443206,-1.517891,0.102710,-0.064710,0.000000,-0.289128,0.037964,-0.000000
0.860000,-2.704005,-1.851515,-1.474104,0.425562,0.937813,-0.032708,0.626859,0.976417,0.080443,-0.344446,-2.845215,-0.097928,2.421116,-0.044996,-1.270020,0.099815,-0.064339,0.000000,-0.289696,0.035723,-0.000000
0.870000,-2.699718,-1.842088,-1.474427,0.431813,0.947435,-0.031908,0.623541,0.947972,0.079404,-0.318756,-2.842860,-0.109552,2.688331,0.453880,-1.041901,0.096918,-0.063993,0.000000,-0.289707,0.033186,-0.000000
0.880000,-2.695369,-1.832567,-1.474742,0.438033,0.956773,-0.031120,0.620490,0.919570,0.078261,-0.291275,-2.837437,-0.118498,2.805224,0.626508,-0.746668,0.094022,-0.063673,0.000000,-0.289366,0.030447,0.000000
0.890000,-2.690957,-1.822954,-1.475049,0.444224,0.965827,-0.030343,0.617720,0.891233,0.077043,-0.262147,-2.829176,-0.124733,3.045719,1.083179,-0.512793,0.091132,-0.063382,0.000000,-0.288696,0.027521,0.000000
0.900000,-2.686484,-1.813252,-1.475349,0.450389,0.974598,-0.029579,0.615255,0.863002,0.075774,-0.230627,-2.816336,-0.128651,3.229074,1.422701,-0.258686,0.088250,-0.063121,0.000000,-0.287529,0.024335,0.000000
0.910000,-2.681950,-1.803463,-1.475641,0.456530,0.983087,-0.028828,0.613112,0.834915,0.074477,-0.197646,-2.800693,-0.130201,3.398448,1.746212,-0.012504,0.085382,-0.062894,0.000000,-0.286045,0.020984,0.000000
0.920000,-2.677354,-1.793591,-1.475925,0.462652,0.991297,-0.028090,0.611310,0.807003,0.073181,-0.162392,-2.781067,-0.128552,3.617923,2.134882,0.303077,0.082531,-0.062701,0.000000,-0.284120,0.017379,0.000000
0.930000,-2.672697,-1.783638,-1.476203,0.468758,0.999228,-0.027364,0.609868,0.779301,0.071913,-0.126011,-2.758920,-0.124962,3.655106,2.290638,0.412688,0.079700,-0.062545,0.000000,-0.281916,0.013647,-0.000000
0.940000,-2.667978,-1.773607,-1.476473,0.474851,1.006883,-0.026651,0.608793,0.751831,0.070687,-0.088678,-2.734461,-0.119549,3.842063,2.640642,0.707100,0.076893,-0.062428,0.000000,-0.279458,0.009805,0.000000
0.950000,-2.663200,-1.763501,-1.476736,0.480935,1.014265,-0.025950,0.608101,0.724625,0.069532,-0.049497,-2.706510,-0.111180,3.959672,2.904937,0.926911,0.074113,-0.062349,0.000000,-0.276618,0.005756,0.000000
0.960000,-2.658360,-1.753323,-1.476992,0.487014,1.021377,-0.025260,0.607805,0.697708,0.068468,-0.009553,-2.676303,-0.101287,4.061809,3.154794,1.130025,0.071362,-0.062312,0.000000,-0.273536,0.001619,0.000000
0.970000,-2.653459,-1.743074,-1.477241,0.493092,1.028221,-0.024581,0.607916,0.671108,0.067519,0.032014,-2.643270,-0.087882,4.215174,3.429249,1.471202,0.068643,-0.062318,0.000000,-0.270142,-0.002706,-0.000000
0.980000,-2.648498,-1.732759,-1.477483,0.499174,1.034800,-0.023910,0.608447,0.644850,0.066713,0.073991,-2.608191,-0.073536,4.176843,3.583618,1.393275,0.065960,-0.062367,0.000000,-0.266535,-0.007080,0.000000
0.990000,-2.643476,-1.722379,-1.477719,0.505263,1.041119,-0.023246,0.609397,0.618951,0.066050,0.116188,-2.571235,-0.058491,4.294373,3.825662,1.691715,0.063313,-0.062460,0.000000,-0.262736,-0.011481,0.000000
1.000000,-2.638393,-1.711938,-1.477948,0.511363,1.047180,-0.022588,0.610775,0.593433,0.065555,0.159536,-2.531895,-0.040418,4.338906,4.019500,1.842188,0.060706,-0.062597,0.000000,-0.258678,-0.016019,-0.000000
1.010000,-2.633248,-1.701437,-1.478171,0.517480,1.052989,-0.021934,0.612587,0.568318,0.065243,0.202909,-2.490787,-0.021867,4.367102,4.200914,1.970097,0.058140,-0.062781,0.000000,-0.254443,-0.020565,0.000000
1.020000,-2.628043,-1.690879,-1.478387,0.523616,1.058548,-0.021282,0.614836,0.543624,0.065130,0.247140,-2.447910,-0.000107,4.443714,4.371299,2.277302,0.055617,-0.063010,0.000000,-0.250016,-0.025221,0.000000
1.030000,-2.622776,-1.680266,-1.478596,0.529778,1.063863,-0.020631,0.617528,0.519366,0.065239,0.291042,-2.403429,0.021486,4.333236,4.522672,2.035254,0.053140,-0.063286,0.000000,-0.245433,-0.029844,-0.000000
1.040000,-2.617447,-1.669602,-1.478799,0.535968,1.068937,-0.019977,0.620655,0.495560,0.065557,0.334420,-2.357475,0.042595,4.372917,4.667156,2.286157,0.050709,-0.063607,0.000000,-0.240710,-0.034413,-0.000000
1.050000,-2.612057,-1.658888,-1.478996,0.542192,1.073776,-0.019319,0.624219,0.472221,0.066101,0.378172,-2.310143,0.066280,4.341558,4.796675,2.345000,0.048326,-0.063975,0.000000,-0.235842,-0.039041,-0.000000
1.060000,-2.606603,-1.648127,-1.479186,0.548454,1.078383,-0.018654,0.628216,0.449361,0.066880,0.421200,-2.261516,0.089354,4.293582,4.915410,2.378962,0.045993,-0.064389,0.000000,-0.230852,-0.043594,0.000000
1.070000,-2.601087,-1.637322,-1.479369,0.554758,1.082764,-0.017980,0.632643,0.426993,0.067898,0.464289,-2.211978,0.114830,4.290548,5.001090,2.604157,0.043710,-0.064848,0.000000,-0.225766,-0.048174,0.000000
1.080000,-2.595508,-1.626473,-1.479545,0.561108,1.086925,-0.017295,0.637498,0.405126,0.069171,0.506310,-2.161307,0.139085,4.110251,5.131551,2.240228,0.041478,-0.065353,0.000000,-0.220578,-0.052642,-0.000000
1.090000,-2.589865,-1.615584,-1.479715,0.567509,1.090869,-0.016596,0.642765,0.383771,0.070674,0.547073,-2.109606,0.161778,4.071309,5.195769,2.405404,0.039298,-0.065901,0.000000,-0.215299,-0.056975,-0.000000
1.100000,-2.584158,-1.604656,-1.479877,0.573965,1.094602,-0.015881,0.648439,0.362935,0.072415,0.587424,-2.057339,0.186187,3.964943,5.266727,2.364478,0.037172,-0.066493,0.000000,-0.209962,-0.061284,0.000000
1.110000,-2.578386,-1.593692,-1.480032,0.580480,1.098129,-0.015147,0.654508,0.342627,0.074391,0.626321,-2.004283,0.209010,3.842767,5.327301,2.300848,0.035099,-0.067127,0.000000,-0.204556,-0.065440,0.000000
1.120000,-2.572548,-1.582694,-1.480180,0.587057,1.101456,-0.014392,0.660963,0.322850,0.076601,0.664516,-1.950972,0.233100,3.764076,5.347983,2.413294,0.033081,-0.067803,0.000000,-0.199126,-0.069539,0.000000
1.130000,-2.566644,-1.571664,-1.480320,0.593700,1.104588,-0.013614,0.667793,0.303609,0.079046,0.700930,-1.897051,0.255101,3.515588,5.434783,1.980931,0.031117,-0.068518,0.000000,-0.193646,-0.073448,0.000000
1.140000,-2.560674,-1.560603,-1.480452,0.600414,1.107530,-0.012811,0.674975,0.284911,0.081694,0.735386,-1.842613,0.274700,3.403641,5.435980,2.037897,0.029208,-0.069272,0.000000,-0.188124,-0.077147,-0.000000
1.150000,-2.554636,-1.549514,-1.480576,0.607201,1.110288,-0.011980,0.682497,0.266757,0.084544,0.768703,-1.788239,0.294939,3.227495,5.451605,1.905910,0.027355,-0.070061,0.000000,-0.182610,-0.080741,0.000000
1.160000,-2.548529,-1.538398,-1.480692,0.614065,1.112867,-0.011119,0.690342,0.249147,0.087584,0.799897,-1.733666,0.312850,3.037408,5.455752,1.755636,0.025556,-0.070886,0.000000,-0.177083,-0.084107,0.000000
1.170000,-2.542354,-1.527257,-1.480799,0.621009,1.115273,-0.010228,0.698491,0.232083,0.090802,0.829671,-1.679210,0.330758,2.887938,5.438881,1.744007,0.023813,-0.071744,0.000000,-0.171570,-0.087334,0.000000
1.180000,-2.536109,-1.516093,-1.480896,0.628035,1.117510,-0.009303,0.706927,0.215563,0.094190,0.857039,-1.624815,0.346012,2.582914,5.438455,1.302083,0.022125,-0.072632,0.000000,-0.166069,-0.090302,-0.000000
1.190000,-2.529793,-1.504908,-1.480985,0.635148,1.119586,-0.008343,0.715623,0.199586,0.097712,0.881847,-1.570583,0.358367,2.404476,5.401001,1.247374,0.020491,-0.073549,0.000000,-0.160590,-0.092991,-0.000000
1.200000,-2.523406,-1.493702,-1.481063,0.642349,1.121504,-0.007348,0.724558,0.184149,0.101357,0.904857,-1.516786,0.370238,2.168087,5.361846,1.044635,0.018913,-0.074492,0.000000,-0.155155,-0.095498,-0.000000
1.210000,-2.516946,-1.482478,-1.481131,0.649640,1.123271,-0.006316,0.733711,0.169249,0.105107,0.925170,-1.463432,0.379372,1.920066,5.310911,0.830981,0.017388,-0.075459,0.000000,-0.149767,-0.097712,-0.000000
1.220000,-2.510413,-1.471237,-1.481189,0.657024,1.124891,-0.005246,0.743056,0.154879,0.108941,0.943477,-1.410575,0.387299,1.713183,5.255559,0.703394,0.015917,-0.076446,0.000000,-0.144429,-0.099715,-0.000000
1.230000,-2.503805,-1.459981,-1.481236,0.664502,1.126370,-0.004137,0.752570,0.141035,0.112843,0.958847,-1.358421,0.392370,1.358368,5.173379,0.308082,0.014499,-0.077452,0.000000,-0.139163,-0.101398,-0.000000
1.240000,-2.497122,-1.448710,-1.481272,0.672075,1.127713,-0.002989,0.762222,0.127708,0.116778,0.971151,-1.307080,0.394442,1.127912,5.096269,0.155296,0.013134,-0.078473,0.000000,-0.133978,-0.102744,0.000000
1.250000,-2.490363,-1.437427,-1.481296,0.679746,1.128926,-0.001801,0.771986,0.114891,0.120728,0.981155,-1.256555,0.395033,0.844377,5.003672,-0.087964,0.011819,-0.079506,0.000000,-0.128873,-0.103844,-0.000000
1.260000,-2.483527,-1.426132,-1.481308,0.687515,1.130013,-0.000574,0.781834,0.102573,0.124669,0.988028,-1.207115,0.392849,0.552347,4.899033,-0.333941,0.010556,-0.080549,0.000000,-0.123876,-0.104600,0.000000
1.270000,-2.476613,-1.414827,-1.481307,0.695383,1.130979,0.000692,0.791739,0.090746,0.128578,0.992393,-1.158456,0.388486,0.297087,4.815120,-0.553954,0.009342,-0.081598,0.000000,-0.118955,-0.105079,0.000000
1.280000,-2.469619,-1.403513,-1.481294,0.703350,1.131829,0.001997,0.801671,0.079399,0.132430,0.993476,-1.111182,0.381451,-0.082179,4.637384,-0.853617,0.008176,-0.082649,0.000000,-0.114170,-0.105197,0.000000
1.290000,-2.462545,-1.392191,-1.481267,0.711417,1.132568,0.003340,0.811597,0.068517,0.136198,0.991189,-1.065417,0.371715,-0.353148,4.530327,-1.078333,0.007058,-0.083700,0.000000,-0.109534,-0.104944,-0.000000
1.300000,-2.455390,-1.380862,-1.481227,0.719582,1.133201,0.004721,0.821486,0.058088,0.139857,0.986198,-1.020745,0.359763,-0.667868,4.386243,-1.327190,0.005985,-0.084747,0.000000,-0.105004,-0.104389,0.000000
1.310000,-2.448153,-1.369527,-1.481173,0.727846,1.133732,0.006137,0.831309,0.048096,0.143385,0.977856,-0.977813,0.345374,-0.986266,4.230213,-1.570280,0.004957,-0.085787,0.000000,-0.100646,-0.103464,0.000000
1.320000,-2.440833,-1.358187,-1.481104,0.736208,1.134164,0.007588,0.841034,0.038529,0.146755,0.966600,-0.935881,0.328183,-1.279795,4.124052,-1.847464,0.003972,-0.086816,0.000000,-0.096384,-0.102209,-0.000000
1.330000,-2.433429,-1.346844,-1.481021,0.744666,1.134504,0.009072,0.850630,0.029372,0.149941,0.951949,-0.896004,0.308857,-1.651177,3.848785,-2.016140,0.003029,-0.087830,0.000000,-0.092325,-0.100580,0.000000
1.340000,-2.425939,-1.335498,-1.480922,0.753220,1.134753,0.010586,0.860061,0.020601,0.152925,0.933864,-0.858314,0.287482,-1.951222,3.718870,-2.277559,0.002125,-0.088826,0.000000,-0.088484,-0.098572,-0.000000
1.350000,-2.418364,-1.324149,-1.480809,0.761867,1.134917,0.012129,0.869297,0.012202,0.155682,0.912796,-0.821914,0.263501,-2.276803,3.528569,-2.497429,0.001259,-0.089800,0.000000,-0.084768,-0.096225,-0.000000
1.360000,-2.410702,-1.312800,-1.480680,0.770605,1.134998,0.013699,0.878306,0.004155,0.158190,0.888373,-0.787784,0.237741,-2.601778,3.328721,-2.703960,0.000429,-0.090749,0.000000,-0.081278,-0.093509,0.000000
1.370000,-2.402952,-1.301450,-1.480535,0.779432,1.135001,0.015292,0.887055,-0.003558,0.160426,0.860818,-0.755064,0.208985,-2.914634,3.182569,-2.995920,-0.000367,-0.091669,0.000000,-0.077925,-0.090435,-0.000000
1.380000,-2.395113,-1.290100,-1.480374,0.788345,1.134928,0.016906,0.895511,-0.010955,0.162365,0.829966,-0.724821,0.178900,-3.255593,2.863965,-3.017677,-0.001131,-0.092557,0.000000,-0.074820,-0.087000,-0.000000
1.390000,-2.387184,-1.278751,-1.480197,0.797341,1.134783,0.018539,0.903643,-0.018064,0.164000,0.795832,-0.697165,0.147670,-3.564988,2.698078,-3.276162,-0.001864,-0.093408,0.000000,-0.071974,-0.083208,-0.000000
1.400000,-2.379166,-1.267404,-1.480003,0.806417,1.134568,0.020185,0.911418,-0.024903,0.165309,0.758628,-0.671148,0.113839,-3.880697,2.472324,-3.437278,-0.002571,-0.094220,0.000000,-0.069289,-0.079067,-0.000000
1.410000,-2.371056,-1.256060,-1.479793,0.815568,1.134286,0.021844,0.918805,-0.031496,0.166275,0.718290,-0.647730,0.079109,-4.191046,2.240018,-3.579344,-0.003251,-0.094988,0.000000,-0.066866,-0.074587,-0.000000
1.420000,-2.362854,-1.244719,-1.479566,0.824792,1.133939,0.023510,0.925773,-0.037863,0.166881,0.674780,-0.626092,0.041630,-4.505287,2.058325,-3.843151,-0.003908,-0.095710,0.000000,-0.064619,-0.069746,-0.000000
1.430000,-2.354560,-1.233382,-1.479323,0.834082,1.133529,0.025180,0.932291,-0.044027,0.167107,0.628304,-0.607179,0.003782,-4.788664,1.722756,-3.721571,-0.004544,-0.096382,0.000000,-0.062646,-0.064591,-0.000000
1.440000,-2.346172,-1.222049,-1.479063,0.843436,1.133059,0.026851,0.938329,-0.050016,0.166957,0.578934,-0.591068,-0.034180,-5.088844,1.527942,-3.939651,-0.005162,-0.097001,0.000000,-0.060957,-0.059131,0.000000
1.450000,-2.337691,-1.210721,-1.478786,0.852847,1.132529,0.028518,0.943859,-0.055854,0.166415,0.526594,-0.576874,-0.074349,-5.372919,1.281610,-4.020181,-0.005764,-0.097564,0.000000,-0.059458,-0.053339,0.000000
1.460000,-2.329115,-1.199398,-1.478492,0.862311,1.131942,0.030177,0.948853,-0.061563,0.165471,0.471602,-0.565402,-0.114441,-5.647348,1.032459,-4.078944,-0.006352,-0.098067,0.000000,-0.058235,-0.047273,-0.000000
1.470000,-2.320445,-1.188082,-1.478182,0.871822,1.131298,0.031826,0.953280,-0.067169,0.164117,0.413437,-0.556057,-0.156638,-5.959363,0.817969,-4.276719,-0.006930,-0.098508,0.000000,-0.057224,-0.040857,-0.000000
1.480000,-2.311679,-1.176772,-1.477856,0.881375,1.130599,0.033458,0.957114,-0.072694,0.162341,0.352966,-0.549431,-0.198215,-6.132534,0.506708,-4.033220,-0.007498,-0.098883,0.000000,-0.056489,-0.034210,-0.000000
1.490000,-2.302817,-1.165470,-1.477513,0.890963,1.129845,0.035071,0.960333,-0.078167,0.160157,0.290322,-0.545549,-0.238883,-6.419213,0.288307,-4.179241,-0.008060,-0.099191,0.000000,-0.056031,-0.027350,0.000000
1.500000,-2.293859,-1.154176,-1.477154,0.900579,1.129036,0.036660,0.962910,-0.083611,0.157557,0.224834,-0.543819,-0.281046,-6.652136,0.039445,-4.168791,-0.008619,-0.099429,0.000000,-0.055789,-0.020187,0.000000
1.510000,-2.284805,-1.142890,-1.476780,0.910219,1.128172,0.038221,0.964823,-0.089052,0.154540,0.157369,-0.544672,-0.322182,-6.871387,-0.206663,-4.136796,-0.009177,-0.099595,0.000000,-0.055809,-0.012835,0.000000
1.520000,-2.275655,-1.131612,-1.476390,0.919874,1.127255,0.039750,0.966048,-0.094513,0.151108,0.087148,-0.547917,-0.364471,-7.139203,-0.444674,-4.239255,-0.009736,-0.099685,0.000000,-0.056067,-0.005196,0.000000
1.530000,-2.266408,-1.120345,-1.475985,0.929537,1.126282,0.041242,0.966561,-0.100018,0.147256,0.015292,-0.553613,-0.405252,-7.228663,-0.694036,-3.911590,-0.010299,-0.099698,0.000000,-0.056574,0.002587,-0.000000
1.540000,-2.257064,-1.109087,-1.475565,0.939202,1.125254,0.042693,0.966349,-0.105593,0.143009,-0.058021,-0.561726,-0.444243,-7.463646,-0.925018,-3.963354,-0.010868,-0.099633,0.000000,-0.057325,0.010490,-0.000000
1.550000,-2.247624,-1.097840,-1.475131,0.948862,1.124170,0.044101,0.965392,-0.111260,0.138368,-0.133664,-0.572121,-0.483783,-7.630606,-1.155790,-3.862924,-0.011446,-0.099487,0.000000,-0.058303,0.018626,0.000000
1.560000,-2.238087,-1.086604,-1.474684,0.958508,1.123028,0.045459,0.963672,-0.117043,0.133341,-0.210580,-0.584726,-0.521491,-7.781735,-1.379024,-3.743762,-0.012035,-0.099260,0.000000,-0.059504,0.026860,0.000000
1.570000,-2.228454,-1.075379,-1.474222,0.968133,1.121828,0.046766,0.961173,-0.122963,0.127937,-0.289539,-0.599814,-0.559229,-7.976999,-1.623220,-3.735415,-0.012637,-0.098949,0.000000,-0.060953,0.035288,-0.000000
1.580000,-2.218724,-1.064167,-1.473748,0.977728,1.120569,0.048017,0.957878,-0.129046,0.122164,-0.369428,-0.616868,-0.594767,-7.997316,-1.785720,-3.367690,-0.013255,-0.098554,0.000000,-0.062598,0.043772,0.000000
1.590000,-2.208899,-1.052968,-1.473262,0.987287,1.119247,0.049208,0.953782,-0.135307,0.116051,-0.450051,-0.635791,-0.627864,-8.155562,-2.011917,-3.315610,-0.013890,-0.098074,0.000000,-0.064431,0.052287,0.000000
1.600000,-2.198979,-1.041783,-1.472764,0.996801,1.117862,0.050337,0.948872,-0.141769,0.109607,-0.532230,-0.656955,-0.660472,-8.246224,-2.205079,-3.137172,-0.014544,-0.097508,0.000000,-0.066485,0.060937,-0.000000
1.610000,-2.188963,-1.030611,-1.472256,1.006262,1.116411,0.051399,0.943137,-0.148451,0.102850,-0.614841,-0.679785,-0.690658,-8.317629,-2.386888,-2.944297,-0.015220,-0.096855,0.000000,-0.068705,0.069587,0.000000
1.620000,-2.178854,-1.019455,-1.471737,1.015661,1.114892,0.052393,0.936569,-0.155373,0.095797,-0.698938,-0.704912,-0.719744,-8.456023,-2.610096,-2.825839,-0.015919,-0.096115,0.000000,-0.071153,0.078355,0.000000
1.630000,-2.168650,-1.008314,-1.471208,1.024991,1.113303,0.053314,0.929158,-0.162554,0.088464,-0.783000,-0.731394,-0.746188,-8.352321,-2.683757,-2.459695,-0.016644,-0.095288,0.000000,-0.073734,0.087071,0.000000
1.640000,-2.158354,-0.997189,-1.470671,1.034242,1.111640,0.054161,0.920910,-0.170005,0.080883,-0.866803,-0.759088,-0.769815,-8.449147,-2.880095,-2.309506,-0.017394,-0.094374,0.000000,-0.076433,0.095711,0.000000
1.650000,-2.147966,-0.986081,-1.470125,1.043406,1.109901,0.054931,0.911818,-0.177743,0.073072,-0.951556,-0.788729,-0.791956,-8.455384,-3.019294,-2.071929,-0.018173,-0.093373,0.000000,-0.079324,0.104410,-0.000000
1.660000,-2.137486,-0.974991,-1.469572,1.052475,1.108084,0.055622,0.901881,-0.185782,0.065053,-1.035863,-0.819341,-0.811347,-8.443487,-3.143518,-1.826023,-0.018981,-0.092286,0.000000,-0.082309,0.113014,0.000000
1.670000,-2.126917,-0.963920,-1.469013,1.061441,1.106185,0.056232,0.891099,-0.194137,0.056852,-1.120742,-0.851947,-0.828644,-8.490486,-3.334527,-1.611483,-0.019820,-0.091112,0.000000,-0.085491,0.121634,-0.000000
1.680000,-2.116258,-0.952868,-1.468448,1.070294,1.104200,0.056759,0.879469,-0.202823,0.048490,-1.204796,-0.885126,-0.843124,-8.316506,-3.297723,-1.282932,-0.020691,-0.089853,0.000000,-0.088727,0.130121,0.000000
1.690000,-2.105511,-0.941836,-1.467878,1.079028,1.102127,0.057201,0.867006,-0.211840,0.039999,-1.287809,-0.918690,-0.854696,-8.322782,-3.454261,-1.051148,-0.021594,-0.088510,0.000000,-0.091997,0.138453,0.000000
1.700000,-2.094678,-0.930825,-1.467304,1.087632,1.099962,0.057558,0.853712,-0.221202,0.031403,-1.370863,-0.953813,-0.863956,-8.245948,-3.526795,-0.779533,-0.022532,-0.087083,0.000000,-0.095421,0.146748,-0.000000
1.710000,-2.083759,-0.919837,-1.466727,1.096099,1.097702,0.057829,0.839594,-0.230917,0.022729,-1.452728,-0.989174,-0.870388,-8.152416,-3.584307,-0.504379,-0.023503,-0.085575,0.000000,-0.098865,0.154876,-0.000000
1.720000,-2.072756,-0.908872,-1.466148,1.104421,1.095343,0.058013,0.824659,-0.240991,0.014005,-1.534110,-1.025845,-0.873991,-8.094608,-3.706509,-0.219578,-0.024509,-0.083985,0.000000,-0.102439,0.162913,0.000000
1.730000,-2.061671,-0.897931,-1.465567,1.112590,1.092881,0.058109,0.808917,-0.251433,0.005259,-1.614009,-1.062397,-0.874851,-7.881800,-3.600359,0.047847,-0.025552,-0.082316,0.000000,-0.105999,0.170758,-0.000000
1.740000,-2.050505,-0.887015,-1.464986,1.120597,1.090313,0.058118,0.792385,-0.262238,-0.003483,-1.692234,-1.098634,-0.872955,-7.787647,-3.685999,0.335250,-0.026629,-0.080570,0.000000,-0.109525,0.178396,-0.000000
1.750000,-2.039260,-0.876125,-1.464405,1.128435,1.087635,0.058039,0.775075,-0.273409,-0.012191,-1.769484,-1.135719,-0.868176,-7.632936,-3.687309,0.616581,-0.027743,-0.078747,0.000000,-0.113137,0.185897,-0.000000
1.760000,-2.027937,-0.865262,-1.463826,1.136096,1.084843,0.057874,0.757001,-0.284950,-0.020837,-1.844879,-1.172339,-0.860738,-7.463020,-3.672730,0.894794,-0.028892,-0.076851,0.000000,-0.116701,0.193178,0.000000
1.770000,-2.016538,-0.854428,-1.463248,1.143572,1.081935,0.057623,0.738181,-0.296859,-0.029394,-1.918875,-1.209480,-0.850066,-7.315020,-3.715929,1.216083,-0.030077,-0.074883,0.000000,-0.120322,0.200283,0.000000
1.780000,-2.005066,-0.843624,-1.462673,1.150857,1.078905,0.057287,0.718631,-0.309137,-0.037831,-1.990737,-1.245826,-0.836910,-7.054491,-3.549658,1.413846,-0.031298,-0.072844,0.000000,-0.123864,0.207146,0.000000
1.790000,-1.993522,-0.832851,-1.462103,1.157942,1.075751,0.056867,0.698374,-0.321771,-0.046124,-2.060301,-1.281183,-0.821331,-6.874969,-3.557088,1.724730,-0.032554,-0.070739,0.000000,-0.127308,0.213755,0.000000
1.800000,-1.981908,-0.822109,-1.461536,1.164822,1.072468,0.056365,0.677431,-0.334761,-0.054246,-2.128029,-1.316598,-0.802628,-6.649758,-3.486433,1.991873,-0.033844,-0.068568,0.000000,-0.130766,0.220154,0.000000
1.810000,-1.970226,-0.811402,-1.460975,1.171489,1.069054,0.055783,0.655822,-0.348099,-0.062170,-2.193302,-1.350852,-0.781587,-6.411900,-3.400292,2.251666,-0.035169,-0.066334,0.000000,-0.134111,0.226290,-0.000000
1.820000,-1.958479,-0.800729,-1.460421,1.177936,1.065505,0.055122,0.633572,-0.361778,-0.069867,-2.256310,-1.384912,-0.757280,-6.178631,-3.372274,2.573685,-0.036526,-0.064040,0.000000,-0.137448,0.232179,-0.000000
1.830000,-1.946668,-0.790092,-1.459873,1.184158,1.061818,0.054386,0.610705,-0.375792,-0.077308,-2.316648,-1.417472,-0.730873,-5.886797,-3.136524,2.705577,-0.037917,-0.061688,0.000000,-0.140641,0.237792,-0.000000
1.840000,-1.934796,-0.779493,-1.459333,1.190148,1.057988,0.053577,0.587249,-0.390122,-0.084478,-2.374186,-1.448351,-0.702480,-5.627860,-3.074598,3.007377,-0.039339,-0.059282,0.000000,-0.143674,0.243119,-0.000000
1.850000,-1.922866,-0.768933,-1.458802,1.195901,1.054014,0.052698,0.563230,-0.404758,-0.091347,-2.429092,-1.478605,-0.671055,-5.342430,-2.936510,3.241244,-0.040790,-0.056823,0.000000,-0.146659,0.248174,0.000000
1.860000,-1.910879,-0.758413,-1.458280,1.201411,1.049892,0.051751,0.538677,-0.419687,-0.097893,-2.481044,-1.507090,-0.637717,-5.046629,-2.785469,3.465014,-0.042271,-0.054315,0.000000,-0.149478,0.252936,0.000000
1.870000,-1.898839,-0.747935,-1.457767,1.206673,1.045620,0.050741,0.513619,-0.434896,-0.104091,-2.529994,-1.534523,-0.601415,-4.741237,-2.672947,3.755106,-0.043780,-0.051761,0.000000,-0.152210,0.257396,0.000000
1.880000,-1.886747,-0.737501,-1.457265,1.211682,1.041194,0.049670,0.488087,-0.450371,-0.109916,-2.575825,-1.559962,-0.563461,-4.423371,-2.412176,3.832890,-0.045315,-0.049163,0.000000,-0.154756,0.261554,0.000000
1.890000,-1.874606,-0.727112,-1.456774,1.216433,1.036611,0.048544,0.462113,-0.466088,-0.115356,-2.618438,-1.583259,-0.524003,-4.098076,-2.271806,4.096338,-0.046874,-0.046525,0.000000,-0.157102,0.265403,-0.000000
1.900000,-1.862419,-0.716769,-1.456294,1.220923,1.031871,0.047365,0.435729,-0.482032,-0.120387,-2.657754,-1.605138,-0.481895,-3.762976,-2.076070,4.283830,-0.048456,-0.043850,0.000000,-0.159329,0.268933,-0.000000
1.910000,-1.850188,-0.706475,-1.455827,1.225147,1.026970,0.046138,0.408969,-0.498183,-0.124989,-2.693696,-1.624785,-0.438349,-3.419453,-1.869916,4.459398,-0.050060,-0.041141,0.000000,-0.161350,0.272145,-0.000000
1.920000,-1.837917,-0.696231,-1.455372,1.229101,1.021907,0.044866,0.381867,-0.514522,-0.129145,-2.726074,-1.642673,-0.392414,-3.059042,-1.688436,4.691210,-0.051683,-0.038402,0.000000,-0.163219,0.275019,-0.000000
1.930000,-1.825607,-0.686037,-1.454930,1.232783,1.016679,0.043556,0.354460,-0.531029,-0.132834,-2.754943,-1.658150,-0.345288,-2.713561,-1.404950,4.730917,-0.053324,-0.035635,0.000000,-0.164868,0.277568,-0.000000
1.940000,-1.813262,-0.675898,-1.454501,1.236189,1.011286,0.042211,0.326781,-0.547677,-0.136048,-2.780231,-1.671103,-0.297131,-2.338405,-1.202250,4.933580,-0.054980,-0.032843,0.000000,-0.166285,0.279787,-0.000000
1.950000,-1.800884,-0.665812,-1.454085,1.239318,1.005725,0.040837,0.298868,-0.564444,-0.138769,-2.801724,-1.682016,-0.246952,-1.963487,-0.961189,5.065445,-0.056649,-0.030032,0.000000,-0.167526,0.281654,0.000000
1.960000,-1.788477,-0.655784,-1.453684,1.242166,0.999996,0.039438,0.270758,-0.581308,-0.140984,-2.819480,-1.690355,-0.195799,-1.581767,-0.712995,5.186446,-0.058329,-0.027203,0.000000,-0.168532,0.283180,0.000000
1.970000,-1.776042,-0.645813,-1.453297,1.244733,0.994099,0.038019,0.242491,-0.598244,-0.142679,-2.833285,-1.696324,-0.143021,-1.183392,-0.472257,5.342524,-0.060019,-0.024360,0.000000,-0.169330,0.284344,0.000000
1.980000,-1.763583,-0.635902,-1.452924,1.247016,0.988031,0.036586,0.214106,-0.615226,-0.143842,-2.843240,-1.699624,-0.089504,-0.806747,-0.186449,5.358153,-0.061715,-0.021507,0.000000,-0.169886,0.285160,0.000000
1.990000,-1.751103,-0.626053,-1.452565,1.249014,0.981794,0.035144,0.185639,-0.632227,-0.144467,-2.849293,-1.700184,-0.035400,-0.397524,0.067838,5.485503,-0.063416,-0.018647,0.000000,-0.170193,0.285624,-0.000000
2.000000,-1.738604,-0.616267,-1.452221,1.250728,0.975387,0.033698,0.157134,-0.649221,-0.144545,-2.851218,-1.698189,0.019960,0.008039,0.339722,5.559149,-0.065118,-0.015784,0.000000,-0.170274,0.285714,0.000000
2.010000,-1.726089,-0.606546,-1.451891,1.252157,0.968810,0.032255,0.128629,-0.666181,-0.144067,-2.849097,-1.693417,0.075809,0.418857,0.615721,5.620832,-0.066820,-0.012921,0.000000,-0.170104,0.285440,-0.000000
2.020000,-1.713561,-0.596891,-1.451576,1.253301,0.962063,0.030819,0.100166,-0.683080,-0.143026,-2.842809,-1.685858,0.132448,0.837778,0.896387,5.693164,-0.068519,-0.010063,0.000000,-0.169684,0.284790,0.000000
2.030000,-1.701024,-0.587305,-1.451275,1.254161,0.955149,0.029396,0.071786,-0.699889,-0.141417,-2.832363,-1.675486,0.189384,1.252037,1.178453,5.691782,-0.070213,-0.007214,0.000000,-0.169009,0.283766,-0.000000
2.040000,-1.688479,-0.577789,-1.450988,1.254737,0.948066,0.027992,0.043532,-0.716580,-0.139238,-2.817719,-1.662272,0.246482,1.679127,1.465216,5.737525,-0.071899,-0.004375,0.000000,-0.168075,0.282364,0.000000
2.050000,-1.675930,-0.568344,-1.450715,1.255032,0.940817,0.026613,0.015446,-0.733125,-0.136486,-2.798782,-1.646177,0.303994,2.107093,1.753588,5.751127,-0.073574,-0.001553,0.000000,-0.166882,0.280575,-0.000000
2.060000,-1.663379,-0.558973,-1.450455,1.255047,0.933404,0.025265,-0.012429,-0.749494,-0.133158,-2.775522,-1.627179,0.361518,2.538824,2.043746,5.752532,-0.075236,0.001250,0.000000,-0.165422,0.278394,-0.000000
2.070000,-1.650830,-0.549677,-1.450209,1.254784,0.925828,0.023952,-0.040050,-0.765659,-0.129255,-2.748068,-1.605328,0.418999,2.959792,2.329489,5.741743,-0.076881,0.004029,0.000000,-0.163703,0.275834,0.000000
2.080000,-1.638285,-0.540457,-1.449976,1.254247,0.918092,0.022681,-0.067375,-0.781591,-0.124779,-2.716165,-1.580527,0.476316,3.421474,2.630846,5.719576,-0.078509,0.006782,0.000000,-0.161712,0.272869,-0.000000
2.090000,-1.625746,-0.531315,-1.449756,1.253438,0.910197,0.021458,-0.094359,-0.797260,-0.119730,-2.679779,-1.552770,0.533345,3.848666,2.917517,5.684045,-0.080115,0.009502,0.000000,-0.159447,0.269493,-0.000000
2.100000,-1.613217,-0.522254,-1.449547,1.252361,0.902148,0.020289,-0.120957,-0.812637,-0.114113,-2.639120,-1.522155,0.589960,4.290355,3.208365,5.636712,-0.081697,0.012188,0.000000,-0.156917,0.265726,0.000000
2.110000,-1.600700,-0.513273,-1.449350,1.251020,0.893946,0.019178,-0.147126,-0.827693,-0.107932,-2.593964,-1.488545,0.646082,4.733687,3.499272,5.577617,-0.083252,0.014833,0.000000,-0.154108,0.261542,-0.000000
2.120000,-1.588197,-0.504375,-1.449163,1.249420,0.885595,0.018132,-0.172822,-0.842399,-0.101194,-2.544511,-1.452305,0.701399,5.164308,3.761947,5.491380,-0.084778,0.017435,0.000000,-0.151051,0.256960,0.000000
2.130000,-1.575712,-0.495562,-1.448987,1.247565,0.877099,0.017156,-0.198001,-0.856729,-0.093907,-2.490527,-1.413029,0.756027,5.632712,4.093224,5.432277,-0.086272,0.019990,0.000000,-0.147705,0.251954,-0.000000
2.140000,-1.563247,-0.486834,-1.448820,1.245462,0.868462,0.016256,-0.222617,-0.870650,-0.086076,-2.432000,-1.370727,0.809849,6.065529,4.352753,5.322443,-0.087731,0.022492,0.000000,-0.144071,0.246518,0.000000
2.150000,-1.550804,-0.478193,-1.448661,1.243115,0.859687,0.015436,-0.246627,-0.884135,-0.077714,-2.369157,-1.325870,0.862493,6.510223,4.631622,5.212458,-0.089153,0.024938,0.000000,-0.140189,0.240672,-0.000000
2.160000,-1.538385,-0.469640,-1.448511,1.240531,0.850780,0.014703,-0.269985,-0.897157,-0.068830,-2.301719,-1.278013,0.914055,6.956065,4.908329,5.090159,-0.090534,0.027323,0.000000,-0.136015,0.234384,-0.000000
2.170000,-1.525994,-0.461178,-1.448367,1.237718,0.841746,0.014061,-0.292648,-0.909689,-0.059438,-2.230233,-1.228004,0.964183,7.361344,5.122164,4.940637,-0.091872,0.029643,0.000000,-0.131629,0.227705,-0.000000
2.180000,-1.513632,-0.452806,-1.448229,1.234681,0.832588,0.013516,-0.314574,-0.921707,-0.049551,-2.154070,-1.174965,1.012979,7.871546,5.485548,4.816646,-0.093166,0.031895,0.000000,-0.126941,0.220567,-0.000000
2.190000,-1.501301,-0.444526,-1.448096,1.231429,0.823314,0.013072,-0.335714,-0.933178,-0.039183,-2.073223,-1.118920,1.060323,8.276840,5.692171,4.642364,-0.094410,0.034072,0.000000,-0.121950,0.212965,0.000000
2.200000,-1.489004,-0.436340,-1.447967,1.227969,0.813927,0.012734,-0.356025,-0.944079,-0.028351,-1.988364,-1.060894,1.105843,8.714504,5.941758,4.467142,-0.095604,0.036172,0.000000,-0.116753,0.204961,-0.000000
2.210000,-1.476742,-0.428248,-1.447841,1.224311,0.804434,0.012506,-0.375466,-0.954384,-0.017072,-1.899033,-0.999703,1.149571,9.147665,6.191961,4.277870,-0.096744,0.038189,0.000000,-0.111228,0.196503,0.000000
2.220000,-1.464518,-0.420252,-1.447717,1.220463,0.794841,0.012394,-0.393992,-0.964073,-0.005366,-1.805455,-0.938034,1.191371,9.570505,6.239889,4.078198,-0.097828,0.040119,0.000000,-0.105643,0.187609,-0.000000
2.230000,-1.452334,-0.412352,-1.447593,1.216435,0.785155,0.012400,-0.411561,-0.973132,0.006748,-1.707569,-0.872850,1.231053,10.006185,6.797999,3.855990,-0.098856,0.041957,0.000000,-0.099686,0.178265,0.000000
2.240000,-1.440190,-0.404549,-1.447468,1.212235,0.775381,0.012530,-0.428129,-0.981517,0.019248,-1.605415,-0.804134,1.268478,10.420296,6.842275,3.628295,-0.099821,0.043700,0.000000,-0.093351,0.168471,0.000000
2.250000,-1.428089,-0.396844,-1.447342,1.207875,0.765527,0.012787,-0.443655,-0.989216,0.032110,-1.499159,-0.735196,1.303561,10.833947,7.043082,3.383929,-0.100723,0.045342,0.000000,-0.086968,0.158237,0.000000
2.260000,-1.416033,-0.389238,-1.447212,1.203366,0.755599,0.013173,-0.458073,-0.996261,0.045310,-1.382947,-0.674930,1.335998,11.356728,7.002956,3.123066,-0.101564,0.046877,0.000000,-0.081435,0.146959,0.000000
2.270000,-1.404023,-0.381732,-1.447078,1.198718,0.745604,0.013694,-0.471382,-1.002554,0.058823,-1.281726,-0.576812,1.366177,9.904192,10.684567,2.889110,-0.102335,0.048303,0.000000,-0.072028,0.137172,-0.000000
2.280000,-1.392059,-0.374327,-1.446938,1.193942,0.735551,0.014351,-0.483643,-1.007889,0.072623,-1.163523,-0.501876,1.393286,13.764844,4.242899,2.529749,-0.103014,0.049628,0.000000,-0.064928,0.125616,-0.000000
2.290000,-1.380144,-0.367022,-1.446791,1.189049,0.725448,0.015147,-0.494584,-1.012693,0.086678,-1.027122,-0.452770,1.417155,12.482348,7.534568,2.263185,-0.103644,0.050822,0.000000,-0.060415,0.112152,-0.000000
2.300000,-1.368279,-0.359818,-1.446635,1.184054,0.715299,0.016085,-0.504252,-1.016791,0.100958,-0.905238,-0.367716,1.438318,12.914485,7.532509,1.945927,-0.104206,0.051890,0.000000,-0.052198,0.100113,0.000000
2.310000,-1.356463,-0.352716,-1.446468,1.178968,0.705115,0.017167,-0.512743,-1.019907,0.115431,-0.794909,-0.250203,1.455796,12.839492,8.503960,1.609239,-0.104673,0.052840,0.000000,-0.040602,0.089196,0.000000
2.320000,-1.344699,-0.345716,-1.446291,1.173804,0.694904,0.018394,-0.519853,-1.022369,0.130067,-0.614558,-0.266331,1.471026,19.643873,-4.484102,1.374468,-0.105077,0.053653,0.000000,-0.042623,0.071049,0.000000
2.330000,-1.332987,-0.338818,-1.446100,1.168577,0.684667,0.019769,-0.525204,-1.024865,0.144837,-0.477320,-0.187797,1.481979,7.690311,20.411805,0.812082,-0.105488,0.054287,0.000000,-0.034914,0.057228,-0.000000
2.340000,-1.321328,-0.332022,-1.445895,1.163303,0.674412,0.021291,-0.529588,-1.025720,0.159691,-0.388264,-0.004866,1.488439,13.739355,8.847317,0.538320,-0.105733,0.054823,0.000000,-0.016405,0.048280,-0.000000
2.350000,-1.309722,-0.325329,-1.445674,1.157990,0.664156,0.022963,-0.532686,-1.025513,0.174598,-0.233214,0.051002,1.492184,13.667980,9.602873,0.148584,-0.105872,0.055228,0.000000,-0.010858,0.032483,0.000000
2.360000,-1.298168,-0.318739,-1.445435,1.152654,0.653904,0.024783,-0.534188,-1.024815,0.189519,-0.062734,0.080462,1.491403,14.506336,8.438747,-0.255244,-0.105962,0.055469,0.000000,-0.007959,0.014998,-0.000000
2.370000,-1.286668,-0.312251,-1.445178,1.147311,0.643663,0.026753,-0.534394,-1.022956,0.204417,0.002453,0.331396,1.487513,4.282013,29.928617,-0.574691,-0.105934,0.055576,0.000000,0.017828,0.008288,-0.000000
2.380000,-1.275222,-0.305866,-1.444900,1.141968,0.633453,0.028872,-0.533843,-1.018779,0.219253,0.143633,0.430922,1.478822,24.132830,-10.401667,-1.166850,-0.105666,0.055605,0.000000,0.028153,-0.006338,0.000000
2.390000,-1.263829,-0.299582,-1.444600,1.136641,0.623285,0.031138,-0.531196,-1.014992,0.233976,0.368747,0.362074,1.465151,15.081479,8.547708,-1.518723,-0.105438,0.055415,0.000000,0.021148,-0.029762,0.000000
2.400000,-1.252489,-0.293400,-1.444276,1.131350,0.613156,0.033551,-0.526901,-1.010638,0.248546,0.494439,0.500664,1.447986,15.835723,7.292440,-1.966292,-0.105150,0.055051,0.000000,0.035652,-0.042996,0.000000
2.410000,-1.241202,-0.287319,-1.443928,1.126108,0.603076,0.036108,-0.521222,-1.005120,0.262917,0.640067,0.606772,1.425531,15.877942,7.542296,-2.430429,-0.104739,0.054541,0.000000,0.046909,-0.058395,-0.000000
2.420000,-1.229967,-0.281338,-1.443554,1.120931,0.593056,0.038808,-0.513888,-0.999013,0.277048,0.835681,0.592853,1.400236,20.712600,-4.111732,-2.723323,-0.104264,0.053854,0.000000,0.045779,-0.079081,-0.000000
2.430000,-1.218783,-0.275458,-1.443151,1.115837,0.583095,0.041648,-0.504628,-0.992963,0.290902,1.001155,0.655016,1.369081,12.291147,16.748023,-3.511738,-0.103792,0.052963,0.000000,0.052624,-0.096752,0.000000
2.440000,-1.207650,-0.269676,-1.442720,1.110843,0.573201,0.044625,-0.494000,-0.985580,0.304409,1.132248,0.802478,1.331868,16.459454,6.489756,-3.837514,-0.103177,0.051923,0.000000,0.068466,-0.110938,-0.000000
2.450000,-1.196566,-0.263993,-1.442259,1.105962,0.563386,0.047735,-0.481788,-0.977395,0.317530,1.308467,0.838198,1.291513,16.234341,6.908393,-4.328210,-0.102473,0.050711,0.000000,0.072746,-0.129916,0.000000
2.460000,-1.185530,-0.258408,-1.441765,1.101212,0.553656,0.050974,-0.468046,-0.968450,0.330219,1.435314,0.957194,1.245396,15.401425,7.960663,-4.824643,-0.101683,0.049333,0.000000,0.085823,-0.143822,0.000000
2.470000,-1.174541,-0.252920,-1.441239,1.096607,0.544019,0.054338,-0.452600,-0.958942,0.342427,1.674064,0.915244,1.195665,26.250467,-7.683525,-5.190641,-0.100828,0.047769,0.000000,0.082119,-0.169529,0.000000
2.480000,-1.163597,-0.247527,-1.440678,1.092168,0.534475,0.057821,-0.434878,-0.949707,0.354113,1.832332,0.985435,1.140131,5.209825,21.983683,-5.918492,-0.099995,0.045958,0.000000,0.090232,-0.186896,-0.000000
2.490000,-1.152697,-0.242230,-1.440082,1.087912,0.525031,0.061418,-0.416299,-0.938753,0.365210,1.901476,1.179278,1.078693,14.770542,8.015767,-6.299324,-0.098973,0.044049,0.000000,0.111442,-0.194952,-0.000000
2.500000,-1.141838,-0.237026,-1.439449,1.083847,0.515704,0.065123,-0.396391,-0.926786,0.375675,2.075619,1.219645,1.013559,13.935498,8.756514,-6.796314,-0.097836,0.041991,0.000000,0.116609,-0.214085,0.000000
2.510000,-1.131019,-0.231916,-1.438779,1.079990,0.506497,0.068929,-0.374661,-0.914605,0.385461,2.277880,1.203456,0.942648,14.837236,6.702998,-7.295253,-0.096666,0.039733,0.000000,0.115890,-0.236237,0.000000
2.520000,-1.120238,-0.226896,-1.438070,1.076358,0.497415,0.072830,-0.351753,-0.901266,0.394519,2.264972,1.525481,0.868500,-6.073872,39.512906,-7.620556,-0.095365,0.037342,0.000000,0.150856,-0.235706,-0.000000
2.530000,-1.109492,-0.221967,-1.437322,1.072954,0.488483,0.076817,-0.328803,-0.885015,0.402810,2.394563,1.611894,0.788428,32.346746,-22.812279,-8.395229,-0.093746,0.034938,0.000000,0.161112,-0.250206,-0.000000
2.540000,-1.098778,-0.217126,-1.436534,1.069791,0.479709,0.080883,-0.303244,-0.870044,0.410267,2.682431,1.436591,0.702392,13.772247,6.088811,-8.722011,-0.092250,0.032250,0.000000,0.143767,-0.281466,-0.000000
2.550000,-1.088095,-0.212372,-1.435704,1.066894,0.471083,0.085020,-0.276032,-0.854908,0.416849,2.767056,1.577913,0.613278,14.553880,3.896603,-9.186871,-0.090725,0.029378,0.000000,0.159868,-0.291209,0.000000
2.560000,-1.077439,-0.207704,-1.434833,1.064274,0.462614,0.089217,-0.247817,-0.838680,0.422514,2.870589,1.673794,0.518859,13.683640,4.161379,-9.638996,-0.089073,0.026392,0.000000,0.171220,-0.302912,0.000000
2.570000,-1.066808,-0.203119,-1.433920,1.061943,0.454310,0.093467,-0.218037,-0.822327,0.427216,3.109836,1.558993,0.421060,26.827126,-16.309480,-9.971850,-0.087395,0.023234,0.000000,0.160275,-0.328959,-0.000000
2.580000,-1.056199,-0.198617,-1.432964,1.059921,0.446163,0.097758,-0.185994,-0.806986,0.430918,3.253065,1.574611,0.318351,1.574274,19.783113,-10.568601,-0.085813,0.019828,0.000000,0.163135,-0.344760,-0.000000
2.590000,-1.045609,-0.194195,-1.431964,1.058224,0.438176,0.102081,-0.153391,-0.790262,0.433567,3.289167,1.736409,0.210844,13.024664,1.684401,-10.874889,-0.084072,0.016358,0.000000,0.181497,-0.349092,0.000000
2.600000,-1.035034,-0.189853,-1.430922,1.056858,0.430359,0.106426,-0.119664,-0.773105,0.435127,3.450514,1.701086,0.100468,11.863166,2.128804,-11.250861,-0.082273,0.012764,0.000000,0.178949,-0.366619,0.000000
2.610000,-1.024471,-0.185588,-1.429836,1.055835,0.422714,0.110780,-0.084614,-0.755972,0.435564,3.557220,1.725851,-0.013649,10.944390,2.012778,-11.595903,-0.080464,0.009026,0.000000,0.182747,-0.378214,-0.000000
2.620000,-1.013916,-0.181398,-1.428706,1.055169,0.415240,0.115133,-0.048432,-0.738658,0.434840,3.682814,1.733922,-0.131614,12.735423,0.398291,-11.965714,-0.078625,0.005166,0.000000,0.184745,-0.391675,0.000000
2.630000,-1.003366,-0.177282,-1.427533,1.054871,0.407941,0.119473,-0.011057,-0.721259,0.432922,3.781746,1.750527,-0.252307,7.001422,2.949784,-12.166960,-0.076766,0.001179,0.000000,0.187605,-0.402140,0.000000
2.640000,-0.992817,-0.173239,-1.426317,1.054950,0.400816,0.123788,0.027096,-0.703608,0.429787,3.851741,1.776903,-0.375391,8.441092,1.525133,-12.471523,-0.074869,-0.002889,0.000000,0.191444,-0.409355,0.000000
2.650000,-0.982266,-0.169265,-1.425058,1.055415,0.393869,0.128065,0.066058,-0.685786,0.425404,3.938274,1.787815,-0.501398,7.424799,1.453663,-12.697411,-0.072944,-0.007039,0.000000,0.193587,-0.418141,0.000000
2.660000,-0.971708,-0.165361,-1.423756,1.056274,0.387101,0.132292,0.105879,-0.667845,0.419754,4.026858,1.800005,-0.628950,6.885372,1.282406,-12.881378,-0.070997,-0.011275,0.000000,0.195793,-0.426946,0.000000
2.670000,-0.961139,-0.161523,-1.422412,1.057535,0.380513,0.136455,0.146300,-0.649768,0.412814,4.044661,1.816150,-0.759580,-0.016096,1.649016,-13.166614,-0.069027,-0.015567,0.000000,0.198344,-0.428028,-0.000000
2.680000,-0.950556,-0.157750,-1.421027,1.059201,0.374106,0.140543,0.186909,-0.631543,0.404562,4.096003,1.826725,-0.890651,10.389533,0.449950,-13.038783,-0.067033,-0.019870,0.000000,0.200215,-0.432467,0.000000
2.690000,-0.939953,-0.154040,-1.419602,1.061276,0.367882,0.144542,0.228374,-0.613257,0.395002,4.185573,1.830916,-1.021669,4.186565,0.675291,-13.230233,-0.065025,-0.024252,0.000000,0.201321,-0.440739,-0.000000
2.700000,-0.929329,-0.150392,-1.418137,1.063770,0.361841,0.148439,0.270338,-0.594911,0.384121,4.208095,1.837539,-1.154500,3.646217,0.345130,-13.256991,-0.063005,-0.028673,0.000000,0.202588,-0.441686,-0.000000
2.710000,-0.918677,-0.146803,-1.416633,1.066684,0.355983,0.152220,0.312591,-0.576684,0.371917,4.241219,1.802587,-1.286105,2.899054,-0.753616,-13.226049,-0.060993,-0.033108,0.000000,0.199363,-0.443546,-0.000000
2.720000,-0.907994,-0.143271,-1.415093,1.070022,0.350307,0.155873,0.355131,-0.558361,0.358387,4.265327,1.882958,-1.420432,1.997353,10.427377,-13.467274,-0.058966,-0.037556,0.000000,0.208214,-0.444232,0.000000
2.730000,-0.897275,-0.139796,-1.413516,1.073787,0.344819,0.159384,0.397876,-0.539361,0.343519,4.282730,1.876788,-1.551847,1.483377,-11.862988,-12.802978,-0.056864,-0.042005,0.000000,0.207804,-0.444015,-0.000000
2.740000,-0.886516,-0.136374,-1.411905,1.077980,0.339517,0.162739,0.440764,-0.521194,0.327363,4.293404,1.775077,-1.679663,0.571781,-2.020588,-12.918424,-0.054849,-0.046448,0.000000,0.197253,-0.442906,0.000000
2.750000,-0.875714,-0.133005,-1.410262,1.082603,0.334394,0.165927,0.483711,-0.503386,0.309919,4.294756,1.781648,-1.808643,-0.227634,-3.093644,-12.704867,-0.052870,-0.050873,0.000000,0.198007,-0.440622,0.000000
2.760000,-0.864863,-0.129686,-1.408587,1.087655,0.329449,0.168933,0.526603,-0.485629,0.291208,4.281345,1.771852,-1.933145,-1.192420,-3.217066,-12.427840,-0.050896,-0.055266,0.000000,0.196925,-0.436639,0.000000
2.770000,-0.853959,-0.126415,-1.406884,1.093135,0.324680,0.171747,0.569408,-0.468306,0.271247,4.282486,1.677400,-2.059253,0.189555,-11.429217,-12.552692,-0.048969,-0.059623,0.000000,0.186941,-0.434000,0.000000
2.780000,-0.842999,-0.123192,-1.405153,1.099043,0.320079,0.174354,0.612163,-0.451885,0.250045,4.259298,1.632378,-2.179144,-4.868125,2.569638,-11.410380,-0.047137,-0.063947,0.000000,0.182047,-0.428703,-0.000000
2.790000,-0.831977,-0.120013,-1.403398,1.105376,0.315643,0.176744,0.654497,-0.435438,0.227689,4.209918,1.643417,-2.292023,-3.770309,-4.622348,-11.393043,-0.045305,-0.068197,0.000000,0.182879,-0.420609,-0.000000
2.800000,-0.820890,-0.116878,-1.401619,1.112131,0.311369,0.178904,0.696425,-0.419351,0.204201,4.173327,1.576472,-2.404851,-4.784683,-4.494363,-10.930263,-0.043514,-0.072374,0.000000,0.175562,-0.413740,0.000000
2.810000,-0.809733,-0.113785,-1.399820,1.119303,0.307254,0.180824,0.737859,-0.403683,0.179619,4.110651,1.560704,-2.510400,-5.926443,-3.978918,-10.410612,-0.041771,-0.076468,0.000000,0.173474,-0.404142,0.000000
2.820000,-0.798502,-0.110733,-1.398003,1.126887,0.303294,0.182493,0.778748,-0.388552,0.153991,4.071600,1.448028,-2.615112,-3.651742,-13.378227,-10.293026,-0.040088,-0.080475,0.000000,0.161364,-0.396920,-0.000000
2.830000,-0.787194,-0.107719,-1.396171,1.134877,0.299479,0.183900,0.819171,-0.374462,0.127347,4.000511,1.401817,-2.711259,-10.617353,4.300390,-8.922158,-0.038517,-0.084401,0.000000,0.156080,-0.386419,0.000000
2.840000,-0.775804,-0.104743,-1.394326,1.143267,0.295806,0.185037,0.858630,-0.360228,0.099799,3.895159,1.429424,-2.798102,-8.660077,-4.001815,-8.673695,-0.036937,-0.088196,0.000000,0.158287,-0.372491,0.000000
2.850000,-0.764327,-0.101802,-1.392471,1.152046,0.292274,0.185894,0.897181,-0.346268,0.071389,3.812281,1.366035,-2.882615,-9.688489,-3.478002,-7.989775,-0.035392,-0.091867,0.000000,0.151147,-0.360900,0.000000
2.860000,-0.752761,-0.098897,-1.390609,1.161207,0.288878,0.186462,0.934899,-0.332994,0.042179,3.732730,1.282987,-2.958106,-10.117005,-4.310523,-7.265872,-0.033923,-0.095421,0.000000,0.142001,-0.349753,-0.000000
2.870000,-0.741102,-0.096024,-1.388743,1.170741,0.285613,0.186735,0.971505,-0.319920,0.012238,3.574198,1.360909,-3.029319,-17.792602,11.322564,-6.812785,-0.032482,-0.098833,0.000000,0.149177,-0.330712,-0.000000
2.880000,-0.729345,-0.093184,-1.386876,1.180632,0.282483,0.186704,1.006548,-0.306203,-0.018374,3.456582,1.329476,-3.090928,-5.604720,-17.880078,-5.498799,-0.030983,-0.102057,0.000000,0.145176,-0.316019,0.000000
2.890000,-0.717488,-0.090374,-1.385010,1.190869,0.279484,0.186365,1.040822,-0.293803,-0.049545,3.385598,1.176588,-3.142403,-12.410755,-4.048312,-4.951509,-0.029625,-0.105175,0.000000,0.128965,-0.306189,-0.000000
2.900000,-0.705527,-0.087594,-1.383149,1.201445,0.276605,0.185712,1.073947,-0.282016,-0.081207,3.240951,1.175117,-3.188510,-12.701359,-4.862668,-4.106223,-0.028338,-0.108152,0.000000,0.128035,-0.289134,-0.000000
2.910000,-0.693458,-0.084842,-1.381297,1.212344,0.273843,0.184740,1.105659,-0.270389,-0.113280,3.099046,1.153471,-3.224518,-13.458291,-4.526963,-3.231362,-0.027074,-0.110963,0.000000,0.125055,-0.272609,-0.000000
2.920000,-0.681279,-0.082117,-1.379456,1.223553,0.271195,0.183445,1.136084,-0.259346,-0.145679,2.992260,1.038101,-3.254348,-10.046914,-13.622808,-2.596268,-0.025876,-0.113623,0.000000,0.112752,-0.259785,-0.000000
2.930000,-0.668986,-0.079418,-1.377629,1.235062,0.268652,0.181825,1.165380,-0.249385,-0.178330,2.853007,0.984394,-3.273546,-17.866688,3.041553,-1.236514,-0.024794,-0.116149,0.000000,0.106659,-0.243998,-0.000000
2.940000,-0.656577,-0.076743,-1.375820,1.246855,0.266208,0.179878,1.193009,-0.239390,-0.211113,2.678551,0.999575,-3.281765,-14.847027,-4.964175,-0.541554,-0.023717,-0.118492,0.000000,0.107391,-0.225050,-0.000000
2.950000,-0.644048,-0.074093,-1.374033,1.258917,0.263863,0.177603,1.219101,-0.229771,-0.243945,2.537725,0.927360,-3.283181,-15.477964,-4.526514,0.395833,-0.022684,-0.120667,0.000000,0.099502,-0.209676,-0.000000
2.960000,-0.631398,-0.071466,-1.372269,1.271232,0.261611,0.174999,1.243717,-0.220750,-0.276741,2.385116,0.876259,-3.274298,-15.844000,-4.516204,1.336951,-0.021717,-0.122683,0.000000,0.093744,-0.193447,0.000000
2.970000,-0.618623,-0.068861,-1.370534,1.283786,0.259446,0.172069,1.266727,-0.212150,-0.309404,2.213554,0.847894,-3.256839,-17.679210,-2.294227,2.198584,-0.020799,-0.124530,0.000000,0.090254,-0.175665,-0.000000
2.980000,-0.605721,-0.066277,-1.368829,1.296561,0.257367,0.168812,1.288014,-0.203844,-0.341844,2.048095,0.806489,-3.229415,-15.381562,-6.019995,3.287266,-0.019917,-0.126201,0.000000,0.085515,-0.158798,0.000000
2.990000,-0.592691,-0.063713,-1.367159,1.309541,0.255368,0.165233,1.307720,-0.196078,-0.373958,1.890219,0.750602,-3.191981,-16.977350,-4.004177,4.155112,-0.019094,-0.127711,0.000000,0.079411,-0.142976,-0.000000
3.000000,-0.579530,-0.061169,-1.365526,1.322710,0.253444,0.161334,1.325748,-0.188739,-0.405656,1.715385,0.716682,-3.145961,-17.195388,-3.924411,5.090753,-0.018320,-0.129055,0.000000,0.075488,-0.125812,0.000000
3.010000,-0.566236,-0.058644,-1.363933,1.336050,0.251592,0.157121,1.342041,-0.181763,-0.436846,1.542851,0.678917,-3.090649,-17.414426,-3.742700,6.008909,-0.017586,-0.130230,0.000000,0.071230,-0.109175,0.000000
3.020000,-0.552808,-0.056137,-1.362384,1.349545,0.249807,0.152599,1.356589,-0.175164,-0.467435,1.366212,0.640808,-3.025466,-17.801499,-3.763287,6.986884,-0.016895,-0.131238,0.000000,0.066976,-0.092452,0.000000
3.030000,-0.539245,-0.053647,-1.360882,1.363176,0.248087,0.147775,1.369364,-0.168934,-0.497328,1.189164,0.606079,-2.951768,-17.599070,-3.176378,7.748532,-0.016246,-0.132080,0.000000,0.063089,-0.075974,0.000000
3.040000,-0.525544,-0.051175,-1.359430,1.376926,0.246427,0.142655,1.380374,-0.163029,-0.526443,1.012202,0.575040,-2.869793,-17.894681,-3.143358,8.681338,-0.015632,-0.132759,0.000000,0.059593,-0.059775,0.000000
3.050000,-0.511706,-0.048719,-1.358030,1.390778,0.244825,0.137249,1.389597,-0.157435,-0.554692,0.832290,0.544230,-2.778547,-17.975549,-2.902271,9.525234,-0.015054,-0.133275,0.000000,0.056154,-0.043571,0.000000
3.060000,-0.497728,-0.046278,-1.356686,1.404712,0.243278,0.131565,1.397021,-0.152133,-0.581990,0.652569,0.516539,-2.679782,-18.024195,-2.652676,10.332565,-0.014508,-0.133631,0.000000,0.053047,-0.027627,0.000000
3.070000,-0.483611,-0.043853,-1.355399,1.418712,0.241782,0.125613,1.402642,-0.147097,-0.608252,0.471350,0.491045,-2.570986,-18.155441,-2.425543,11.315066,-0.013992,-0.133828,0.000000,0.050177,-0.011803,-0.000000
3.080000,-0.469354,-0.041442,-1.354174,1.432759,0.240335,0.119403,1.406451,-0.142302,-0.633389,0.290798,0.468457,-2.455823,-17.948159,-2.089588,11.708472,-0.013503,-0.133868,0.000000,0.047616,0.003756,-0.000000
3.090000,-0.454956,-0.039046,-1.353012,1.446835,0.238935,0.112949,1.408462,-0.137718,-0.657350,0.111289,0.448920,-2.334783,-18.008688,-1.834409,12.600870,-0.013039,-0.133754,0.000000,0.045372,0.019035,0.000000
3.100000,-0.440417,-0.036664,-1.351916,1.460922,0.237580,0.106261,1.408674,-0.133316,-0.680053,-0.068780,0.431964,-2.204842,-17.940986,-1.536517,13.273295,-0.012595,-0.133488,0.000000,0.043395,0.034163,0.000000
3.110000,-0.425738,-0.034294,-1.350888,1.475002,0.236268,0.099352,1.407090,-0.129067,-0.701431,-0.247747,0.418344,-2.069788,-17.850704,-1.224964,13.893670,-0.012170,-0.133072,0.000000,0.041757,0.049045,0.000000
3.120000,-0.410917,-0.031938,-1.349930,1.489058,0.234998,0.092237,1.403722,-0.124942,-0.721416,-0.425733,0.407136,-1.925610,-17.740130,-0.977012,14.776279,-0.011759,-0.132508,0.000000,0.040365,0.063661,-0.000000
3.130000,-0.395957,-0.029594,-1.349044,1.503071,0.233769,0.084929,1.398580,-0.120912,-0.739932,-0.602423,0.399633,-1.777736,-17.593978,-0.521107,14.786080,-0.011361,-0.131799,0.000000,0.039343,0.078064,0.000000
3.140000,-0.380856,-0.027263,-1.348232,1.517024,0.232580,0.077443,1.391679,-0.116936,-0.756962,-0.777586,0.395971,-1.626842,-17.437273,-0.248305,15.544532,-0.010971,-0.130947,0.000000,0.038703,0.092257,0.000000
3.150000,-0.365616,-0.024943,-1.347495,1.530899,0.231430,0.069795,1.383034,-0.112984,-0.772441,-0.951079,0.395017,-1.468364,-17.255748,0.096863,15.983542,-0.010586,-0.129955,0.000000,0.038331,0.106188,0.000000
3.160000,-0.350238,-0.022634,-1.346836,1.544679,0.230320,0.061999,1.372662,-0.109022,-0.786323,-1.122919,0.397992,-1.307580,-17.059872,0.451227,16.360637,-0.010203,-0.128824,0.000000,0.038345,0.119939,-0.000000
3.170000,-0.334723,-0.020336,-1.346256,1.558346,0.229250,0.054074,1.360586,-0.105016,-0.798565,-1.291759,0.403618,-1.139524,-16.753106,0.721325,17.052267,-0.009818,-0.127557,0.000000,0.038620,0.133342,0.000000
3.180000,-0.319072,-0.018049,-1.345755,1.571885,0.228220,0.046034,1.346832,-0.100935,-0.809113,-1.458929,0.413409,-0.970694,-16.679617,1.238812,16.698964,-0.009429,-0.126157,0.000000,0.039304,0.146616,0.000000
3.190000,-0.303286,-0.015771,-1.345335,1.585277,0.227232,0.037897,1.331413,-0.096733,-0.817981,-1.624326,0.427465,-0.801883,-16.348606,1.525919,17.245907,-0.009031,-0.124625,0.000000,0.040406,0.159773,0.000000
3.200000,-0.287367,-0.013504,-1.344997,1.598508,0.226286,0.029680,1.314358,-0.092377,-0.825129,-1.786261,0.444332,-0.627580,-16.084142,1.894656,17.414289,-0.008620,-0.122963,0.000000,0.041786,0.172609,0.000000
3.210000,-0.271316,-0.011246,-1.344742,1.611559,0.225385,0.021400,1.295694,-0.087832,-0.830537,-1.946152,0.465395,-0.453911,-15.810846,2.266947,17.517334,-0.008194,-0.121173,0.000000,0.043579,0.185340,0.000000
3.220000,-0.255136,-0.008996,-1.344570,1.624416,0.224530,0.013075,1.275451,-0.083061,-0.834188,-2.101688,0.489201,-0.275512,-15.372515,2.543465,17.952691,-0.007748,-0.119257,0.000000,0.045647,0.197706,-0.000000
3.230000,-0.238829,-0.006755,-1.344481,1.637063,0.223724,0.004722,1.253666,-0.078033,-0.836055,-2.255204,0.517298,-0.099254,-15.330880,3.077162,17.283516,-0.007279,-0.117219,0.000000,0.048142,0.210015,-0.000000
3.240000,-0.222396,-0.004521,-1.344475,1.649484,0.222971,-0.003640,1.230353,-0.072700,-0.836184,-2.406678,0.549732,0.074039,-14.882625,3.359097,17.568769,-0.006784,-0.115057,0.000000,0.051071,0.222282,-0.000000
3.250000,-0.205840,-0.002295,-1.344553,1.661665,0.222272,-0.011995,1.205550,-0.067030,-0.834561,-2.553489,0.584890,0.250222,-14.556387,3.721304,17.456576,-0.006257,-0.112774,0.000000,0.054283,0.234216,-0.000000
3.260000,-0.189163,-0.000076,-1.344715,1.673591,0.221631,-0.020326,1.179290,-0.060988,-0.831194,-2.697867,0.624207,0.422955,-14.223687,4.081074,17.281677,-0.005696,-0.110373,0.000000,0.057919,0.246099,0.000000
3.270000,-0.172369,0.002138,-1.344960,1.685246,0.221053,-0.028614,1.151611,-0.054539,-0.826093,-2.837063,0.665934,0.597525,-13.704465,4.321180,17.429285,-0.005098,-0.107854,0.000000,0.061817,0.257633,-0.000000
3.280000,-0.155459,0.004346,-1.345287,1.696618,0.220542,-0.036842,1.122557,-0.047655,-0.819261,-2.973824,0.711822,0.767286,-13.648790,4.856635,16.508373,-0.004459,-0.105220,0.000000,0.066148,0.269149,0.000000
3.290000,-0.138438,0.006549,-1.345696,1.707693,0.220102,-0.044993,1.092142,-0.040289,-0.810767,-3.108164,0.761853,0.931462,-13.125598,5.088819,16.514979,-0.003773,-0.102471,0.000000,0.070915,0.280661,-0.000000
3.300000,-0.121307,0.008748,-1.346187,1.718457,0.219738,-0.053052,1.060413,-0.032412,-0.800628,-3.237078,0.814056,1.095752,-12.746580,5.408140,16.139750,-0.003040,-0.099608,0.000000,0.075937,0.291842,-0.000000
3.310000,-0.104070,0.010944,-1.346757,1.728897,0.219455,-0.061000,1.027425,-0.024023,-0.788874,-3.359428,0.863490,1.254231,-12.288333,5.587597,15.712192,-0.002256,-0.096635,0.000000,0.080756,0.302645,-0.000000
3.320000,-0.086730,0.013137,-1.347406,1.739001,0.219259,-0.068824,0.993194,-0.015046,-0.775545,-3.488027,0.935994,1.411352,-12.880685,7.833745,15.545784,-0.001415,-0.093552,0.000000,0.087805,0.314232,0.000000
3.330000,-0.069291,0.015329,-1.348133,1.748757,0.219157,-0.076506,0.957706,-0.005348,-0.760670,-3.605482,0.997504,1.561668,-10.592275,4.433633,14.505531,-0.000504,-0.090354,0.000000,0.093891,0.325031,-0.000000
3.340000,-0.051756,0.017521,-1.348936,1.758152,0.219154,-0.084032,0.921128,0.004854,-0.744337,-3.710983,1.046466,1.704540,-11.062652,6.447008,14.222618,0.000458,-0.087054,0.000000,0.098862,0.334961,0.000000
3.350000,-0.034129,0.019713,-1.349813,1.767175,0.219256,-0.091388,0.883458,0.015673,-0.726586,-3.822024,1.117206,1.844631,-10.592779,6.616584,13.629360,0.001482,-0.083651,0.000000,0.105963,0.345629,0.000000
3.360000,-0.016414,0.021906,-1.350763,1.775817,0.219470,-0.098560,0.844657,0.027284,-0.707471,-3.939250,1.208294,1.977203,-10.428179,7.330436,12.997035,0.002586,-0.080138,0.000000,0.115075,0.357141,0.000000
3.370000,0.001386,0.024102,-1.351784,1.784065,0.219804,-0.105533,0.804876,0.039516,-0.687054,-4.008273,1.224499,2.105545,-5.727166,0.051137,12.551610,0.003753,-0.076527,0.000000,0.117166,0.364323,-0.000000
3.380000,0.019266,0.026303,-1.352873,1.791912,0.220261,-0.112296,0.764388,0.051990,-0.665389,-4.103139,1.296234,2.225730,-13.316763,14.420096,11.477049,0.004950,-0.072841,0.000000,0.124597,0.374192,-0.000000
3.390000,0.037223,0.028508,-1.354029,1.799349,0.220848,-0.118837,0.722698,0.065677,-0.642569,-4.226953,1.428936,2.337306,-9.067009,7.928510,10.949158,0.006268,-0.069031,0.000000,0.137945,0.387075,0.000000
3.400000,0.055252,0.030720,-1.355249,1.806363,0.221577,-0.125144,0.680044,0.080257,-0.618658,-4.304537,1.490121,2.443649,-8.810782,8.466500,10.200253,0.007679,-0.065117,0.000000,0.144573,0.395786,-0.000000
3.410000,0.073349,0.032940,-1.356531,1.812947,0.222455,-0.131207,0.636662,0.095415,-0.593726,-4.368335,1.536879,2.541344,-7.922879,7.884993,9.426457,0.009154,-0.061119,0.000000,0.149898,0.403406,-0.000000
3.420000,0.091509,0.035170,-1.357872,1.819094,0.223488,-0.137016,0.592384,0.111544,-0.567850,-4.499499,1.712101,2.632955,-14.442219,20.344318,8.804176,0.010730,-0.057020,0.000000,0.167667,0.417700,-0.000000
3.430000,0.109729,0.037410,-1.359270,1.824791,0.224692,-0.142561,0.546883,0.129318,-0.541098,-4.575987,1.800706,2.715515,-0.730884,-2.844132,7.702628,0.012475,-0.052784,0.000000,0.177247,0.426992,0.000000
3.440000,0.128004,0.039664,-1.360723,1.830031,0.226075,-0.147835,0.501096,0.147182,-0.513571,-4.592204,1.792743,2.788758,-6.410315,8.116091,7.033557,0.014239,-0.048501,0.000000,0.177560,0.430657,0.000000
3.450000,0.146328,0.041933,-1.362226,1.834811,0.227638,-0.152830,0.454762,0.165692,-0.485343,-4.671066,1.904631,2.855396,-5.475181,7.412335,6.203534,0.016077,-0.044143,0.000000,0.189542,0.440539,0.000000
3.460000,0.164698,0.044218,-1.363778,1.839124,0.229392,-0.157540,0.407735,0.185197,-0.456492,-4.734663,1.998498,2.913457,-5.040931,7.568230,5.376617,0.018023,-0.039694,0.000000,0.199881,0.449124,0.000000
3.470000,0.183109,0.046521,-1.365376,1.842964,0.231344,-0.161958,0.360262,0.205359,-0.427104,-4.751641,2.021121,2.962631,-0.496680,0.639562,4.488338,0.020045,-0.035177,0.000000,0.203349,0.453322,-0.000000
3.480000,0.201556,0.048845,-1.367016,1.846328,0.233499,-0.166080,0.312617,0.225796,-0.397266,-4.789571,2.088623,3.003862,-7.158605,12.977840,3.759213,0.022107,-0.030617,0.000000,0.211240,0.459675,0.000000
3.490000,0.220034,0.051192,-1.368696,1.849214,0.235864,-0.169902,0.264374,0.247328,-0.367053,-4.851573,2.206233,3.037212,-3.084040,6.828810,2.881020,0.024290,-0.025972,0.000000,0.224126,0.468510,0.000000
3.500000,0.238539,0.053563,-1.370413,1.851615,0.238448,-0.173420,0.215769,0.269632,-0.336551,-4.869641,2.256786,3.061759,-2.684811,6.987944,2.060828,0.026562,-0.021262,0.000000,0.230490,0.473133,0.000000
3.510000,0.257065,0.055961,-1.372164,1.853528,0.241259,-0.176632,0.166905,0.292625,-0.305842,-4.903579,2.343878,3.078847,-2.351435,7.261060,1.259355,0.028915,-0.016498,0.000000,0.240503,0.479390,0.000000
3.520000,0.275608,0.058389,-1.373945,1.854952,0.244303,-0.179537,0.117851,0.316261,-0.275009,-4.900553,2.372813,3.086075,1.256642,1.596156,0.284650,0.031347,-0.011685,0.000000,0.244797,0.482046,0.000000
3.530000,0.294162,0.060848,-1.375754,1.855886,0.247585,-0.182133,0.068826,0.340232,-0.244142,-4.914126,2.440244,3.086609,-4.022531,11.979726,-0.172023,0.033826,-0.006845,0.000000,0.252916,0.486364,0.000000
3.540000,0.312724,0.063342,-1.377587,1.856327,0.251112,-0.184420,0.019493,0.365232,-0.213297,-4.946552,2.550058,3.080746,-0.742445,6.869986,-1.094710,0.036422,-0.001945,0.000000,0.265295,0.492579,0.000000
3.550000,0.331287,0.065871,-1.379441,1.856275,0.254892,-0.186399,-0.029957,0.390992,-0.182560,-4.943466,2.603774,3.065608,-0.346337,6.954133,-1.832658,0.039108,0.002998,0.000000,0.272099,0.495251,0.000000
3.560000,0.349848,0.068440,-1.381314,1.855729,0.258933,-0.188072,-0.079300,0.417202,-0.152005,-4.921363,2.632735,3.044279,0.648698,5.968880,-2.542061,0.041853,0.007960,0.000000,0.276416,0.495980,0.000000
3.570000,0.368400,0.071051,-1.383201,1.854689,0.263239,-0.189440,-0.128685,0.444194,-0.121707,-4.968334,2.788630,3.013812,-6.037980,18.267190,-3.437704,0.044691,0.012956,0.000000,0.293449,0.503594,-0.000000
3.580000,0.386940,0.073706,-1.385101,1.853153,0.267822,-0.190507,-0.178446,0.472616,-0.091746,-4.958050,2.852336,2.977909,8.222071,-5.751265,-3.734917,0.047687,0.018020,0.000000,0.301248,0.505405,0.000000
3.590000,0.405462,0.076408,-1.387011,1.851122,0.272690,-0.191276,-0.227605,0.500844,-0.062164,-4.884812,2.813705,2.936996,2.386281,5.018425,-4.553059,0.050676,0.023051,0.000000,0.298673,0.500755,-0.000000
3.600000,0.423961,0.079161,-1.388926,1.848602,0.277840,-0.191752,-0.276427,0.529406,-0.033035,-4.876043,2.893213,2.887889,3.391999,3.905789,-5.153433,0.053712,0.028076,0.000000,0.307943,0.502497,-0.000000
3.610000,0.442432,0.081966,-1.390845,1.845595,0.283280,-0.191938,-0.325073,0.558637,-0.004419,-4.853821,2.955195,2.834514,3.815199,3.764320,-5.707565,0.056828,0.033110,0.000000,0.315403,0.502761,-0.000000
3.620000,0.460871,0.084827,-1.392764,1.842102,0.289014,-0.191842,-0.373265,0.588121,0.023622,-4.774364,2.925032,2.772086,9.388299,-5.208948,-6.586493,0.059980,0.038123,0.000000,0.313411,0.497042,0.000000
3.630000,0.479272,0.087747,-1.394680,1.838132,0.295041,-0.191468,-0.420672,0.617346,0.051015,-4.722489,2.947343,2.706802,0.899168,9.815151,-6.458804,0.063117,0.043079,0.000000,0.316650,0.493963,-0.000000
3.640000,0.497632,0.090729,-1.396592,1.833689,0.301364,-0.190824,-0.467841,0.647300,0.077752,-4.702143,3.028540,2.639267,5.876895,1.792847,-7.229777,0.066337,0.048034,0.000000,0.325824,0.493954,0.000000
3.650000,0.515945,0.093776,-1.398496,1.828777,0.307988,-0.189916,-0.514489,0.677545,0.103771,-4.628019,3.022504,2.563919,6.243918,1.614567,-7.646801,0.069595,0.052956,0.000000,0.325983,0.488251,-0.000000
3.660000,0.534206,0.096890,-1.400390,1.823402,0.314915,-0.188751,-0.560430,0.707809,0.129026,-4.558891,3.028444,2.486587,6.851219,0.972083,-8.014609,0.072862,0.057825,0.000000,0.327260,0.482874,-0.000000
3.670000,0.552411,0.100075,-1.402270,1.817571,0.322145,-0.187338,-0.605706,0.738206,0.153475,-4.497744,3.054783,2.401948,6.083407,2.933449,-8.715522,0.076149,0.062643,0.000000,0.330483,0.478099,0.000000
3.680000,0.570556,0.103334,-1.404136,1.811290,0.329680,-0.185684,-0.650332,0.768819,0.177063,-4.422411,3.058516,2.316420,9.003083,-2.231733,-8.377995,0.079463,0.067409,0.000000,0.331289,0.471677,0.000000
3.690000,0.588635,0.106670,-1.405983,1.804567,0.337520,-0.183799,-0.694098,0.799284,0.199804,-4.332043,3.037611,2.230639,8.353915,-0.578726,-8.965232,0.082765,0.072100,0.000000,0.329462,0.463522,0.000000
3.700000,0.606646,0.110085,-1.407811,1.797411,0.345665,-0.181691,-0.737011,0.829657,0.221653,-4.249320,3.035250,2.138886,8.899724,-1.263279,-9.187328,0.086060,0.076714,0.000000,0.329384,0.455925,0.000000
3.710000,0.624582,0.113584,-1.409616,1.789830,0.354113,-0.179369,-0.779051,0.859935,0.242583,-4.157846,3.019174,2.046893,9.383098,-1.876197,-9.367408,0.089347,0.081248,0.000000,0.327787,0.447237,0.000000
3.720000,0.642441,0.117169,-1.411398,1.781833,0.362863,-0.176843,-0.820153,0.890026,0.262572,-4.061804,2.998415,1.950165,9.830471,-2.350540,-9.814850,0.092614,0.085693,0.000000,0.325557,0.437852,0.000000
3.730000,0.660218,0.120842,-1.413153,1.773430,0.371913,-0.174121,-0.860272,0.919879,0.281589,-3.961129,2.970599,1.854017,10.301252,-3.215100,-9.404099,0.095855,0.090041,0.000000,0.322496,0.427809,-0.000000
3.740000,0.677908,0.124608,-1.414879,1.764631,0.381260,-0.171214,-0.899361,0.949414,0.299658,-3.856026,2.935616,1.759013,10.706767,-3.706288,-9.749953,0.099061,0.094286,0.000000,0.318600,0.417143,-0.000000
3.750000,0.695509,0.128468,-1.416576,1.755446,0.390900,-0.168131,-0.937379,0.978577,0.316755,-3.747001,2.895846,1.660480,11.102784,-4.321530,-9.793111,0.102225,0.098423,0.000000,0.314072,0.405865,-0.000000
3.760000,0.713016,0.132427,-1.418241,1.745887,0.400830,-0.164882,-0.974292,1.007313,0.332872,-3.635123,2.850500,1.563025,11.452604,-4.908692,-9.802371,0.105340,0.102445,0.000000,0.308877,0.394137,-0.000000
3.770000,0.730425,0.136486,-1.419873,1.735964,0.411045,-0.161477,-1.010056,1.035554,0.348007,-3.516343,2.796206,1.463525,12.120405,-5.791625,-9.986117,0.108399,0.106346,0.000000,0.302640,0.381514,0.000000
3.780000,0.747734,0.140649,-1.421470,1.725690,0.421539,-0.157925,-1.044617,1.063225,0.362149,-3.396553,2.738000,1.365634,11.827500,-5.842939,-9.584035,0.111392,0.110119,0.000000,0.295924,0.368653,0.000000
3.790000,0.764938,0.144918,-1.423031,1.715076,0.432307,-0.154237,-1.077986,1.090303,0.375327,-3.276272,2.676201,1.269784,12.404515,-6.673761,-9.688944,0.114316,0.113765,0.000000,0.288772,0.355627,-0.000000
3.800000,0.782034,0.149296,-1.424555,1.704134,0.443343,-0.150422,-1.110120,1.116718,0.387539,-3.150086,2.605914,1.172851,12.648292,-7.223197,-9.585913,0.117163,0.117276,0.000000,0.280654,0.341844,0.000000
3.810000,0.799020,0.153785,-1.426039,1.692878,0.454639,-0.146490,-1.140987,1.142408,0.398791,-3.022968,2.531267,1.077827,12.865135,-7.762544,-9.460137,0.119927,0.120648,0.000000,0.272034,0.327868,0.000000
3.820000,0.815891,0.158389,-1.427484,1.681319,0.466188,-0.142449,-1.170565,1.167321,0.409097,-2.892007,2.450173,0.983309,13.230706,-8.396671,-9.395995,0.122602,0.123879,0.000000,0.262690,0.313389,0.000000
3.830000,0.832645,0.163110,-1.428888,1.669471,0.477983,-0.138311,-1.198825,1.191397,0.418465,-2.760373,2.364584,0.890896,13.088462,-8.716319,-9.081884,0.125180,0.126963,0.000000,0.252848,0.298768,0.000000
3.840000,0.849279,0.167950,-1.430250,1.657347,0.490013,-0.134083,-1.225772,1.214599,0.426923,-2.628476,2.274752,0.800850,13.378912,-9.304598,-8.968368,0.127657,0.129901,0.000000,0.242546,0.284061,-0.000000
3.850000,0.865791,0.172911,-1.431569,1.644960,0.502272,-0.129775,-1.251383,1.236872,0.434485,-2.493672,2.179045,0.711958,13.484554,-9.776305,-8.762843,0.130028,0.132689,0.000000,0.231610,0.268990,0.000000
3.860000,0.882178,0.177996,-1.432845,1.632324,0.514748,-0.125396,-1.275647,1.258168,0.441170,-2.358876,2.079447,0.625344,13.558345,-10.222346,-8.545570,0.132288,0.135326,0.000000,0.220266,0.253881,-0.000000
3.870000,0.898437,0.183207,-1.434077,1.619451,0.527432,-0.120955,-1.298552,1.278439,0.447000,-2.221784,1.973909,0.541202,13.769817,-10.801492,-8.292185,0.134431,0.137811,0.000000,0.208314,0.238510,-0.000000
3.880000,0.914566,0.188545,-1.435264,1.606357,0.540313,-0.116459,-1.320085,1.297636,0.452001,-2.085370,1.865172,0.459300,13.505880,-10.939666,-8.086760,0.136453,0.140140,0.000000,0.196039,0.223190,0.000000
3.890000,0.930563,0.194013,-1.436406,1.593054,0.553381,-0.111917,-1.340263,1.315734,0.456194,-1.950021,1.753573,0.379735,13.646019,-11.457144,-7.812999,0.138351,0.142317,0.000000,0.183482,0.207973,-0.000000
3.900000,0.946427,0.199613,-1.437503,1.579556,0.566624,-0.107338,-1.359079,1.332688,0.459605,-1.813271,1.636795,0.302970,13.613386,-11.813684,-7.550129,0.140121,0.144339,0.000000,0.170422,0.192618,0.000000
3.910000,0.962154,0.205346,-1.438553,1.565877,0.580030,-0.102728,-1.376534,1.348462,0.462261,-1.677761,1.517422,0.228524,13.553031,-12.141456,-7.285046,0.141759,0.146208,0.000000,0.157121,0.177400,0.000000
3.920000,0.977744,0.211214,-1.439557,1.552030,0.593589,-0.098095,-1.392631,1.363019,0.464189,-1.541669,1.393269,0.157779,13.595265,-12.602557,-6.914731,0.143262,0.147923,0.000000,0.143382,0.162158,-0.000000
3.930000,0.993194,0.217219,-1.440515,1.538029,0.607287,-0.093446,-1.407374,1.376322,0.465423,-1.407321,1.267184,0.089158,13.268277,-12.607747,-6.810504,0.144626,0.149485,0.000000,0.129476,0.147116,0.000000
3.940000,1.008504,0.223361,-1.441426,1.523887,0.621111,-0.088789,-1.420785,1.388359,0.465979,-1.275045,1.139537,0.022625,13.249820,-13.000199,-6.443666,0.145851,0.150897,0.000000,0.115445,0.132312,0.000000
3.950000,1.023671,0.229641,-1.442291,1.509618,0.635050,-0.084129,-1.432874,1.399098,0.465889,-1.142965,1.007973,-0.040156,13.096124,-13.225361,-6.164049,0.146934,0.152160,0.000000,0.101078,0.117584,0.000000
3.960000,1.038696,0.236062,-1.443109,1.495234,0.649089,-0.079473,-1.443653,1.408515,0.465182,-1.013093,0.875160,-0.100801,12.920304,-13.419482,-5.889245,0.147872,0.153275,0.000000,0.086626,0.103120,-0.000000
3.970000,1.053576,0.242623,-1.443880,1.480749,0.663215,-0.074827,-1.453138,1.416588,0.463888,-0.884208,0.738876,-0.157246,12.809271,-13.748672,-5.473533,0.148665,0.154246,0.000000,0.071894,0.088829,0.000000
3.980000,1.068310,0.249326,-1.444605,1.466176,0.677416,-0.070197,-1.461346,1.423291,0.462043,-0.757899,0.602040,-0.211825,12.448016,-13.611527,-5.445020,0.149310,0.155073,0.000000,0.057149,0.074842,-0.000000
3.990000,1.082899,0.256172,-1.445284,1.451526,0.691677,-0.065588,-1.468306,1.428629,0.459657,-0.634415,0.465036,-0.264667,12.290418,-13.869697,-5.049703,0.149808,0.155760,0.000000,0.042427,0.061186,-0.000000
4.000000,1.097341,0.263160,-1.445917,1.436814,0.705984,-0.061006,-1.474039,1.432582,0.456764,-0.512526,0.325456,-0.313460,12.040161,-13.957251,-4.784113,0.150158,0.156311,0.000000,0.027519,0.047771,0.000000
4.010000,1.111635,0.270292,-1.446504,1.422050,0.720324,-0.056455,-1.478566,1.435139,0.453393,-0.393453,0.185966,-0.360419,11.776280,-14.014906,-4.527848,0.150359,0.156728,0.000000,0.012665,0.034692,0.000000
4.020000,1.125781,0.277567,-1.447046,1.407246,0.734682,-0.051939,-1.481916,1.436293,0.449571,-0.277010,0.044523,-0.403292,11.505741,-14.193083,-4.126047,0.150411,0.157014,0.000000,-0.002312,0.021965,-0.000000
4.030000,1.139780,0.284985,-1.447543,1.392415,0.749045,-0.047465,-1.484116,1.436033,0.445332,-0.163474,-0.096210,-0.444608,11.199172,-13.946919,-4.140677,0.150313,0.157173,0.000000,-0.017176,0.009580,-0.000000
4.040000,1.153630,0.292548,-1.447996,1.377568,0.763398,-0.043034,-1.485196,1.434373,0.440683,-0.052982,-0.235872,-0.484541,10.901376,-14.058050,-3.768002,0.150068,0.157209,0.000000,-0.031895,-0.002453,-0.000000
4.050000,1.167331,0.300253,-1.448404,1.362715,0.777728,-0.038652,-1.485186,1.431310,0.435655,0.054477,-0.376636,-0.520669,10.584547,-14.013872,-3.537269,0.149675,0.157125,0.000000,-0.046657,-0.014094,0.000000
4.060000,1.180884,0.308102,-1.448769,1.347867,0.792019,-0.034322,-1.484117,1.426845,0.430273,0.158785,-0.516251,-0.555296,10.259402,-13.945644,-3.317157,0.149135,0.156925,0.000000,-0.061265,-0.025369,0.000000
4.070000,1.194289,0.316093,-1.449091,1.333036,0.806260,-0.030048,-1.482022,1.420985,0.424562,0.259485,-0.655842,-0.586374,9.894636,-13.929390,-2.969966,0.148450,0.156613,0.000000,-0.075807,-0.036198,0.000000
4.080000,1.207545,0.324227,-1.449370,1.318230,0.820434,-0.025832,-1.478938,1.413733,0.418550,0.356979,-0.793936,-0.616196,9.603431,-13.684267,-2.998153,0.147620,0.156194,0.000000,-0.090167,-0.046661,0.000000
4.090000,1.220653,0.332502,-1.449607,1.303460,0.834530,-0.021678,-1.474894,1.405112,0.412241,0.451212,-0.930248,-0.644946,9.226186,-13.614237,-2.682368,0.146647,0.155671,0.000000,-0.104320,-0.056754,-0.000000
4.100000,1.233614,0.340917,-1.449804,1.288735,0.848532,-0.017588,-1.469927,1.395130,0.405663,0.541616,-1.065810,-0.670474,8.869539,-13.455095,-2.495431,0.145534,0.155049,0.000000,-0.118342,-0.066387,0.000000
4.110000,1.246428,0.349472,-1.449959,1.274065,0.862428,-0.013565,-1.464073,1.383803,0.398835,0.628486,-1.199291,-0.694820,8.505686,-13.273232,-2.319182,0.144281,0.154331,0.000000,-0.132129,-0.075623,0.000000
4.120000,1.259096,0.358165,-1.450075,1.259457,0.876204,-0.009612,-1.457369,1.371148,0.391777,0.711719,-1.331531,-0.716378,8.139462,-13.137235,-2.047841,0.142892,0.153522,0.000000,-0.145743,-0.084427,-0.000000
4.130000,1.271618,0.366996,-1.450152,1.244920,0.889847,-0.005730,-1.449851,1.357181,0.384510,0.791247,-1.461251,-0.736937,7.765674,-12.802419,-2.067063,0.141367,0.152626,0.000000,-0.159082,-0.092821,0.000000
4.140000,1.283994,0.375962,-1.450190,1.230462,0.903343,-0.001923,-1.441556,1.341932,0.377040,0.867041,-1.588211,-0.756659,7.393625,-12.621203,-1.824435,0.139711,0.151648,0.000000,-0.172125,-0.100805,0.000000
4.150000,1.296227,0.385062,-1.450191,1.216091,0.916681,0.001810,-1.432523,1.325423,0.369386,0.939107,-1.713321,-0.773912,7.018798,-12.363492,-1.682260,0.137926,0.150592,0.000000,-0.184942,-0.108357,0.000000
4.160000,1.308316,0.394295,-1.450154,1.201814,0.929848,0.005465,-1.422786,1.307676,0.361565,1.007655,-1.835499,-0.790238,6.648426,-12.088917,-1.549107,0.136013,0.149461,0.000000,-0.197444,-0.115521,0.000000
4.170000,1.320264,0.403658,-1.450082,1.187638,0.942831,0.009040,-1.412385,1.288720,0.353589,1.071688,-1.955227,-0.804598,6.199427,-11.834932,-1.358400,0.133978,0.148261,0.000000,-0.209671,-0.122182,0.000000
4.180000,1.332070,0.413151,-1.449974,1.173569,0.955618,0.012536,-1.401362,1.268582,0.345475,1.132511,-2.071750,-0.818149,5.966666,-11.466647,-1.354076,0.131821,0.146997,0.000000,-0.221558,-0.128492,-0.000000
4.190000,1.343735,0.422770,-1.449831,1.159613,0.968198,0.015950,-1.389745,1.247297,0.337228,1.190198,-2.184896,-0.831016,5.529695,-11.179629,-1.186155,0.129548,0.145670,0.000000,-0.233088,-0.134460,0.000000
4.200000,1.355262,0.432514,-1.449655,1.145776,0.980560,0.019280,-1.377574,1.224894,0.328861,1.243465,-2.295135,-0.842183,5.165824,-10.846959,-1.083481,0.127160,0.144287,0.000000,-0.244301,-0.139940,0.000000
4.210000,1.366651,0.442381,-1.449446,1.132063,0.992693,0.022526,-1.364886,1.201406,0.320386,1.293596,-2.401944,-0.852614,4.808840,-10.504293,-0.987709,0.124663,0.142850,0.000000,-0.255152,-0.145080,-0.000000
4.220000,1.377904,0.452367,-1.449205,1.118479,1.004585,0.025687,-1.351718,1.176867,0.311813,1.339174,-2.505105,-0.861810,4.358182,-10.134314,-0.868314,0.122059,0.141364,0.000000,-0.265615,-0.149728,0.000000
4.230000,1.389021,0.462471,-1.448932,1.105030,1.016227,0.028762,-1.338112,1.151315,0.303152,1.381843,-2.604771,-0.870332,4.178062,-9.797568,-0.837515,0.119352,0.139834,0.000000,-0.275709,-0.154060,0.000000
4.240000,1.400005,0.472691,-1.448630,1.091719,1.027608,0.031750,-1.324090,1.124784,0.294408,1.421725,-2.700856,-0.878263,3.747949,-9.409524,-0.733754,0.116546,0.138262,0.000000,-0.285427,-0.158091,-0.000000
4.250000,1.410856,0.483023,-1.448298,1.078549,1.038719,0.034650,-1.309693,1.097311,0.285591,1.457257,-2.793004,-0.885157,3.410665,-9.027192,-0.662231,0.113645,0.136652,0.000000,-0.294728,-0.161656,0.000000
4.260000,1.421576,0.493464,-1.447937,1.065526,1.049551,0.037462,-1.294954,1.068936,0.276707,1.489828,-2.881374,-0.891447,3.079167,-8.637563,-0.595206,0.110652,0.135009,0.000000,-0.303630,-0.164902,0.000000
4.270000,1.432167,0.504013,-1.447549,1.052651,1.060095,0.040184,-1.279909,1.039698,0.267764,1.518629,-2.965659,-0.897065,2.706770,-8.226138,-0.530453,0.107573,0.133335,0.000000,-0.312103,-0.167747,0.000000
4.280000,1.442630,0.514665,-1.447134,1.039929,1.070342,0.042817,-1.264591,1.009636,0.258768,1.544506,-3.046041,-0.902099,2.470611,-7.849562,-0.477163,0.104412,0.131635,0.000000,-0.320163,-0.170279,-0.000000
4.290000,1.452966,0.525419,-1.446693,1.027360,1.080285,0.045359,-1.249028,0.978790,0.249724,1.567567,-3.122476,-0.906595,2.117934,-7.428795,-0.421294,0.101172,0.129912,0.000000,-0.327806,-0.172510,-0.000000
4.300000,1.463178,0.536270,-1.446227,1.014949,1.089916,0.047811,-1.233252,0.947201,0.240638,1.587099,-3.194670,-0.910546,1.815073,-7.017164,-0.371240,0.097857,0.128169,0.000000,-0.335001,-0.174367,-0.000000
4.310000,1.473266,0.547216,-1.445737,1.002696,1.099227,0.050172,-1.217295,0.914910,0.231515,1.603956,-3.262868,-0.913974,1.522815,-6.603710,-0.323592,0.094473,0.126409,0.000000,-0.341772,-0.175938,0.000000
4.320000,1.483232,0.558253,-1.445224,0.990603,1.108212,0.052441,-1.201186,0.881959,0.222359,1.617262,-3.326567,-0.917109,1.173607,-6.153420,-0.295450,0.091023,0.124635,0.000000,-0.348070,-0.177138,0.000000
4.330000,1.493078,0.569379,-1.444688,0.978673,1.116864,0.054619,-1.184957,0.848391,0.213174,1.628169,-3.386304,-0.919712,1.010427,-5.794379,-0.225238,0.087513,0.122852,0.000000,-0.353944,-0.178081,-0.000000
4.340000,1.502806,0.580589,-1.444132,0.966905,1.125177,0.056705,-1.168630,0.814246,0.203967,1.636813,-3.442091,-0.921795,0.685622,-5.344945,-0.200403,0.083946,0.121061,0.000000,-0.359397,-0.178781,-0.000000
4.350000,1.512417,0.591881,-1.443554,0.955300,1.133147,0.058698,-1.152232,0.779565,0.194739,1.642203,-3.493355,-0.923652,0.427971,-4.925731,-0.162841,0.080327,0.119265,0.000000,-0.364371,-0.179142,0.000000
4.360000,1.521913,0.603251,-1.442958,0.943860,1.140767,0.060600,-1.135793,0.744391,0.185495,1.645376,-3.540645,-0.925025,0.180341,-4.508459,-0.126064,0.076660,0.117467,0.000000,-0.368919,-0.179267,-0.000000
4.370000,1.531295,0.614695,-1.442343,0.932584,1.148033,0.062408,-1.119335,0.708768,0.176239,1.645585,-3.583309,-0.926308,-0.110110,-4.047742,-0.117034,0.072950,0.115670,0.000000,-0.372978,-0.179085,0.000000
4.380000,1.540565,0.626211,-1.441710,0.921473,1.154941,0.064124,-1.102887,0.672738,0.166971,1.643773,-3.622091,-0.927083,-0.249854,-3.709828,-0.037857,0.069202,0.113877,0.000000,-0.376619,-0.178686,-0.000000
4.390000,1.549725,0.637793,-1.441061,0.910527,1.161487,0.065748,-1.086466,0.636339,0.157699,1.640073,-3.657045,-0.927344,-0.515850,-3.258074,-0.028223,0.065419,0.112089,0.000000,-0.379848,-0.178087,-0.000000
4.400000,1.558776,0.649439,-1.440395,0.899744,1.167667,0.067278,-1.070095,0.599613,0.148424,1.633713,-3.687463,-0.927531,-0.726687,-2.849084,0.004248,0.061606,0.110308,0.000000,-0.382596,-0.177212,0.000000
4.410000,1.567720,0.661145,-1.439715,0.889124,1.173478,0.068716,-1.053797,0.562602,0.139150,1.625540,-3.714064,-0.927247,-0.927244,-2.445150,0.036974,0.057768,0.108538,0.000000,-0.384933,-0.176145,-0.000000
4.420000,1.576559,0.672907,-1.439021,0.878668,1.178918,0.070061,-1.037593,0.525347,0.129879,1.615007,-3.736135,-0.926934,-1.157505,-1.995706,0.040652,0.053909,0.106780,0.000000,-0.386789,-0.174835,0.000000
4.430000,1.585294,0.684722,-1.438314,0.868372,1.183984,0.071314,-1.021503,0.487891,0.120613,1.602847,-3.754535,-0.926121,-1.272257,-1.685872,0.122329,0.050034,0.105037,0.000000,-0.388250,-0.173353,-0.000000
4.440000,1.593927,0.696586,-1.437595,0.858237,1.188675,0.072474,-1.005541,0.450268,0.111358,1.589183,-3.769348,-0.924789,-1.479486,-1.251637,0.129114,0.046146,0.103309,0.000000,-0.389325,-0.171711,0.000000
4.450000,1.602459,0.708495,-1.436865,0.848261,1.192989,0.073541,-0.989726,0.412519,0.102117,1.573455,-3.779809,-0.923411,-1.643367,-0.867323,0.161571,0.042249,0.101600,0.000000,-0.389938,-0.169859,-0.000000
4.460000,1.610893,0.720444,-1.436125,0.838442,1.196925,0.074516,-0.974076,0.374683,0.092892,1.556314,-3.786729,-0.921558,-1.797518,-0.490468,0.195074,0.038348,0.099910,0.000000,-0.390172,-0.167858,-0.000000
4.470000,1.619229,0.732432,-1.435375,0.828779,1.200483,0.075399,-0.958606,0.336799,0.083686,1.537403,-3.789389,-0.919638,-1.969385,-0.069195,0.202699,0.034447,0.098241,0.000000,-0.389955,-0.165677,-0.000000
4.480000,1.627469,0.744453,-1.434617,0.819269,1.203661,0.076190,-0.943332,0.298907,0.074501,1.517247,-3.788691,-0.917215,-2.059875,0.206850,0.282512,0.030550,0.096595,0.000000,-0.389380,-0.163365,0.000000
4.490000,1.635615,0.756504,-1.433852,0.809911,1.206461,0.076889,-0.928265,0.261036,0.065343,1.495954,-3.784742,-0.914262,-2.211254,0.608473,0.294275,0.026661,0.094972,0.000000,-0.388458,-0.160935,0.000000
4.500000,1.643668,0.768581,-1.433080,0.800703,1.208882,0.077497,-0.913418,0.223226,0.056216,1.473169,-3.776773,-0.911210,-2.330342,0.957276,0.330197,0.022782,0.093375,0.000000,-0.387114,-0.158354,0.000000
4.510000,1.651629,0.780680,-1.432302,0.791642,1.210926,0.078013,-0.898805,0.185511,0.047121,1.449348,-3.765626,-0.907665,-2.440930,1.296950,0.367401,0.018919,0.091805,0.000000,-0.385434,-0.155667,-0.000000
4.520000,1.659501,0.792798,-1.431520,0.782726,1.212593,0.078439,-0.884435,0.147926,0.038063,1.424301,-3.750621,-0.903965,-2.559054,1.677229,0.383979,0.015075,0.090262,0.000000,-0.383352,-0.152857,0.000000
4.530000,1.667284,0.804931,-1.430734,0.773953,1.213885,0.078775,-0.870322,0.110508,0.029044,1.398366,-3.732640,-0.899748,-2.626187,1.916739,0.459956,0.011253,0.088748,0.000000,-0.380958,-0.149957,0.000000
4.540000,1.674980,0.817075,-1.429945,0.765319,1.214804,0.079020,-0.856471,0.073283,0.020070,1.371637,-3.711803,-0.894988,-2.726590,2.274770,0.480784,0.007457,0.087263,0.000000,-0.378267,-0.146976,-0.000000
4.550000,1.682591,0.829226,-1.429154,0.756822,1.215351,0.079176,-0.842892,0.036284,0.011144,1.343931,-3.687391,-0.890033,-2.805255,2.580680,0.521715,0.003689,0.085808,0.000000,-0.375208,-0.143899,-0.000000
4.560000,1.690117,0.841380,-1.428361,0.748460,1.215530,0.079243,-0.829594,-0.000456,0.002271,1.315535,-3.660214,-0.884562,-2.876474,2.876629,0.563938,-0.000046,0.084385,0.000000,-0.371865,-0.140754,-0.000000
4.570000,1.697561,0.853535,-1.427569,0.740230,1.215343,0.079222,-0.816584,-0.036908,-0.006546,1.286391,-3.629674,-0.878831,-2.947427,3.207233,0.590994,-0.003747,0.082993,0.000000,-0.368180,-0.137538,-0.000000
4.580000,1.704922,0.865686,-1.426777,0.732128,1.214793,0.079113,-0.803868,-0.073041,-0.015304,1.256687,-3.596577,-0.872563,-2.992018,3.409812,0.662978,-0.007409,0.081634,0.000000,-0.364237,-0.134267,-0.000000
4.590000,1.712204,0.877830,-1.425987,0.724151,1.213884,0.078916,-0.791452,-0.108832,-0.023996,1.226499,-3.561049,-0.865738,-3.048121,3.717179,0.693658,-0.011031,0.080308,0.000000,-0.360050,-0.130949,-0.000000
4.600000,1.719406,0.889962,-1.425199,0.716297,1.212618,0.078633,-0.779340,-0.144252,-0.032618,1.195778,-3.522460,-0.858610,-3.091213,3.976289,0.740060,-0.014609,0.079015,0.000000,-0.355559,-0.127583,-0.000000
4.610000,1.726530,0.902081,-1.424415,0.708563,1.211000,0.078264,-0.767538,-0.179274,-0.041166,1.164680,-3.481543,-0.850943,-3.127934,4.225227,0.787384,-0.018141,0.077756,0.000000,-0.350839,-0.124183,-0.000000
4.620000,1.733577,0.914181,-1.423634,0.700946,1.209034,0.077810,-0.756048,-0.213873,-0.049636,1.133236,-3.437806,-0.842916,-3.159247,4.501443,0.824070,-0.021625,0.076531,0.000000,-0.345844,-0.120754,-0.000000
4.630000,1.740549,0.926260,-1.422859,0.693441,1.206724,0.077272,-0.744874,-0.248023,-0.058022,1.101525,-3.391946,-0.834332,-3.181857,4.668441,0.893105,-0.025057,0.075341,0.000000,-0.340645,-0.117302,-0.000000
4.640000,1.747447,0.938315,-1.422089,0.686047,1.204075,0.076650,-0.734018,-0.281705,-0.066320,1.069609,-3.344083,-0.825173,-3.200891,4.921756,0.932889,-0.028437,0.074185,0.000000,-0.335258,-0.113835,-0.000000
4.650000,1.754271,0.950341,-1.421326,0.678760,1.201091,0.075945,-0.723482,-0.314896,-0.074525,1.037527,-3.293704,-0.815624,-3.213682,5.133118,0.983479,-0.031762,0.073063,0.000000,-0.329632,-0.110357,0.000000
4.660000,1.761022,0.962335,-1.420570,0.671576,1.197779,0.075160,-0.713268,-0.347573,-0.082631,1.005333,-3.241434,-0.805510,-3.221127,5.334567,1.035079,-0.035029,0.071976,0.000000,-0.323832,-0.106874,-0.000000
4.670000,1.767702,0.974295,-1.419823,0.664493,1.194142,0.074293,-0.703375,-0.379717,-0.090633,0.973149,-3.186904,-0.794960,-3.217679,5.555103,1.079177,-0.038238,0.070924,0.000000,-0.317824,-0.103398,-0.000000
4.680000,1.774312,0.986217,-1.419085,0.657508,1.190186,0.073347,-0.693805,-0.411306,-0.098528,0.940936,-3.130672,-0.783835,-3.224194,5.689329,1.146072,-0.041385,0.069907,0.000000,-0.311665,-0.099925,0.000000
4.690000,1.780853,0.998098,-1.418356,0.650616,1.185918,0.072323,-0.684557,-0.442325,-0.106308,0.908740,-3.072850,-0.772123,-3.211317,5.888492,1.192083,-0.044471,0.068924,0.000000,-0.305370,-0.096461,-0.000000
4.700000,1.787325,1.009934,-1.417639,0.643816,1.181342,0.071222,-0.675630,-0.472756,-0.113969,0.876703,-3.013060,-0.759951,-3.198476,6.053270,1.246192,-0.047492,0.067976,0.000000,-0.298900,-0.093019,0.000000
4.710000,1.793730,1.021724,-1.416932,0.637103,1.176464,0.070044,-0.667022,-0.502581,-0.121505,0.844786,-2.951795,-0.747201,-3.181243,6.208965,1.300600,-0.050448,0.067062,0.000000,-0.292307,-0.089595,-0.000000
4.720000,1.800067,1.033463,-1.416238,0.630474,1.171292,0.068792,-0.658733,-0.531786,-0.128911,0.813118,-2.888813,-0.733968,-3.154394,6.375673,1.349308,-0.053338,0.066181,0.000000,-0.285569,-0.086204,-0.000000
4.730000,1.806339,1.045149,-1.415557,0.623927,1.165831,0.067466,-0.650759,-0.560353,-0.136183,0.781656,-2.824526,-0.720148,-3.137437,6.479935,1.414694,-0.056159,0.065335,0.000000,-0.278729,-0.082840,0.000000
4.740000,1.812546,1.056778,-1.414889,0.617458,1.160087,0.066069,-0.643099,-0.588272,-0.143312,0.750437,-2.759035,-0.705736,-3.102860,6.627266,1.464629,-0.058912,0.064522,0.000000,-0.271797,-0.079506,0.000000
4.750000,1.818689,1.068349,-1.414235,0.611064,1.154068,0.064601,-0.635749,-0.615529,-0.150296,0.719588,-2.692094,-0.690834,-3.069036,6.748914,1.519595,-0.061595,0.063742,0.000000,-0.264750,-0.076217,0.000000
4.760000,1.824768,1.079859,-1.413597,0.604742,1.147779,0.063063,-0.628706,-0.642111,-0.157127,0.689095,-2.624067,-0.675349,-3.031066,6.862124,1.574856,-0.064207,0.062995,0.000000,-0.257625,-0.072969,0.000000
4.770000,1.830784,1.091304,-1.412974,0.598489,1.141228,0.061458,-0.621966,-0.668006,-0.163801,0.658958,-2.554814,-0.659360,-2.993660,6.980346,1.625338,-0.066747,0.062279,0.000000,-0.250409,-0.069764,-0.000000
4.780000,1.836738,1.102683,-1.412368,0.592302,1.134421,0.059788,-0.615525,-0.693204,-0.170312,0.629278,-2.484627,-0.642792,-2.941776,7.055431,1.688328,-0.069215,0.061596,0.000000,-0.243133,-0.066610,-0.000000
4.790000,1.842630,1.113992,-1.411779,0.586177,1.127366,0.058053,-0.609379,-0.717696,-0.176655,0.600090,-2.413594,-0.625643,-2.897411,7.156813,1.738903,-0.071609,0.060944,0.000000,-0.235805,-0.063512,0.000000
4.800000,1.848461,1.125229,-1.411207,0.580113,1.120070,0.056255,-0.603522,-0.741472,-0.182824,0.571358,-2.341574,-0.607993,-2.846400,7.239199,1.793427,-0.073931,0.060322,0.000000,-0.228411,-0.060465,-0.000000
4.810000,1.854232,1.136392,-1.410654,0.574106,1.112539,0.054397,-0.597950,-0.764525,-0.188813,0.543110,-2.268803,-0.589789,-2.793773,7.314598,1.846749,-0.076178,0.059731,0.000000,-0.220976,-0.057472,-0.000000
4.820000,1.859944,1.147479,-1.410120,0.568153,1.104781,0.052480,-0.592657,-0.786846,-0.194618,0.515573,-2.195301,-0.571080,-2.721804,7.384158,1.896675,-0.078350,0.059169,0.000000,-0.213502,-0.054555,0.000000
4.830000,1.865596,1.158487,-1.409605,0.562252,1.096804,0.050505,-0.587637,-0.808429,-0.200233,0.488501,-2.121156,-0.551823,-2.692555,7.443719,1.954647,-0.080447,0.058636,0.000000,-0.205997,-0.051690,0.000000
4.840000,1.871189,1.169415,-1.409110,0.556399,1.088615,0.048476,-0.582886,-0.829267,-0.205652,0.461905,-2.046436,-0.532023,-2.617531,7.499643,2.003423,-0.082470,0.058132,0.000000,-0.198468,-0.048877,0.000000
4.850000,1.876724,1.180259,-1.408635,0.550593,1.080222,0.046393,-0.578396,-0.849356,-0.210872,0.436085,-1.971191,-0.511744,-2.554972,7.547905,2.054032,-0.084417,0.057655,0.000000,-0.190920,-0.046146,0.000000
4.860000,1.882201,1.191018,-1.408182,0.544831,1.071631,0.044259,-0.574162,-0.868689,-0.215886,0.410834,-1.895495,-0.490950,-2.490306,7.590006,2.103659,-0.086288,0.057206,0.000000,-0.183359,-0.043476,0.000000
4.870000,1.887621,1.201691,-1.407750,0.539109,1.062850,0.042076,-0.570177,-0.887264,-0.220689,0.386327,-1.819414,-0.469684,-2.415148,7.625534,2.150344,-0.088084,0.056782,0.000000,-0.175792,-0.040884,-0.000000
4.880000,1.892983,1.212275,-1.407341,0.533426,1.053888,0.039846,-0.566434,-0.905077,-0.225278,0.362445,-1.743000,-0.447928,-2.361143,7.656289,2.200649,-0.089804,0.056384,0.000000,-0.168224,-0.038359,-0.000000
4.890000,1.898289,1.222768,-1.406953,0.527780,1.044751,0.037571,-0.562926,-0.922123,-0.229646,0.339199,-1.666312,-0.425694,-2.283124,7.680014,2.244920,-0.091448,0.056012,0.000000,-0.160659,-0.035899,-0.000000
4.900000,1.903539,1.233169,-1.406589,0.522167,1.035448,0.035254,-0.559647,-0.938402,-0.233790,0.316746,-1.589411,-0.403028,-2.211335,7.699025,2.289214,-0.093017,0.055663,0.000000,-0.153102,-0.033522,0.000000
4.910000,1.908733,1.243476,-1.406249,0.516586,1.025986,0.032896,-0.556589,-0.953911,-0.237705,0.295025,-1.512338,-0.379921,-2.137032,7.712626,2.331888,-0.094510,0.055338,0.000000,-0.145558,-0.031221,0.000000
4.920000,1.913871,1.253688,-1.405932,0.511035,1.016372,0.030500,-0.553744,-0.968649,-0.241387,0.273968,-1.435194,-0.356395,-2.069853,7.717205,2.373033,-0.095928,0.055036,0.000000,-0.138034,-0.028988,0.000000
4.930000,1.918953,1.263803,-1.405639,0.505510,1.006615,0.028069,-0.551107,-0.982615,-0.244832,0.253726,-1.357968,-0.332469,-1.978203,7.727216,2.411856,-0.097271,0.054755,0.000000,-0.130529,-0.026838,-0.000000
4.940000,1.923981,1.273820,-1.405370,0.500012,0.996723,0.025604,-0.548667,-0.995808,-0.248035,0.234318,-1.280706,-0.308162,-1.907599,7.722402,2.449232,-0.098539,0.054496,0.000000,-0.123045,-0.024773,-0.000000
4.950000,1.928954,1.283737,-1.405127,0.494537,0.986702,0.023109,-0.546418,-1.008229,-0.250994,0.215612,-1.203521,-0.283492,-1.828689,7.716228,2.484376,-0.099732,0.054257,0.000000,-0.115594,-0.022779,0.000000
4.960000,1.933872,1.293554,-1.404908,0.489083,0.976561,0.020585,-0.544352,-1.019878,-0.253704,0.197696,-1.126370,-0.258491,-1.749566,7.706276,2.517190,-0.100851,0.054038,0.000000,-0.108169,-0.020866,-0.000000
4.970000,1.938736,1.303268,-1.404715,0.483649,0.966307,0.018036,-0.542461,-1.030757,-0.256162,0.180666,-1.049472,-0.233140,-1.660942,7.679196,2.550943,-0.101896,0.053837,0.000000,-0.100790,-0.019041,-0.000000
4.980000,1.943545,1.312880,-1.404548,0.478233,0.955948,0.015463,-0.540736,-1.040868,-0.258366,0.164384,-0.972661,-0.207515,-1.595488,7.682686,2.573643,-0.102867,0.053655,0.000000,-0.093440,-0.017292,0.000000
4.990000,1.948300,1.322387,-1.404406,0.472834,0.945492,0.012869,-0.539171,-1.050211,-0.260312,0.148850,-0.895966,-0.181642,-1.506647,7.648796,2.602239,-0.103765,0.053490,0.000000,-0.086119,-0.015617,0.000000
5.000000,1.953002,1.331789,-1.404290,0.467449,0.934946,0.010258,-0.537756,-1.058789,-0.261998,0.134213,-0.819643,-0.155493,-1.425243,7.622221,2.625360,-0.104589,0.053341,0.000000,-0.078852,-0.014032,-0.000000
5.010000,1.957649,1.341086,-1.404201,0.462078,0.924319,0.007630,-0.536484,-1.066605,-0.263421,0.120358,-0.743544,-0.129154,-1.343480,7.592070,2.645570,-0.105342,0.053207,0.000000,-0.071623,-0.012525,-0.000000
5.020000,1.962243,1.350275,-1.404138,0.456719,0.913617,0.004990,-0.535346,-1.073661,-0.264580,0.107364,-0.667858,-0.102560,-1.257367,7.549174,2.669432,-0.106022,0.053088,0.000000,-0.064448,-0.011104,-0.000000
5.030000,1.966784,1.359358,-1.404101,0.451371,0.902848,0.002340,-0.534334,-1.079963,-0.265472,0.095165,-0.592473,-0.075844,-1.182533,7.527361,2.673032,-0.106631,0.052984,0.000000,-0.057314,-0.009761,0.000000
5.040000,1.971271,1.368332,-1.404091,0.446032,0.892020,-0.000318,-0.533440,-1.085512,-0.266097,0.083757,-0.517418,-0.049041,-1.096987,7.478305,2.690425,-0.107169,0.052892,0.000000,-0.050223,-0.008497,0.000000
5.050000,1.975704,1.377198,-1.404107,0.440702,0.881140,-0.002981,-0.532656,-1.090313,-0.266452,0.073205,-0.442879,-0.022074,-1.015625,7.433689,2.699140,-0.107636,0.052812,0.000000,-0.043192,-0.007318,-0.000000
5.060000,1.980085,1.385955,-1.404150,0.435378,0.870216,-0.005647,-0.531973,-1.094370,-0.266538,0.063468,-0.368729,0.004920,-0.933067,7.387520,2.704356,-0.108033,0.052744,0.000000,-0.036205,-0.006219,0.000000
5.070000,1.984412,1.394602,-1.404220,0.430062,0.859255,-0.008311,-0.531384,-1.097689,-0.266353,0.054558,-0.295191,0.032050,-0.849944,7.325622,2.716184,-0.108360,0.052687,0.000000,-0.029284,-0.005201,-0.000000
5.080000,1.988686,1.403140,-1.404317,0.424750,0.848265,-0.010973,-0.530880,-1.100276,-0.265897,0.046449,-0.222097,0.059127,-0.771845,7.292929,2.698333,-0.108618,0.052639,0.000000,-0.022410,-0.004264,0.000000
5.090000,1.992907,1.411567,-1.404440,0.419444,0.837252,-0.013628,-0.530452,-1.102133,-0.265171,0.039137,-0.149468,0.086109,-0.689892,7.226235,2.702696,-0.108808,0.052601,0.000000,-0.015582,-0.003405,-0.000000
5.100000,1.997075,1.419885,-1.404589,0.414141,0.826225,-0.016275,-0.530094,-1.103267,-0.264175,0.032644,-0.077527,0.113124,-0.609859,7.167446,2.694902,-0.108930,0.052571,0.000000,-0.008823,-0.002627,0.000000
5.110000,2.001190,1.428092,-1.404765,0.408842,0.815189,-0.018911,-0.529797,-1.103685,-0.262909,0.026932,-0.006122,0.139984,-0.530783,7.106129,2.683388,-0.108985,0.052548,0.000000,-0.002113,-0.001926,0.000000
5.120000,2.005252,1.436189,-1.404967,0.403545,0.804153,-0.021533,-0.529553,-1.103393,-0.261375,0.022044,0.064522,0.166843,-0.448871,7.029040,2.681275,-0.108973,0.052532,0.000000,0.004524,-0.001306,0.000000
5.130000,2.009261,1.444175,-1.405196,0.398251,0.793124,-0.024138,-0.529354,-1.102397,-0.259573,0.017912,0.134592,0.193458,-0.377618,6.984642,2.640922,-0.108895,0.052521,0.000000,0.011110,-0.000762,0.000000
5.140000,2.013217,1.452051,-1.405450,0.392958,0.782108,-0.026723,-0.529192,-1.100703,-0.257507,0.014526,0.204070,0.219785,-0.297815,6.903592,2.630432,-0.108751,0.052516,0.000000,0.017647,-0.000293,0.000000
5.150000,2.017120,1.459817,-1.405730,0.387667,0.771112,-0.029287,-0.529060,-1.098318,-0.255178,0.011934,0.272714,0.246002,-0.222508,6.831564,2.605381,-0.108542,0.052515,0.000000,0.024108,0.000098,0.000000
5.160000,2.020970,1.467473,-1.406036,0.382377,0.760144,-0.031826,-0.528951,-1.095250,-0.252588,0.010073,0.340689,0.271873,-0.148241,6.757167,2.576229,-0.108269,0.052518,0.000000,0.030515,0.000416,0.000000
5.170000,2.024767,1.475020,-1.406367,0.377088,0.749209,-0.034338,-0.528856,-1.091507,-0.249741,0.008979,0.407794,0.297588,-0.072234,6.669234,2.558525,-0.107932,0.052523,0.000000,0.036847,0.000657,-0.000000
5.180000,2.028512,1.482458,-1.406722,0.371799,0.738316,-0.036820,-0.528769,-1.087097,-0.246638,0.008592,0.474185,0.322870,-0.005529,6.608616,2.496903,-0.107532,0.052531,0.000000,0.043123,0.000827,0.000000
5.190000,2.032203,1.489787,-1.407103,0.366512,0.727470,-0.039270,-0.528682,-1.082026,-0.243285,0.008895,0.539843,0.347672,0.067441,6.516874,2.470773,-0.107070,0.052540,0.000000,0.049342,0.000926,0.000000
5.200000,2.035842,1.497007,-1.407508,0.361226,0.716678,-0.041685,-0.528589,-1.076303,-0.239685,0.009925,0.604561,0.372206,0.136551,6.432270,2.427853,-0.106545,0.052549,0.000000,0.055484,0.000952,0.000000
5.210000,2.039428,1.504120,-1.407936,0.355940,0.705946,-0.044062,-0.528481,-1.069937,-0.235843,0.011621,0.668486,0.396212,0.203964,6.345598,2.381205,-0.105960,0.052559,0.000000,0.061566,0.000910,-0.000000
5.220000,2.042961,1.511126,-1.408389,0.350656,0.695281,-0.046401,-0.528354,-1.062937,-0.231762,0.014014,0.731405,0.419896,0.272761,6.244125,2.346981,-0.105314,0.052567,0.000000,0.067565,0.000798,-0.000000
5.230000,2.046441,1.518026,-1.408864,0.345373,0.684689,-0.048697,-0.528199,-1.055312,-0.227447,0.017039,0.793494,0.442969,0.331873,6.173495,2.266799,-0.104609,0.052574,0.000000,0.073504,0.000620,0.000000
5.240000,2.049868,1.524821,-1.409363,0.340092,0.674177,-0.050949,-0.528011,-1.047070,-0.222905,0.020676,0.854737,0.465387,0.396947,6.068303,2.224531,-0.103844,0.052579,0.000000,0.079381,0.000377,0.000000
5.250000,2.053243,1.531510,-1.409883,0.334813,0.663750,-0.053154,-0.527783,-1.038221,-0.218140,0.024958,0.914905,0.487377,0.457632,5.971356,2.164962,-0.103022,0.052582,0.000000,0.085173,0.000068,-0.000000
5.260000,2.056565,1.538096,-1.410426,0.329537,0.653414,-0.055311,-0.527510,-1.028775,-0.213160,0.029823,0.974158,0.508675,0.516395,5.872195,2.102098,-0.102141,0.052581,0.000000,0.090898,-0.000302,0.000000
5.270000,2.059834,1.544579,-1.410989,0.324263,0.643176,-0.057417,-0.527185,-1.018742,-0.207968,0.035293,1.032278,0.529483,0.575876,5.757879,2.051295,-0.101204,0.052575,0.000000,0.096534,-0.000736,-0.000000
5.280000,2.063050,1.550960,-1.411574,0.318993,0.633041,-0.059470,-0.526802,-1.008132,-0.202572,0.041305,1.089443,0.549528,0.626207,5.674827,1.956961,-0.100211,0.052566,0.000000,0.102100,-0.001228,0.000000
5.290000,2.066214,1.557240,-1.412178,0.313728,0.623015,-0.061468,-0.526357,-0.996956,-0.196981,0.047838,1.145634,0.568771,0.681441,5.556414,1.899089,-0.099162,0.052551,0.000000,0.107596,-0.001777,-0.000000
5.300000,2.069324,1.563420,-1.412803,0.308466,0.613104,-0.063409,-0.525844,-0.985224,-0.191199,0.054916,1.200618,0.587435,0.732441,5.446295,1.825446,-0.098059,0.052530,0.000000,0.112998,-0.002385,0.000000
5.310000,2.072383,1.569502,-1.413446,0.303211,0.603313,-0.065291,-0.525257,-0.972947,-0.185235,0.062472,1.254546,0.605266,0.780600,5.333404,1.748337,-0.096903,0.052502,0.000000,0.118321,-0.003045,0.000000
5.320000,2.075389,1.575487,-1.414108,0.297962,0.593647,-0.067113,-0.524593,-0.960137,-0.179096,0.070532,1.307219,0.622452,0.829567,5.206453,1.681971,-0.095693,0.052468,0.000000,0.123546,-0.003761,-0.000000
5.330000,2.078342,1.581376,-1.414788,0.292719,0.584112,-0.068872,-0.523845,-0.946806,-0.172789,0.079027,1.358787,0.638760,0.868898,5.106751,1.579055,-0.094432,0.052427,0.000000,0.128689,-0.004526,-0.000000
5.340000,2.081243,1.587170,-1.415486,0.287485,0.574712,-0.070568,-0.523011,-0.932965,-0.166323,0.087931,1.409226,0.654160,0.912936,4.974569,1.507245,-0.093120,0.052377,0.000000,0.133747,-0.005338,0.000000
5.350000,2.084092,1.592870,-1.416200,0.282259,0.565454,-0.072198,-0.522085,-0.918626,-0.159708,0.097267,1.458324,0.668836,0.952291,4.849653,1.421727,-0.091757,0.052319,0.000000,0.138698,-0.006200,-0.000000
5.360000,2.086888,1.598479,-1.416929,0.277044,0.556342,-0.073762,-0.521064,-0.903803,-0.152950,0.106973,1.506221,0.682595,0.989174,4.721568,1.334629,-0.090346,0.052253,0.000000,0.143557,-0.007105,-0.000000
5.370000,2.089633,1.603998,-1.417675,0.271838,0.547380,-0.075257,-0.519944,-0.888507,-0.146058,0.117047,1.552674,0.695566,1.024605,4.575754,1.254763,-0.088887,0.052177,0.000000,0.148299,-0.008054,0.000000
5.380000,2.092325,1.609427,-1.418434,0.266645,0.538573,-0.076682,-0.518722,-0.872753,-0.139042,0.127446,1.597880,0.707589,1.054631,4.465178,1.149445,-0.087380,0.052091,0.000000,0.152943,-0.009042,-0.000000
5.390000,2.094966,1.614770,-1.419208,0.261464,0.529926,-0.078037,-0.517394,-0.856554,-0.131910,0.138142,1.641815,0.718644,1.084663,4.313752,1.065943,-0.085828,0.051995,0.000000,0.157487,-0.010069,0.000000
5.400000,2.097555,1.620026,-1.419995,0.256298,0.521443,-0.079320,-0.515958,-0.839922,-0.124672,0.149130,1.684202,0.728864,1.111518,4.170880,0.973384,-0.084231,0.051888,0.000000,0.161902,-0.011131,0.000000
5.410000,2.100092,1.625199,-1.420794,0.251146,0.513129,-0.080530,-0.514411,-0.822874,-0.117336,0.160365,1.725217,0.738121,1.135440,4.024500,0.879998,-0.082590,0.051771,0.000000,0.166205,-0.012226,0.000000
5.420000,2.102577,1.630290,-1.421605,0.246010,0.504987,-0.081667,-0.512750,-0.805423,-0.109912,0.171834,1.764615,0.746481,1.157571,3.861079,0.789913,-0.080907,0.051643,0.000000,0.170371,-0.013353,-0.000000
5.430000,2.105012,1.635300,-1.422427,0.240891,0.497022,-0.082728,-0.510974,-0.787586,-0.102410,0.183496,1.802565,0.753873,1.174316,3.728392,0.688266,-0.079183,0.051503,0.000000,0.174416,-0.014507,-0.000000
5.440000,2.107395,1.640231,-1.423260,0.235791,0.489237,-0.083715,-0.509080,-0.769377,-0.094838,0.195321,1.839032,0.760288,1.190643,3.557572,0.596859,-0.077419,0.051352,0.000000,0.178335,-0.015686,-0.000000
5.450000,2.109728,1.645085,-1.424101,0.230710,0.481635,-0.084625,-0.507067,-0.750812,-0.087207,0.207297,1.873760,0.765789,1.203424,3.393716,0.501460,-0.075617,0.051189,0.000000,0.182101,-0.016888,0.000000
5.460000,2.112010,1.649864,-1.424952,0.225650,0.474222,-0.085459,-0.504933,-0.731907,-0.079525,0.219376,1.906876,0.770332,1.213059,3.224978,0.406336,-0.073778,0.051013,0.000000,0.185727,-0.018109,0.000000
5.470000,2.114241,1.654570,-1.425810,0.220611,0.466998,-0.086215,-0.502679,-0.712680,-0.071803,0.231561,1.938209,0.773911,1.222159,3.044281,0.310168,-0.071903,0.050825,0.000000,0.189192,-0.019349,0.000000
5.480000,2.116422,1.659205,-1.426676,0.215596,0.459969,-0.086895,-0.500302,-0.693149,-0.064050,0.243782,1.967821,0.776549,1.221622,2.877442,0.217555,-0.069995,0.050625,0.000000,0.192504,-0.020601,-0.000000
5.490000,2.118553,1.663770,-1.427548,0.210606,0.453136,-0.087496,-0.497803,-0.673330,-0.056275,0.256009,1.995667,0.778251,1.224415,2.687141,0.122332,-0.068054,0.050412,0.000000,0.195654,-0.021861,-0.000000
5.500000,2.120634,1.668268,-1.428425,0.205641,0.446503,-0.088020,-0.495182,-0.653242,-0.048488,0.268249,2.021572,0.779004,1.221882,2.497157,0.028893,-0.066082,0.050187,0.000000,0.198625,-0.023132,-0.000000
5.510000,2.122666,1.672701,-1.429308,0.200703,0.440072,-0.088466,-0.492438,-0.632904,-0.040698,0.280441,2.045599,0.778847,1.216301,2.302004,-0.063384,-0.064082,0.049949,0.000000,0.201420,-0.024405,-0.000000
5.520000,2.124648,1.677070,-1.430195,0.195792,0.433846,-0.088834,-0.489573,-0.612337,-0.032915,0.292566,2.067545,0.777708,1.207876,2.091220,-0.160943,-0.062054,0.049698,0.000000,0.204018,-0.025680,0.000000
5.530000,2.126582,1.681378,-1.431084,0.190912,0.427826,-0.089124,-0.486587,-0.591560,-0.025147,0.304584,2.087508,0.775701,1.195281,1.900601,-0.240236,-0.060002,0.049434,0.000000,0.206427,-0.026952,-0.000000
5.540000,2.128467,1.685627,-1.431977,0.186061,0.422015,-0.089337,-0.483482,-0.570594,-0.017404,0.316464,2.105433,0.772842,1.180240,1.678227,-0.334619,-0.057926,0.049158,0.000000,0.208639,-0.028217,-0.000000
5.550000,2.130303,1.689819,-1.432871,0.181242,0.416415,-0.089473,-0.480259,-0.549459,-0.009693,0.328176,2.121093,0.769042,1.161405,1.457638,-0.421909,-0.055830,0.048869,0.000000,0.210631,-0.029473,-0.000000
5.560000,2.132092,1.693956,-1.433766,0.176456,0.411027,-0.089531,-0.476919,-0.528179,-0.002025,0.339692,2.134571,0.764426,1.139981,1.231382,-0.507001,-0.053715,0.048567,0.000000,0.212407,-0.030716,-0.000000
5.570000,2.133832,1.698041,-1.434661,0.171704,0.405852,-0.089513,-0.473466,-0.506776,0.005592,0.350967,2.145667,0.758857,1.114579,0.990391,-0.600885,-0.051583,0.048254,0.000000,0.213946,-0.031942,-0.000000
5.580000,2.135526,1.702074,-1.435556,0.166987,0.400892,-0.089419,-0.469901,-0.485273,0.013149,0.361974,2.154432,0.752528,1.086225,0.761512,-0.664424,-0.049436,0.047928,0.000000,0.215252,-0.033147,0.000000
5.590000,2.137172,1.706059,-1.436449,0.162307,0.396147,-0.089250,-0.466227,-0.463695,0.020640,0.372679,2.160797,0.745466,1.054112,0.506564,-0.753306,-0.047278,0.047590,0.000000,0.216315,-0.034327,-0.000000
5.600000,2.138772,1.709998,-1.437341,0.157663,0.391618,-0.089007,-0.462448,-0.442066,0.028056,0.383041,2.164569,0.737520,1.018278,0.250239,-0.830431,-0.045111,0.047241,0.000000,0.217113,-0.035478,-0.000000
5.610000,2.140326,1.713892,-1.438229,0.153058,0.387305,-0.088690,-0.458568,-0.420412,0.035388,0.393040,2.165767,0.728876,0.979277,-0.014031,-0.904968,-0.042937,0.046880,0.000000,0.217648,-0.036598,-0.000000
5.620000,2.141833,1.717745,-1.439114,0.148492,0.383210,-0.088299,-0.454589,-0.398760,0.042630,0.402599,2.164242,0.719363,0.933531,-0.290372,-0.990391,-0.040759,0.046508,0.000000,0.217902,-0.037678,0.000000
5.630000,2.143296,1.721557,-1.439995,0.143967,0.379330,-0.087837,-0.450517,-0.377136,0.049773,0.411733,2.159974,0.709221,0.892713,-0.564602,-1.037265,-0.038580,0.046126,0.000000,0.217870,-0.038719,0.000000
5.640000,2.144713,1.725332,-1.440871,0.139482,0.375667,-0.087304,-0.446356,-0.355570,0.056813,0.420408,2.152880,0.698487,0.839984,-0.857699,-1.116248,-0.036403,0.045733,0.000000,0.217542,-0.039718,-0.000000
5.650000,2.146085,1.729071,-1.441741,0.135040,0.372218,-0.086701,-0.442111,-0.334089,0.063740,0.428534,2.142809,0.686967,0.786256,-1.156113,-1.180533,-0.034230,0.045331,0.000000,0.216903,-0.040664,-0.000000
5.660000,2.147414,1.732777,-1.442605,0.130640,0.368984,-0.086030,-0.437787,-0.312723,0.070550,0.436164,2.129745,0.674892,0.729709,-1.463342,-1.241763,-0.032066,0.044920,0.000000,0.215947,-0.041563,-0.000000
5.670000,2.148698,1.736452,-1.443461,0.126284,0.365963,-0.085291,-0.433390,-0.291505,0.077236,0.443027,2.113465,0.662070,0.651500,-1.789379,-1.314568,-0.029912,0.044500,0.000000,0.214650,-0.042387,-0.000000
5.680000,2.149940,1.740097,-1.444310,0.121973,0.363154,-0.084486,-0.428928,-0.270465,0.083790,0.449375,2.094027,0.648767,0.617589,-2.099630,-1.345462,-0.027774,0.044072,0.000000,0.213018,-0.043160,0.000000
5.690000,2.151138,1.743715,-1.445151,0.117706,0.360553,-0.083616,-0.424404,-0.249635,0.090209,0.455179,2.071340,0.635019,0.533373,-2.444294,-1.411102,-0.025653,0.043636,0.000000,0.211038,-0.043879,0.000000
5.700000,2.152294,1.747309,-1.445982,0.113485,0.358160,-0.082682,-0.419827,-0.229050,0.096488,0.460103,2.045147,0.620624,0.460411,-2.790958,-1.460491,-0.023554,0.043194,0.000000,0.208684,-0.044510,0.000000
5.710000,2.153408,1.750879,-1.446804,0.109309,0.355972,-0.081686,-0.415204,-0.208744,0.102621,0.464351,2.015414,0.605822,0.383316,-3.149293,-1.506798,-0.021481,0.042746,0.000000,0.205950,-0.045073,0.000000
5.720000,2.154480,1.754429,-1.447616,0.105181,0.353984,-0.080630,-0.410543,-0.188753,0.108602,0.467708,1.982202,0.590432,0.292297,-3.502892,-1.563713,-0.019436,0.042293,0.000000,0.202841,-0.045545,-0.000000
