time,x,y,z,vx,vy,vz,ax,ay,az,jx,jy,jz,sx,sy,sz,qw,qx,qy,qz,wx,wy,wz
0.000000,-1.998382,-2.465593,0.491129,-0.009937,0.016613,0.002122,0.411303,-0.730560,0.024977,-13.578582,18.720623,-0.128260,344.970355,-368.519796,0.469860,0.999990,0.003235,-0.002686,0.001819,-0.003516,-0.011650,0.001841
0.010000,-1.998463,-2.465460,0.491151,-0.006447,0.010184,0.002366,0.291877,-0.560886,0.023718,-10.393096,15.301472,-0.123608,293.045311,-316.173679,0.460607,0.999989,0.003218,-0.002711,0.001819,-0.003454,-0.005498,0.000291
0.020000,-1.998514,-2.465384,0.491176,-0.004001,0.005290,0.002597,0.201800,-0.422871,0.022505,-7.699776,12.380299,-0.119050,246.490212,-268.882641,0.450881,0.999989,0.003201,-0.002739,0.001821,-0.003407,-0.001556,-0.000701
0.030000,-1.998545,-2.465350,0.491203,-0.002329,0.001637,0.002816,0.136415,-0.311785,0.021336,-5.446331,9.907802,-0.114591,205.023359,-226.396814,0.440730,0.999989,0.003184,-0.002766,0.001822,-0.003372,0.000831,-0.001301
0.040000,-1.998562,-2.465348,0.491232,-0.001205,-0.001021,0.003024,0.091573,-0.223376,0.020212,-3.583287,7.837178,-0.110237,168.363087,-188.466402,0.430198,0.999989,0.003167,-0.002786,0.001821,-0.003344,0.002161,-0.001633
0.050000,-1.998570,-2.465368,0.491264,-0.000441,-0.002893,0.003221,0.063604,-0.153850,0.019131,-2.063988,6.124124,-0.105989,136.227474,-154.841284,0.419312,0.999989,0.003150,-0.002797,0.001819,-0.003321,0.002807,-0.001793
0.060000,-1.998572,-2.465404,0.491297,0.000113,-0.004150,0.003407,0.049294,-0.099841,0.018092,-0.844594,4.726834,-0.101851,108.335056,-125.271786,0.408144,0.999990,0.003133,-0.002795,0.001813,-0.003301,0.003039,-0.001848
0.070000,-1.998569,-2.465449,0.491332,0.000581,-0.004932,0.003583,0.045850,-0.058392,0.017094,0.115917,3.606002,-0.097827,84.404037,-99.507959,0.396731,0.999990,0.003117,-0.002782,0.001804,-0.003283,0.003047,-0.001845
0.080000,-1.998560,-2.465501,0.491368,0.001058,-0.005351,0.003749,0.050877,-0.026923,0.016135,0.855752,2.724822,-0.093917,64.152705,-77.299903,0.385120,0.999990,0.003101,-0.002764,0.001794,-0.003266,0.002954,-0.001818
0.090000,-1.998547,-2.465556,0.491407,0.001620,-0.005496,0.003905,0.062347,-0.003211,0.015215,1.410298,2.048985,-0.090125,47.299341,-58.397696,0.373366,0.999990,0.003084,-0.002744,0.001784,-0.003250,0.002838,-0.001783
0.100000,-1.998527,-2.465610,0.491446,0.002321,-0.005435,0.004053,0.078574,0.014635,0.014332,1.812127,1.546679,-0.086451,33.562289,-42.551720,0.361454,0.999990,0.003068,-0.002728,0.001774,-0.003233,0.002739,-0.001754
0.110000,-1.998500,-2.465664,0.491488,0.003202,-0.005218,0.004192,0.098180,0.028203,0.013486,2.090993,1.188596,-0.082896,22.659780,-29.511771,0.349503,0.999990,0.003052,-0.002714,0.001766,-0.003216,0.002674,-0.001732
0.120000,-1.998463,-2.465714,0.491530,0.004292,-0.004881,0.004323,0.120074,0.038798,0.012674,2.273832,0.947923,-0.079461,14.310134,-19.028080,0.337529,0.999990,0.003036,-0.002701,0.001757,-0.003199,0.002645,-0.001719
0.130000,-1.998413,-2.465761,0.491574,0.005609,-0.004448,0.004446,0.143418,0.047471,0.011896,2.384766,0.800346,-0.076146,8.231662,-10.850759,0.325572,0.999990,0.003020,-0.002687,0.001748,-0.003182,0.002642,-0.001714
0.140000,-1.998350,-2.465803,0.491619,0.007163,-0.003935,0.004561,0.167601,0.055043,0.011151,2.445097,0.724053,-0.072949,4.142705,-4.729925,0.313654,0.999990,0.003004,-0.002674,0.001740,-0.003165,0.002654,-0.001711
0.150000,-1.998269,-2.465839,0.491665,0.008962,-0.003349,0.004669,0.192213,0.062125,0.010437,2.473313,0.699726,-0.069872,1.761643,-0.415715,0.301771,0.999990,0.002988,-0.002660,0.001731,-0.003148,0.002670,-0.001710
0.160000,-1.998170,-2.465870,0.491712,0.011008,-0.002692,0.004770,0.217013,0.069154,0.009753,2.485074,0.710548,-0.066910,0.805891,2.341704,0.290338,0.999991,0.002973,-0.002647,0.001722,-0.003132,0.002680,-0.001708
0.170000,-1.998048,-2.465893,0.491761,0.013303,-0.001965,0.004864,0.241903,0.076406,0.009098,2.493241,0.742203,-0.064064,0.994887,3.792310,0.278941,0.999991,0.002957,-0.002634,0.001714,-0.003115,0.002678,-0.001702
0.180000,-1.997903,-2.465909,0.491810,0.015846,-0.001163,0.004952,0.266899,0.084028,0.008471,2.507847,0.782871,-0.061330,2.046482,4.185885,0.267797,0.999991,0.002941,-0.002620,0.001705,-0.003098,0.002663,-0.001693
0.190000,-1.997731,-2.465916,0.491860,0.018641,-0.000283,0.005034,0.292105,0.092062,0.007871,2.536107,0.823230,-0.058707,3.678919,3.772210,0.256949,0.999991,0.002926,-0.002607,0.001697,-0.003082,0.002636,-0.001681
0.200000,-1.997529,-2.465914,0.491910,0.021690,0.000679,0.005109,0.317682,0.100468,0.007297,2.582423,0.856465,-0.056190,5.610649,2.801926,0.246429,0.999991,0.002911,-0.002594,0.001689,-0.003066,0.002603,-0.001668
0.210000,-1.997296,-2.465902,0.491962,0.024993,0.001730,0.005180,0.342567,0.110061,0.006747,2.361827,1.086112,-0.053715,1.895403,5.632964,0.237525,0.999991,0.002895,-0.002581,0.001680,-0.003050,0.002590,-0.001660
0.220000,-1.997028,-2.465879,0.492014,0.028545,0.002880,0.005244,0.368989,0.119238,0.006221,3.095184,0.623833,-0.051541,94.677989,-61.785096,0.208203,0.999991,0.002880,-0.002568,0.001672,-0.003033,0.002577,-0.001652
0.230000,-1.996724,-2.465844,0.492067,0.032399,0.004098,0.005304,0.402017,0.124311,0.005717,3.203442,0.612817,-0.049323,-74.605922,60.697479,0.235729,0.999991,0.002865,-0.002556,0.001664,-0.003017,0.002564,-0.001643
0.240000,-1.996379,-2.465797,0.492120,0.036566,0.005383,0.005359,0.430344,0.133449,0.005235,2.616131,1.102373,-0.047043,7.699558,0.517731,0.209424,0.999991,0.002850,-0.002543,0.001656,-0.003001,0.002551,-0.001635
0.250000,-1.995992,-2.465736,0.492174,0.041006,0.006769,0.005409,0.458218,0.143527,0.004775,2.927744,0.934501,-0.045043,4.201415,2.468306,0.201800,0.999991,0.002835,-0.002530,0.001648,-0.002985,0.002538,-0.001627
0.260000,-1.995558,-2.465661,0.492228,0.045735,0.008252,0.005454,0.487638,0.153182,0.004334,2.954078,1.001397,-0.043067,3.601787,2.922565,0.193832,0.999992,0.002820,-0.002517,0.001639,-0.002970,0.002525,-0.001619
0.270000,-1.995076,-2.465571,0.492283,0.050760,0.009833,0.005496,0.517485,0.162921,0.003913,3.023078,0.919411,-0.041161,7.730544,-11.580493,0.187041,0.999992,0.002805,-0.002505,0.001631,-0.002954,0.002513,-0.001611
0.280000,-1.994542,-2.465464,0.492338,0.056087,0.011508,0.005533,0.547964,0.171944,0.003511,3.056886,0.932316,-0.039335,-1.048661,14.401226,0.178177,0.999992,0.002791,-0.002492,0.001623,-0.002938,0.002500,-0.001603
0.290000,-1.993953,-2.465341,0.492394,0.061719,0.013276,0.005566,0.578474,0.181980,0.003126,3.051921,1.050740,-0.037587,2.542251,1.464562,0.171858,0.999992,0.002776,-0.002480,0.001615,-0.002923,0.002487,-0.001595
0.300000,-1.993307,-2.465198,0.492449,0.067657,0.015148,0.005595,0.609178,0.192352,0.002759,3.086579,1.027988,-0.035901,1.908473,1.778495,0.165005,0.999992,0.002761,-0.002467,0.001607,-0.002907,0.002475,-0.001587
0.310000,-1.992599,-2.465037,0.492505,0.073903,0.017123,0.005621,0.640148,0.202754,0.002408,3.106983,1.053332,-0.034285,1.507369,1.761587,0.158509,0.999992,0.002747,-0.002455,0.001599,-0.002892,0.002462,-0.001579
0.320000,-1.991828,-2.464856,0.492562,0.080460,0.019204,0.005643,0.671251,0.213293,0.002073,3.110632,1.049131,-0.032726,-0.132314,-1.116886,0.152908,0.999992,0.002732,-0.002443,0.001592,-0.002877,0.002450,-0.001571
0.330000,-1.990989,-2.464653,0.492618,0.087328,0.021389,0.005663,0.702377,0.223805,0.001753,3.117885,1.062176,-0.031233,1.604219,3.772672,0.145625,0.999992,0.002718,-0.002431,0.001584,-0.002861,0.002437,-0.001563
0.340000,-1.990080,-2.464428,0.492675,0.094508,0.023681,0.005679,0.733629,0.234613,0.001448,3.129705,1.094554,-0.029805,0.110538,1.204307,0.140391,0.999992,0.002704,-0.002418,0.001576,-0.002846,0.002425,-0.001555
0.350000,-1.989098,-2.464179,0.492732,0.102001,0.026082,0.005692,0.764907,0.245577,0.001157,3.125645,1.099013,-0.028427,-0.271918,1.181497,0.134838,0.999992,0.002690,-0.002406,0.001568,-0.002831,0.002413,-0.001548
0.360000,-1.988039,-2.463906,0.492789,0.109806,0.028593,0.005702,0.796150,0.256630,0.000879,3.122356,1.111552,-0.027107,-0.655911,1.092114,0.129443,0.999992,0.002676,-0.002394,0.001560,-0.002816,0.002400,-0.001540
0.370000,-1.986901,-2.463607,0.492846,0.117924,0.031215,0.005709,0.827319,0.267786,0.000615,3.110061,1.118707,-0.025834,-1.537845,0.567016,0.124831,0.999992,0.002661,-0.002382,0.001553,-0.002801,0.002388,-0.001532
0.380000,-1.985680,-2.463281,0.492903,0.126352,0.033949,0.005714,0.858351,0.279012,0.000362,3.097168,1.127684,-0.024616,-1.030739,1.236148,0.118863,0.999992,0.002647,-0.002370,0.001545,-0.002786,0.002376,-0.001525
0.390000,-1.984373,-2.462927,0.492960,0.135090,0.036795,0.005717,0.889265,0.290349,0.000122,3.084149,1.138834,-0.023450,-1.837333,0.764330,0.114599,0.999993,0.002634,-0.002359,0.001538,-0.002771,0.002364,-0.001517
0.400000,-1.982977,-2.462545,0.493017,0.144137,0.039756,0.005717,0.920001,0.301768,-0.000107,3.062711,1.144935,-0.022327,-2.182594,0.685402,0.109971,0.999993,0.002620,-0.002347,0.001530,-0.002757,0.002352,-0.001509
0.410000,-1.981489,-2.462132,0.493074,0.153490,0.042831,0.005714,0.950514,0.313250,-0.000325,3.039424,1.151410,-0.021250,-2.527954,0.596112,0.105535,0.999993,0.002606,-0.002335,0.001522,-0.002742,0.002340,-0.001502
0.420000,-1.979906,-2.461688,0.493132,0.163146,0.046021,0.005710,0.980774,0.324792,-0.000532,3.011682,1.156738,-0.020213,-2.965480,0.483516,0.101739,0.999993,0.002592,-0.002323,0.001515,-0.002728,0.002328,-0.001494
0.430000,-1.978225,-2.461211,0.493189,0.173104,0.049327,0.005704,1.010740,0.336383,-0.000729,2.981266,1.161371,-0.019220,-3.114314,0.443925,0.096832,0.999993,0.002579,-0.002312,0.001507,-0.002713,0.002317,-0.001487
0.440000,-1.976443,-2.460701,0.493246,0.183360,0.052749,0.005696,1.040391,0.348017,-0.000916,2.948353,1.165353,-0.018271,-3.520439,0.339196,0.093313,0.999993,0.002565,-0.002300,0.001500,-0.002699,0.002305,-0.001479
0.450000,-1.974557,-2.460156,0.493303,0.193911,0.056287,0.005686,1.069692,0.359686,-0.001094,2.911351,1.168272,-0.017356,-3.825063,0.259281,0.089526,0.999993,0.002552,-0.002289,0.001493,-0.002684,0.002293,-0.001472
0.460000,-1.972564,-2.459574,0.493359,0.204753,0.059943,0.005674,1.098609,0.371380,-0.001264,2.871617,1.170417,-0.016480,-4.123038,0.179859,0.085880,0.999993,0.002538,-0.002277,0.001485,-0.002670,0.002282,-0.001465
0.470000,-1.970461,-2.458956,0.493416,0.215882,0.063715,0.005660,1.127114,0.383093,-0.001424,2.828896,1.171966,-0.015636,-4.416712,0.120792,0.082762,0.999993,0.002525,-0.002266,0.001478,-0.002656,0.002270,-0.001457
0.480000,-1.968245,-2.458300,0.493473,0.227293,0.067605,0.005645,1.155178,0.394817,-0.001576,2.783375,1.172640,-0.014828,-4.685812,0.014026,0.078741,0.999993,0.002512,-0.002255,0.001471,-0.002642,0.002258,-0.001450
0.490000,-1.965914,-2.457604,0.493529,0.238984,0.071611,0.005629,1.182773,0.406543,-0.001721,2.735154,1.172445,-0.014056,-4.959610,-0.043152,0.075878,0.999993,0.002499,-0.002243,0.001464,-0.002628,0.002247,-0.001443
0.500000,-1.963464,-2.456867,0.493585,0.250947,0.075736,0.005611,1.209872,0.418264,-0.001858,2.684236,1.171702,-0.013313,-5.219399,-0.114668,0.072727,0.999993,0.002486,-0.002232,0.001456,-0.002614,0.002236,-0.001436
0.510000,-1.960894,-2.456089,0.493641,0.263179,0.079977,0.005592,1.236449,0.429974,-0.001987,2.630762,1.170173,-0.012601,-5.470344,-0.184528,0.069732,0.999993,0.002472,-0.002221,0.001449,-0.002600,0.002224,-0.001428
0.520000,-1.958200,-2.455267,0.493697,0.275674,0.084335,0.005571,1.262479,0.441666,-0.002110,2.574891,1.168076,-0.011916,-5.705621,-0.240806,0.067171,0.999993,0.002460,-0.002210,0.001442,-0.002586,0.002213,-0.001421
0.530000,-1.955380,-2.454402,0.493753,0.288427,0.088810,0.005549,1.287939,0.453333,-0.002226,2.516608,1.165234,-0.011261,-5.949605,-0.327498,0.063858,0.999994,0.002447,-0.002199,0.001435,-0.002573,0.002202,-0.001414
0.540000,-1.952431,-2.453491,0.493808,0.301431,0.093401,0.005527,1.312804,0.464968,-0.002335,2.455997,1.161656,-0.010635,-6.167734,-0.381567,0.061468,0.999994,0.002434,-0.002188,0.001428,-0.002559,0.002191,-0.001407
0.550000,-1.949350,-2.452533,0.493863,0.314681,0.098109,0.005503,1.337052,0.476564,-0.002438,2.393257,1.157552,-0.010032,-6.382598,-0.444775,0.058933,0.999994,0.002421,-0.002177,0.001421,-0.002545,0.002180,-0.001400
0.560000,-1.946136,-2.451528,0.493918,0.328170,0.102933,0.005478,1.360662,0.488116,-0.002536,2.328381,1.152783,-0.009456,-6.588933,-0.506147,0.056476,0.999994,0.002408,-0.002166,0.001414,-0.002532,0.002169,-0.001393
0.570000,-1.942786,-2.450474,0.493973,0.341892,0.107871,0.005452,1.383613,0.499618,-0.002628,2.261528,1.147459,-0.008901,-6.782425,-0.560876,0.054378,0.999994,0.002396,-0.002155,0.001407,-0.002518,0.002158,-0.001386
0.580000,-1.939298,-2.449370,0.494027,0.355840,0.112925,0.005425,1.405886,0.511064,-0.002714,2.192714,1.141515,-0.008371,-6.978940,-0.627835,0.051676,0.999994,0.002383,-0.002144,0.001400,-0.002505,0.002147,-0.001379
0.590000,-1.935669,-2.448215,0.494081,0.370007,0.118092,0.005398,1.427461,0.522446,-0.002795,2.122022,1.134961,-0.007865,-7.155968,-0.680073,0.049779,0.999994,0.002371,-0.002134,0.001393,-0.002492,0.002136,-0.001372
0.600000,-1.931897,-2.447008,0.494135,0.384387,0.123374,0.005369,1.448320,0.533761,-0.002871,2.049604,1.127896,-0.007376,-7.328385,-0.735327,0.047811,0.999994,0.002358,-0.002123,0.001386,-0.002479,0.002125,-0.001365
0.610000,-1.927980,-2.445747,0.494189,0.398971,0.128767,0.005340,1.468447,0.545002,-0.002943,1.975485,1.120272,-0.006912,-7.492785,-0.788785,0.045604,0.999994,0.002346,-0.002112,0.001379,-0.002465,0.002114,-0.001359
0.620000,-1.923917,-2.444432,0.494242,0.413753,0.134273,0.005311,1.487825,0.556165,-0.003010,1.899784,1.112136,-0.006464,-7.647092,-0.839054,0.043886,0.999994,0.002334,-0.002102,0.001373,-0.002452,0.002103,-0.001352
0.630000,-1.919704,-2.443062,0.494295,0.428725,0.139890,0.005280,1.506438,0.567243,-0.003072,1.822550,1.103475,-0.006037,-7.798408,-0.892947,0.041666,0.999994,0.002321,-0.002091,0.001366,-0.002439,0.002093,-0.001345
0.640000,-1.915342,-2.441634,0.494347,0.443880,0.145618,0.005249,1.524271,0.578233,-0.003130,1.743862,1.094302,-0.005629,-7.936820,-0.940473,0.040096,0.999994,0.002309,-0.002081,0.001359,-0.002426,0.002082,-0.001338
0.650000,-1.910826,-2.440149,0.494400,0.459208,0.151455,0.005218,1.541311,0.589128,-0.003185,1.663827,1.084661,-0.005236,-8.069448,-0.988361,0.038346,0.999994,0.002297,-0.002071,0.001353,-0.002413,0.002072,-0.001332
0.660000,-1.906157,-2.438605,0.494452,0.474703,0.157400,0.005186,1.557543,0.599924,-0.003235,1.582501,1.074542,-0.004862,-8.194108,-1.034745,0.036696,0.999994,0.002285,-0.002060,0.001346,-0.002401,0.002061,-0.001325
0.670000,-1.901332,-2.437001,0.494503,0.490356,0.163453,0.005153,1.572957,0.610617,-0.003282,1.499973,1.063974,-0.004501,-8.310443,-1.079083,0.035288,0.999994,0.002273,-0.002050,0.001339,-0.002388,0.002051,-0.001318
0.680000,-1.896349,-2.435335,0.494555,0.506159,0.169612,0.005120,1.587539,0.621202,-0.003325,1.416309,1.052958,-0.004158,-8.421111,-1.123785,0.033461,0.999994,0.002261,-0.002040,0.001333,-0.002375,0.002040,-0.001312
0.690000,-1.891208,-2.433608,0.494606,0.522104,0.175877,0.005086,1.601279,0.631675,-0.003365,1.331583,1.041510,-0.003830,-8.522546,-1.165354,0.032155,0.999995,0.002249,-0.002030,0.001326,-0.002363,0.002030,-0.001305
0.700000,-1.885907,-2.431817,0.494657,0.538182,0.182245,0.005053,1.614167,0.642031,-0.003402,1.245881,1.029650,-0.003515,-8.617178,-1.206364,0.030755,0.999995,0.002238,-0.002019,0.001320,-0.002350,0.002020,-0.001299
0.710000,-1.880444,-2.429963,0.494707,0.554385,0.188717,0.005018,1.626194,0.652267,-0.003436,1.159265,1.017387,-0.003215,-8.704566,-1.245911,0.029406,0.999995,0.002226,-0.002009,0.001313,-0.002338,0.002009,-0.001292
0.720000,-1.874819,-2.428043,0.494757,0.570703,0.195290,0.004984,1.637350,0.662378,-0.003466,1.071814,1.004737,-0.002926,-8.784540,-1.283929,0.028259,0.999995,0.002214,-0.001999,0.001307,-0.002325,0.001999,-0.001286
0.730000,-1.869029,-2.426057,0.494807,0.587129,0.201964,0.004949,1.647627,0.672360,-0.003494,0.983595,0.991711,-0.002651,-8.858119,-1.321216,0.026774,0.999995,0.002203,-0.001989,0.001300,-0.002313,0.001989,-0.001279
0.740000,-1.863076,-2.424003,0.494856,0.603653,0.208737,0.004914,1.657019,0.682211,-0.003519,0.894677,0.978320,-0.002389,-8.924197,-1.356669,0.025751,0.999995,0.002191,-0.001980,0.001294,-0.002301,0.001979,-0.001273
0.750000,-1.856956,-2.421881,0.494905,0.620266,0.215608,0.004879,1.665519,0.691925,-0.003542,0.805137,0.964581,-0.002138,-8.983239,-1.390974,0.024550,0.999995,0.002180,-0.001970,0.001288,-0.002288,0.001969,-0.001266
0.760000,-1.850670,-2.419691,0.494953,0.636960,0.222575,0.004843,1.673120,0.701501,-0.003562,0.715037,0.950505,-0.001898,-9.035665,-1.424044,0.023447,0.999995,0.002168,-0.001960,0.001281,-0.002276,0.001959,-0.001260
0.770000,-1.844217,-2.417430,0.495002,0.653726,0.229637,0.004808,1.679818,0.710934,-0.003580,0.624447,0.936105,-0.001668,-9.081294,-1.455794,0.022511,0.999995,0.002157,-0.001950,0.001275,-0.002264,0.001949,-0.001254
0.780000,-1.837595,-2.415098,0.495050,0.670553,0.236793,0.004772,1.685608,0.720222,-0.003595,0.533432,0.921393,-0.001449,-9.120502,-1.486471,0.021293,0.999995,0.002146,-0.001940,0.001269,-0.002252,0.001939,-0.001247
0.790000,-1.830805,-2.412693,0.495097,0.687435,0.244041,0.004736,1.690486,0.729361,-0.003609,0.442060,0.906381,-0.001241,-9.152919,-1.515671,0.020455,0.999995,0.002134,-0.001931,0.001263,-0.002240,0.001929,-0.001241
0.800000,-1.823847,-2.410216,0.495144,0.704360,0.251380,0.004699,1.694448,0.738349,-0.003620,0.350393,0.891081,-0.001041,-9.179107,-1.543936,0.019482,0.999995,0.002123,-0.001921,0.001256,-0.002228,0.001919,-0.001235
0.810000,-1.816718,-2.407666,0.495191,0.721321,0.258808,0.004663,1.697493,0.747182,-0.003630,0.258498,0.875505,-0.000851,-9.198866,-1.570884,0.018583,0.999995,0.002112,-0.001911,0.001250,-0.002216,0.001910,-0.001229
0.820000,-1.809420,-2.405040,0.495238,0.738307,0.266323,0.004627,1.699617,0.755858,-0.003637,0.166437,0.859667,-0.000669,-9.212341,-1.596634,0.017821,0.999995,0.002101,-0.001902,0.001244,-0.002204,0.001900,-0.001223
0.830000,-1.801952,-2.402339,0.495284,0.755310,0.273924,0.004590,1.700821,0.764374,-0.003643,0.074272,0.843576,-0.000495,-9.219736,-1.621296,0.016827,0.999995,0.002090,-0.001892,0.001238,-0.002193,0.001890,-0.001216
0.840000,-1.794314,-2.399561,0.495329,0.772320,0.281610,0.004554,1.701103,0.772729,-0.003647,-0.017937,0.827245,-0.000331,-9.221011,-1.644835,0.016138,0.999995,0.002079,-0.001883,0.001232,-0.002181,0.001881,-0.001210
0.850000,-1.786506,-2.396706,0.495375,0.789329,0.289378,0.004518,1.700462,0.780919,-0.003650,-0.110129,0.810683,-0.000173,-9.216338,-1.667474,0.015400,0.999995,0.002068,-0.001874,0.001226,-0.002170,0.001871,-0.001204
0.860000,-1.778527,-2.393773,0.495420,0.806326,0.297228,0.004481,1.698900,0.788942,-0.003651,-0.202242,0.793910,-0.000024,-9.205621,-1.688148,0.014618,0.999995,0.002057,-0.001864,0.001220,-0.002158,0.001862,-0.001198
0.870000,-1.770379,-2.390762,0.495464,0.823304,0.305157,0.004445,1.696418,0.796796,-0.003650,-0.294221,0.776927,0.000119,-9.189204,-1.708184,0.014000,0.999995,0.002047,-0.001855,0.001214,-0.002146,0.001852,-0.001192
0.880000,-1.762061,-2.387670,0.495509,0.840252,0.313163,0.004408,1.693017,0.804480,-0.003648,-0.386007,0.759750,0.000255,-9.167130,-1.727144,0.013195,0.999995,0.002036,-0.001846,0.001208,-0.002135,0.001843,-0.001186
0.890000,-1.753574,-2.384498,0.495553,0.857161,0.321246,0.004372,1.688699,0.811990,-0.003645,-0.477545,0.742388,0.000384,-9.139560,-1.745042,0.012675,0.999996,0.002025,-0.001837,0.001202,-0.002124,0.001833,-0.001180
0.900000,-1.744918,-2.381245,0.495596,0.874023,0.329402,0.004335,1.683467,0.819327,-0.003641,-0.568775,0.724853,0.000507,-9.106075,-1.761828,0.011987,0.999996,0.002015,-0.001827,0.001196,-0.002112,0.001824,-0.001174
0.910000,-1.736094,-2.377910,0.495639,0.890827,0.337632,0.004299,1.677324,0.826487,-0.003635,-0.659647,0.707155,0.000624,-9.067375,-1.777564,0.011390,0.999996,0.002004,-0.001818,0.001190,-0.002101,0.001815,-0.001168
0.920000,-1.727102,-2.374492,0.495682,0.907566,0.345931,0.004262,1.670275,0.833469,-0.003628,-0.750105,0.689305,0.000735,-9.023325,-1.792242,0.010889,0.999996,0.001994,-0.001809,0.001184,-0.002090,0.001805,-0.001163
0.930000,-1.717943,-2.370991,0.495725,0.924230,0.354300,0.004226,1.662324,0.840273,-0.003620,-0.840096,0.671313,0.000841,-8.974068,-1.805855,0.010228,0.999996,0.001983,-0.001800,0.001179,-0.002079,0.001796,-0.001157
0.940000,-1.708618,-2.367406,0.495767,0.940810,0.362736,0.004190,1.653475,0.846895,-0.003612,-0.929569,0.653191,0.000941,-8.919727,-1.818400,0.009787,0.999996,0.001973,-0.001791,0.001173,-0.002068,0.001787,-0.001151
0.950000,-1.699127,-2.363736,0.495808,0.957296,0.371238,0.004154,1.643734,0.853336,-0.003602,-1.018471,0.634945,0.001036,-8.860068,-1.830202,0.009253,0.999996,0.001962,-0.001782,0.001167,-0.002057,0.001778,-0.001145
0.960000,-1.689472,-2.359981,0.495850,0.973681,0.379802,0.004118,1.633108,0.859594,-0.003591,-1.106754,0.616589,0.001126,-8.795572,-1.840851,0.008768,0.999996,0.001952,-0.001774,0.001161,-0.002046,0.001769,-0.001139
0.970000,-1.679654,-2.356140,0.495891,0.989956,0.388429,0.004082,1.621601,0.865667,-0.003579,-1.194366,0.598131,0.001211,-8.726176,-1.850530,0.008361,0.999996,0.001942,-0.001765,0.001156,-0.002035,0.001760,-0.001134
0.980000,-1.669673,-2.352212,0.495931,1.006110,0.397115,0.004046,1.609223,0.871556,-0.003567,-1.281261,0.579582,0.001292,-8.652024,-1.859226,0.007816,0.999996,0.001932,-0.001756,0.001150,-0.002024,0.001751,-0.001128
0.990000,-1.659532,-2.348197,0.495972,1.022137,0.405859,0.004011,1.595979,0.877259,-0.003553,-1.367391,0.560950,0.001368,-8.573121,-1.866905,0.007439,0.999996,0.001922,-0.001747,0.001144,-0.002013,0.001742,-0.001122
1.000000,-1.649231,-2.344095,0.496012,1.038027,0.414660,0.003975,1.581878,0.882775,-0.003539,-1.452709,0.542245,0.001441,-8.489660,-1.873822,0.007034,0.999996,0.001912,-0.001739,0.001139,-0.002003,0.001733,-0.001117
1.010000,-1.638772,-2.339904,0.496051,1.053772,0.423514,0.003940,1.566927,0.888103,-0.003525,-1.537169,0.523476,0.001509,-8.401658,-1.879725,0.006642,0.999996,0.001902,-0.001730,0.001133,-0.001992,0.001724,-0.001111
1.020000,-1.628156,-2.335624,0.496090,1.069363,0.432421,0.003905,1.551137,0.893244,-0.003509,-1.620727,0.504653,0.001574,-8.309189,-1.884721,0.006315,0.999996,0.001892,-0.001721,0.001128,-0.001981,0.001716,-0.001105
1.030000,-1.617385,-2.331255,0.496129,1.084792,0.441378,0.003870,1.534516,0.898196,-0.003493,-1.703339,0.485785,0.001635,-8.212504,-1.888794,0.005875,0.999996,0.001882,-0.001713,0.001122,-0.001971,0.001707,-0.001100
1.040000,-1.606461,-2.326796,0.496168,1.100051,0.450384,0.003835,1.517074,0.902960,-0.003476,-1.784963,0.466881,0.001692,-8.111463,-1.891969,0.005565,0.999996,0.001872,-0.001704,0.001117,-0.001960,0.001698,-0.001094
1.050000,-1.595385,-2.322247,0.496206,1.115131,0.459437,0.003800,1.498820,0.907534,-0.003459,-1.865554,0.447947,0.001746,-8.006290,-1.894409,0.005238,0.999996,0.001862,-0.001696,0.001111,-0.001950,0.001690,-0.001089
1.060000,-1.584159,-2.317608,0.496244,1.130024,0.468534,0.003766,1.479766,0.911919,-0.003442,-1.945075,0.428995,0.001797,-7.897075,-1.895909,0.004920,0.999996,0.001853,-0.001687,0.001106,-0.001939,0.001681,-0.001083
1.070000,-1.572785,-2.312877,0.496281,1.144723,0.477675,0.003731,1.459923,0.916114,-0.003423,-2.023482,0.410031,0.001845,-7.783707,-1.896620,0.004657,0.999996,0.001843,-0.001679,0.001100,-0.001929,0.001672,-0.001078
1.080000,-1.561265,-2.308054,0.496318,1.159220,0.486856,0.003697,1.439300,0.920119,-0.003405,-2.100738,0.391066,0.001890,-7.666990,-1.896366,0.004307,0.999996,0.001833,-0.001671,0.001095,-0.001919,0.001664,-0.001073
1.090000,-1.549601,-2.303139,0.496355,1.173507,0.496077,0.003663,1.417912,0.923935,-0.003386,-2.176807,0.372106,0.001931,-7.546086,-1.895496,0.004101,0.999996,0.001824,-0.001662,0.001090,-0.001909,0.001655,-0.001067
1.100000,-1.537796,-2.298132,0.496392,1.187576,0.505334,0.003630,1.395768,0.927561,-0.003366,-2.251646,0.353159,0.001970,-7.421390,-1.893684,0.003786,0.999996,0.001814,-0.001654,0.001084,-0.001898,0.001647,-0.001062
1.110000,-1.525850,-2.293033,0.496428,1.201420,0.514627,0.003596,1.372883,0.930998,-0.003346,-2.325215,0.334233,0.002007,-7.293097,-1.891172,0.003533,0.999996,0.001805,-0.001646,0.001079,-0.001888,0.001638,-0.001056
1.120000,-1.513768,-2.287840,0.496464,1.215031,0.523954,0.003563,1.349268,0.934246,-0.003326,-2.397507,0.315342,0.002041,-7.163445,-1.887251,0.003266,0.999996,0.001795,-0.001638,0.001074,-0.001878,0.001630,-0.001051
1.130000,-1.501551,-2.282553,0.496499,1.228403,0.533311,0.003530,1.324937,0.937305,-0.003305,-2.468449,0.296483,0.002073,-7.024512,-1.884238,0.003061,0.999997,0.001786,-0.001630,0.001069,-0.001868,0.001622,-0.001046
1.140000,-1.489201,-2.277173,0.496534,1.241527,0.542699,0.003497,1.299904,0.940176,-0.003284,-2.538008,0.277666,0.002102,-6.887898,-1.878699,0.002777,0.999997,0.001777,-0.001622,0.001063,-0.001858,0.001614,-0.001041
1.150000,-1.476721,-2.271699,0.496569,1.254398,0.552114,0.003464,1.274182,0.942859,-0.003263,-2.606188,0.258904,0.002129,-6.746181,-1.873431,0.002619,0.999997,0.001767,-0.001613,0.001058,-0.001848,0.001605,-0.001035
1.160000,-1.464114,-2.266131,0.496603,1.267009,0.561556,0.003431,1.247785,0.945354,-0.003242,-2.672942,0.240204,0.002154,-6.601652,-1.867086,0.002402,0.999997,0.001758,-0.001605,0.001053,-0.001838,0.001597,-0.001030
1.170000,-1.451382,-2.260468,0.496638,1.279352,0.571021,0.003399,1.220728,0.947663,-0.003220,-2.738188,0.221558,0.002178,-6.449467,-1.861385,0.002382,0.999997,0.001749,-0.001597,0.001048,-0.001829,0.001589,-0.001025
1.180000,-1.438528,-2.254710,0.496671,1.291421,0.580508,0.003367,1.193026,0.949786,-0.003198,-2.801971,0.202993,0.002200,-6.306821,-1.851321,0.001859,0.999997,0.001740,-0.001590,0.001043,-0.001819,0.001581,-0.001020
1.190000,-1.425554,-2.248858,0.496705,1.303210,0.590016,0.003335,1.164694,0.951723,-0.003176,-2.864266,0.184519,0.002218,-6.149208,-1.844068,0.001841,0.999997,0.001731,-0.001582,0.001038,-0.001809,0.001573,-0.001015
1.200000,-1.412464,-2.242910,0.496738,1.314713,0.599542,0.003303,1.135746,0.953476,-0.003154,-2.924966,0.166121,0.002236,-5.992784,-1.834867,0.001678,0.999997,0.001722,-0.001574,0.001033,-0.001800,0.001565,-0.001010
1.210000,-1.399261,-2.236867,0.496771,1.325923,0.609085,0.003272,1.106199,0.955046,-0.003132,-2.984102,0.147814,0.002252,-5.834001,-1.825424,0.001489,0.999997,0.001713,-0.001566,0.001028,-0.001790,0.001557,-0.001004
1.220000,-1.385947,-2.230728,0.496804,1.336835,0.618642,0.003241,1.076069,0.956433,-0.003109,-3.041653,0.129616,0.002265,-5.674528,-1.814480,0.001254,0.999997,0.001704,-0.001558,0.001023,-0.001780,0.001549,-0.000999
1.230000,-1.372525,-2.224494,0.496836,1.347443,0.628213,0.003210,1.045372,0.957639,-0.003086,-3.097559,0.111519,0.002277,-5.506216,-1.804791,0.001246,0.999997,0.001695,-0.001551,0.001018,-0.001771,0.001541,-0.000994
1.240000,-1.358999,-2.218164,0.496868,1.357741,0.637795,0.003179,1.014124,0.958664,-0.003063,-3.151794,0.093529,0.002289,-5.341516,-1.792795,0.001048,0.999997,0.001686,-0.001543,0.001013,-0.001761,0.001533,-0.000989
1.250000,-1.345371,-2.211738,0.496899,1.367724,0.647386,0.003149,0.982341,0.959510,-0.003040,-3.204372,0.075664,0.002298,-5.172476,-1.780662,0.000898,0.999997,0.001677,-0.001535,0.001008,-0.001752,0.001525,-0.000984
1.260000,-1.331646,-2.205216,0.496931,1.377386,0.656984,0.003118,0.950042,0.960177,-0.003017,-3.255233,0.057918,0.002307,-5.001024,-1.768056,0.000774,0.999997,0.001669,-0.001528,0.001003,-0.001743,0.001517,-0.000979
1.270000,-1.317825,-2.198598,0.496962,1.386723,0.666588,0.003088,0.917242,0.960668,-0.002994,-3.304402,0.040308,0.002314,-4.830744,-1.754127,0.000560,0.999997,0.001660,-0.001520,0.000998,-0.001733,0.001510,-0.000975
1.280000,-1.303912,-2.191885,0.496992,1.395729,0.676197,0.003058,0.883960,0.960984,-0.002971,-3.351804,0.022829,0.002319,-4.649365,-1.741691,0.000604,0.999997,0.001651,-0.001513,0.000993,-0.001724,0.001502,-0.000970
1.290000,-1.289911,-2.185074,0.497023,1.404400,0.685808,0.003029,0.850212,0.961125,-0.002948,-3.397418,0.005484,0.002325,-4.474726,-1.726703,0.000386,0.999997,0.001643,-0.001505,0.000988,-0.001715,0.001494,-0.000965
1.300000,-1.275825,-2.178168,0.497053,1.412732,0.695419,0.002999,0.816017,0.961094,-0.002925,-3.441279,-0.011709,0.002328,-4.295314,-1.712024,0.000323,0.999997,0.001634,-0.001498,0.000983,-0.001706,0.001487,-0.000960
1.310000,-1.261658,-2.171166,0.497083,1.420719,0.705029,0.002970,0.781393,0.960892,-0.002901,-3.483342,-0.028749,0.002330,-4.114498,-1.696623,0.000212,0.999997,0.001626,-0.001490,0.000979,-0.001697,0.001479,-0.000955
1.320000,-1.247412,-2.164068,0.497112,1.428358,0.714636,0.002941,0.746357,0.960520,-0.002878,-3.523541,-0.045647,0.002333,-3.927419,-1.682252,0.000288,0.999997,0.001617,-0.001483,0.000974,-0.001688,0.001471,-0.000950
1.330000,-1.233092,-2.156873,0.497142,1.435645,0.724239,0.002913,0.710928,0.959979,-0.002855,-3.561935,-0.062376,0.002334,-3.751225,-1.663305,-0.000119,0.999997,0.001609,-0.001475,0.000969,-0.001678,0.001464,-0.000945
1.340000,-1.218700,-2.149583,0.497171,1.442576,0.733835,0.002884,0.675124,0.959273,-0.002831,-3.598512,-0.078928,0.002333,-3.561547,-1.647896,-0.000040,0.999997,0.001600,-0.001468,0.000964,-0.001670,0.001456,-0.000941
1.350000,-1.204241,-2.142197,0.497199,1.449146,0.743424,0.002856,0.638964,0.958401,-0.002808,-3.633183,-0.095323,0.002332,-3.374655,-1.630489,-0.000156,0.999997,0.001592,-0.001461,0.000960,-0.001661,0.001449,-0.000936
1.360000,-1.189719,-2.134715,0.497228,1.455354,0.753003,0.002828,0.602467,0.957367,-0.002785,-3.665984,-0.111543,0.002330,-3.186134,-1.612885,-0.000237,0.999997,0.001584,-0.001454,0.000955,-0.001652,0.001441,-0.000931
1.370000,-1.175136,-2.127137,0.497256,1.461195,0.762570,0.002800,0.565651,0.956171,-0.002761,-3.696909,-0.127574,0.002327,-2.997947,-1.593808,-0.000344,0.999997,0.001576,-0.001446,0.000950,-0.001643,0.001434,-0.000926
1.380000,-1.160496,-2.119463,0.497284,1.466666,0.772126,0.002773,0.528535,0.954816,-0.002738,-3.725922,-0.143429,0.002324,-2.804399,-1.577223,-0.000372,0.999997,0.001567,-0.001439,0.000946,-0.001634,0.001427,-0.000922
1.390000,-1.145804,-2.111694,0.497311,1.471764,0.781666,0.002746,0.491139,0.953303,-0.002715,-3.753010,-0.159106,0.002320,-2.613922,-1.557487,-0.000468,0.999997,0.001559,-0.001432,0.000941,-0.001625,0.001419,-0.000917
1.400000,-1.131062,-2.103830,0.497339,1.476488,0.791191,0.002719,0.453481,0.951635,-0.002692,-3.778189,-0.174581,0.002315,-2.421000,-1.538232,-0.000528,0.999997,0.001551,-0.001425,0.000937,-0.001617,0.001412,-0.000913
1.410000,-1.116275,-2.095870,0.497366,1.480833,0.800698,0.002692,0.415581,0.949812,-0.002669,-3.801431,-0.189879,0.002310,-2.227304,-1.518895,-0.000581,0.999997,0.001543,-0.001418,0.000932,-0.001608,0.001405,-0.000908
1.420000,-1.101447,-2.087816,0.497393,1.484799,0.810187,0.002665,0.377459,0.947838,-0.002646,-3.822735,-0.204935,0.002302,-2.033180,-1.494672,-0.000795,0.999997,0.001535,-0.001411,0.000927,-0.001599,0.001398,-0.000903
1.430000,-1.086580,-2.079667,0.497419,1.488382,0.819655,0.002639,0.339133,0.945714,-0.002623,-3.842088,-0.219820,0.002296,-1.837478,-1.482362,-0.000548,0.999997,0.001527,-0.001404,0.000923,-0.001591,0.001390,-0.000899
1.440000,-1.071680,-2.071423,0.497445,1.491581,0.829101,0.002613,0.300624,0.943442,-0.002600,-3.859486,-0.234534,0.002290,-1.642120,-1.457954,-0.000716,0.999997,0.001519,-0.001397,0.000919,-0.001582,0.001383,-0.000894
1.450000,-1.056750,-2.063085,0.497471,1.494394,0.838523,0.002587,0.261950,0.941024,-0.002577,-3.874928,-0.248999,0.002282,-1.446072,-1.437332,-0.000704,0.999997,0.001511,-0.001390,0.000914,-0.001574,0.001376,-0.000890
1.460000,-1.041794,-2.054653,0.497497,1.496819,0.847921,0.002561,0.223132,0.938463,-0.002554,-3.888403,-0.263235,0.002272,-1.249262,-1.415246,-0.000865,0.999997,0.001503,-0.001383,0.000910,-0.001565,0.001369,-0.000885
1.470000,-1.026815,-2.046127,0.497523,1.498856,0.857292,0.002536,0.184188,0.935760,-0.002531,-3.899909,-0.277347,0.002265,-1.052027,-1.402272,-0.000627,0.999998,0.001496,-0.001377,0.000905,-0.001557,0.001362,-0.000881
1.480000,-1.011818,-2.037507,0.497548,1.500503,0.866635,0.002511,0.145140,0.932917,-0.002509,-3.909446,-0.291179,0.002256,-0.855519,-1.363961,-0.001208,0.999998,0.001488,-0.001370,0.000901,-0.001549,0.001355,-0.000876
1.490000,-0.996806,-2.028794,0.497573,1.501758,0.875950,0.002486,0.106006,0.929937,-0.002486,-3.917015,-0.304722,0.002244,-0.658019,-1.349404,-0.000983,0.999998,0.001480,-0.001363,0.000896,-0.001540,0.001348,-0.000872
1.500000,-0.981784,-2.019988,0.497598,1.502622,0.885234,0.002461,0.066806,0.926823,-0.002464,-3.922608,-0.318124,0.002235,-0.460749,-1.326346,-0.001066,0.999998,0.001472,-0.001356,0.000892,-0.001532,0.001341,-0.000867
1.510000,-0.966755,-2.011089,0.497622,1.503094,0.894486,0.002436,0.027560,0.923576,-0.002442,-3.926230,-0.331268,0.002224,-0.263541,-1.303299,-0.001118,0.999998,0.001465,-0.001350,0.000888,-0.001524,0.001334,-0.000863
1.520000,-0.951723,-2.002098,0.497646,1.503174,0.903705,0.002412,-0.011712,0.920198,-0.002419,-3.927879,-0.344198,0.002213,-0.066468,-1.281661,-0.001100,0.999998,0.001457,-0.001343,0.000883,-0.001516,0.001328,-0.000859
1.530000,-0.936693,-1.993015,0.497670,1.502860,0.912889,0.002388,-0.050991,0.916692,-0.002397,-3.927560,-0.356884,0.002201,0.130329,-1.255500,-0.001264,0.999998,0.001450,-0.001336,0.000879,-0.001508,0.001321,-0.000854
1.540000,-0.921667,-1.983841,0.497694,1.502154,0.922038,0.002364,-0.090256,0.913061,-0.002375,-3.925274,-0.369324,0.002188,0.326806,-1.233446,-0.001241,0.999998,0.001442,-0.001330,0.000875,-0.001499,0.001314,-0.000850
1.550000,-0.906651,-1.974575,0.497718,1.501055,0.931150,0.002340,-0.129490,0.909307,-0.002354,-3.921025,-0.381544,0.002176,0.522874,-1.209716,-0.001282,0.999998,0.001435,-0.001323,0.000871,-0.001491,0.001307,-0.000846
1.560000,-0.891648,-1.965218,0.497741,1.499564,0.940224,0.002317,-0.168670,0.905431,-0.002332,-3.914816,-0.393564,0.002164,0.718456,-1.186858,-0.001289,0.999998,0.001427,-0.001317,0.000866,-0.001483,0.001300,-0.000841
1.570000,-0.876661,-1.955770,0.497764,1.497682,0.949258,0.002294,-0.207779,0.901437,-0.002310,-3.906661,-0.405212,0.002148,0.912826,-1.149939,-0.001706,0.999998,0.001420,-0.001310,0.000862,-0.001475,0.001294,-0.000837
1.580000,-0.861695,-1.946233,0.497787,1.495409,0.958252,0.002271,-0.246797,0.897327,-0.002289,-3.896556,-0.416715,0.002134,1.108132,-1.150871,-0.001004,0.999998,0.001412,-0.001304,0.000858,-0.001468,0.001287,-0.000833
1.590000,-0.846754,-1.936606,0.497809,1.492746,0.967204,0.002248,-0.285704,0.893103,-0.002268,-3.884508,-0.428082,0.002123,1.301029,-1.115215,-0.001395,0.999998,0.001405,-0.001297,0.000854,-0.001460,0.001280,-0.000829
1.600000,-0.831842,-1.926889,0.497832,1.489695,0.976114,0.002225,-0.324481,0.888767,-0.002246,-3.870535,-0.439083,0.002109,1.493658,-1.092017,-0.001357,0.999998,0.001398,-0.001291,0.000850,-0.001452,0.001274,-0.000825
1.610000,-0.816962,-1.917083,0.497854,1.486257,0.984979,0.002203,-0.363108,0.884322,-0.002225,-3.854649,-0.449864,0.002095,1.685062,-1.067777,-0.001374,0.999998,0.001391,-0.001285,0.000846,-0.001444,0.001267,-0.000820
1.620000,-0.802118,-1.907189,0.497876,1.482434,0.993800,0.002181,-0.401567,0.879770,-0.002205,-3.836821,-0.460469,0.002082,1.878582,-1.049858,-0.001245,0.999998,0.001383,-0.001278,0.000842,-0.001436,0.001261,-0.000816
1.630000,-0.787314,-1.897208,0.497897,1.478226,1.002574,0.002159,-0.439839,0.875114,-0.002184,-3.817116,-0.470791,0.002068,2.062320,-1.014395,-0.001510,0.999998,0.001376,-0.001272,0.000837,-0.001429,0.001254,-0.000812
1.640000,-0.772555,-1.887138,0.497919,1.473638,1.011302,0.002137,-0.477903,0.870355,-0.002163,-3.795546,-0.480825,0.002054,2.253090,-0.995706,-0.001398,0.999998,0.001369,-0.001266,0.000833,-0.001421,0.001248,-0.000808
1.650000,-0.757843,-1.876982,0.497940,1.468669,1.019981,0.002116,-0.515743,0.865498,-0.002143,-3.772072,-0.490674,0.002040,2.439754,-0.970978,-0.001409,0.999998,0.001362,-0.001259,0.000829,-0.001413,0.001241,-0.000804
1.660000,-0.743182,-1.866739,0.497961,1.463324,1.028612,0.002094,-0.553339,0.860543,-0.002122,-3.746729,-0.500246,0.002025,2.625450,-0.946215,-0.001431,0.999998,0.001355,-0.001253,0.000825,-0.001406,0.001235,-0.000800
1.670000,-0.728578,-1.856410,0.497982,1.457603,1.037192,0.002073,-0.590672,0.855493,-0.002102,-3.719597,-0.509624,0.002012,2.803856,-0.926615,-0.001256,0.999998,0.001348,-0.001247,0.000821,-0.001398,0.001229,-0.000796
1.680000,-0.714032,-1.845995,0.498003,1.451511,1.045721,0.002052,-0.627724,0.850351,-0.002082,-3.690595,-0.518721,0.001998,2.996365,-0.892865,-0.001613,0.999998,0.001341,-0.001241,0.000817,-0.001391,0.001222,-0.000792
1.690000,-0.699549,-1.835495,0.498023,1.445050,1.054199,0.002032,-0.664477,0.845120,-0.002062,-3.659736,-0.527536,0.001982,3.172022,-0.872704,-0.001439,0.999998,0.001334,-0.001235,0.000813,-0.001383,0.001216,-0.000788
1.700000,-0.685132,-1.824911,0.498043,1.438223,1.062623,0.002011,-0.700913,0.839801,-0.002042,-3.627135,-0.536152,0.001969,3.350890,-0.847944,-0.001376,0.999998,0.001327,-0.001229,0.000810,-0.001376,0.001210,-0.000784
1.710000,-0.670785,-1.814243,0.498063,1.431033,1.070994,0.001991,-0.737014,0.834398,-0.002023,-3.592739,-0.544520,0.001953,3.528074,-0.823563,-0.001483,0.999998,0.001320,-0.001223,0.000806,-0.001368,0.001203,-0.000780
1.720000,-0.656512,-1.803491,0.498083,1.423483,1.079311,0.001971,-0.772762,0.828912,-0.002003,-3.556569,-0.552603,0.001938,3.704708,-0.795154,-0.001584,0.999998,0.001314,-0.001217,0.000802,-0.001361,0.001197,-0.000776
1.730000,-0.642317,-1.792657,0.498103,1.415579,1.087572,0.001951,-0.808140,0.823346,-0.001984,-3.518671,-0.560469,0.001923,3.874498,-0.778189,-0.001420,0.999998,0.001307,-0.001211,0.000798,-0.001353,0.001191,-0.000772
1.740000,-0.628202,-1.781740,0.498122,1.407322,1.095778,0.001931,-0.843130,0.817703,-0.001965,-3.479068,-0.568124,0.001908,4.046661,-0.750638,-0.001517,0.999998,0.001300,-0.001205,0.000794,-0.001346,0.001185,-0.000768
1.750000,-0.614172,-1.770742,0.498141,1.398717,1.103926,0.001911,-0.877715,0.811985,-0.001946,-3.437753,-0.575494,0.001893,4.214977,-0.726333,-0.001509,0.999998,0.001293,-0.001199,0.000790,-0.001339,0.001179,-0.000764
1.760000,-0.600229,-1.759662,0.498160,1.389769,1.112017,0.001892,-0.911879,0.806194,-0.001927,-3.394787,-0.582637,0.001878,4.380669,-0.702319,-0.001508,0.999998,0.001287,-0.001193,0.000786,-0.001332,0.001173,-0.000760
1.770000,-0.586377,-1.748502,0.498179,1.380481,1.120050,0.001873,-0.945605,0.800333,-0.001908,-3.350122,-0.589541,0.001863,4.549207,-0.678402,-0.001577,0.999998,0.001280,-0.001187,0.000783,-0.001325,0.001167,-0.000756
1.780000,-0.572620,-1.737261,0.498198,1.370858,1.128023,0.001854,-0.978877,0.794404,-0.001890,-3.303870,-0.596206,0.001847,4.700797,-0.654691,-0.001465,0.999998,0.001273,-0.001181,0.000779,-0.001317,0.001161,-0.000752
1.790000,-0.558961,-1.725941,0.498216,1.360905,1.135938,0.001835,-1.011678,0.788410,-0.001871,-3.256059,-0.602634,0.001832,4.863577,-0.631012,-0.001566,0.999998,0.001267,-0.001176,0.000775,-0.001310,0.001155,-0.000749
1.800000,-0.545403,-1.714543,0.498235,1.350626,1.143791,0.001816,-1.043992,0.782352,-0.001853,-3.206631,-0.608829,0.001818,5.018970,-0.607669,-0.001505,0.999998,0.001260,-0.001170,0.000771,-0.001303,0.001149,-0.000745
1.810000,-0.531950,-1.703066,0.498253,1.340027,1.151584,0.001798,-1.075805,0.776234,-0.001835,-3.155659,-0.614788,0.001802,5.172059,-0.584392,-0.001506,0.999998,0.001254,-0.001164,0.000768,-0.001296,0.001143,-0.000741
1.820000,-0.518604,-1.691511,0.498271,1.329112,1.159316,0.001780,-1.107101,0.770057,-0.001817,-3.103225,-0.620519,0.001788,5.316974,-0.561772,-0.001437,0.999998,0.001247,-0.001158,0.000764,-0.001289,0.001137,-0.000737
1.830000,-0.505369,-1.679880,0.498288,1.317887,1.166985,0.001762,-1.137865,0.763824,-0.001799,-3.049272,-0.626019,0.001773,5.473302,-0.538094,-0.001559,0.999998,0.001241,-0.001153,0.000760,-0.001282,0.001131,-0.000733
1.840000,-0.492247,-1.668172,0.498306,1.306357,1.174592,0.001744,-1.168081,0.757537,-0.001782,-2.993825,-0.631287,0.001757,5.612721,-0.515825,-0.001486,0.999998,0.001234,-0.001147,0.000757,-0.001275,0.001125,-0.000730
1.850000,-0.479242,-1.656388,0.498323,1.294527,1.182136,0.001726,-1.197737,0.751199,-0.001764,-2.937004,-0.636334,0.001743,5.753743,-0.493430,-0.001497,0.999998,0.001228,-0.001142,0.000753,-0.001268,0.001119,-0.000726
1.860000,-0.466358,-1.644529,0.498340,1.282404,1.189616,0.001708,-1.226817,0.744811,-0.001747,-2.878779,-0.641158,0.001728,5.891245,-0.471269,-0.001495,0.999998,0.001222,-0.001136,0.000749,-0.001262,0.001113,-0.000722
1.870000,-0.453595,-1.632596,0.498357,1.269993,1.197032,0.001691,-1.255308,0.738377,-0.001730,-2.819185,-0.645761,0.001713,6.026431,-0.449338,-0.001494,0.999998,0.001215,-0.001130,0.000746,-0.001255,0.001108,-0.000719
1.880000,-0.440959,-1.620589,0.498374,1.257300,1.204383,0.001674,-1.283196,0.731897,-0.001713,-2.758273,-0.650146,0.001698,6.155368,-0.427733,-0.001483,0.999998,0.001209,-0.001125,0.000742,-0.001248,0.001102,-0.000715
1.890000,-0.428450,-1.608508,0.498391,1.244331,1.211670,0.001657,-1.310469,0.725375,-0.001696,-2.696078,-0.654316,0.001683,6.283472,-0.406250,-0.001469,0.999998,0.001203,-0.001119,0.000739,-0.001241,0.001096,-0.000711
1.900000,-0.416073,-1.596355,0.498407,1.231092,1.218891,0.001640,-1.337113,0.718811,-0.001679,-2.632621,-0.658275,0.001668,6.406995,-0.385377,-0.001481,0.999998,0.001197,-0.001114,0.000735,-0.001234,0.001090,-0.000708
1.910000,-0.403829,-1.584131,0.498424,1.217591,1.226046,0.001623,-1.363117,0.712210,-0.001662,-2.567956,-0.662026,0.001653,6.526693,-0.364677,-0.001477,0.999998,0.001191,-0.001109,0.000732,-0.001228,0.001085,-0.000704
1.920000,-0.391722,-1.571835,0.498440,1.203832,1.233135,0.001607,-1.388468,0.705572,-0.001646,-2.502086,-0.665568,0.001638,6.645335,-0.343988,-0.001471,0.999998,0.001185,-0.001103,0.000728,-0.001221,0.001079,-0.000700
1.930000,-0.379753,-1.559468,0.498456,1.189824,1.240157,0.001590,-1.413155,0.698899,-0.001630,-2.435093,-0.668910,0.001624,6.752620,-0.324513,-0.001464,0.999998,0.001178,-0.001098,0.000725,-0.001215,0.001074,-0.000697
1.940000,-0.367926,-1.547032,0.498472,1.175571,1.247113,0.001574,-1.437167,0.692194,-0.001613,-2.367018,-0.672057,0.001609,6.863085,-0.304634,-0.001430,0.999998,0.001172,-0.001092,0.000721,-0.001208,0.001068,-0.000693
1.950000,-0.356243,-1.534526,0.498487,1.161083,1.254001,0.001558,-1.460492,0.685459,-0.001597,-2.297857,-0.675006,0.001595,6.967017,-0.285594,-0.001339,0.999998,0.001166,-0.001087,0.000718,-0.001201,0.001062,-0.000690
1.960000,-0.344705,-1.521952,0.498503,1.146364,1.260822,0.001542,-1.483120,0.678695,-0.001582,-2.227717,-0.677766,0.001580,7.066308,-0.266402,-0.001452,0.999998,0.001160,-0.001082,0.000714,-0.001195,0.001057,-0.000686
1.970000,-0.333316,-1.509310,0.498518,1.131422,1.267575,0.001526,-1.505042,0.671904,-0.001566,-2.156488,-0.680326,0.001566,7.172841,-0.246481,-0.001434,0.999999,0.001154,-0.001076,0.000711,-0.001188,0.001051,-0.000683
1.980000,-0.322078,-1.496601,0.498533,1.116265,1.274260,0.001511,-1.526247,0.665089,-0.001550,-2.084400,-0.682713,0.001551,7.243938,-0.230883,-0.001436,0.999999,0.001148,-0.001071,0.000707,-0.001182,0.001046,-0.000679
1.990000,-0.310992,-1.483825,0.498548,1.100900,1.280876,0.001495,-1.546728,0.658250,-0.001535,-2.011503,-0.684930,0.001537,7.340667,-0.211836,-0.001384,0.999999,0.001143,-0.001066,0.000704,-0.001176,0.001040,-0.000676
2.000000,-0.300060,-1.470983,0.498563,1.085333,1.287425,0.001480,-1.566474,0.651391,-0.001519,-1.937652,-0.686960,0.001522,7.422838,-0.194733,-0.001426,0.999999,0.001137,-0.001061,0.000701,-0.001169,0.001035,-0.000672
2.010000,-0.289286,-1.458077,0.498578,1.069573,1.293904,0.001465,-1.585479,0.644511,-0.001504,-1.863088,-0.688830,0.001508,7.499825,-0.178000,-0.001418,0.999999,0.001131,-0.001056,0.000697,-0.001163,0.001030,-0.000669
2.020000,-0.278670,-1.445106,0.498592,1.053626,1.300315,0.001450,-1.603733,0.637615,-0.001489,-1.787573,-0.690511,0.001494,7.592212,-0.159414,-0.001398,0.999999,0.001125,-0.001051,0.000694,-0.001157,0.001024,-0.000665
2.030000,-0.268214,-1.432071,0.498607,1.037501,1.306656,0.001435,-1.621228,0.630702,-0.001474,-1.711474,-0.692044,0.001480,7.626419,-0.147448,-0.001404,0.999999,0.001119,-0.001045,0.000691,-0.001150,0.001019,-0.000662
2.040000,-0.257920,-1.418973,0.498621,1.021204,1.312929,0.001421,-1.637960,0.623774,-0.001460,-1.634851,-0.693437,0.001466,7.707847,-0.129999,-0.001381,0.999999,0.001114,-0.001040,0.000687,-0.001144,0.001014,-0.000659
2.050000,-0.247790,-1.405812,0.498635,1.004744,1.319132,0.001406,-1.653922,0.616834,-0.001445,-1.557420,-0.694656,0.001452,7.767237,-0.115043,-0.001384,0.999999,0.001108,-0.001035,0.000684,-0.001138,0.001008,-0.000655
2.060000,-0.237826,-1.392590,0.498649,0.988128,1.325265,0.001392,-1.669107,0.609882,-0.001431,-1.479497,-0.695731,0.001438,7.822388,-0.100301,-0.001371,0.999999,0.001102,-0.001030,0.000681,-0.001132,0.001003,-0.000652
2.070000,-0.228028,-1.379307,0.498663,0.971365,1.331329,0.001377,-1.683510,0.602919,-0.001416,-1.400933,-0.696664,0.001425,7.884101,-0.086214,-0.001354,0.999999,0.001097,-0.001025,0.000677,-0.001125,0.000998,-0.000649
2.080000,-0.218399,-1.365964,0.498677,0.954461,1.337324,0.001363,-1.697125,0.595949,-0.001402,-1.321949,-0.697456,0.001411,7.911654,-0.072227,-0.001340,0.999999,0.001091,-0.001020,0.000674,-0.001119,0.000993,-0.000645
2.090000,-0.208939,-1.352561,0.498690,0.937425,1.343248,0.001349,-1.709948,0.588971,-0.001388,-1.242598,-0.698112,0.001398,7.963553,-0.059128,-0.001278,0.999999,0.001085,-0.001015,0.000671,-0.001113,0.000987,-0.000642
2.100000,-0.199651,-1.339099,0.498704,0.920264,1.349103,0.001336,-1.721975,0.581987,-0.001374,-1.162741,-0.698636,0.001385,8.001490,-0.046096,-0.001317,0.999999,0.001080,-0.001010,0.000668,-0.001107,0.000982,-0.000639
2.110000,-0.190534,-1.325579,0.498717,0.902988,1.354888,0.001322,-1.733201,0.574998,-0.001360,-1.082524,-0.699094,0.001372,8.036110,-0.034833,-0.001295,0.999999,0.001074,-0.001006,0.000665,-0.001101,0.000977,-0.000635
2.120000,-0.181591,-1.312002,0.498730,0.885603,1.360603,0.001308,-1.743625,0.568006,-0.001347,-1.002079,-0.699236,0.001358,8.057073,-0.003961,-0.001376,0.999999,0.001069,-0.001001,0.000661,-0.001095,0.000972,-0.000632
2.130000,-0.172823,-1.298367,0.498743,0.868118,1.366248,0.001295,-1.753242,0.561013,-0.001333,-0.921293,-0.699393,0.001345,8.099523,-0.027802,-0.001184,0.999999,0.001063,-0.000996,0.000658,-0.001089,0.000967,-0.000629
2.140000,-0.164229,-1.284677,0.498756,0.850541,1.371823,0.001282,-1.762049,0.554018,-0.001320,-0.840202,-0.699583,0.001333,8.113141,0.000146,-0.001283,0.999999,0.001058,-0.000991,0.000655,-0.001083,0.000962,-0.000626
2.150000,-0.155812,-1.270931,0.498769,0.832880,1.377329,0.001269,-1.770046,0.547023,-0.001307,-0.759003,-0.699476,0.001321,8.130965,0.010347,-0.001216,0.999999,0.001052,-0.000986,0.000652,-0.001077,0.000957,-0.000622
2.160000,-0.147572,-1.257131,0.498782,0.815143,1.382764,0.001256,-1.777228,0.540029,-0.001293,-0.677504,-0.699367,0.001309,8.146668,0.019961,-0.001187,0.999999,0.001047,-0.000981,0.000649,-0.001072,0.000952,-0.000619
2.170000,-0.139510,-1.243276,0.498794,0.797338,1.388129,0.001243,-1.783597,0.533037,-0.001280,-0.596280,-0.699000,0.001297,8.118098,0.045189,-0.001284,0.999999,0.001042,-0.000977,0.000646,-0.001066,0.000947,-0.000616
2.180000,-0.131625,-1.229368,0.498806,0.779474,1.393425,0.001230,-1.789153,0.526049,-0.001267,-0.514721,-0.698634,0.001285,8.193790,0.027790,-0.001039,0.999999,0.001036,-0.000972,0.000643,-0.001060,0.000942,-0.000613
2.190000,-0.123920,-1.215408,0.498819,0.761558,1.398650,0.001217,-1.793890,0.519064,-0.001255,-0.432840,-0.698279,0.001275,8.160692,0.051397,-0.001131,0.999999,0.001031,-0.000967,0.000640,-0.001054,0.000937,-0.000610
2.200000,-0.116394,-1.201396,0.498831,0.743598,1.403806,0.001205,-1.797811,0.512084,-0.001242,-0.351344,-0.697674,0.001263,8.158569,0.061367,-0.001104,0.999999,0.001026,-0.000963,0.000637,-0.001048,0.000932,-0.000607
2.210000,-0.109048,-1.187332,0.498843,0.725604,1.408892,0.001193,-1.800914,0.505110,-0.001229,-0.269257,-0.697215,0.001250,8.161056,0.068013,-0.001124,0.999999,0.001021,-0.000958,0.000634,-0.001043,0.000927,-0.000603
2.220000,-0.101882,-1.173218,0.498855,0.707583,1.413908,0.001180,-1.803204,0.498143,-0.001217,-0.189032,-0.695968,0.001244,7.977177,0.145187,-0.000517,0.999999,0.001016,-0.000953,0.000631,-0.001037,0.000922,-0.000600
2.230000,-0.094897,-1.159054,0.498866,0.689543,1.418855,0.001168,-1.804691,0.491189,-0.001205,-0.107760,-0.695070,0.001233,8.279118,0.033387,-0.001628,0.999999,0.001010,-0.000949,0.000628,-0.001031,0.000917,-0.000597
2.240000,-0.088092,-1.144841,0.498878,0.671492,1.423732,0.001156,-1.805355,0.484240,-0.001192,-0.025372,-0.694562,0.001218,8.102404,0.105108,-0.001122,0.999999,0.001005,-0.000944,0.000625,-0.001026,0.000913,-0.000594
2.250000,-0.081467,-1.130580,0.498889,0.653438,1.428540,0.001144,-1.805206,0.477301,-0.001180,0.055071,-0.693276,0.001209,8.079495,0.116071,-0.001095,0.999999,0.001000,-0.000940,0.000622,-0.001020,0.000908,-0.000591
2.260000,-0.075023,-1.116270,0.498901,0.635390,1.433278,0.001133,-1.804301,0.470399,-0.001168,0.124486,-0.686403,0.001179,7.821345,0.242664,-0.001468,0.999999,0.000995,-0.000935,0.000619,-0.001014,0.000903,-0.000588
2.270000,-0.068759,-1.101914,0.498912,0.617355,1.437948,0.001121,-1.802561,0.463494,-0.001156,0.230069,-0.697776,0.001211,11.337767,-1.532532,0.004644,0.999999,0.000990,-0.000931,0.000616,-0.001009,0.000898,-0.000585
2.280000,-0.062676,-1.087512,0.498923,0.599343,1.442548,0.001109,-1.799799,0.456493,-0.001144,0.310156,-0.696383,0.001201,4.620855,1.840334,-0.006757,0.999999,0.000985,-0.000926,0.000613,-0.001003,0.000894,-0.000582
2.290000,-0.056772,-1.073064,0.498934,0.581361,1.447078,0.001098,-1.796467,0.449621,-0.001133,0.362168,-0.680948,0.001144,7.762708,0.249412,-0.001250,0.999999,0.000980,-0.000922,0.000610,-0.000998,0.000889,-0.000579
2.300000,-0.051048,-1.058570,0.498945,0.563416,1.451540,0.001087,-1.792406,0.442798,-0.001121,0.448721,-0.683006,0.001148,7.583123,0.327721,-0.001384,0.999999,0.000975,-0.000917,0.000607,-0.000992,0.000884,-0.000576
2.310000,-0.045504,-1.044033,0.498956,0.545516,1.455934,0.001076,-1.787358,0.435893,-0.001109,0.566182,-0.700639,0.001244,8.396127,-0.093450,0.000946,0.999999,0.000970,-0.000913,0.000604,-0.000987,0.000880,-0.000573
2.320000,-0.040138,-1.029452,0.498967,0.527671,1.460258,0.001065,-1.781666,0.429077,-0.001098,0.547542,-0.650286,0.000986,-4.828897,6.511376,-0.033552,0.999999,0.000965,-0.000908,0.000601,-0.000981,0.000875,-0.000571
2.330000,-0.034950,-1.014828,0.498977,0.509882,1.464517,0.001054,-1.776040,0.422703,-0.001088,0.622734,-0.647087,0.000975,20.091882,-5.984441,0.031954,0.999999,0.000960,-0.000904,0.000599,-0.000976,0.000871,-0.000568
2.340000,-0.029940,-1.000162,0.498988,0.492156,1.468711,0.001043,-1.768808,0.415933,-0.001077,0.801696,-0.696043,0.001237,8.328012,-0.116006,0.001235,0.999999,0.000955,-0.000900,0.000596,-0.000971,0.000866,-0.000565
2.350000,-0.025107,-0.985454,0.498998,0.474509,1.472835,0.001032,-1.760565,0.409062,-0.001065,0.851604,-0.680611,0.001163,8.980311,-0.466333,0.003028,0.999999,0.000950,-0.000895,0.000593,-0.000965,0.000861,-0.000561
2.360000,-0.020450,-0.970705,0.499008,0.456946,1.476892,0.001022,-1.751895,0.402375,-0.001054,0.874078,-0.652672,0.000985,7.719466,0.119328,-0.000856,0.999999,0.000946,-0.000891,0.000590,-0.000961,0.000856,-0.000557
2.370000,-0.015967,-0.955916,0.499019,0.439474,1.480883,0.001011,-1.742134,0.395545,-0.001043,1.118152,-0.732763,0.001491,29.227426,-10.366952,0.065506,0.999999,0.000941,-0.000887,0.000587,-0.000956,0.000851,-0.000553
2.380000,-0.011660,-0.941088,0.499029,0.422112,1.484801,0.001001,-1.730128,0.388009,-0.001026,1.209497,-0.738872,0.001527,-11.335137,9.328412,-0.059594,0.999999,0.000936,-0.000883,0.000585,-0.000951,0.000846,-0.000549
2.390000,-0.007525,-0.926221,0.499039,0.404869,1.488645,0.000991,-1.718603,0.381087,-0.001014,1.131255,-0.662801,0.001039,7.656937,0.065473,-0.000979,0.999999,0.000931,-0.000878,0.000582,-0.000946,0.000842,-0.000546
2.400000,-0.003562,-0.911315,0.499048,0.387742,1.492423,0.000980,-1.706601,0.374313,-0.001003,1.261049,-0.688164,0.001194,6.375797,0.660993,-0.004931,0.999999,0.000927,-0.000874,0.000579,-0.000941,0.000837,-0.000543
2.410000,0.000230,-0.896372,0.499058,0.370740,1.496131,0.000971,-1.693520,0.367405,-0.000990,1.358930,-0.695051,0.001327,6.642066,0.568793,-0.002375,0.999999,0.000922,-0.000870,0.000576,-0.000935,0.000833,-0.000541
2.420000,0.003853,-0.881393,0.499068,0.353873,1.499771,0.000961,-1.679946,0.360621,-0.000979,1.333691,-0.652875,0.000838,-5.302520,5.324770,-0.062803,0.999999,0.000917,-0.000866,0.000574,-0.000929,0.000829,-0.000540
2.430000,0.007308,-0.866377,0.499077,0.337141,1.503345,0.000951,-1.666538,0.354224,-0.000972,1.386988,-0.641922,0.000759,16.174340,-3.220642,0.048133,0.999999,0.000913,-0.000862,0.000571,-0.000924,0.000826,-0.000539
2.440000,0.010597,-0.851326,0.499087,0.320547,1.506855,0.000941,-1.651862,0.347645,-0.000962,1.528476,-0.666151,0.001139,5.700640,0.926615,-0.005213,0.999999,0.000908,-0.000858,0.000568,-0.000918,0.000822,-0.000538
2.450000,0.013720,-0.836240,0.499096,0.304106,1.510298,0.000932,-1.636461,0.341096,-0.000952,1.555910,-0.645281,0.000934,6.214292,0.688434,-0.002650,0.999999,0.000903,-0.000853,0.000566,-0.000912,0.000818,-0.000536
2.460000,0.016679,-0.821120,0.499106,0.287820,1.513677,0.000922,-1.620368,0.334527,-0.000943,1.669203,-0.673165,0.000765,7.385030,-0.110002,-0.005040,0.999999,0.000899,-0.000849,0.000563,-0.000908,0.000813,-0.000532
2.470000,0.019477,-0.805967,0.499115,0.271700,1.516989,0.000913,-1.603774,0.328107,-0.000934,1.620287,-0.590873,0.001074,-8.369469,10.589563,0.041467,0.999999,0.000894,-0.000845,0.000560,-0.000903,0.000809,-0.000528
2.480000,0.022114,-0.790781,0.499124,0.255743,1.520242,0.000904,-1.587514,0.322404,-0.000923,1.686489,-0.586864,0.001061,21.878827,-9.971506,-0.044734,0.999999,0.000890,-0.000841,0.000558,-0.000898,0.000804,-0.000524
2.490000,0.024592,-0.775562,0.499133,0.239956,1.523434,0.000894,-1.569551,0.316034,-0.000914,1.879680,-0.669262,0.000693,7.863391,-0.465018,-0.003291,0.999999,0.000885,-0.000837,0.000555,-0.000894,0.000799,-0.000520
2.500000,0.026914,-0.760312,0.499142,0.224355,1.526562,0.000885,-1.550588,0.309472,-0.000907,1.918811,-0.647190,0.000778,8.793794,-1.122922,-0.005105,0.999999,0.000881,-0.000833,0.000552,-0.000889,0.000795,-0.000517
2.510000,0.029080,-0.745031,0.499150,0.208946,1.529625,0.000876,-1.531407,0.303227,-0.000899,1.904828,-0.593933,0.000925,6.954824,-0.002226,-0.001087,0.999999,0.000877,-0.000829,0.000550,-0.000884,0.000790,-0.000516
2.520000,0.031093,-0.729720,0.499159,0.193730,1.532626,0.000867,-1.511046,0.296674,-0.000891,2.228308,-0.755453,0.000431,39.704624,-20.849955,-0.063204,0.999999,0.000872,-0.000825,0.000547,-0.000878,0.000786,-0.000514
2.530000,0.032955,-0.714379,0.499168,0.178736,1.535553,0.000858,-1.487746,0.288691,-0.000888,2.320297,-0.770534,0.000384,-21.882067,18.197951,0.054907,0.999999,0.000868,-0.000821,0.000545,-0.000873,0.000781,-0.000513
2.540000,0.034669,-0.699009,0.499176,0.163970,1.538404,0.000850,-1.465640,0.281896,-0.000882,2.155024,-0.622874,0.000832,7.014816,-0.215548,0.000043,0.999999,0.000863,-0.000818,0.000542,-0.000868,0.000777,-0.000512
2.550000,0.036235,-0.683611,0.499185,0.149424,1.541191,0.000841,-1.443273,0.275360,-0.000874,2.306157,-0.676806,0.000679,5.085499,0.937899,0.003967,0.999999,0.000859,-0.000814,0.000540,-0.000863,0.000773,-0.000510
2.560000,0.037658,-0.668186,0.499193,0.135108,1.543911,0.000832,-1.419699,0.268466,-0.000868,2.415239,-0.706548,0.000628,5.612142,0.489640,0.003503,0.999999,0.000855,-0.000810,0.000537,-0.000859,0.000769,-0.000505
2.570000,0.038938,-0.652733,0.499201,0.121032,1.546561,0.000823,-1.395854,0.261813,-0.000860,2.316259,-0.599262,0.000911,-14.593210,13.791810,0.035893,0.999999,0.000850,-0.000806,0.000535,-0.000854,0.000765,-0.000500
2.580000,0.040079,-0.637255,0.499210,0.107188,1.549151,0.000815,-1.372851,0.256129,-0.000850,2.350434,-0.581365,0.000984,21.778822,-10.445587,-0.022025,0.999999,0.000846,-0.000802,0.000532,-0.000851,0.000762,-0.000494
2.590000,0.041083,-0.621750,0.499218,0.093581,1.551681,0.000806,-1.348264,0.249796,-0.000842,2.533568,-0.663372,0.000818,3.954934,1.270896,0.006122,0.999999,0.000842,-0.000798,0.000530,-0.000847,0.000758,-0.000489
2.600000,0.041952,-0.606221,0.499226,0.080224,1.554146,0.000798,-1.323017,0.243414,-0.000833,2.522342,-0.617526,0.000958,4.679224,0.680098,0.004534,0.999999,0.000838,-0.000795,0.000527,-0.000842,0.000754,-0.000485
2.610000,0.042688,-0.590668,0.499234,0.067121,1.556550,0.000790,-1.297541,0.237239,-0.000824,2.573640,-0.618608,0.000807,4.836174,0.379337,-0.000153,0.999999,0.000834,-0.000791,0.000525,-0.000838,0.000750,-0.000483
2.620000,0.043295,-0.575091,0.499242,0.054275,1.558891,0.000782,-1.271600,0.231136,-0.000814,2.612261,-0.598220,0.001273,3.619639,2.455485,0.059728,0.999999,0.000829,-0.000787,0.000522,-0.000833,0.000746,-0.000482
2.630000,0.043775,-0.559490,0.499249,0.041690,1.561173,0.000773,-1.245255,0.225207,-0.000800,2.661368,-0.595572,0.001295,6.226232,-1.964018,-0.056323,0.999999,0.000825,-0.000783,0.000520,-0.000828,0.000742,-0.000481
2.640000,0.044130,-0.543867,0.499257,0.029372,1.563395,0.000766,-1.218328,0.219150,-0.000790,2.722079,-0.612353,0.000827,5.181120,-0.136105,-0.003360,0.999999,0.000821,-0.000780,0.000517,-0.000822,0.000738,-0.000480
2.650000,0.044363,-0.528222,0.499265,0.017326,1.565556,0.000758,-1.190865,0.213049,-0.000781,2.771202,-0.608856,0.000941,5.373346,-0.408680,-0.007646,0.999999,0.000817,-0.000776,0.000515,-0.000817,0.000734,-0.000480
2.660000,0.044477,-0.512556,0.499272,0.005556,1.567656,0.000750,-1.162889,0.207023,-0.000771,2.824033,-0.594187,0.001087,5.467045,-0.176282,-0.004816,0.999999,0.000813,-0.000772,0.000513,-0.000813,0.000730,-0.000478
2.670000,0.044475,-0.496870,0.499280,-0.005930,1.569696,0.000742,-1.134359,0.200887,-0.000762,2.882997,-0.644691,0.000461,6.049169,-6.498596,-0.079738,0.999999,0.000809,-0.000769,0.000510,-0.000808,0.000726,-0.000475
2.680000,0.044359,-0.481163,0.499287,-0.017129,1.571672,0.000735,-1.105240,0.194298,-0.000760,2.939195,-0.652239,0.000346,5.173634,5.100917,0.058079,0.999999,0.000805,-0.000765,0.000508,-0.000804,0.000722,-0.000472
2.690000,0.044133,-0.465436,0.499294,-0.028033,1.573584,0.000727,-1.075589,0.188030,-0.000753,2.991757,-0.611770,0.000802,5.601715,-0.455714,-0.007727,0.999999,0.000801,-0.000761,0.000506,-0.000799,0.000718,-0.000469
2.700000,0.043800,-0.449691,0.499302,-0.038639,1.575433,0.000720,-1.045386,0.181800,-0.000747,3.048693,-0.631961,0.000541,5.501618,-0.137491,-0.003753,0.999999,0.000797,-0.000758,0.000503,-0.000795,0.000714,-0.000466
2.710000,0.043362,-0.433928,0.499309,-0.048940,1.577219,0.000712,-1.014788,0.175480,-0.000741,3.065886,-0.631703,0.000556,4.609355,-0.004502,-0.001322,0.999999,0.000793,-0.000754,0.000501,-0.000790,0.000710,-0.000464
2.720000,0.042822,-0.418147,0.499316,-0.058933,1.578942,0.000705,-0.983555,0.169154,-0.000736,3.202178,-0.633827,0.000440,16.156783,-0.230559,-0.013990,0.999999,0.000789,-0.000751,0.000499,-0.000785,0.000706,-0.000463
2.730000,0.042184,-0.402349,0.499323,-0.068606,1.580602,0.000697,-0.951078,0.162817,-0.000732,3.252746,-0.632342,0.000441,-6.250138,0.532695,0.014536,0.999999,0.000785,-0.000747,0.000496,-0.000781,0.000702,-0.000461
2.740000,0.041451,-0.386535,0.499330,-0.077955,1.582199,0.000690,-0.918868,0.156522,-0.000727,3.208320,-0.627025,0.000571,3.911759,0.337970,0.003379,0.999999,0.000781,-0.000744,0.000494,-0.000776,0.000698,-0.000459
2.750000,0.040626,-0.370705,0.499337,-0.086983,1.583733,0.000683,-0.886426,0.150265,-0.000721,3.275433,-0.624004,0.000575,2.989266,0.453788,0.005444,0.999999,0.000777,-0.000740,0.000492,-0.000772,0.000694,-0.000457
2.760000,0.039712,-0.354861,0.499343,-0.095682,1.585204,0.000676,-0.853425,0.144019,-0.000716,3.326850,-0.626031,0.000522,2.999430,0.398923,0.004443,0.999999,0.000773,-0.000737,0.000489,-0.000768,0.000690,-0.000453
2.770000,0.038714,-0.339002,0.499350,-0.104050,1.586613,0.000669,-0.820237,0.137845,-0.000709,3.296005,-0.604490,0.000852,-4.984764,2.681946,0.041597,0.999999,0.000770,-0.000733,0.000487,-0.000764,0.000687,-0.000449
2.780000,0.037633,-0.323129,0.499357,-0.112088,1.587962,0.000662,-0.787308,0.131869,-0.000699,3.314998,-0.598162,0.000934,8.923207,-1.458331,-0.026067,0.999999,0.000766,-0.000730,0.000485,-0.000760,0.000683,-0.000445
2.790000,0.036473,-0.307243,0.499363,-0.119794,1.589250,0.000655,-0.753717,0.125815,-0.000691,3.390201,-0.608965,0.000734,1.912209,0.529934,0.006259,0.999999,0.000762,-0.000727,0.000483,-0.000756,0.000680,-0.000441
2.800000,0.035238,-0.291344,0.499370,-0.127162,1.590478,0.000648,-0.719832,0.119784,-0.000683,3.389227,-0.598126,0.000888,2.104183,0.402875,0.004179,0.999999,0.000758,-0.000723,0.000481,-0.000753,0.000677,-0.000437
2.810000,0.033931,-0.275433,0.499376,-0.134190,1.591646,0.000641,-0.685708,0.113776,-0.000675,3.439168,-0.604892,0.000765,2.657936,0.128268,-0.000107,0.999999,0.000754,-0.000720,0.000478,-0.000748,0.000673,-0.000435
2.820000,0.032555,-0.259511,0.499383,-0.140875,1.592754,0.000634,-0.651455,0.107830,-0.000666,3.394347,-0.578236,0.001149,-6.540991,3.371342,0.049041,0.999999,0.000751,-0.000716,0.000476,-0.000744,0.000669,-0.000433
2.830000,0.031114,-0.243578,0.499389,-0.147221,1.593804,0.000628,-0.617565,0.102116,-0.000653,3.414992,-0.575903,0.001162,10.828078,-2.961164,-0.047244,0.999999,0.000747,-0.000713,0.000474,-0.000739,0.000665,-0.000432
2.840000,0.029612,-0.227635,0.499395,-0.153224,1.594796,0.000621,-0.582873,0.096208,-0.000644,3.508133,-0.600396,0.000767,2.669080,-0.086997,-0.003681,0.999999,0.000743,-0.000710,0.000472,-0.000735,0.000662,-0.000430
2.850000,0.028051,-0.211683,0.499401,-0.158877,1.595728,0.000615,-0.547790,0.090246,-0.000636,3.511759,-0.593270,0.000851,3.156570,-0.325758,-0.007368,0.999999,0.000740,-0.000706,0.000470,-0.000730,0.000658,-0.000429
2.860000,0.026435,-0.195721,0.499408,-0.164179,1.596601,0.000608,-0.512727,0.084386,-0.000626,3.494932,-0.576378,0.001086,2.276994,-0.007237,-0.002522,0.999999,0.000736,-0.000703,0.000468,-0.000726,0.000654,-0.000427
2.870000,0.024769,-0.179751,0.499414,-0.169130,1.597415,0.000602,-0.477206,0.078428,-0.000619,3.638148,-0.627518,0.000278,17.808888,-6.611315,-0.103712,0.999999,0.000732,-0.000700,0.000465,-0.000722,0.000651,-0.000425
2.880000,0.023054,-0.163773,0.499420,-0.173718,1.598168,0.000596,-0.440393,0.072015,-0.000618,3.671469,-0.632835,0.000173,-11.418204,5.663067,0.084350,0.999999,0.000729,-0.000697,0.000463,-0.000718,0.000647,-0.000422
2.890000,0.021296,-0.147788,0.499426,-0.177941,1.598857,0.000590,-0.404252,0.065969,-0.000612,3.582631,-0.587169,0.000848,2.278106,-0.169384,-0.004973,0.999999,0.000725,-0.000693,0.000461,-0.000714,0.000644,-0.000420
2.900000,0.019496,-0.131796,0.499431,-0.181803,1.599487,0.000584,-0.368091,0.059995,-0.000605,3.643731,-0.605313,0.000547,1.340441,0.168397,0.000249,0.999999,0.000722,-0.000690,0.000459,-0.000710,0.000640,-0.000417
2.910000,0.017661,-0.115798,0.499437,-0.185301,1.600057,0.000578,-0.331471,0.053894,-0.000601,3.682987,-0.616326,0.000371,1.523896,0.000628,-0.001885,0.999999,0.000718,-0.000687,0.000457,-0.000706,0.000637,-0.000415
2.920000,0.015792,-0.099795,0.499443,-0.188432,1.600565,0.000572,-0.294830,0.047856,-0.000595,3.628376,-0.583506,0.000819,-7.599622,4.258194,0.058802,0.999999,0.000715,-0.000684,0.000455,-0.000702,0.000633,-0.000413
2.930000,0.013893,-0.083787,0.499449,-0.191200,1.601015,0.000566,-0.258671,0.042111,-0.000586,3.632746,-0.579561,0.000859,8.628430,-3.542921,-0.051771,0.999999,0.000711,-0.000681,0.000453,-0.000698,0.000630,-0.000411
2.940000,0.011969,-0.067775,0.499454,-0.193603,1.601406,0.000560,-0.221917,0.036139,-0.000580,3.703033,-0.607797,0.000445,0.542349,0.219755,0.001866,0.999999,0.000708,-0.000678,0.000451,-0.000694,0.000626,-0.000408
2.950000,0.010022,-0.051759,0.499460,-0.195638,1.601738,0.000554,-0.184990,0.030133,-0.000574,3.685142,-0.594928,0.000616,0.753892,0.035708,-0.000508,0.999999,0.000704,-0.000674,0.000449,-0.000690,0.000623,-0.000406
2.960000,0.008057,-0.035740,0.499465,-0.197303,1.602009,0.000549,-0.148131,0.024200,-0.000568,3.685606,-0.591281,0.000648,0.523905,0.068641,-0.000073,0.999999,0.000701,-0.000671,0.000447,-0.000686,0.000619,-0.000404
2.970000,0.006078,-0.019719,0.499471,-0.198600,1.602222,0.000543,-0.111189,0.018257,-0.000562,3.706517,-0.599302,0.000552,2.507737,-1.065976,-0.012423,0.999999,0.000697,-0.000668,0.000445,-0.000682,0.000616,-0.000402
2.980000,0.004087,-0.003696,0.499476,-0.199526,1.602374,0.000537,-0.074062,0.012243,-0.000557,3.711605,-0.599858,0.000539,-1.526488,0.974056,0.009938,0.999999,0.000694,-0.000665,0.000443,-0.000678,0.000612,-0.000400
2.990000,0.002088,0.012328,0.499482,-0.200082,1.602467,0.000532,-0.037024,0.006293,-0.000551,3.699245,-0.592088,0.000617,0.215240,-0.032255,-0.001053,0.999999,0.000691,-0.000662,0.000441,-0.000674,0.000609,-0.000397
3.000000,0.000086,0.028353,0.499487,-0.200267,1.602500,0.000526,0.000007,0.000354,-0.000545,3.706045,-0.595299,0.000575,-0.012868,0.000878,-0.000607,0.999999,0.000687,-0.000659,0.000439,-0.000670,0.000606,-0.000395
3.010000,-0.001916,0.044378,0.499492,-0.200082,1.602474,0.000521,0.037066,-0.005600,-0.000539,3.705638,-0.595431,0.000571,-0.157446,-0.006651,-0.000591,0.999999,0.000684,-0.000656,0.000437,-0.000667,0.000602,-0.000393
3.020000,-0.003914,0.060402,0.499497,-0.199526,1.602388,0.000515,0.074108,-0.011553,-0.000534,3.702079,-0.595242,0.000561,-0.468005,0.024530,-0.001104,0.999999,0.000680,-0.000653,0.000435,-0.000663,0.000599,-0.000391
3.030000,-0.005905,0.076426,0.499502,-0.198600,1.602243,0.000510,0.111107,-0.017506,-0.000528,3.698091,-0.595358,0.000555,-0.326843,-0.048370,-0.000156,0.999999,0.000677,-0.000650,0.000433,-0.000659,0.000596,-0.000389
3.040000,-0.007885,0.092447,0.499507,-0.197304,1.602038,0.000505,0.148069,-0.023462,-0.000523,3.693797,-0.595805,0.000552,-0.618925,-0.020923,-0.000565,0.999999,0.000674,-0.000647,0.000431,-0.000655,0.000592,-0.000386
3.050000,-0.009850,0.108466,0.499512,-0.195638,1.601773,0.000500,0.184971,-0.029420,-0.000517,3.686453,-0.595948,0.000545,-0.763023,-0.027505,-0.000594,0.999999,0.000671,-0.000644,0.000429,-0.000651,0.000589,-0.000384
3.060000,-0.011796,0.124482,0.499517,-0.193604,1.601449,0.000495,0.221795,-0.035382,-0.000512,3.678008,-0.596298,0.000538,-0.913809,-0.033677,-0.000589,0.999999,0.000667,-0.000641,0.000427,-0.000648,0.000586,-0.000382
3.070000,-0.013721,0.140495,0.499522,-0.191203,1.601066,0.000489,0.258527,-0.041346,-0.000506,3.668290,-0.596540,0.000533,-1.041602,-0.023277,-0.000520,0.999999,0.000664,-0.000638,0.000425,-0.000644,0.000583,-0.000380
3.080000,-0.015619,0.156503,0.499527,-0.188434,1.600622,0.000484,0.295155,-0.047313,-0.000501,3.656928,-0.596943,0.000527,-1.231023,-0.057584,-0.000615,0.999999,0.000661,-0.000635,0.000423,-0.000640,0.000579,-0.000378
3.090000,-0.017488,0.172507,0.499532,-0.185300,1.600119,0.000479,0.331660,-0.053285,-0.000496,3.643910,-0.597518,0.000522,-1.360738,-0.048835,-0.000523,0.999999,0.000658,-0.000633,0.000421,-0.000636,0.000576,-0.000376
3.100000,-0.019324,0.188506,0.499537,-0.181801,1.599557,0.000475,0.368029,-0.059263,-0.000491,3.629613,-0.597993,0.000516,-1.510371,-0.054679,-0.000550,0.999999,0.000655,-0.000630,0.000420,-0.000633,0.000573,-0.000374
3.110000,-0.021123,0.204498,0.499542,-0.177940,1.598934,0.000470,0.404247,-0.065246,-0.000485,3.613765,-0.598579,0.000510,-1.658903,-0.060164,-0.000542,1.000000,0.000651,-0.000627,0.000418,-0.000629,0.000570,-0.000372
3.120000,-0.022882,0.220484,0.499546,-0.173717,1.598252,0.000465,0.440300,-0.071234,-0.000480,3.596440,-0.599175,0.000505,-1.806355,-0.061268,-0.000496,1.000000,0.000648,-0.000624,0.000416,-0.000625,0.000567,-0.000370
3.130000,-0.024596,0.236463,0.499551,-0.169135,1.597510,0.000460,0.476171,-0.077229,-0.000475,3.577632,-0.599851,0.000500,-1.955105,-0.074010,-0.000552,1.000000,0.000645,-0.000621,0.000414,-0.000622,0.000563,-0.000367
3.140000,-0.026263,0.252434,0.499555,-0.164194,1.596707,0.000455,0.511847,-0.083232,-0.000470,3.557346,-0.600609,0.000495,-2.101635,-0.075424,-0.000508,1.000000,0.000642,-0.000618,0.000412,-0.000618,0.000560,-0.000365
3.150000,-0.027879,0.268397,0.499560,-0.158898,1.595845,0.000451,0.547313,-0.089242,-0.000465,3.535599,-0.601378,0.000490,-2.248180,-0.080569,-0.000487,1.000000,0.000639,-0.000616,0.000410,-0.000615,0.000557,-0.000363
3.160000,-0.029440,0.284351,0.499564,-0.153249,1.594922,0.000446,0.582555,-0.095260,-0.000461,3.512404,-0.602220,0.000485,-2.393746,-0.085755,-0.000491,1.000000,0.000636,-0.000613,0.000409,-0.000611,0.000554,-0.000361
3.170000,-0.030943,0.300295,0.499569,-0.147248,1.593940,0.000441,0.617556,-0.101286,-0.000456,3.487697,-0.603076,0.000480,-2.544566,-0.087293,-0.000464,1.000000,0.000633,-0.000610,0.000407,-0.000607,0.000551,-0.000359
3.180000,-0.032384,0.316229,0.499573,-0.140899,1.592897,0.000437,0.652304,-0.107321,-0.000451,3.461579,-0.604004,0.000475,-2.678722,-0.098189,-0.000479,1.000000,0.000630,-0.000607,0.000405,-0.000604,0.000548,-0.000357
3.190000,-0.033760,0.332153,0.499578,-0.134203,1.591793,0.000432,0.686783,-0.113366,-0.000446,3.434063,-0.605003,0.000471,-2.827538,-0.099854,-0.000432,1.000000,0.000627,-0.000605,0.000403,-0.000600,0.000545,-0.000355
3.200000,-0.035067,0.348065,0.499582,-0.127164,1.590629,0.000428,0.720980,-0.119421,-0.000442,3.405057,-0.606015,0.000466,-2.970398,-0.104433,-0.000455,1.000000,0.000624,-0.000602,0.000401,-0.000597,0.000542,-0.000353
3.210000,-0.036302,0.363965,0.499586,-0.119784,1.589405,0.000424,0.754880,-0.125487,-0.000437,3.374694,-0.607110,0.000461,-3.111642,-0.109291,-0.000447,1.000000,0.000621,-0.000599,0.000400,-0.000593,0.000539,-0.000351
3.220000,-0.037461,0.379853,0.499590,-0.112067,1.588119,0.000419,0.788468,-0.131563,-0.000432,3.342738,-0.608154,0.000457,-3.270159,-0.104415,-0.000433,1.000000,0.000618,-0.000596,0.000398,-0.000590,0.000535,-0.000349
3.230000,-0.038542,0.395727,0.499595,-0.104016,1.586773,0.000415,0.821730,-0.137650,-0.000428,3.309490,-0.609301,0.000453,-3.379072,-0.125107,-0.000420,1.000000,0.000615,-0.000594,0.000396,-0.000586,0.000532,-0.000347
3.240000,-0.039540,0.411588,0.499599,-0.095634,1.585366,0.000411,0.854654,-0.143750,-0.000423,3.274970,-0.610555,0.000449,-3.534241,-0.120689,-0.000368,1.000000,0.000612,-0.000591,0.000394,-0.000583,0.000529,-0.000345
3.250000,-0.040454,0.427435,0.499603,-0.086924,1.583898,0.000406,0.887225,-0.149861,-0.000419,3.238887,-0.611756,0.000444,-3.672743,-0.124412,-0.000419,1.000000,0.000609,-0.000588,0.000393,-0.000579,0.000526,-0.000343
3.260000,-0.041278,0.443266,0.499607,-0.077890,1.582369,0.000402,0.919428,-0.155986,-0.000414,3.201640,-0.613108,0.000440,-3.807785,-0.129223,-0.000413,1.000000,0.000606,-0.000586,0.000391,-0.000576,0.000523,-0.000341
3.270000,-0.042010,0.459082,0.499611,-0.068537,1.580779,0.000398,0.951250,-0.162122,-0.000410,3.162447,-0.614186,0.000436,-4.000581,-0.102424,-0.000413,1.000000,0.000603,-0.000583,0.000389,-0.000573,0.000520,-0.000339
3.280000,-0.042648,0.474881,0.499615,-0.058867,1.579127,0.000394,0.982674,-0.168270,-0.000406,3.122264,-0.615493,0.000432,-4.035015,-0.159389,-0.000396,1.000000,0.000601,-0.000581,0.000388,-0.000569,0.000518,-0.000337
3.290000,-0.043187,0.490664,0.499619,-0.048885,1.577413,0.000390,1.013693,-0.174433,-0.000401,3.081136,-0.617045,0.000428,-4.221147,-0.134517,-0.000384,1.000000,0.000598,-0.000578,0.000386,-0.000566,0.000515,-0.000336
3.300000,-0.043624,0.506429,0.499623,-0.038594,1.575638,0.000386,1.044290,-0.180610,-0.000397,3.038100,-0.618319,0.000424,-4.355643,-0.136385,-0.000397,1.000000,0.000595,-0.000575,0.000384,-0.000562,0.000512,-0.000334
3.310000,-0.043957,0.522177,0.499626,-0.028000,1.573801,0.000382,1.074424,-0.186785,-0.000393,2.987826,-0.616336,0.000480,-4.611646,-0.069989,0.000794,1.000000,0.000592,-0.000573,0.000383,-0.000559,0.000509,-0.000332
3.320000,-0.044183,0.537905,0.499630,-0.017107,1.571902,0.000378,1.104126,-0.192983,-0.000388,2.955883,-0.625272,0.000340,-2.830475,-1.132595,-0.018321,1.000000,0.000589,-0.000570,0.000381,-0.000556,0.000506,-0.000330
3.330000,-0.044299,0.553614,0.499634,-0.005919,1.569941,0.000374,1.133485,-0.199261,-0.000385,2.909100,-0.626718,0.000334,-6.557188,0.860671,0.017434,1.000000,0.000586,-0.000568,0.000379,-0.000552,0.000503,-0.000328
3.340000,-0.044301,0.569304,0.499638,0.005560,1.567917,0.000371,1.162246,-0.205486,-0.000381,2.846128,-0.619919,0.000475,-4.969251,-0.092891,0.000193,1.000000,0.000584,-0.000565,0.000378,-0.000549,0.000500,-0.000326
3.350000,-0.044186,0.584973,0.499641,0.017324,1.565831,0.000367,1.190485,-0.211705,-0.000377,2.800741,-0.623594,0.000428,-5.165891,-0.055543,0.000801,1.000000,0.000581,-0.000563,0.000376,-0.000546,0.000497,-0.000324
3.360000,-0.043953,0.600620,0.499645,0.029369,1.563683,0.000363,1.218335,-0.218002,-0.000374,2.772130,-0.637431,0.000136,-4.801403,-0.331282,-0.005480,1.000000,0.000578,-0.000560,0.000374,-0.000543,0.000494,-0.000322
3.370000,-0.043598,0.616246,0.499649,0.041689,1.561471,0.000359,1.245594,-0.224269,-0.000370,2.665672,-0.608325,0.000812,-12.366948,3.840773,0.088452,1.000000,0.000576,-0.000558,0.000373,-0.000540,0.000492,-0.000320
3.380000,-0.043119,0.631849,0.499652,0.054277,1.559198,0.000356,1.271853,-0.230285,-0.000360,2.611342,-0.609142,0.000813,1.628362,-4.075494,-0.089789,1.000000,0.000573,-0.000555,0.000371,-0.000537,0.000489,-0.000318
3.390000,-0.042512,0.647430,0.499656,0.067126,1.556864,0.000352,1.298046,-0.236581,-0.000356,2.614788,-0.643037,0.000070,-5.105048,-0.367379,-0.006135,1.000000,0.000570,-0.000553,0.000370,-0.000533,0.000486,-0.000316
3.400000,-0.041775,0.662987,0.499659,0.080236,1.554467,0.000348,1.323830,-0.242969,-0.000355,2.544464,-0.636236,0.000246,-4.818606,-0.594064,-0.010909,1.000000,0.000568,-0.000551,0.000368,-0.000530,0.000483,-0.000315
3.410000,-0.040906,0.678519,0.499663,0.093601,1.552005,0.000345,1.348867,-0.249268,-0.000350,2.458148,-0.620829,0.000663,-5.604151,-0.212229,-0.001314,1.000000,0.000565,-0.000548,0.000366,-0.000526,0.000480,-0.000315
3.420000,-0.039902,0.694026,0.499666,0.107212,1.549481,0.000341,1.373522,-0.255689,-0.000349,2.495246,-0.676203,-0.000665,6.372935,-7.082686,-0.170758,1.000000,0.000562,-0.000546,0.000365,-0.000522,0.000476,-0.000314
3.430000,-0.038761,0.709508,0.499670,0.121072,1.546890,0.000338,1.398435,-0.262603,-0.000359,2.445992,-0.683134,-0.000791,-16.434809,5.816429,0.148451,1.000000,0.000560,-0.000543,0.000363,-0.000518,0.000473,-0.000314
3.440000,-0.037480,0.724964,0.499673,0.135176,1.544230,0.000334,1.422071,-0.269142,-0.000359,2.300952,-0.636254,0.000416,-5.864243,-0.252913,-0.001193,1.000000,0.000557,-0.000541,0.000362,-0.000515,0.000470,-0.000313
3.450000,-0.036057,0.740393,0.499676,0.149511,1.541507,0.000331,1.444957,-0.275616,-0.000358,2.271778,-0.655836,-0.000015,-6.654214,0.134924,0.008721,1.000000,0.000555,-0.000539,0.000360,-0.000512,0.000467,-0.000311
3.460000,-0.034489,0.755794,0.499680,0.164074,1.538718,0.000327,1.467431,-0.282220,-0.000359,2.225010,-0.666361,-0.000213,-6.556005,0.012100,0.006137,1.000000,0.000552,-0.000536,0.000359,-0.000509,0.000465,-0.000308
3.470000,-0.032775,0.771167,0.499683,0.178858,1.535863,0.000324,1.489148,-0.288764,-0.000358,2.105254,-0.634917,0.000606,-13.639759,4.084408,0.104815,1.000000,0.000549,-0.000534,0.000357,-0.000507,0.000463,-0.000304
3.480000,-0.030911,0.786511,0.499686,0.193853,1.532944,0.000320,1.509715,-0.295025,-0.000349,2.031058,-0.630704,0.000771,-1.075104,-3.314180,-0.073613,1.000000,0.000547,-0.000532,0.000356,-0.000506,0.000461,-0.000300
3.490000,-0.028897,0.801826,0.499689,0.209051,1.529961,0.000317,1.529969,-0.301497,-0.000345,2.008061,-0.656998,0.000202,-7.301724,0.261445,0.012927,1.000000,0.000544,-0.000530,0.000354,-0.000504,0.000459,-0.000296
3.500000,-0.026730,0.817110,0.499692,0.224450,1.526914,0.000313,1.549585,-0.307997,-0.000341,1.917292,-0.644307,0.000574,-7.073529,0.070541,0.008342,1.000000,0.000542,-0.000527,0.000353,-0.000501,0.000457,-0.000293
3.510000,-0.024407,0.832364,0.499695,0.240040,1.523801,0.000310,1.568483,-0.314481,-0.000336,1.864699,-0.654013,0.000362,-6.693934,-0.197209,0.000947,1.000000,0.000539,-0.000525,0.000351,-0.000498,0.000454,-0.000291
3.520000,-0.021928,0.847586,0.499699,0.255817,1.520624,0.000306,1.586627,-0.320938,-0.000330,1.753543,-0.631566,0.001068,-12.379149,2.923386,0.090008,1.000000,0.000537,-0.000523,0.000350,-0.000495,0.000451,-0.000290
3.530000,-0.019290,0.862776,0.499702,0.271769,1.517383,0.000303,1.603714,-0.327204,-0.000317,1.683398,-0.632548,0.001108,-1.552230,-3.173795,-0.083606,1.000000,0.000534,-0.000520,0.000348,-0.000491,0.000448,-0.000290
3.540000,-0.016492,0.877933,0.499705,0.287890,1.514079,0.000300,1.620471,-0.333689,-0.000311,1.658586,-0.659347,0.000412,-6.601342,-0.403830,-0.004738,1.000000,0.000532,-0.000518,0.000347,-0.000488,0.000445,-0.000289
3.550000,-0.013532,0.893057,0.499708,0.304177,1.510709,0.000297,1.636645,-0.340258,-0.000305,1.578315,-0.655658,0.000585,-6.283708,-0.627653,-0.011235,1.000000,0.000530,-0.000516,0.000345,-0.000484,0.000442,-0.000289
3.560000,-0.010408,0.908147,0.499711,0.320621,1.507274,0.000294,1.651947,-0.346750,-0.000298,1.477330,-0.640153,0.000998,-6.986482,-0.264946,-0.003053,1.000000,0.000527,-0.000514,0.000344,-0.000481,0.000439,-0.000288
3.570000,-0.007119,0.923203,0.499713,0.337214,1.503774,0.000291,1.666731,-0.353373,-0.000293,1.502241,-0.697656,-0.000366,5.233498,-7.351775,-0.175484,1.000000,0.000525,-0.000512,0.000343,-0.000478,0.000436,-0.000286
3.580000,-0.003663,0.938222,0.499716,0.353956,1.500205,0.000288,1.681654,-0.360510,-0.000300,1.440613,-0.705657,-0.000535,-17.773112,5.875163,0.144728,1.000000,0.000522,-0.000509,0.000341,-0.000475,0.000433,-0.000284
3.590000,-0.000039,0.953206,0.499719,0.370842,1.496565,0.000285,1.695170,-0.367272,-0.000299,1.282866,-0.658616,0.000626,-6.983269,-0.383551,-0.007494,1.000000,0.000520,-0.000507,0.000340,-0.000472,0.000431,-0.000282
3.600000,0.003754,0.968154,0.499722,0.387857,1.492859,0.000282,1.707823,-0.373979,-0.000295,1.243284,-0.680074,0.000122,-7.702218,-0.004605,0.001367,1.000000,0.000518,-0.000505,0.000338,-0.000469,0.000429,-0.000280
3.610000,0.007718,0.983063,0.499725,0.404996,1.489085,0.000279,1.719982,-0.380845,-0.000295,1.191392,-0.694887,-0.000160,-7.434270,-0.195204,-0.002219,1.000000,0.000515,-0.000503,0.000337,-0.000466,0.000426,-0.000279
3.620000,0.011854,0.997935,0.499728,0.422254,1.485242,0.000276,1.731274,-0.387658,-0.000294,1.050877,-0.658588,0.000590,-16.042121,4.769171,0.098074,1.000000,0.000513,-0.000501,0.000336,-0.000464,0.000424,-0.000277
3.630000,0.016164,1.012768,0.499730,0.439617,1.481333,0.000273,1.741225,-0.394148,-0.000286,0.967682,-0.655893,0.000665,-0.448239,-4.316220,-0.084639,1.000000,0.000511,-0.000499,0.000334,-0.000461,0.000421,-0.000275
3.640000,0.020647,1.027561,0.499733,0.457078,1.477358,0.000270,1.750877,-0.400922,-0.000284,0.948479,-0.690659,-0.000010,-8.055868,0.070873,0.004036,1.000000,0.000508,-0.000497,0.000333,-0.000458,0.000418,-0.000274
3.650000,0.025305,1.042315,0.499736,0.474632,1.473315,0.000268,1.759836,-0.407755,-0.000282,0.846231,-0.677500,0.000282,-7.740971,-0.140083,0.000067,1.000000,0.000506,-0.000495,0.000331,-0.000455,0.000416,-0.000272
3.660000,0.030140,1.057028,0.499738,0.492271,1.469203,0.000265,1.767880,-0.414519,-0.000279,0.761545,-0.674985,0.000344,-7.867340,-0.096822,0.000825,1.000000,0.000504,-0.000492,0.000330,-0.000452,0.000413,-0.000271
3.670000,0.035151,1.071699,0.499741,0.509987,1.465024,0.000262,1.775171,-0.421313,-0.000276,0.701107,-0.686246,0.000194,-5.509835,-1.436109,-0.019710,1.000000,0.000502,-0.000490,0.000329,-0.000449,0.000411,-0.000269
3.680000,0.040340,1.086328,0.499744,0.527773,1.460777,0.000259,1.781838,-0.428209,-0.000275,0.624271,-0.688607,0.000182,-9.897971,0.986928,0.017532,1.000000,0.000499,-0.000488,0.000327,-0.000446,0.000408,-0.000267
3.690000,0.045707,1.100914,0.499746,0.545621,1.456460,0.000257,1.787586,-0.435046,-0.000272,0.529227,-0.681038,0.000322,-7.809165,-0.198400,-0.000685,1.000000,0.000497,-0.000486,0.000326,-0.000444,0.000406,-0.000266
3.700000,0.051252,1.115457,0.499749,0.563522,1.452076,0.000254,1.792521,-0.441886,-0.000269,0.457030,-0.686403,0.000262,-7.927956,-0.150719,-0.000015,1.000000,0.000495,-0.000484,0.000325,-0.000441,0.000403,-0.000264
3.710000,0.056977,1.129955,0.499751,0.581469,1.447623,0.000251,1.796692,-0.448755,-0.000266,0.377133,-0.687422,0.000264,-7.972131,-0.137684,0.000007,1.000000,0.000493,-0.000482,0.000323,-0.000438,0.000401,-0.000263
3.720000,0.062882,1.144409,0.499754,0.599453,1.443101,0.000248,1.800069,-0.455641,-0.000264,0.298320,-0.689931,0.000259,-7.866891,-0.281550,-0.000644,1.000000,0.000491,-0.000480,0.000322,-0.000435,0.000399,-0.000261
3.730000,0.068966,1.158817,0.499756,0.617467,1.438510,0.000246,1.802654,-0.462550,-0.000261,0.218190,-0.691321,0.000259,-8.161285,0.006340,0.000561,1.000000,0.000488,-0.000478,0.000321,-0.000433,0.000396,-0.000259
3.740000,0.075231,1.173179,0.499759,0.635503,1.433850,0.000243,1.804427,-0.469462,-0.000259,0.136657,-0.691466,0.000263,-8.067264,-0.118284,0.000051,1.000000,0.000486,-0.000476,0.000319,-0.000430,0.000394,-0.000258
3.750000,0.081677,1.187494,0.499761,0.653553,1.429120,0.000241,1.805392,-0.476385,-0.000256,0.056197,-0.692980,0.000261,-8.101443,-0.101542,-0.000026,1.000000,0.000484,-0.000474,0.000318,-0.000427,0.000391,-0.000256
3.760000,0.088302,1.201761,0.499764,0.671608,1.424322,0.000238,1.805551,-0.483322,-0.000253,-0.024278,-0.694408,0.000259,-8.113511,-0.099333,-0.000062,1.000000,0.000482,-0.000472,0.000317,-0.000425,0.000389,-0.000255
3.770000,0.095109,1.215980,0.499766,0.689661,1.419454,0.000236,1.804896,-0.490266,-0.000251,-0.107172,-0.694185,0.000262,-8.347420,0.061589,0.000403,1.000000,0.000480,-0.000470,0.000316,-0.000422,0.000386,-0.000253
3.780000,0.102096,1.230150,0.499768,0.707704,1.414517,0.000233,1.803413,-0.497209,-0.000248,-0.188752,-0.694905,0.000261,-7.964307,-0.208190,-0.000506,1.000000,0.000478,-0.000469,0.000314,-0.000419,0.000384,-0.000252
3.790000,0.109263,1.244270,0.499771,0.725727,1.409510,0.000231,1.801127,-0.504168,-0.000245,-0.268815,-0.696683,0.000257,-8.166004,-0.064190,-0.000115,1.000000,0.000476,-0.000467,0.000313,-0.000416,0.000382,-0.000250
3.800000,0.116610,1.258340,0.499773,0.743723,1.404433,0.000228,1.798028,-0.511136,-0.000243,-0.351054,-0.696894,0.000257,-8.163145,-0.060872,-0.000129,1.000000,0.000474,-0.000465,0.000312,-0.000414,0.000379,-0.000249
3.810000,0.124137,1.272359,0.499775,0.761685,1.399287,0.000226,1.794109,-0.518108,-0.000240,-0.432757,-0.697416,0.000256,-8.165259,-0.051197,-0.000147,1.000000,0.000471,-0.000463,0.000311,-0.000411,0.000377,-0.000247
3.820000,0.131844,1.286325,0.499777,0.779603,1.394071,0.000223,1.789373,-0.525085,-0.000238,-0.514240,-0.697987,0.000254,-8.142054,-0.055509,-0.000254,1.000000,0.000469,-0.000461,0.000309,-0.000409,0.000375,-0.000245
3.830000,0.139729,1.300240,0.499780,0.797470,1.388785,0.000221,1.783823,-0.532067,-0.000235,-0.595819,-0.698369,0.000252,-8.173384,-0.020652,-0.000122,1.000000,0.000467,-0.000459,0.000308,-0.000406,0.000372,-0.000244
3.840000,0.147793,1.314101,0.499782,0.815277,1.383430,0.000219,1.777457,-0.539051,-0.000233,-0.677469,-0.698549,0.000251,-8.144773,-0.022799,-0.000263,1.000000,0.000465,-0.000457,0.000307,-0.000403,0.000370,-0.000242
3.850000,0.156034,1.327908,0.499784,0.833016,1.378004,0.000216,1.770275,-0.546038,-0.000230,-0.758798,-0.698759,0.000248,-8.131380,-0.011719,-0.000225,1.000000,0.000463,-0.000455,0.000306,-0.000401,0.000368,-0.000241
3.860000,0.164453,1.341661,0.499786,0.850679,1.372509,0.000214,1.762281,-0.553026,-0.000228,-0.840036,-0.698812,0.000246,-8.113552,-0.000623,-0.000235,1.000000,0.000461,-0.000454,0.000305,-0.000398,0.000365,-0.000239
3.870000,0.173048,1.355358,0.499788,0.868259,1.366944,0.000212,1.753475,-0.560014,-0.000225,-0.921035,-0.698786,0.000243,-8.087701,0.007513,-0.000335,1.000000,0.000459,-0.000452,0.000303,-0.000396,0.000363,-0.000238
3.880000,0.181818,1.368999,0.499790,0.885746,1.361309,0.000210,1.743861,-0.567001,-0.000223,-1.001821,-0.698624,0.000241,-8.068778,0.025129,-0.000185,1.000000,0.000457,-0.000450,0.000302,-0.000393,0.000361,-0.000236
3.890000,0.190762,1.382584,0.499793,0.903133,1.355604,0.000207,1.733440,-0.573986,-0.000221,-1.082355,-0.698317,0.000239,-8.035272,0.034484,-0.000266,1.000000,0.000455,-0.000448,0.000301,-0.000390,0.000358,-0.000235
3.900000,0.199880,1.396111,0.499795,0.920412,1.349829,0.000205,1.722215,-0.580967,-0.000218,-1.162531,-0.697917,0.000236,-8.001267,0.047377,-0.000248,1.000000,0.000453,-0.000446,0.000300,-0.000388,0.000356,-0.000233
3.910000,0.209170,1.409580,0.499797,0.937575,1.343984,0.000203,1.710190,-0.587944,-0.000216,-1.242362,-0.697386,0.000233,-7.963038,0.059896,-0.000279,1.000000,0.000452,-0.000445,0.000299,-0.000385,0.000354,-0.000232
3.920000,0.218631,1.422991,0.499799,0.954614,1.338070,0.000201,1.697369,-0.594915,-0.000213,-1.321765,-0.696721,0.000230,-7.918155,0.073211,-0.000375,1.000000,0.000450,-0.000443,0.000298,-0.000383,0.000352,-0.000231
3.930000,0.228262,1.436342,0.499801,0.971520,1.332086,0.000199,1.683756,-0.601878,-0.000211,-1.400738,-0.695921,0.000227,-7.875770,0.086968,-0.000213,1.000000,0.000448,-0.000441,0.000296,-0.000380,0.000349,-0.000229
3.940000,0.238061,1.449632,0.499803,0.988286,1.326033,0.000197,1.669356,-0.608833,-0.000209,-1.479240,-0.694980,0.000224,-7.822603,0.101216,-0.000314,1.000000,0.000446,-0.000439,0.000295,-0.000378,0.000347,-0.000228
3.950000,0.248027,1.462862,0.499805,1.004904,1.319910,0.000195,1.654173,-0.615777,-0.000207,-1.557187,-0.693899,0.000221,-7.767275,0.115572,-0.000289,1.000000,0.000444,-0.000438,0.000294,-0.000375,0.000345,-0.000226
3.960000,0.258159,1.476030,0.499807,1.021367,1.313717,0.000193,1.638214,-0.622710,-0.000205,-1.634515,-0.692692,0.000218,-7.706503,0.130070,-0.000294,1.000000,0.000442,-0.000436,0.000293,-0.000373,0.000343,-0.000225
3.970000,0.268454,1.489136,0.499808,1.037666,1.307455,0.000190,1.621485,-0.629630,-0.000202,-1.711383,-0.691258,0.000216,-7.657685,0.152744,-0.000236,1.000000,0.000440,-0.000434,0.000292,-0.000370,0.000340,-0.000223
3.980000,0.278911,1.502179,0.499810,1.053794,1.301125,0.000188,1.603989,-0.636535,-0.000200,-1.787476,-0.689720,0.000213,-7.560003,0.154870,-0.000340,1.000000,0.000438,-0.000432,0.000291,-0.000368,0.000338,-0.000222
3.990000,0.289529,1.515158,0.499812,1.069743,1.294725,0.000186,1.585738,-0.643424,-0.000198,-1.862740,-0.688078,0.000209,-7.500567,0.177649,-0.000289,1.000000,0.000437,-0.000431,0.000290,-0.000366,0.000336,-0.000220
4.000000,0.300306,1.528073,0.499814,1.085506,1.288256,0.000185,1.566736,-0.650296,-0.000196,-1.937400,-0.686199,0.000207,-7.422211,0.194119,-0.000300,1.000000,0.000435,-0.000429,0.000289,-0.000363,0.000334,-0.000219
4.010000,0.311239,1.540923,0.499816,1.101076,1.281719,0.000183,1.546993,-0.657147,-0.000194,-2.011129,-0.684114,0.000203,-7.338241,0.212509,-0.000311,1.000000,0.000433,-0.000427,0.000287,-0.000361,0.000332,-0.000218
4.020000,0.322326,1.553707,0.499818,1.116444,1.275113,0.000181,1.526515,-0.663978,-0.000192,-2.084294,-0.682043,0.000201,-7.278927,0.211957,-0.000182,1.000000,0.000431,-0.000426,0.000286,-0.000358,0.000329,-0.000216
4.030000,0.333567,1.566425,0.499819,1.131603,1.268439,0.000179,1.505311,-0.670787,-0.000190,-2.156377,-0.679661,0.000198,-7.136581,0.264717,-0.000434,1.000000,0.000429,-0.000424,0.000285,-0.000356,0.000327,-0.000215
4.040000,0.344958,1.579076,0.499821,1.146548,1.261698,0.000177,1.483392,-0.677570,-0.000188,-2.227316,-0.676951,0.000194,-7.065671,0.267165,-0.000322,1.000000,0.000428,-0.000423,0.000284,-0.000353,0.000325,-0.000213
4.050000,0.356497,1.591659,0.499823,1.161269,1.254888,0.000175,1.460767,-0.684326,-0.000186,-2.297548,-0.674228,0.000191,-6.964886,0.287499,-0.000327,1.000000,0.000426,-0.000421,0.000283,-0.000351,0.000323,-0.000212
4.060000,0.368182,1.604174,0.499825,1.175761,1.248011,0.000173,1.437445,-0.691054,-0.000184,-2.366710,-0.671206,0.000188,-6.861600,0.308441,-0.000332,1.000000,0.000424,-0.000419,0.000282,-0.000349,0.000321,-0.000211
4.070000,0.380012,1.616619,0.499826,1.190016,1.241067,0.000171,1.413436,-0.697750,-0.000182,-2.434718,-0.668137,0.000185,-6.744479,0.313668,-0.000302,1.000000,0.000422,-0.000418,0.000281,-0.000346,0.000319,-0.000209
4.080000,0.391982,1.628995,0.499828,1.204027,1.234056,0.000169,1.388754,-0.704415,-0.000180,-2.501694,-0.664757,0.000181,-6.650205,0.362657,-0.000351,1.000000,0.000421,-0.000416,0.000280,-0.000344,0.000317,-0.000208
4.090000,0.404091,1.641300,0.499830,1.217788,1.226979,0.000168,1.363406,-0.711044,-0.000179,-2.567606,-0.661052,0.000178,-6.526336,0.369890,-0.000288,1.000000,0.000419,-0.000415,0.000279,-0.000342,0.000315,-0.000206
4.100000,0.416337,1.653534,0.499832,1.231293,1.219836,0.000166,1.337406,-0.717636,-0.000177,-2.632252,-0.657288,0.000176,-6.407350,0.391211,-0.000181,1.000000,0.000417,-0.000413,0.000278,-0.000339,0.000312,-0.000205
4.110000,0.428716,1.665696,0.499833,1.244534,1.212626,0.000164,1.310765,-0.724190,-0.000175,-2.695679,-0.653394,0.000172,-6.283732,0.410453,-0.000293,1.000000,0.000415,-0.000411,0.000277,-0.000337,0.000310,-0.000204
4.120000,0.441227,1.677786,0.499835,1.257506,1.205352,0.000162,1.283496,-0.730702,-0.000173,-2.757975,-0.648846,0.000167,-6.168599,0.475186,-0.000670,1.000000,0.000414,-0.000410,0.000276,-0.000335,0.000308,-0.000202
4.130000,0.453865,1.689803,0.499836,1.270202,1.198012,0.000161,1.255610,-0.737167,-0.000172,-2.818905,-0.644392,0.000164,-6.016512,0.414924,0.000083,1.000000,0.000412,-0.000408,0.000275,-0.000332,0.000306,-0.000201
4.140000,0.466630,1.701746,0.499838,1.282616,1.190609,0.000159,1.227123,-0.743590,-0.000170,-2.878423,-0.640063,0.000164,-5.892950,0.475063,-0.000214,1.000000,0.000410,-0.000407,0.000274,-0.000330,0.000304,-0.000200
4.150000,0.479517,1.713615,0.499840,1.294743,1.183141,0.000157,1.198046,-0.749966,-0.000169,-2.936697,-0.635097,0.000160,-5.755002,0.494324,-0.000220,1.000000,0.000409,-0.000405,0.000273,-0.000328,0.000302,-0.000198
4.160000,0.492524,1.725409,0.499841,1.306575,1.175609,0.000156,1.168394,-0.756292,-0.000167,-2.993509,-0.630001,0.000158,-5.613399,0.516449,-0.000206,1.000000,0.000407,-0.000404,0.000272,-0.000325,0.000300,-0.000197
4.170000,0.505647,1.737127,0.499843,1.318109,1.168015,0.000154,1.138180,-0.762566,-0.000165,-3.049016,-0.624845,0.000157,-5.481134,0.523106,-0.000057,1.000000,0.000406,-0.000402,0.000271,-0.000323,0.000298,-0.000196
4.180000,0.518885,1.748769,0.499844,1.329337,1.160358,0.000152,1.107418,-0.768787,-0.000164,-3.102984,-0.619366,0.000155,-5.311655,0.572952,-0.000279,1.000000,0.000404,-0.000401,0.000270,-0.000321,0.000296,-0.000194
4.190000,0.532233,1.760334,0.499846,1.340255,1.152640,0.000151,1.076125,-0.774952,-0.000162,-3.155372,-0.613551,0.000153,-5.171969,0.581846,-0.000167,1.000000,0.000402,-0.000399,0.000269,-0.000319,0.000294,-0.000193
4.200000,0.545689,1.771822,0.499847,1.350858,1.144860,0.000149,1.044315,-0.781058,-0.000161,-3.206358,-0.607654,0.000152,-5.018222,0.605476,-0.000140,1.000000,0.000401,-0.000398,0.000268,-0.000316,0.000292,-0.000192
4.210000,0.559249,1.783231,0.499849,1.361140,1.137019,0.000147,1.012003,-0.787104,-0.000159,-3.255808,-0.601403,0.000149,-4.863085,0.630357,-0.000151,1.000000,0.000399,-0.000396,0.000267,-0.000314,0.000290,-0.000190
4.220000,0.572911,1.794562,0.499850,1.371096,1.129118,0.000146,0.979205,-0.793087,-0.000158,-3.303534,-0.595179,0.000150,-4.689706,0.628441,0.000176,1.000000,0.000398,-0.000395,0.000266,-0.000312,0.000288,-0.000189
4.230000,0.586670,1.805813,0.499852,1.380723,1.121157,0.000144,0.945938,-0.799006,-0.000156,-3.349763,-0.588538,0.000149,-4.556057,0.700302,-0.000411,1.000000,0.000396,-0.000394,0.000265,-0.000310,0.000286,-0.000188
4.240000,0.600524,1.816985,0.499853,1.390014,1.113138,0.000143,0.912215,-0.804856,-0.000155,-3.394483,-0.581457,0.000146,-4.379256,0.701555,-0.000102,1.000000,0.000395,-0.000392,0.000264,-0.000308,0.000284,-0.000186
4.250000,0.614469,1.828076,0.499855,1.398965,1.105060,0.000141,0.878054,-0.810635,-0.000153,-3.437411,-0.574380,0.000145,-4.213954,0.727439,-0.000147,1.000000,0.000393,-0.000391,0.000263,-0.000305,0.000282,-0.000185
4.260000,0.628502,1.839086,0.499856,1.407573,1.096925,0.000140,0.843472,-0.816343,-0.000152,-3.478696,-0.567048,0.000144,-4.045447,0.750927,-0.000137,1.000000,0.000391,-0.000389,0.000262,-0.000303,0.000280,-0.000184
4.270000,0.642619,1.850014,0.499857,1.415833,1.088734,0.000138,0.808486,-0.821974,-0.000151,-3.518337,-0.559253,0.000141,-3.879667,0.796484,-0.000342,1.000000,0.000390,-0.000388,0.000261,-0.000301,0.000278,-0.000182
4.280000,0.656818,1.860860,0.499859,1.423742,1.080486,0.000137,0.773111,-0.827527,-0.000149,-3.556228,-0.551358,0.000140,-3.698178,0.782276,0.000035,1.000000,0.000388,-0.000387,0.000261,-0.000299,0.000276,-0.000181
4.290000,0.671093,1.871624,0.499860,1.431294,1.072183,0.000135,0.737367,-0.833001,-0.000148,-3.592346,-0.543376,0.000140,-3.527621,0.825577,-0.000144,1.000000,0.000387,-0.000385,0.000260,-0.000297,0.000274,-0.000180
4.300000,0.685442,1.882304,0.499861,1.438488,1.063826,0.000134,0.701270,-0.838393,-0.000146,-3.626752,-0.534947,0.000138,-3.350642,0.849145,-0.000136,1.000000,0.000385,-0.000384,0.000259,-0.000294,0.000272,-0.000179
4.310000,0.699862,1.892900,0.499863,1.445319,1.055416,0.000132,0.664838,-0.843700,-0.000145,-3.659365,-0.526324,0.000136,-3.171913,0.873756,-0.000135,1.000000,0.000384,-0.000382,0.000258,-0.000292,0.000270,-0.000177
4.320000,0.714347,1.903412,0.499864,1.451784,1.046953,0.000131,0.628089,-0.848919,-0.000144,-3.690186,-0.517486,0.000135,-2.991719,0.895383,-0.000119,1.000000,0.000383,-0.000381,0.000257,-0.000290,0.000268,-0.000176
4.330000,0.728896,1.913839,0.499865,1.457879,1.038438,0.000129,0.591040,-0.854049,-0.000142,-3.719190,-0.508384,0.000134,-2.808902,0.925178,-0.000147,1.000000,0.000381,-0.000380,0.000256,-0.000288,0.000266,-0.000175
4.340000,0.743504,1.924181,0.499867,1.463603,1.029872,0.000128,0.553711,-0.859086,-0.000141,-3.746362,-0.499014,0.000132,-2.625323,0.947197,-0.000133,1.000000,0.000380,-0.000378,0.000255,-0.000286,0.000264,-0.000173
4.350000,0.758167,1.934436,0.499868,1.468953,1.021256,0.000127,0.516119,-0.864028,-0.000140,-3.771691,-0.489428,0.000131,-2.439981,0.971705,-0.000127,1.000000,0.000378,-0.000377,0.000254,-0.000284,0.000262,-0.000172
4.360000,0.772882,1.944605,0.499869,1.473925,1.012592,0.000125,0.478283,-0.868873,-0.000138,-3.795159,-0.479587,0.000130,-2.253198,0.996211,-0.000125,1.000000,0.000377,-0.000376,0.000254,-0.000282,0.000260,-0.000171
4.370000,0.787644,1.954688,0.499870,1.478518,1.003879,0.000124,0.440222,-0.873619,-0.000137,-3.816749,-0.469508,0.000128,-2.064838,1.020018,-0.000127,1.000000,0.000375,-0.000375,0.000253,-0.000280,0.000258,-0.000170
4.380000,0.802451,1.964683,0.499872,1.482729,0.995120,0.000122,0.401955,-0.878263,-0.000136,-3.836454,-0.459180,0.000127,-1.875873,1.045573,-0.000141,1.000000,0.000374,-0.000373,0.000252,-0.000277,0.000256,-0.000168
4.390000,0.817297,1.974590,0.499873,1.486556,0.986314,0.000121,0.363499,-0.882802,-0.000134,-3.854261,-0.448603,0.000126,-1.685170,1.069407,-0.000196,1.000000,0.000373,-0.000372,0.000251,-0.000275,0.000255,-0.000167
4.400000,0.832180,1.984409,0.499874,1.489998,0.977464,0.000120,0.324876,-0.887234,-0.000133,-3.870154,-0.437791,0.000125,-1.493548,1.093549,-0.000118,1.000000,0.000371,-0.000371,0.000250,-0.000273,0.000253,-0.000166
4.410000,0.847096,1.994139,0.499875,1.493053,0.968570,0.000118,0.286103,-0.891557,-0.000132,-3.884128,-0.426734,0.000124,-1.300976,1.117690,-0.000117,1.000000,0.000370,-0.000369,0.000249,-0.000271,0.000251,-0.000165
4.420000,0.862040,2.003780,0.499876,1.495720,0.959633,0.000117,0.247200,-0.895768,-0.000131,-3.896171,-0.415438,0.000123,-1.107469,1.141601,-0.000117,1.000000,0.000369,-0.000368,0.000248,-0.000269,0.000249,-0.000164
4.430000,0.877009,2.013332,0.499878,1.497997,0.950655,0.000116,0.208186,-0.899865,-0.000130,-3.906275,-0.403901,0.000121,-0.913295,1.165766,-0.000131,1.000000,0.000367,-0.000367,0.000248,-0.000267,0.000247,-0.000162
4.440000,0.891999,2.022793,0.499879,1.499883,0.941636,0.000114,0.169081,-0.903845,-0.000128,-3.914434,-0.392125,0.000120,-0.718279,1.189487,-0.000200,1.000000,0.000366,-0.000366,0.000247,-0.000265,0.000245,-0.000161
4.450000,0.907005,2.032164,0.499880,1.501378,0.932578,0.000113,0.129904,-0.907707,-0.000127,-3.920640,-0.380114,0.000119,-0.522789,1.212982,-0.000110,1.000000,0.000365,-0.000364,0.000246,-0.000263,0.000243,-0.000160
4.460000,0.922025,2.041445,0.499881,1.502481,0.923483,0.000112,0.090674,-0.911447,-0.000126,-3.924888,-0.367867,0.000118,-0.326724,1.236430,-0.000109,1.000000,0.000363,-0.000363,0.000245,-0.000261,0.000241,-0.000159
4.470000,0.937054,2.050634,0.499882,1.503192,0.914350,0.000111,0.051412,-0.915063,-0.000125,-3.927173,-0.355386,0.000117,-0.130220,1.259665,-0.000109,1.000000,0.000362,-0.000362,0.000244,-0.000259,0.000240,-0.000157
4.480000,0.952088,2.059732,0.499883,1.503509,0.905182,0.000109,0.012137,-0.918554,-0.000124,-3.927492,-0.342674,0.000116,0.066586,1.282760,-0.000113,1.000000,0.000361,-0.000361,0.000244,-0.000257,0.000238,-0.000156
4.490000,0.967123,2.068737,0.499884,1.503434,0.895979,0.000108,-0.027131,-0.921916,-0.000122,-3.925841,-0.329732,0.000115,0.263641,1.305547,-0.000130,1.000000,0.000359,-0.000360,0.000243,-0.000255,0.000236,-0.000155
4.500000,0.982155,2.077651,0.499885,1.502967,0.886744,0.000107,-0.066373,-0.925148,-0.000121,-3.922218,-0.316562,0.000114,0.460857,1.328289,-0.000103,1.000000,0.000358,-0.000359,0.000242,-0.000253,0.000234,-0.000154
4.510000,0.997181,2.086472,0.499886,1.502107,0.877477,0.000106,-0.105569,-0.928246,-0.000120,-3.916623,-0.303167,0.000113,0.658128,1.350706,-0.000102,1.000000,0.000357,-0.000357,0.000241,-0.000251,0.000232,-0.000153
4.520000,1.012196,2.095200,0.499888,1.500856,0.868179,0.000105,-0.144699,-0.931210,-0.000119,-3.909056,-0.289549,0.000112,0.855372,1.372847,-0.000098,1.000000,0.000356,-0.000356,0.000241,-0.000249,0.000230,-0.000151
4.530000,1.027197,2.103836,0.499889,1.499213,0.858853,0.000103,-0.183743,-0.934037,-0.000118,-3.899516,-0.275710,0.000111,1.052482,1.394751,-0.000086,1.000000,0.000354,-0.000355,0.000240,-0.000247,0.000229,-0.000150
4.540000,1.042179,2.112377,0.499890,1.497181,0.849499,0.000102,-0.222682,-0.936724,-0.000117,-3.888007,-0.261655,0.000110,1.249372,1.416173,-0.000060,1.000000,0.000353,-0.000354,0.000239,-0.000245,0.000227,-0.000149
4.550000,1.057139,2.120826,0.499891,1.494760,0.840119,0.000101,-0.261497,-0.939269,-0.000116,-3.874530,-0.247383,0.000109,1.445953,1.437749,-0.000097,1.000000,0.000352,-0.000353,0.000238,-0.000243,0.000225,-0.000148
4.560000,1.072073,2.129180,0.499892,1.491952,0.830714,0.000100,-0.300166,-0.941671,-0.000115,-3.859089,-0.232900,0.000108,1.642140,1.458792,-0.000096,1.000000,0.000351,-0.000352,0.000238,-0.000241,0.000223,-0.000147
4.570000,1.086977,2.137440,0.499893,1.488757,0.821286,0.000099,-0.338672,-0.943926,-0.000114,-3.841689,-0.218209,0.000107,1.837829,1.479436,-0.000094,1.000000,0.000350,-0.000351,0.000237,-0.000239,0.000221,-0.000146
4.580000,1.101847,2.145605,0.499894,1.485179,0.811836,0.000098,-0.376994,-0.946034,-0.000113,-3.822335,-0.203311,0.000106,2.032910,1.499946,-0.000088,1.000000,0.000348,-0.000349,0.000236,-0.000237,0.000220,-0.000144
4.590000,1.116679,2.153676,0.499895,1.481218,0.802366,0.000097,-0.415112,-0.947992,-0.000111,-3.801034,-0.188212,0.000105,2.227212,1.519881,-0.000062,1.000000,0.000347,-0.000348,0.000235,-0.000235,0.000218,-0.000143
4.600000,1.131470,2.161653,0.499896,1.476877,0.792877,0.000095,-0.453008,-0.949798,-0.000110,-3.777790,-0.172913,0.000104,2.421062,1.539638,-0.000092,1.000000,0.000346,-0.000347,0.000235,-0.000233,0.000216,-0.000142
4.610000,1.146215,2.169534,0.499896,1.472159,0.783370,0.000094,-0.490662,-0.951449,-0.000109,-3.752614,-0.157419,0.000103,2.613882,1.558969,-0.000092,1.000000,0.000345,-0.000346,0.000234,-0.000231,0.000214,-0.000141
4.620000,1.160912,2.177320,0.499897,1.467065,0.773848,0.000093,-0.528054,-0.952945,-0.000108,-3.725515,-0.141736,0.000102,2.805758,1.577636,-0.000090,1.000000,0.000344,-0.000345,0.000233,-0.000229,0.000213,-0.000140
4.630000,1.175555,2.185011,0.499898,1.461599,0.764312,0.000092,-0.565165,-0.954284,-0.000107,-3.696502,-0.125865,0.000101,2.996607,1.596675,-0.000084,1.000000,0.000343,-0.000344,0.000233,-0.000227,0.000211,-0.000139
4.640000,1.190142,2.192606,0.499899,1.455763,0.754763,0.000091,-0.601977,-0.955462,-0.000106,-3.665587,-0.109807,0.000101,3.186359,1.614648,-0.000053,1.000000,0.000341,-0.000343,0.000232,-0.000225,0.000209,-0.000137
4.650000,1.204669,2.200106,0.499900,1.449560,0.745203,0.000090,-0.638471,-0.956479,-0.000105,-3.632781,-0.093574,0.000100,3.374749,1.632211,-0.000089,1.000000,0.000340,-0.000342,0.000231,-0.000224,0.000207,-0.000136
4.660000,1.219132,2.207510,0.499901,1.442994,0.735634,0.000089,-0.674627,-0.957333,-0.000104,-3.598096,-0.077172,0.000099,3.561916,1.649311,-0.000087,1.000000,0.000339,-0.000341,0.000231,-0.000222,0.000206,-0.000135
4.670000,1.233528,2.214819,0.499902,1.436069,0.726057,0.000088,-0.710427,-0.958022,-0.000103,-3.561548,-0.060579,0.000098,3.747607,1.668165,-0.000103,1.000000,0.000338,-0.000340,0.000230,-0.000220,0.000204,-0.000134
4.680000,1.247853,2.222031,0.499903,1.428787,0.716474,0.000087,-0.745852,-0.958544,-0.000102,-3.523148,-0.043835,0.000097,3.932061,1.680512,-0.000070,1.000000,0.000337,-0.000339,0.000229,-0.000218,0.000202,-0.000133
4.690000,1.262103,2.229148,0.499904,1.421153,0.706887,0.000086,-0.780883,-0.958898,-0.000101,-3.482912,-0.026947,0.000096,4.114838,1.698170,-0.000088,1.000000,0.000336,-0.000338,0.000229,-0.000216,0.000200,-0.000132
4.700000,1.276274,2.236169,0.499905,1.413171,0.697297,0.000085,-0.815504,-0.959082,-0.000100,-3.440862,-0.009881,0.000095,4.295579,1.713466,-0.000086,1.000000,0.000335,-0.000337,0.000228,-0.000214,0.000199,-0.000131
4.710000,1.290365,2.243094,0.499905,1.404844,0.687706,0.000084,-0.849695,-0.959095,-0.000100,-3.397009,0.007328,0.000094,4.474797,1.728288,-0.000087,1.000000,0.000334,-0.000336,0.000227,-0.000212,0.000197,-0.000129
4.720000,1.304370,2.249923,0.499906,1.396178,0.678116,0.000083,-0.883438,-0.958935,-0.000099,-3.351373,0.024682,0.000094,4.652112,1.742513,-0.000069,1.000000,0.000333,-0.000335,0.000227,-0.000210,0.000195,-0.000128
4.730000,1.318287,2.256656,0.499907,1.387177,0.668528,0.000082,-0.916716,-0.958601,-0.000098,-3.303973,0.042178,0.000093,4.827588,1.756598,-0.000098,1.000000,0.000332,-0.000334,0.000226,-0.000209,0.000194,-0.000127
4.740000,1.332113,2.263294,0.499908,1.377846,0.658944,0.000081,-0.949512,-0.958091,-0.000097,-3.254828,0.059812,0.000092,5.000938,1.770121,-0.000064,1.000000,0.000331,-0.000333,0.000225,-0.000207,0.000192,-0.000126
4.750000,1.345843,2.269835,0.499909,1.368189,0.649367,0.000080,-0.981807,-0.957405,-0.000096,-3.203962,0.077570,0.000091,5.172085,1.782471,-0.000091,1.000000,0.000330,-0.000332,0.000225,-0.000205,0.000190,-0.000125
4.760000,1.359475,2.276281,0.499909,1.358211,0.639797,0.000079,-1.013585,-0.956539,-0.000095,-3.151398,0.095486,0.000090,5.340979,1.795284,-0.000097,1.000000,0.000329,-0.000331,0.000224,-0.000203,0.000188,-0.000124
4.770000,1.373006,2.282631,0.499910,1.347919,0.630236,0.000078,-1.044829,-0.955495,-0.000094,-3.097144,0.113426,0.000089,5.508908,1.797679,-0.000030,1.000000,0.000328,-0.000330,0.000224,-0.000201,0.000187,-0.000123
4.780000,1.386433,2.288886,0.499911,1.337317,0.620687,0.000077,-1.075523,-0.954270,-0.000093,-3.041243,0.131545,0.000088,5.670775,1.826238,-0.000162,1.000000,0.000327,-0.000329,0.000223,-0.000199,0.000185,-0.000122
4.790000,1.399752,2.295045,0.499912,1.326410,0.611152,0.000076,-1.105649,-0.952863,-0.000092,-2.983722,0.149845,0.000087,5.833746,1.828488,-0.000109,1.000000,0.000326,-0.000328,0.000222,-0.000198,0.000183,-0.000121
4.800000,1.412960,2.301109,0.499913,1.315206,0.601631,0.000075,-1.135192,-0.951273,-0.000091,-2.924582,0.168157,0.000086,5.993137,1.838891,-0.000141,1.000000,0.000325,-0.000327,0.000222,-0.000196,0.000182,-0.000120
4.810000,1.426055,2.307078,0.499913,1.303708,0.592127,0.000074,-1.164135,-0.949500,-0.000091,-2.863865,0.186555,0.000085,6.149337,1.847274,-0.000103,1.000000,0.000324,-0.000326,0.000221,-0.000194,0.000180,-0.000118
4.820000,1.439033,2.312952,0.499914,1.291925,0.582641,0.000073,-1.192464,-0.947542,-0.000090,-2.801622,0.205153,0.000083,6.300268,1.866298,-0.000208,1.000000,0.000323,-0.000326,0.000221,-0.000192,0.000178,-0.000117
4.830000,1.451892,2.318731,0.499915,1.279861,0.573176,0.000073,-1.220163,-0.945397,-0.000089,-2.737837,0.223757,0.000082,6.456265,1.854296,-0.000008,1.000000,0.000322,-0.000325,0.000220,-0.000190,0.000177,-0.000116
4.840000,1.464629,2.324415,0.499915,1.267524,0.563734,0.000072,-1.247216,-0.943066,-0.000088,-2.672538,0.242354,0.000082,6.601577,1.870792,-0.000082,1.000000,0.000321,-0.000324,0.000219,-0.000188,0.000175,-0.000115
4.850000,1.477242,2.330005,0.499916,1.254919,0.554316,0.000071,-1.273609,-0.940549,-0.000087,-2.605800,0.261117,0.000081,6.746690,1.876295,-0.000099,1.000000,0.000320,-0.000323,0.000219,-0.000187,0.000173,-0.000114
4.860000,1.489727,2.335502,0.499917,1.242054,0.544924,0.000070,-1.299327,-0.937844,-0.000086,-2.537626,0.279896,0.000080,6.888333,1.881377,-0.000095,1.000000,0.000319,-0.000322,0.000218,-0.000185,0.000172,-0.000113
4.870000,1.502082,2.340904,0.499918,1.228935,0.535560,0.000069,-1.324356,-0.934951,-0.000086,-2.468038,0.298761,0.000079,7.028076,1.889582,-0.000117,1.000000,0.000318,-0.000321,0.000218,-0.000183,0.000170,-0.000112
4.880000,1.514305,2.346213,0.499918,1.215569,0.526225,0.000068,-1.348683,-0.931869,-0.000085,-2.397090,0.317643,0.000078,7.160844,1.886575,-0.000069,1.000000,0.000317,-0.000320,0.000217,-0.000181,0.000169,-0.000111
4.890000,1.526393,2.351429,0.499919,1.201964,0.516923,0.000067,-1.372294,-0.928598,-0.000084,-2.324818,0.336531,0.000077,7.293688,1.892881,-0.000101,1.000000,0.000316,-0.000320,0.000217,-0.000180,0.000167,-0.000110
4.900000,1.538343,2.356551,0.499920,1.188126,0.507654,0.000067,-1.395175,-0.925138,-0.000083,-2.251235,0.355481,0.000076,7.421749,1.895064,-0.000083,1.000000,0.000315,-0.000319,0.000216,-0.000178,0.000165,-0.000109
4.910000,1.550154,2.361582,0.499920,1.174063,0.498421,0.000066,-1.417314,-0.921488,-0.000083,-2.176399,0.374477,0.000075,7.546145,1.897374,-0.000088,1.000000,0.000314,-0.000318,0.000215,-0.000176,0.000164,-0.000108
4.920000,1.561824,2.366520,0.499921,1.159782,0.489225,0.000065,-1.438699,-0.917649,-0.000082,-2.100313,0.393365,0.000075,7.669186,1.886587,0.000038,1.000000,0.000313,-0.000317,0.000215,-0.000174,0.000162,-0.000107
4.930000,1.573349,2.371366,0.499922,1.145291,0.480068,0.000064,-1.459317,-0.913621,-0.000081,-2.023054,0.412341,0.000074,7.782043,1.908627,-0.000211,1.000000,0.000313,-0.000316,0.000214,-0.000173,0.000160,-0.000106
4.940000,1.584729,2.376122,0.499922,1.130598,0.470953,0.000063,-1.479156,-0.909402,-0.000080,-1.944661,0.431406,0.000072,7.897059,1.897764,-0.000144,1.000000,0.000312,-0.000315,0.000214,-0.000171,0.000159,-0.000105
4.950000,1.595961,2.380786,0.499923,1.115711,0.461881,0.000063,-1.498206,-0.904993,-0.000080,-1.865133,0.450344,0.000072,8.006260,1.896681,-0.000091,1.000000,0.000311,-0.000315,0.000213,-0.000169,0.000157,-0.000103
4.960000,1.607043,2.385359,0.499923,1.100637,0.452854,0.000062,-1.516455,-0.900395,-0.000079,-1.784532,0.469285,0.000071,8.111571,1.894221,-0.000087,1.000000,0.000310,-0.000314,0.000213,-0.000167,0.000156,-0.000102
4.970000,1.617973,2.389843,0.499924,1.085384,0.443874,0.000061,-1.533893,-0.895607,-0.000078,-1.702933,0.488252,0.000070,8.209319,1.896236,-0.000165,1.000000,0.000309,-0.000313,0.000212,-0.000166,0.000154,-0.000101
4.980000,1.628750,2.394237,0.499925,1.069962,0.434942,0.000060,-1.550511,-0.890630,-0.000077,-1.620322,0.507148,0.000069,8.312119,1.882769,-0.000004,1.000000,0.000308,-0.000312,0.000212,-0.000164,0.000152,-0.000100
4.990000,1.639372,2.398542,0.499925,1.054377,0.426062,0.000059,-1.566297,-0.885465,-0.000077,-1.536741,0.525960,0.000069,8.401656,1.882296,-0.000026,1.000000,0.000308,-0.000312,0.000211,-0.000162,0.000151,-0.000099
5.000000,1.649837,2.402758,0.499926,1.038638,0.417234,0.000059,-1.581243,-0.880111,-0.000076,-1.452288,0.544771,0.000067,8.489832,1.876447,-0.000085,1.000000,0.000307,-0.000311,0.000211,-0.000160,0.000149,-0.000098
5.010000,1.660144,2.406887,0.499926,1.022755,0.408460,0.000058,-1.595340,-0.874569,-0.000075,-1.366974,0.563499,0.000067,8.573250,1.869599,-0.000083,1.000000,0.000306,-0.000310,0.000210,-0.000159,0.000148,-0.000097
5.020000,1.670291,2.410928,0.499927,1.006734,0.399743,0.000057,-1.608579,-0.868841,-0.000075,-1.280830,0.582165,0.000066,8.653929,1.862921,-0.000092,1.000000,0.000305,-0.000309,0.000210,-0.000157,0.000146,-0.000096
5.030000,1.680278,2.414882,0.499928,0.990586,0.391084,0.000056,-1.620954,-0.862926,-0.000074,-1.193932,0.600743,0.000065,8.724827,1.852380,-0.000070,1.000000,0.000304,-0.000309,0.000209,-0.000155,0.000145,-0.000095
5.040000,1.690103,2.418750,0.499928,0.974318,0.382485,0.000056,-1.632456,-0.856827,-0.000074,-1.106329,0.619222,0.000064,8.795791,1.843857,-0.000076,1.000000,0.000304,-0.000308,0.000209,-0.000154,0.000143,-0.000094
5.050000,1.699764,2.422532,0.499929,0.957940,0.373948,0.000055,-1.643078,-0.850542,-0.000073,-1.018041,0.637612,0.000063,8.860137,1.833652,-0.000059,1.000000,0.000303,-0.000307,0.000208,-0.000152,0.000141,-0.000093
5.060000,1.709261,2.426229,0.499929,0.941460,0.365475,0.000054,-1.652814,-0.844075,-0.000072,-0.929137,0.655880,0.000062,8.919728,1.821309,-0.000076,1.000000,0.000302,-0.000306,0.000208,-0.000150,0.000140,-0.000092
5.070000,1.718593,2.429841,0.499930,0.924887,0.357067,0.000053,-1.661659,-0.837425,-0.000072,-0.839664,0.674021,0.000062,8.974064,1.807414,-0.000025,1.000000,0.000301,-0.000306,0.000207,-0.000149,0.000138,-0.000091
5.080000,1.727759,2.433370,0.499930,0.908229,0.348727,0.000053,-1.669606,-0.830595,-0.000071,-0.749671,0.692040,0.000061,9.023599,1.796260,-0.000097,1.000000,0.000301,-0.000305,0.000207,-0.000147,0.000137,-0.000090
5.090000,1.736757,2.436816,0.499931,0.891497,0.340456,0.000052,-1.676651,-0.823585,-0.000070,-0.659211,0.709929,0.000061,9.067571,1.780609,-0.000010,1.000000,0.000300,-0.000304,0.000207,-0.000145,0.000135,-0.000089
5.100000,1.745588,2.440180,0.499931,0.874700,0.332256,0.000051,-1.682789,-0.816397,-0.000070,-0.568338,0.727649,0.000060,9.106221,1.764695,-0.000073,1.000000,0.000299,-0.000304,0.000206,-0.000143,0.000134,-0.000088
5.110000,1.754251,2.443462,0.499932,0.857845,0.324128,0.000051,-1.688016,-0.809032,-0.000069,-0.477102,0.745211,0.000059,9.139566,1.747912,-0.000070,1.000000,0.000298,-0.000303,0.000206,-0.000142,0.000132,-0.000087
5.120000,1.762745,2.446663,0.499932,0.840942,0.316076,0.000050,-1.692330,-0.801493,-0.000069,-0.385571,0.762606,0.000058,9.166329,1.730570,-0.000097,1.000000,0.000298,-0.000302,0.000205,-0.000140,0.000131,-0.000086
5.130000,1.771070,2.449783,0.499933,0.824001,0.308099,0.000049,-1.695727,-0.793781,-0.000068,-0.293783,0.779814,0.000058,9.190342,1.710788,-0.000031,1.000000,0.000297,-0.000302,0.000205,-0.000138,0.000129,-0.000085
5.140000,1.779225,2.452825,0.499933,0.807031,0.300201,0.000049,-1.698205,-0.785898,-0.000067,-0.201794,0.796823,0.000057,9.205839,1.691291,-0.000019,1.000000,0.000296,-0.000301,0.000204,-0.000137,0.000127,-0.000084
5.150000,1.787210,2.455788,0.499934,0.790040,0.292382,0.000048,-1.699762,-0.777845,-0.000067,-0.109679,0.813630,0.000056,9.216603,1.669994,-0.000065,1.000000,0.000296,-0.000301,0.000204,-0.000135,0.000126,-0.000083
5.160000,1.795026,2.458673,0.499934,0.773039,0.284644,0.000047,-1.700398,-0.769626,-0.000066,-0.017487,0.830220,0.000056,9.221309,1.647736,-0.000064,1.000000,0.000295,-0.000300,0.000204,-0.000133,0.000124,-0.000082
5.170000,1.802671,2.461481,0.499935,0.756035,0.276990,0.000047,-1.700112,-0.761241,-0.000066,0.074732,0.846581,0.000055,9.221041,1.624184,-0.000052,1.000000,0.000294,-0.000299,0.000203,-0.000132,0.000123,-0.000081
5.180000,1.810146,2.464213,0.499935,0.739039,0.269420,0.000046,-1.698904,-0.752695,-0.000065,0.166902,0.862702,0.000054,9.212005,1.599902,-0.000056,1.000000,0.000294,-0.000299,0.000203,-0.000130,0.000121,-0.000080
5.190000,1.817452,2.466869,0.499936,0.722060,0.261936,0.000045,-1.696774,-0.743988,-0.000065,0.258963,0.878573,0.000054,9.199550,1.574006,-0.000007,1.000000,0.000293,-0.000298,0.000202,-0.000129,0.000120,-0.000079
5.200000,1.824588,2.469452,0.499936,0.705107,0.254541,0.000045,-1.693725,-0.735124,-0.000064,0.350863,0.894179,0.000053,9.179530,1.547123,-0.000056,1.000000,0.000292,-0.000297,0.000202,-0.000127,0.000118,-0.000078
5.210000,1.831554,2.471961,0.499937,0.688189,0.247234,0.000044,-1.689758,-0.726106,-0.000064,0.442534,0.909511,0.000053,9.153442,1.519016,-0.000055,1.000000,0.000292,-0.000297,0.000202,-0.000125,0.000117,-0.000077
5.220000,1.838352,2.474397,0.499937,0.671315,0.240019,0.000043,-1.684875,-0.716935,-0.000063,0.533909,0.924555,0.000052,9.120697,1.489687,-0.000051,1.000000,0.000291,-0.000296,0.000201,-0.000124,0.000115,-0.000076
5.230000,1.844981,2.476761,0.499937,0.654494,0.232896,0.000043,-1.679081,-0.707616,-0.000063,0.624928,0.939301,0.000052,9.082022,1.459131,-0.000048,1.000000,0.000291,-0.000296,0.000201,-0.000122,0.000114,-0.000075
5.240000,1.851442,2.479055,0.499938,0.637736,0.225867,0.000042,-1.672378,-0.698150,-0.000062,0.715526,0.953734,0.000051,9.036189,1.427302,-0.000032,1.000000,0.000290,-0.000295,0.000200,-0.000120,0.000112,-0.000074
5.250000,1.857736,2.481279,0.499938,0.621050,0.218934,0.000041,-1.664772,-0.688542,-0.000062,0.805629,0.967844,0.000051,8.983726,1.394348,-0.000046,1.000000,0.000289,-0.000295,0.000200,-0.000119,0.000111,-0.000073
5.260000,1.863863,2.483434,0.499939,0.604444,0.212097,0.000041,-1.656267,-0.678794,-0.000061,0.895177,0.981617,0.000050,8.924525,1.360053,-0.000044,1.000000,0.000289,-0.000294,0.000200,-0.000117,0.000109,-0.000072
5.270000,1.869825,2.485521,0.499939,0.587927,0.205358,0.000040,-1.646870,-0.668911,-0.000061,0.984096,0.995041,0.000050,8.858178,1.324449,-0.000042,1.000000,0.000288,-0.000294,0.000199,-0.000116,0.000108,-0.000071
5.280000,1.875622,2.487541,0.499940,0.571509,0.198719,0.000040,-1.636588,-0.658895,-0.000060,1.072320,1.008102,0.000049,8.785409,1.287572,-0.000027,1.000000,0.000288,-0.000293,0.000199,-0.000114,0.000106,-0.000070
5.290000,1.881255,2.489496,0.499940,0.555199,0.192181,0.000039,-1.625427,-0.648750,-0.000060,1.159777,1.020787,0.000049,8.704739,1.249213,0.000010,1.000000,0.000287,-0.000292,0.000199,-0.000112,0.000105,-0.000069
5.300000,1.886726,2.491385,0.499940,0.539004,0.185745,0.000038,-1.613395,-0.638480,-0.000059,1.246390,1.033081,0.000050,8.616619,1.209241,0.000120,1.000000,0.000286,-0.000292,0.000198,-0.000111,0.000103,-0.000068
5.310000,1.892036,2.493211,0.499941,0.522934,0.179412,0.000038,-1.600502,-0.628090,-0.000059,1.332106,1.044982,0.000048,8.523072,1.169079,-0.000030,1.000000,0.000286,-0.000291,0.000198,-0.000109,0.000102,-0.000067
5.320000,1.897185,2.494974,0.499941,0.506997,0.173183,0.000037,-1.586756,-0.617582,-0.000058,1.416843,1.056466,0.000048,8.422310,1.127356,-0.000030,1.000000,0.000285,-0.000291,0.000198,-0.000108,0.000100,-0.000066
5.330000,1.902176,2.496675,0.499941,0.491201,0.167060,0.000037,-1.572168,-0.606962,-0.000058,1.500514,1.067519,0.000048,8.310616,1.082879,-0.000022,1.000000,0.000285,-0.000290,0.000197,-0.000106,0.000099,-0.000065
5.340000,1.907010,2.498316,0.499942,0.475556,0.161044,0.000036,-1.556750,-0.596233,-0.000057,1.583044,1.078124,0.000048,8.194813,1.038254,-0.000006,1.000000,0.000284,-0.000290,0.000197,-0.000104,0.000097,-0.000064
5.350000,1.911688,2.499896,0.499942,0.460069,0.155136,0.000036,-1.540511,-0.585401,-0.000057,1.664377,1.088281,0.000047,8.070068,0.992133,-0.000016,1.000000,0.000284,-0.000289,0.000197,-0.000103,0.000096,-0.000063
5.360000,1.916212,2.501419,0.499942,0.444748,0.149337,0.000035,-1.523466,-0.574469,-0.000056,1.744428,1.097967,0.000047,7.937859,0.944471,-0.000012,1.000000,0.000283,-0.000289,0.000196,-0.000101,0.000094,-0.000062
5.370000,1.920583,2.502883,0.499943,0.429602,0.143647,0.000034,-1.505627,-0.563443,-0.000056,1.823099,1.107163,0.000047,7.796079,0.894694,-0.000008,1.000000,0.000283,-0.000288,0.000196,-0.000100,0.000093,-0.000061
5.380000,1.924805,2.504292,0.499943,0.414639,0.138068,0.000034,-1.487009,-0.552327,-0.000055,1.900342,1.115864,0.000047,7.651228,0.845378,-0.000005,1.000000,0.000282,-0.000288,0.000196,-0.000098,0.000091,-0.000060
5.390000,1.928877,2.505645,0.499944,0.399865,0.132601,0.000033,-1.467626,-0.541127,-0.000055,1.976079,1.124058,0.000047,7.493796,0.792752,0.000012,1.000000,0.000282,-0.000288,0.000195,-0.000096,0.000090,-0.000059
5.400000,1.932802,2.506944,0.499944,0.385289,0.127246,0.000033,-1.447493,-0.529848,-0.000054,2.050198,1.131719,0.000047,7.329748,0.739437,0.000004,1.000000,0.000281,-0.000287,0.000195,-0.000095,0.000089,-0.000058
5.410000,1.936583,2.508191,0.499944,0.370917,0.122004,0.000032,-1.426627,-0.518495,-0.000054,2.122644,1.138841,0.000047,7.157586,0.684567,0.000009,1.000000,0.000281,-0.000287,0.000195,-0.000093,0.000087,-0.000057
5.420000,1.940222,2.509385,0.499944,0.356758,0.116876,0.000032,-1.405046,-0.507073,-0.000053,2.193317,1.145404,0.000047,6.976189,0.627862,0.000015,1.000000,0.000280,-0.000286,0.000195,-0.000092,0.000086,-0.000056
5.430000,1.943719,2.510528,0.499945,0.342819,0.111863,0.000031,-1.382767,-0.495589,-0.000053,2.262150,1.151397,0.000047,6.789032,0.570603,0.000017,1.000000,0.000280,-0.000286,0.000194,-0.000090,0.000084,-0.000056
5.440000,1.947079,2.511622,0.499945,0.329105,0.106965,0.000031,-1.359809,-0.484047,-0.000052,2.329060,1.156807,0.000048,6.590909,0.510899,0.000015,1.000000,0.000280,-0.000285,0.000194,-0.000089,0.000083,-0.000055
5.450000,1.950302,2.512668,0.499945,0.315625,0.102182,0.000030,-1.336193,-0.472454,-0.000052,2.393944,1.161612,0.000048,6.385086,0.450024,0.000027,1.000000,0.000279,-0.000285,0.000194,-0.000087,0.000081,-0.000054
5.460000,1.953392,2.513666,0.499946,0.302384,0.097516,0.000030,-1.311937,-0.460817,-0.000051,2.456719,1.165797,0.000048,6.170360,0.387480,0.000032,1.000000,0.000279,-0.000285,0.000194,-0.000085,0.000080,-0.000053
5.470000,1.956351,2.514619,0.499946,0.289388,0.092966,0.000029,-1.287065,-0.449141,-0.000051,2.517340,1.169364,0.000049,5.950444,0.324801,0.000036,1.000000,0.000278,-0.000284,0.000193,-0.000084,0.000078,-0.000052
5.480000,1.959181,2.515526,0.499946,0.276644,0.088533,0.000029,-1.261598,-0.437432,-0.000050,2.575660,1.172273,0.000049,5.712052,0.256727,0.000057,1.000000,0.000278,-0.000284,0.000193,-0.000082,0.000077,-0.000051
5.490000,1.961884,2.516390,0.499947,0.264158,0.084217,0.000028,-1.235560,-0.425697,-0.000050,2.631589,1.174508,0.000050,5.474045,0.190838,0.000085,1.000000,0.000277,-0.000283,0.000193,-0.000081,0.000075,-0.000050
5.500000,1.964465,2.517211,0.499947,0.251935,0.080019,0.000028,-1.208975,-0.413944,-0.000050,2.685094,1.176075,0.000050,5.223799,0.121858,0.000053,1.000000,0.000277,-0.000283,0.000193,-0.000079,0.000074,-0.000049
5.510000,1.966924,2.517991,0.499947,0.239980,0.075938,0.000027,-1.181867,-0.402178,-0.000049,2.736048,1.176945,0.000050,4.964713,0.051500,0.000059,1.000000,0.000277,-0.000283,0.000192,-0.000078,0.000073,-0.000048
