time,x,y,z,vx,vy,vz,ax,ay,az,jx,jy,jz,sx,sy,sz,roll,pitch,yaw,p,q,r
0.000000,-3.304121,-0.216614,-1.468067,-0.008292,0.001023,0.004957,0.618576,-0.083833,-0.020066,-20.630740,2.459882,0.105647,528.466331,-51.255442,-8.374484,-0.008511,-0.062844,0.000000,0.248518,2.089712,0.000000
0.010000,-3.304176,-0.216608,-1.468018,-0.003053,0.000299,0.004761,0.437330,-0.061665,-0.019419,-15.750891,1.986569,0.024606,448.899501,-43.544768,-7.835655,-0.006267,-0.044463,0.000000,0.201435,1.599115,-0.000000
0.020000,-3.304187,-0.216608,-1.467972,0.000605,-0.000225,0.004566,0.301043,-0.043858,-0.019556,-11.625542,1.586305,-0.051105,377.495158,-36.638684,-7.308375,-0.004460,-0.030617,0.000000,0.161164,1.181752,0.000000
0.030000,-3.304168,-0.216612,-1.467927,0.003094,-0.000590,0.004367,0.202570,-0.029722,-0.020424,-8.175199,1.251255,-0.121600,313.827221,-30.494808,-6.792627,-0.003023,-0.020604,0.000000,0.127241,0.831520,0.000000
0.040000,-3.304128,-0.216619,-1.467885,0.004761,-0.000830,0.004156,0.135541,-0.018640,-0.021971,-5.324630,0.974009,-0.186996,257.469612,-25.070755,-6.288390,-0.001896,-0.013785,0.000000,0.099078,0.541721,-0.000000
0.050000,-3.304074,-0.216628,-1.467844,0.005891,-0.000971,0.003925,0.094315,-0.010072,-0.024147,-3.002860,0.747582,-0.247406,207.996251,-20.324141,-5.795646,-0.001024,-0.009590,0.000000,0.076038,0.305563,0.000000
0.060000,-3.304011,-0.216638,-1.467806,0.006716,-0.001038,0.003671,0.073944,-0.003541,-0.026903,-1.143177,0.565410,-0.302947,164.981058,-16.212583,-5.314374,-0.000360,-0.007517,0.000000,0.057488,0.116438,-0.000000
0.070000,-3.303940,-0.216649,-1.467771,0.007425,-0.001048,0.003386,0.070120,0.001363,-0.030190,0.316868,0.421354,-0.353732,127.997954,-12.693696,-4.844557,0.000139,-0.007126,0.000000,0.042814,-0.031944,-0.000000
0.080000,-3.303862,-0.216659,-1.467739,0.008162,-0.001015,0.003065,0.079143,0.004994,-0.033962,1.435468,0.309701,-0.399876,96.620859,-9.725096,-4.386175,0.000507,-0.008040,0.000000,0.031439,-0.145486,0.000000
0.090000,-3.303777,-0.216669,-1.467710,0.009040,-0.000951,0.002705,0.097872,0.007648,-0.038173,2.266552,0.225159,-0.441493,70.423694,-7.264400,-3.939209,0.000777,-0.009938,0.000000,0.022825,-0.229681,0.000000
0.100000,-3.303681,-0.216678,-1.467685,0.010143,-0.000864,0.002300,0.123682,0.009571,-0.042777,2.859788,0.162862,-0.478698,48.980380,-5.269223,-3.503640,0.000971,-0.012552,0.000000,0.016477,-0.289596,-0.000000
0.110000,-3.303573,-0.216686,-1.467664,0.011530,-0.000761,0.001848,0.154426,0.010964,-0.047732,3.260586,0.118364,-0.511604,31.864837,-3.697182,-3.079449,0.001112,-0.015664,0.000000,0.011942,-0.329870,-0.000000
0.120000,-3.303449,-0.216693,-1.467648,0.013242,-0.000646,0.001345,0.188390,0.011984,-0.052995,3.510091,0.087649,-0.540325,18.650985,-2.505893,-2.666616,0.001215,-0.019098,0.000000,0.008810,-0.354709,-0.000000
0.130000,-3.303307,-0.216699,-1.467637,0.015304,-0.000522,0.000787,0.224247,0.012751,-0.058525,3.645191,0.067119,-0.564974,8.912745,-1.652971,-2.265123,0.001292,-0.022720,0.000000,0.006715,-0.367884,-0.000000
0.140000,-3.303142,-0.216704,-1.467632,0.017730,-0.000392,0.000174,0.261021,0.013350,-0.064282,3.698511,0.053603,-0.585665,2.224038,-1.096032,-1.874950,0.001352,-0.026428,0.000000,0.005333,-0.372731,0.000000
0.150000,-3.302951,-0.216707,-1.467634,0.020525,-0.000256,-0.000499,0.298040,0.013837,-0.070226,3.698416,0.044353,-0.602511,-1.841217,-0.792694,-1.496078,0.001400,-0.030156,0.000000,0.004386,-0.372147,-0.000000
0.160000,-3.302730,-0.216709,-1.467642,0.023690,-0.000115,-0.001231,0.334893,0.014243,-0.076319,3.669011,0.037045,-0.615624,-3.709098,-0.700571,-1.128488,0.001440,-0.033861,0.000000,0.003637,-0.368587,0.000000
0.170000,-3.302476,-0.216709,-1.467659,0.027222,0.000029,-0.002026,0.371389,0.014578,-0.082526,3.630139,0.029779,-0.625118,-3.805685,-0.777280,-0.772161,0.001473,-0.037525,0.000000,0.002895,-0.364072,-0.000000
0.180000,-3.302185,-0.216708,-1.467683,0.031116,0.000176,-0.002882,0.407516,0.014834,-0.088810,3.597381,0.021078,-0.631105,-2.557057,-0.980436,-0.427079,0.001497,-0.041145,0.000000,0.002010,-0.360180,-0.000000
0.190000,-3.301852,-0.216706,-1.467716,0.035371,0.000325,-0.003802,0.443395,0.014991,-0.095137,3.582061,0.009890,-0.633697,-0.389295,-1.267657,-0.093221,0.001512,-0.044734,0.000000,0.000876,-0.358055,0.000000
0.200000,-3.301476,-0.216702,-1.467759,0.039984,0.000475,-0.004785,0.479240,0.015021,-0.101473,3.591239,-0.004414,-0.633007,2.271523,-1.596557,0.229432,0.001514,-0.048314,0.000000,-0.000568,-0.358405,-0.000000
0.210000,-3.301052,-0.216696,-1.467812,0.044918,0.000629,-0.005831,0.516757,0.014755,-0.107788,3.760993,-0.034647,-0.629255,1.633016,-1.606312,0.543660,0.001486,-0.052057,0.000000,-0.003612,-0.374893,0.000000
0.220000,-3.300576,-0.216689,-1.467876,0.050274,0.000774,-0.006941,0.554439,0.014328,-0.114048,3.774358,-0.050743,-0.622295,1.047605,-1.611971,0.846382,0.001442,-0.055810,0.000000,-0.005226,-0.375648,-0.000000
0.230000,-3.300045,-0.216681,-1.467951,0.056007,0.000915,-0.008112,0.592226,0.013740,-0.120224,3.782076,-0.066861,-0.612367,0.501412,-1.610145,1.137279,0.001381,-0.059568,0.000000,-0.006837,-0.375850,-0.000000
0.240000,-3.299455,-0.216671,-1.468039,0.062119,0.001049,-0.009345,0.630063,0.012991,-0.126286,3.784470,-0.082910,-0.599590,-0.019443,-1.597441,1.416033,0.001305,-0.063326,0.000000,-0.008437,-0.375537,0.000000
0.250000,-3.298802,-0.216660,-1.468139,0.068608,0.001174,-0.010637,0.667898,0.012083,-0.132206,3.781725,-0.098763,-0.584088,-0.528839,-1.570469,1.682324,0.001213,-0.067077,0.000000,-0.010013,-0.374733,-0.000000
0.260000,-3.298082,-0.216647,-1.468252,0.075475,0.001290,-0.011988,0.705750,0.011003,-0.137959,3.780273,-0.115571,-0.566021,-1.201981,-1.492723,1.936712,0.001103,-0.070826,0.000000,-0.011681,-0.374085,0.000000
0.270000,-3.297291,-0.216634,-1.468378,0.082721,0.001394,-0.013396,0.743481,0.009774,-0.143518,3.764899,-0.130039,-0.545437,-1.871668,-1.397981,2.177891,0.000979,-0.074557,0.000000,-0.013109,-0.372079,-0.000000
0.280000,-3.296426,-0.216620,-1.468520,0.090344,0.001485,-0.014858,0.781025,0.008406,-0.148860,3.742870,-0.143476,-0.522509,-2.532027,-1.286908,2.405436,0.000841,-0.078265,0.000000,-0.014431,-0.369446,0.000000
0.290000,-3.295483,-0.216604,-1.468676,0.098341,0.001562,-0.016372,0.818317,0.006909,-0.153961,3.714309,-0.155725,-0.497375,-3.177182,-1.160166,2.618918,0.000691,-0.081944,0.000000,-0.015632,-0.366205,0.000000
0.300000,-3.294458,-0.216588,-1.468847,0.106709,0.001623,-0.017936,0.855291,0.005296,-0.158801,3.679397,-0.166630,-0.470179,-3.801259,-1.018420,2.817912,0.000529,-0.085587,0.000000,-0.016695,-0.362377,-0.000000
0.310000,-3.293347,-0.216572,-1.469035,0.115446,0.001667,-0.019547,0.891867,0.003580,-0.163358,3.636753,-0.176142,-0.441034,-4.357433,-0.859902,3.001171,0.000358,-0.089188,0.000000,-0.017618,-0.357831,0.000000
0.320000,-3.292148,-0.216555,-1.469238,0.124545,0.001694,-0.021202,0.928007,0.001778,-0.167616,3.590513,-0.183892,-0.410169,-4.885793,-0.688004,3.169188,0.000177,-0.092742,0.000000,-0.018364,-0.352980,0.000000
0.330000,-3.290855,-0.216538,-1.469459,0.134004,0.001703,-0.022898,0.963660,-0.000092,-0.171556,3.539132,-0.189860,-0.377702,-5.385480,-0.503689,3.321638,-0.000009,-0.096246,0.000000,-0.018932,-0.347673,-0.000000
0.340000,-3.289466,-0.216521,-1.469696,0.143817,0.001692,-0.024632,0.998774,-0.002013,-0.175165,3.482902,-0.193927,-0.343790,-5.855633,-0.307918,3.458195,-0.000201,-0.099694,0.000000,-0.019311,-0.341943,0.000000
0.350000,-3.287978,-0.216504,-1.469952,0.153978,0.001662,-0.026401,1.033303,-0.003964,-0.178428,3.422121,-0.195984,-0.308592,-6.295392,-0.101653,3.578532,-0.000395,-0.103083,0.000000,-0.019491,-0.335819,-0.000000
0.360000,-3.286386,-0.216488,-1.470225,0.164481,0.001613,-0.028200,1.067196,-0.005925,-0.181332,3.356482,-0.195916,-0.272197,-6.688341,0.113830,3.680378,-0.000590,-0.106409,0.000000,-0.019461,-0.329273,-0.000000
0.370000,-3.284687,-0.216472,-1.470516,0.175319,0.001544,-0.030026,1.100420,-0.007875,-0.183868,3.287760,-0.193664,-0.234953,-7.051080,0.337923,3.765589,-0.000783,-0.109668,0.000000,-0.019216,-0.322479,-0.000000
0.380000,-3.282878,-0.216457,-1.470825,0.186487,0.001456,-0.031876,1.132939,-0.009791,-0.186029,3.215558,-0.189132,-0.196941,-7.384653,0.569703,3.834080,-0.000973,-0.112857,0.000000,-0.018746,-0.315399,0.000000
0.390000,-3.280956,-0.216443,-1.471153,0.197976,0.001348,-0.033745,1.164720,-0.011650,-0.187805,3.140161,-0.182248,-0.158328,-7.690104,0.808247,3.885761,-0.001157,-0.115975,0.000000,-0.018046,-0.308059,-0.000000
0.400000,-3.278918,-0.216430,-1.471500,0.209779,0.001223,-0.035631,1.195733,-0.013428,-0.189194,3.061846,-0.172948,-0.119282,-7.968479,1.052632,3.920545,-0.001333,-0.119018,0.000000,-0.017110,-0.300486,-0.000000
0.410000,-3.276760,-0.216419,-1.471866,0.221888,0.001080,-0.037528,1.225948,-0.015100,-0.190189,2.980800,-0.161176,-0.079878,-8.218858,1.301875,3.935936,-0.001499,-0.121984,0.000000,-0.015932,-0.292696,-0.000000
0.420000,-3.274479,-0.216409,-1.472251,0.234295,0.000921,-0.039433,1.255341,-0.016643,-0.190791,2.897464,-0.146894,-0.040512,-8.444489,1.555120,3.934550,-0.001651,-0.124871,0.000000,-0.014508,-0.284728,-0.000000
0.430000,-3.272073,-0.216400,-1.472655,0.246992,0.000748,-0.041342,1.283890,-0.018030,-0.191000,2.811989,-0.130063,-0.001242,-8.646658,1.811453,3.916592,-0.001788,-0.127678,0.000000,-0.012835,-0.276596,0.000000
0.440000,-3.269538,-0.216394,-1.473078,0.259970,0.000561,-0.043252,1.311574,-0.019235,-0.190817,2.724604,-0.110658,0.037765,-8.826649,2.069957,3.882270,-0.001907,-0.130402,0.000000,-0.010911,-0.268318,-0.000000
0.450000,-3.266872,-0.216389,-1.473520,0.273220,0.000364,-0.045157,1.338376,-0.020234,-0.190246,2.635526,-0.088660,0.076349,-8.985747,2.329718,3.831791,-0.002005,-0.133044,0.000000,-0.008733,-0.259912,0.000000
0.460000,-3.264073,-0.216386,-1.473981,0.286734,0.000157,-0.047056,1.364280,-0.021000,-0.189291,2.544997,-0.064061,0.114440,-9.126306,2.589771,3.763039,-0.002081,-0.135600,0.000000,-0.006300,-0.251399,0.000000
0.470000,-3.261137,-0.216386,-1.474461,0.300503,-0.000055,-0.048942,1.389272,-0.021507,-0.187959,2.453109,-0.036865,0.151662,-9.248410,2.849255,3.678827,-0.002131,-0.138071,0.000000,-0.003613,-0.242780,-0.000000
0.480000,-3.258062,-0.216388,-1.474959,0.314517,-0.000272,-0.050813,1.413339,-0.021729,-0.186260,2.360087,-0.007080,0.187967,-9.353215,3.107260,3.579647,-0.002152,-0.140456,0.000000,-0.000671,-0.234076,-0.000000
0.490000,-3.254846,-0.216391,-1.475477,0.328767,-0.000489,-0.052666,1.436470,-0.021640,-0.184204,2.266098,0.025273,0.223207,-9.441875,3.362876,3.465990,-0.002143,-0.142753,0.000000,0.002525,-0.225296,-0.000000
0.500000,-3.251486,-0.216397,-1.476013,0.343243,-0.000704,-0.054496,1.458658,-0.021215,-0.181800,2.171299,0.060166,0.257240,-9.515543,3.615195,3.338347,-0.002101,-0.144961,0.000000,0.005971,-0.216453,0.000000
0.510000,-3.247980,-0.216405,-1.476567,0.357937,-0.000912,-0.056301,1.479894,-0.020428,-0.179063,2.075873,0.097581,0.290002,-9.576383,3.862841,3.195347,-0.002023,-0.147082,0.000000,0.009667,-0.207560,-0.000000
0.520000,-3.244326,-0.216416,-1.477139,0.372838,-0.001111,-0.058077,1.500173,-0.019255,-0.176005,1.979859,0.137427,0.321187,-9.624416,4.105426,3.039572,-0.001907,-0.149113,0.000000,0.013605,-0.198613,-0.000000
0.530000,-3.240523,-0.216428,-1.477728,0.387937,-0.001296,-0.059820,1.519490,-0.017671,-0.172644,1.883424,0.179670,0.350754,-9.660673,4.342097,2.871740,-0.001750,-0.151054,0.000000,0.017782,-0.189624,0.000000
0.540000,-3.236567,-0.216441,-1.478335,0.403224,-0.001463,-0.061529,1.537841,-0.015654,-0.168996,1.786682,0.224246,0.378584,-9.686183,4.572001,2.692570,-0.001550,-0.152905,0.000000,0.022194,-0.180601,-0.000000
0.550000,-3.232458,-0.216457,-1.478959,0.418690,-0.001607,-0.063199,1.555223,-0.013179,-0.165079,1.689733,0.271084,0.404570,-9.701978,4.794285,2.502780,-0.001305,-0.154666,0.000000,0.026834,-0.171549,0.000000
0.560000,-3.228193,-0.216473,-1.479599,0.434325,-0.001725,-0.064829,1.571636,-0.010225,-0.160911,1.592701,0.320118,0.428654,-9.709837,5.007724,2.301900,-0.001013,-0.156336,0.000000,0.031696,-0.162474,-0.000000
0.570000,-3.223771,-0.216491,-1.480255,0.450120,-0.001810,-0.066417,1.587077,-0.006770,-0.156512,1.495596,0.371225,0.450631,-9.709949,5.211882,2.091985,-0.000671,-0.157915,0.000000,0.036770,-0.153373,-0.000000
0.580000,-3.219190,-0.216510,-1.480927,0.466064,-0.001858,-0.067959,1.601548,-0.002794,-0.151905,1.398524,0.424322,0.470466,-9.703253,5.405953,1.873898,-0.000277,-0.159403,0.000000,0.042048,-0.144251,0.000000
0.590000,-3.214449,-0.216528,-1.481614,0.482148,-0.001864,-0.069454,1.615048,0.001723,-0.147111,1.301550,0.479307,0.488084,-9.690688,5.589130,1.648507,0.000171,-0.160800,0.000000,0.047521,-0.135112,0.000000
0.600000,-3.209546,-0.216547,-1.482316,0.498362,-0.001822,-0.070901,1.627579,0.006799,-0.142151,1.204727,0.536066,0.503415,-9.673193,5.760604,1.416674,0.000674,-0.162105,0.000000,0.053178,-0.125956,0.000000
0.610000,-3.204481,-0.216564,-1.483032,0.514696,-0.001726,-0.072297,1.639143,0.012450,-0.137050,1.108118,0.594492,0.516417,-9.652178,5.919209,1.178807,0.001235,-0.163319,0.000000,0.059011,-0.116786,0.000000
0.620000,-3.199252,-0.216581,-1.483762,0.531141,-0.001571,-0.073641,1.649742,0.018693,-0.131831,1.011715,0.654422,0.526996,-9.628052,6.064541,0.936284,0.001855,-0.164441,0.000000,0.065002,-0.107597,-0.000000
0.630000,-3.193858,-0.216596,-1.484505,0.547688,-0.001350,-0.074933,1.659378,0.025543,-0.126518,0.915565,0.715736,0.535130,-9.601695,6.195838,0.690028,0.002536,-0.165471,0.000000,0.071141,-0.098391,0.000000
0.640000,-3.188298,-0.216608,-1.485260,0.564326,-0.001058,-0.076171,1.668054,0.033012,-0.121136,0.819686,0.778290,0.540787,-9.573989,6.312336,0.440957,0.003278,-0.166409,0.000000,0.077415,-0.089167,0.000000
0.650000,-3.182571,-0.216617,-1.486028,0.581045,-0.000688,-0.077356,1.675773,0.041113,-0.115711,0.724087,0.841931,0.543943,-9.545814,6.413274,0.189993,0.004084,-0.167254,0.000000,0.083807,-0.079924,-0.000000
0.660000,-3.176677,-0.216621,-1.486807,0.597838,-0.000234,-0.078485,1.682537,0.049854,-0.110266,0.628783,0.906512,0.544574,-9.518433,6.497597,-0.061699,0.004955,-0.168007,0.000000,0.090304,-0.070661,-0.000000
0.670000,-3.170614,-0.216621,-1.487597,0.614693,0.000311,-0.079561,1.688350,0.059245,-0.104828,0.533731,0.971839,0.542698,-9.492297,6.564868,-0.313473,0.005891,-0.168667,0.000000,0.096885,-0.061372,0.000000
0.680000,-3.164383,-0.216615,-1.488398,0.631602,0.000953,-0.080582,1.693213,0.069293,-0.099420,0.438930,1.037750,0.538308,-9.468241,6.614360,-0.564437,0.006893,-0.169235,0.000000,0.103536,-0.052055,-0.000000
0.690000,-3.157982,-0.216602,-1.489209,0.648554,0.001699,-0.081549,1.697129,0.080002,-0.094070,0.344356,1.104064,0.531415,-9.447098,6.645345,-0.813700,0.007961,-0.169708,0.000000,0.110236,-0.042708,0.000000
0.700000,-3.151412,-0.216580,-1.490029,0.665541,0.002556,-0.082464,1.700100,0.091375,-0.088800,0.249976,1.170593,0.522042,-9.429703,6.657096,-1.060371,0.009097,-0.170089,0.000000,0.116968,-0.033326,0.000000
0.710000,-3.144671,-0.216550,-1.490858,0.682553,0.003529,-0.083326,1.702129,0.103414,-0.083637,0.155767,1.237147,0.510185,-9.417391,6.648708,-1.302698,0.010301,-0.170375,0.000000,0.123710,-0.023907,0.000000
0.720000,-3.137761,-0.216509,-1.491695,0.699580,0.004626,-0.084137,1.703216,0.116117,-0.078605,0.061632,1.303506,0.495964,-9.410433,6.619653,-1.540757,0.011572,-0.170567,0.000000,0.130440,-0.014442,-0.000000
0.730000,-3.130680,-0.216457,-1.492540,0.716614,0.005853,-0.084898,1.703362,0.129482,-0.073726,-0.032462,1.369469,0.479387,-9.409601,6.569223,-1.773763,0.012910,-0.170664,0.000000,0.137137,-0.004928,0.000000
0.740000,-3.123428,-0.216392,-1.493393,0.733645,0.007218,-0.085612,1.702567,0.143505,-0.069025,-0.126583,1.434817,0.460508,-9.415667,6.496713,-2.000929,0.014314,-0.170665,0.000000,0.143778,0.004641,-0.000000
0.750000,-3.116007,-0.216312,-1.494253,0.750662,0.008726,-0.086280,1.700830,0.158176,-0.064523,-0.220801,1.499327,0.439390,-9.429405,6.401417,-2.221470,0.015785,-0.170571,0.000000,0.150338,0.014271,-0.000000
0.760000,-3.108415,-0.216217,-1.495119,0.767658,0.010384,-0.086903,1.698151,0.173488,-0.060245,-0.315166,1.562768,0.416049,-9.452427,6.282597,-2.433228,0.017321,-0.170379,0.000000,0.156793,0.023966,0.000000
0.770000,-3.100654,-0.216104,-1.495990,0.784622,0.012198,-0.087485,1.694526,0.189427,-0.056209,-0.409843,1.624900,0.390691,-9.484563,6.139581,-2.636958,0.018920,-0.170091,0.000000,0.163117,0.033737,0.000000
0.780000,-3.092723,-0.215972,-1.496868,0.801545,0.014174,-0.088028,1.689952,0.205980,-0.052437,-0.504889,1.685477,0.363339,-9.526481,5.971670,-2.832043,0.020582,-0.169704,0.000000,0.169284,0.043591,-0.000000
0.790000,-3.084623,-0.215820,-1.497751,0.818418,0.016319,-0.088535,1.684426,0.223131,-0.048949,-0.600407,1.744248,0.334081,-9.578851,5.778160,-3.017866,0.022305,-0.169219,0.000000,0.175266,0.053534,0.000000
0.800000,-3.076355,-0.215645,-1.498639,0.835231,0.018639,-0.089008,1.677942,0.240858,-0.045762,-0.696503,1.800952,0.303014,-9.642343,5.558349,-3.193808,0.024087,-0.168633,0.000000,0.181035,0.063574,-0.000000
0.810000,-3.067919,-0.215447,-1.499531,0.851974,0.021138,-0.089451,1.670495,0.259142,-0.042895,-0.793221,1.855316,0.270170,-9.719445,5.311751,-3.357494,0.025925,-0.167946,0.000000,0.186562,0.073713,0.000000
0.820000,-3.059315,-0.215222,-1.500428,0.868637,0.023823,-0.089867,1.662075,0.277956,-0.040364,-0.890852,1.907086,0.235822,-9.808785,5.037421,-3.510280,0.027817,-0.167158,0.000000,0.191819,0.083975,-0.000000
0.830000,-3.050546,-0.214970,-1.501328,0.885212,0.026699,-0.090260,1.652675,0.297274,-0.038183,-0.989439,1.955970,0.200003,-9.910811,4.734633,-3.651765,0.029761,-0.166266,0.000000,0.196775,0.094361,0.000000
0.840000,-3.041612,-0.214687,-1.502233,0.901688,0.029770,-0.090632,1.642283,0.317065,-0.036368,-1.089112,2.001681,0.162826,-10.025968,4.402657,-3.781546,0.031752,-0.165269,0.000000,0.201399,0.104880,-0.000000
0.850000,-3.032513,-0.214373,-1.503141,0.918054,0.033042,-0.090988,1.630888,0.337296,-0.034931,-1.190004,2.043923,0.124412,-10.154705,4.040766,-3.899223,0.033787,-0.164167,0.000000,0.205660,0.115543,0.000000
0.860000,-3.023251,-0.214026,-1.504052,0.934302,0.036518,-0.091332,1.618481,0.357931,-0.033884,-1.292028,2.082389,0.084812,-10.303138,3.648350,-4.002589,0.035864,-0.162957,0.000000,0.209524,0.126337,0.000000
0.870000,-3.013827,-0.213642,-1.504967,0.950420,0.040202,-0.091667,1.605043,0.378930,-0.033238,-1.395859,2.116780,0.044322,-10.465350,3.224548,-4.093266,0.037976,-0.161638,0.000000,0.212961,0.137322,-0.000000
0.880000,-3.004243,-0.213221,-1.505886,0.966399,0.044097,-0.091998,1.590558,0.400252,-0.033001,-1.501380,2.146773,0.002989,-10.641093,2.768617,-4.171075,0.040121,-0.160208,0.000000,0.215937,0.148484,-0.000000
0.890000,-2.994500,-0.212760,-1.506807,0.982228,0.048208,-0.092329,1.575009,0.421850,-0.033181,-1.608726,2.172043,-0.039056,-10.830120,2.279813,-4.235834,0.042294,-0.158665,0.000000,0.218417,0.159832,-0.000000
0.900000,-2.984599,-0.212256,-1.507732,0.997896,0.052535,-0.092663,1.558377,0.443676,-0.033784,-1.718026,2.192257,-0.081683,-11.032182,1.757394,-4.287362,0.044488,-0.157008,0.000000,0.220368,0.171374,-0.000000
0.910000,-2.974542,-0.211708,-1.508661,1.013392,0.057082,-0.093006,1.540646,0.465679,-0.034816,-1.829001,2.207233,-0.124812,-11.257412,1.196671,-4.324132,0.046699,-0.155234,0.000000,0.221770,0.183079,-0.000000
0.920000,-2.964332,-0.211114,-1.509593,1.028705,0.061849,-0.093361,1.521789,0.487801,-0.036281,-1.942749,2.216252,-0.168181,-11.493912,0.601330,-4.347474,0.048921,-0.153341,0.000000,0.222552,0.195049,-0.000000
0.930000,-2.953969,-0.210471,-1.510528,1.043824,0.066838,-0.093733,1.501783,0.509983,-0.038181,-2.058912,2.219143,-0.211717,-11.740164,-0.028889,-4.357372,0.051148,-0.151328,0.000000,0.222696,0.207246,-0.000000
0.940000,-2.943456,-0.209776,-1.511467,1.058737,0.072049,-0.094126,1.480602,0.532162,-0.040516,-2.177579,2.215557,-0.255284,-11.994649,-0.694246,-4.353809,0.053373,-0.149190,0.000000,0.222167,0.219675,0.000000
0.950000,-2.932795,-0.209029,-1.512411,1.073432,0.077481,-0.094545,1.458223,0.554272,-0.043286,-2.298827,2.205140,-0.298748,-12.255849,-1.394999,-4.336769,0.055589,-0.146927,0.000000,0.220931,0.232337,-0.000000
0.960000,-2.921988,-0.208226,-1.513358,1.087897,0.083133,-0.094993,1.434622,0.576245,-0.046490,-2.422270,2.187881,-0.341971,-12.533458,-2.140080,-4.306319,0.057789,-0.144536,0.000000,0.218987,0.245191,-0.000000
0.970000,-2.911038,-0.207366,-1.514311,1.102120,0.089005,-0.095476,1.409768,0.598004,-0.050124,-2.549003,2.162609,-0.384825,-12.813372,-2.920017,-4.262350,0.059966,-0.142014,0.000000,0.216220,0.258341,0.000000
0.980000,-2.899946,-0.206445,-1.515268,1.116088,0.095093,-0.095997,1.383633,0.619470,-0.054185,-2.678535,2.129367,-0.427173,-13.092700,-3.734006,-4.204835,0.062111,-0.139359,0.000000,0.212635,0.271734,0.000000
0.990000,-2.888717,-0.205463,-1.516231,1.129788,0.101393,-0.096561,1.356188,0.640563,-0.058665,-2.810846,2.087818,-0.468877,-13.368551,-4.581247,-4.133747,0.064216,-0.136568,0.000000,0.208201,0.285365,-0.000000
1.000000,-2.877352,-0.204417,-1.517199,1.143207,0.107902,-0.097172,1.327407,0.661198,-0.063559,-2.945885,2.037634,-0.509802,-13.638035,-5.460938,-4.049060,0.066272,-0.133639,0.000000,0.202888,0.299224,0.000000
1.010000,-2.865854,-0.203304,-1.518174,1.156332,0.114615,-0.097834,1.297264,0.681289,-0.068857,-3.083306,1.978749,-0.549722,-13.905059,-6.378705,-3.953048,0.068271,-0.130570,0.000000,0.196691,0.313273,-0.000000
1.020000,-2.854226,-0.202124,-1.519156,1.169148,0.121526,-0.098550,1.265732,0.700742,-0.074550,-3.223639,1.910247,-0.588714,-14.159100,-7.326531,-3.843102,0.070203,-0.127358,0.000000,0.189522,0.327562,0.000000
1.030000,-2.842472,-0.200873,-1.520145,1.181642,0.128628,-0.099326,1.232783,0.719462,-0.080628,-3.366433,1.832123,-0.626536,-14.396434,-8.302827,-3.718915,0.072058,-0.124002,0.000000,0.181384,0.342044,-0.000000
1.040000,-2.830594,-0.199551,-1.521143,1.193799,0.135912,-0.100164,1.198395,0.737351,-0.087077,-3.511500,1.744101,-0.663044,-14.613338,-9.306002,-3.580177,0.073827,-0.120499,0.000000,0.172252,0.356695,0.000000
1.050000,-2.818597,-0.198154,-1.522149,1.205605,0.143371,-0.101069,1.162546,0.754310,-0.093884,-3.658619,1.645919,-0.698090,-14.806086,-10.334469,-3.426582,0.075500,-0.116848,0.000000,0.162105,0.371492,-0.000000
1.060000,-2.806483,-0.196683,-1.523164,1.217045,0.150995,-0.102043,1.125218,0.770238,-0.101032,-3.807454,1.537621,-0.731393,-14.972842,-11.393927,-3.261150,0.077066,-0.113048,0.000000,0.150951,0.386396,0.000000
1.070000,-2.794257,-0.195134,-1.524190,1.228104,0.158772,-0.103090,1.086392,0.785027,-0.108506,-3.957885,1.418295,-0.763112,-15.107765,-12.474605,-3.079836,0.078515,-0.109097,0.000000,0.138703,0.401397,0.000000
1.080000,-2.781923,-0.193507,-1.525227,1.238767,0.166691,-0.104214,1.046056,0.798568,-0.116288,-4.109490,1.288066,-0.792935,-15.206899,-13.574021,-2.881925,0.079837,-0.104995,0.000000,0.125377,0.416449,0.000000
1.090000,-2.769483,-0.191800,-1.526275,1.249020,0.174739,-0.105417,1.004200,0.810751,-0.124358,-4.261891,1.146760,-0.820692,-15.266291,-14.689694,-2.666700,0.081019,-0.100741,0.000000,0.110962,0.431512,0.000000
1.100000,-2.756944,-0.190011,-1.527335,1.258846,0.182901,-0.106702,0.960817,0.821466,-0.132694,-4.414670,0.994227,-0.846208,-15.281986,-15.819141,-2.433446,0.082052,-0.096336,0.000000,0.095448,0.446544,0.000000
1.110000,-2.744308,-0.188141,-1.528409,1.268231,0.191163,-0.108072,0.915905,0.830601,-0.141273,-4.567518,0.830637,-0.869206,-15.246344,-16.967380,-2.183785,0.082925,-0.091780,0.000000,0.078857,0.461513,0.000000
1.120000,-2.731581,-0.186188,-1.529497,1.277159,0.199508,-0.109528,0.869469,0.838040,-0.150070,-4.719591,0.655187,-0.889714,-15.159545,-18.123512,-1.914376,0.083626,-0.087075,0.000000,0.061113,0.476336,-0.000000
1.130000,-2.718766,-0.184151,-1.530600,1.285616,0.207918,-0.111074,0.821517,0.843666,-0.159058,-4.870526,0.468152,-0.907425,-15.018088,-19.284136,-1.624219,0.084143,-0.082221,0.000000,0.042249,0.490976,0.000000
1.140000,-2.705870,-0.182029,-1.531719,1.293585,0.216375,-0.112710,0.772064,0.847364,-0.168208,-5.019759,0.269501,-0.922126,-14.818468,-20.445853,-1.312310,0.084467,-0.077221,0.000000,0.022267,0.505378,-0.000000
1.150000,-2.692896,-0.179823,-1.532854,1.301052,0.224858,-0.114438,0.721130,0.849018,-0.177489,-5.166690,0.059242,-0.933595,-14.557182,-21.605263,-0.977647,0.084585,-0.072078,0.000000,0.001174,0.519484,0.000000
1.160000,-2.679851,-0.177532,-1.534008,1.308003,0.233348,-0.116260,0.668736,0.848513,-0.186868,-5.311020,-0.162334,-0.941590,-14.222273,-22.765308,-0.619473,0.084487,-0.066795,0.000000,-0.020997,0.533265,0.000000
1.170000,-2.666738,-0.175156,-1.535180,1.314422,0.241821,-0.118176,0.614921,0.845732,-0.196309,-5.451288,-0.395748,-0.945891,-13.819726,-23.915468,-0.236511,0.084161,-0.061376,0.000000,-0.044291,0.546581,0.000000
1.180000,-2.653564,-0.172696,-1.536372,1.320296,0.250254,-0.120186,0.559725,0.840560,-0.205773,-5.587181,-0.640596,-0.946234,-13.347073,-25.051567,0.172271,0.083598,-0.055826,0.000000,-0.068665,0.559404,0.000000
1.190000,-2.640334,-0.170151,-1.537584,1.325612,0.258624,-0.122291,0.503195,0.832883,-0.215220,-5.717987,-0.896718,-0.942356,-12.801843,-26.169428,0.607904,0.082785,-0.050151,0.000000,-0.094096,0.571669,0.000000
1.200000,-2.627054,-0.167524,-1.538818,1.330356,0.266903,-0.124491,0.445385,0.822589,-0.224605,-5.842968,-1.163910,-0.933983,-12.181570,-27.264875,1.071420,0.081712,-0.044356,0.000000,-0.120562,0.583307,0.000000
1.210000,-2.613729,-0.164814,-1.540074,1.334516,0.275066,-0.126783,0.386353,0.809572,-0.233884,-5.961775,-1.441619,-0.920938,-11.473296,-28.341524,1.566557,0.080370,-0.038448,0.000000,-0.148004,0.594293,0.000000
1.220000,-2.600365,-0.162023,-1.541354,1.338079,0.283085,-0.129168,0.326174,0.793721,-0.243007,-6.072640,-1.730287,-0.902674,-10.686325,-29.386450,2.091310,0.078749,-0.032434,0.000000,-0.176460,0.604458,0.000000
1.230000,-2.586969,-0.159153,-1.542658,1.341036,0.290931,-0.131642,0.264928,0.774932,-0.251920,-6.175236,-2.029225,-0.879011,-9.819473,-30.394522,2.646380,0.076838,-0.026324,0.000000,-0.205862,0.613780,-0.000000
1.240000,-2.573547,-0.156205,-1.543987,1.343375,0.298574,-0.134205,0.202700,0.753104,-0.260568,-6.268759,-2.338038,-0.849643,-8.871555,-31.360608,3.232466,0.074629,-0.020125,0.000000,-0.236167,0.622192,-0.000000
1.250000,-2.560104,-0.153182,-1.545342,1.345087,0.305983,-0.136853,0.139585,0.728140,-0.268893,-6.352393,-2.656280,-0.814256,-7.841389,-32.279577,3.850270,0.072112,-0.013848,0.000000,-0.267333,0.629624,-0.000000
1.260000,-2.546647,-0.150086,-1.546724,1.346164,0.313126,-0.139582,0.075682,0.699951,-0.276835,-6.425856,-2.983230,-0.772792,-6.713972,-33.151967,4.507110,0.069279,-0.007503,0.000000,-0.299290,0.636063,-0.000000
1.270000,-2.533183,-0.146920,-1.548134,1.346598,0.319970,-0.142388,0.011107,0.668447,-0.284326,-6.487012,-3.318873,-0.724302,-5.503630,-33.966284,5.196257,0.066123,-0.001100,0.000000,-0.332034,0.641313,0.000000
1.280000,-2.519717,-0.143688,-1.549572,1.346384,0.326483,-0.145266,-0.054017,0.633547,-0.291297,-6.535653,-3.662343,-0.668759,-4.210869,-34.716700,5.917603,0.062636,0.005347,0.000000,-0.365488,0.645371,-0.000000
1.290000,-2.506257,-0.140392,-1.551039,1.345517,0.332630,-0.148212,-0.119561,0.595176,-0.297677,-6.570957,-4.012974,-0.605843,-2.836198,-35.397391,6.671038,0.058812,0.011828,0.000000,-0.399591,0.648173,-0.000000
1.300000,-2.492809,-0.137037,-1.552537,1.343992,0.338375,-0.151218,-0.185389,0.553266,-0.303389,-6.592106,-4.370039,-0.535232,-1.380123,-36.002530,7.456452,0.054643,0.018329,0.000000,-0.434280,0.649660,-0.000000
1.310000,-2.479380,-0.133626,-1.554064,1.341809,0.343683,-0.154277,-0.251360,0.507757,-0.308359,-6.598895,-4.732701,-0.457046,0.172131,-36.527626,8.284817,0.050124,0.024837,0.000000,-0.469485,0.649830,-0.000000
1.320000,-2.465975,-0.130165,-1.555622,1.338965,0.348518,-0.157382,-0.317314,0.458596,-0.312501,-6.589084,-5.100241,-0.369929,1.802901,-36.965357,9.143584,0.045251,0.031337,0.000000,-0.505145,0.648486,-0.000000
1.330000,-2.452602,-0.126657,-1.557212,1.335463,0.352843,-0.160524,-0.383086,0.405739,-0.315729,-6.562583,-5.471697,-0.274078,3.509809,-37.309732,10.031287,0.040020,0.037815,0.000000,-0.541184,0.645643,-0.000000
1.340000,-2.439268,-0.123110,-1.558833,1.331305,0.356620,-0.163693,-0.448507,0.349152,-0.317953,-6.518642,-5.846104,-0.169211,5.290475,-37.554762,10.946460,0.034427,0.044255,0.000000,-0.577528,0.641250,-0.000000
1.350000,-2.425979,-0.119527,-1.560486,1.326495,0.359813,-0.166879,-0.513398,0.288811,-0.319082,-6.456535,-6.222441,-0.055062,7.142519,-37.694459,11.887634,0.028469,0.050642,0.000000,-0.614101,0.635260,0.000000
1.360000,-2.412740,-0.115915,-1.562170,1.321039,0.362384,-0.170071,-0.577582,0.224699,-0.319029,-6.376228,-6.599778,0.068018,9.080385,-37.718903,12.868626,0.022144,0.056961,0.000000,-0.650839,0.627688,0.000000
1.370000,-2.399560,-0.112281,-1.563887,1.314946,0.364295,-0.173255,-0.640857,0.156816,-0.317689,-6.275463,-6.976605,0.201699,11.082811,-37.626516,13.870816,0.015452,0.063193,0.000000,-0.687622,0.618345,-0.000000
1.380000,-2.386444,-0.108632,-1.565635,1.308226,0.365508,-0.176420,-0.703024,0.085172,-0.314961,-6.154371,-7.351901,0.345494,13.145360,-37.411791,14.890866,0.008392,0.069323,0.000000,-0.724389,0.607262,-0.000000
1.390000,-2.373397,-0.104974,-1.567415,1.300890,0.365986,-0.179550,-0.763875,0.009788,-0.310745,-6.012371,-7.724414,0.499565,15.263592,-37.069220,15.925437,0.000964,0.075333,0.000000,-0.761056,0.594403,-0.000000
1.400000,-2.360428,-0.101315,-1.569226,1.292953,0.365691,-0.182630,-0.823200,-0.069303,-0.304935,-5.848928,-8.092840,0.664040,17.433067,-36.593296,16.971193,-0.006829,0.081206,0.000000,-0.797541,0.579736,0.000000
1.410000,-2.347540,-0.097663,-1.571068,1.284432,0.364588,-0.185643,-0.880789,-0.152055,-0.297436,-5.664305,-8.456192,0.838304,19.668334,-35.969062,18.042734,-0.014986,0.086923,0.000000,-0.833792,0.563296,0.000000
1.420000,-2.334741,-0.094026,-1.572939,1.275344,0.362638,-0.188572,-0.936410,-0.238403,-0.288133,-5.456276,-8.812166,1.024101,21.943642,-35.201616,19.116587,-0.023503,0.092467,0.000000,-0.869640,0.544892,-0.000000
1.430000,-2.322035,-0.090413,-1.574839,1.265711,0.359808,-0.191399,-0.989838,-0.328270,-0.276919,-5.225321,-9.159732,1.220625,24.252229,-34.286608,20.187216,-0.032377,0.097818,0.000000,-0.905041,0.524575,0.000000
1.440000,-2.309428,-0.086833,-1.576766,1.255556,0.356061,-0.194104,-1.040839,-0.421565,-0.263685,-4.971143,-9.497392,1.427816,26.587330,-33.219686,21.249086,-0.041603,0.102957,0.000000,-0.939909,0.502321,-0.000000
1.450000,-2.296926,-0.083295,-1.578720,1.244903,0.351365,-0.196666,-1.089182,-0.518180,-0.248327,-4.693509,-9.823605,1.645559,28.942182,-31.996500,22.296664,-0.051173,0.107866,0.000000,-0.974156,0.478105,0.000000
1.460000,-2.284532,-0.079809,-1.580699,1.233782,0.345687,-0.199063,-1.134639,-0.618002,-0.230747,-4.392969,-10.137609,1.872990,31.328039,-30.591934,23.341931,-0.061084,0.112526,0.000000,-1.007771,0.451967,0.000000
1.470000,-2.272252,-0.076384,-1.582701,1.222221,0.338995,-0.201272,-1.176962,-0.720883,-0.210833,-4.067739,-10.435829,2.111524,33.717914,-29.024945,24.359691,-0.071326,0.116916,0.000000,-1.040482,0.423736,-0.000000
1.480000,-2.260089,-0.073032,-1.584724,1.210254,0.331260,-0.203271,-1.215914,-0.826664,-0.188483,-3.718627,-10.717560,2.360067,36.102836,-27.293725,25.342265,-0.081891,0.121016,0.000000,-1.072289,0.393463,0.000000
1.490000,-2.248048,-0.069763,-1.586766,1.197915,0.322453,-0.205034,-1.251255,-0.935173,-0.163600,-3.345729,-10.981150,2.618227,38.473836,-25.396467,26.281971,-0.092769,0.124805,0.000000,-1.103100,0.361125,0.000000
1.500000,-2.236132,-0.066587,-1.588824,1.185242,0.312548,-0.206534,-1.282750,-1.046221,-0.136088,-2.949227,-11.224930,2.885538,40.821944,-23.331363,27.171132,-0.103949,0.128262,0.000000,-1.132825,0.326701,-0.000000
1.510000,-2.224344,-0.063515,-1.590895,1.172274,0.301521,-0.207746,-1.310170,-1.159617,-0.105865,-2.530087,-11.448740,3.160982,43.155635,-21.058013,28.014023,-0.115423,0.131368,0.000000,-1.161510,0.290231,-0.000000
1.520000,-2.212687,-0.060560,-1.592978,1.159053,0.289349,-0.208642,-1.333274,-1.275117,-0.072841,-2.087036,-11.647257,3.445060,45.446358,-18.617927,28.789544,-0.127175,0.134098,0.000000,-1.188716,0.251542,-0.000000
1.530000,-2.201164,-0.057732,-1.595067,1.145623,0.276013,-0.209193,-1.351835,-1.392478,-0.036939,-1.621340,-11.820552,3.736518,47.683006,-16.014022,29.488553,-0.139192,0.136432,0.000000,-1.214506,0.210681,0.000000
1.540000,-2.189775,-0.055044,-1.597160,1.132032,0.261494,-0.209371,-1.365628,-1.511439,0.001911,-1.133593,-11.967001,4.034545,49.854475,-13.249215,30.101904,-0.151460,0.138345,0.000000,-1.238780,0.167623,0.000000
1.550000,-2.178523,-0.052506,-1.599253,1.118327,0.245780,-0.209145,-1.374436,-1.631723,0.043770,-0.624505,-12.085010,4.338240,51.949657,-10.326424,30.620456,-0.163962,0.139815,0.000000,-1.261430,0.122341,0.000000
1.560000,-2.167409,-0.050132,-1.601342,1.104561,0.228857,-0.208485,-1.378052,-1.753044,0.088691,-0.095186,-12.173476,4.646574,53.964885,-7.236884,31.035929,-0.176683,0.140818,0.000000,-1.282387,0.074837,-0.000000
1.570000,-2.156432,-0.047933,-1.603421,1.090785,0.210716,-0.207361,-1.376274,-1.875087,0.136714,0.454130,-12.229767,4.958543,55.880704,-3.996626,31.338208,-0.189604,0.141327,0.000000,-1.301425,0.025012,0.000000
1.580000,-2.145593,-0.045922,-1.605487,1.077054,0.191354,-0.205741,-1.368908,-1.997529,0.187870,1.022057,-12.252920,5.272930,57.685097,-0.609997,31.518044,-0.202705,0.141318,0.000000,-1.318461,-0.027130,0.000000
1.590000,-2.134891,-0.044110,-1.607534,1.063426,0.170766,-0.203593,-1.355774,-2.120030,0.242176,1.607420,-12.241493,5.588464,59.366046,2.918653,31.566188,-0.215966,0.140764,0.000000,-1.333353,-0.081617,-0.000000
1.600000,-2.124324,-0.042511,-1.609557,1.049958,0.148954,-0.200887,-1.336706,-2.242239,0.299638,2.208926,-12.194088,5.903784,60.911535,6.584978,31.473388,-0.229365,0.139638,0.000000,-1.345943,-0.138480,-0.000000
1.610000,-2.113891,-0.041135,-1.611550,1.036712,0.125924,-0.197590,-1.311550,-2.363820,0.360254,2.824894,-12.112297,6.218088,62.316243,10.459066,31.213827,-0.242880,0.137911,0.000000,-1.356363,-0.197709,-0.000000
1.620000,-2.103589,-0.039996,-1.613507,1.023748,0.101682,-0.193671,-1.280164,-2.484354,0.423989,3.454417,-11.987831,6.528275,63.560637,14.453018,30.796853,-0.256483,0.135554,0.000000,-1.363694,-0.259413,0.000000
1.630000,-2.093415,-0.039106,-1.615421,1.011130,0.076242,-0.189100,-1.242423,-2.603441,0.490802,4.095530,-11.822882,6.833476,64.631879,18.553369,30.215245,-0.270144,0.132537,0.000000,-1.368074,-0.323570,0.000000
1.640000,-2.083365,-0.038475,-1.617287,0.998921,0.049619,-0.183845,-1.198220,-2.720673,0.560636,4.746435,-11.616453,7.132007,65.517133,22.746657,29.461783,-0.283834,0.128829,0.000000,-1.369284,-0.390189,-0.000000
1.650000,-2.073435,-0.038117,-1.619096,0.987187,0.021836,-0.177877,-1.147468,-2.835629,0.633414,5.405210,-11.367684,7.422115,66.203562,27.019419,28.529245,-0.297518,0.124397,0.000000,-1.367086,-0.459270,0.000000
1.660000,-2.063619,-0.038042,-1.620842,0.975994,-0.007083,-0.171168,-1.090088,-2.947908,0.709060,6.070593,-11.078101,7.703408,66.658313,31.415176,27.374123,-0.311166,0.119210,0.000000,-1.361491,-0.530865,0.000000
1.670000,-2.053913,-0.038263,-1.622517,0.965407,-0.037111,-0.163688,-1.026044,-3.057044,0.787441,6.738529,-10.741772,7.970587,66.891016,35.856504,26.029927,-0.324735,0.113233,0.000000,-1.351573,-0.604788,-0.000000
1.680000,-2.044309,-0.038788,-1.624113,0.955495,-0.068212,-0.155410,-0.955314,-3.162594,0.868424,7.407639,-10.360887,8.223367,66.891284,40.322961,24.493880,-0.338183,0.106436,0.000000,-1.337334,-0.681058,-0.000000
1.690000,-2.034800,-0.039630,-1.625622,0.946323,-0.100350,-0.146311,-0.877896,-3.264113,0.951854,8.075545,-9.935297,8.459816,66.648731,44.794105,22.763207,-0.351466,0.098783,0.000000,-1.318454,-0.759597,0.000000
1.700000,-2.025380,-0.040799,-1.627036,0.937959,-0.133480,-0.136366,-0.793815,-3.361152,1.037559,8.739769,-9.465058,8.677973,66.152970,49.249496,20.835129,-0.364536,0.090244,0.000000,-1.294593,-0.840296,0.000000
1.710000,-2.016038,-0.042303,-1.628347,0.930469,-0.167556,-0.125554,-0.703103,-3.453267,1.125369,9.399384,-8.950547,8.877995,65.351731,53.671711,18.652728,-0.377341,0.080783,0.000000,-1.265495,-0.923168,0.000000
1.720000,-2.006767,-0.044153,-1.629544,0.923918,-0.202527,-0.113853,-0.605858,-3.540016,1.215043,10.047778,-8.391948,9.052790,64.281641,58.036921,16.273999,-0.389826,0.070374,0.000000,-1.230536,-1.007644,0.000000
1.730000,-1.997557,-0.046356,-1.630621,0.918373,-0.238337,-0.101247,-0.502188,-3.620962,1.306342,10.684104,-7.790068,9.202833,62.937442,62.324317,13.702792,-0.401931,0.058987,0.000000,-1.189430,-1.093654,-0.000000
1.740000,-1.988396,-0.048922,-1.631566,0.913896,-0.274926,-0.087722,-0.392226,-3.695676,1.399011,11.305595,-7.145791,9.326217,61.313877,66.513088,10.942961,-0.413593,0.046599,0.000000,-1.141768,-1.180896,0.000000
1.750000,-1.979275,-0.051857,-1.632372,0.910549,-0.312228,-0.073263,-0.276135,-3.763740,1.492772,11.909432,-6.460205,9.421076,59.405689,70.582424,7.998357,-0.424743,0.033188,0.000000,-1.087135,-1.269003,-0.000000
1.760000,-1.970181,-0.055169,-1.633028,0.908392,-0.350177,-0.057864,-0.154083,-3.824761,1.587359,12.494843,-5.735921,9.488209,57.154559,74.544629,4.806455,-0.435314,0.018737,0.000000,-1.025375,-1.357765,-0.000000
1.770000,-1.961103,-0.058863,-1.633526,0.907486,-0.388698,-0.041516,-0.026318,-3.878329,1.682426,13.053930,-4.971341,9.519605,54.614789,78.341723,1.445614,-0.445225,0.003238,0.000000,-0.955480,-1.446115,-0.000000
1.780000,-1.952027,-0.062944,-1.633856,0.907884,-0.427717,-0.024215,0.106906,-3.924064,1.777637,13.586181,-4.169719,9.516598,51.787617,81.948841,-2.072187,-0.454396,-0.013309,0.000000,-0.877366,-1.533691,0.000000
1.790000,-1.942941,-0.067418,-1.634007,0.909641,-0.467152,-0.005963,0.245307,-3.961606,1.872639,14.088729,-3.333080,9.477678,48.674283,85.341119,-5.734967,-0.462744,-0.030896,0.000000,-0.790710,-1.619790,-0.000000
1.800000,-1.933830,-0.072289,-1.633972,0.912806,-0.506921,0.013236,0.388572,-3.990617,1.967066,14.558717,-2.463696,9.401456,45.276027,88.493691,-9.530747,-0.470181,-0.049504,0.000000,-0.695253,-1.703616,-0.000000
1.810000,-1.924680,-0.077558,-1.633739,0.917427,-0.546935,0.033374,0.536397,-4.010767,2.060567,14.996435,-1.562968,9.289254,41.514990,91.353395,-13.513062,-0.476619,-0.069107,0.000000,-0.590832,-1.784667,0.000000
1.820000,-1.915476,-0.083228,-1.633301,0.923547,-0.587106,0.054442,0.688371,-4.021785,2.152717,15.391639,-0.636318,9.133783,37.481195,93.927129,-17.596394,-0.481967,-0.089657,0.000000,-0.477351,-1.861064,-0.000000
1.830000,-1.906204,-0.089300,-1.632648,0.931206,-0.627340,0.076422,0.844091,-4.023413,2.243106,15.745186,0.314550,8.937056,33.185570,96.193492,-21.760740,-0.486136,-0.111091,0.000000,-0.354887,-1.932170,-0.000000
1.840000,-1.896847,-0.095774,-1.631770,0.940440,-0.667542,0.099296,1.003127,-4.015424,2.331318,16.054514,1.286456,8.698364,28.639038,98.131083,-25.986098,-0.489036,-0.133336,0.000000,-0.223654,-1.996875,-0.000000
1.850000,-1.887390,-0.102650,-1.630659,0.951279,-0.707616,0.123040,1.165026,-3.997625,2.416931,16.317167,2.276004,8.417197,23.852525,99.718502,-30.252465,-0.490581,-0.156298,0.000000,-0.084039,-2.054030,0.000000
1.860000,-1.877816,-0.109926,-1.629306,0.963748,-0.747462,0.147624,1.329333,-3.969852,2.499539,16.533124,3.280119,8.095089,18.778294,100.920922,-34.586406,-0.490691,-0.179874,0.000000,0.063364,-2.102790,-0.000000
1.870000,-1.868109,-0.117599,-1.627704,0.977871,-0.786979,0.173019,1.495516,-3.931989,2.578688,16.694649,4.293718,7.727564,13.493115,101.732015,-38.915648,-0.489290,-0.203936,0.000000,0.217829,-2.141267,0.000000
1.880000,-1.858253,-0.125664,-1.625843,0.993663,-0.826067,0.199185,1.663046,-3.883957,2.653947,16.802343,5.313389,7.316877,8.015098,102.132023,-43.214488,-0.486314,-0.228344,0.000000,0.378336,-2.168710,0.000000
1.890000,-1.848230,-0.134118,-1.623717,1.011134,-0.864624,0.226083,1.831377,-3.825715,2.724884,16.854368,6.334922,6.863461,2.362352,102.101192,-47.457221,-0.481707,-0.252946,0.000000,0.543685,-2.184116,-0.000000
1.900000,-1.838024,-0.142955,-1.621319,1.030291,-0.902548,0.253667,1.999942,-3.757267,2.791076,16.849068,7.353911,6.368005,-3.447016,101.619765,-51.618141,-0.475429,-0.277580,0.000000,0.712479,-2.186608,-0.000000
1.910000,-1.827619,-0.152167,-1.618642,1.051130,-0.939739,0.281887,2.168222,-3.678534,2.852111,16.790443,8.377394,5.831874,-9.533229,100.373891,-55.682076,-0.467437,-0.302084,0.000000,0.884503,-2.176136,-0.000000
1.920000,-1.816996,-0.161747,-1.615679,1.073650,-0.976089,0.310691,2.335547,-3.589768,2.907580,16.664234,9.373004,5.255282,-15.722907,98.673920,-59.611500,-0.457739,-0.326273,0.000000,1.054839,-2.150595,-0.000000
1.930000,-1.806140,-0.171685,-1.612426,1.097836,-1.011502,0.340019,2.501299,-3.491138,2.957088,16.475757,10.349412,4.640182,-21.981004,96.536109,-63.379419,-0.446347,-0.349973,0.000000,1.223180,-2.110431,-0.000000
1.940000,-1.795034,-0.181973,-1.608878,1.123669,-1.045880,0.369811,2.664852,-3.382858,3.000261,16.224503,11.302321,3.988322,-28.272473,93.976714,-66.958838,-0.433289,-0.373010,0.000000,1.387700,-2.055595,-0.000000
1.950000,-1.783661,-0.192599,-1.605029,1.151124,-1.079128,0.400002,2.825579,-3.265184,3.036739,15.910313,12.227596,3.301724,-34.562266,91.011991,-70.322764,-0.418612,-0.395217,0.000000,1.546594,-1.986288,-0.000000
1.960000,-1.772006,-0.203552,-1.600876,1.180170,-1.111151,0.430523,2.982818,-3.138468,3.066168,15.530480,13.116117,2.580950,-40.742096,87.788185,-73.400621,-0.402387,-0.416435,0.000000,1.697541,-1.902537,0.000000
1.970000,-1.760053,-0.214818,-1.596417,1.210767,-1.141866,0.461302,3.135983,-3.002976,3.088260,15.092411,13.976260,1.832646,-46.859125,84.175646,-76.214333,-0.384690,-0.436526,0.000000,1.840280,-1.806015,-0.000000
1.980000,-1.747786,-0.226384,-1.591650,1.242874,-1.171183,0.492263,3.284464,-2.859069,3.102732,14.593594,14.798336,1.057616,-52.887274,80.174711,-78.742241,-0.365616,-0.455363,0.000000,1.972687,-1.697127,0.000000
1.990000,-1.735191,-0.238236,-1.586572,1.276439,-1.199020,0.523330,3.427656,-2.707149,3.109333,14.035049,15.578461,0.258826,-58.800463,75.785719,-80.962688,-0.345276,-0.472837,0.000000,2.093435,-1.576915,0.000000
2.000000,-1.722252,-0.250359,-1.581183,1.311407,-1.225301,0.554423,3.564970,-2.547653,3.107840,13.418055,16.312758,-0.560541,-64.572614,71.009008,-82.854016,-0.323790,-0.488851,0.000000,2.201384,-1.446561,0.000000
2.010000,-1.708958,-0.262737,-1.575484,1.347716,-1.249953,0.585460,3.695846,-2.380953,3.098027,12.745816,17.007186,-1.400576,-70.219641,65.596479,-84.306394,-0.301279,-0.503330,0.000000,2.296906,-1.307328,-0.000000
2.020000,-1.695294,-0.275353,-1.569474,1.385300,-1.272901,0.616356,3.819701,-2.207696,3.079786,12.016198,17.634590,-2.249399,-75.668331,59.827329,-85.397135,-0.277902,-0.516214,0.000000,2.376164,-1.160648,0.000000
2.030000,-1.681248,-0.288189,-1.563157,1.424085,-1.294087,0.647027,3.935992,-2.028459,3.053009,11.233215,18.202647,-3.107277,-80.887461,53.732319,-86.115375,-0.253807,-0.527457,0.000000,2.440198,-1.007910,0.000000
2.040000,-1.666808,-0.301228,-1.556535,1.463993,-1.313452,0.677388,4.044196,-1.843851,3.017623,10.399318,18.708252,-3.970429,-85.845811,47.342207,-86.450255,-0.229149,-0.537032,0.000000,2.488812,-0.850545,-0.000000
2.050000,-1.651965,-0.314452,-1.549611,1.504941,-1.330948,0.707351,4.143817,-1.654511,2.973596,9.517272,19.148610,-4.834968,-90.512159,40.687755,-86.390913,-0.204082,-0.544922,0.000000,2.522039,-0.689968,0.000000
2.060000,-1.636706,-0.327841,-1.542389,1.546839,-1.346531,0.736832,4.234395,-1.461020,2.920880,8.590513,19.529065,-5.701679,-94.864411,33.601789,-85.805700,-0.178748,-0.551122,0.000000,2.541134,-0.527292,0.000000
2.070000,-1.621025,-0.341376,-1.534876,1.589597,-1.360160,0.765742,4.315488,-1.264169,2.859588,7.621576,19.828886,-6.555137,-98.861102,26.337237,-84.819332,-0.153309,-0.555643,0.000000,2.544093,-0.364476,-0.000000
2.080000,-1.604912,-0.355038,-1.527077,1.633116,-1.371806,0.793996,4.386699,-1.064686,2.789817,6.614584,20.055398,-7.396742,-102.469893,18.949096,-83.435739,-0.127913,-0.558506,0.000000,2.532744,-0.202463,-0.000000
2.090000,-1.588360,-0.368806,-1.518999,1.677297,-1.381447,0.821510,4.447667,-0.863309,2.711706,5.573579,20.207640,-8.222541,-105.658445,11.492362,-81.658850,-0.102699,-0.559736,0.000000,2.507890,-0.042413,-0.000000
2.100000,-1.571364,-0.382660,-1.510649,1.722034,-1.389068,0.848203,4.498072,-0.660782,2.625432,4.502924,20.285200,-9.028621,-108.394421,4.022031,-79.492594,-0.077798,-0.559371,0.000000,2.470457,0.114610,-0.000000
2.110000,-1.553918,-0.396580,-1.502038,1.767225,-1.394659,0.873994,4.537532,-0.457947,2.531157,3.397168,20.279629,-9.816202,-110.389407,-3.189961,-76.812223,-0.053340,-0.557438,0.000000,2.420465,0.268934,0.000000
2.120000,-1.536019,-0.410546,-1.493173,1.812752,-1.398225,0.898802,4.565957,-0.255429,2.429204,2.285324,20.211949,-10.569391,-111.898495,-10.332122,-73.766100,-0.029422,-0.554003,0.000000,2.361360,0.416577,-0.000000
2.130000,-1.517662,-0.424538,-1.484065,1.858507,-1.399771,0.922553,4.583196,-0.053944,2.319877,1.160821,20.073314,-11.290371,-112.920703,-17.376019,-70.373908,-0.006143,-0.549123,0.000000,2.293044,0.558317,0.000000
2.140000,-1.498848,-0.438535,-1.474725,1.904378,-1.399310,0.945176,4.589147,0.145804,2.203515,0.028536,19.864851,-11.975781,-113.455049,-24.293222,-66.655335,0.016411,-0.542857,0.000000,2.216550,0.693550,0.000000
2.150000,-1.479575,-0.452518,-1.465165,1.950252,-1.396863,0.966601,4.583757,0.343125,2.080490,-1.106650,19.587967,-12.622455,-113.500551,-31.055297,-62.630064,0.038164,-0.535272,0.000000,2.132883,0.821780,0.000000
2.160000,-1.459843,-0.466466,-1.455398,1.996016,-1.392459,0.986766,4.566983,0.537395,1.951165,-2.243322,19.249344,-13.231058,-112.968341,-37.759793,-58.226027,0.059054,-0.526427,0.000000,2.043540,0.943127,0.000000
2.170000,-1.439655,-0.480360,-1.445435,2.041555,-1.386130,1.005607,4.538917,0.727892,1.816020,-3.368340,18.839153,-13.790218,-111.956083,-44.236871,-53.565899,0.079017,-0.516400,0.000000,1.948180,1.056024,0.000000
2.180000,-1.419013,-0.494182,-1.435290,2.086757,-1.377916,1.023069,4.499658,0.913967,1.675520,-4.480876,18.365511,-14.301625,-110.473557,-50.442674,-48.680599,0.098003,-0.505265,0.000000,1.848338,1.160868,0.000000
2.190000,-1.397922,-0.507913,-1.424978,2.131511,-1.367867,1.039101,4.449356,1.095000,1.530154,-5.576276,17.831350,-14.763183,-108.530540,-56.333344,-43.601048,0.115972,-0.493096,0.000000,1.744894,1.257529,-0.000000
2.200000,-1.376385,-0.521533,-1.414513,2.175708,-1.356035,1.053657,4.388205,1.270403,1.380429,-6.649985,17.240041,-15.173102,-106.136812,-61.865022,-38.358166,0.132891,-0.479970,0.000000,1.638691,1.345947,0.000000
2.210000,-1.354410,-0.535027,-1.403910,2.219241,-1.342477,1.066697,4.316392,1.439533,1.226855,-7.702343,16.587122,-15.531177,-103.180914,-66.784954,-32.950746,0.148730,-0.465958,0.000000,1.529725,1.426617,-0.000000
2.220000,-1.332003,-0.548378,-1.393184,2.262003,-1.327264,1.078184,4.234264,1.601989,1.069987,-8.717628,15.896420,-15.833226,-99.808708,-71.283757,-27.445770,0.163483,-0.451146,0.000000,1.420712,1.498401,-0.000000
2.230000,-1.309172,-0.561567,-1.382351,2.303894,-1.310461,1.088088,4.142158,1.757319,0.910375,-9.697211,15.162911,-16.079883,-96.044819,-75.343153,-21.878092,0.177143,-0.435612,0.000000,1.311393,1.561985,-0.000000
2.240000,-1.285928,-0.574582,-1.371428,2.344814,-1.292142,1.096384,4.040451,1.905119,0.748576,-10.637300,14.391082,-16.270695,-91.913871,-78.944862,-16.282566,0.189712,-0.419436,0.000000,1.202404,1.617532,0.000000
2.250000,-1.262280,-0.587405,-1.360429,2.384672,-1.272385,1.103054,3.929556,2.045029,0.585148,-11.534347,13.585601,-16.405558,-87.440489,-82.070607,-10.694048,0.201194,-0.402696,0.000000,1.094331,1.665245,-0.000000
2.260000,-1.238238,-0.600025,-1.349372,2.423377,-1.251267,1.108083,3.809889,2.176668,0.420666,-12.387834,12.745171,-16.483255,-82.578994,-84.546850,-5.184275,0.211597,-0.385469,0.000000,0.987197,1.705560,-0.000000
2.270000,-1.213816,-0.612427,-1.338273,2.460843,-1.228878,1.111465,3.681966,2.299858,0.255665,-13.188117,11.889378,-16.507837,-77.432922,-86.529582,0.253299,0.220945,-0.367832,0.000000,0.882753,1.738273,-0.000000
2.280000,-1.189026,-0.624598,-1.327148,2.496991,-1.205299,1.113196,3.546302,2.414398,0.090689,-13.935655,11.016222,-16.478531,-72.035506,-88.019535,5.588336,0.229261,-0.349862,0.000000,0.780823,1.763897,0.000000
2.290000,-1.163881,-0.636529,-1.316015,2.531745,-1.180619,1.113280,3.403436,2.520141,-0.073730,-14.628100,10.130627,-16.396513,-66.419980,-89.017441,10.790497,0.236571,-0.331630,0.000000,0.681797,1.782747,0.000000
2.300000,-1.138396,-0.648207,-1.304888,2.565037,-1.154926,1.111725,3.253930,2.616986,-0.237070,-15.263438,9.237511,-16.263265,-60.619576,-89.524033,15.829445,0.242907,-0.313208,0.000000,0.586020,1.795156,-0.000000
2.310000,-1.112585,-0.659624,-1.293786,2.596804,-1.128307,1.108543,3.098363,2.704817,-0.398790,-15.840031,8.335735,-16.076924,-54.666399,-89.387319,20.582746,0.248299,-0.294664,0.000000,0.493354,1.801389,0.000000
2.320000,-1.086465,-0.670771,-1.282723,2.626986,-1.100857,1.103755,2.937330,2.783713,-0.558454,-16.356422,7.444517,-15.848208,-48.594948,-88.779456,25.123434,0.252788,-0.276061,0.000000,0.405143,1.802016,0.000000
2.330000,-1.060051,-0.681639,-1.271716,2.655534,-1.072663,1.097382,2.771439,2.853735,-0.715607,-16.811647,6.561652,-15.575227,-42.438596,-87.719878,29.432450,0.256415,-0.257461,0.000000,0.321078,1.797275,0.000000
2.340000,-1.033360,-0.692222,-1.260780,2.682401,-1.043812,1.089453,2.601304,2.914988,-0.869819,-17.205022,5.691560,-15.260394,-36.230712,-86.228017,33.490732,0.259224,-0.238920,0.000000,0.241338,1.787523,-0.000000
2.350000,-1.006409,-0.702513,-1.249932,2.707548,-1.014392,1.079997,2.427546,2.967623,-1.020684,-17.536201,4.838468,-14.906312,-30.004668,-84.323307,37.279219,0.261257,-0.220492,0.000000,0.166061,1.773114,0.000000
2.360000,-0.979215,-0.712508,-1.239185,2.730941,-0.984487,1.069050,2.250809,3.011789,-1.167774,-17.803172,4.002830,-14.511210,-23.844204,-81.934869,40.663604,0.262558,-0.202230,0.000000,0.095151,1.754165,-0.000000
2.370000,-0.951796,-0.722202,-1.228556,2.752555,-0.954182,1.056654,2.071687,3.047765,-1.310800,-18.010978,3.196948,-14.088874,-17.726154,-79.183507,43.754184,0.263176,-0.184178,0.000000,0.029172,1.731601,-0.000000
2.380000,-0.924170,-0.731591,-1.218057,2.772369,-0.923558,1.042849,1.890792,3.075825,-1.449454,-18.157928,2.420268,-13.637122,-11.677724,-76.099712,46.546010,0.263157,-0.166377,0.000000,-0.032074,1.705459,-0.000000
2.390000,-0.896355,-0.740672,-1.207703,2.790367,-0.892691,1.027680,1.708728,3.096278,-1.583455,-18.244855,1.675960,-13.158966,-5.726117,-72.713975,49.034133,0.262550,-0.148865,0.000000,-0.088578,1.676049,0.000000
2.400000,-0.868369,-0.749444,-1.197508,2.806542,-0.861656,1.011196,1.526091,3.109462,-1.712555,-18.272863,0.966893,-12.657468,0.101463,-69.056788,51.213603,0.261401,-0.131677,0.000000,-0.140354,1.643676,-0.000000
2.410000,-0.840230,-0.757905,-1.187483,2.820888,-0.830524,0.993445,1.343502,3.115731,-1.836492,-18.239738,0.294546,-12.131604,5.687096,-65.131307,52.975014,0.259758,-0.114849,0.000000,-0.187451,1.608303,-0.000000
2.420000,-0.811957,-0.766054,-1.177643,2.833412,-0.799363,0.974482,1.161480,3.115487,-1.955134,-18.155629,-0.336263,-11.594324,11.105402,-60.998706,54.430664,0.257668,-0.098403,0.000000,-0.229910,1.570994,-0.000000
2.430000,-0.783568,-0.773892,-1.167998,2.844122,-0.768235,0.954360,0.980567,3.109146,-2.068335,-18.018241,-0.924851,-11.043984,16.340286,-56.692825,55.588397,0.255175,-0.082364,0.000000,-0.267824,1.531611,0.000000
2.440000,-0.755081,-0.781419,-1.158559,2.853029,-0.737199,0.933134,0.801286,3.097136,-2.175980,-17.829489,-1.469655,-10.483523,21.375652,-52.247502,56.456053,0.252326,-0.066753,0.000000,-0.301289,1.490385,-0.000000
2.450000,-0.726513,-0.788637,-1.149339,2.860154,-0.706310,0.910860,0.624142,3.079903,-2.277981,-17.591447,-1.969449,-9.915803,26.195406,-47.696577,57.041475,0.249164,-0.051587,0.000000,-0.330420,1.447531,-0.000000
2.460000,-0.697883,-0.795546,-1.140345,2.865520,-0.675617,0.887593,0.449651,3.057914,-2.374250,-17.302929,-2.422108,-9.340792,30.696977,-43.105170,57.281375,0.245733,-0.036888,0.000000,-0.355197,1.402976,0.000000
2.470000,-0.669209,-0.802150,-1.131590,2.869156,-0.645166,0.863393,0.278229,3.031615,-2.464793,-16.974438,-2.830017,-8.767860,34.961333,-38.472008,57.263434,0.242073,-0.022663,0.000000,-0.376111,1.357570,-0.000000
2.480000,-0.640506,-0.808450,-1.123081,2.871096,-0.614998,0.838316,0.110301,3.001468,-2.549612,-16.604512,-3.191509,-8.196328,38.982966,-33.827098,57.004203,0.238224,-0.008924,0.000000,-0.393141,1.311155,-0.000000
2.490000,-0.611792,-0.814451,-1.114826,2.871375,-0.585148,0.812420,-0.053731,2.967939,-2.628732,-16.195606,-3.506620,-7.628525,42.756369,-29.200449,56.520232,0.234223,0.004320,0.000000,-0.406441,1.263878,-0.000000
2.500000,-0.583084,-0.820155,-1.106835,2.870036,-0.555649,0.785760,-0.213490,2.931489,-2.702202,-15.750230,-3.775679,-7.066617,46.276034,-24.622069,55.828073,0.230107,0.017061,0.000000,-0.416172,1.215874,0.000000
2.510000,-0.554397,-0.825565,-1.099113,2.867120,-0.526527,0.758394,-0.368594,2.892607,-2.770079,-15.268270,-3.996599,-6.511522,49.468776,-20.190730,54.916982,0.225913,0.029291,0.000000,-0.422279,1.167064,-0.000000
2.520000,-0.525746,-0.830686,-1.091669,2.862679,-0.497804,0.730376,-0.518753,2.851704,-2.832466,-14.758688,-4.176757,-5.967631,52.405053,-15.859256,53.834148,0.221672,0.041010,0.000000,-0.425469,1.118048,-0.000000
2.530000,-0.497148,-0.835523,-1.084508,2.856763,-0.469498,0.701762,-0.663674,2.809214,-2.889471,-14.221014,-4.314189,-5.435345,55.087647,-11.649235,52.599464,0.217414,0.052212,0.000000,-0.425661,1.068690,-0.000000
2.540000,-0.468616,-0.840078,-1.077636,2.849424,-0.441624,0.672605,-0.803088,2.765558,-2.941216,-13.657771,-4.410219,-4.916082,57.519338,-7.582257,51.232823,0.213168,0.062898,0.000000,-0.423029,1.019078,0.000000
2.550000,-0.440164,-0.844357,-1.071057,2.840720,-0.414190,0.642955,-0.936752,2.721142,-2.987840,-13.071455,-4.466383,-4.411062,59.702905,-3.679908,49.754118,0.208962,0.073066,0.000000,-0.417749,0.969288,0.000000
2.560000,-0.411806,-0.848363,-1.064778,2.830709,-0.387203,0.612865,-1.064433,2.676392,-3.029494,-12.463082,-4.481205,-3.921826,61.604517,-0.045414,48.196354,0.204824,0.082714,0.000000,-0.409764,0.919281,-0.000000
2.570000,-0.383554,-0.852102,-1.058801,2.819452,-0.360663,0.582381,-1.185955,2.631636,-3.066329,-11.838523,-4.464306,-3.447966,63.268050,3.391269,46.564707,0.200774,0.091844,0.000000,-0.399813,0.869391,0.000000
2.580000,-0.355421,-0.855578,-1.053131,2.807011,-0.334569,0.551553,-1.301152,2.587217,-3.098509,-11.198490,-4.414078,-2.990717,64.700767,6.618551,44.877467,0.196835,0.100459,0.000000,-0.387805,0.819547,0.000000
2.590000,-0.327418,-0.858795,-1.047771,2.793450,-0.308917,0.520426,-1.409880,2.543459,-3.126201,-10.545253,-4.332672,-2.550541,65.909931,9.624840,43.152921,0.193025,0.108559,0.000000,-0.373916,0.769802,-0.000000
2.600000,-0.299555,-0.861758,-1.042724,2.778835,-0.283697,0.489044,-1.512020,2.500660,-3.149577,-9.881012,-4.222356,-2.127722,66.902807,12.398543,41.409357,0.189362,0.116147,0.000000,-0.358317,0.720203,-0.000000
2.610000,-0.271844,-0.864470,-1.037991,2.763232,-0.258900,0.457449,-1.607467,2.459132,-3.168831,-9.207495,-4.082558,-1.723987,67.676595,14.853383,39.706236,0.185866,0.123225,0.000000,-0.340985,0.670748,0.000000
2.620000,-0.244294,-0.866937,-1.033575,2.746708,-0.234510,0.425681,-1.696147,2.419087,-3.184114,-8.527700,-3.922777,-1.335393,68.249853,17.061599,38.015632,0.182547,0.129798,0.000000,-0.322560,0.621587,-0.000000
2.630000,-0.216913,-0.869162,-1.029478,2.729332,-0.210513,0.393779,-1.778005,2.380746,-3.195595,-7.843138,-3.742156,-0.963588,68.631077,19.020746,36.350791,0.179418,0.135868,0.000000,-0.302986,0.572708,0.000000
2.640000,-0.189710,-0.871149,-1.025700,2.711171,-0.186889,0.361781,-1.853001,2.344305,-3.203440,-7.155690,-3.543200,-0.608248,68.828762,20.728378,34.724961,0.176490,0.141440,0.000000,-0.282427,0.524148,-0.000000
2.650000,-0.162692,-0.872901,-1.022243,2.692295,-0.163620,0.329722,-1.921115,2.309935,-3.207813,-6.467147,-3.328435,-0.268915,68.851405,22.182047,33.151388,0.173772,0.146518,0.000000,-0.261044,0.475942,-0.000000
2.660000,-0.135866,-0.874422,-1.019106,2.672772,-0.140684,0.297637,-1.982353,2.277805,-3.208894,-5.779866,-3.098107,0.052799,68.723893,23.321040,31.698869,0.171273,0.151107,0.000000,-0.238855,0.428146,0.000000
2.670000,-0.109238,-0.875715,-1.016290,2.652671,-0.118057,0.265556,-2.036719,2.248006,-3.206804,-5.093934,-2.860252,0.362822,68.436322,24.208314,30.318299,0.168997,0.155210,0.000000,-0.216351,0.380738,-0.000000
2.680000,-0.082814,-0.876784,-1.013794,2.632060,-0.095715,0.233511,-2.084244,2.220626,-3.201682,-4.411651,-2.614764,0.659426,67.995181,24.848556,29.016121,0.166947,0.158833,0.000000,-0.193526,0.333780,0.000000
2.690000,-0.056599,-0.877631,-1.011619,2.611008,-0.073636,0.201532,-2.124969,2.195728,-3.193658,-3.734521,-2.364089,0.943428,67.406957,25.246455,27.798781,0.165127,0.161981,0.000000,-0.170528,0.287306,-0.000000
2.700000,-0.030595,-0.878258,-1.009764,2.589583,-0.051793,0.169647,-2.158956,2.173353,-3.182853,-3.063981,-2.110627,1.215706,66.678139,25.406700,26.672722,0.163537,0.164660,0.000000,-0.147499,0.241350,0.000000
2.710000,-0.004808,-0.878667,-1.008226,2.567852,-0.030161,0.137884,-2.186282,2.153536,-3.169403,-2.401997,-1.855015,1.475052,65.830170,25.290629,25.698845,0.162178,0.166876,0.000000,-0.124481,0.195965,-0.000000
2.720000,0.020761,-0.878861,-1.007005,2.545880,-0.008714,0.106268,-2.207026,2.136245,-3.153383,-1.748477,-1.603622,1.727577,64.852752,24.951590,24.822471,0.161046,0.168634,0.000000,-0.101847,0.151147,-0.000000
2.730000,0.046109,-0.878842,-1.006100,2.523733,0.012572,0.074825,-2.221286,2.121448,-3.134879,-1.105358,-1.356693,1.971825,63.750542,24.399577,24.043376,0.160139,0.169941,0.000000,-0.079617,0.106952,-0.000000
2.740000,0.071235,-0.878610,-1.005508,2.501475,0.033723,0.043578,-2.229172,2.109090,-3.113970,-0.473866,-1.116307,2.208768,62.528197,23.644589,23.361336,0.159452,0.170803,0.000000,-0.057917,0.063418,0.000000
2.750000,0.096138,-0.878168,-1.005228,2.479170,0.054762,0.012553,-2.230806,2.099094,-3.090725,0.144821,-0.884445,2.439375,61.190374,22.696622,22.776129,0.158979,0.171228,0.000000,-0.036869,0.020585,-0.000000
2.760000,0.120819,-0.877516,-1.005256,2.456880,0.075712,-0.018228,-2.226328,2.091374,-3.065220,0.749062,-0.662213,2.662870,59.754595,21.546166,22.331540,0.158713,0.171223,0.000000,-0.016551,-0.021492,-0.000000
2.770000,0.145276,-0.876654,-1.005591,2.434664,0.096597,-0.048743,-2.215875,2.085808,-3.037481,1.338979,-0.453219,2.884344,58.211077,20.225113,21.977946,0.158645,0.170795,0.000000,0.002838,-0.062808,0.000000
2.780000,0.169512,-0.875584,-1.006230,2.412582,0.117435,-0.078970,-2.199601,2.082263,-3.007543,1.912935,-0.258238,3.102714,56.562901,18.745849,21.709736,0.158766,0.169953,0.000000,0.021232,-0.103306,-0.000000
2.790000,0.193529,-0.874305,-1.007170,2.390691,0.138248,-0.108887,-2.177673,2.080592,-2.975434,2.469899,-0.078788,3.318805,54.813149,17.120757,21.521297,0.159066,0.168706,0.000000,0.038531,-0.142941,0.000000
2.800000,0.217327,-0.872819,-1.008407,2.369046,0.159053,-0.138472,-2.150263,2.080631,-2.941172,3.008870,0.083733,3.533387,52.964904,15.362225,21.407015,0.159533,0.167061,0.000000,0.054639,-0.181670,-0.000000
2.810000,0.240910,-0.871124,-1.009938,2.347703,0.179866,-0.167703,-2.117561,2.082214,-2.904782,3.528651,0.228802,3.746020,51.026995,13.463713,21.390423,0.160155,0.165029,0.000000,0.069509,-0.219446,-0.000000
2.820000,0.264282,-0.869221,-1.011760,2.326712,0.200701,-0.196560,-2.079757,2.085142,-2.866251,4.028843,0.353497,3.960092,48.996051,11.458848,21.433195,0.160918,0.162618,0.000000,0.082956,-0.256230,0.000000
2.830000,0.287446,-0.867110,-1.013868,2.306124,0.221572,-0.225021,-2.037053,2.089215,-2.825577,4.508270,0.457673,4.174851,46.874451,9.362331,21.526149,0.161809,0.159840,0.000000,0.094949,-0.291972,-0.000000
2.840000,0.310406,-0.864790,-1.016259,2.285987,0.242489,-0.253064,-1.989663,2.094224,-2.782750,4.966038,0.540487,4.390752,44.664572,7.188866,21.660106,0.162812,0.156705,0.000000,0.105416,-0.326626,-0.000000
2.850000,0.333167,-0.862260,-1.018928,2.266346,0.263459,-0.280669,-1.937808,2.099952,-2.737757,5.401275,0.601243,4.608159,42.368792,4.953153,21.825882,0.163912,0.153224,0.000000,0.114294,-0.360142,0.000000
2.860000,0.355735,-0.859520,-1.021871,2.247245,0.284491,-0.307812,-1.881707,2.106105,-2.690584,5.813981,0.633045,4.827104,39.968135,2.830208,22.020399,0.165087,0.149408,0.000000,0.121032,-0.392542,-0.000000
2.870000,0.378114,-0.856570,-1.025082,2.228725,0.305584,-0.334473,-1.821609,2.112541,-2.641208,6.201329,0.650516,5.048337,37.488947,0.654790,22.227626,0.166327,0.145269,0.000000,0.126739,-0.423612,-0.000000
2.880000,0.400312,-0.853409,-1.028558,2.210825,0.326742,-0.360629,-1.757764,2.119042,-2.589610,6.563514,0.645949,5.271665,34.936221,-1.578027,22.437636,0.167617,0.140821,0.000000,0.130800,-0.453379,0.000000
2.890000,0.422333,-0.850035,-1.032293,2.193581,0.347965,-0.386258,-1.690425,2.125384,-2.535768,6.899825,0.618747,5.497066,32.314949,-3.873173,22.640499,0.168938,0.136077,0.000000,0.133141,-0.481794,-0.000000
2.900000,0.444185,-0.846449,-1.036282,2.177027,0.369249,-0.411337,-1.619856,2.131339,-2.479662,7.209602,0.568262,5.724418,29.630124,-6.235573,22.826288,0.170273,0.131051,0.000000,0.133678,-0.508810,0.000000
2.910000,0.465876,-0.842650,-1.040518,2.161195,0.390583,-0.435843,-1.546365,2.136906,-2.421275,7.488401,0.515609,5.953424,26.983518,-9.221117,22.987047,0.171624,0.125760,0.000000,0.134039,-0.534070,-0.000000
2.920000,0.487412,-0.838637,-1.044996,2.146110,0.411976,-0.459754,-1.470177,2.141551,-2.360589,7.744733,0.408404,6.183947,24.271492,-12.216306,23.110633,0.172946,0.120215,0.000000,0.130066,-0.558247,-0.000000
2.930000,0.508801,-0.834410,-1.049711,2.131800,0.433410,-0.483047,-1.391562,2.144975,-2.297593,7.973590,0.271459,6.415479,21.487191,-15.158606,23.186876,0.174217,0.114431,0.000000,0.123634,-0.580940,0.000000
2.940000,0.530050,-0.829969,-1.054655,2.118286,0.454871,-0.505698,-1.310799,2.146884,-2.232278,8.174213,0.105616,6.647493,18.623754,-17.985479,23.205606,0.175411,0.108423,0.000000,0.114745,-0.602079,-0.000000
2.950000,0.551169,-0.825313,-1.059823,2.105590,0.476342,-0.527685,-1.228175,2.146996,-2.164643,8.345778,-0.087658,6.879365,15.674326,-20.634388,23.156654,0.176503,0.102207,0.000000,0.103444,-0.621580,-0.000000
2.960000,0.572165,-0.820442,-1.065207,2.093725,0.497813,-0.548984,-1.143882,2.144680,-2.094673,8.496765,-0.340086,7.112257,12.395253,-22.188671,22.982110,0.177442,0.095793,0.000000,0.087105,-0.640113,0.000000
2.970000,0.593046,-0.815357,-1.070800,2.082713,0.519240,-0.569571,-1.058350,2.140146,-2.022405,8.604019,-0.568900,7.340865,9.045467,-23.544504,22.725389,0.178241,0.089208,0.000000,0.072270,-0.655778,0.000000
2.980000,0.613822,-0.810057,-1.076596,2.072561,0.540609,-0.589425,-0.971914,2.133259,-1.947866,8.677513,-0.810455,7.566476,5.647105,-24.743938,22.382167,0.178883,0.082473,0.000000,0.056000,-0.669322,0.000000
2.990000,0.634501,-0.804545,-1.082586,2.063277,0.561896,-0.608521,-0.884914,2.123899,-1.871089,8.716873,-1.063398,7.788205,2.222304,-25.829021,21.948119,0.179356,0.075612,0.000000,0.038347,-0.680662,0.000000
3.000000,0.655091,-0.798820,-1.088764,2.054864,0.583078,-0.626839,-0.797691,2.111956,-1.792118,8.721945,-1.326795,8.005122,-1.206799,-26.841805,21.418922,0.179645,0.068646,0.000000,0.019328,-0.689721,0.000000
3.010000,0.675601,-0.792884,-1.095120,2.047323,0.604122,-0.644357,-0.710630,2.097501,-1.710996,8.688996,-1.584331,8.217091,-4.522073,-28.223469,20.769064,0.179752,0.061603,0.000000,0.000268,-0.696104,0.000000
3.020000,0.696040,-0.786738,-1.101648,2.040651,0.625013,-0.661052,-0.624021,2.080224,-1.627799,8.627312,-1.873322,8.421111,-7.809129,-29.568061,20.018003,0.179645,0.054504,0.000000,-0.022053,-0.700535,0.000000
3.030000,0.716417,-0.780384,-1.108338,2.034840,0.645717,-0.676906,-0.538193,2.059991,-1.542601,8.532942,-2.175546,8.617108,-11.057583,-30.868757,19.164008,0.179305,0.047372,0.000000,-0.046188,-0.702593,-0.000000
3.040000,0.736740,-0.773824,-1.115183,2.029883,0.666203,-0.691898,-0.453470,2.036671,-1.455487,8.406323,-2.490528,8.804043,-14.257053,-32.118736,18.205349,0.178715,0.040231,0.000000,-0.072180,-0.702222,0.000000
3.050000,0.757017,-0.767061,-1.122173,2.025766,0.686439,-0.706010,-0.370172,2.010140,-1.366554,8.247999,-2.817729,8.980860,-17.397156,-33.311174,17.140296,0.177855,0.033108,0.000000,-0.100068,-0.699371,0.000000
3.060000,0.777258,-0.760096,-1.129300,2.022474,0.706389,-0.719224,-0.288610,1.980475,-1.275896,8.058887,-3.138378,9.147572,-20.474435,-34.897907,15.939755,0.176725,0.026028,0.000000,-0.128270,-0.694009,0.000000
3.070000,0.797469,-0.752934,-1.136555,2.019987,0.726031,-0.731523,-0.209096,1.947321,-1.183644,7.839089,-3.494786,9.300522,-23.470733,-36.357292,14.632711,0.175282,0.019017,0.000000,-0.160625,-0.686038,-0.000000
3.080000,0.817660,-0.745577,-1.143928,2.018284,0.745323,-0.742892,-0.131927,1.910533,-1.089930,7.589780,-3.864889,9.439876,-26.374818,-37.626343,13.220785,0.173504,0.012103,0.000000,-0.195310,-0.675436,0.000000
3.090000,0.837838,-0.738029,-1.151410,2.017340,0.764229,-0.753317,-0.057395,1.869985,-0.994895,7.311937,-4.246469,9.564593,-29.175460,-38.642075,11.705598,0.171368,0.005312,0.000000,-0.232235,-0.662160,0.000000
3.100000,0.858009,-0.730294,-1.158991,2.017127,0.782710,-0.762786,0.014220,1.825575,-0.898691,7.006653,-4.636677,9.673649,-31.861427,-39.341504,10.088772,0.168853,-0.001328,0.000000,-0.271249,-0.646172,0.000000
3.110000,0.878182,-0.722376,-1.166662,2.017616,0.800740,-0.771288,0.082565,1.776758,-0.801450,6.667214,-5.075928,9.768591,-34.221577,-38.552999,8.307373,0.165894,-0.007781,0.000000,-0.316161,-0.626704,0.000000
3.120000,0.898364,-0.714281,-1.174413,2.018769,0.818248,-0.778813,0.147488,1.724088,-0.703380,6.313672,-5.456208,9.842377,-36.469069,-37.457973,6.435481,0.162527,-0.014028,0.000000,-0.357225,-0.605464,-0.000000
3.130000,0.918560,-0.706013,-1.182235,2.020554,0.835210,-0.785354,0.208765,1.667674,-0.604667,5.938164,-5.824308,9.897031,-38.617151,-36.129192,4.482620,0.158748,-0.020043,0.000000,-0.398663,-0.581580,-0.000000
3.140000,0.938777,-0.697579,-1.190117,2.022932,0.851589,-0.790905,0.266181,1.607649,-0.505506,5.541616,-6.178255,9.931791,-40.679071,-34.639424,2.458316,0.154554,-0.025798,0.000000,-0.440300,-0.554987,-0.000000
3.150000,0.959020,-0.688983,-1.198050,2.025864,0.867351,-0.795463,0.319530,1.544161,-0.406099,5.124825,-6.516802,9.945991,-42.668077,-33.061436,0.372094,0.149942,-0.031267,0.000000,-0.482012,-0.525608,0.000000
3.160000,0.979296,-0.680234,-1.206023,2.029303,0.882451,-0.799027,0.368807,1.477740,-0.306653,4.706414,-6.804959,9.939363,-45.051044,-32.338703,-1.774222,0.144949,-0.036439,0.000000,-0.520362,-0.495119,0.000000
3.170000,0.999608,-0.671337,-1.214027,2.033218,0.896883,-0.801597,0.413580,1.408086,-0.207384,4.244396,-7.124541,9.910710,-47.332045,-31.566667,-3.962463,0.139532,-0.041263,0.000000,-0.563243,-0.459252,0.000000
3.180000,1.019962,-0.662298,-1.222052,2.037559,0.910602,-0.803176,0.453621,1.335276,-0.108512,3.760254,-7.436015,9.860009,-49.468784,-30.711479,-6.182160,0.133682,-0.045703,0.000000,-0.606867,-0.419913,-0.000000
3.190000,1.040360,-0.653127,-1.230087,2.042274,0.923578,-0.803769,0.488717,1.259396,-0.010258,3.255642,-7.738381,9.786997,-51.418961,-29.739288,-8.422845,0.127393,-0.049725,0.000000,-0.651117,-0.377098,0.000000
3.200000,1.060808,-0.643830,-1.238124,2.047316,0.935781,-0.803384,0.518673,1.180544,0.087153,2.732637,-8.030298,9.691517,-53.140278,-28.616244,-10.674049,0.120658,-0.053295,0.000000,-0.695818,-0.330856,-0.000000
3.210000,1.081308,-0.634414,-1.246152,2.052634,0.947184,-0.802030,0.543177,1.098674,0.183503,2.180882,-8.324580,9.574056,-54.265661,-26.942523,-12.938933,0.113460,-0.056365,0.000000,-0.742230,-0.279959,0.000000
3.220000,1.101862,-0.624889,-1.254161,2.058166,0.957750,-0.799718,0.562257,1.014111,0.278559,1.633737,-8.584908,9.433387,-55.117356,-25.095062,-15.191732,0.105815,-0.058921,0.000000,-0.786573,-0.227710,0.000000
3.230000,1.122472,-0.615262,-1.262143,2.063861,0.967458,-0.796464,0.575828,0.927040,0.372096,1.079455,-8.825938,9.270302,-55.692833,-23.084826,-17.420308,0.097731,-0.060937,0.000000,-0.830180,-0.172828,-0.000000
3.240000,1.143139,-0.605542,-1.270087,2.069664,0.976283,-0.792282,0.583832,0.837662,0.463891,0.520810,-9.046098,9.085102,-55.989562,-20.922776,-19.612524,0.089215,-0.062387,0.000000,-0.872728,-0.115534,-0.000000
3.250000,1.163865,-0.595739,-1.277986,2.075519,0.984204,-0.787192,0.586239,0.746192,0.553725,-0.039398,-9.243924,8.878213,-56.005013,-18.619878,-21.756243,0.080281,-0.063250,0.000000,-0.913873,-0.056084,-0.000000
3.260000,1.184650,-0.585861,-1.285828,2.081374,0.991203,-0.781215,0.582888,0.652778,0.641380,-0.613125,-9.425827,8.649761,-55.363338,-15.990979,-23.828764,0.070934,-0.063489,0.000000,-0.954101,0.006851,-0.000000
3.270000,1.205492,-0.575918,-1.293607,2.087163,0.997257,-0.774372,0.574002,0.557765,0.726653,-1.162529,-9.572183,8.401404,-54.481039,-13.267172,-25.829807,0.061206,-0.063109,0.000000,-0.991047,0.069130,0.000000
3.280000,1.226392,-0.565919,-1.301313,2.092836,1.002354,-0.766690,0.559670,0.461426,0.809343,-1.702087,-9.690971,8.133440,-53.401296,-10.483433,-27.748530,0.051122,-0.062101,0.000000,-1.025278,0.132232,-0.000000
3.290000,1.247348,-0.555874,-1.308938,2.098339,1.006482,-0.758195,0.539999,0.364039,0.889259,-2.230041,-9.781768,7.846744,-52.167292,-7.674739,-29.574089,0.040711,-0.060459,0.000000,-1.056450,0.195858,0.000000
3.300000,1.268358,-0.545793,-1.316474,2.103619,1.009632,-0.748915,0.515112,0.265884,0.966219,-2.745063,-9.844499,7.542304,-50.822211,-4.876069,-31.295640,0.030005,-0.058180,0.000000,-1.084244,0.259722,-0.000000
3.310000,1.289420,-0.535685,-1.323914,2.108617,1.011794,-0.738880,0.485389,0.167386,1.040034,-3.223718,-9.866164,7.219741,-49.978570,-2.457710,-32.865130,0.019055,-0.055290,0.000000,-1.106846,0.320981,-0.000000
3.320000,1.310530,-0.525560,-1.331249,2.113302,1.012974,-0.728125,0.450668,0.068641,1.110563,-3.718903,-9.878814,6.883745,-49.040502,-0.078271,-34.313482,0.007880,-0.051758,0.000000,-1.127586,0.385449,0.000000
3.330000,1.331685,-0.515429,-1.338474,2.117614,1.013167,-0.716681,0.411044,-0.030112,1.177662,-4.204124,-9.867839,6.533896,-47.981473,2.268332,-35.634410,-0.003484,-0.047581,0.000000,-1.144529,0.449956,0.000000
3.340000,1.352881,-0.505300,-1.345581,2.121507,1.012373,-0.704583,0.366623,-0.128638,1.241199,-4.678040,-9.833536,6.171502,-46.774951,4.588179,-36.821624,-0.014998,-0.042760,0.000000,-1.157421,0.514124,-0.000000
3.350000,1.374113,-0.495185,-1.352564,2.124931,1.010596,-0.691869,0.317526,-0.226706,1.301055,-5.139043,-9.776144,5.797930,-45.394404,6.887351,-37.868840,-0.026618,-0.037299,0.000000,-1.166016,0.577521,-0.000000
3.360000,1.395378,-0.485092,-1.359416,2.127847,1.007843,-0.678574,0.263716,-0.324158,1.357109,-5.601413,-9.702645,5.413076,-43.405311,9.343865,-38.730947,-0.038311,-0.031188,0.000000,-1.170885,0.641587,0.000000
3.370000,1.416668,-0.475031,-1.366133,2.130197,1.004118,-0.664739,0.205567,-0.420677,1.409290,-6.024773,-9.597041,5.022071,-41.239087,11.770814,-39.445235,-0.050020,-0.024465,0.000000,-1.169922,0.701247,-0.000000
3.380000,1.437979,-0.465013,-1.372709,2.131944,0.999433,-0.650402,0.143295,-0.516019,1.457529,-6.425682,-9.467377,4.624669,-38.919156,14.153228,-40.010169,-0.061693,-0.017154,0.000000,-1.163881,0.758147,-0.000000
3.390000,1.459305,-0.455046,-1.379140,2.133050,0.993802,-0.635602,0.077133,-0.609946,1.501767,-6.802722,-9.314175,4.222371,-36.468944,16.476134,-40.424216,-0.073280,-0.009284,0.000000,-1.152681,0.811820,-0.000000
3.400000,1.480638,-0.445140,-1.385420,2.133475,0.987240,-0.620380,0.007324,-0.702226,1.541965,-7.154705,-9.138103,3.816693,-33.911877,18.724560,-40.685843,-0.084729,-0.000886,0.000000,-1.136307,0.861833,0.000000
3.410000,1.501972,-0.435304,-1.391546,2.133184,0.979763,-0.604776,-0.065838,-0.792602,1.578077,-7.477273,-8.936978,3.407521,-31.357465,20.807669,-40.751952,-0.095985,0.007998,0.000000,-1.114436,0.907383,-0.000000
3.420000,1.523299,-0.425547,-1.397514,2.132147,0.971394,-0.588831,-0.142135,-0.880898,1.610116,-7.777776,-8.718880,3.000299,-28.732508,22.795645,-40.667663,-0.107002,0.017332,0.000000,-1.088104,0.949119,0.000000
3.430000,1.544612,-0.415879,-1.403322,2.130332,0.962153,-0.572587,-0.221305,-0.966915,1.638088,-8.051731,-8.481401,2.594658,-26.049891,24.682807,-40.436533,-0.117731,0.027075,0.000000,-1.057077,0.986289,-0.000000
3.440000,1.565903,-0.406307,-1.408965,2.127712,0.952064,-0.556083,-0.303079,-1.050465,1.662019,-8.298625,-8.225579,2.192046,-23.322498,26.463472,-40.062117,-0.128128,0.037180,0.000000,-1.021607,1.018655,0.000000
3.450000,1.587164,-0.396840,-1.414443,2.124262,0.941152,-0.539360,-0.387186,-1.131369,1.681944,-8.518075,-7.952506,1.793881,-20.563213,28.131960,-39.547973,-0.138150,0.047600,0.000000,-0.982002,1.046039,0.000000
3.460000,1.608386,-0.387487,-1.419752,2.119961,0.929446,-0.522457,-0.473342,-1.209458,1.697903,-8.709249,-7.663016,1.400307,-17.799491,29.674593,-38.866492,-0.147755,0.058284,0.000000,-0.938557,1.068240,0.000000
3.470000,1.629560,-0.378254,-1.424891,2.114789,0.916973,-0.505414,-0.561278,-1.284580,1.709975,-8.873388,-7.359065,1.015589,-15.027863,31.094664,-38.056211,-0.156910,0.069183,0.000000,-0.891817,1.085388,0.000000
3.480000,1.650679,-0.369150,-1.429860,2.108730,0.903764,-0.488270,-0.650717,-1.356594,1.718243,-9.009817,-7.041547,0.639588,-12.259430,32.387469,-37.124501,-0.165582,0.080245,0.000000,-0.842151,1.097400,-0.000000
3.490000,1.671732,-0.360181,-1.434657,2.101771,0.889852,-0.471062,-0.741382,-1.425370,1.722800,-9.118624,-6.711756,0.273479,-9.505291,33.548306,-36.078734,-0.173745,0.091418,0.000000,-0.790016,1.104335,-0.000000
3.500000,1.692711,-0.351355,-1.439281,2.093900,0.875268,-0.453826,-0.832998,-1.490793,1.723750,-9.200007,-6.371036,-0.081631,-6.776549,34.572472,-34.926283,-0.181375,0.102652,0.000000,-0.735888,1.106309,0.000000
3.510000,1.713607,-0.342678,-1.443733,2.085108,0.860047,-0.436598,-0.925283,-1.552733,1.721200,-9.253446,-6.018383,-0.425364,-4.105287,35.394781,-33.658132,-0.188454,0.113896,0.000000,-0.679952,1.103381,0.000000
3.520000,1.734410,-0.334156,-1.448013,2.075392,0.844225,-0.419413,-1.017979,-1.611135,1.715286,-9.281326,-5.660903,-0.755226,-1.479052,36.078420,-32.300046,-0.194971,0.125102,0.000000,-0.623387,1.096022,-0.000000
3.530000,1.755112,-0.325795,-1.452122,2.064748,0.827836,-0.402303,-1.110823,-1.665931,1.706143,-9.283205,-5.297268,-1.071096,1.093623,36.626091,-30.861406,-0.200920,0.136224,0.000000,-0.566313,1.084358,-0.000000
3.540000,1.775702,-0.317601,-1.456060,2.053176,0.810918,-0.385301,-1.203558,-1.717065,1.693913,-9.259661,-4.928825,-1.372217,3.604207,37.040500,-29.351590,-0.206297,0.147220,0.000000,-0.509156,1.068669,0.000000
3.550000,1.796172,-0.309578,-1.459828,2.040678,0.793507,-0.368435,-1.295934,-1.764495,1.678750,-9.211357,-4.556893,-1.657922,6.044169,37.324347,-27.779976,-0.211104,0.158048,0.000000,-0.452316,1.049258,0.000000
3.560000,1.816512,-0.301732,-1.463429,2.027259,0.775640,-0.351735,-1.387692,-1.808187,1.660808,-9.137837,-4.182051,-1.927632,8.374563,37.462328,-26.156179,-0.215345,0.168668,0.000000,-0.396081,1.026309,0.000000
3.570000,1.836714,-0.294067,-1.466863,2.012927,0.757356,-0.335227,-1.478614,-1.848134,1.640252,-9.042787,-3.807252,-2.180892,10.620997,37.477360,-24.489312,-0.219029,0.179048,0.000000,-0.340957,1.000487,0.000000
3.580000,1.856768,-0.286587,-1.470134,1.997690,0.738690,-0.318938,-1.568475,-1.884334,1.617247,-8.925713,-3.432897,-2.417306,12.778662,37.374353,-22.788727,-0.222169,0.189158,0.000000,-0.287143,0.971964,-0.000000
3.590000,1.876665,-0.279294,-1.473243,1.981562,0.719682,-0.302890,-1.657058,-1.916797,1.591963,-8.787526,-3.060142,-2.636585,14.842753,37.158216,-21.063773,-0.224777,0.198969,0.000000,-0.234884,0.941073,0.000000
3.600000,1.896396,-0.272194,-1.476193,1.964554,0.700367,-0.287106,-1.744158,-1.945546,1.564573,-8.629186,-2.690094,-2.838532,16.808461,36.833857,-19.323801,-0.226872,0.208457,0.000000,-0.184383,0.908135,-0.000000
3.610000,1.915953,-0.265288,-1.478986,1.946684,0.680783,-0.271605,-1.829566,-1.970607,1.535256,-8.450568,-2.323333,-3.022530,18.642373,36.394146,-17.591087,-0.228471,0.217602,0.000000,-0.135775,0.873351,-0.000000
3.620000,1.935327,-0.258579,-1.481626,1.927969,0.660967,-0.256407,-1.913110,-1.992029,1.504180,-8.255410,-1.961997,-3.189783,20.371791,35.857504,-15.860472,-0.229594,0.226385,0.000000,-0.089271,0.837291,0.000000
3.630000,1.954510,-0.252069,-1.484115,1.908428,0.640954,-0.241527,-1.994618,-2.009866,1.471518,-8.043485,-1.606485,-3.339773,21.995412,35.230316,-14.139722,-0.230264,0.234794,0.000000,-0.044930,0.800101,0.000000
3.640000,1.973493,-0.245760,-1.486458,1.888084,0.620781,-0.226981,-2.073927,-2.024181,1.437442,-7.815859,-1.257671,-3.472636,23.511931,34.518964,-12.436605,-0.230501,0.242818,0.000000,-0.002818,0.762040,-0.000000
3.650000,1.992269,-0.239654,-1.488656,1.866958,0.600482,-0.212782,-2.150886,-2.035044,1.402121,-7.573608,-0.916365,-3.588589,24.920045,33.729832,-10.758888,-0.230328,0.250447,0.000000,0.037026,0.723346,0.000000
3.660000,2.010830,-0.233751,-1.490714,1.845074,0.580091,-0.198942,-2.225344,-2.042534,1.365734,-7.316903,-0.583197,-3.687129,26.195198,32.866399,-9.134430,-0.229768,0.257675,0.000000,0.074576,0.684161,0.000000
3.670000,2.029168,-0.228052,-1.492636,1.822459,0.559642,-0.185471,-2.297184,-2.046738,1.328432,-7.049026,-0.259123,-3.770509,27.362184,31.938308,-7.548446,-0.228844,0.264499,0.000000,0.109868,0.644862,0.000000
3.680000,2.047276,-0.222558,-1.494425,1.799139,0.539167,-0.172376,-2.366288,-2.047749,1.290376,-6.770015,0.055376,-3.838244,28.422547,30.952295,-6.006242,-0.227578,0.270917,0.000000,0.142914,0.605533,-0.000000
3.690000,2.065148,-0.217269,-1.496085,1.775143,0.518698,-0.159665,-2.432550,-2.045664,1.251718,-6.480926,0.359753,-3.890798,29.377829,29.915101,-4.513126,-0.225993,0.276930,0.000000,0.173752,0.566327,0.000000
3.700000,2.082777,-0.212184,-1.497620,1.750498,0.498264,-0.147343,-2.495876,-2.040589,1.212609,-6.182803,0.653530,-3.928688,30.229573,28.833462,-3.074405,-0.224110,0.282540,0.000000,0.202436,0.527377,-0.000000
3.710000,2.100156,-0.207304,-1.499033,1.725235,0.477896,-0.135414,-2.556174,-2.032634,1.173201,-5.876147,0.936001,-3.951626,30.966014,27.721582,-1.717065,-0.221952,0.287749,0.000000,0.228974,0.488768,0.000000
3.720000,2.117280,-0.202626,-1.500329,1.699385,0.457621,-0.123880,-2.613376,-2.021907,1.133620,-5.563218,1.207522,-3.962269,31.603633,26.577822,-0.422079,-0.219537,0.292563,0.000000,0.253568,0.450664,0.000000
3.730000,2.134142,-0.198151,-1.501512,1.672978,0.437466,-0.112742,-2.667419,-2.008522,1.093997,-5.244394,1.467470,-3.960285,32.145603,25.408004,0.807902,-0.216887,0.296986,0.000000,0.276231,0.413113,0.000000
3.740000,2.150738,-0.193876,-1.502585,1.646047,0.417459,-0.102000,-2.718248,-1.992596,1.054455,-4.920614,1.715615,-3.946337,32.595094,24.217955,1.970227,-0.214019,0.301025,0.000000,0.297043,0.376180,0.000000
3.750000,2.167061,-0.189801,-1.503553,1.618624,0.397622,-0.091652,-2.765818,-1.974249,1.015108,-4.592789,1.951781,-3.921115,32.955280,23.013498,3.062242,-0.210952,0.304688,0.000000,0.316087,0.339918,0.000000
3.760000,2.183109,-0.185923,-1.504420,1.590742,0.377981,-0.081697,-2.810091,-1.953607,0.976076,-4.261654,2.175325,-3.884569,33.225744,21.813855,4.061947,-0.207703,0.307981,0.000000,0.333378,0.304377,-0.000000
3.770000,2.198875,-0.182241,-1.505189,1.562433,0.358558,-0.072130,-2.851043,-1.930783,0.937449,-3.928389,2.387446,-3.839256,33.413687,20.609813,4.988408,-0.204289,0.310912,0.000000,0.349170,0.269564,0.000000
3.780000,2.214356,-0.178751,-1.505864,1.533732,0.339373,-0.062946,-2.888654,-1.905898,0.899320,-3.593643,2.587521,-3.785046,33.522722,19.405557,5.841342,-0.200725,0.313489,0.000000,0.363465,0.235510,0.000000
3.790000,2.229548,-0.175452,-1.506449,1.504671,0.320446,-0.054141,-2.922914,-1.879073,0.861775,-3.258186,2.775570,-3.722675,33.556459,18.205269,6.620468,-0.197025,0.315721,0.000000,0.376344,0.202229,0.000000
3.800000,2.244448,-0.172341,-1.506948,1.475285,0.301797,-0.045709,-2.953818,-1.850427,0.824892,-2.922753,2.951654,-3.652883,33.518512,17.013133,7.325502,-0.193203,0.317616,0.000000,0.387889,0.169729,-0.000000
3.810000,2.259053,-0.169415,-1.507364,1.445606,0.283443,-0.037641,-2.981372,-1.820085,0.788746,-2.588099,3.115383,-3.575820,33.413916,15.845737,7.941187,-0.189272,0.319183,0.000000,0.398116,0.138033,-0.000000
3.820000,2.273360,-0.166671,-1.507702,1.415669,0.265401,-0.029931,-3.005585,-1.788158,0.753394,-2.254754,3.268065,-3.493634,33.244685,14.693342,8.484048,-0.185244,0.320430,0.000000,0.407244,0.107080,-0.000000
3.830000,2.287366,-0.164106,-1.507964,1.385506,0.247685,-0.022571,-3.026473,-1.754761,0.718890,-1.923409,3.409309,-3.406377,33.014256,13.558615,8.955637,-0.181131,0.321365,0.000000,0.415275,0.076891,-0.000000
3.840000,2.301069,-0.161717,-1.508154,1.355150,0.230310,-0.015551,-3.044061,-1.720009,0.685281,-1.594661,3.539305,-3.314754,32.726066,12.444222,9.357504,-0.176942,0.321996,0.000000,0.422277,0.047455,-0.000000
3.850000,2.314468,-0.159499,-1.508276,1.324635,0.213289,-0.008862,-3.058377,-1.684012,0.652608,-1.269069,3.658270,-3.219454,32.383552,11.352827,9.691201,-0.172688,0.322332,0.000000,0.428315,0.018760,0.000000
3.860000,2.327561,-0.157450,-1.508333,1.293994,0.196634,-0.002495,-3.069458,-1.646884,0.620907,-0.947403,3.765996,-3.120757,31.996315,10.298482,9.948302,-0.168379,0.322380,0.000000,0.433399,-0.009172,-0.000000
3.870000,2.340348,-0.155565,-1.508327,1.263257,0.180355,0.003559,-3.077339,-1.608727,0.590200,-0.629578,3.863821,-3.020255,31.560875,9.271073,10.141555,-0.164023,0.322148,0.000000,0.437708,-0.036443,0.000000
3.880000,2.352826,-0.153841,-1.508262,1.232457,0.164463,0.009312,-3.082065,-1.569642,0.560507,-0.316338,3.951512,-2.918129,31.079915,8.271870,10.273734,-0.159628,0.321644,0.000000,0.441237,-0.063026,-0.000000
3.890000,2.364997,-0.152274,-1.508142,1.201626,0.148965,0.014773,-3.083682,-1.529729,0.531841,-0.008123,4.029357,-2.814975,30.556118,7.302144,10.347611,-0.155201,0.320874,0.000000,0.444037,-0.088936,0.000000
3.900000,2.376859,-0.150861,-1.507968,1.170794,0.133870,0.019952,-3.082245,-1.489087,0.504209,0.294651,4.097657,-2.711362,29.992166,6.363168,10.365959,-0.150749,0.319846,0.000000,0.446155,-0.114187,0.000000
3.910000,2.388413,-0.149596,-1.507744,1.139991,0.119186,0.024861,-3.077811,-1.447812,0.477615,0.591392,4.156298,-2.607639,29.395882,5.467041,10.326681,-0.146280,0.318566,0.000000,0.447591,-0.138767,0.000000
3.920000,2.399659,-0.148476,-1.507472,1.109248,0.104916,0.029508,-3.070438,-1.405990,0.452054,0.882221,4.206621,-2.504776,28.764180,4.602879,10.238016,-0.141799,0.317042,0.000000,0.448491,-0.162749,0.000000
3.930000,2.410598,-0.147496,-1.507154,1.078592,0.091067,0.033905,-3.060188,-1.363708,0.427516,1.166564,4.248462,-2.403032,28.099114,3.770628,10.103330,-0.137312,0.315280,0.000000,0.448842,-0.186114,-0.000000
3.940000,2.421231,-0.146653,-1.506794,1.048053,0.077643,0.038062,-3.047129,-1.321048,0.403988,1.444099,4.282140,-2.302851,27.402738,2.970233,9.925994,-0.132824,0.313287,0.000000,0.448677,-0.208871,-0.000000
3.950000,2.431559,-0.145942,-1.506394,1.017659,0.064647,0.041988,-3.031330,-1.278091,0.381453,1.714522,4.307972,-2.204643,26.677106,2.201639,9.709376,-0.128340,0.311068,0.000000,0.448028,-0.231026,-0.000000
3.960000,2.441585,-0.145358,-1.505955,0.987435,0.052082,0.045694,-3.012864,-1.234915,0.359888,1.977494,4.326110,-2.108750,25.925686,1.469039,9.455999,-0.123866,0.308630,0.000000,0.446906,-0.252577,0.000000
3.970000,2.451309,-0.144899,-1.505481,0.957410,0.039950,0.049189,-2.991806,-1.191593,0.339269,2.232888,4.337268,-2.015594,25.148943,0.767612,9.170181,-0.119404,0.305980,0.000000,0.445375,-0.273543,0.000000
3.980000,2.460734,-0.144558,-1.504972,0.927608,0.028251,0.052482,-2.968233,-1.148193,0.319566,2.480395,4.341564,-1.925443,24.348759,0.096780,8.855393,-0.114959,0.303122,0.000000,0.443440,-0.293916,0.000000
3.990000,2.469862,-0.144332,-1.504432,0.898053,0.016986,0.055583,-2.942225,-1.104783,0.300749,2.719791,4.339303,-1.838571,23.527014,-0.544029,8.515109,-0.110536,0.300064,0.000000,0.441121,-0.313696,0.000000
4.000000,2.478696,-0.144217,-1.503861,0.868771,0.006155,0.058500,-2.913864,-1.061428,0.282783,2.950870,4.330782,-1.755214,22.685587,-1.155392,8.152799,-0.106138,0.296812,0.000000,0.438436,-0.332879,-0.000000
4.010000,2.487238,-0.144208,-1.503262,0.839784,-0.004243,0.061242,-2.883236,-1.018188,0.265631,3.173427,4.316276,-1.675665,21.826786,-1.737491,7.774183,-0.101769,0.293371,0.000000,0.435400,-0.351460,0.000000
4.020000,2.495492,-0.144300,-1.502637,0.811114,-0.014210,0.063815,-2.850425,-0.975121,0.249257,3.387333,4.296109,-1.599882,20.952013,-2.291340,7.380210,-0.097431,0.289748,0.000000,0.432030,-0.369432,-0.000000
4.030000,2.503462,-0.144490,-1.501986,0.782782,-0.023746,0.066229,-2.815519,-0.932283,0.233620,3.592420,4.270541,-1.528102,20.063097,-2.817564,6.974079,-0.093129,0.285949,0.000000,0.428337,-0.386785,-0.000000
4.040000,2.511149,-0.144774,-1.501313,0.754810,-0.032856,0.068490,-2.778606,-0.889727,0.218681,3.788554,4.239847,-1.460430,19.161864,-3.316785,6.558986,-0.088866,0.281981,0.000000,0.424334,-0.403512,-0.000000
4.050000,2.518559,-0.145146,-1.500617,0.727216,-0.041542,0.070605,-2.739778,-0.847503,0.204398,3.975622,4.204294,-1.396941,18.250145,-3.789626,6.138127,-0.084643,0.277849,0.000000,0.420030,-0.419600,0.000000
4.060000,2.525695,-0.145603,-1.499901,0.700020,-0.049808,0.072580,-2.699124,-0.805657,0.190726,4.153600,4.164122,-1.337882,17.327949,-4.236228,5.719903,-0.080466,0.273561,0.000000,0.415435,-0.435049,-0.000000
4.070000,2.532561,-0.146141,-1.499166,0.673240,-0.057657,0.074422,-2.656737,-0.764235,0.177626,4.322240,4.119631,-1.282775,16.399146,-4.657755,5.301670,-0.076336,0.269122,0.000000,0.410558,-0.449818,0.000000
4.080000,2.539161,-0.146755,-1.498413,0.646891,-0.065094,0.076135,-2.612710,-0.723278,0.165056,4.481568,4.071048,-1.231840,15.465785,-5.054888,4.885990,-0.072256,0.264540,0.000000,0.405409,-0.463908,0.000000
4.090000,2.545500,-0.147441,-1.497644,0.620991,-0.072124,0.077724,-2.567136,-0.682827,0.152975,4.631548,4.018612,-1.185039,14.529918,-5.428310,4.475421,-0.068228,0.259822,0.000000,0.399993,-0.477304,0.000000
4.100000,2.551583,-0.148196,-1.496859,0.595553,-0.078752,0.079196,-2.520110,-0.642918,0.141342,4.772165,3.962558,-1.142306,13.593595,-5.778703,4.072524,-0.064257,0.254974,0.000000,0.394320,-0.489994,-0.000000
4.110000,2.557413,-0.149015,-1.496060,0.570593,-0.084984,0.080553,-2.471725,-0.603587,0.130113,4.903386,3.903129,-1.103829,12.659854,-6.107152,3.686801,-0.060343,0.250004,0.000000,0.388399,-0.501968,0.000000
4.120000,2.562996,-0.149894,-1.495248,0.546123,-0.090826,0.081799,-2.422073,-0.564866,0.119253,5.025329,3.840506,-1.068840,11.729638,-6.413885,3.313019,-0.056490,0.244919,0.000000,0.382229,-0.513206,0.000000
4.130000,2.568337,-0.150830,-1.494425,0.522155,-0.096284,0.082939,-2.371249,-0.526786,0.108724,5.137997,3.774921,-1.037523,10.804878,-6.699536,2.952890,-0.052699,0.239726,0.000000,0.375823,-0.523702,-0.000000
4.140000,2.573441,-0.151819,-1.493590,0.498702,-0.101364,0.083975,-2.319344,-0.489377,0.098491,5.241452,3.706583,-1.009731,9.887503,-6.964738,2.608123,-0.048974,0.234433,0.000000,0.369186,-0.533444,-0.000000
4.150000,2.578313,-0.152856,-1.492745,0.475772,-0.106073,0.084909,-2.266451,-0.452663,0.088518,5.335778,3.635693,-0.985304,8.979443,-7.210123,2.280427,-0.045316,0.229047,0.000000,0.362329,-0.542424,0.000000
4.160000,2.582958,-0.153939,-1.491892,0.453376,-0.110420,0.085746,-2.212660,-0.416670,0.078771,5.420924,3.562469,-0.964356,8.086518,-7.436941,1.978977,-0.041728,0.223576,0.000000,0.355261,-0.550625,0.000000
4.170000,2.587382,-0.155064,-1.491031,0.431521,-0.114409,0.086486,-2.158062,-0.381421,0.069221,5.497377,3.487043,-0.945992,7.206291,-7.645132,1.697106,-0.038212,0.218027,0.000000,0.347983,-0.558064,0.000000
4.180000,2.591590,-0.156226,-1.490163,0.410217,-0.118050,0.087131,-2.102742,-0.346936,0.059842,5.565097,3.409627,-0.930346,6.340218,-7.835252,1.435608,-0.034769,0.212409,0.000000,0.340509,-0.564725,0.000000
4.190000,2.595588,-0.157423,-1.489288,0.389469,-0.121351,0.087683,-2.046788,-0.313235,0.050606,5.624233,3.330397,-0.917209,5.489751,-8.007859,1.195280,-0.031402,0.206729,0.000000,0.332847,-0.570608,0.000000
4.200000,2.599382,-0.158652,-1.488409,0.369283,-0.124318,0.088143,-1.990285,-0.280334,0.041490,5.674949,3.249526,-0.906367,4.656344,-8.163509,0.976919,-0.028113,0.200994,0.000000,0.325009,-0.575712,0.000000
4.210000,2.602976,-0.159909,-1.487526,0.349665,-0.126960,0.088513,-1.933318,-0.248249,0.032469,5.717268,3.167200,-0.897876,3.845331,-8.303223,0.788408,-0.024902,0.195213,0.000000,0.317007,-0.580029,0.000000
4.220000,2.606377,-0.161190,-1.486639,0.330618,-0.129286,0.088793,-1.875967,-0.216994,0.023527,5.751747,3.083535,-0.890840,3.053810,-8.427038,0.622587,-0.021773,0.189392,0.000000,0.308846,-0.583586,-0.000000
4.230000,2.609590,-0.162493,-1.485750,0.312146,-0.131303,0.088984,-1.818310,-0.186582,0.014647,5.778413,2.998710,-0.885349,2.282762,-8.535453,0.479385,-0.018726,0.183541,0.000000,0.300542,-0.586380,0.000000
4.240000,2.612622,-0.163815,-1.484860,0.294252,-0.133020,0.089086,-1.760424,-0.157023,0.005815,5.797474,2.912876,-0.881177,1.533165,-8.628969,0.358730,-0.015763,0.177665,0.000000,0.292107,-0.588418,0.000000
4.250000,2.615477,-0.165153,-1.483969,0.276938,-0.134446,0.089100,-1.702385,-0.128327,-0.002980,5.809151,2.826179,-0.878099,0.805998,-8.708086,0.260550,-0.012884,0.171773,0.000000,0.283553,-0.589712,-0.000000
4.260000,2.618162,-0.166503,-1.483078,0.260205,-0.135590,0.089027,-1.644266,-0.100502,-0.011752,5.813522,2.738775,-0.876114,0.106023,-8.773664,0.190415,-0.010092,0.165873,0.000000,0.274896,-0.590262,0.000000
4.270000,2.620683,-0.167864,-1.482189,0.244053,-0.136459,0.088865,-1.586137,-0.073554,-0.020505,5.811182,2.650766,-0.874470,-0.570026,-8.825799,0.141920,-0.007387,0.159970,0.000000,0.266143,-0.590111,0.000000
4.280000,2.623045,-0.169231,-1.481301,0.228482,-0.137064,0.088617,-1.528065,-0.047488,-0.029243,5.802203,2.562302,-0.873206,-1.221636,-8.864946,0.114305,-0.004769,0.154072,0.000000,0.257313,-0.589264,-0.000000
4.290000,2.625255,-0.170604,-1.480417,0.213491,-0.137412,0.088281,-1.470114,-0.022309,-0.037969,5.786833,2.473509,-0.872117,-1.848289,-8.891562,0.106805,-0.002240,0.148187,0.000000,0.248417,-0.587738,0.000000
4.300000,2.627317,-0.171979,-1.479536,0.199079,-0.137513,0.087857,-1.412349,0.001981,-0.046685,5.765322,2.384511,-0.871006,-2.449469,-8.906102,0.118659,0.000199,0.142320,0.000000,0.239471,-0.585555,0.000000
4.310000,2.629238,-0.173354,-1.478660,0.185244,-0.137375,0.087347,-1.354829,0.025381,-0.055390,5.737785,2.295436,-0.869823,-3.021018,-8.909283,0.152649,0.002549,0.136478,0.000000,0.230490,-0.582724,0.000000
4.320000,2.631024,-0.174726,-1.477789,0.171982,-0.137008,0.086750,-1.297612,0.047890,-0.064080,5.704826,2.206374,-0.868053,-3.566509,-8.901269,0.204033,0.004809,0.130667,0.000000,0.221484,-0.579299,-0.000000
4.330000,2.632680,-0.176093,-1.476925,0.159290,-0.136420,0.086065,-1.240750,0.069509,-0.072749,5.666542,2.117447,-0.865688,-4.085874,-8.882483,0.271614,0.006978,0.124894,0.000000,0.212470,-0.575292,-0.000000
4.340000,2.634212,-0.177453,-1.476068,0.147165,-0.135621,0.085295,-1.184298,0.090240,-0.081391,5.623196,2.028759,-0.862571,-4.579043,-8.853350,0.354197,0.009058,0.119163,0.000000,0.203461,-0.570730,-0.000000
4.350000,2.635625,-0.178805,-1.475219,0.135603,-0.134618,0.084438,-1.128302,0.110086,-0.089998,5.575049,1.940413,-0.858558,-5.045946,-8.814293,0.450584,0.011048,0.113480,0.000000,0.194471,-0.565638,0.000000
4.360000,2.636925,-0.180145,-1.474380,0.124598,-0.133422,0.083495,-1.072813,0.129050,-0.098560,5.522240,1.852509,-0.853569,-5.483367,-8.765826,0.560884,0.012948,0.107851,0.000000,0.185513,-0.560035,0.000000
4.370000,2.638119,-0.181473,-1.473550,0.114145,-0.132040,0.082467,-1.017872,0.147137,-0.107065,5.465328,1.765131,-0.847361,-5.894768,-8.708273,0.682435,0.014758,0.102280,0.000000,0.176599,-0.553976,0.000000
4.380000,2.639210,-0.182785,-1.472731,0.104238,-0.130482,0.081354,-0.963520,0.164354,-0.115503,5.404430,1.678372,-0.839887,-6.280467,-8.642047,0.813880,0.016480,0.096772,0.000000,0.167742,-0.547480,0.000000
4.390000,2.640205,-0.184082,-1.471923,0.094872,-0.128756,0.080157,-0.909796,0.180707,-0.123859,5.339803,1.592317,-0.831055,-6.640780,-8.567562,0.953864,0.018113,0.091331,0.000000,0.158953,-0.540574,-0.000000
4.400000,2.641109,-0.185360,-1.471128,0.086040,-0.126871,0.078877,-0.856735,0.196203,-0.132119,5.271698,1.507047,-0.820786,-6.976022,-8.485231,1.101029,0.019659,0.085960,0.000000,0.150245,-0.533289,0.000000
4.410000,2.641928,-0.186619,-1.470346,0.077735,-0.124835,0.077515,-0.804374,0.210851,-0.140269,5.200262,1.422649,-0.808989,-7.283894,-8.395759,1.253354,0.021118,0.080664,0.000000,0.141628,-0.525645,0.000000
4.420000,2.642666,-0.187856,-1.469578,0.069950,-0.122657,0.076072,-0.752740,0.224659,-0.148294,5.125984,1.339168,-0.795674,-7.567648,-8.299231,1.410229,0.022492,0.075446,0.000000,0.133111,-0.517695,0.000000
4.430000,2.643329,-0.189071,-1.468825,0.062678,-0.120344,0.074550,-0.701863,0.237638,-0.156177,5.048987,1.256687,-0.780773,-7.827921,-8.196026,1.570379,0.023781,0.070308,0.000000,0.124703,-0.509458,0.000000
4.440000,2.643921,-0.190263,-1.468087,0.055910,-0.117907,0.072949,-0.651768,0.249797,-0.163904,4.969502,1.175269,-0.764260,-8.065348,-8.086521,1.732528,0.024987,0.065255,0.000000,0.116414,-0.500961,0.000000
4.450000,2.644448,-0.191429,-1.467366,0.049640,-0.115351,0.071272,-0.602480,0.261147,-0.171457,4.887754,1.094976,-0.746120,-8.280566,-7.971094,1.895402,0.026110,0.060287,0.000000,0.108252,-0.492234,0.000000
4.460000,2.644916,-0.192569,-1.466662,0.043858,-0.112686,0.069520,-0.554021,0.271700,-0.178820,4.803885,1.015885,-0.726271,-8.472265,-7.850610,2.055631,0.027152,0.055407,0.000000,0.100226,-0.483293,-0.000000
4.470000,2.645327,-0.193682,-1.465976,0.038557,-0.109920,0.067696,-0.506409,0.281469,-0.185977,4.718291,0.938003,-0.704919,-8.643266,-7.724900,2.214291,0.028115,0.050618,0.000000,0.092337,-0.474187,0.000000
4.480000,2.645688,-0.194767,-1.465308,0.033727,-0.107060,0.065802,-0.459661,0.290465,-0.192913,4.631086,0.861403,-0.681993,-8.794444,-7.594281,2.370363,0.028999,0.045920,0.000000,0.084596,-0.464929,0.000000
4.490000,2.646003,-0.195823,-1.464660,0.029360,-0.104113,0.063839,-0.413792,0.298701,-0.199612,4.542465,0.786133,-0.657524,-8.926674,-7.459072,2.522827,0.029807,0.041316,0.000000,0.077005,-0.455545,0.000000
4.500000,2.646277,-0.196849,-1.464032,0.025448,-0.101088,0.061810,-0.368815,0.306192,-0.206058,4.452613,0.712236,-0.631552,-9.040830,-7.319590,2.670665,0.030540,0.036806,0.000000,0.069572,-0.446056,-0.000000
4.510000,2.646514,-0.197845,-1.463424,0.021981,-0.097992,0.059719,-0.324743,0.312951,-0.212237,4.361682,0.639791,-0.604016,-9.137182,-7.177083,2.809996,0.031199,0.032391,0.000000,0.062304,-0.436482,-0.000000
4.520000,2.646718,-0.198809,-1.462837,0.018950,-0.094831,0.057566,-0.281585,0.318993,-0.218134,4.269896,0.568748,-0.575246,-9.217284,-7.030825,2.943013,0.031787,0.028072,0.000000,0.055194,-0.426850,-0.000000
4.530000,2.646894,-0.199741,-1.462273,0.016346,-0.091614,0.055357,-0.239348,0.324331,-0.223737,4.177387,0.499186,-0.545179,-9.282086,-6.881021,3.069049,0.032304,0.023850,0.000000,0.048252,-0.417175,-0.000000
4.540000,2.647046,-0.200641,-1.461730,0.014160,-0.088347,0.053093,-0.198039,0.328981,-0.229034,4.084303,0.431139,-0.513890,-9.332536,-6.727874,3.187434,0.032752,0.019724,0.000000,0.041480,-0.407475,0.000000
4.550000,2.647179,-0.201508,-1.461211,0.012382,-0.085037,0.050777,-0.157663,0.332959,-0.234011,3.990781,0.364639,-0.481458,-9.369584,-6.571589,3.297501,0.033134,0.015696,0.000000,0.034880,-0.397765,0.000000
4.560000,2.647295,-0.202342,-1.460715,0.011004,-0.081690,0.048414,-0.118225,0.336280,-0.238658,3.896924,0.299726,-0.447851,-9.393463,-6.412599,3.395579,0.033450,0.011765,0.000000,0.028455,-0.388059,-0.000000
4.570000,2.647400,-0.203142,-1.460243,0.010015,-0.078313,0.046005,-0.079725,0.338959,-0.242965,3.802918,0.236406,-0.413444,-9.405925,-6.250851,3.484370,0.033703,0.007930,0.000000,0.022205,-0.378376,0.000000
4.580000,2.647497,-0.203908,-1.459795,0.009406,-0.074913,0.043555,-0.042166,0.341013,-0.246924,3.708840,0.174718,-0.378196,-9.408006,-6.086521,3.563571,0.033895,0.004193,0.000000,0.016131,-0.368724,0.000000
4.590000,2.647589,-0.204640,-1.459372,0.009168,-0.071495,0.041068,-0.005548,0.342459,-0.250527,3.614789,0.114684,-0.342205,-9.400744,-5.919785,3.632882,0.034027,0.000551,0.000000,0.010236,-0.359115,-0.000000
4.600000,2.647681,-0.205338,-1.458974,0.009292,-0.068066,0.038546,0.030130,0.343312,-0.253766,3.520853,0.056329,-0.305572,-9.385175,-5.750818,3.692003,0.034100,-0.002994,0.000000,0.004520,-0.349557,0.000000
4.610000,2.647776,-0.206001,-1.458601,0.009768,-0.064631,0.035994,0.064870,0.343591,-0.256635,3.427124,-0.000303,-0.268294,-9.362705,-5.580365,3.737954,0.034118,-0.006444,0.000000,-0.001013,-0.340060,0.000000
4.620000,2.647878,-0.206630,-1.458254,0.010586,-0.061196,0.033415,0.098673,0.343312,-0.259131,3.333636,-0.055246,-0.230729,-9.333955,-5.407964,3.773440,0.034081,-0.009799,0.000000,-0.006371,-0.330626,0.000000
4.630000,2.647989,-0.207225,-1.457933,0.011738,-0.057766,0.030812,0.131543,0.342492,-0.261249,3.240463,-0.108456,-0.192860,-9.299917,-5.233722,3.798488,0.033991,-0.013061,0.000000,-0.011549,-0.321263,-0.000000
4.640000,2.648114,-0.207786,-1.457638,0.013214,-0.054348,0.028191,0.163484,0.341149,-0.262987,3.147652,-0.159915,-0.154793,-9.261582,-5.057745,3.813125,0.033850,-0.016228,0.000000,-0.016546,-0.311974,0.000000
4.650000,2.648255,-0.208312,-1.457369,0.015005,-0.050945,0.025554,0.194498,0.339300,-0.264344,3.055242,-0.209606,-0.116632,-9.219941,-4.880140,3.817378,0.033661,-0.019304,0.000000,-0.021365,-0.302762,-0.000000
4.660000,2.648415,-0.208805,-1.457127,0.017101,-0.047563,0.022905,0.224590,0.336963,-0.265319,2.963300,-0.257462,-0.078401,-9.176957,-4.702292,3.809275,0.033424,-0.022287,0.000000,-0.025997,-0.293631,-0.000000
4.670000,2.648598,-0.209263,-1.456911,0.019494,-0.044207,0.020249,0.253765,0.334156,-0.265913,2.871751,-0.303589,-0.040391,-9.132530,-4.522872,3.791086,0.033141,-0.025180,0.000000,-0.030458,-0.284574,-0.000000
4.680000,2.648806,-0.209689,-1.456722,0.022173,-0.040882,0.017588,0.282027,0.330897,-0.266128,2.780651,-0.347914,-0.002612,-9.087533,-4.341829,3.763082,0.032815,-0.027982,0.000000,-0.034739,-0.275593,0.000000
4.690000,2.649042,-0.210081,-1.456559,0.025131,-0.037591,0.014927,0.309380,0.327204,-0.265966,2.690000,-0.390420,0.034839,-9.042838,-4.159112,3.725535,0.032447,-0.030695,0.000000,-0.038842,-0.266686,-0.000000
4.700000,2.649309,-0.210441,-1.456423,0.028358,-0.034339,0.012270,0.335828,0.323095,-0.265432,2.599790,-0.431090,0.071867,-8.999317,-3.974672,3.678717,0.032039,-0.033319,0.000000,-0.042766,-0.257851,-0.000000
4.710000,2.649610,-0.210768,-1.456314,0.031845,-0.031130,0.009620,0.361377,0.318588,-0.264530,2.510008,-0.469912,0.108428,-8.957872,-3.788348,3.621756,0.031592,-0.035855,0.000000,-0.046509,-0.249085,-0.000000
4.720000,2.649947,-0.211064,-1.456231,0.035582,-0.027969,0.006981,0.386030,0.313703,-0.263266,2.420624,-0.506856,0.144325,-8.919343,-3.600213,3.556206,0.031109,-0.038303,0.000000,-0.050073,-0.240381,-0.000000
4.730000,2.650323,-0.211328,-1.456174,0.039562,-0.024857,0.004356,0.409791,0.308458,-0.261646,2.331608,-0.541910,0.179525,-8.884597,-3.410230,3.482479,0.030591,-0.040665,0.000000,-0.053454,-0.231735,0.000000
4.740000,2.650739,-0.211561,-1.456144,0.043775,-0.021801,0.001749,0.432663,0.302871,-0.259678,2.242917,-0.575054,0.213949,-8.854503,-3.218361,3.400987,0.030041,-0.042941,0.000000,-0.056654,-0.223140,-0.000000
4.750000,2.651199,-0.211764,-1.456139,0.048213,-0.018801,-0.000837,0.454650,0.296963,-0.257370,2.154500,-0.606271,0.247520,-8.829930,-3.024570,3.312141,0.029459,-0.045130,0.000000,-0.059669,-0.214588,0.000000
4.760000,2.651704,-0.211937,-1.456160,0.052865,-0.015862,-0.003397,0.475759,0.290752,-0.254730,2.066788,-0.635545,0.280181,-8.824145,-2.828667,3.216041,0.028848,-0.047235,0.000000,-0.062501,-0.206119,-0.000000
4.770000,2.652257,-0.212081,-1.456207,0.057725,-0.012987,-0.005930,0.495986,0.284259,-0.251769,1.978551,-0.662844,0.311833,-8.824100,-2.630786,3.113449,0.028210,-0.049254,0.000000,-0.065146,-0.197609,0.000000
4.780000,2.652859,-0.212197,-1.456279,0.062782,-0.010178,-0.008432,0.515330,0.277502,-0.248497,1.890289,-0.688154,0.342430,-8.829146,-2.430909,3.004813,0.027546,-0.051189,0.000000,-0.067603,-0.189105,0.000000
4.790000,2.653513,-0.212285,-1.456376,0.068028,-0.007438,-0.010899,0.533791,0.270502,-0.244924,1.801954,-0.711456,0.371911,-8.838631,-2.229017,2.890585,0.026858,-0.053038,0.000000,-0.069871,-0.180600,0.000000
4.800000,2.654220,-0.212346,-1.456497,0.073455,-0.004769,-0.013329,0.551369,0.263280,-0.241063,1.713504,-0.732728,0.400224,-8.851907,-2.025091,2.771212,0.026149,-0.054802,0.000000,-0.071947,-0.172087,-0.000000
4.810000,2.654983,-0.212381,-1.456642,0.079051,-0.002173,-0.015719,0.568124,0.255855,-0.236924,1.630697,-0.751869,0.427303,-9.014625,-1.821185,2.647563,0.025420,-0.056487,0.000000,-0.073823,-0.164135,0.000000
4.820000,2.655802,-0.212390,-1.456811,0.084812,0.000348,-0.018067,0.583977,0.248249,-0.232521,1.539794,-0.769051,0.453142,-9.161920,-1.614955,2.519619,0.024673,-0.058085,0.000000,-0.075514,-0.155378,0.000000
4.830000,2.656679,-0.212374,-1.457003,0.090727,0.002792,-0.020369,0.598915,0.240481,-0.227866,1.447572,-0.784159,0.477682,-9.275227,-1.406129,2.387777,0.023910,-0.059595,0.000000,-0.077008,-0.146487,0.000000
4.840000,2.657617,-0.212334,-1.457218,0.096787,0.005157,-0.022623,0.612926,0.232573,-0.222972,1.354465,-0.797164,0.500886,-9.335983,-1.194435,2.252439,0.023134,-0.061015,0.000000,-0.078304,-0.137501,-0.000000
4.850000,2.658616,-0.212271,-1.457455,0.102983,0.007443,-0.024828,0.626004,0.224545,-0.217853,1.261090,-0.808037,0.522721,-9.325622,-0.979600,2.114001,0.022345,-0.062346,0.000000,-0.079397,-0.128480,-0.000000
4.860000,2.659677,-0.212186,-1.457715,0.109304,0.009648,-0.026980,0.638149,0.216419,-0.212522,1.168251,-0.816745,0.543157,-9.225582,-0.761354,1.972862,0.021546,-0.063586,0.000000,-0.080285,-0.119501,0.000000
4.870000,2.660802,-0.212079,-1.457995,0.115743,0.011771,-0.029077,0.649374,0.208218,-0.206994,1.076939,-0.823252,0.562171,-9.017298,-0.539423,1.829422,0.020740,-0.064737,0.000000,-0.080963,-0.110660,-0.000000
4.880000,2.661992,-0.211951,-1.458296,0.122289,0.013812,-0.031119,0.659697,0.199962,-0.201283,0.988328,-0.827520,0.579739,-8.682206,-0.313536,1.684079,0.019928,-0.065800,0.000000,-0.081427,-0.102074,-0.000000
4.890000,2.663248,-0.211803,-1.458617,0.128934,0.015770,-0.033102,0.669154,0.191675,-0.195404,0.903779,-0.829509,0.595847,-8.201741,-0.083420,1.537231,0.019112,-0.066780,0.000000,-0.081673,-0.093875,-0.000000
4.900000,2.664571,-0.211635,-1.458958,0.135669,0.017645,-0.035026,0.677791,0.183379,-0.189371,0.824840,-0.829174,0.610480,-7.557340,0.151196,1.389277,0.018295,-0.067680,0.000000,-0.081695,-0.086217,0.000000
4.910000,2.665962,-0.211450,-1.459317,0.142487,0.019438,-0.036889,0.685675,0.175099,-0.183200,0.753241,-0.826469,0.623630,-6.730438,0.390585,1.240617,0.017479,-0.068507,0.000000,-0.081488,-0.079272,-0.000000
4.920000,2.667421,-0.211247,-1.459695,0.149380,0.021147,-0.038690,0.692887,0.166858,-0.176904,0.690901,-0.821345,0.635292,-5.702471,0.635018,1.091648,0.016666,-0.069269,0.000000,-0.081047,-0.073231,0.000000
4.930000,2.668950,-0.211027,-1.460091,0.156343,0.022775,-0.040427,0.699531,0.158681,-0.170499,0.639924,-0.813751,0.645464,-4.454875,0.884769,0.942769,0.015859,-0.069975,0.000000,-0.080365,-0.068306,-0.000000
4.940000,2.670548,-0.210792,-1.460504,0.163370,0.024321,-0.042100,0.705731,0.150591,-0.163999,0.602597,-0.803631,0.654149,-2.969087,1.140108,0.794380,0.015060,-0.070639,0.000000,-0.079435,-0.064726,0.000000
4.950000,2.672217,-0.210541,-1.460933,0.170457,0.025787,-0.043707,0.711636,0.142616,-0.157421,0.581398,-0.790929,0.661354,-1.226541,1.401308,0.646878,0.014271,-0.071275,0.000000,-0.078251,-0.062741,0.000000
4.960000,2.673958,-0.210276,-1.461378,0.177602,0.027174,-0.045248,0.717422,0.134782,-0.150777,0.578984,-0.775585,0.667091,0.791327,1.668641,0.500662,0.013495,-0.071901,0.000000,-0.076806,-0.062619,-0.000000
4.970000,2.675770,-0.209998,-1.461838,0.184805,0.028483,-0.046722,0.723288,0.127114,-0.144084,0.598204,-0.757535,0.671373,3.103080,1.942379,0.356131,0.012736,-0.072535,0.000000,-0.075091,-0.064651,0.000000
4.980000,2.677654,-0.209707,-1.462312,0.192069,0.029717,-0.048129,0.729468,0.119640,-0.137355,0.642087,-0.736715,0.674220,5.727282,2.222795,0.213685,0.011995,-0.073202,0.000000,-0.073100,-0.069142,-0.000000
4.990000,2.679611,-0.209404,-1.462800,0.199397,0.030877,-0.049469,0.736223,0.112389,-0.130604,0.713853,-0.713056,0.675655,8.682499,2.510160,0.073720,0.011275,-0.073927,0.000000,-0.070824,-0.076422,-0.000000
5.000000,2.681642,-0.209090,-1.463301,0.206796,0.031966,-0.050742,0.743849,0.105389,-0.123846,0.816903,-0.686488,0.675704,11.987293,2.804746,-0.063363,0.010579,-0.074741,0.000000,-0.068255,-0.086836,0.000000
