time,x,y,z,vx,vy,vz,ax,ay,az,jx,jy,jz,sx,sy,sz,roll,pitch,yaw,p,q,r
0.000000,-2.697971,-0.210516,-1.467701,-0.008294,0.001023,0.004958,0.618543,-0.083867,-0.020118,-20.578949,2.454022,0.101923,493.118735,-40.636228,-5.582631,-0.008515,-0.062840,0.000000,0.247927,2.084478,0.000000
0.010000,-2.698026,-0.210509,-1.467652,-0.003058,0.000301,0.004761,0.436089,-0.061232,-0.019374,-16.040432,2.085131,0.047292,415.969802,-33.281730,-5.343053,-0.006223,-0.044337,0.000000,0.211436,1.628437,-0.000000
0.020000,-2.698037,-0.210509,-1.467605,0.000567,-0.000212,0.004569,0.295299,-0.041933,-0.019164,-12.232563,1.785666,-0.004926,346.918071,-26.743680,-5.099779,-0.004264,-0.030034,0.000000,0.181428,1.243399,0.000000
0.030000,-2.698019,-0.210513,-1.467561,0.002963,-0.000547,0.004376,0.189265,-0.025314,-0.019464,-9.076497,1.547678,-0.054693,285.538147,-20.979356,-4.853138,-0.002575,-0.019253,0.000000,0.157391,0.923159,0.000000
0.040000,-2.697981,-0.210520,-1.467518,0.004447,-0.000726,0.004178,0.111846,-0.010799,-0.020249,-6.497645,1.363643,-0.101978,231.404638,-15.946037,-4.603455,-0.001099,-0.011377,0.000000,0.138713,0.661017,0.000000
0.050000,-2.697932,-0.210527,-1.467477,0.005277,-0.000768,0.003970,0.057623,0.002115,-0.021495,-4.425668,1.226463,-0.146753,184.092150,-11.601002,-4.351056,0.000215,-0.005861,0.000000,0.124744,0.450224,-0.000000
0.060000,-2.697877,-0.210535,-1.467438,0.005661,-0.000687,0.003747,0.021863,0.013864,-0.023176,-2.794483,1.129471,-0.188991,143.175291,-7.901528,-4.096268,0.001410,-0.002223,0.000000,0.114837,0.284230,0.000000
0.070000,-2.697820,-0.210541,-1.467402,0.005763,-0.000493,0.003505,0.000471,0.024817,-0.025266,-1.542261,1.066423,-0.228671,108.228667,-4.804897,-3.839418,0.002523,-0.000048,0.000000,0.108369,0.156810,-0.000000
0.080000,-2.697762,-0.210544,-1.467368,0.005707,-0.000192,0.003240,-0.010053,0.035286,-0.027741,-0.611427,1.031506,-0.265774,78.826884,-2.268385,-3.580832,0.003587,0.001022,0.000000,0.104753,0.062123,-0.000000
0.090000,-2.697706,-0.210544,-1.467337,0.005588,0.000212,0.002949,-0.012651,0.045523,-0.030573,0.051341,1.019331,-0.300283,54.544550,-0.249272,-3.320836,0.004626,0.001286,0.000000,0.103441,-0.005256,0.000000
0.100000,-2.697650,-0.210539,-1.467310,0.005472,0.000718,0.002627,-0.009755,0.055732,-0.033738,0.495111,1.024938,-0.332187,34.956271,1.295164,-3.059758,0.005662,0.000991,0.000000,0.103927,-0.050330,0.000000
0.110000,-2.697596,-0.210529,-1.467285,0.005404,0.001327,0.002273,-0.003329,0.066066,-0.037208,0.764695,1.043794,-0.361476,19.636654,2.407644,-2.797923,0.006709,0.000338,0.000000,0.105748,-0.077667,-0.000000
0.120000,-2.697542,-0.210513,-1.467264,0.005412,0.002040,0.001882,0.005094,0.076638,-0.040959,0.900655,1.071793,-0.388144,8.160305,3.130888,-2.535658,0.007780,-0.000517,0.000000,0.108487,-0.091405,-0.000000
0.130000,-2.697488,-0.210488,-1.467247,0.005509,0.002861,0.001453,0.014360,0.087520,-0.044962,0.939295,1.105257,-0.412189,0.101833,3.507618,-2.273289,0.008881,-0.001457,0.000000,0.111771,-0.095247,0.000000
0.140000,-2.697432,-0.210455,-1.467235,0.005699,0.003792,0.000982,0.023662,0.098751,-0.049194,0.912666,1.140933,-0.433611,-4.964158,3.580556,-2.011144,0.010016,-0.002400,0.000000,0.115268,-0.092459,-0.000000
0.150000,-2.697373,-0.210412,-1.467228,0.005981,0.004837,0.000468,0.032489,0.110337,-0.053626,0.848568,1.175998,-0.452413,-7.463060,3.392423,-1.749548,0.011186,-0.003294,0.000000,0.118694,-0.085873,-0.000000
0.160000,-2.697312,-0.210358,-1.467226,0.006347,0.006000,-0.000091,0.040588,0.122260,-0.058233,0.770544,1.208054,-0.468604,-7.820266,2.985940,-1.488828,0.012389,-0.004113,0.000000,0.121806,-0.077881,-0.000000
0.170000,-2.697246,-0.210292,-1.467230,0.006790,0.007283,-0.000697,0.047919,0.134481,-0.062989,0.697884,1.235131,-0.482194,-6.461169,2.403827,-1.229310,0.013620,-0.004853,0.000000,0.124408,-0.070441,-0.000000
0.180000,-2.697176,-0.210212,-1.467240,0.007303,0.008690,-0.001351,0.054614,0.146941,-0.067868,0.645624,1.255687,-0.493196,-3.811164,1.688807,-0.971321,0.014874,-0.005529,0.000000,0.126343,-0.065075,0.000000
0.190000,-2.697100,-0.210117,-1.467257,0.007881,0.010222,-0.002054,0.060935,0.159570,-0.072845,0.624546,1.268607,-0.501627,-0.295642,0.883601,-0.715188,0.016144,-0.006166,0.000000,0.127503,-0.062871,0.000000
0.200000,-2.697018,-0.210007,-1.467281,0.008522,0.011882,-0.002808,0.067231,0.172286,-0.077892,0.641178,1.273201,-0.507507,3.660003,0.030929,-0.461236,0.017422,-0.006799,0.000000,0.127820,-0.064483,-0.000000
0.210000,-2.696930,-0.209879,-1.467313,0.009188,0.013672,-0.003612,0.075339,0.184869,-0.082987,0.831088,1.256655,-0.510921,4.263687,-0.509393,-0.208245,0.018684,-0.007615,0.000000,0.126000,-0.083595,-0.000000
0.220000,-2.696834,-0.209733,-1.467354,0.009984,0.015583,-0.004468,0.083873,0.197401,-0.088102,0.876756,1.248854,-0.511751,4.868955,-1.050567,0.041722,0.019940,-0.008473,0.000000,0.125071,-0.088116,-0.000000
0.230000,-2.696730,-0.209567,-1.467403,0.010867,0.017619,-0.005374,0.092894,0.209828,-0.093214,0.928429,1.235654,-0.510098,5.462662,-1.588697,0.288148,0.021184,-0.009380,0.000000,0.123602,-0.093238,-0.000000
0.240000,-2.696616,-0.209380,-1.467461,0.011844,0.019779,-0.006332,0.102461,0.222096,-0.098296,0.985927,1.217104,-0.506001,6.031661,-2.119890,0.530518,0.022410,-0.010341,0.000000,0.121602,-0.098942,-0.000000
0.250000,-2.696492,-0.209171,-1.467530,0.012918,0.022061,-0.007340,0.112631,0.234152,-0.103326,1.048936,1.193292,-0.499503,6.562808,-2.640253,0.768315,0.023614,-0.011361,0.000000,0.119080,-0.105195,0.000000
0.260000,-2.696357,-0.208939,-1.467608,0.014096,0.024462,-0.008398,0.123526,0.245931,-0.108279,1.123396,1.163082,-0.490685,6.881719,-3.113920,1.001862,0.024789,-0.012454,0.000000,0.115925,-0.112597,0.000000
0.270000,-2.696210,-0.208682,-1.467698,0.015389,0.026979,-0.009505,0.135109,0.257398,-0.113132,1.193620,1.129635,-0.479522,7.156229,-3.572884,1.229702,0.025931,-0.013615,0.000000,0.112457,-0.119566,-0.000000
0.280000,-2.696049,-0.208399,-1.467799,0.016801,0.029608,-0.010661,0.147407,0.268509,-0.117862,1.266395,1.091673,-0.466112,7.392937,-4.017168,1.451216,0.027036,-0.014847,0.000000,0.108548,-0.126788,0.000000
0.290000,-2.695874,-0.208089,-1.467911,0.018340,0.032347,-0.011862,0.160444,0.279217,-0.122447,1.341375,1.049341,-0.450521,7.598440,-4.446792,1.665784,0.028101,-0.016152,0.000000,0.104216,-0.134229,-0.000000
0.300000,-2.695682,-0.207751,-1.468036,0.020012,0.035191,-0.013109,0.174241,0.289481,-0.126865,1.418282,1.002786,-0.432822,7.779337,-4.861779,1.872788,0.029119,-0.017533,0.000000,0.099475,-0.141862,0.000000
0.310000,-2.695473,-0.207385,-1.468174,0.021828,0.038136,-0.014399,0.188797,0.299259,-0.131096,1.495258,0.952092,-0.413081,7.983751,-5.260578,2.071321,0.030089,-0.018989,0.000000,0.094334,-0.149501,0.000000
0.320000,-2.695245,-0.206988,-1.468324,0.023792,0.041175,-0.015730,0.204152,0.308510,-0.135120,1.576048,0.897552,-0.391412,8.171669,-5.644975,2.261087,0.031005,-0.020525,0.000000,0.088825,-0.157524,-0.000000
0.330000,-2.694997,-0.206561,-1.468488,0.025913,0.044304,-0.017101,0.220324,0.317197,-0.138918,1.658641,0.839240,-0.367891,8.344604,-6.015184,2.441503,0.031864,-0.022142,0.000000,0.082954,-0.165731,-0.000000
0.340000,-2.694726,-0.206102,-1.468666,0.028201,0.047517,-0.018508,0.237331,0.325283,-0.142472,1.742895,0.777295,-0.342615,8.504068,-6.371419,2.611985,0.032663,-0.023842,0.000000,0.076736,-0.174109,-0.000000
0.350000,-2.694432,-0.205611,-1.468859,0.030663,0.050807,-0.019949,0.255187,0.332731,-0.145765,1.828683,0.711857,-0.315686,8.651576,-6.713894,2.771949,0.033398,-0.025627,0.000000,0.070184,-0.182646,0.000000
0.360000,-2.694112,-0.205086,-1.469065,0.033308,0.054169,-0.021422,0.273902,0.339509,-0.148780,1.915241,0.643100,-0.287151,8.805090,-7.043776,2.919237,0.034065,-0.027497,0.000000,0.063316,-0.191268,-0.000000
0.370000,-2.693765,-0.204527,-1.469287,0.036144,0.057595,-0.022924,0.293497,0.345583,-0.151503,2.004014,0.571069,-0.257269,8.947659,-7.360209,3.055033,0.034663,-0.029455,0.000000,0.056135,-0.200121,0.000000
0.380000,-2.693389,-0.203934,-1.469524,0.039181,0.061078,-0.024451,0.313987,0.350920,-0.153921,2.094156,0.495940,-0.226090,9.078781,-7.663292,3.178946,0.035187,-0.031502,0.000000,0.048658,-0.209121,-0.000000
0.390000,-2.692981,-0.203305,-1.469776,0.042427,0.064611,-0.026001,0.335384,0.355492,-0.156021,2.185549,0.417847,-0.193731,9.197954,-7.953121,3.290587,0.035635,-0.033640,0.000000,0.040896,-0.218260,0.000000
0.400000,-2.692539,-0.202641,-1.470044,0.045891,0.068186,-0.027570,0.357702,0.359268,-0.157792,2.278073,0.336922,-0.160320,9.304677,-8.229794,3.389563,0.036004,-0.035870,0.000000,0.032863,-0.227525,0.000000
0.410000,-2.692062,-0.201941,-1.470328,0.049584,0.071794,-0.029156,0.380948,0.362221,-0.159223,2.371487,0.253317,-0.125876,9.401308,-8.493959,3.472755,0.036292,-0.038194,0.000000,0.024572,-0.236896,0.000000
0.420000,-2.691547,-0.201205,-1.470627,0.053514,0.075427,-0.030754,0.405134,0.364326,-0.160307,2.465926,0.167111,-0.090787,9.484135,-8.745096,3.542836,0.036495,-0.040612,0.000000,0.016027,-0.246386,-0.000000
0.430000,-2.690991,-0.200433,-1.470943,0.057690,0.079077,-0.032361,0.430269,0.365555,-0.161037,2.561120,0.078458,-0.055063,9.552308,-8.983233,3.599749,0.036611,-0.043125,0.000000,0.007244,-0.255969,-0.000000
0.440000,-2.690392,-0.199624,-1.471275,0.062122,0.082735,-0.033973,0.456359,0.365887,-0.161407,2.656920,-0.012511,-0.018836,9.604975,-9.208402,3.643438,0.036639,-0.045735,0.000000,-0.001766,-0.265632,0.000000
0.450000,-2.689748,-0.198778,-1.471622,0.066820,0.086392,-0.035588,0.483409,0.365298,-0.161413,2.753165,-0.105667,0.017762,9.641284,-9.420633,3.673846,0.036575,-0.048442,0.000000,-0.010993,-0.275360,-0.000000
0.460000,-2.689055,-0.197896,-1.471986,0.071793,0.090038,-0.037200,0.511423,0.363767,-0.161049,2.849711,-0.200864,0.054735,9.659819,-9.620371,3.687420,0.036418,-0.051246,0.000000,-0.020424,-0.285140,0.000000
0.470000,-2.688311,-0.196977,-1.472366,0.077052,0.093664,-0.038808,0.540403,0.361274,-0.160318,2.946327,-0.298012,0.091623,9.660362,-9.807179,3.688029,0.036166,-0.054148,0.000000,-0.030053,-0.294948,0.000000
0.480000,-2.687513,-0.196023,-1.472762,0.082605,0.097260,-0.040406,0.570350,0.357801,-0.159217,3.042855,-0.396964,0.128454,9.642131,-9.981036,3.676043,0.035817,-0.057149,0.000000,-0.039866,-0.304769,0.000000
0.490000,-2.686658,-0.195032,-1.473174,0.088462,0.100817,-0.041991,0.601260,0.353329,-0.157749,3.139105,-0.497590,0.165103,9.604345,-10.141922,3.651836,0.035368,-0.060248,0.000000,-0.049853,-0.314583,-0.000000
0.500000,-2.685743,-0.194007,-1.473602,0.094633,0.104323,-0.043559,0.633130,0.347844,-0.155916,3.234875,-0.599759,0.201451,9.546220,-10.289815,3.615777,0.034819,-0.063444,0.000000,-0.060001,-0.324371,-0.000000
0.510000,-2.684764,-0.192946,-1.474045,0.101128,0.107770,-0.045108,0.665955,0.341330,-0.153720,3.330008,-0.703316,0.237525,9.465716,-10.425371,3.564591,0.034168,-0.066739,0.000000,-0.070297,-0.334118,0.000000
0.520000,-2.683719,-0.191851,-1.474504,0.107955,0.111147,-0.046633,0.699727,0.333773,-0.151167,3.424173,-0.808193,0.272870,9.363463,-10.547809,3.502744,0.033413,-0.070130,0.000000,-0.080737,-0.343787,-0.000000
0.530000,-2.682604,-0.190723,-1.474978,0.115125,0.114442,-0.048130,0.734435,0.325162,-0.148265,3.517203,-0.914228,0.307547,9.238834,-10.657026,3.431055,0.032553,-0.073618,0.000000,-0.091304,-0.353362,-0.000000
0.540000,-2.681415,-0.189563,-1.475467,0.122647,0.117646,-0.049597,0.770067,0.315485,-0.145019,3.608873,-1.021289,0.341461,9.091200,-10.752918,3.350342,0.031586,-0.077201,0.000000,-0.101986,-0.362818,-0.000000
0.550000,-2.680150,-0.188371,-1.475970,0.130530,0.120748,-0.051029,0.806607,0.304733,-0.141438,3.698948,-1.129242,0.374526,8.919933,-10.835381,3.261425,0.030512,-0.080878,0.000000,-0.112772,-0.372131,-0.000000
0.560000,-2.678804,-0.187148,-1.476487,0.138782,0.123737,-0.052424,0.844040,0.292898,-0.137530,3.787269,-1.237937,0.406785,8.722431,-10.904684,3.162088,0.029330,-0.084646,0.000000,-0.123644,-0.381284,0.000000
0.570000,-2.677373,-0.185896,-1.477018,0.147413,0.126603,-0.053779,0.882346,0.279972,-0.133306,3.873403,-1.347273,0.437883,8.500283,-10.960304,3.056555,0.028039,-0.088506,0.000000,-0.134596,-0.390229,-0.000000
0.580000,-2.675854,-0.184617,-1.477563,0.156432,0.129333,-0.055090,0.921501,0.265951,-0.128776,3.957191,-1.457097,0.467899,8.253101,-11.002094,2.946015,0.026638,-0.092453,0.000000,-0.145609,-0.398949,0.000000
0.590000,-2.674243,-0.183310,-1.478120,0.165846,0.131918,-0.056353,0.961481,0.250829,-0.123952,4.038380,-1.567269,0.496790,7.980499,-11.029904,2.831657,0.025127,-0.096487,0.000000,-0.156671,-0.407417,-0.000000
0.600000,-2.672536,-0.181979,-1.478690,0.175664,0.134346,-0.057568,1.002259,0.234605,-0.118844,4.116715,-1.677648,0.524524,7.682091,-11.043585,2.714672,0.023505,-0.100603,0.000000,-0.167765,-0.415604,-0.000000
0.610000,-2.670728,-0.180624,-1.479271,0.185894,0.136606,-0.058729,1.043806,0.217276,-0.113465,4.192041,-1.788088,0.551144,7.354808,-11.043114,2.594612,0.021772,-0.104800,0.000000,-0.178875,-0.423492,0.000000
0.620000,-2.668816,-0.179247,-1.479864,0.196543,0.138688,-0.059836,1.086088,0.198843,-0.107825,4.263843,-1.898456,0.576489,7.001274,-11.028200,2.474505,0.019927,-0.109074,0.000000,-0.189988,-0.431027,0.000000
0.630000,-2.666796,-0.177851,-1.480468,0.207618,0.140579,-0.060885,1.129070,0.179308,-0.101939,4.331979,-2.008603,0.600638,6.621432,-10.998678,2.355740,0.017972,-0.113421,0.000000,-0.201086,-0.438192,-0.000000
0.640000,-2.664663,-0.176436,-1.481081,0.219126,0.142270,-0.061874,1.172715,0.158672,-0.095817,4.396184,-2.118381,0.623613,6.215225,-10.954385,2.239708,0.015906,-0.117838,0.000000,-0.212152,-0.444958,0.000000
0.650000,-2.662412,-0.175006,-1.481705,0.231074,0.143749,-0.062801,1.216980,0.136942,-0.089470,4.456195,-2.227641,0.645446,5.782593,-10.895155,2.127798,0.013729,-0.122320,0.000000,-0.223169,-0.451297,-0.000000
0.660000,-2.660040,-0.173562,-1.482337,0.243468,0.145006,-0.063663,1.261825,0.114122,-0.082911,4.511881,-2.336238,0.666172,5.320113,-10.820711,2.021786,0.011443,-0.126863,0.000000,-0.234121,-0.457193,0.000000
0.670000,-2.657541,-0.172107,-1.482978,0.256313,0.146028,-0.064458,1.307202,0.090220,-0.076150,4.562661,-2.444009,0.685888,4.831506,-10.731015,1.922631,0.009047,-0.131463,0.000000,-0.244988,-0.462587,0.000000
0.680000,-2.654912,-0.170642,-1.483626,0.269614,0.146806,-0.065185,1.353062,0.065245,-0.069197,4.608425,-2.550807,0.704652,4.317126,-10.625916,1.831674,0.006543,-0.136114,0.000000,-0.255753,-0.467468,0.000000
0.690000,-2.652147,-0.169171,-1.484281,0.283375,0.147329,-0.065842,1.399353,0.039207,-0.062060,4.648918,-2.656476,0.722553,3.777327,-10.505264,1.750259,0.003932,-0.140811,0.000000,-0.266398,-0.471808,0.000000
0.700000,-2.649243,-0.167697,-1.484943,0.297602,0.147587,-0.066426,1.446022,0.012120,-0.054748,4.683888,-2.760860,0.739693,3.212465,-10.368908,1.679730,0.001216,-0.145548,0.000000,-0.276905,-0.475583,-0.000000
0.710000,-2.646194,-0.166221,-1.485610,0.312297,0.147568,-0.066936,1.493013,-0.016005,-0.047270,4.713239,-2.863811,0.756082,2.619003,-10.216455,1.624121,-0.001605,-0.150321,0.000000,-0.287258,-0.478782,-0.000000
0.720000,-2.642995,-0.164746,-1.486281,0.327463,0.147263,-0.067371,1.540266,-0.045151,-0.039628,4.736362,-2.965147,0.772100,2.001663,-10.048027,1.581755,-0.004529,-0.155122,0.000000,-0.297435,-0.481349,-0.000000
0.730000,-2.639643,-0.163276,-1.486957,0.343103,0.146662,-0.067728,1.587719,-0.075302,-0.031829,4.753196,-3.064718,0.787764,1.361274,-9.863500,1.553643,-0.007553,-0.159946,0.000000,-0.307421,-0.483280,0.000000
0.740000,-2.636132,-0.161814,-1.487635,0.359218,0.145754,-0.068007,1.635308,-0.106439,-0.023874,4.763514,-3.162362,0.803224,0.698667,-9.662756,1.540801,-0.010677,-0.164785,0.000000,-0.317198,-0.484553,-0.000000
0.750000,-2.632457,-0.160362,-1.488317,0.375809,0.144530,-0.068205,1.682967,-0.138542,-0.015764,4.767098,-3.257918,0.818635,0.014674,-9.445672,1.544241,-0.013897,-0.169635,0.000000,-0.326750,-0.485152,0.000000
0.760000,-2.628614,-0.158925,-1.488999,0.392877,0.142980,-0.068321,1.730629,-0.171590,-0.007503,4.763904,-3.351230,0.833976,-0.694045,-9.211912,1.569770,-0.017211,-0.174487,0.000000,-0.336060,-0.485073,0.000000
0.770000,-2.624598,-0.157504,-1.489683,0.410421,0.141095,-0.068354,1.778221,-0.205559,0.000916,4.753339,-3.442111,0.849875,-1.421980,-8.961597,1.613021,-0.020617,-0.179336,0.000000,-0.345112,-0.484271,-0.000000
0.780000,-2.620404,-0.156104,-1.490366,0.428441,0.138866,-0.068302,1.825671,-0.240424,0.009497,4.735404,-3.530406,0.866297,-2.167788,-8.694631,1.674422,-0.024112,-0.184172,0.000000,-0.353891,-0.482749,-0.000000
0.790000,-2.616027,-0.154728,-1.491049,0.446934,0.136284,-0.068164,1.872904,-0.276158,0.018244,4.709928,-3.615948,0.883426,-2.930130,-8.410920,1.754398,-0.027694,-0.188991,0.000000,-0.362384,-0.480496,-0.000000
0.800000,-2.611464,-0.153379,-1.491729,0.465898,0.133340,-0.067937,1.919844,-0.312733,0.027168,4.676751,-3.698568,0.901448,-3.707663,-8.110368,1.853377,-0.031359,-0.193784,0.000000,-0.370576,-0.477506,0.000000
0.810000,-2.606708,-0.152062,-1.492407,0.485330,0.130026,-0.067620,1.966415,-0.350119,0.036274,4.635874,-3.778102,0.920310,-4.502720,-7.792786,1.978043,-0.035104,-0.198543,0.000000,-0.378454,-0.473783,0.000000
0.820000,-2.601756,-0.150780,-1.493081,0.505225,0.126335,-0.067211,2.012535,-0.388284,0.045579,4.586821,-3.854371,0.940794,-5.309838,-7.458186,2.121799,-0.038927,-0.203263,0.000000,-0.386007,-0.469300,-0.000000
0.830000,-2.596602,-0.149537,-1.493751,0.525579,0.122258,-0.066708,2.058124,-0.427195,0.055095,4.529643,-3.927209,0.962809,-6.127224,-7.106483,2.284303,-0.042823,-0.207934,0.000000,-0.393224,-0.464067,0.000000
0.840000,-2.591242,-0.148336,-1.494415,0.546385,0.117789,-0.066108,2.103100,-0.466816,0.064841,4.464248,-3.996444,0.986541,-6.953088,-6.737596,2.465216,-0.046790,-0.212550,0.000000,-0.400095,-0.458086,0.000000
0.850000,-2.585673,-0.147182,-1.495073,0.567638,0.112920,-0.065410,2.147381,-0.507111,0.074832,4.390559,-4.061903,1.012173,-7.785639,-6.351440,2.664198,-0.050824,-0.217103,0.000000,-0.406611,-0.451361,0.000000
0.860000,-2.579888,-0.146079,-1.495723,0.589330,0.107644,-0.064610,2.190884,-0.548041,0.085088,4.308531,-4.123403,1.039598,-8.623387,-5.948234,2.888127,-0.054921,-0.221586,0.000000,-0.412761,-0.443890,0.000000
0.870000,-2.573885,-0.145031,-1.496365,0.611453,0.101957,-0.063707,2.233524,-0.589566,0.095632,4.218094,-4.180796,1.069668,-9.464204,-5.527556,3.128561,-0.059078,-0.225992,0.000000,-0.418542,-0.435695,0.000000
0.880000,-2.567658,-0.144041,-1.496997,0.633998,0.095851,-0.062697,2.275218,-0.631643,0.106490,4.119242,-4.233895,1.102220,-10.306262,-5.089286,3.384276,-0.063291,-0.230313,0.000000,-0.423946,-0.426778,-0.000000
0.890000,-2.561203,-0.143115,-1.497618,0.656954,0.089322,-0.061576,2.315881,-0.674229,0.117685,4.011971,-4.282523,1.137401,-11.147733,-4.633306,3.654048,-0.067556,-0.234542,0.000000,-0.428967,-0.417149,0.000000
0.900000,-2.554517,-0.142256,-1.498228,0.680312,0.082365,-0.060342,2.355429,-0.717278,0.129247,3.896296,-4.326502,1.175344,-11.986789,-4.159493,3.936653,-0.071869,-0.238673,0.000000,-0.433598,-0.406820,0.000000
0.910000,-2.547596,-0.141469,-1.498825,0.704059,0.074975,-0.058990,2.393778,-0.760742,0.141199,3.772163,-4.365604,1.215895,-12.819420,-3.668982,4.237889,-0.076226,-0.242697,0.000000,-0.437827,-0.395789,0.000000
0.920000,-2.540435,-0.140758,-1.499407,0.728183,0.067149,-0.057516,2.430845,-0.804573,0.153575,3.639829,-4.399765,1.259820,-13.646247,-3.160245,4.548650,-0.080624,-0.246609,0.000000,-0.441666,-0.384104,-0.000000
0.930000,-2.533031,-0.140128,-1.499974,0.752671,0.058883,-0.055917,2.466547,-0.848720,0.166406,3.499263,-4.428747,1.306892,-14.465712,-2.633011,4.866853,-0.085058,-0.250402,0.000000,-0.445102,-0.371763,0.000000
0.940000,-2.525380,-0.139582,-1.500525,0.777509,0.050174,-0.054187,2.500803,-0.893130,0.179723,3.350545,-4.452363,1.357175,-15.276252,-2.087005,5.190414,-0.089525,-0.254070,0.000000,-0.448130,-0.358780,0.000000
0.950000,-2.517480,-0.139126,-1.501058,0.802682,0.041020,-0.052321,2.533531,-0.937749,0.193560,3.193773,-4.470423,1.410712,-16.076307,-1.521954,5.517250,-0.094019,-0.257605,0.000000,-0.450746,-0.345169,0.000000
0.960000,-2.509326,-0.138763,-1.501571,0.828174,0.031418,-0.050314,2.564651,-0.982519,0.207946,3.028996,-4.482686,1.467309,-16.862738,-0.938874,5.850701,-0.098538,-0.261001,0.000000,-0.452935,-0.330932,-0.000000
0.970000,-2.500915,-0.138499,-1.502064,0.853969,0.021369,-0.048160,2.594085,-1.027383,0.222917,2.856492,-4.489078,1.527478,-17.635756,-0.336045,6.182594,-0.103077,-0.264254,0.000000,-0.454709,-0.316109,0.000000
0.980000,-2.492245,-0.138337,-1.502534,0.880050,0.010871,-0.045853,2.621755,-1.072280,0.238507,2.676330,-4.489340,1.590947,-18.393994,0.286965,6.510182,-0.107631,-0.267355,0.000000,-0.456053,-0.300701,0.000000
0.990000,-2.483313,-0.138283,-1.502980,0.906398,-0.000077,-0.043387,2.647586,-1.117148,0.254747,2.488666,-4.483270,1.657658,-19.136087,0.930586,6.830717,-0.112196,-0.270301,0.000000,-0.456959,-0.284720,-0.000000
1.000000,-2.474116,-0.138340,-1.503401,0.932995,-0.011472,-0.040756,2.671504,-1.161924,0.271670,2.293667,-4.470658,1.727528,-19.860667,1.595249,7.141449,-0.116769,-0.273084,0.000000,-0.457416,-0.268175,-0.000000
1.010000,-2.464653,-0.138514,-1.503795,0.959822,-0.023315,-0.037952,2.693435,-1.206540,0.289306,2.091442,-4.451379,1.800308,-20.564505,2.283561,7.443115,-0.121343,-0.275699,0.000000,-0.457422,-0.251066,-0.000000
1.020000,-2.454919,-0.138808,-1.504159,0.986857,-0.035602,-0.034967,2.713310,-1.250928,0.307686,1.882361,-4.425012,1.876183,-21.248323,2.993512,7.729057,-0.125915,-0.278140,0.000000,-0.456947,-0.233427,-0.000000
1.030000,-2.444915,-0.139227,-1.504493,1.014081,-0.048332,-0.031795,2.731060,-1.295016,0.326839,1.666546,-4.391436,1.954826,-21.910983,3.725266,7.996100,-0.130481,-0.280403,0.000000,-0.455985,-0.215252,-0.000000
1.040000,-2.434637,-0.139776,-1.504795,1.041471,-0.061501,-0.028428,2.746619,-1.338732,0.346791,1.444215,-4.350433,2.036031,-22.551346,4.478990,8.241069,-0.135033,-0.282480,0.000000,-0.454520,-0.196545,-0.000000
1.050000,-2.424085,-0.140459,-1.505061,1.069006,-0.075105,-0.024857,2.759923,-1.381999,0.367568,1.215597,-4.301783,2.119563,-23.168271,5.254846,8.460790,-0.139569,-0.284368,0.000000,-0.452535,-0.177311,0.000000
1.060000,-2.413257,-0.141280,-1.505291,1.096662,-0.089139,-0.021074,2.770912,-1.424743,0.389189,0.981068,-4.245398,2.205137,-23.764058,6.056431,8.652479,-0.144083,-0.286060,0.000000,-0.450021,-0.157562,-0.000000
1.070000,-2.402151,-0.142243,-1.505482,1.124416,-0.103598,-0.017070,2.779525,-1.466880,0.411676,0.740557,-4.180734,2.292490,-24.333709,6.880059,8.812522,-0.148568,-0.287550,0.000000,-0.446927,-0.137268,0.000000
1.080000,-2.390768,-0.143353,-1.505632,1.152244,-0.118475,-0.012837,2.785705,-1.508330,0.435044,0.494486,-4.107724,2.381271,-24.875663,7.725476,8.937698,-0.153019,-0.288834,0.000000,-0.443241,-0.116442,-0.000000
1.090000,-2.379106,-0.144614,-1.505738,1.180122,-0.133762,-0.008366,2.789397,-1.549006,0.459305,0.243141,-4.026152,2.471117,-25.388363,8.592426,9.024784,-0.157430,-0.289905,0.000000,-0.438937,-0.095079,-0.000000
1.100000,-2.367166,-0.146030,-1.505798,1.208024,-0.149452,-0.003648,2.790551,-1.588823,0.484469,-0.013179,-3.935805,2.561629,-25.870246,9.480655,9.070558,-0.161796,-0.290757,0.000000,-0.433984,-0.073177,-0.000000
1.110000,-2.354946,-0.147604,-1.505810,1.235924,-0.165535,0.001326,2.789121,-1.627696,0.510540,-0.273876,-3.836767,2.652529,-26.326821,10.397430,9.068005,-0.166108,-0.291386,0.000000,-0.428380,-0.050760,0.000000
1.120000,-2.342447,-0.149342,-1.505771,1.263797,-0.182002,0.006566,2.785059,-1.665528,0.537518,-0.539283,-3.728126,2.743001,-26.748596,11.334052,9.018161,-0.170361,-0.291785,0.000000,-0.422015,-0.027745,0.000000
1.130000,-2.329670,-0.151246,-1.505678,1.291617,-0.198842,0.012080,2.778322,-1.702227,0.565398,-0.808724,-3.610024,2.832726,-27.133144,12.289346,8.918266,-0.174546,-0.291947,0.000000,-0.414886,-0.004163,-0.000000
1.140000,-2.316615,-0.153320,-1.505528,1.319355,-0.216043,0.017877,2.768872,-1.737696,0.594169,-1.081814,-3.482280,2.921190,-27.478040,13.262134,8.765562,-0.178656,-0.291867,0.000000,-0.406950,0.019995,-0.000000
1.150000,-2.303283,-0.155568,-1.505319,1.346985,-0.233592,0.023966,2.756675,-1.771839,0.623816,-1.358145,-3.344727,3.007852,-27.780859,14.251240,8.557292,-0.182682,-0.291539,0.000000,-0.398163,0.044734,-0.000000
1.160000,-2.289676,-0.157993,-1.505048,1.374479,-0.251475,0.030356,2.741702,-1.804562,0.654321,-1.637103,-3.197663,3.092471,-28.043721,15.267048,8.282362,-0.186617,-0.290956,0.000000,-0.388529,0.070034,0.000000
1.170000,-2.275794,-0.160598,-1.504711,1.401809,-0.269678,0.037055,2.723925,-1.835759,0.685655,-1.918658,-3.039860,3.173671,-28.259099,16.295405,7.947371,-0.190450,-0.290111,0.000000,-0.377873,0.095964,-0.000000
1.180000,-2.261640,-0.163387,-1.504306,1.428948,-0.288184,0.044071,2.703323,-1.865325,0.717783,-2.202117,-2.871721,3.251213,-28.424010,17.333722,7.550580,-0.194171,-0.288999,0.000000,-0.366202,0.122498,-0.000000
1.190000,-2.247216,-0.166363,-1.503829,1.455866,-0.306978,0.051413,2.679878,-1.893158,0.750665,-2.486960,-2.693161,3.324471,-28.535472,18.379407,7.090252,-0.197770,-0.287612,0.000000,-0.353458,0.149636,-0.000000
1.200000,-2.232524,-0.169528,-1.503276,1.482536,-0.326041,0.059087,2.653581,-1.919153,0.784256,-2.772638,-2.504117,3.392800,-28.590503,19.429867,6.564650,-0.201236,-0.285944,0.000000,-0.339585,0.177376,-0.000000
1.210000,-2.217566,-0.172885,-1.502646,1.508928,-0.345355,0.067100,2.624425,-1.943210,0.818508,-3.058507,-2.304974,3.456070,-28.587769,20.493053,5.958660,-0.204558,-0.283990,0.000000,-0.324575,0.205690,-0.000000
1.220000,-2.202346,-0.176436,-1.501933,1.535015,-0.364899,0.075459,2.592412,-1.965217,0.853356,-3.344111,-2.094733,3.512347,-28.522439,21.554541,5.285558,-0.207723,-0.281741,0.000000,-0.308239,0.234621,-0.000000
1.230000,-2.186867,-0.180183,-1.501135,1.560767,-0.384652,0.084169,2.557546,-1.985069,0.888731,-3.628736,-1.873901,3.561557,-28.391328,22.610448,4.545246,-0.210719,-0.279192,0.000000,-0.290575,0.264130,0.000000
1.240000,-2.171132,-0.184129,-1.500249,1.586157,-0.404593,0.093235,2.519842,-2.002660,0.924561,-3.911708,-1.642555,3.603028,-28.191252,23.656893,3.737624,-0.213530,-0.276337,0.000000,-0.271518,0.294195,-0.000000
1.250000,-2.155145,-0.188276,-1.499269,1.611155,-0.424697,0.102662,2.479320,-2.017886,0.960764,-4.192321,-1.400808,3.636085,-27.919029,24.689994,2.862593,-0.216144,-0.273169,0.000000,-0.251004,0.324789,-0.000000
1.260000,-2.138910,-0.192624,-1.498194,1.635734,-0.444942,0.112451,2.436004,-2.030647,0.997260,-4.470033,-1.149186,3.660762,-27.566536,25.715284,1.902185,-0.218546,-0.269684,0.000000,-0.229026,0.355876,-0.000000
1.270000,-2.122432,-0.197175,-1.497019,1.659866,-0.465301,0.122607,2.389932,-2.040836,1.033946,-4.743612,-0.886997,3.674708,-27.136133,26.718312,0.876357,-0.220719,-0.265877,0.000000,-0.205389,0.387413,0.000000
1.280000,-2.105715,-0.201930,-1.495741,1.683523,-0.485750,0.133130,2.341148,-2.048353,1.070719,-5.012487,-0.614910,3.678078,-26.625239,27.694042,-0.212803,-0.222648,-0.261742,0.000000,-0.180096,0.419345,0.000000
1.290000,-2.088763,-0.206890,-1.494355,1.706680,-0.506259,0.144021,2.289701,-2.053102,1.107470,-5.275840,-0.333224,3.670248,-26.031274,28.637438,-1.363206,-0.224316,-0.257277,0.000000,-0.153091,0.451607,-0.000000
1.300000,-2.071583,-0.212055,-1.492859,1.729309,-0.526802,0.155279,2.235652,-2.054987,1.144085,-5.532827,-0.042286,3.650617,-25.351661,29.543466,-2.572764,-0.225704,-0.252477,0.000000,-0.124323,0.484123,-0.000000
1.310000,-2.054179,-0.217426,-1.491249,1.751384,-0.547349,0.166902,2.179064,-2.053921,1.180450,-5.783039,0.257277,3.619409,-24.572205,30.412825,-3.859746,-0.226796,-0.247341,0.000000,-0.093795,0.516832,-0.000000
1.320000,-2.036557,-0.223002,-1.489520,1.772882,-0.567870,0.178887,2.120019,-2.049813,1.216429,-6.024492,0.565554,3.574156,-23.703364,31.234043,-5.199213,-0.227574,-0.241869,0.000000,-0.061361,0.549566,0.000000
1.330000,-2.018723,-0.228783,-1.487670,1.793777,-0.588335,0.191229,2.058604,-2.042583,1.251888,-6.256804,0.881778,3.515265,-22.743979,32.001380,-6.586583,-0.228017,-0.236059,0.000000,-0.027047,0.582237,-0.000000
1.340000,-2.000684,-0.234769,-1.485694,1.814046,-0.608711,0.203922,1.994916,-2.032153,1.286687,-6.479066,1.205383,3.442279,-21.692893,32.709098,-8.017276,-0.228108,-0.229915,0.000000,0.009161,0.614714,0.000000
1.350000,-1.982444,-0.240957,-1.483590,1.833668,-0.628967,0.216960,1.929059,-2.018453,1.320685,-6.690353,1.535742,3.354790,-20.548949,33.351460,-9.486710,-0.227828,-0.223440,0.000000,0.047259,0.646849,-0.000000
1.360000,-1.964012,-0.247347,-1.481354,1.852621,-0.649069,0.230333,1.861141,-2.001417,1.353742,-6.890483,1.872261,3.253190,-19.291994,33.920561,-11.009454,-0.227157,-0.216636,0.000000,0.087217,0.678542,-0.000000
1.370000,-1.945394,-0.253938,-1.478982,1.870885,-0.668984,0.244031,1.791293,-1.980990,1.385697,-7.076731,2.213995,3.135365,-17.942192,34.413095,-12.559433,-0.226077,-0.209514,0.000000,0.129028,0.709460,0.000000
1.380000,-1.926597,-0.260726,-1.476472,1.888441,-0.688678,0.258042,1.719652,-1.957122,1.416397,-7.249022,2.560249,3.001933,-16.500712,34.823589,-14.129718,-0.224571,-0.202080,0.000000,0.172618,0.739478,0.000000
1.390000,-1.907628,-0.267711,-1.473821,1.905272,-0.708115,0.272354,1.646362,-1.929773,1.445683,-7.406444,2.910175,2.852726,-14.968723,35.146572,-15.713384,-0.222619,-0.194347,0.000000,0.217902,0.768386,-0.000000
1.400000,-1.888494,-0.274888,-1.471024,1.921363,-0.727261,0.286951,1.571576,-1.898909,1.473399,-7.548098,3.262871,2.687644,-13.347393,35.376570,-17.303504,-0.220207,-0.186328,0.000000,0.264770,0.795958,0.000000
1.410000,-1.869203,-0.282255,-1.468081,1.936700,-0.746082,0.301816,1.495445,-1.864503,1.499389,-7.674110,3.617941,2.507168,-11.612334,35.493887,-18.906035,-0.217319,-0.178039,0.000000,0.313129,0.822064,-0.000000
1.420000,-1.849763,-0.289808,-1.464987,1.951268,-0.764540,0.316932,1.418153,-1.826548,1.523489,-7.781206,3.973043,2.310128,-9.793400,35.509017,-20.499590,-0.213941,-0.169498,0.000000,0.362699,0.846205,-0.000000
1.430000,-1.830180,-0.297544,-1.461741,1.965059,-0.782601,0.332279,1.339883,-1.785044,1.545539,-7.869712,4.327769,2.097234,-7.894892,35.418227,-22.075665,-0.210061,-0.160727,0.000000,0.413331,0.868244,-0.000000
1.440000,-1.810464,-0.305459,-1.458341,1.978063,-0.800229,0.347836,1.260823,-1.739998,1.565381,-7.938853,4.681042,1.868702,-5.921106,35.217788,-23.625757,-0.205671,-0.151751,0.000000,0.464792,0.887922,-0.000000
1.450000,-1.790622,-0.313547,-1.454784,1.990274,-0.817389,0.363579,1.181173,-1.691431,1.582861,-7.987898,5.031747,1.624834,-3.876341,34.903968,-25.141361,-0.200763,-0.142596,0.000000,0.516818,0.904980,-0.000000
1.460000,-1.770661,-0.321805,-1.451069,2.001686,-0.834046,0.379484,1.101124,-1.639366,1.597829,-8.017165,5.379626,1.366066,-1.739468,34.450434,-26.615181,-0.195333,-0.133289,0.000000,0.569213,0.919281,0.000000
1.470000,-1.750591,-0.330226,-1.447194,2.012296,-0.850165,0.395527,1.020902,-1.583856,1.610134,-8.023625,5.721371,1.092756,0.456674,33.878825,-28.037358,-0.189380,-0.123865,0.000000,0.621415,0.930297,-0.000000
1.480000,-1.730418,-0.338806,-1.443158,2.022104,-0.865712,0.411678,0.940726,-1.524959,1.619637,-8.007858,6.056805,0.805519,2.704672,33.188178,-29.399241,-0.182906,-0.114356,0.000000,0.673184,0.937927,0.000000
1.490000,-1.710151,-0.347539,-1.438960,2.031112,-0.880653,0.427909,0.860820,-1.462745,1.626201,-7.969383,6.384734,0.505001,4.997116,32.377529,-30.692177,-0.175919,-0.104801,0.000000,0.724149,0.941958,0.000000
1.500000,-1.689799,-0.356417,-1.434599,2.039322,-0.894956,0.444192,0.781415,-1.397294,1.629695,-7.907792,6.703953,0.191935,7.326592,31.445916,-31.907516,-0.168427,-0.095235,0.000000,0.773921,0.942201,-0.000000
1.510000,-1.669368,-0.365435,-1.430076,2.046742,-0.908589,0.460493,0.702733,-1.328689,1.629994,-7.823602,7.014127,-0.133399,9.707154,30.370119,-33.023041,-0.160444,-0.085698,0.000000,0.822211,0.938602,-0.000000
1.520000,-1.648866,-0.374587,-1.425390,2.053380,-0.921520,0.476781,0.625023,-1.257049,1.626992,-7.714542,7.311948,-0.468821,12.107296,29.174155,-34.045325,-0.151990,-0.076233,0.000000,0.868344,0.930779,0.000000
1.530000,-1.628303,-0.383863,-1.420541,2.059247,-0.933720,0.493021,0.548523,-1.182492,1.620586,-7.581425,7.597216,-0.813971,14.516979,27.859787,-34.967379,-0.143085,-0.066880,0.000000,0.912045,0.918766,0.000000
1.540000,-1.607684,-0.393258,-1.415529,2.064356,-0.945161,0.509181,0.473474,-1.105150,1.610683,-7.424204,7.868755,-1.167811,16.926163,26.428777,-35.782211,-0.133758,-0.057682,0.000000,0.952923,0.902520,-0.000000
1.550000,-1.587018,-0.402764,-1.410357,2.068722,-0.955814,0.525223,0.400119,-1.025167,1.597204,-7.242937,8.125408,-1.529234,19.324807,24.882886,-36.482830,-0.124038,-0.048680,0.000000,0.990605,0.882041,0.000000
1.560000,-1.566312,-0.412372,-1.405025,2.072365,-0.965656,0.541113,0.328693,-0.942670,1.580065,-7.038011,8.368398,-1.898175,21.708798,23.164218,-37.034183,-0.113955,-0.039917,0.000000,1.025040,0.857410,-0.000000
1.570000,-1.545573,-0.422074,-1.399536,2.075303,-0.974661,0.556812,0.259437,-0.857858,1.559224,-6.809130,8.591009,-2.270755,24.061444,21.341498,-37.460779,-0.103550,-0.031434,0.000000,1.055205,0.828639,0.000000
1.580000,-1.524808,-0.431862,-1.393890,2.077561,-0.982806,0.572285,0.192588,-0.770912,1.534638,-6.556923,8.794911,-2.646963,26.371979,19.423794,-37.759063,-0.092864,-0.023268,0.000000,1.081174,0.795909,0.000000
1.590000,-1.504024,-0.441728,-1.388091,2.079164,-0.990073,0.587493,0.128375,-0.682025,1.506277,-6.281866,8.979199,-3.025497,28.629637,17.420172,-37.925480,-0.081941,-0.015459,0.000000,1.102735,0.759406,0.000000
1.600000,-1.483227,-0.451661,-1.382141,2.080138,-0.996441,0.602398,0.067025,-0.591396,1.474125,-5.984542,9.143058,-3.405021,30.823652,15.339699,-37.956478,-0.070825,-0.008040,0.000000,1.119729,0.719356,0.000000
1.610000,-1.462423,-0.461653,-1.376044,2.080515,-1.001895,0.616963,0.008756,-0.499235,1.438162,-5.665704,9.285664,-3.785618,32.944830,13.194026,-37.811741,-0.059562,-0.001046,0.000000,1.132051,0.676029,0.000000
1.620000,-1.441618,-0.471696,-1.369803,2.080324,-1.006421,0.631149,-0.046220,-0.405756,1.398420,-5.326001,9.406627,-4.162437,34.980642,10.989319,-37.528977,-0.048200,0.005495,0.000000,1.139663,0.629704,0.000000
1.630000,-1.420818,-0.481779,-1.363422,2.079602,-1.010007,0.644919,-0.097698,-0.311177,1.354925,-4.966412,9.505283,-4.535741,36.920128,8.734330,-37.109132,-0.036785,0.011554,0.000000,1.142577,0.580719,0.000000
1.640000,-1.400028,-0.491893,-1.356906,2.078383,-1.012642,0.658235,-0.145485,-0.215726,1.307721,-4.587956,9.581175,-4.904166,38.752331,6.437811,-36.553152,-0.025364,0.017110,0.000000,1.140859,0.529419,-0.000000
1.650000,-1.379252,-0.502028,-1.350259,2.076705,-1.014319,0.671061,-0.189398,-0.119631,1.256863,-4.191759,9.633930,-5.266353,40.466292,4.108511,-35.861984,-0.013982,0.022140,0.000000,1.134622,0.476170,0.000000
1.660000,-1.358495,-0.512176,-1.343487,2.074608,-1.015033,0.683361,-0.229255,-0.023124,1.202403,-3.778098,9.663399,-5.622450,42.026755,1.751793,-34.998895,-0.002685,0.026628,0.000000,1.124038,0.421228,0.000000
1.670000,-1.337761,-0.522326,-1.336594,2.072134,-1.014781,0.695098,-0.264910,0.073558,1.144445,-3.350597,9.669068,-5.967585,43.450035,-0.619788,-34.007126,0.008484,0.030561,0.000000,1.109266,0.365250,-0.000000
1.680000,-1.317054,-0.532468,-1.329587,2.069324,-1.013562,0.706238,-0.296222,0.170178,1.083087,-2.909582,9.650984,-6.302182,44.728149,-2.997068,-32.892236,0.019487,0.033930,0.000000,1.090558,0.308477,-0.000000
1.690000,-1.296376,-0.542594,-1.322471,2.066224,-1.011379,0.716749,-0.323062,0.266499,1.018440,-2.456544,9.609138,-6.625037,45.853113,-5.370880,-31.659788,0.030283,0.036730,0.000000,1.068171,0.251275,-0.000000
1.700000,-1.275730,-0.552693,-1.315254,2.062878,-1.008234,0.726597,-0.345318,0.362282,0.950629,-1.993056,9.543609,-6.935004,46.816945,-7.732060,-30.315340,0.040839,0.038958,0.000000,1.042380,0.193998,0.000000
1.710000,-1.255119,-0.562755,-1.307942,2.059333,-1.004136,0.735752,-0.362877,0.457307,0.879774,-1.519209,9.455859,-7.232157,47.572268,-10.104010,-28.834960,0.051122,0.040612,0.000000,1.013611,0.136807,0.000000
1.720000,-1.234544,-0.572772,-1.300541,2.055636,-0.999092,0.744183,-0.375680,0.551321,0.806037,-1.040427,9.343099,-7.512696,48.155315,-12.441009,-27.257313,0.061102,0.041700,0.000000,0.981837,0.080448,-0.000000
1.730000,-1.214007,-0.582734,-1.293061,2.051835,-0.993114,0.751863,-0.383669,0.644091,0.729574,-0.556688,9.207199,-7.777010,48.562929,-14.729901,-25.591573,0.070750,0.042227,0.000000,0.947527,0.025012,-0.000000
1.740000,-1.193507,-0.592631,-1.285507,2.047979,-0.986215,0.758766,-0.386803,0.735389,0.650553,-0.069763,9.048705,-8.024264,48.791949,-16.957535,-23.846912,0.080045,0.042205,0.000000,0.910993,-0.029233,-0.000000
1.750000,-1.173047,-0.602455,-1.277888,2.044116,-0.978411,0.764866,-0.385059,0.824992,0.569148,0.418545,8.868296,-8.253716,48.839216,-19.110756,-22.032501,0.088964,0.041645,0.000000,0.872545,-0.082042,0.000000
1.760000,-1.152625,-0.612197,-1.270212,2.040294,-0.969721,0.770142,-0.378418,0.912670,0.485535,0.907822,8.665377,-8.465230,48.665764,-21.140926,-20.144431,0.097489,0.040561,0.000000,0.832336,-0.133346,-0.000000
1.770000,-1.132241,-0.621847,-1.262488,2.036563,-0.960165,0.774570,-0.366912,0.998234,0.399907,1.392847,8.444215,-8.657022,48.308625,-23.074722,-18.206557,0.105606,0.038972,0.000000,0.791029,-0.182585,-0.000000
1.780000,-1.111893,-0.631397,-1.254724,2.032972,-0.949764,0.778134,-0.350576,1.081491,0.312460,1.873387,8.204233,-8.829231,47.769024,-24.903334,-16.229656,0.113306,0.036896,0.000000,0.748729,-0.229767,0.000000
1.790000,-1.091581,-0.640839,-1.246928,2.029567,-0.938543,0.780814,-0.329465,1.162259,0.223389,2.347623,7.946528,-8.981521,47.048186,-26.617954,-14.224499,0.120578,0.034354,0.000000,0.705704,-0.274747,-0.000000
1.800000,-1.071301,-0.650165,-1.239110,2.026398,-0.926528,0.782597,-0.303651,1.240367,0.132896,2.813750,7.672284,-9.113663,46.147337,-28.209774,-12.201861,0.127418,0.031368,0.000000,0.662203,-0.317406,0.000000
1.810000,-1.051052,-0.659367,-1.231279,2.023509,-0.913745,0.783468,-0.273205,1.315645,0.041186,3.271629,7.381880,-9.225306,45.025891,-29.647477,-10.178335,0.133821,0.027960,0.000000,0.618379,-0.357806,-0.000000
1.820000,-1.030830,-0.668438,-1.223444,2.020948,-0.900224,0.783417,-0.238258,1.387959,-0.051542,3.715560,7.078788,-9.316981,43.732003,-30.947519,-8.158164,0.139786,0.024156,0.000000,0.574655,-0.395470,-0.000000
1.830000,-1.010632,-0.677369,-1.215614,2.018759,-0.885996,0.782434,-0.198940,1.457179,-0.145086,4.145716,6.763409,-9.388514,42.272019,-32.103847,-6.151410,0.145315,0.019981,0.000000,0.531137,-0.430529,-0.000000
1.840000,-0.990453,-0.686155,-1.207799,2.016984,-0.871092,0.780513,-0.155395,1.523191,-0.239246,4.560468,6.437210,-9.440088,40.652284,-33.110410,-4.168134,0.150410,0.015462,0.000000,0.488011,-0.462940,0.000000
1.850000,-0.970291,-0.694789,-1.200007,2.015664,-0.855543,0.777648,-0.107787,1.585893,-0.333823,4.958250,6.101720,-9.471988,38.879143,-33.961153,-2.218398,0.155077,0.010625,0.000000,0.445451,-0.492677,-0.000000
1.860000,-0.950138,-0.703264,-1.192249,2.014841,-0.839384,0.773836,-0.056290,1.645161,-0.428612,5.337770,5.755003,-9.483696,36.953644,-34.561014,-0.335113,0.159318,0.005498,0.000000,0.403300,-0.519747,0.000000
1.870000,-0.929992,-0.711575,-1.184533,2.014551,-0.822650,0.769076,-0.001098,1.700975,-0.523435,5.697092,5.407050,-9.477840,34.888076,-35.003851,1.497306,0.163146,0.000106,0.000000,0.362466,-0.544101,-0.000000
1.880000,-0.909846,-0.719715,-1.176870,2.014830,-0.805376,0.763368,0.057581,1.753290,-0.618108,6.035088,5.055433,-9.453944,32.689435,-35.294510,3.271596,0.166571,-0.005522,0.000000,0.322705,-0.565769,0.000000
1.890000,-0.889693,-0.727681,-1.169269,2.015713,-0.787596,0.756714,0.119528,1.802077,-0.712455,6.350461,4.701650,-9.412626,30.364712,-35.437840,4.980493,0.169604,-0.011359,0.000000,0.284119,-0.584765,0.000000
1.900000,-0.869529,-0.735466,-1.161739,2.017231,-0.769346,0.749120,0.184511,1.847321,-0.806305,6.641985,4.347151,-9.354576,27.920902,-35.438687,6.616734,0.172257,-0.017378,0.000000,0.246797,-0.601111,-0.000000
1.910000,-0.849346,-0.743066,-1.154290,2.019412,-0.750663,0.740590,0.252320,1.889086,-0.899478,6.911764,3.999253,-9.279140,25.282696,-35.451368,8.137249,0.174550,-0.023556,0.000000,0.211367,-0.615136,0.000000
1.920000,-0.829139,-0.750478,-1.146931,2.022285,-0.731579,0.731133,0.322656,1.927308,-0.991838,7.150997,3.645300,-9.190509,22.549467,-35.312957,9.574965,0.176489,-0.029862,0.000000,0.176575,-0.626154,-0.000000
1.930000,-0.808898,-0.757697,-1.139670,2.025872,-0.712129,0.720757,0.395247,1.962000,-1.083242,7.362493,3.293543,-9.087926,19.738287,-35.010000,10.927001,0.178086,-0.036268,0.000000,0.143137,-0.634561,0.000000
1.940000,-0.788619,-0.764719,-1.132518,2.030196,-0.692350,0.709472,0.469812,1.993192,-1.173553,7.545559,2.945693,-8.972264,16.866228,-34.529041,12.190478,0.179356,-0.042748,0.000000,0.111141,-0.640414,0.000000
1.950000,-0.768292,-0.771543,-1.125484,2.035274,-0.672277,0.697290,0.546062,2.020933,-1.262647,7.699672,2.603600,-8.844422,13.950361,-33.856625,13.362516,0.180314,-0.049276,0.000000,0.080679,-0.643785,0.000000
1.960000,-0.747911,-0.778164,-1.118576,2.041123,-0.651939,0.684223,0.623657,2.045164,-1.350390,7.819810,2.257716,-8.703981,11.125646,-32.688118,14.406208,0.180965,-0.055823,0.000000,0.050886,-0.644351,-0.000000
1.970000,-0.727467,-0.784581,-1.111802,2.047753,-0.631380,0.670286,0.702364,2.066129,-1.436693,7.916842,1.937448,-8.555088,8.276830,-31.336897,15.356868,0.181339,-0.062370,0.000000,0.024162,-0.643150,0.000000
1.980000,-0.706953,-0.790791,-1.105173,2.055174,-0.610627,0.655494,0.781898,2.083961,-1.521461,7.985275,1.631513,-8.397149,5.406551,-29.825164,16.215785,0.181455,-0.068893,0.000000,-0.000540,-0.639789,0.000000
1.990000,-0.686361,-0.796793,-1.098695,2.063393,-0.589711,0.639862,0.861973,2.098812,-1.604609,8.024910,1.341405,-8.231074,2.517442,-28.175117,16.984244,0.181335,-0.075372,0.000000,-0.023180,-0.634333,-0.000000
2.000000,-0.665682,-0.802585,-1.092378,2.072414,-0.568660,0.623408,0.942300,2.110846,-1.686059,8.035570,1.068397,-8.057762,-0.387858,-26.408955,17.663532,0.180998,-0.081784,0.000000,-0.043737,-0.626841,0.000000
2.010000,-0.644910,-0.808165,-1.086230,2.082238,-0.547504,0.606147,1.022601,2.120284,-1.765729,8.018334,0.817584,-7.876778,-3.337701,-24.651041,18.221622,0.180471,-0.088111,0.000000,-0.061856,-0.617481,0.000000
2.020000,-0.624035,-0.813534,-1.080258,2.092864,-0.526264,0.588099,1.102568,2.127258,-1.843577,7.970176,0.580218,-7.692117,-6.294669,-22.808901,18.697195,0.179768,-0.094331,0.000000,-0.078388,-0.606035,-0.000000
2.030000,-0.603050,-0.818691,-1.074470,2.104287,-0.504967,0.569281,1.181906,2.131951,-1.919556,7.892439,0.361654,-7.503091,-9.252333,-20.892227,19.095617,0.178910,-0.100424,0.000000,-0.092939,-0.592683,0.000000
2.040000,-0.581947,-0.823634,-1.068875,2.116499,-0.483632,0.549714,1.260318,2.134556,-1.993627,7.785148,0.162590,-7.310444,-12.204261,-18.910707,19.422256,0.177916,-0.106371,0.000000,-0.105524,-0.577475,0.000000
2.050000,-0.560717,-0.828363,-1.063479,2.129490,-0.462282,0.529415,1.337510,2.135270,-2.065755,7.648394,-0.016376,-7.114867,-15.144024,-16.874031,19.682477,0.176806,-0.112153,0.000000,-0.116162,-0.560462,0.000000
2.060000,-0.539354,-0.832879,-1.058289,2.143244,-0.440934,0.508405,1.413214,2.134338,-2.135906,7.484729,-0.170981,-6.916022,-18.125794,-14.886823,19.857011,0.175602,-0.117754,0.000000,-0.124566,-0.541896,-0.000000
2.070000,-0.517850,-0.837182,-1.053313,2.157747,-0.419601,0.486703,1.487106,2.131918,-2.204071,7.288692,-0.309716,-6.716803,-21.075117,-12.852214,19.978878,0.174320,-0.123154,0.000000,-0.131503,-0.521343,-0.000000
2.080000,-0.496197,-0.841271,-1.048557,2.172979,-0.398300,0.464330,1.558891,2.128212,-2.270239,7.063381,-0.427861,-6.516593,-23.978142,-10.768271,20.056460,0.172978,-0.128335,0.000000,-0.136633,-0.499095,-0.000000
2.090000,-0.474388,-0.845148,-1.044028,2.188917,-0.377041,0.441305,1.628278,2.123431,-2.334401,6.809329,-0.524911,-6.315793,-26.821017,-8.633058,20.098140,0.171594,-0.133282,0.000000,-0.139967,-0.475216,-0.000000
2.100000,-0.452416,-0.848812,-1.039733,2.205536,-0.355834,0.417649,1.694984,2.117786,-2.396554,6.527207,-0.600344,-6.114721,-29.589891,-6.444641,20.112302,0.170185,-0.137976,0.000000,-0.141510,-0.449778,-0.000000
2.110000,-0.430275,-0.852265,-1.035677,2.222808,-0.334684,0.393381,1.758670,2.111391,-2.456692,6.212180,-0.663410,-5.913331,-32.128337,-3.953801,20.100255,0.168761,-0.142399,0.000000,-0.142014,-0.422418,-0.000000
2.120000,-0.407958,-0.855506,-1.031867,2.240700,-0.313604,0.368522,1.819144,2.104602,-2.514821,5.878556,-0.690371,-5.712433,-34.582539,-1.436168,20.078322,0.167351,-0.146542,0.000000,-0.139695,-0.394261,-0.000000
2.130000,-0.385459,-0.858537,-1.028309,2.259180,-0.292593,0.343091,1.876161,2.097668,-2.570942,5.520798,-0.692139,-5.511766,-36.956103,1.079915,20.055753,0.165974,-0.150392,0.000000,-0.135438,-0.364871,-0.000000
2.140000,-0.362773,-0.861358,-1.025007,2.278211,-0.271650,0.317109,1.929482,2.090842,-2.625057,5.139691,-0.668872,-5.311290,-39.252635,3.566101,20.041797,0.164649,-0.153937,0.000000,-0.129288,-0.334306,0.000000
2.150000,-0.339893,-0.863970,-1.021968,2.297756,-0.250775,0.290597,1.978879,2.084373,-2.677168,4.735990,-0.621011,-5.110871,-41.475743,5.994046,20.045703,0.163394,-0.157166,0.000000,-0.121312,-0.302620,-0.000000
2.160000,-0.316816,-0.866374,-1.019197,2.317774,-0.229963,0.263573,2.024153,2.078582,-2.727276,4.312581,-0.541860,-4.910529,-43.683897,8.148007,20.082889,0.162234,-0.160069,0.000000,-0.111030,-0.270020,0.000000
2.170000,-0.293536,-0.868570,-1.016699,2.338224,-0.209203,0.236058,2.065058,2.073606,-2.775376,3.865004,-0.449991,-4.709370,-45.819122,10.209983,20.155681,0.161179,-0.162635,0.000000,-0.099866,-0.236161,-0.000000
2.180000,-0.270050,-0.870558,-1.014478,2.359060,-0.188487,0.208072,2.101383,2.069649,-2.821461,3.396452,-0.337985,-4.507269,-47.878309,12.174577,20.272573,0.160242,-0.164851,0.000000,-0.087270,-0.201271,0.000000
2.190000,-0.246354,-0.872340,-1.012539,2.380236,-0.167806,0.179635,2.132920,2.066910,-2.865517,2.907702,-0.206842,-4.303743,-49.858345,14.036389,20.442060,0.159438,-0.166709,0.000000,-0.073326,-0.165394,0.000000
2.200000,-0.222444,-0.873914,-1.010886,2.401702,-0.147145,0.150769,2.159472,2.065573,-2.907529,2.399559,-0.057618,-4.098224,-51.756120,15.790023,20.672635,0.158779,-0.168199,0.000000,-0.058118,-0.128570,-0.000000
2.210000,-0.198319,-0.875283,-1.009525,2.423408,-0.126488,0.121492,2.180853,2.065786,-2.947485,1.873209,0.105980,-3.891149,-53.577246,17.495731,21.000342,0.158277,-0.169310,0.000000,-0.041937,-0.090853,-0.000000
2.220000,-0.173976,-0.876444,-1.008458,2.445301,-0.105822,0.091826,2.196877,2.067747,-2.985340,1.328702,0.288943,-3.679198,-55.308821,19.074424,21.402752,0.157944,-0.170036,0.000000,-0.024370,-0.052255,0.000000
2.230000,-0.149413,-0.877399,-1.007689,2.467327,-0.085127,0.061792,2.207371,2.071615,-3.021054,0.767345,0.487001,-3.462828,-56.946666,20.512667,21.884987,0.157793,-0.170366,0.000000,-0.005747,-0.012830,0.000000
2.240000,-0.124629,-0.878147,-1.007223,2.489429,-0.064383,0.031412,2.212171,2.077533,-3.054579,0.190096,0.698683,-3.241215,-58.486602,21.797020,22.452166,0.157833,-0.170293,0.000000,0.013834,0.027383,0.000000
2.250000,-0.099624,-0.878686,-1.007062,2.511551,-0.043569,0.000708,2.211123,2.085629,-3.085858,-0.402047,0.922383,-3.013484,-59.924449,22.914049,23.109410,0.158073,-0.169809,0.000000,0.034269,0.068345,0.000000
2.260000,-0.074398,-0.879018,-1.007210,2.533632,-0.022663,-0.030296,2.204089,2.096028,-3.114844,-1.007564,1.157614,-2.780500,-61.268029,23.818670,23.907069,0.158521,-0.168906,0.000000,0.055518,0.110005,0.000000
2.270000,-0.048952,-0.879139,-1.007669,2.555612,-0.001641,-0.061580,2.190929,2.108808,-3.141440,-1.626498,1.399535,-2.537046,-62.499694,24.532967,24.799497,0.159185,-0.167578,0.000000,0.077296,0.152355,-0.000000
2.280000,-0.023286,-0.879050,-1.008442,2.577429,0.019521,-0.093117,2.171520,2.124040,-3.165554,-2.257166,1.647607,-2.284196,-63.613793,25.047377,25.786276,0.160069,-0.165818,0.000000,0.099566,0.195345,0.000000
2.290000,0.002596,-0.878748,-1.009532,2.599021,0.040848,-0.124882,2.145751,2.141774,-3.187089,-2.898363,1.899784,-2.021008,-64.604680,25.352337,26.866989,0.161178,-0.163619,0.000000,0.122203,0.238937,-0.000000
2.300000,0.028693,-0.878232,-1.010941,2.620323,0.062365,-0.156850,2.113522,2.162042,-3.205937,-3.548830,2.153924,-1.746544,-65.466706,25.438286,28.041218,0.162514,-0.160975,0.000000,0.145081,0.283097,0.000000
2.310000,0.055001,-0.877500,-1.012670,2.641270,0.084097,-0.188991,2.074755,2.184866,-3.222003,-4.206600,2.409101,-1.462023,-66.210620,25.262490,29.362841,0.164080,-0.157880,0.000000,0.168135,0.327768,0.000000
2.320000,0.081517,-0.876550,-1.014721,2.661796,0.106070,-0.221279,2.029367,2.210214,-3.235131,-4.871837,2.659874,-1.161425,-66.812367,24.852619,30.770496,0.165876,-0.154328,0.000000,0.191063,0.372968,0.000000
2.330000,0.108236,-0.875378,-1.017096,2.681835,0.128310,-0.253684,1.977300,2.238046,-3.245183,-5.542348,2.905355,-0.846349,-67.264292,24.203173,32.257118,0.167901,-0.150315,0.000000,0.213805,0.418640,-0.000000
2.340000,0.135152,-0.873982,-1.019795,2.701319,0.150839,-0.286172,1.918508,2.268295,-3.252008,-6.216597,3.143121,-0.516043,-67.558737,23.308653,33.815642,0.170151,-0.145834,0.000000,0.236216,0.464750,0.000000
2.350000,0.162260,-0.872360,-1.022819,2.720182,0.173683,-0.318712,1.852961,2.300874,-3.255451,-6.892972,3.370693,-0.169821,-67.688045,22.163558,35.439001,0.172624,-0.140882,0.000000,0.258148,0.511264,-0.000000
2.360000,0.189553,-0.870508,-1.026169,2.738356,0.196864,-0.351269,1.780649,2.335694,-3.255372,-7.569641,3.588004,0.190771,-67.648140,20.700113,37.174662,0.175314,-0.135453,0.000000,0.279602,0.558159,-0.000000
2.370000,0.217025,-0.868422,-1.029845,2.755773,0.220403,-0.383807,1.701573,2.372581,-3.251576,-8.245172,3.786629,0.571385,-67.427348,18.982718,38.954349,0.178213,-0.129544,0.000000,0.300055,0.605374,0.000000
2.380000,0.244666,-0.866098,-1.033845,2.772365,0.244321,-0.416287,1.615756,2.411365,-3.243885,-8.917558,3.966819,0.969959,-67.017574,17.013496,40.764320,0.181312,-0.123149,0.000000,0.319524,0.652888,-0.000000
2.390000,0.272469,-0.863534,-1.038170,2.788065,0.268636,-0.448671,1.523238,2.451848,-3.232117,-9.584867,4.126066,1.386727,-66.410722,14.794574,42.590831,0.184600,-0.116267,0.000000,0.337848,0.700665,0.000000
2.400000,0.300424,-0.860724,-1.042818,2.802808,0.293363,-0.480915,1.424082,2.493808,-3.216089,-10.245088,4.261885,1.821785,-65.598699,12.328075,44.420140,0.188064,-0.108893,0.000000,0.354863,0.748669,-0.000000
2.410000,0.328522,-0.857665,-1.047788,2.816525,0.318516,-0.512977,1.318364,2.537032,-3.195638,-10.896394,4.374830,2.273435,-64.566739,9.539839,46.280376,0.191694,-0.101024,0.000000,0.370601,0.796891,-0.000000
2.420000,0.356751,-0.854353,-1.053077,2.829153,0.344106,-0.544812,1.206192,2.581208,-3.170559,-11.535986,4.455308,2.745424,-63.314235,6.517618,48.110796,0.195471,-0.092657,0.000000,0.384416,0.845211,0.000000
2.430000,0.385101,-0.850782,-1.058683,2.840628,0.370142,-0.576372,1.087690,2.626033,-3.140669,-12.161919,4.504441,3.235489,-61.833908,3.272877,49.892529,0.199376,-0.083791,0.000000,0.396365,0.893622,-0.000000
2.440000,0.413560,-0.846948,-1.064603,2.850887,0.396628,-0.607609,0.963007,2.671185,-3.105791,-12.771880,4.520062,3.743049,-60.118480,-0.182918,51.606706,0.203391,-0.074423,0.000000,0.406276,0.942075,0.000000
2.450000,0.442114,-0.842848,-1.070834,2.859868,0.423566,-0.638471,0.832314,2.716316,-3.065753,-13.363481,4.500117,4.267335,-58.160672,-3.838300,53.234456,0.207494,-0.064552,0.000000,0.413976,0.990514,0.000000
2.460000,0.470752,-0.838475,-1.077371,2.867514,0.450952,-0.668906,0.695789,2.761098,-3.020397,-13.935901,4.445963,4.806909,-55.911787,-7.765021,54.768995,0.211665,-0.054177,0.000000,0.419528,1.039003,-0.000000
2.470000,0.499460,-0.833827,-1.084211,2.873766,0.478784,-0.698861,0.553675,2.805102,-2.969565,-14.482726,4.347977,5.361756,-53.411039,-11.858208,56.177886,0.215876,-0.043298,0.000000,0.422188,1.087172,-0.000000
2.480000,0.528223,-0.828898,-1.091347,2.878570,0.507050,-0.728279,0.406222,2.847918,-2.913117,-15.003275,4.208316,5.929980,-50.656220,-16.096205,57.440779,0.220100,-0.031917,0.000000,0.422050,1.135087,-0.000000
2.490000,0.557026,-0.823685,-1.098774,2.881873,0.535737,-0.757104,0.253706,2.889125,-2.850926,-15.494996,4.025642,6.510017,-47.645125,-20.457357,58.537324,0.224307,-0.020036,0.000000,0.418942,1.182664,-0.000000
2.500000,0.585855,-0.818182,-1.106487,2.883628,0.564826,-0.785278,0.096427,2.928284,-2.782883,-15.955316,3.798831,7.100104,-44.375546,-24.920007,59.447170,0.228468,-0.007657,0.000000,0.412694,1.229809,0.000000
2.510000,0.614694,-0.812387,-1.114477,2.883788,0.594293,-0.812742,-0.065317,2.964981,-2.708885,-16.384386,3.529775,7.699446,-40.775880,-29.533201,60.120278,0.232553,0.005217,0.000000,0.403367,1.276631,-0.000000
2.520000,0.643526,-0.806295,-1.122739,2.882309,0.624115,-0.839436,-0.231137,2.998725,-2.628876,-16.773084,3.211158,8.303089,-36.921816,-34.195925,60.569622,0.236524,0.018580,0.000000,0.390239,1.322499,0.000000
2.530000,0.672334,-0.799904,-1.131263,2.879153,0.654256,-0.865299,-0.400646,3.029049,-2.542812,-17.121995,2.845793,8.910037,-32.819646,-38.877866,60.778487,0.240345,0.032422,0.000000,0.373411,1.367522,-0.000000
2.540000,0.701103,-0.793209,-1.140042,2.874285,0.684683,-0.890272,-0.573436,3.055485,-2.450672,-17.428671,2.433638,9.517801,-28.475661,-43.548710,60.730158,0.243979,0.046736,0.000000,0.352727,1.411556,-0.000000
2.550000,0.729814,-0.786209,-1.149066,2.867675,0.715352,-0.914293,-0.749071,3.077566,-2.352462,-17.690723,1.974956,10.123727,-23.896152,-48.178144,60.407920,0.247386,0.061511,0.000000,0.328040,1.454440,0.000000
2.560000,0.758451,-0.778901,-1.158324,2.859297,0.746217,-0.937302,-0.927132,3.094845,-2.248181,-17.909340,1.471618,10.727959,-18.998748,-52.768799,59.720100,0.250528,0.076737,0.000000,0.299363,1.496302,-0.000000
2.570000,0.786994,-0.771284,-1.167808,2.849127,0.777231,-0.959237,-1.107091,3.106847,-2.137930,-18.073950,0.921405,11.320481,-13.889259,-57.253384,58.734119,0.253359,0.092396,0.000000,0.266197,1.536235,-0.000000
2.580000,0.815427,-0.763356,-1.177505,2.837150,0.808335,-0.980041,-1.288437,3.113126,-2.021809,-18.186475,0.327019,11.901622,-8.584835,-61.597552,57.442441,0.255837,0.108469,0.000000,0.228596,1.574358,0.000000
2.590000,0.843731,-0.755117,-1.187405,2.823355,0.839472,-0.999654,-1.470641,3.113246,-1.899946,-18.245054,-0.309964,12.468286,-3.102623,-65.766956,55.837530,0.257916,0.124935,0.000000,0.186458,1.610444,-0.000000
2.600000,0.871888,-0.746567,-1.197494,2.807736,0.870578,-1.018021,-1.653153,3.106791,-1.772502,-18.247992,-0.987623,13.017303,2.540228,-69.727250,53.911850,0.259551,0.141771,0.000000,0.139694,1.644250,-0.000000
2.610000,0.899880,-0.737706,-1.207761,2.790294,0.901585,-1.035088,-1.835445,3.093353,-1.639623,-18.197040,-1.704784,13.549784,8.409152,-73.416631,51.547867,0.260694,0.158954,0.000000,0.088228,1.675847,0.000000
2.620000,0.927688,-0.728536,-1.218191,2.771031,0.932421,-1.050798,-2.016896,3.072577,-1.501591,-18.083108,-2.456267,14.052097,14.394306,-76.831569,48.861510,0.261299,0.176449,0.000000,0.032025,1.704174,-0.000000
2.630000,0.955294,-0.719059,-1.228772,2.749961,0.963011,-1.065103,-2.196906,3.044119,-1.358675,-17.908858,-3.240398,14.525959,20.468433,-79.941078,45.858712,0.261319,0.194223,0.000000,-0.028949,1.729288,-0.000000
2.640000,0.982681,-0.709277,-1.239489,2.727100,0.993277,-1.077956,-2.374870,3.007670,-1.211177,-17.673534,-4.053967,14.968236,26.604271,-82.714175,42.545406,0.260704,0.212237,0.000000,-0.094694,1.750877,0.000000
2.650000,1.009830,-0.699194,-1.250326,2.702472,1.023137,-1.089313,-2.550172,2.962953,-1.059426,-17.376657,-4.893456,15.375852,32.774561,-85.119873,38.927524,0.259409,0.230451,0.000000,-0.165185,1.768615,-0.000000
2.660000,1.036725,-0.688816,-1.261270,2.676108,1.052509,-1.099133,-2.722221,2.909687,-0.903735,-17.020286,-5.758809,15.750481,39.009309,-87.031901,34.892531,0.257383,0.248822,0.000000,-0.240600,1.782469,0.000000
2.670000,1.063347,-0.678146,-1.272304,2.648042,1.081303,-1.107377,-2.890370,2.847720,-0.744556,-16.599118,-6.636956,16.078064,45.216976,-88.526229,30.579333,0.254582,0.267297,0.000000,-0.320302,1.791382,0.000000
2.680000,1.089680,-0.667192,-1.283412,2.618316,1.109434,-1.114014,-3.053998,2.776905,-0.582321,-16.116151,-7.527877,16.361209,51.363291,-89.583538,26.008370,0.250962,0.285824,0.000000,-0.404420,1.795316,0.000000
2.690000,1.115708,-0.655960,-1.294579,2.586979,1.136811,-1.119015,-3.212490,2.697135,-0.417488,-15.572171,-8.427106,16.597440,57.413981,-90.184511,21.200079,0.246479,0.304345,0.000000,-0.492796,1.793905,0.000000
2.700000,1.141414,-0.644458,-1.305787,2.554085,1.163346,-1.122357,-3.365241,2.608351,-0.250537,-14.968305,-9.329982,16.784487,63.334775,-90.309830,16.174901,0.241092,0.322799,0.000000,-0.585232,1.786790,-0.000000
2.710000,1.166785,-0.632696,-1.317020,2.519695,1.188950,-1.124021,-3.511658,2.510477,-0.081929,-14.305693,-10.237432,16.924027,69.083086,-89.794187,10.858718,0.234757,0.341124,0.000000,-0.681942,1.773707,0.000000
2.720000,1.191804,-0.620683,-1.328262,2.483875,1.213528,-1.123993,-3.651167,2.403627,0.087764,-13.586930,-11.130728,17.005335,74.633973,-88.782131,5.378103,0.227442,0.359251,0.000000,-0.781584,1.754090,-0.000000
2.730000,1.216458,-0.608429,-1.339494,2.446697,1.236993,-1.122264,-3.783215,2.287904,0.257993,-12.813783,-12.011415,17.031148,79.954184,-87.272223,-0.234928,0.219115,0.377109,0.000000,-0.884321,1.727680,-0.000000
2.740000,1.240733,-0.595947,-1.350701,2.408237,1.259257,-1.118833,-3.907269,2.163458,0.428198,-11.988726,-12.874508,17.000302,85.010463,-85.263020,-5.948358,0.209747,0.394626,0.000000,-0.989778,1.694146,0.000000
2.750000,1.264618,-0.583248,-1.361865,2.368580,1.280234,-1.113702,-4.022826,2.030489,0.597807,-11.114564,-13.715007,16.911953,89.769557,-82.753082,-11.730171,0.199312,0.411726,0.000000,-1.097535,1.653176,0.000000
2.760000,1.288101,-0.570347,-1.372970,2.327810,1.299841,-1.106881,-4.129376,1.889176,0.766260,-10.191522,-14.534726,16.767081,94.124610,-79.568465,-17.586348,0.187783,0.428329,0.000000,-1.207745,1.604290,-0.000000
2.770000,1.311171,-0.557256,-1.383997,2.286023,1.317993,-1.098384,-4.226517,1.739909,0.932954,-9.229968,-15.312469,16.561923,98.124981,-75.901352,-23.442221,0.175153,0.444360,0.000000,-1.318410,1.547705,0.000000
2.780000,1.333819,-0.543992,-1.394932,2.243312,1.334614,-1.088230,-4.313848,1.583056,1.097304,-8.230286,-16.051210,16.298360,101.746430,-71.771428,-29.261121,0.161413,0.459738,0.000000,-1.429624,1.482967,0.000000
2.790000,1.356035,-0.530570,-1.405757,2.199779,1.349630,-1.076447,-4.391008,1.419030,1.258728,-7.196384,-16.746420,15.976946,104.964714,-67.198372,-35.006376,0.146561,0.474383,0.000000,-1.540750,1.409891,-0.000000
2.800000,1.377812,-0.517005,-1.416455,2.155527,1.362972,-1.063067,-4.457676,1.248287,1.416653,-6.132416,-17.393766,15.598600,107.755592,-62.201867,-40.641319,0.130601,0.488214,0.000000,-1.651091,1.328340,0.000000
2.810000,1.399143,-0.503316,-1.427013,2.110660,1.374577,-1.048127,-4.513517,1.071272,1.570498,-5.037800,-17.994233,15.163137,109.969095,-56.672251,-46.092085,0.113539,0.501145,0.000000,-1.760426,1.237691,-0.000000
2.820000,1.420023,-0.489520,-1.437413,2.065292,1.384381,-1.031672,-4.558365,0.888593,1.719737,-3.928956,-18.531758,14.675695,111.722105,-50.774387,-51.363752,0.095401,0.513102,0.000000,-1.866678,1.139204,0.000000
2.830000,1.440448,-0.475634,-1.447641,2.019530,1.392332,-1.013750,-4.592046,0.700840,1.863840,-2.804922,-19.008611,14.136566,113.005773,-44.543796,-56.424206,0.076216,0.524007,0.000000,-1.969545,1.032324,0.000000
2.840000,1.460413,-0.461679,-1.457683,1.973489,1.398383,-0.994414,-4.614429,0.508634,2.002303,-1.670435,-19.421643,13.548022,113.811255,-38.015998,-61.241331,0.056024,0.533783,0.000000,-2.068087,0.917170,-0.000000
2.850000,1.479917,-0.447673,-1.467525,1.927280,1.402492,-0.973724,-4.625435,0.312629,2.134644,-0.530320,-19.768059,12.912658,114.129703,-31.226513,-65.783012,0.034872,0.542355,0.000000,-2.161305,0.793944,-0.000000
2.860000,1.498958,-0.433636,-1.477153,1.881016,1.404627,-0.951742,-4.624963,0.113406,2.260368,0.616926,-20.054319,12.229504,113.790135,-23.986077,-69.919054,0.012808,0.549638,0.000000,-2.249167,0.662087,0.000000
2.870000,1.517537,-0.419587,-1.486556,1.834816,1.404755,-0.928539,-4.613116,-0.088213,2.379102,1.751104,-20.257272,11.510990,112.965695,-16.582518,-73.727431,-0.010085,0.555575,0.000000,-2.328182,0.524022,0.000000
2.880000,1.535655,-0.405548,-1.495720,1.788791,1.402858,-0.904185,-4.589977,-0.291490,2.490466,2.874660,-20.385636,10.756115,111.667387,-9.078881,-77.188037,-0.033726,0.560098,0.000000,-2.398365,0.379310,0.000000
2.890000,1.553314,-0.391537,-1.504636,1.743054,1.398922,-0.878755,-4.555674,-0.495675,2.594115,3.982909,-20.438726,9.968456,109.906221,-1.538208,-80.280768,-0.058020,0.563145,0.000000,-2.458626,0.228564,-0.000000
2.900000,1.570518,-0.377576,-1.513292,1.697714,1.392944,-0.852329,-4.510385,-0.700014,2.689739,5.071278,-20.416487,9.151793,107.693201,5.976454,-82.985517,-0.082862,0.564658,0.000000,-2.507902,0.072514,0.000000
2.910000,1.587270,-0.363685,-1.521679,1.652882,1.384917,-0.824986,-4.454325,-0.903506,2.777005,6.135739,-20.296488,8.304346,105.028328,12.821003,-85.136705,-0.108107,0.564579,0.000000,-2.542360,-0.088399,-0.000000
2.920000,1.603577,-0.349884,-1.529789,1.608663,1.374870,-0.796815,-4.387766,-1.105717,2.855761,7.170908,-20.134396,7.443932,101.934964,19.584603,-86.877514,-0.133668,0.562865,0.000000,-2.567715,-0.252204,0.000000
2.930000,1.619446,-0.336194,-1.537613,1.565161,1.362809,-0.767900,-4.311017,-1.305970,2.925832,8.173052,-19.905039,6.568171,98.425463,26.275362,-88.205652,-0.159418,0.559478,0.000000,-2.579936,-0.418251,-0.000000
2.940000,1.634883,-0.322635,-1.545145,1.522475,1.348759,-0.738328,-4.224429,-1.503596,2.987087,9.138071,-19.609105,5.681202,94.512180,32.901383,-89.118825,-0.185220,0.554384,0.000000,-2.578140,-0.585306,0.000000
2.950000,1.649898,-0.309226,-1.552378,1.480703,1.332748,-0.708188,-4.128393,-1.697932,3.039433,10.061990,-19.247200,4.787186,90.207469,39.470775,-89.614741,-0.210931,0.547562,0.000000,-2.561517,-0.752019,0.000000
2.960000,1.664501,-0.295986,-1.559307,1.439934,1.314822,-0.677568,-4.023219,-1.888643,3.082776,10.952045,-18.849495,3.886150,85.243639,46.740370,-89.586152,-0.236438,0.538985,0.000000,-2.532997,-0.918384,0.000000
2.970000,1.678701,-0.282936,-1.565928,1.400264,1.295001,-0.646561,-3.909523,-2.074681,3.117164,11.778257,-18.346259,2.992140,79.947382,53.877865,-89.148573,-0.261535,0.528673,0.000000,-2.483397,-1.079410,0.000000
2.980000,1.692510,-0.270092,-1.572237,1.361770,1.273347,-0.615254,-3.787835,-2.255333,3.142640,12.550040,-17.772656,2.104507,74.365345,60.799685,-88.312564,-0.286049,0.516645,0.000000,-2.416619,-1.235140,-0.000000
2.990000,1.705940,-0.257475,-1.578232,1.324532,1.249915,-0.583737,-3.658712,-2.429908,3.159288,13.264767,-17.131262,1.227182,68.544173,67.422255,-87.088685,-0.309810,0.502938,0.000000,-2.332812,-1.384008,-0.000000
3.000000,1.719005,-0.245100,-1.583912,1.288619,1.224771,-0.552098,-3.522737,-2.597744,3.167231,13.920281,-16.425487,0.363991,62.530514,73.662000,-85.487495,-0.332650,0.487602,0.000000,-2.232484,-1.524481,0.000000
3.010000,1.731717,-0.232985,-1.589274,1.254099,1.197978,-0.520420,-3.380559,-2.757981,3.166582,14.510330,-15.637812,-0.485534,56.486229,78.885612,-83.413752,-0.354377,0.470709,0.000000,-2.113695,-1.654831,0.000000
3.020000,1.744092,-0.221145,-1.594320,1.221028,1.169630,-0.488792,-3.232734,-2.910334,3.157595,15.044485,-14.824842,-1.307863,50.328640,83.626564,-80.996773,-0.374878,0.452344,0.000000,-1.984364,-1.774349,-0.000000
3.030000,1.756143,-0.209597,-1.599050,1.189461,1.139800,-0.457295,-3.079876,-3.054328,3.140511,15.516633,-13.966944,-2.104404,44.090285,87.868593,-78.260072,-0.394023,0.432612,0.000000,-1.842732,-1.881543,-0.000000
3.040000,1.767886,-0.198354,-1.603467,1.159445,1.108573,-0.426008,-2.922610,-3.189540,3.115603,15.926130,-13.069188,-2.872077,37.803703,91.595439,-75.227165,-0.411697,0.411634,0.000000,-1.690445,-1.975387,0.000000
3.050000,1.779337,-0.187430,-1.607572,1.131022,1.076039,-0.395008,-2.761564,-3.315597,3.083175,16.272655,-12.136807,-3.608038,31.501431,94.790842,-71.921566,-0.427803,0.389551,0.000000,-1.529331,-2.055062,-0.000000
3.060000,1.790512,-0.176837,-1.611368,1.104225,1.042285,-0.364368,-2.597386,-3.431910,3.043534,16.554497,-11.150450,-4.311795,25.259391,96.813513,-68.313331,-0.442229,0.366517,0.000000,-1.358464,-2.119902,-0.000000
3.070000,1.801427,-0.166588,-1.614860,1.079083,1.007425,-0.334160,-2.430681,-3.538547,2.997063,16.776053,-10.174258,-4.975961,19.061426,98.348753,-64.485980,-0.454958,0.342697,0.000000,-1.186816,-2.169790,0.000000
3.080000,1.812099,-0.156692,-1.618053,1.055618,0.971547,-0.304448,-2.262070,-3.635352,2.944146,16.935963,-9.184899,-5.600884,12.934760,99.456835,-60.469574,-0.465958,0.318267,0.000000,-1.013002,-2.204537,-0.000000
3.090000,1.822545,-0.147160,-1.620951,1.033846,0.934751,-0.275297,-2.092165,-3.722214,2.885182,17.035077,-8.186344,-6.184823,6.906621,100.198031,-56.294174,-0.475217,0.293406,0.000000,-0.838872,-2.224323,0.000000
3.100000,1.832782,-0.138000,-1.623561,1.013777,0.897136,-0.246763,-1.921567,-3.799059,2.820591,17.074515,-7.181961,-6.726338,1.004233,100.632614,-51.989840,-0.482740,0.268297,0.000000,-0.666142,-2.229574,0.000000
3.110000,1.842826,-0.129220,-1.625889,0.995418,0.858814,-0.218903,-1.750979,-3.866255,2.750817,17.045483,-6.212486,-7.222772,-4.487849,101.779954,-47.624981,-0.488593,0.243136,0.000000,-0.500341,-2.219656,-0.000000
3.120000,1.852696,-0.120826,-1.627941,0.978759,0.819858,-0.191764,-1.580838,-3.923276,2.676282,16.973765,-5.190190,-7.676880,-9.831237,102.623786,-43.186614,-0.492758,0.218077,0.000000,-0.333317,-2.198445,-0.000000
3.130000,1.862407,-0.112824,-1.629727,0.963798,0.780383,-0.165392,-1.411679,-3.970037,2.597428,16.849340,-4.161212,-8.086343,-15.030214,103.106944,-38.700106,-0.495275,0.193281,0.000000,-0.170920,-2.165507,0.000000
3.140000,1.871977,-0.105219,-1.631252,0.950521,0.740492,-0.139828,-1.244022,-4.006490,2.514705,16.673628,-3.129444,-8.450807,-20.089065,103.172261,-34.190821,-0.496196,0.168899,0.000000,-0.014302,-2.121906,0.000000
3.150000,1.881423,-0.098015,-1.632526,0.938911,0.700287,-0.115109,-1.078373,-4.032631,2.428563,16.448011,-2.099350,-8.770169,-25.012073,102.762568,-29.684125,-0.495584,0.145066,0.000000,0.135533,-2.068752,0.000000
3.160000,1.890761,-0.091215,-1.633557,0.928940,0.659862,-0.091267,-0.915051,-4.048080,2.339466,16.189805,-1.037287,-9.043294,-30.207133,100.843739,-25.237917,-0.493470,0.121881,0.000000,0.281535,-2.009045,0.000000
3.170000,1.900007,-0.084818,-1.634354,0.920594,0.619346,-0.068328,-0.754748,-4.053449,2.247844,15.862476,-0.040427,-9.273639,-35.225496,98.455195,-20.841045,-0.489984,0.099476,0.000000,0.413979,-1.939482,0.000000
3.180000,1.909178,-0.078828,-1.634927,0.913834,0.578826,-0.046317,-0.597965,-4.048975,2.154138,15.486035,0.930459,-9.460351,-40.022024,95.659394,-16.514890,-0.485222,0.077947,0.000000,0.536742,-1.863290,0.000000
3.190000,1.918289,-0.073242,-1.635284,0.908621,0.538399,-0.025251,-0.445182,-4.034939,2.058780,15.062925,1.871612,-9.604244,-44.551577,92.518798,-12.280834,-0.479282,0.057371,0.000000,0.649618,-1.781607,0.000000
3.200000,1.927356,-0.068059,-1.635435,0.904915,0.498158,-0.005145,-0.296852,-4.011653,1.962193,14.596043,2.779894,-9.706346,-48.769018,89.095866,-8.160259,-0.472263,0.037808,0.000000,0.752596,-1.695544,0.000000
3.210000,1.936392,-0.063278,-1.635390,0.902672,0.458199,0.013989,-0.153549,-3.979593,1.864821,14.074683,3.640404,-9.764884,-52.274273,85.766045,-4.250689,-0.464278,0.019324,0.000000,0.844444,-1.604594,0.000000
3.220000,1.945414,-0.058894,-1.635158,0.901832,0.418599,0.032149,-0.015470,-3.938959,1.767023,13.535909,4.480590,-9.788450,-55.420600,82.240484,-0.488040,-0.455404,0.001923,0.000000,0.928757,-1.513524,0.000000
3.230000,1.954434,-0.054904,-1.634750,0.902344,0.379447,0.049329,0.117070,-3.890102,1.669175,12.967473,5.284642,-9.775175,-58.206324,78.543319,3.115631,-0.445732,-0.014380,0.000000,1.004348,-1.421387,-0.000000
3.240000,1.963465,-0.051303,-1.634175,0.904154,0.340823,0.065533,0.243793,-3.833392,1.571637,12.372990,6.050965,-9.726707,-60.629767,74.698685,6.548266,-0.435345,-0.029584,0.000000,1.071647,-1.328943,0.000000
3.250000,1.972521,-0.048086,-1.633443,0.907200,0.302804,0.080764,0.364456,-3.769213,1.474752,11.756091,6.778205,-9.644819,-62.689252,70.730717,9.797808,-0.424325,-0.043697,0.000000,1.131122,-1.236855,-0.000000
3.260000,1.981613,-0.045245,-1.632563,0.911426,0.265465,0.095031,0.478688,-3.698045,1.378877,11.105310,7.457591,-9.528512,-64.001354,66.856961,12.779199,-0.412757,-0.056715,0.000000,1.182339,-1.144096,0.000000
3.270000,1.990753,-0.042774,-1.631545,0.916758,0.228868,0.108345,0.586524,-3.620192,1.284278,10.460090,8.106380,-9.386638,-64.992890,62.884459,15.562319,-0.400700,-0.068686,0.000000,1.227991,-1.054968,0.000000
3.280000,1.999952,-0.040665,-1.630399,0.923135,0.193082,0.120721,0.687862,-3.536051,1.191234,9.806370,8.714953,-9.217937,-65.708929,58.813664,18.144049,-0.388218,-0.079641,0.000000,1.267494,-0.967952,-0.000000
3.290000,2.009219,-0.038909,-1.629134,0.930493,0.158167,0.132176,0.782631,-3.446030,1.100002,9.146680,9.282327,-9.024438,-66.194538,54.645027,20.521270,-0.375369,-0.089614,0.000000,1.301269,-0.883270,-0.000000
3.300000,2.018565,-0.037498,-1.627759,0.938766,0.124179,0.142728,0.870782,-3.350545,1.010821,8.483097,9.807528,-8.808203,-66.494786,50.379002,22.690862,-0.362210,-0.098641,0.000000,1.329692,-0.801044,-0.000000
3.310000,2.027997,-0.036422,-1.626282,0.947880,0.091169,0.152399,0.952532,-3.249895,0.923929,7.840007,10.301393,-8.569293,-67.229487,45.717770,24.598418,-0.348779,-0.106786,0.000000,1.354282,-0.723695,0.000000
3.320000,2.037525,-0.035671,-1.624714,0.957786,0.059193,0.161214,1.027561,-3.144674,0.839495,7.164718,10.735000,-8.314637,-67.798586,40.996577,26.298387,-0.335141,-0.114052,0.000000,1.372525,-0.645524,-0.000000
3.330000,2.047155,-0.035235,-1.623061,0.968408,0.028289,0.169198,1.095811,-3.035353,0.757689,6.484672,11.121248,-8.044007,-68.176774,36.252399,27.793931,-0.321345,-0.120467,0.000000,1.386043,-0.569281,-0.000000
3.340000,2.056895,-0.035102,-1.621332,0.979679,-0.001502,0.176377,1.157245,-2.922407,0.678661,5.801903,11.460094,-7.759429,-68.338742,31.522211,29.088210,-0.307435,-0.126061,0.000000,1.395128,-0.494999,0.000000
3.350000,2.066751,-0.035261,-1.619536,0.991531,-0.030148,0.182781,1.211847,-2.806308,0.602540,5.118702,11.751862,-7.462903,-68.259181,26.842987,30.184387,-0.293456,-0.130864,0.000000,1.400072,-0.422723,0.000000
3.360000,2.076727,-0.035701,-1.617679,1.003898,-0.057617,0.188438,1.259455,-2.687626,0.529454,4.421817,11.987931,-7.154805,-67.513915,22.487019,31.045557,-0.279458,-0.134885,0.000000,1.400147,-0.350948,-0.000000
3.370000,2.086830,-0.036410,-1.615769,1.016703,-0.083890,0.193380,1.300313,-2.566693,0.459470,3.751428,12.191418,-6.840826,-66.525343,18.227152,31.719852,-0.265464,-0.138177,0.000000,1.398065,-0.283489,0.000000
3.380000,2.097063,-0.037375,-1.613814,1.029882,-0.108945,0.197638,1.334520,-2.443938,0.392657,3.092043,12.352821,-6.521004,-65.316998,14.071548,32.215339,-0.251507,-0.140771,0.000000,1.392911,-0.218577,0.000000
3.390000,2.107429,-0.038584,-1.611819,1.043371,-0.132764,0.201244,1.362197,-2.319774,0.329063,2.445742,12.473224,-6.197088,-63.912411,10.028370,32.540084,-0.237615,-0.142701,0.000000,1.384903,-0.156217,-0.000000
3.400000,2.117931,-0.040026,-1.609791,1.057105,-0.155337,0.204230,1.383485,-2.194606,0.268723,1.814370,12.553791,-5.870745,-62.335115,6.105777,32.702154,-0.223817,-0.143996,0.000000,1.374235,-0.096397,0.000000
3.410000,2.128571,-0.041687,-1.607736,1.071019,-0.176654,0.206629,1.398579,-2.068826,0.211658,1.203186,12.595763,-5.542932,-60.700797,2.312064,32.693748,-0.210139,-0.144692,0.000000,1.361080,-0.039463,-0.000000
3.420000,2.139352,-0.043555,-1.605660,1.085055,-0.196713,0.208474,1.407605,-1.942815,0.157861,0.604925,12.600482,-5.216643,-58.929550,-1.344756,32.540744,-0.196604,-0.144813,0.000000,1.345603,0.015505,0.000000
3.430000,2.150273,-0.045617,-1.603569,1.099152,-0.215511,0.209797,1.410739,-1.816936,0.107318,0.025010,12.569352,-4.892566,-57.033621,-4.856538,32.253151,-0.183234,-0.144385,0.000000,1.327946,0.068114,-0.000000
3.440000,2.161335,-0.047861,-1.601466,1.113251,-0.233053,0.210631,1.408171,-1.691542,0.059998,-0.535373,12.503862,-4.571996,-55.025258,-8.215136,31.840980,-0.170052,-0.143436,0.000000,1.308244,0.118397,-0.000000
3.450000,2.172538,-0.050274,-1.599357,1.127297,-0.249345,0.211007,1.400100,-1.566968,0.015862,-1.075161,12.405587,-4.256128,-52.916707,-11.412405,31.314241,-0.157076,-0.141991,0.000000,1.286624,0.166381,0.000000
3.460000,2.183880,-0.052844,-1.597247,1.141235,-0.264395,0.210958,1.386745,-1.443564,-0.025144,-1.592880,12.273490,-3.946114,-50.733701,-14.372272,30.684309,-0.144328,-0.140076,0.000000,1.262944,0.212043,0.000000
3.470000,2.195362,-0.055558,-1.595140,1.155014,-0.278220,0.210515,1.368317,-1.321594,-0.063083,-2.088975,12.115673,-3.642819,-48.473352,-17.162837,29.959661,-0.131822,-0.137713,0.000000,1.237945,0.255531,-0.000000
3.480000,2.206980,-0.058404,-1.593038,1.168585,-0.290833,0.209707,1.345042,-1.201340,-0.098026,-2.562124,11.930797,-3.347203,-46.146257,-19.784272,29.150140,-0.119574,-0.134928,0.000000,1.211436,0.296808,0.000000
3.490000,2.218733,-0.061370,-1.590947,1.181900,-0.302253,0.208564,1.317153,-1.083063,-0.130055,-3.011713,11.720551,-3.060066,-43.763013,-22.236750,28.265587,-0.107598,-0.131742,0.000000,1.183514,0.335895,-0.000000
3.500000,2.230617,-0.064445,-1.588868,1.194914,-0.312502,0.207115,1.284888,-0.967008,-0.159258,-3.437233,11.486624,-2.782109,-41.334216,-24.520444,27.315845,-0.095908,-0.128178,0.000000,1.154273,0.372808,-0.000000
3.510000,2.242630,-0.067617,-1.586805,1.207584,-0.321601,0.205388,1.248495,-0.853406,-0.185736,-3.837807,11.230523,-2.514486,-38.882443,-26.630948,26.324701,-0.084517,-0.124259,0.000000,1.123787,0.407524,0.000000
3.520000,2.254767,-0.070873,-1.584761,1.219870,-0.329578,0.203409,1.208214,-0.742465,-0.209582,-4.214261,10.954361,-2.256395,-36.404844,-28.573572,25.286346,-0.073436,-0.120006,0.000000,1.092173,0.440151,0.000000
3.530000,2.267026,-0.074204,-1.582738,1.231736,-0.336460,0.201205,1.164293,-0.634381,-0.230899,-4.565848,10.659608,-2.008889,-33.910547,-30.349050,24.208915,-0.062677,-0.115439,0.000000,1.059504,0.470658,-0.000000
3.540000,2.279401,-0.077599,-1.580738,1.243145,-0.342276,0.198799,1.116980,-0.529330,-0.249796,-4.892447,10.347934,-1.772319,-31.408683,-31.958114,23.100543,-0.052249,-0.110581,0.000000,1.025866,0.499055,-0.000000
3.550000,2.291887,-0.081047,-1.578762,1.254065,-0.347057,0.196217,1.066527,-0.427473,-0.266383,-5.194027,10.020998,-1.546954,-28.908382,-33.401496,21.969365,-0.042163,-0.105452,0.000000,0.991344,0.525357,0.000000
3.560000,2.304480,-0.084537,-1.576814,1.264466,-0.350836,0.193479,1.013190,-0.328967,-0.280781,-5.469966,9.679326,-1.333743,-26.436039,-34.651428,20.842750,-0.032426,-0.100072,0.000000,0.955916,0.549515,0.000000
3.570000,2.317175,-0.088060,-1.574893,1.274320,-0.353648,0.190608,0.957210,-0.233925,-0.293095,-5.722036,9.327233,-1.130988,-23.981404,-35.740635,19.707245,-0.023047,-0.094462,0.000000,0.919932,0.571686,0.000000
3.580000,2.329965,-0.091607,-1.573002,1.283602,-0.355527,0.187624,0.898831,-0.142456,-0.303439,-5.949677,8.965035,-0.939608,-21.551490,-36.673339,18.568629,-0.014030,-0.088642,0.000000,0.883359,0.591818,0.000000
3.590000,2.342845,-0.095168,-1.571141,1.292289,-0.356509,0.184546,0.838297,-0.054653,-0.311925,-6.153171,8.594274,-0.759606,-19.153314,-37.453763,17.432681,-0.005381,-0.082631,0.000000,0.846285,0.609928,-0.000000
3.600000,2.355808,-0.098734,-1.569311,1.300361,-0.356632,0.181391,0.775847,0.029406,-0.318669,-6.332872,8.216453,-0.590926,-16.793890,-38.086131,16.305183,0.002895,-0.076450,0.000000,0.808801,0.626035,0.000000
3.610000,2.368850,-0.102297,-1.567513,1.307800,-0.355934,0.178178,0.711725,0.109652,-0.323790,-6.488525,7.832506,-0.434235,-14.497329,-38.561395,15.211623,0.010793,-0.070118,0.000000,0.770944,0.640101,0.000000
3.620000,2.381962,-0.105850,-1.565748,1.314591,-0.354452,0.174921,0.646152,0.186042,-0.327390,-6.622224,7.445093,-0.287515,-12.251457,-38.898672,14.135659,0.018313,-0.063653,0.000000,0.732928,0.652295,0.000000
3.630000,2.395139,-0.109384,-1.564015,1.320719,-0.352226,0.171635,0.579354,0.258544,-0.329576,-6.733739,7.054973,-0.151452,-10.061197,-39.103810,13.080657,0.025452,-0.057076,0.000000,0.694786,0.662580,-0.000000
3.640000,2.408374,-0.112892,-1.562315,1.326175,-0.349294,0.168334,0.511549,0.327137,-0.330453,-6.823650,6.663437,-0.025821,-7.931469,-39.182658,12.049983,0.032208,-0.050404,0.000000,0.656607,0.670986,-0.000000
3.650000,2.421661,-0.116368,-1.560648,1.330948,-0.345696,0.165030,0.442951,0.391813,-0.330126,-6.892587,6.271721,0.089640,-5.867196,-39.141062,11.047004,0.038584,-0.043655,0.000000,0.618479,0.677549,-0.000000
3.660000,2.434991,-0.119804,-1.559015,1.335031,-0.341471,0.161735,0.373773,0.452573,-0.328701,-6.940517,5.880870,0.194566,-3.891271,-38.981635,10.091686,0.044578,-0.036849,0.000000,0.580472,0.682243,-0.000000
3.670000,2.448359,-0.123195,-1.557414,1.338422,-0.336658,0.158459,0.304205,0.509437,-0.326266,-6.969854,5.492305,0.290840,-1.988443,-38.713857,9.168764,0.050194,-0.030003,0.000000,0.542709,0.685272,0.000000
3.680000,2.461757,-0.126535,-1.555845,1.341115,-0.331295,0.155213,0.234438,0.562430,-0.322914,-6.980539,5.106933,0.378053,-0.161434,-38.343970,8.279571,0.055434,-0.023132,0.000000,0.505257,0.686610,-0.000000
3.690000,2.475179,-0.129819,-1.554309,1.343110,-0.325422,0.152004,0.164654,0.611590,-0.318734,-6.973344,4.725745,0.456549,1.587035,-37.878220,7.425441,0.060300,-0.016255,0.000000,0.468196,0.686307,-0.000000
3.700000,2.488617,-0.133042,-1.552805,1.344409,-0.319076,0.148841,0.095028,0.656962,-0.313811,-6.949069,4.349668,0.526683,3.254242,-37.322849,6.607707,0.064799,-0.009386,0.000000,0.431605,0.684420,0.000000
3.710000,2.502065,-0.136199,-1.551332,1.345012,-0.312295,0.145730,0.025734,0.698603,-0.308232,-6.907903,3.979605,0.588355,4.821395,-36.685084,5.839661,0.068934,-0.002543,0.000000,0.395558,0.680945,-0.000000
3.720000,2.515515,-0.139287,-1.549890,1.344925,-0.305116,0.142678,-0.043079,0.736577,-0.302069,-6.852206,3.616267,0.643068,6.303812,-35.970066,5.109216,0.072712,0.004260,0.000000,0.360127,0.676094,-0.000000
3.730000,2.528961,-0.142301,-1.548479,1.344152,-0.297575,0.139690,-0.111262,0.770954,-0.295394,-6.782112,3.260441,0.690664,7.700739,-35.183919,4.416240,0.076139,0.011010,0.000000,0.325380,0.669862,-0.000000
3.740000,2.542396,-0.145237,-1.547096,1.342702,-0.289709,0.136772,-0.178676,0.801813,-0.288278,-6.698479,2.912806,0.731517,9.011425,-34.332766,3.760602,0.079222,0.017692,0.000000,0.291382,0.662319,-0.000000
3.750000,2.555813,-0.148094,-1.545743,1.340582,-0.281551,0.133926,-0.245190,0.829239,-0.280785,-6.602173,2.573982,0.766000,10.235116,-33.422733,3.142172,0.081970,0.024294,0.000000,0.258192,0.653533,0.000000
3.760000,2.569205,-0.150867,-1.544418,1.337801,-0.273135,0.131157,-0.310674,0.853326,-0.272981,-6.493532,2.244690,0.794206,11.357512,-32.464055,2.567850,0.084389,0.030802,0.000000,0.225879,0.643525,0.000000
3.770000,2.582567,-0.153556,-1.543119,1.334372,-0.264495,0.128467,-0.375024,0.874166,-0.264920,-6.374708,1.925041,0.817164,12.393065,-31.458240,2.029614,0.086490,0.037206,0.000000,0.194462,0.632497,0.000000
3.780000,2.595890,-0.156157,-1.541848,1.330305,-0.255662,0.125859,-0.438135,0.891861,-0.256655,-6.245958,1.615663,0.834915,13.342681,-30.410907,1.526472,0.088282,0.043496,0.000000,0.164001,0.620464,-0.000000
3.790000,2.609171,-0.158668,-1.540602,1.325614,-0.246668,0.123335,-0.499913,0.906515,-0.248238,-6.108137,1.316943,0.847807,14.207265,-29.327675,1.057434,0.089774,0.049661,0.000000,0.134539,0.607503,-0.000000
3.800000,2.622401,-0.161090,-1.539381,1.320311,-0.237542,0.120895,-0.560271,0.918236,-0.239714,-5.962093,1.029211,0.856174,14.987723,-28.214165,0.621507,0.090976,0.055692,0.000000,0.106110,0.593691,-0.000000
3.810000,2.635575,-0.163419,-1.538184,1.314413,-0.228313,0.118541,-0.619125,0.927140,-0.231129,-5.808140,0.753096,0.860237,15.671827,-27.084954,0.220413,0.091900,0.061581,0.000000,0.078781,0.579053,0.000000
3.820000,2.648687,-0.165656,-1.537010,1.307934,-0.219008,0.116272,-0.676412,0.933336,-0.222522,-5.648339,0.487979,0.860564,16.275224,-25.935607,-0.149885,0.092555,0.067320,0.000000,0.052496,0.563789,0.000000
3.830000,2.661732,-0.167799,-1.535858,1.300890,-0.209655,0.114090,-0.732073,0.936938,-0.213930,-5.482897,0.234436,0.857337,16.800428,-24.770647,-0.490709,0.092953,0.072903,0.000000,0.027315,0.547916,-0.000000
3.840000,2.674703,-0.169849,-1.534728,1.293298,-0.200278,0.111994,-0.786054,0.938064,-0.205386,-5.312583,-0.007397,0.850844,17.249953,-23.594599,-0.803384,0.093105,0.078324,0.000000,0.003256,0.531509,0.000000
3.850000,2.687596,-0.171804,-1.533618,1.285175,-0.190901,0.109982,-0.838311,0.936830,-0.196923,-5.138141,-0.237434,0.841359,17.626312,-22.411984,-1.089233,0.093022,0.083578,0.000000,-0.019669,0.514640,0.000000
3.860000,2.700405,-0.173667,-1.532528,1.276538,-0.181549,0.108055,-0.888802,0.933359,-0.188568,-4.959942,-0.455252,0.829165,17.923187,-21.236883,-1.350097,0.092716,0.088660,0.000000,-0.041412,0.497345,0.000000
3.870000,2.713125,-0.175436,-1.531457,1.267405,-0.172241,0.106210,-0.937501,0.927764,-0.180348,-4.779507,-0.661749,0.814461,18.153005,-20.063092,-1.586719,0.092198,0.093567,0.000000,-0.062061,0.479773,0.000000
3.880000,2.725751,-0.177112,-1.530403,1.257794,-0.163000,0.104447,-0.984385,0.920163,-0.172286,-4.597094,-0.856529,0.797507,18.319364,-18.893964,-1.800358,0.091479,0.098295,0.000000,-0.081572,0.461953,0.000000
3.890000,2.738279,-0.178696,-1.529367,1.247723,-0.153844,0.102764,-1.029438,0.910672,-0.164404,-4.413319,-1.039655,0.778526,18.425857,-17.732852,-1.992276,0.090570,0.102844,0.000000,-0.099947,0.443945,-0.000000
3.900000,2.750704,-0.180189,-1.528348,1.237211,-0.144793,0.101159,-1.072649,0.899408,-0.156722,-4.228764,-1.211224,0.757730,18.476081,-16.583109,-2.163732,0.089483,0.107210,0.000000,-0.117193,0.425808,-0.000000
3.910000,2.763022,-0.181592,-1.527344,1.226276,-0.135862,0.099629,-1.114012,0.886489,-0.149254,-4.043897,-1.371109,0.735414,18.471719,-15.454595,-2.318466,0.088230,0.111394,0.000000,-0.133292,0.407593,-0.000000
3.920000,2.775228,-0.182907,-1.526355,1.214937,-0.127068,0.098173,-1.153528,0.872023,-0.142018,-3.859407,-1.520083,0.711532,18.418514,-14.343359,-2.454955,0.086821,0.115394,0.000000,-0.148322,0.389366,0.000000
3.930000,2.787320,-0.184134,-1.525380,1.203212,-0.118426,0.096788,-1.191202,0.856124,-0.135028,-3.675677,-1.658042,0.686372,18.320293,-13.251957,-2.574155,0.085267,0.119211,0.000000,-0.162267,0.371168,0.000000
3.940000,2.799291,-0.185276,-1.524419,1.191119,-0.109950,0.095471,-1.227045,0.838899,-0.128295,-3.493138,-1.785197,0.660103,18.180887,-12.182946,-2.677023,0.083579,0.122845,0.000000,-0.175145,0.353046,-0.000000
3.950000,2.811141,-0.186334,-1.523471,1.178677,-0.101652,0.094221,-1.261070,0.820455,-0.121829,-3.312184,-1.901784,0.632883,18.004125,-11.138883,-2.764515,0.081768,0.126297,0.000000,-0.186979,0.335040,-0.000000
3.960000,2.822864,-0.187309,-1.522534,1.165904,-0.093545,0.093034,-1.293297,0.800902,-0.115639,-3.133358,-2.007659,0.604960,17.798633,-10.132611,-2.840102,0.079844,0.129569,0.000000,-0.197749,0.317208,-0.000000
3.970000,2.834458,-0.188205,-1.521610,1.152817,-0.085638,0.091907,-1.323745,0.780335,-0.109732,-2.956526,-2.104073,0.576239,17.562856,-9.155138,-2.901919,0.077816,0.132662,0.000000,-0.207581,0.299537,-0.000000
3.980000,2.845919,-0.189023,-1.520696,1.139435,-0.077941,0.090838,-1.352436,0.758852,-0.104116,-2.782191,-2.190862,0.546966,17.300038,-8.207762,-2.950613,0.075695,0.135578,0.000000,-0.216454,0.282081,0.000000
3.990000,2.857246,-0.189765,-1.519793,1.125774,-0.070463,0.089824,-1.379398,0.736549,-0.098794,-2.610605,-2.268333,0.517268,17.013420,-7.291779,-2.986834,0.073490,0.138321,0.000000,-0.224397,0.264867,0.000000
4.000000,2.868434,-0.190433,-1.518899,1.111852,-0.063212,0.088861,-1.404658,0.713516,-0.093771,-2.441991,-2.336807,0.487269,16.706246,-6.408485,-3.011231,0.071210,0.140891,0.000000,-0.231441,0.247920,0.000000
4.010000,2.879482,-0.191030,-1.518015,1.097687,-0.056195,0.087947,-1.428252,0.689846,-0.089049,-2.276900,-2.396166,0.457126,16.390917,-5.570550,-3.025593,0.068865,0.143293,0.000000,-0.237571,0.231299,-0.000000
4.020000,2.890387,-0.191558,-1.517140,1.083293,-0.049418,0.087079,-1.450207,0.665620,-0.084629,-2.114632,-2.447823,0.426843,16.060394,-4.766505,-3.029288,0.066462,0.145529,0.000000,-0.242928,0.214935,-0.000000
4.030000,2.901147,-0.192019,-1.516274,1.068688,-0.042885,0.086254,-1.470556,0.640916,-0.080512,-1.955736,-2.491609,0.396574,15.716799,-3.996252,-3.022824,0.064009,0.147602,0.000000,-0.247492,0.198886,-0.000000
4.040000,2.911760,-0.192416,-1.515415,1.053887,-0.036601,0.085468,-1.489333,0.615813,-0.076697,-1.800332,-2.527860,0.366419,15.362252,-3.259697,-3.006710,0.061514,0.149516,0.000000,-0.251297,0.183168,0.000000
4.050000,2.922224,-0.192752,-1.514564,1.038906,-0.030569,0.084719,-1.506575,0.590383,-0.073183,-1.648520,-2.556915,0.336471,14.998874,-2.556741,-2.981454,0.058985,0.151274,0.000000,-0.254375,0.167792,-0.000000
4.060000,2.932538,-0.193028,-1.513721,1.023761,-0.024794,0.084003,-1.522320,0.564699,-0.069967,-1.500698,-2.578921,0.306830,14.636877,-1.891974,-2.947843,0.056429,0.152879,0.000000,-0.256739,0.152801,-0.000000
4.070000,2.942699,-0.193248,-1.512884,1.008465,-0.019276,0.083319,-1.536601,0.538826,-0.067045,-1.356163,-2.594654,0.277553,14.269301,-1.260041,-2.906074,0.053853,0.154336,0.000000,-0.258467,0.138128,0.000000
4.080000,2.952706,-0.193415,-1.512054,0.993033,-0.014018,0.082661,-1.549455,0.512827,-0.064414,-1.215327,-2.604229,0.248734,13.897274,-0.660273,-2.856621,0.051262,0.155647,0.000000,-0.259569,0.123815,-0.000000
4.090000,2.962559,-0.193530,-1.511231,0.977480,-0.009020,0.082029,-1.560920,0.486761,-0.062069,-1.078228,-2.607965,0.220445,13.521927,-0.092000,-2.799959,0.048663,0.156817,0.000000,-0.260077,0.109871,-0.000000
4.100000,2.972256,-0.193596,-1.510413,0.961820,-0.004283,0.081419,-1.571032,0.460686,-0.060003,-0.944895,-2.606172,0.192757,13.144389,0.445449,-2.736564,0.046062,0.157848,0.000000,-0.260022,0.096298,-0.000000
4.110000,2.981795,-0.193616,-1.509602,0.946064,0.000194,0.080828,-1.579832,0.434655,-0.058211,-0.815541,-2.599124,0.165736,12.770755,0.951925,-2.666957,0.043465,0.158746,0.000000,-0.259430,0.083121,-0.000000
4.120000,2.991177,-0.193593,-1.508797,0.930227,0.004411,0.080254,-1.587356,0.408720,-0.056686,-0.689704,-2.587195,0.139439,12.396582,1.429017,-2.591560,0.040876,0.159513,0.000000,-0.258339,0.070296,0.000000
4.130000,3.000399,-0.193529,-1.507997,0.914321,0.008369,0.079694,-1.593639,0.382927,-0.055420,-0.567609,-2.570639,0.113923,12.022393,1.877493,-2.510841,0.038300,0.160154,0.000000,-0.256775,0.057848,0.000000
4.140000,3.009463,-0.193426,-1.507203,0.898358,0.012070,0.079145,-1.598720,0.357321,-0.054405,-0.449254,-2.549738,0.089239,11.648709,2.298123,-2.425269,0.035742,0.160673,0.000000,-0.254766,0.045777,0.000000
4.150000,3.018366,-0.193288,-1.506414,0.882351,0.015516,0.078605,-1.602637,0.331946,-0.053632,-0.334631,-2.524767,0.065432,11.276053,2.691678,-2.335314,0.033206,0.161072,0.000000,-0.252339,0.034084,-0.000000
4.160000,3.027110,-0.193117,-1.505631,0.866309,0.018710,0.078071,-1.605426,0.306839,-0.053093,-0.223794,-2.495981,0.042550,10.906621,3.058658,-2.241569,0.030696,0.161356,0.000000,-0.249522,0.022778,0.000000
4.170000,3.035693,-0.192915,-1.504853,0.850246,0.021654,0.077542,-1.607125,0.282038,-0.052778,-0.116567,-2.463667,0.020618,10.539056,3.400134,-2.144362,0.028216,0.161529,0.000000,-0.246342,0.011840,0.000000
4.180000,3.044115,-0.192685,-1.504080,0.834171,0.024352,0.077015,-1.607770,0.257576,-0.052677,-0.013006,-2.428061,-0.000327,10.173675,3.716911,-2.044147,0.025770,0.161594,0.000000,-0.242824,0.001279,-0.000000
4.190000,3.052376,-0.192429,-1.503312,0.818094,0.026807,0.076488,-1.607397,0.233487,-0.052781,0.086914,-2.389408,-0.020256,9.810794,4.009791,-1.941379,0.023361,0.161556,0.000000,-0.238994,-0.008908,-0.000000
4.200000,3.060477,-0.192149,-1.502550,0.802026,0.029023,0.075959,-1.606043,0.209798,-0.053079,0.183220,-2.347942,-0.039147,9.450732,4.279578,-1.836509,0.020991,0.161417,0.000000,-0.234875,-0.018722,0.000000
4.210000,3.068417,-0.191849,-1.501793,0.785976,0.031004,0.075426,-1.603745,0.186536,-0.053560,0.275909,-2.303895,-0.056962,9.094584,4.527184,-1.730474,0.018664,0.161182,0.000000,-0.230491,-0.028162,-0.000000
4.220000,3.076196,-0.191530,-1.501042,0.769954,0.032755,0.074887,-1.600537,0.163728,-0.054215,0.365088,-2.257475,-0.073731,8.741793,4.753289,-1.623185,0.016382,0.160855,0.000000,-0.225864,-0.037239,0.000000
4.230000,3.083816,-0.191195,-1.500296,0.753968,0.034280,0.074341,-1.596455,0.141394,-0.055031,0.450756,-2.208898,-0.089423,8.392580,4.958682,-1.515039,0.014148,0.160439,0.000000,-0.221015,-0.045951,0.000000
4.240000,3.091276,-0.190845,-1.499555,0.738028,0.035585,0.073786,-1.591533,0.119556,-0.056000,0.532952,-2.158368,-0.104030,8.047169,5.144153,-1.406430,0.011963,0.159937,0.000000,-0.215967,-0.054303,0.000000
4.250000,3.098576,-0.190484,-1.498820,0.722140,0.036673,0.073221,-1.585807,0.098233,-0.057108,0.611713,-2.106079,-0.117551,7.705779,5.310491,-1.297753,0.009829,0.159354,0.000000,-0.210738,-0.062298,-0.000000
4.260000,3.105719,-0.190112,-1.498091,0.706314,0.037551,0.072643,-1.579311,0.077440,-0.058347,0.687054,-2.052231,-0.129958,7.369340,5.458769,-1.190135,0.007749,0.158692,0.000000,-0.205351,-0.069936,0.000000
4.270000,3.112703,-0.189733,-1.497367,0.690557,0.038224,0.072053,-1.572077,0.057193,-0.059704,0.759083,-1.996975,-0.141323,7.037281,5.589459,-1.083148,0.005723,0.157956,0.000000,-0.199820,-0.077230,0.000000
4.280000,3.119530,-0.189349,-1.496650,0.674875,0.038697,0.071449,-1.564140,0.037504,-0.061170,0.827814,-1.940497,-0.151624,6.709737,5.703315,-0.977097,0.003753,0.157149,0.000000,-0.194165,-0.084182,0.000000
4.290000,3.126201,-0.188960,-1.495938,0.659276,0.038976,0.070829,-1.555532,0.018386,-0.062733,0.893293,-1.882962,-0.160869,6.386844,5.801091,-0.872287,0.001840,0.156274,0.000000,-0.188402,-0.090794,0.000000
4.300000,3.132716,-0.188570,-1.495233,0.643766,0.039066,0.070194,-1.546285,-0.000152,-0.064383,0.955567,-1.824527,-0.169075,6.068736,5.883543,-0.769022,-0.000015,0.155334,0.000000,-0.182549,-0.097073,-0.000000
4.310000,3.139076,-0.188179,-1.494534,0.628352,0.038975,0.069542,-1.536431,-0.018102,-0.066111,1.014658,-1.765357,-0.176224,5.756209,5.951849,-0.668429,-0.001811,0.154333,0.000000,-0.176622,-0.103021,0.000000
4.320000,3.145283,-0.187791,-1.493842,0.613040,0.038706,0.068871,-1.526002,-0.035457,-0.067905,1.070679,-1.705555,-0.182413,5.448658,6.006287,-0.569891,-0.003547,0.153275,0.000000,-0.170631,-0.108650,0.000000
4.330000,3.151338,-0.187406,-1.493157,0.597834,0.038267,0.068183,-1.515028,-0.052212,-0.069756,1.123648,-1.645275,-0.187629,5.146137,6.047561,-0.473612,-0.005224,0.152161,0.000000,-0.164593,-0.113963,-0.000000
4.340000,3.157240,-0.187026,-1.492479,0.582741,0.037664,0.067476,-1.503539,-0.068361,-0.071654,1.173618,-1.584645,-0.191894,4.848702,6.076373,-0.379797,-0.006839,0.150996,0.000000,-0.158521,-0.118965,0.000000
4.350000,3.162993,-0.186653,-1.491807,0.567765,0.036902,0.066750,-1.491565,-0.083904,-0.073590,1.220640,-1.523787,-0.195234,4.556407,6.093425,-0.288651,-0.008394,0.149783,0.000000,-0.152427,-0.123662,-0.000000
4.360000,3.168596,-0.186289,-1.491144,0.552911,0.035988,0.066004,-1.479136,-0.098837,-0.075555,1.264746,-1.462842,-0.197646,4.269741,6.100133,-0.201156,-0.009888,0.148524,0.000000,-0.146326,-0.128057,-0.000000
4.370000,3.174051,-0.185934,-1.490487,0.538184,0.034928,0.065239,-1.466280,-0.113160,-0.077540,1.306032,-1.401851,-0.199232,3.988271,6.096400,-0.116643,-0.011320,0.147223,0.000000,-0.140222,-0.132162,-0.000000
4.380000,3.179360,-0.185590,-1.489839,0.523587,0.033727,0.064453,-1.453025,-0.126874,-0.079537,1.344529,-1.340947,-0.199989,3.711998,6.082842,-0.035220,-0.012692,0.145882,0.000000,-0.134128,-0.135979,-0.000000
4.390000,3.184524,-0.185260,-1.489198,0.509124,0.032392,0.063648,-1.439398,-0.139980,-0.081538,1.380290,-1.280225,-0.199947,3.440924,6.060074,0.043003,-0.014003,0.144504,0.000000,-0.128053,-0.139516,0.000000
4.400000,3.189543,-0.184943,-1.488566,0.494800,0.030929,0.062823,-1.425428,-0.152480,-0.083534,1.413365,-1.219774,-0.199140,3.175049,6.028712,0.117918,-0.015253,0.143092,0.000000,-0.122008,-0.142777,-0.000000
4.410000,3.194420,-0.184642,-1.487942,0.480617,0.029345,0.061977,-1.411140,-0.164377,-0.085518,1.443792,-1.159705,-0.197574,2.914787,5.990080,0.188758,-0.016443,0.141649,0.000000,-0.116003,-0.145766,-0.000000
4.420000,3.199156,-0.184357,-1.487327,0.466578,0.027644,0.061112,-1.396561,-0.175675,-0.087483,1.471660,-1.100029,-0.195347,2.659676,5.943999,0.256153,-0.017574,0.140177,0.000000,-0.110040,-0.148495,0.000000
4.430000,3.203752,-0.184089,-1.486720,0.452687,0.025833,0.060228,-1.381715,-0.186379,-0.089422,1.497002,-1.040848,-0.192463,2.409668,5.890996,0.320072,-0.018644,0.138679,0.000000,-0.104127,-0.150967,0.000000
4.440000,3.208210,-0.183840,-1.486122,0.438945,0.023918,0.059324,-1.366629,-0.196494,-0.091330,1.519870,-0.982230,-0.188957,2.164715,5.831602,0.380488,-0.019656,0.137158,0.000000,-0.098273,-0.153187,-0.000000
4.450000,3.212532,-0.183611,-1.485533,0.425355,0.021905,0.058401,-1.351326,-0.206026,-0.093200,1.540313,-0.924236,-0.184865,1.924767,5.766344,0.437373,-0.020610,0.135616,0.000000,-0.092482,-0.155162,0.000000
4.460000,3.216718,-0.183402,-1.484954,0.411919,0.019800,0.057460,-1.335831,-0.214981,-0.095025,1.558364,-0.866950,-0.180202,1.690211,5.696487,0.490207,-0.021506,0.134055,0.000000,-0.086765,-0.156894,-0.000000
4.470000,3.220770,-0.183215,-1.484384,0.398639,0.017607,0.056501,-1.320166,-0.223367,-0.096802,1.574114,-0.810355,-0.175050,1.460509,5.621734,0.539513,-0.022346,0.132478,0.000000,-0.081118,-0.158394,-0.000000
4.480000,3.224691,-0.183051,-1.483824,0.385516,0.015334,0.055524,-1.304356,-0.231191,-0.098525,1.587591,-0.754530,-0.169423,1.235559,5.542525,0.585320,-0.023129,0.130887,0.000000,-0.075549,-0.159665,0.000000
4.490000,3.228481,-0.182909,-1.483274,0.372552,0.012985,0.054531,-1.288422,-0.238461,-0.100189,1.598841,-0.699518,-0.163356,1.015258,5.459297,0.627661,-0.023857,0.129285,0.000000,-0.070062,-0.160713,0.000000
4.500000,3.232143,-0.182791,-1.482734,0.359748,0.010567,0.053521,-1.272386,-0.245184,-0.101790,1.607911,-0.645356,-0.156882,0.799505,5.372490,0.666566,-0.024530,0.127673,0.000000,-0.064662,-0.161542,0.000000
4.510000,3.235677,-0.182698,-1.482204,0.347105,0.008083,0.052495,-1.256271,-0.251371,-0.103325,1.614851,-0.592097,-0.150024,0.588056,5.283002,0.701765,-0.025150,0.126054,0.000000,-0.059352,-0.162159,-0.000000
4.520000,3.239085,-0.182630,-1.481684,0.334623,0.005541,0.051455,-1.240096,-0.257029,-0.104790,1.619693,-0.539726,-0.142844,0.380967,5.190755,0.733628,-0.025718,0.124429,0.000000,-0.054132,-0.162565,-0.000000
4.530000,3.242370,-0.182587,-1.481174,0.322303,0.002945,0.050400,-1.223884,-0.262169,-0.106181,1.622485,-0.488289,-0.135362,0.178154,5.096134,0.762223,-0.026233,0.122802,0.000000,-0.049006,-0.162768,0.000000
4.540000,3.245532,-0.182571,-1.480676,0.310145,0.000299,0.049331,-1.207653,-0.266798,-0.107496,1.623270,-0.437810,-0.127610,-0.020469,4.999519,0.787620,-0.026698,0.121173,0.000000,-0.043976,-0.162772,0.000000
4.550000,3.248573,-0.182581,-1.480188,0.298150,-0.002390,0.048250,-1.191425,-0.270928,-0.108732,1.622089,-0.388304,-0.119620,-0.214986,4.901295,0.809886,-0.027113,0.119546,0.000000,-0.039043,-0.162580,-0.000000
4.560000,3.251495,-0.182619,-1.479711,0.286316,-0.005118,0.047157,-1.175218,-0.274568,-0.109888,1.618956,-0.339836,-0.111418,-0.404802,4.803048,0.828966,-0.027479,0.117921,0.000000,-0.034214,-0.162195,0.000000
4.570000,3.254300,-0.182684,-1.479245,0.274645,-0.007879,0.046052,-1.159052,-0.277728,-0.110960,1.613976,-0.292301,-0.103045,-0.590765,4.703809,0.845068,-0.027798,0.116301,0.000000,-0.029478,-0.161627,-0.000000
4.580000,3.256989,-0.182776,-1.478790,0.263135,-0.010671,0.044938,-1.142945,-0.280417,-0.111948,1.607153,-0.245762,-0.094526,-0.773044,4.603813,0.858273,-0.028069,0.114688,0.000000,-0.024840,-0.160878,-0.000000
4.590000,3.259563,-0.182897,-1.478346,0.251786,-0.013486,0.043814,-1.126915,-0.282647,-0.112850,1.598526,-0.200226,-0.085889,-0.951809,4.503294,0.868666,-0.028295,0.113083,0.000000,-0.020302,-0.159951,-0.000000
4.600000,3.262025,-0.183046,-1.477914,0.240597,-0.016322,0.042681,-1.110980,-0.284425,-0.113666,1.588128,-0.155697,-0.077162,-1.127227,4.402489,0.876330,-0.028476,0.111488,0.000000,-0.015864,-0.158849,-0.000000
4.610000,3.264376,-0.183224,-1.477492,0.229566,-0.019173,0.041541,-1.095158,-0.285764,-0.114393,1.575986,-0.112207,-0.068371,-1.299299,4.302401,0.881337,-0.028613,0.109905,0.000000,-0.011529,-0.157575,0.000000
4.620000,3.266617,-0.183430,-1.477083,0.218693,-0.022036,0.040394,-1.079466,-0.286673,-0.115033,1.562145,-0.069683,-0.059543,-1.468383,4.202403,0.883783,-0.028707,0.108336,0.000000,-0.007289,-0.156135,-0.000000
4.630000,3.268750,-0.183664,-1.476685,0.207976,-0.024905,0.039240,-1.063921,-0.287161,-0.115584,1.546627,-0.028158,-0.050704,-1.634665,4.102634,0.883752,-0.028759,0.106782,0.000000,-0.003148,-0.154530,0.000000
4.640000,3.270777,-0.183928,-1.476298,0.197414,-0.027778,0.038082,-1.048539,-0.287239,-0.116047,1.529460,0.012371,-0.041876,-1.798337,4.003237,0.881328,-0.028770,0.105245,0.000000,0.000895,-0.152763,0.000000
4.650000,3.272699,-0.184220,-1.475923,0.187005,-0.030649,0.036920,-1.033337,-0.286917,-0.116422,1.510669,0.051908,-0.033085,-1.959586,3.904352,0.876597,-0.028741,0.103726,0.000000,0.004841,-0.150836,-0.000000
4.660000,3.274518,-0.184541,-1.475560,0.176747,-0.033515,0.035754,-1.018331,-0.286204,-0.116709,1.490278,0.090467,-0.024355,-2.118653,3.805957,0.869729,-0.028673,0.102227,0.000000,0.008691,-0.148753,-0.000000
4.670000,3.276234,-0.184890,-1.475208,0.166637,-0.036372,0.034586,-1.003537,-0.285111,-0.116909,1.468305,0.128037,-0.015701,-2.275669,3.708376,0.860712,-0.028568,0.100750,0.000000,0.012444,-0.146514,-0.000000
4.680000,3.277851,-0.185268,-1.474868,0.156675,-0.039216,0.033416,-0.988970,-0.283647,-0.117023,1.444771,0.164637,-0.007148,-2.430817,3.611769,0.849620,-0.028425,0.099296,0.000000,0.016102,-0.144122,0.000000
4.690000,3.279368,-0.185675,-1.474540,0.146857,-0.042043,0.032246,-0.974647,-0.281821,-0.117053,1.419694,0.200277,0.001285,-2.584278,3.516298,0.836526,-0.028246,0.097867,0.000000,0.019666,-0.141578,-0.000000
4.700000,3.280788,-0.186109,-1.474223,0.137181,-0.044851,0.031075,-0.960582,-0.279644,-0.116998,1.393090,0.234968,0.009576,-2.736236,3.422124,0.821506,-0.028032,0.096464,0.000000,0.023137,-0.138885,-0.000000
4.710000,3.282112,-0.186571,-1.473918,0.127645,-0.047635,0.029906,-0.946790,-0.277126,-0.116862,1.364931,0.268687,0.017702,-2.885788,3.330340,0.804790,-0.027783,0.095089,0.000000,0.026514,-0.136038,0.000000
4.720000,3.283342,-0.187062,-1.473625,0.118245,-0.050392,0.028738,-0.933288,-0.274274,-0.116645,1.335330,0.301538,0.025659,-3.034335,3.240059,0.786276,-0.027502,0.093743,0.000000,0.029805,-0.133050,0.000000
4.730000,3.284478,-0.187579,-1.473343,0.108978,-0.053119,0.027573,-0.920089,-0.271098,-0.116349,1.304247,0.333493,0.033422,-3.182191,3.151329,0.766018,-0.027188,0.092427,0.000000,0.033010,-0.129916,0.000000
4.740000,3.285522,-0.188124,-1.473073,0.099842,-0.055813,0.026412,-0.907208,-0.267607,-0.115977,1.271687,0.364570,0.040974,-3.329673,3.064196,0.744072,-0.026842,0.091144,0.000000,0.036129,-0.126636,0.000000
4.750000,3.286475,-0.188695,-1.472815,0.090833,-0.058471,0.025254,-0.894660,-0.263809,-0.115530,1.237653,0.394783,0.048298,-3.477095,2.978707,0.720491,-0.026465,0.089894,0.000000,0.039164,-0.123211,-0.000000
4.760000,3.287339,-0.189293,-1.472568,0.081947,-0.061088,0.024101,-0.882455,-0.259714,-0.115012,1.202590,0.424123,0.055372,-3.636020,2.895577,0.695492,-0.026059,0.088679,0.000000,0.042113,-0.119684,0.000000
4.770000,3.288114,-0.189917,-1.472333,0.073182,-0.063664,0.022954,-0.870613,-0.255330,-0.114424,1.165438,0.452670,0.062195,-3.794139,2.814101,0.668949,-0.025623,0.087500,0.000000,0.044986,-0.115951,-0.000000
4.780000,3.288803,-0.190566,-1.472109,0.064534,-0.066194,0.021813,-0.859151,-0.250664,-0.113769,1.126713,0.480410,0.068746,-3.950391,2.734246,0.640896,-0.025159,0.086360,0.000000,0.047781,-0.112061,0.000000
4.790000,3.289405,-0.191241,-1.471897,0.055998,-0.068676,0.020679,-0.848084,-0.245724,-0.113050,1.086440,0.507360,0.075008,-4.103713,2.655975,0.611367,-0.024668,0.085259,0.000000,0.050499,-0.108018,-0.000000
4.800000,3.289923,-0.191940,-1.471696,0.047571,-0.071108,0.019552,-0.837428,-0.240519,-0.112270,1.044652,0.533535,0.080969,-4.253045,2.579254,0.580398,-0.024150,0.084199,0.000000,0.053141,-0.103825,-0.000000
4.810000,3.290357,-0.192663,-1.471506,0.039246,-0.073486,0.018434,-0.827134,-0.235055,-0.111432,1.007145,0.559023,0.086606,-4.542551,2.502222,0.548166,-0.023605,0.083176,0.000000,0.055716,-0.100061,0.000000
4.820000,3.290708,-0.193409,-1.471327,0.031024,-0.075808,0.017324,-0.817294,-0.229341,-0.110539,0.960364,0.583667,0.091921,-4.808159,2.426894,0.514545,-0.023036,0.082198,0.000000,0.058210,-0.095370,-0.000000
4.830000,3.290978,-0.194179,-1.471159,0.022899,-0.078072,0.016223,-0.807935,-0.223384,-0.109594,0.911125,0.607567,0.096892,-5.031026,2.353456,0.479553,-0.022441,0.081269,0.000000,0.060632,-0.090433,-0.000000
4.840000,3.291167,-0.194970,-1.471002,0.014864,-0.080275,0.015132,-0.799078,-0.217192,-0.108602,0.859949,0.630743,0.101507,-5.192306,2.282099,0.443208,-0.021823,0.080390,0.000000,0.062983,-0.085302,0.000000
4.850000,3.291276,-0.195784,-1.470856,0.006915,-0.082415,0.014051,-0.790740,-0.210772,-0.107565,0.807547,0.653216,0.105752,-5.273154,2.213010,0.405528,-0.021182,0.079563,0.000000,0.065266,-0.080049,0.000000
4.860000,3.291305,-0.196619,-1.470721,-0.000952,-0.084490,0.012981,-0.782928,-0.204130,-0.106488,0.754817,0.675011,0.109614,-5.254727,2.146378,0.366529,-0.020518,0.078789,0.000000,0.067482,-0.074763,-0.000000
4.870000,3.291257,-0.197473,-1.470597,-0.008745,-0.086497,0.011922,-0.775641,-0.197274,-0.105374,0.702846,0.696153,0.113078,-5.118179,2.082392,0.326229,-0.019833,0.078067,0.000000,0.069634,-0.069553,0.000000
4.880000,3.291131,-0.198348,-1.470483,-0.016467,-0.088434,0.010874,-0.768865,-0.190209,-0.104228,0.652910,0.716668,0.116134,-4.844665,2.021239,0.284647,-0.019126,0.077397,0.000000,0.071724,-0.064547,0.000000
4.890000,3.290928,-0.199242,-1.470379,-0.024124,-0.090300,0.009837,-0.762571,-0.182942,-0.103053,0.606472,0.736588,0.118767,-4.415341,1.963108,0.241798,-0.018398,0.076775,0.000000,0.073756,-0.059893,0.000000
4.900000,3.290648,-0.200154,-1.470286,-0.031720,-0.092093,0.008813,-0.756718,-0.175479,-0.101854,0.565185,0.755941,0.120966,-3.811363,1.908188,0.197701,-0.017651,0.076197,0.000000,0.075731,-0.055756,-0.000000
4.910000,3.290293,-0.201084,-1.470203,-0.039259,-0.093809,0.007800,-0.751244,-0.167825,-0.100635,0.530890,0.774763,0.122717,-3.013885,1.856666,0.152374,-0.016884,0.075657,0.000000,0.077653,-0.052321,0.000000
4.920000,3.289863,-0.202030,-1.470130,-0.046746,-0.095448,0.006800,-0.746070,-0.159986,-0.099401,0.505615,0.793087,0.124009,-2.004063,1.808733,0.105832,-0.016098,0.075147,0.000000,0.079525,-0.049793,0.000000
4.930000,3.289359,-0.202992,-1.470067,-0.054181,-0.097008,0.005812,-0.741094,-0.151965,-0.098157,0.491579,0.810950,0.124830,-0.763053,1.764575,0.058095,-0.015293,0.074657,0.000000,0.081352,-0.048395,0.000000
4.940000,3.288780,-0.203970,-1.470014,-0.061568,-0.098487,0.004837,-0.736193,-0.143768,-0.096906,0.491187,0.828391,0.125167,0.727991,1.724382,0.009180,-0.014471,0.074175,0.000000,0.083135,-0.048369,0.000000
4.950000,3.288127,-0.204962,-1.469970,-0.068905,-0.099883,0.003874,-0.731217,-0.135398,-0.095655,0.507035,0.845451,0.125009,2.487913,1.688341,-0.040897,-0.013631,0.073684,0.000000,0.084881,-0.049978,0.000000
4.960000,3.287402,-0.205967,-1.469936,-0.076191,-0.101195,0.002924,-0.725989,-0.126860,-0.094408,0.541905,0.862173,0.124345,4.535558,1.656642,-0.092117,-0.012773,0.073169,0.000000,0.086592,-0.053501,-0.000000
4.970000,3.286604,-0.206985,-1.469912,-0.083423,-0.102420,0.001986,-0.720305,-0.118156,-0.093170,0.598768,0.878599,0.123163,6.889770,1.629472,-0.144463,-0.011899,0.072607,0.000000,0.088273,-0.059240,0.000000
4.980000,3.285734,-0.208015,-1.469896,-0.090595,-0.103557,0.001060,-0.713930,-0.109289,-0.091946,0.680785,0.894778,0.121452,9.569395,1.607020,-0.197917,-0.011008,0.071975,0.000000,0.089930,-0.067513,0.000000
4.990000,3.284792,-0.209056,-1.469890,-0.097699,-0.104605,0.000147,-0.706595,-0.100261,-0.090743,0.791304,0.910756,0.119201,12.593276,1.589475,-0.252463,-0.010101,0.071247,0.000000,0.091568,-0.078660,0.000000
5.000000,3.283780,-0.210107,-1.469894,-0.104723,-0.105562,-0.000755,-0.697997,-0.091074,-0.089564,0.933861,0.926584,0.116400,15.980258,1.577025,-0.308082,-0.009177,0.070391,0.000000,0.093191,-0.093038,-0.000000
