time,x,y,z,vx,vy,vz,ax,ay,az,jx,jy,jz,sx,sy,sz,roll,pitch,yaw,p,q,r
0.000000,-2.917280,-2.779917,-1.434605,0.018519,-0.004281,-0.010997,-0.091211,0.121198,0.002487,-4.315252,5.575431,0.128395,22.800531,-32.449308,-2.079262,0.012356,0.009300,0.000000,0.568486,0.440045,-0.000000
0.010000,-2.917095,-2.779960,-1.434715,0.017607,-0.003069,-0.010972,-0.134363,0.176952,0.003771,-4.087247,5.250938,0.107603,140.435723,-173.012803,-8.627586,0.018041,0.013701,0.000000,0.535340,0.416805,-0.000000
0.020000,-2.916928,-2.779979,-1.434825,0.015832,-0.000742,-0.010921,-0.172956,0.226216,0.004639,-1.506538,2.115175,-0.044156,243.535331,-269.086063,-18.380343,0.023063,0.017637,0.000000,0.215402,0.153476,-0.000000
0.030000,-2.916778,-2.779975,-1.434934,0.014148,0.001456,-0.010879,-0.164494,0.219255,0.002888,0.783460,-0.130783,-0.260004,108.535451,-59.286650,-18.602689,0.022350,0.016771,0.000000,-0.013889,-0.080289,0.000000
0.040000,-2.916645,-2.779950,-1.435042,0.012542,0.003643,-0.010863,-0.157286,0.223601,-0.000561,0.664171,0.929442,-0.416210,-11.333462,99.250432,-14.322242,0.022785,0.016031,0.000000,0.093736,-0.068344,0.000000
0.050000,-2.916527,-2.779902,-1.435151,0.011002,0.005928,-0.010890,-0.151210,0.237844,-0.005436,0.556790,1.854225,-0.546449,-10.176172,86.230357,-11.837535,0.024224,0.015404,0.000000,0.187449,-0.057553,0.000000
0.060000,-2.916425,-2.779831,-1.435260,0.009518,0.008400,-0.010972,-0.146151,0.260685,-0.011490,0.460648,2.654049,-0.652961,-9.084609,74.235913,-9.571738,0.026533,0.014880,0.000000,0.268264,-0.047864,-0.000000
0.070000,-2.916337,-2.779734,-1.435370,0.008079,0.011141,-0.011120,-0.141998,0.290925,-0.018495,0.375098,3.338944,-0.737884,-8.056301,63.221897,-7.514610,0.029588,0.014447,0.000000,0.337185,-0.039224,-0.000000
0.080000,-2.916263,-2.779608,-1.435482,0.006678,0.014219,-0.011342,-0.138649,0.327464,-0.026248,0.299522,3.918487,-0.803253,-7.088753,53.143104,-5.655896,0.033276,0.014095,0.000000,0.395191,-0.031578,0.000000
0.090000,-2.916203,-2.779450,-1.435597,0.005306,0.017691,-0.011645,-0.136007,0.369295,-0.034561,0.233323,4.401806,-0.851002,-6.179515,43.954331,-3.985376,0.037491,0.013815,0.000000,0.443235,-0.024873,0.000000
0.100000,-2.916157,-2.779254,-1.435715,0.003958,0.021605,-0.012033,-0.133982,0.415500,-0.043268,0.175931,4.797574,-0.882961,-5.326143,35.610378,-2.492839,0.042140,0.013597,0.000000,0.482232,-0.019053,0.000000
0.110000,-2.916124,-2.779018,-1.435838,0.002627,0.026001,-0.012510,-0.132488,0.465247,-0.052220,0.126800,5.114013,-0.900859,-4.526121,28.066026,-1.168017,0.047135,0.013433,0.000000,0.513058,-0.014066,0.000000
0.120000,-2.916105,-2.778734,-1.435966,0.001308,0.030910,-0.013078,-0.131446,0.517781,-0.061285,0.085409,5.358894,-0.906321,-3.777041,21.276123,-0.000644,0.052401,0.013315,0.000000,0.536544,-0.009860,-0.000000
0.130000,-2.916098,-2.778399,-1.436099,-0.000002,0.036356,-0.013736,-0.130780,0.572424,-0.070346,0.051259,5.539536,-0.900871,-3.076442,15.195461,1.019490,0.057866,0.013236,0.000000,0.553478,-0.006383,0.000000
0.140000,-2.916105,-2.778007,-1.436240,-0.001308,0.042358,-0.014485,-0.130421,0.628571,-0.079302,0.023880,5.662803,-0.885931,-2.421613,9.778670,1.902570,0.063470,0.013187,0.000000,0.564598,-0.003588,0.000000
0.150000,-2.916124,-2.777552,-1.436389,-0.002611,0.048928,-0.015322,-0.130303,0.685680,-0.088065,0.002827,5.735109,-0.862820,-1.810278,4.980671,2.658883,0.069158,0.013164,0.000000,0.570592,-0.001430,0.000000
0.160000,-2.916157,-2.777029,-1.436547,-0.003914,0.056072,-0.016246,-0.130364,0.743273,-0.096559,-0.012325,5.762417,-0.832754,-1.240243,0.756469,3.298733,0.074882,0.013159,0.000000,0.572100,0.000138,0.000000
0.170000,-2.916203,-2.776431,-1.436714,-0.005218,0.063793,-0.017253,-0.130549,0.800929,-0.104720,-0.021978,5.750239,-0.796845,-0.708393,-2.942110,3.833475,0.080600,0.013166,0.000000,0.569709,0.001154,-0.000000
0.180000,-2.916261,-2.775753,-1.436892,-0.006525,0.072090,-0.018340,-0.130804,0.858278,-0.112495,-0.026493,5.703575,-0.756084,-0.207224,-6.208034,4.294254,0.086276,0.013182,0.000000,0.563951,0.001659,0.000000
0.190000,-2.916333,-2.774989,-1.437081,-0.007834,0.080959,-0.019503,-0.131079,0.915000,-0.119842,-0.026122,5.626078,-0.710960,0.263774,-9.069829,4.684131,0.091879,0.013200,0.000000,0.555221,0.001678,0.000000
0.200000,-2.916418,-2.774134,-1.437282,-0.009146,0.090390,-0.020737,-0.131326,0.970800,-0.126715,-0.021218,5.522178,-0.662401,0.670545,-11.220957,4.858845,0.097381,0.013216,0.000000,0.543981,0.001248,0.000000
0.210000,-2.916516,-2.773181,-1.437496,-0.010461,0.100375,-0.022037,-0.131503,1.025444,-0.133090,-0.012711,5.401659,-0.613783,1.019506,-12.744383,4.845170,0.102759,0.013225,0.000000,0.531195,0.000459,-0.000000
0.220000,-2.916627,-2.772126,-1.437723,-0.011776,0.110899,-0.023399,-0.131581,1.078833,-0.138990,-0.000828,5.267290,-0.565498,1.418005,-14.695422,5.096247,0.108005,0.013225,0.000000,0.517142,-0.000665,-0.000000
0.230000,-2.916752,-2.770963,-1.437964,-0.013092,0.121951,-0.024817,-0.131520,1.130790,-0.144400,0.015649,5.107750,-0.511858,1.870266,-17.164735,5.628795,0.113102,0.013211,0.000000,0.500772,-0.002237,0.000000
0.240000,-2.916889,-2.769687,-1.438219,-0.014407,0.133515,-0.026287,-0.131268,1.180988,-0.149228,0.036578,4.923996,-0.452922,2.233135,-18.787922,5.838582,0.118021,0.013180,0.000000,0.482207,-0.004242,0.000000
0.250000,-2.917040,-2.768293,-1.438489,-0.015717,0.145571,-0.027802,-0.130788,1.229270,-0.153458,0.060312,4.731992,-0.395087,2.495213,-19.262315,5.682618,0.122747,0.013126,0.000000,0.462966,-0.006523,0.000000
0.260000,-2.917203,-2.766776,-1.438775,-0.017022,0.158100,-0.029356,-0.130061,1.275628,-0.157129,0.086482,4.538749,-0.339270,2.755576,-19.584244,5.578228,0.127281,0.013048,0.000000,0.443725,-0.009046,-0.000000
0.270000,-2.917380,-2.765131,-1.439076,-0.018319,0.171084,-0.030944,-0.129059,1.320045,-0.160243,0.115423,4.340307,-0.283522,3.019879,-20.447528,5.534533,0.131622,0.012944,0.000000,0.424112,-0.011840,0.000000
0.280000,-2.917570,-2.763354,-1.439394,-0.019604,0.184501,-0.032561,-0.127753,1.362434,-0.162800,0.146879,4.129799,-0.228579,3.254056,-21.581021,5.408624,0.135763,0.012809,0.000000,0.403439,-0.014881,0.000000
0.290000,-2.917772,-2.761441,-1.439728,-0.020874,0.198332,-0.034200,-0.126121,1.402641,-0.164815,0.180504,3.908687,-0.175350,3.461562,-22.174196,5.234357,0.139691,0.012643,0.000000,0.381836,-0.018137,0.000000
0.300000,-2.917987,-2.759387,-1.440078,-0.022126,0.212554,-0.035857,-0.124143,1.440608,-0.166307,0.216111,3.686315,-0.123892,3.652690,-22.085545,5.048254,0.143401,0.012443,0.000000,0.360214,-0.021590,-0.000000
0.310000,-2.918215,-2.757190,-1.440445,-0.023357,0.227144,-0.037526,-0.121799,1.476367,-0.167293,0.253558,3.466976,-0.074385,3.824608,-21.897581,4.826255,0.146896,0.012207,0.000000,0.338982,-0.025226,0.000000
0.320000,-2.918454,-2.754845,-1.440828,-0.024562,0.242081,-0.039203,-0.119072,1.509947,-0.167794,0.292603,3.248363,-0.027367,3.964595,-22.048331,4.539352,0.150181,0.011933,0.000000,0.317895,-0.029024,0.000000
0.330000,-2.918706,-2.752348,-1.441229,-0.025738,0.257343,-0.040882,-0.115947,1.541334,-0.167840,0.332850,3.026009,0.016402,4.073882,-22.383517,4.199330,0.153254,0.011620,0.000000,0.296492,-0.032945,0.000000
0.340000,-2.918969,-2.749698,-1.441646,-0.026881,0.272908,-0.042560,-0.112415,1.570467,-0.167466,0.374080,2.800693,0.056620,4.171730,-22.386643,3.851058,0.156111,0.011266,0.000000,0.274835,-0.036969,0.000000
0.350000,-2.919244,-2.746890,-1.442080,-0.027986,0.288753,-0.044232,-0.108465,1.597348,-0.166708,0.416284,2.578276,0.093424,4.263248,-21.966193,3.500812,0.158751,0.010871,0.000000,0.253489,-0.041096,0.000000
0.360000,-2.919529,-2.743923,-1.442531,-0.029050,0.304855,-0.045894,-0.104089,1.622033,-0.165598,0.459345,2.361369,0.126636,4.336563,-21.493546,3.124088,0.161181,0.010434,0.000000,0.232692,-0.045314,-0.000000
0.370000,-2.919825,-2.740793,-1.442998,-0.030068,0.321193,-0.047544,-0.099278,1.644575,-0.164175,0.503016,2.148405,0.155905,4.384028,-21.243298,2.721269,0.163405,0.009953,0.000000,0.212275,-0.049602,-0.000000
0.380000,-2.920130,-2.737499,-1.443482,-0.031036,0.337747,-0.049177,-0.094029,1.665001,-0.162480,0.547026,1.936503,0.181061,4.410901,-21.116272,2.306927,0.165426,0.009429,0.000000,0.191943,-0.053931,0.000000
0.390000,-2.920445,-2.734038,-1.443981,-0.031949,0.354493,-0.050793,-0.088338,1.683305,-0.160554,0.591234,1.726080,0.202044,4.428738,-20.789227,1.885863,0.167244,0.008860,0.000000,0.171726,-0.058289,0.000000
0.400000,-2.920769,-2.730409,-1.444497,-0.032803,0.371413,-0.052389,-0.082204,1.699523,-0.158439,0.635601,1.520719,0.218779,4.438034,-20.206713,1.449773,0.168861,0.008246,0.000000,0.151962,-0.062672,0.000000
0.410000,-2.921101,-2.726610,-1.445029,-0.033593,0.388484,-0.053962,-0.075626,1.713720,-0.156178,0.679994,1.321946,0.231039,4.432878,-19.600925,1.002453,0.170283,0.007588,0.000000,0.132788,-0.067066,0.000000
0.420000,-2.921441,-2.722639,-1.445577,-0.034315,0.405687,-0.055512,-0.068604,1.725961,-0.153818,0.724258,1.128700,0.238828,4.416359,-19.139353,0.578041,0.171517,0.006885,0.000000,0.114092,-0.071456,-0.000000
0.430000,-2.921788,-2.718496,-1.446139,-0.034965,0.423003,-0.057038,-0.061141,1.736294,-0.151402,0.768322,0.939158,0.242600,4.392550,-18.759692,0.183361,0.172565,0.006138,0.000000,0.095698,-0.075834,0.000000
0.440000,-2.922140,-2.714179,-1.446717,-0.035538,0.440413,-0.058540,-0.053238,1.744745,-0.148966,0.812109,0.753506,0.242495,4.358858,-18.265688,-0.221276,0.173431,0.005346,0.000000,0.077620,-0.080192,0.000000
0.450000,-2.922498,-2.709688,-1.447310,-0.036030,0.457898,-0.060018,-0.044899,1.751364,-0.146552,0.855499,0.573845,0.238175,4.311728,-17.624537,-0.654888,0.174118,0.004509,0.000000,0.060052,-0.084516,0.000000
0.460000,-2.922861,-2.705021,-1.447918,-0.036436,0.475440,-0.061471,-0.036128,1.756222,-0.144203,0.898344,0.401016,0.229397,4.255028,-16.977434,-1.083856,0.174632,0.003629,0.000000,0.043069,-0.088792,0.000000
0.470000,-2.923227,-2.700179,-1.448540,-0.036752,0.493022,-0.062902,-0.026932,1.759384,-0.141964,0.940599,0.234296,0.216497,4.201200,-16.425126,-1.450545,0.174979,0.002706,0.000000,0.026602,-0.093012,0.000000
0.480000,-2.923596,-2.695161,-1.449176,-0.036974,0.510628,-0.064310,-0.017316,1.760907,-0.139873,0.982368,0.072513,0.200386,4.151380,-15.929984,-1.758080,0.175164,0.001740,0.000000,0.010552,-0.097186,0.000000
0.490000,-2.923967,-2.689966,-1.449826,-0.037098,0.528241,-0.065699,-0.007284,1.760835,-0.137956,1.023627,-0.084304,0.181336,4.090742,-15.374608,-2.077290,0.175190,0.000732,0.000000,-0.005076,-0.101310,0.000000
0.500000,-2.924338,-2.684596,-1.450490,-0.037120,0.545845,-0.067070,0.003157,1.759221,-0.136246,1.064183,-0.234979,0.158840,4.013182,-14.738852,-2.432214,0.175062,-0.000317,0.000000,-0.020175,-0.105363,0.000000
0.510000,-2.924709,-2.679050,-1.451167,-0.037035,0.563425,-0.068424,0.013999,1.756135,-0.134779,1.103891,-0.379081,0.132692,3.930647,-14.107602,-2.769576,0.174787,-0.001408,0.000000,-0.034708,-0.109329,0.000000
0.520000,-2.925079,-2.673327,-1.451858,-0.036840,0.580967,-0.069765,0.025235,1.751640,-0.133592,1.142796,-0.517131,0.103449,3.860998,-13.543890,-3.022905,0.174368,-0.002538,0.000000,-0.048713,-0.113210,0.000000
0.530000,-2.925446,-2.667430,-1.452563,-0.036531,0.598458,-0.071096,0.036855,1.745792,-0.132710,1.181111,-0.649958,0.072233,3.802501,-13.025794,-3.203267,0.173812,-0.003707,0.000000,-0.062252,-0.117027,0.000000
0.540000,-2.925809,-2.661358,-1.453280,-0.036103,0.615883,-0.072419,0.048857,1.738641,-0.132147,1.218846,-0.777647,0.039384,3.733134,-12.479731,-3.393916,0.173123,-0.004914,0.000000,-0.075325,-0.120777,0.000000
0.550000,-2.926168,-2.655113,-1.454011,-0.035554,0.633231,-0.073739,0.061232,1.730239,-0.131923,1.255773,-0.899553,0.004355,3.645914,-11.891268,-3.618563,0.172306,-0.006159,0.000000,-0.087877,-0.124438,0.000000
0.560000,-2.926520,-2.648694,-1.454755,-0.034878,0.650488,-0.075058,0.073972,1.720650,-0.132060,1.291764,-1.015472,-0.032988,3.557148,-11.314005,-3.817570,0.171366,-0.007440,0.000000,-0.099886,-0.127995,-0.000000
0.570000,-2.926865,-2.642103,-1.455512,-0.034074,0.667644,-0.076380,0.087067,1.709930,-0.132582,1.326916,-1.125833,-0.071996,3.485919,-10.792495,-3.928934,0.170308,-0.008757,0.000000,-0.111381,-0.131455,0.000000
0.580000,-2.927202,-2.635341,-1.456283,-0.033137,0.684687,-0.077709,0.100511,1.698133,-0.133500,1.361482,-1.231322,-0.111566,3.428599,-10.313557,-3.968008,0.169138,-0.010108,0.000000,-0.122408,-0.134842,0.000000
0.590000,-2.927528,-2.628409,-1.457066,-0.032064,0.701606,-0.079050,0.114297,1.685303,-0.134814,1.395488,-1.332104,-0.151356,3.361265,-9.824291,-4.013519,0.167860,-0.011493,0.000000,-0.132974,-0.138160,0.000000
0.600000,-2.927843,-2.621309,-1.457864,-0.030851,0.718393,-0.080406,0.128420,1.671491,-0.136527,1.428708,-1.427808,-0.191837,3.277271,-9.312101,-4.084937,0.166478,-0.012910,0.000000,-0.143049,-0.141384,0.000000
0.610000,-2.928145,-2.614041,-1.458674,-0.029495,0.735036,-0.081781,0.142871,1.656747,-0.138650,1.461034,-1.518346,-0.233055,3.193589,-8.815474,-4.127751,0.164999,-0.014360,0.000000,-0.152622,-0.144501,0.000000
0.620000,-2.928433,-2.606608,-1.459499,-0.027994,0.751528,-0.083179,0.157641,1.641124,-0.141188,1.492579,-1.604118,-0.274392,3.127389,-8.371296,-4.093796,0.163426,-0.015840,0.000000,-0.161718,-0.147524,0.000000
0.630000,-2.928705,-2.599011,-1.460338,-0.026343,0.767859,-0.084604,0.172723,1.624665,-0.144138,1.523581,-1.685772,-0.314931,3.074184,-7.970369,-3.999094,0.161765,-0.017350,0.000000,-0.170386,-0.150475,0.000000
0.640000,-2.928960,-2.591251,-1.461191,-0.024539,0.784021,-0.086062,0.188113,1.607408,-0.147487,1.554063,-1.763525,-0.354374,3.012165,-7.567529,-3.905701,0.160018,-0.018889,0.000000,-0.178638,-0.153357,0.000000
0.650000,-2.929196,-2.583330,-1.462059,-0.022580,0.800007,-0.087554,0.203804,1.589394,-0.151226,1.583825,-1.837123,-0.393045,2.935994,-7.150603,-3.826885,0.158192,-0.020457,0.000000,-0.186454,-0.156151,0.000000
0.660000,-2.929411,-2.575251,-1.462942,-0.020463,0.815809,-0.089086,0.219789,1.570666,-0.155348,1.612783,-1.906537,-0.430911,2.860645,-6.751925,-3.721201,0.156289,-0.022052,0.000000,-0.193830,-0.158847,0.000000
0.670000,-2.929605,-2.567014,-1.463841,-0.018185,0.831420,-0.090661,0.236060,1.551264,-0.159844,1.641038,-1.972161,-0.467469,2.799180,-6.404772,-3.558435,0.154315,-0.023673,0.000000,-0.200794,-0.161457,0.000000
0.680000,-2.929775,-2.558622,-1.464756,-0.015742,0.846834,-0.092283,0.252610,1.531223,-0.164697,1.668767,-2.034632,-0.502080,2.747108,-6.101122,-3.352430,0.152274,-0.025320,0.000000,-0.207399,-0.163999,-0.000000
0.690000,-2.929920,-2.550077,-1.465687,-0.013132,0.862044,-0.093955,0.269435,1.510571,-0.169886,1.695980,-2.094184,-0.534518,2.687527,-5.798890,-3.142953,0.150167,-0.026991,0.000000,-0.213664,-0.166476,0.000000
0.700000,-2.930038,-2.541381,-1.466635,-0.010353,0.877045,-0.095681,0.286530,1.489339,-0.175388,1.722517,-2.150610,-0.564939,2.616793,-5.486334,-2.936578,0.148000,-0.028687,0.000000,-0.219572,-0.168873,0.000000
0.710000,-2.930127,-2.532536,-1.467600,-0.007402,0.891831,-0.097463,0.303885,1.467559,-0.181184,1.748316,-2.203910,-0.593249,2.546080,-5.192835,-2.708262,0.145776,-0.030406,0.000000,-0.225121,-0.171185,0.000000
0.720000,-2.930186,-2.523545,-1.468584,-0.004276,0.906397,-0.099304,0.321496,1.445261,-0.187253,1.773439,-2.254467,-0.619104,2.483609,-4.948258,-2.445790,0.143498,-0.032147,0.000000,-0.230345,-0.173419,0.000000
0.730000,-2.930213,-2.514409,-1.469586,-0.000972,0.920736,-0.101208,0.339354,1.422470,-0.193566,1.797988,-2.302876,-0.642165,2.425592,-4.744602,-2.159117,0.141169,-0.033910,0.000000,-0.235299,-0.175589,0.000000
0.740000,-2.930205,-2.505130,-1.470608,0.002512,0.934846,-0.103176,0.357456,1.399203,-0.200096,1.821951,-2.349359,-0.662287,2.361070,-4.543119,-1.865490,0.138792,-0.035694,0.000000,-0.240003,-0.177695,-0.000000
0.750000,-2.930162,-2.495712,-1.471650,0.006177,0.948721,-0.105210,0.375793,1.375482,-0.206812,1.845209,-2.393738,-0.679475,2.288174,-4.333224,-1.565706,0.136369,-0.037499,0.000000,-0.244443,-0.179727,0.000000
0.760000,-2.930082,-2.486156,-1.472712,0.010027,0.962356,-0.107312,0.394360,1.351329,-0.213686,1.867714,-2.436023,-0.693601,2.213723,-4.141143,-1.250657,0.133903,-0.039323,0.000000,-0.248620,-0.181683,0.000000
0.770000,-2.929962,-2.476465,-1.473796,0.014064,0.975747,-0.109483,0.413148,1.326762,-0.220684,1.889484,-2.476561,-0.704488,2.141043,-3.992002,-0.922992,0.131397,-0.041165,0.000000,-0.252568,-0.183567,0.000000
0.780000,-2.929800,-2.466641,-1.474902,0.018290,0.988891,-0.111726,0.432149,1.301797,-0.227775,1.910535,-2.515864,-0.712061,2.067426,-3.877789,-0.588108,0.128852,-0.043026,0.000000,-0.256338,-0.185384,0.000000
0.790000,-2.929596,-2.456687,-1.476031,0.022707,1.001783,-0.114039,0.451358,1.276445,-0.234925,1.930832,-2.554117,-0.716250,1.988031,-3.765051,-0.244508,0.126270,-0.044904,0.000000,-0.259952,-0.187133,-0.000000
0.800000,-2.929346,-2.446605,-1.477183,0.027318,1.014420,-0.116424,0.470766,1.250715,-0.242100,1.950296,-2.591165,-0.716951,1.902097,-3.645531,0.110127,0.123653,-0.046798,0.000000,-0.263395,-0.188808,-0.000000
0.810000,-2.929050,-2.436398,-1.478359,0.032123,1.026797,-0.118881,0.490364,1.224621,-0.249264,1.968874,-2.627027,-0.714048,1.812167,-3.540989,0.472193,0.121002,-0.048709,0.000000,-0.266671,-0.190409,-0.000000
0.820000,-2.928704,-2.426069,-1.479560,0.037125,1.038912,-0.121409,0.510144,1.198174,-0.256381,1.986539,-2.661984,-0.707507,1.718768,-3.469128,0.831792,0.118320,-0.050635,0.000000,-0.269811,-0.191934,0.000000
0.830000,-2.928307,-2.415620,-1.480787,0.042326,1.050761,-0.124009,0.530095,1.171382,-0.263415,2.003249,-2.696410,-0.697412,1.620347,-3.422407,1.187495,0.115606,-0.052575,0.000000,-0.272856,-0.193383,0.000000
0.840000,-2.927857,-2.405054,-1.482041,0.047727,1.062340,-0.126678,0.550209,1.144246,-0.270329,2.018946,-2.730432,-0.683757,1.515679,-3.376409,1.549858,0.112862,-0.054528,0.000000,-0.275822,-0.194752,0.000000
0.850000,-2.927353,-2.394373,-1.483321,0.053330,1.073646,-0.129415,0.570474,1.116773,-0.277090,2.033563,-2.763938,-0.666415,1.405293,-3.325540,1.923245,0.110090,-0.056495,0.000000,-0.278701,-0.196039,0.000000
0.860000,-2.926791,-2.383581,-1.484629,0.059136,1.084675,-0.132219,0.590880,1.088968,-0.283658,2.047052,-2.796943,-0.645292,1.288985,-3.284761,2.298089,0.107288,-0.058473,0.000000,-0.281496,-0.197243,0.000000
0.870000,-2.926170,-2.372680,-1.485965,0.065147,1.095425,-0.135088,0.611415,1.060834,-0.289996,2.059343,-2.829633,-0.620453,1.163371,-3.264419,2.659312,0.104460,-0.060462,0.000000,-0.284232,-0.198359,0.000000
0.880000,-2.925488,-2.361672,-1.487331,0.071364,1.105892,-0.138019,0.632067,1.032375,-0.296067,2.070319,-2.862232,-0.592106,1.027530,-3.258441,3.007623,0.101604,-0.062462,0.000000,-0.286936,-0.199377,0.000000
0.890000,-2.924743,-2.350562,-1.488726,0.077789,1.116073,-0.141010,0.652821,1.003589,-0.301838,2.079893,-2.894802,-0.560300,0.885611,-3.251363,3.360542,0.098721,-0.064471,0.000000,-0.289618,-0.200293,0.000000
0.900000,-2.923932,-2.339351,-1.490151,0.084421,1.125964,-0.144056,0.673665,0.974479,-0.307273,2.088031,-2.927259,-0.524895,0.739975,-3.240228,3.722729,0.095811,-0.066487,0.000000,-0.292273,-0.201106,0.000000
0.910000,-2.923054,-2.328043,-1.491607,0.091262,1.135562,-0.147155,0.694582,0.945044,-0.312336,2.094693,-2.959607,-0.485846,0.586786,-3.233485,4.080328,0.092875,-0.068511,0.000000,-0.294905,-0.201816,0.000000
0.920000,-2.922107,-2.316640,-1.493094,0.098313,1.144865,-0.150303,0.715558,0.915287,-0.316990,2.099767,-2.991929,-0.443289,0.419011,-3.234067,4.418914,0.089913,-0.070541,0.000000,-0.297529,-0.202415,0.000000
0.930000,-2.921088,-2.305145,-1.494613,0.105573,1.153868,-0.153495,0.736577,0.885206,-0.321201,2.103073,-3.024288,-0.397468,0.237053,-3.237325,4.741360,0.086925,-0.072576,0.000000,-0.300156,-0.202886,0.000000
0.940000,-2.919995,-2.293562,-1.496164,0.113044,1.162569,-0.156727,0.757620,0.854801,-0.324939,2.104508,-3.056675,-0.348461,0.049444,-3.237238,5.064261,0.083910,-0.074614,0.000000,-0.302791,-0.203221,-0.000000
0.950000,-2.918827,-2.281894,-1.497747,0.120726,1.170964,-0.159994,0.778667,0.824072,-0.328171,2.104062,-3.089033,-0.296182,-0.141320,-3.233917,5.389666,0.080869,-0.076655,0.000000,-0.305430,-0.203424,0.000000
0.960000,-2.917581,-2.270143,-1.499364,0.128617,1.179050,-0.163290,0.799701,0.793020,-0.330863,2.101682,-3.121353,-0.240668,-0.341615,-3.229099,5.704990,0.077801,-0.078696,0.000000,-0.308080,-0.203491,0.000000
0.970000,-2.916255,-2.258313,-1.501013,0.136720,1.186824,-0.166611,0.820701,0.761645,-0.332984,2.097230,-3.153615,-0.182083,-0.558490,-3.217829,6.003237,0.074707,-0.080737,0.000000,-0.310741,-0.203410,0.000000
0.980000,-2.914846,-2.246407,-1.502696,0.145031,1.194283,-0.169950,0.841646,0.729948,-0.334504,2.090512,-3.185710,-0.120603,-0.790790,-3.197224,6.287551,0.071586,-0.082776,0.000000,-0.313411,-0.203163,0.000000
0.990000,-2.913354,-2.234427,-1.504412,0.153552,1.201423,-0.173301,0.862511,0.697931,-0.335396,2.081414,-3.217559,-0.056331,-1.029785,-3.171516,6.564769,0.068439,-0.084811,0.000000,-0.316085,-0.202742,0.000000
1.000000,-2.911775,-2.222378,-1.506162,0.162282,1.208242,-0.176658,0.883274,0.665597,-0.335631,2.069916,-3.249140,0.010692,-1.271738,-3.143328,6.834522,0.065264,-0.086841,0.000000,-0.318766,-0.202146,0.000000
1.010000,-2.910108,-2.210262,-1.507945,0.171218,1.214735,-0.180014,0.903910,0.632948,-0.335182,2.055979,-3.280426,0.080359,-1.523085,-3.107423,7.091161,0.062063,-0.088863,0.000000,-0.321456,-0.201371,0.000000
1.020000,-2.908351,-2.198083,-1.509762,0.180360,1.220901,-0.183362,0.924394,0.599988,-0.334024,2.039455,-3.311289,0.152515,-1.794181,-3.053069,7.333174,0.058835,-0.090876,0.000000,-0.324148,-0.200406,0.000000
1.030000,-2.906501,-2.185844,-1.511613,0.189706,1.226735,-0.186694,0.944699,0.566722,-0.332132,2.020095,-3.341487,0.227022,-2.083912,-2.979478,7.561841,0.055580,-0.092878,0.000000,-0.326823,-0.199224,-0.000000
1.040000,-2.904557,-2.173549,-1.513496,0.199254,1.232235,-0.190004,0.964795,0.533159,-0.329483,1.997776,-3.370878,0.303752,-2.378703,-2.898456,7.777174,0.052298,-0.094867,0.000000,-0.329472,-0.197816,0.000000
1.050000,-2.902516,-2.161200,-1.515413,0.209002,1.237398,-0.193284,0.984654,0.499305,-0.326057,1.972521,-3.399456,0.382566,-2.673217,-2.814985,7.976702,0.048990,-0.096840,0.000000,-0.332098,-0.196182,-0.000000
1.060000,-2.900377,-2.148801,-1.517362,0.218947,1.242221,-0.196525,1.004246,0.465169,-0.321832,1.944312,-3.427178,0.463286,-2.976981,-2.718863,8.159540,0.045656,-0.098795,0.000000,-0.334702,-0.194320,-0.000000
1.070000,-2.898137,-2.136355,-1.519343,0.229087,1.246702,-0.199720,1.023540,0.430761,-0.316791,1.912982,-3.453833,0.545757,-3.303429,-2.593704,8.329739,0.042296,-0.100730,0.000000,-0.337268,-0.192213,0.000000
1.080000,-2.895795,-2.123867,-1.521356,0.239418,1.250836,-0.202861,1.042506,0.396093,-0.310917,1.878243,-3.479052,0.629881,-3.650438,-2.440227,8.487214,0.038910,-0.102643,0.000000,-0.339764,-0.189831,0.000000
1.090000,-2.893349,-2.111339,-1.523400,0.249937,1.254623,-0.205939,1.061105,0.361180,-0.304193,1.839973,-3.502638,0.715501,-3.999986,-2.278067,8.624697,0.035500,-0.104530,0.000000,-0.342173,-0.187162,0.000000
1.100000,-2.890796,-2.098774,-1.525475,0.260640,1.258060,-0.208945,1.079305,0.326040,-0.296607,1.798244,-3.524614,0.802375,-4.345085,-2.114699,8.738265,0.032067,-0.106389,0.000000,-0.344502,-0.184209,-0.000000
1.110000,-2.888136,-2.086177,-1.527579,0.271523,1.261144,-0.211871,1.097070,0.290688,-0.288146,1.753071,-3.544932,0.890266,-4.698020,-1.934905,8.831855,0.028610,-0.108216,0.000000,-0.346750,-0.180970,-0.000000
1.120000,-2.885366,-2.073551,-1.529712,0.282581,1.263874,-0.214708,1.114366,0.255141,-0.278802,1.704283,-3.563312,0.979012,-5.075601,-1.716988,8.912653,0.025131,-0.110010,0.000000,-0.348893,-0.177425,0.000000
1.130000,-2.882484,-2.060900,-1.531873,0.293810,1.266247,-0.217447,1.131156,0.219422,-0.268566,1.651559,-3.579272,1.068519,-5.474669,-1.463351,8.978853,0.021632,-0.111766,0.000000,-0.350885,-0.173540,0.000000
1.140000,-2.879490,-2.048226,-1.534061,0.305204,1.268262,-0.220079,1.147398,0.183556,-0.257431,1.594790,-3.592579,1.158589,-5.872261,-1.201180,9.019085,0.018113,-0.113482,0.000000,-0.352705,-0.169300,0.000000
1.150000,-2.876380,-2.035535,-1.536275,0.316758,1.269918,-0.222596,1.163052,0.147570,-0.245394,1.534114,-3.603295,1.248901,-6.259789,-0.940388,9.029700,0.014577,-0.115153,0.000000,-0.354363,-0.164711,0.000000
1.160000,-2.873155,-2.022828,-1.538513,0.328465,1.271214,-0.224987,1.178080,0.111490,-0.232453,1.469594,-3.611386,1.339183,-6.652487,-0.661105,9.017152,0.011026,-0.116776,0.000000,-0.355856,-0.159773,0.000000
1.170000,-2.869811,-2.010110,-1.540775,0.340320,1.272148,-0.227245,1.192444,0.075342,-0.218610,1.401064,-3.616517,1.429244,-7.070200,-0.336690,8.987040,0.007460,-0.118349,0.000000,-0.357151,-0.154464,-0.000000
1.180000,-2.866348,-1.997385,-1.543058,0.352314,1.272721,-0.229359,1.206101,0.039160,-0.203868,1.328190,-3.618120,1.518924,-7.508590,0.028758,8.936150,0.003882,-0.119866,0.000000,-0.358194,-0.148745,0.000000
1.190000,-2.862765,-1.984656,-1.545362,0.364442,1.272931,-0.231322,1.219007,0.002980,-0.188232,1.250893,-3.615942,1.607967,-7.940084,0.400772,8.855450,0.000296,-0.121323,0.000000,-0.358957,-0.142600,0.000000
1.200000,-2.859059,-1.971927,-1.547685,0.376694,1.272780,-0.233124,1.231119,-0.033159,-0.171709,1.169388,-3.610105,1.696033,-8.354663,0.767061,8.743711,-0.003297,-0.122718,0.000000,-0.359453,-0.136040,0.000000
1.210000,-2.855231,-1.959200,-1.550024,0.389064,1.272268,-0.234756,1.242395,-0.069222,-0.154311,1.083799,-3.600601,1.782841,-8.770165,1.151814,8.605325,-0.006894,-0.124044,0.000000,-0.359679,-0.129067,0.000000
1.220000,-2.851278,-1.946481,-1.552380,0.401542,1.271396,-0.236210,1.252795,-0.105171,-0.136052,0.993985,-3.587068,1.868139,-9.208845,1.586124,8.439264,-0.010491,-0.125299,0.000000,-0.359595,-0.121659,0.000000
1.230000,-2.847200,-1.933772,-1.554749,0.414120,1.270165,-0.237477,1.262275,-0.140963,-0.116948,0.899622,-3.568879,1.951627,-9.665152,2.064117,8.242063,-0.014086,-0.126478,0.000000,-0.359137,-0.113772,0.000000
1.240000,-2.842996,-1.921078,-1.557129,0.426788,1.268576,-0.238549,1.270787,-0.176549,-0.097020,0.800682,-3.545786,2.032981,-10.107634,2.544522,8.013714,-0.017674,-0.127575,0.000000,-0.358274,-0.105391,-0.000000
1.250000,-2.838664,-1.908401,-1.559520,0.439536,1.266634,-0.239418,1.278288,-0.211879,-0.076289,0.697470,-3.517988,2.111901,-10.525396,3.013138,7.758493,-0.021251,-0.128586,0.000000,-0.357021,-0.096534,0.000000
1.260000,-2.834205,-1.895745,-1.561918,0.452354,1.264339,-0.240075,1.284737,-0.246909,-0.054782,0.590174,-3.485523,2.188150,-10.938302,3.498000,7.474327,-0.024815,-0.129506,0.000000,-0.355376,-0.087208,-0.000000
1.270000,-2.829617,-1.883114,-1.564321,0.465231,1.261695,-0.240513,1.290092,-0.281590,-0.032526,0.478704,-3.448028,2.261387,-11.369341,4.033044,7.146189,-0.028359,-0.130330,0.000000,-0.353294,-0.077390,0.000000
1.280000,-2.824900,-1.870511,-1.566728,0.478155,1.258707,-0.240725,1.294311,-0.315869,-0.009554,0.362787,-3.404862,2.331074,-11.811768,4.610476,6.771760,-0.031881,-0.131054,0.000000,-0.350702,-0.067036,-0.000000
1.290000,-2.820054,-1.857940,-1.569136,0.491117,1.255378,-0.240704,1.297348,-0.349687,0.014096,0.242468,-3.355819,2.396823,-12.232449,5.184290,6.369932,-0.035373,-0.131672,0.000000,-0.347568,-0.056136,-0.000000
1.300000,-2.815078,-1.845404,-1.571542,0.504102,1.251713,-0.240444,1.299160,-0.382985,0.038383,0.118138,-3.301177,2.458473,-12.620099,5.739459,5.951648,-0.038832,-0.132177,0.000000,-0.343911,-0.044715,0.000000
1.310000,-2.809972,-1.832906,-1.573944,0.517100,1.247718,-0.239937,1.299710,-0.415710,0.063265,-0.009934,-3.241029,2.515856,-12.995020,6.306260,5.502041,-0.042252,-0.132566,0.000000,-0.339727,-0.032788,0.000000
1.320000,-2.804736,-1.820449,-1.576341,0.530097,1.243399,-0.239178,1.298962,-0.447806,0.088700,-0.141762,-3.175051,2.568514,-13.379909,6.918628,4.990731,-0.045627,-0.132833,0.000000,-0.334972,-0.020337,0.000000
1.330000,-2.799370,-1.808038,-1.578728,0.543079,1.238762,-0.238163,1.296875,-0.479211,0.114635,-0.277532,-3.102657,2.615670,-13.766795,7.567216,4.418719,-0.048951,-0.132973,0.000000,-0.329567,-0.007322,-0.000000
1.340000,-2.793874,-1.795674,-1.581104,0.556034,1.233815,-0.236886,1.293411,-0.509859,0.141013,-0.417098,-3.023707,2.656888,-14.122215,8.204951,3.825852,-0.052218,-0.132980,0.000000,-0.323483,0.006259,0.000000
1.350000,-2.788249,-1.783361,-1.583466,0.568947,1.228565,-0.235342,1.288533,-0.539686,0.167773,-0.559976,-2.938558,2.692187,-14.438854,8.816746,3.232015,-0.055421,-0.132847,0.000000,-0.316740,0.020368,0.000000
1.360000,-2.782495,-1.771103,-1.585811,0.581805,1.223021,-0.233530,1.282211,-0.568630,0.194857,-0.705875,-2.847372,2.721528,-14.736264,9.432600,2.608447,-0.058553,-0.132571,0.000000,-0.309339,0.034984,0.000000
1.370000,-2.776613,-1.758901,-1.588136,0.594592,1.217192,-0.231445,1.274416,-0.596633,0.222204,-0.854701,-2.749906,2.744356,-15.024195,10.084649,1.903305,-0.061608,-0.132146,0.000000,-0.301235,0.050116,-0.000000
1.380000,-2.770604,-1.746759,-1.590440,0.607293,1.211089,-0.229086,1.265117,-0.623629,0.249744,-1.006359,-2.645679,2.759594,-15.293427,10.762230,1.121341,-0.064578,-0.131566,0.000000,-0.292354,0.065776,0.000000
1.390000,-2.764467,-1.734679,-1.592718,0.619894,1.204720,-0.226450,1.254289,-0.649547,0.277396,-1.160570,-2.534661,2.766783,-15.527711,11.419625,0.332358,-0.067455,-0.130827,0.000000,-0.282670,0.081949,0.000000
1.400000,-2.758206,-1.722665,-1.594969,0.632379,1.198098,-0.223538,1.241906,-0.674322,0.305080,-1.316913,-2.417287,2.766242,-15.725475,12.045844,-0.433104,-0.070231,-0.129923,0.000000,-0.272211,0.098594,0.000000
1.410000,-2.751820,-1.710717,-1.597189,0.644732,1.191233,-0.220349,1.227950,-0.697892,0.332720,-1.475079,-2.293744,2.758121,-15.893875,12.668696,-1.223284,-0.072899,-0.128850,0.000000,-0.260978,0.115681,0.000000
1.420000,-2.745311,-1.698840,-1.599376,0.656938,1.184140,-0.216884,1.212404,-0.720197,0.360242,-1.634791,-2.163913,2.741776,-16.028982,13.306824,-2.113374,-0.075450,-0.127603,0.000000,-0.248935,0.133194,0.000000
1.430000,-2.738681,-1.687035,-1.601526,0.668980,1.176829,-0.213144,1.195255,-0.741171,0.387556,-1.795659,-2.027608,2.715853,-16.124531,13.948304,-3.092031,-0.077877,-0.126178,0.000000,-0.236034,0.151111,0.000000
1.440000,-2.731931,-1.675303,-1.603639,0.680843,1.169316,-0.209133,1.176491,-0.760749,0.414559,-1.957281,-1.884947,2.679935,-16.181922,14.564999,-4.056579,-0.080170,-0.124571,0.000000,-0.222261,0.169395,0.000000
1.450000,-2.725064,-1.663648,-1.605709,0.692510,1.161615,-0.204853,1.156109,-0.778870,0.441155,-2.119298,-1.736308,2.634722,-16.205687,15.153816,-4.969157,-0.082322,-0.122779,0.000000,-0.207643,0.187993,0.000000
1.460000,-2.718081,-1.652071,-1.607736,0.703965,1.153739,-0.200309,1.134105,-0.795475,0.467254,-2.281395,-1.581870,2.580552,-16.190706,15.729470,-5.898610,-0.084323,-0.120798,0.000000,-0.192185,0.206864,-0.000000
1.470000,-2.710985,-1.640573,-1.609715,0.715192,1.145705,-0.195508,1.110481,-0.810507,0.492766,-2.443112,-1.421719,2.516750,-16.117604,16.290035,-6.932729,-0.086165,-0.118626,0.000000,-0.175873,0.225957,0.000000
1.480000,-2.703777,-1.629157,-1.611646,0.726175,1.137529,-0.190454,1.085243,-0.823909,0.517589,-2.603747,-1.256070,2.441898,-15.982662,16.826194,-8.051723,-0.087840,-0.116261,0.000000,-0.158702,0.245205,-0.000000
1.490000,-2.696461,-1.617823,-1.613524,0.736897,1.129227,-0.185156,1.058406,-0.835628,0.541604,-2.762765,-1.085195,2.355715,-15.808033,17.336701,-9.134418,-0.089338,-0.113703,0.000000,-0.140685,0.264537,0.000000
1.500000,-2.689040,-1.606572,-1.615349,0.747343,1.120816,-0.179622,1.029988,-0.845613,0.564703,-2.919908,-0.909336,2.259209,-15.609464,17.826912,-10.141165,-0.090653,-0.110949,0.000000,-0.121845,0.283894,0.000000
1.510000,-2.681515,-1.595407,-1.617117,0.757497,1.112315,-0.173862,1.000008,-0.853815,0.586788,-3.074954,-0.728656,2.152892,-15.367546,18.292812,-11.150718,-0.091775,-0.108001,0.000000,-0.102197,0.303224,0.000000
1.520000,-2.673890,-1.584326,-1.618826,0.767343,1.103740,-0.167886,0.968489,-0.860186,0.607761,-3.227259,-0.543479,2.036195,-15.034273,18.712060,-12.249390,-0.092696,-0.104859,0.000000,-0.081767,0.322439,0.000000
1.530000,-2.666168,-1.573332,-1.620475,0.776867,1.095111,-0.161707,0.935463,-0.864685,0.627512,-3.375640,-0.354415,1.907904,-14.609406,19.080063,-13.411062,-0.093409,-0.101524,0.000000,-0.060604,0.341396,0.000000
1.540000,-2.658352,-1.562424,-1.622060,0.786052,1.086446,-0.155336,0.900976,-0.867275,0.645919,-3.519447,-0.161878,1.767974,-14.154499,19.422461,-14.514705,-0.093907,-0.098001,0.000000,-0.038755,0.359992,0.000000
1.550000,-2.650447,-1.551603,-1.623581,0.794886,1.077765,-0.148788,0.865074,-0.867922,0.662871,-3.658730,0.034034,1.617610,-13.696151,19.755203,-15.526507,-0.094184,-0.094293,0.000000,-0.016250,0.378181,0.000000
1.560000,-2.642455,-1.540869,-1.625036,0.803354,1.069088,-0.142079,0.827801,-0.866594,0.678271,-3.793370,0.233226,1.457444,-13.188904,20.056035,-16.521940,-0.094232,-0.090404,0.000000,0.006883,0.395905,0.000000
1.570000,-2.634380,-1.530221,-1.626423,0.811442,1.060433,-0.135223,0.789206,-0.863258,0.692020,-3.922508,0.435155,1.287171,-12.562553,20.276277,-17.566941,-0.094046,-0.086340,0.000000,0.030573,0.413035,0.000000
1.580000,-2.626226,-1.519660,-1.627740,0.819138,1.051823,-0.128238,0.749351,-0.857891,0.704014,-4.044621,0.638751,1.106105,-11.825640,20.416325,-18.632217,-0.093620,-0.082107,0.000000,0.054690,0.429367,-0.000000
1.590000,-2.617997,-1.509185,-1.628988,0.826429,1.043276,-0.121143,0.708314,-0.850483,0.714142,-4.159020,0.843481,0.914527,-11.070047,20.537782,-19.621900,-0.092951,-0.077715,0.000000,0.079149,0.444777,0.000000
1.600000,-2.609697,-1.498794,-1.630163,0.833304,1.034813,-0.113955,0.666171,-0.841021,0.722305,-4.266022,1.049507,0.713667,-10.329365,20.666808,-20.516871,-0.092037,-0.073174,0.000000,0.103924,0.459241,0.000000
1.610000,-2.601331,-1.488488,-1.631267,0.839752,1.026455,-0.106697,0.622994,-0.829493,0.728416,-4.365608,1.256817,0.504189,-9.539258,20.757509,-21.372482,-0.090873,-0.068492,0.000000,0.128970,0.472709,0.000000
1.620000,-2.592902,-1.478265,-1.632297,0.845764,1.018223,-0.099387,0.578859,-0.815885,0.732389,-4.456807,1.464657,0.286217,-8.616200,20.739636,-22.213090,-0.089457,-0.063681,0.000000,0.154167,0.485029,0.000000
1.630000,-2.584415,-1.468124,-1.633254,0.851330,1.010138,-0.092049,0.533857,-0.800199,0.734140,-4.537932,1.671610,0.059928,-7.576396,20.621855,-23.010868,-0.087790,-0.058754,0.000000,0.179316,0.495972,-0.000000
1.640000,-2.575875,-1.458063,-1.634138,0.856441,1.002219,-0.084704,0.488100,-0.782453,0.733587,-4.608335,1.877094,-0.174000,-6.531051,20.495386,-23.724044,-0.085871,-0.053725,0.000000,0.204300,0.505421,0.000000
1.650000,-2.567287,-1.448079,-1.634949,0.861092,0.994488,-0.077377,0.441691,-0.762657,0.730660,-4.668553,2.081518,-0.414553,-5.515674,20.391163,-24.357640,-0.083704,-0.048610,0.000000,0.229103,0.513393,0.000000
1.660000,-2.558654,-1.438173,-1.635686,0.865275,0.986966,-0.070091,0.394729,-0.740822,0.725296,-4.718648,2.284918,-0.661153,-4.455245,20.245053,-24.927894,-0.081290,-0.043423,0.000000,0.253675,0.519861,0.000000
1.670000,-2.549981,-1.428340,-1.636350,0.868986,0.979672,-0.062871,0.347318,-0.716959,0.717437,-4.757658,2.486419,-0.913111,-3.266991,19.980008,-25.396485,-0.078631,-0.038179,0.000000,0.277861,0.524689,0.000000
1.680000,-2.541274,-1.418579,-1.636943,0.872221,0.972627,-0.055742,0.299576,-0.691094,0.707034,-4.783988,2.684518,-1.169083,-1.973492,19.612785,-25.743119,-0.075733,-0.032898,0.000000,0.301434,0.527678,0.000000
1.690000,-2.532537,-1.408888,-1.637465,0.874978,0.965850,-0.048730,0.251638,-0.663269,0.694055,-4.797128,2.878675,-1.427974,-0.686771,19.244850,-26.009406,-0.072604,-0.027597,0.000000,0.324278,0.528758,0.000000
1.700000,-2.523774,-1.399262,-1.637918,0.877254,0.959361,-0.041861,0.203633,-0.633520,0.678475,-4.797724,3.069415,-1.689271,0.563160,18.904766,-26.232791,-0.069249,-0.022296,0.000000,0.346396,0.527996,0.000000
1.710000,-2.514992,-1.389700,-1.638302,0.879050,0.953180,-0.035161,0.155684,-0.601880,0.660270,-4.785864,3.256770,-1.952629,1.848956,18.523922,-26.371880,-0.065677,-0.017013,0.000000,0.367746,0.525404,0.000000
1.720000,-2.506193,-1.380199,-1.638621,0.880368,0.947324,-0.028656,0.107916,-0.568385,0.639422,-4.760744,3.439893,-2.216708,3.234060,18.036098,-26.309006,-0.061896,-0.011767,0.000000,0.388184,0.520905,-0.000000
1.730000,-2.497384,-1.370754,-1.638876,0.881209,0.941812,-0.022372,0.060469,-0.533083,0.615936,-4.721183,3.617492,-2.478809,4.692976,17.463428,-26.038435,-0.057915,-0.006577,0.000000,0.407517,0.514390,0.000000
1.740000,-2.488569,-1.361362,-1.639068,0.881577,0.936662,-0.016337,0.013492,-0.496035,0.589846,-4.666885,3.789162,-2.737477,6.137573,16.894303,-25.708996,-0.053747,-0.001463,0.000000,0.425666,0.505863,0.000000
1.750000,-2.479753,-1.352021,-1.639202,0.881479,0.931891,-0.010576,-0.032869,-0.457299,0.561186,-4.598432,3.955378,-2.992989,7.549341,16.343084,-25.394751,-0.049404,0.003554,0.000000,0.442666,0.495430,0.000000
1.760000,-2.470940,-1.342725,-1.639280,0.880920,0.927516,-0.005113,-0.078476,-0.416928,0.529986,-4.515898,4.116023,-3.245372,8.982057,15.753044,-24.982652,-0.044896,0.008456,0.000000,0.458490,0.483147,0.000000
1.770000,-2.462134,-1.333470,-1.639305,0.879909,0.923553,0.000024,-0.123187,-0.374979,0.496279,-4.418791,4.270439,-3.492642,10.466914,15.099683,-24.270729,-0.040236,0.013226,0.000000,0.473050,0.469017,0.000000
1.780000,-2.453341,-1.324254,-1.639280,0.878456,0.920017,0.004812,-0.166852,-0.331519,0.460133,-4.306560,4.418017,-3.730787,11.981137,14.407194,-23.275947,-0.035437,0.017844,0.000000,0.486268,0.453052,0.000000
1.790000,-2.444565,-1.315070,-1.639208,0.876572,0.916922,0.009227,-0.209318,-0.286619,0.421663,-4.179168,4.558583,-3.958161,13.477665,13.708453,-22.262456,-0.030512,0.022292,0.000000,0.498138,0.435326,0.000000
1.800000,-2.435810,-1.305915,-1.639095,0.874270,0.914284,0.013245,-0.250436,-0.240347,0.380970,-4.037007,4.692186,-4.176036,14.951046,12.987885,-21.329689,-0.025476,0.026554,0.000000,0.508693,0.415955,-0.000000
1.810000,-2.427080,-1.296784,-1.638943,0.871563,0.912115,0.016846,-0.290058,-0.192775,0.338142,-3.880147,4.818340,-4.384755,16.425407,12.229298,-20.290882,-0.020340,0.030614,0.000000,0.517911,0.395022,-0.000000
1.820000,-2.418379,-1.287673,-1.638758,0.868469,0.910429,0.020008,-0.328039,-0.143980,0.293275,-3.708498,4.936772,-4.581854,17.898554,11.485755,-18.896949,-0.015119,0.034456,0.000000,0.525793,0.372601,-0.000000
1.830000,-2.409710,-1.278576,-1.638543,0.865003,0.909236,0.022712,-0.364228,-0.094039,0.246505,-3.522176,5.048055,-4.762694,19.355387,10.773288,-17.193592,-0.009826,0.038067,0.000000,0.532436,0.348804,0.000000
1.840000,-2.401079,-1.269488,-1.638304,0.861184,0.908548,0.024938,-0.398482,-0.043019,0.198021,-3.321391,5.152238,-4.925725,20.791449,10.020822,-15.510915,-0.004472,0.041433,0.000000,0.537903,0.323743,0.000000
1.850000,-2.392487,-1.260405,-1.638045,0.857033,0.908375,0.026672,-0.430656,0.009005,0.147991,-3.106347,5.248472,-5.072912,22.210678,9.181861,-13.952270,0.000931,0.044543,0.000000,0.542167,0.297508,0.000000
1.860000,-2.383938,-1.251321,-1.637770,0.852571,0.908728,0.027898,-0.460609,0.061950,0.096563,-2.877177,5.335875,-5.204771,23.607888,8.311115,-12.293652,0.006371,0.047384,0.000000,0.545195,0.270184,0.000000
1.870000,-2.375435,-1.242230,-1.637487,0.847821,0.909614,0.028603,-0.488200,0.115723,0.043895,-2.634189,5.414694,-5.318785,24.958583,7.531244,-10.292742,0.011834,0.049948,0.000000,0.547081,0.241881,-0.000000
1.880000,-2.366982,-1.233128,-1.637198,0.842807,0.911042,0.028776,-0.513293,0.170244,-0.009813,-2.378005,5.486500,-5.410626,26.257340,6.835100,-8.015546,0.017311,0.052224,0.000000,0.548059,0.212750,0.000000
1.890000,-2.358579,-1.224009,-1.636911,0.837555,0.913019,0.028407,-0.535760,0.225453,-0.064317,-2.109042,5.551396,-5.479096,27.527880,6.059388,-5.787991,0.022795,0.054205,0.000000,0.548218,0.182896,0.000000
1.900000,-2.350230,-1.214868,-1.636630,0.832092,0.915552,0.027490,-0.555474,0.281272,-0.119395,-1.827448,5.607688,-5.526385,28.774052,5.147084,-3.700930,0.028275,0.055884,0.000000,0.547454,0.152371,-0.000000
1.910000,-2.341937,-1.205698,-1.636361,0.826445,0.918645,0.026019,-0.572309,0.337607,-0.174845,-1.533561,5.654338,-5.553115,29.972425,4.212056,-1.541431,0.033744,0.057255,0.000000,0.545734,0.121244,-0.000000
1.920000,-2.333702,-1.196495,-1.636110,0.820645,0.922304,0.023993,-0.586145,0.394359,-0.230457,-1.227999,5.691929,-5.557214,31.101824,3.390542,0.888814,0.039190,0.058312,0.000000,0.543193,0.089619,0.000000
1.930000,-2.325524,-1.187252,-1.635881,0.814722,0.926532,0.021410,-0.596869,0.451445,-0.285989,-0.911525,5.722149,-5.535339,32.162626,2.651959,3.518511,0.044608,0.059051,0.000000,0.540085,0.057613,-0.000000
1.940000,-2.317407,-1.177964,-1.635682,0.808708,0.931333,0.018273,-0.604375,0.508802,-0.341164,-0.584747,5.744968,-5.486844,33.173246,1.815345,6.073518,0.049992,0.059467,0.000000,0.536479,0.025302,-0.000000
1.950000,-2.309350,-1.168626,-1.635516,0.802635,0.936708,0.014587,-0.608564,0.566345,-0.395726,-0.248060,5.758456,-5.413868,34.144261,0.827985,8.483673,0.055338,0.059559,0.000000,0.532243,-0.007289,0.000000
1.960000,-2.301354,-1.159230,-1.635390,0.796537,0.942659,0.010359,-0.609337,0.623971,-0.449441,0.098138,5.761528,-5.317170,35.055974,-0.189022,10.919548,0.060638,0.059323,0.000000,0.527331,-0.040131,0.000000
1.970000,-2.293420,-1.149772,-1.635309,0.790448,0.949187,0.005598,-0.606601,0.681575,-0.502070,0.453060,5.754675,-5.195477,35.865283,-1.115458,13.517480,0.065885,0.058757,0.000000,0.521859,-0.073159,0.000000
1.980000,-2.285545,-1.140247,-1.635278,0.784405,0.956291,0.000317,-0.600275,0.739064,-0.553351,0.815444,5.739219,-5.046821,36.572142,-1.992857,16.210892,0.071076,0.057858,0.000000,0.516025,-0.106267,0.000000
1.990000,-2.277731,-1.130647,-1.635302,0.778443,0.963969,-0.005469,-0.590292,0.796359,-0.603006,1.184502,5.714818,-4.871260,37.226122,-2.982914,18.801294,0.076207,0.056627,0.000000,0.509849,-0.139416,0.000000
2.000000,-2.269977,-1.120967,-1.635387,0.772599,0.972218,-0.011743,-0.576585,0.853361,-0.650776,1.559967,5.679560,-4.670795,37.832595,-4.100571,21.249497,0.081274,0.055063,0.000000,0.503186,-0.172638,0.000000
2.010000,-2.262280,-1.111202,-1.635537,0.766911,0.981036,-0.018485,-0.559093,0.909951,-0.696422,1.941154,5.632807,-4.446270,38.352238,-5.244175,23.668722,0.086272,0.053164,0.000000,0.496013,-0.205925,0.000000
2.020000,-2.254638,-1.101346,-1.635757,0.761417,0.990417,-0.025671,-0.537762,0.966017,-0.739702,2.327011,5.574677,-4.197420,38.766612,-6.404721,26.107731,0.091196,0.050930,0.000000,0.488386,-0.239235,0.000000
2.030000,-2.247051,-1.091394,-1.636051,0.756156,1.000356,-0.033279,-0.512552,1.021444,-0.780370,2.716487,5.504712,-3.924115,39.089014,-7.635052,28.508453,0.096041,0.048360,0.000000,0.480299,-0.272535,0.000000
2.040000,-2.239515,-1.081339,-1.636423,0.751166,1.010846,-0.041279,-0.483432,1.076111,-0.818184,3.108792,5.421976,-3.627251,39.332989,-8.945264,30.784947,0.100803,0.045455,0.000000,0.471693,-0.305832,0.000000
2.050000,-2.232028,-1.071177,-1.636876,0.746487,1.021878,-0.049642,-0.450377,1.129884,-0.852915,3.503146,5.325807,-3.308416,39.463855,-10.248249,32.946679,0.105477,0.042213,0.000000,0.462518,-0.339137,0.000000
2.060000,-2.224586,-1.060902,-1.637415,0.742159,1.033444,-0.058337,-0.413370,1.182627,-0.884352,3.898069,5.217011,-2.968318,39.470363,-11.552905,35.025785,0.110055,0.038634,0.000000,0.452864,-0.372400,0.000000
2.070000,-2.217185,-1.050508,-1.638043,0.738220,1.045531,-0.067329,-0.372415,1.234224,-0.912282,4.292554,5.094749,-2.607900,39.439559,-13.115300,36.943258,0.114535,0.034719,0.000000,0.442662,-0.405620,-0.000000
2.080000,-2.209821,-1.039991,-1.638762,0.734710,1.058128,-0.076583,-0.327518,1.284522,-0.936510,4.686860,4.954705,-2.229453,39.373513,-14.961751,38.658821,0.118910,0.030467,0.000000,0.431503,-0.438919,0.000000
2.090000,-2.202490,-1.029346,-1.639575,0.731669,1.071221,-0.086060,-0.278678,1.333318,-0.956871,5.080024,4.795514,-1.834724,39.143456,-16.743328,40.255858,0.123167,0.025877,0.000000,0.419251,-0.472306,0.000000
2.100000,-2.195188,-1.018567,-1.640483,0.729137,1.084795,-0.095720,-0.225918,1.380432,-0.973205,5.469729,4.619838,-1.424335,38.737984,-18.314351,41.795140,0.127297,0.020948,0.000000,0.406143,-0.505664,0.000000
2.110000,-2.187908,-1.007650,-1.641489,0.727151,1.098830,-0.105524,-0.169283,1.425715,-0.985357,5.854784,4.429227,-0.998821,38.237579,-19.923017,43.192849,0.131292,0.015680,0.000000,0.392307,-0.538981,0.000000
2.120000,-2.180645,-0.996590,-1.642594,0.725751,1.113309,-0.115427,-0.108822,1.469017,-0.993181,6.234481,4.221378,-0.560479,37.630234,-21.918437,44.250543,0.135144,0.010073,0.000000,0.377491,-0.572294,0.000000
2.130000,-2.173393,-0.985384,-1.643798,0.724975,1.128210,-0.125387,-0.044594,1.510142,-0.996567,6.607388,3.990858,-0.113810,36.875759,-24.243360,44.959924,0.138843,0.004127,0.000000,0.361125,-0.605572,0.000000
2.140000,-2.166145,-0.974026,-1.645101,0.724859,1.143512,-0.135359,0.023325,1.548834,-0.995457,6.971996,3.736511,0.338720,35.990005,-26.431882,45.563811,0.142368,-0.002159,0.000000,0.343043,-0.638765,0.000000
2.150000,-2.158896,-0.962513,-1.646505,0.725441,1.159187,-0.145296,0.094846,1.584873,-0.989793,7.327188,3.462220,0.797466,35.018387,-28.316040,46.180512,0.145705,-0.008782,0.000000,0.323563,-0.671857,-0.000000
2.160000,-2.151636,-0.950842,-1.648007,0.726756,1.175209,-0.155155,0.169869,1.618079,-0.979508,7.672363,3.170190,1.262330,33.938588,-30.212870,46.620230,0.148840,-0.015743,0.000000,0.302837,-0.704880,-0.000000
2.170000,-2.144360,-0.939009,-1.649608,0.728838,1.191549,-0.164887,0.248293,1.648276,-0.964546,8.005960,2.857963,1.729871,32.619189,-32.524418,46.546949,0.151762,-0.023040,0.000000,0.280543,-0.737769,0.000000
2.180000,-2.137060,-0.927011,-1.651305,0.731722,1.208175,-0.174445,0.329988,1.675238,-0.944911,8.324747,2.519701,2.193269,31.049231,-35.164983,45.982677,0.154452,-0.030673,0.000000,0.255995,-0.770285,-0.000000
2.190000,-2.129726,-0.914846,-1.653097,0.735438,1.225053,-0.183785,0.414788,1.698670,-0.920681,8.626945,2.154663,2.649524,29.402218,-37.588114,45.360342,0.156882,-0.038635,0.000000,0.229005,-0.802306,0.000000
2.200000,-2.122351,-0.902510,-1.654981,0.740018,1.242148,-0.192859,0.502527,1.718331,-0.891920,8.912792,1.767939,3.100476,27.759264,-39.607602,44.862251,0.159032,-0.046922,0.000000,0.199978,-0.833906,-0.000000
2.210000,-2.114926,-0.890003,-1.656954,0.745489,1.259420,-0.201623,0.593044,1.734029,-0.858671,9.182130,1.362511,3.546769,25.993170,-41.584215,44.175329,0.160882,-0.055530,0.000000,0.169106,-0.865117,-0.000000
2.220000,-2.107441,-0.877322,-1.659013,0.751879,1.276829,-0.210032,0.686170,1.745581,-0.820985,9.432655,0.936255,3.983983,23.896334,-43.941466,42.823431,0.162413,-0.064455,0.000000,0.136039,-0.895741,0.000000
2.230000,-2.099888,-0.864466,-1.661155,0.759212,1.294332,-0.218043,0.781697,1.752754,-0.778991,9.660057,0.483682,4.403238,21.496358,-46.567380,40.869699,0.163601,-0.073688,0.000000,0.100043,-0.925337,0.000000
2.240000,-2.092257,-0.851435,-1.663374,0.767512,1.311884,-0.225612,0.879371,1.755255,-0.732920,9.862582,0.004907,4.801377,19.067236,-48.875426,38.943865,0.164413,-0.083216,0.000000,0.060965,-0.953693,0.000000
2.250000,-2.084538,-0.838228,-1.665667,0.776800,1.329437,-0.232701,0.978949,1.752852,-0.682964,10.041401,-0.493827,5.182115,16.685163,-50.694128,37.279946,0.164819,-0.093026,0.000000,0.019319,-0.980910,-0.000000
2.260000,-2.076721,-0.824846,-1.668028,0.787091,1.346941,-0.239272,1.080199,1.745378,-0.629278,10.196285,-1.008975,5.546976,14.162045,-52.397517,35.442224,0.164797,-0.103108,0.000000,-0.024655,-1.006946,0.000000
2.270000,-2.068796,-0.811290,-1.670452,0.798404,1.364344,-0.245287,1.182875,1.732673,-0.572024,10.324642,-1.541777,5.890960,11.320270,-54.334640,32.857726,0.164324,-0.113446,0.000000,-0.071255,-1.031465,-0.000000
2.280000,-2.060753,-0.797559,-1.672934,0.810749,1.381594,-0.250712,1.286692,1.714543,-0.511458,10.422691,-2.095668,6.204130,8.167062,-56.292931,29.643723,0.163369,-0.124022,0.000000,-0.121058,-1.053919,0.000000
2.290000,-2.052581,-0.783658,-1.675467,0.824137,1.398635,-0.255516,1.391328,1.690760,-0.447942,10.487984,-2.667635,6.483834,4.949120,-57.797086,26.569565,0.161899,-0.134812,0.000000,-0.173925,-1.073910,0.000000
2.300000,-2.044270,-0.769587,-1.678044,0.838576,1.415409,-0.259671,1.496452,1.661190,-0.381782,10.521673,-3.251610,6.735521,2.084337,-59.302958,23.852675,0.159888,-0.145788,0.000000,-0.229297,-1.091468,0.000000
2.310000,-2.035809,-0.755349,-1.680660,0.854066,1.431859,-0.263152,1.601762,1.625727,-0.313231,10.529670,-3.853695,6.960887,-0.617166,-61.051265,20.981552,0.157310,-0.156925,0.000000,-0.287821,-1.107046,0.000000
2.320000,-2.027189,-0.740950,-1.683307,0.870611,1.447924,-0.265936,1.707045,1.584116,-0.242564,10.509330,-4.472635,7.155152,-4.316926,-61.600147,17.477029,0.154127,-0.168207,0.000000,-0.349535,-1.120178,-0.000000
2.330000,-2.018397,-0.726391,-1.685979,0.888207,1.463541,-0.268003,1.811948,1.536275,-0.170128,10.443332,-5.085698,7.310428,-8.972412,-60.889278,13.508330,0.150315,-0.179599,0.000000,-0.412380,-1.128892,0.000000
2.340000,-2.009425,-0.711679,-1.688667,0.906850,1.478650,-0.269338,1.915912,1.482402,-0.096355,10.329882,-5.690421,7.425319,-12.977559,-60.864467,9.725812,0.145875,-0.191044,0.000000,-0.476102,-1.132734,-0.000000
2.350000,-2.000260,-0.696818,-1.691365,0.926526,1.493189,-0.269930,2.018546,1.422466,-0.021622,10.183781,-6.302987,7.504944,-16.221002,-60.981629,6.261871,0.140789,-0.202498,0.000000,-0.542214,-1.132985,0.000000
2.360000,-1.990894,-0.681815,-1.694066,0.947221,1.507099,-0.269771,2.119587,1.356343,0.053743,10.005462,-6.910053,7.550556,-19.756189,-59.960100,2.706586,0.135027,-0.213930,0.000000,-0.609380,-1.129503,-0.000000
2.370000,-1.981316,-0.666676,-1.696761,0.968917,1.520316,-0.268855,2.218655,1.284265,0.129389,9.788657,-7.502189,7.559076,-23.504724,-59.799566,-1.182196,0.128597,-0.225295,0.000000,-0.676610,-1.121391,0.000000
2.380000,-1.971516,-0.651409,-1.699443,0.991594,1.532784,-0.267183,2.315360,1.206299,0.204925,9.535367,-8.106045,7.526912,-27.034436,-60.842688,-5.247945,0.121491,-0.236543,0.000000,-0.746496,-1.108520,0.000000
2.390000,-1.961484,-0.636020,-1.702104,1.015225,1.544442,-0.264757,2.409363,1.122144,0.279927,9.247968,-8.719043,7.454117,-30.508975,-60.226631,-9.143679,0.113664,-0.247628,0.000000,-0.818720,-1.090881,0.000000
2.400000,-1.951211,-0.620520,-1.704738,1.039781,1.555227,-0.261584,2.500320,1.031918,0.354007,8.925188,-9.310577,7.344039,-34.209394,-58.801088,-12.794432,0.105114,-0.258500,0.000000,-0.890026,-1.068199,-0.000000
2.410000,-1.940688,-0.604916,-1.707336,1.065231,1.565081,-0.257676,2.587866,0.935933,0.426808,8.563780,-9.895064,7.198228,-37.956028,-58.390371,-16.393920,0.095861,-0.269108,0.000000,-0.961648,-1.039981,-0.000000
2.420000,-1.929907,-0.589218,-1.709892,1.091538,1.573946,-0.253048,2.671595,0.834017,0.497972,8.166067,-10.478385,7.016161,-41.047098,-55.634668,-20.052631,0.085879,-0.279393,0.000000,-1.034035,-1.006248,0.000000
2.430000,-1.918858,-0.573437,-1.712397,1.118663,1.581761,-0.247717,2.751188,0.726365,0.567131,7.742838,-11.007758,6.797176,-43.527004,-49.682004,-23.643225,0.075179,-0.289304,0.000000,-1.101574,-0.967868,0.000000
2.440000,-1.907533,-0.557583,-1.714846,1.146562,1.588473,-0.241705,2.826452,0.613861,0.633915,7.295527,-11.472025,6.543296,-46.296339,-45.318442,-26.981680,0.063847,-0.298802,0.000000,-1.162721,-0.924885,0.000000
2.450000,-1.895926,-0.541667,-1.717231,1.175192,1.594038,-0.235039,2.897098,0.496925,0.697997,6.816911,-11.914127,6.257542,-49.192129,-43.578142,-30.265488,0.051925,-0.307836,0.000000,-1.221569,-0.876556,0.000000
2.460000,-1.884030,-0.525702,-1.719547,1.204504,1.598411,-0.227745,2.962790,0.375579,0.759066,6.311684,-12.343588,5.937986,-51.599487,-41.162915,-33.555471,0.039417,-0.316353,0.000000,-1.278889,-0.823193,0.000000
2.470000,-1.871836,-0.509699,-1.721786,1.234448,1.601550,-0.219857,3.023332,0.250053,0.816757,5.784922,-12.737385,5.586433,-54.114189,-36.451205,-36.174063,0.026349,-0.324309,0.000000,-1.331983,-0.765294,0.000000
2.480000,-1.859341,-0.493671,-1.723944,1.264971,1.603413,-0.211410,3.078489,0.120831,0.870795,5.229401,-13.072612,5.214505,-56.931928,-30.685810,-38.000585,0.012780,-0.331660,0.000000,-1.378107,-0.702504,0.000000
2.490000,-1.846537,-0.477631,-1.726014,1.296017,1.603966,-0.202442,3.127920,-0.011399,0.921047,4.646283,-13.351101,4.826421,-59.146893,-25.829015,-39.933650,-0.001210,-0.338356,0.000000,-1.417212,-0.635123,0.000000
2.500000,-1.833420,-0.461592,-1.727993,1.327529,1.603185,-0.192989,3.171414,-0.146191,0.967323,4.046463,-13.589192,4.415832,-60.794678,-21.116963,-42.366578,-0.015561,-0.344359,0.000000,-1.450824,-0.564074,-0.000000
2.510000,-1.819986,-0.445567,-1.729874,1.359446,1.601043,-0.183095,3.208849,-0.283183,1.009364,3.430390,-13.773440,3.979090,-62.454301,-15.389324,-44.632329,-0.030222,-0.349636,0.000000,-1.477283,-0.489337,0.000000
2.520000,-1.806231,-0.429571,-1.731655,1.391706,1.597521,-0.172802,3.240022,-0.421660,1.046905,2.797377,-13.896978,3.523185,-63.666776,-10.958032,-45.740682,-0.045101,-0.354147,0.000000,-1.495669,-0.411187,0.000000
2.530000,-1.792152,-0.413617,-1.733330,1.424246,1.592609,-0.162157,3.264797,-0.561123,1.079827,2.157054,-13.992601,3.064276,-64.123682,-8.261241,-45.848159,-0.060129,-0.357865,0.000000,-1.509432,-0.331323,0.000000
2.540000,-1.777746,-0.397719,-1.734898,1.457002,1.586298,-0.151206,3.283163,-0.701512,1.108191,1.514903,-14.062203,2.606222,-64.487480,-4.105700,-46.239428,-0.075284,-0.360783,0.000000,-1.518770,-0.250605,-0.000000
2.550000,-1.763012,-0.381891,-1.736354,1.489909,1.578579,-0.139993,3.295095,-0.842367,1.131952,0.867305,-14.074715,2.139487,-65.307766,1.148244,-47.184151,-0.090499,-0.362889,0.000000,-1.520276,-0.168473,0.000000
2.560000,-1.747948,-0.366147,-1.737698,1.522904,1.569451,-0.128567,3.300509,-0.983006,1.150980,0.208748,-14.039238,1.662539,-66.065532,5.339926,-47.797339,-0.105684,-0.364164,0.000000,-1.514904,-0.084475,0.000000
2.570000,-1.732554,-0.350502,-1.738926,1.555920,1.558919,-0.116974,3.299270,-1.123152,1.165203,-0.454006,-13.967917,1.183541,-65.351880,10.311345,-47.480914,-0.120792,-0.364586,0.000000,-1.504027,0.000232,0.000000
2.580000,-1.716830,-0.334969,-1.740037,1.588889,1.546988,-0.105262,3.291429,-1.262364,1.174651,-1.098290,-13.833011,0.712921,-63.254867,16.785693,-46.504786,-0.135759,-0.364158,0.000000,-1.484782,0.082807,0.000000
2.590000,-1.700776,-0.319562,-1.741031,1.621748,1.533672,-0.093481,3.277304,-1.399812,1.179461,-1.719103,-13.632203,0.253445,-61.663479,21.995169,-45.622453,-0.150482,-0.362914,0.000000,-1.457066,0.162483,0.000000
2.600000,-1.684395,-0.304295,-1.741907,1.654435,1.518992,-0.081673,3.257047,-1.535008,1.179720,-2.331559,-13.393108,-0.199528,-60.976091,26.106664,-45.013809,-0.164896,-0.360871,0.000000,-1.423969,0.240805,0.000000
2.610000,-1.667688,-0.289182,-1.742664,1.686889,1.502972,-0.069886,3.230673,-1.667674,1.175471,-2.938625,-13.110069,-0.646831,-59.904221,30.929629,-44.178974,-0.178958,-0.358032,0.000000,-1.385048,0.317967,0.000000
2.620000,-1.650657,-0.274236,-1.743304,1.719049,1.485638,-0.058164,3.198275,-1.797210,1.166783,-3.529644,-12.774516,-1.083108,-57.663413,34.948764,-42.669269,-0.192593,-0.354409,0.000000,-1.339609,0.392580,-0.000000
2.630000,-1.633307,-0.259470,-1.743828,1.750855,1.467027,-0.046550,3.160080,-1.923164,1.153808,-4.091894,-12.411094,-1.500217,-54.694825,37.410457,-40.650166,-0.205747,-0.350033,0.000000,-1.290495,0.462976,0.000000
2.640000,-1.615640,-0.244895,-1.744235,1.782250,1.447175,-0.035088,3.116437,-2.045432,1.136779,-4.623540,-12.026306,-1.896111,-51.988723,40.508122,-38.722056,-0.218401,-0.344951,0.000000,-1.238589,0.528829,-0.000000
2.650000,-1.597662,-0.230526,-1.744529,1.813183,1.426119,-0.023815,3.067609,-2.163691,1.115886,-5.131668,-11.600932,-2.274658,-49.565384,44.673264,-36.979682,-0.230516,-0.339200,0.000000,-1.182068,0.590937,0.000000
2.660000,-1.579376,-0.216373,-1.744712,1.843603,1.403901,-0.012770,3.013803,-2.277450,1.091286,-5.614848,-11.132841,-2.635705,-46.802292,48.345535,-35.042999,-0.242040,-0.332813,0.000000,-1.120929,0.649117,0.000000
2.670000,-1.560790,-0.202448,-1.744785,1.873459,1.380570,-0.001989,2.955312,-2.386347,1.063172,-6.067714,-10.634021,-2.975518,-43.748759,50.948897,-32.756768,-0.252934,-0.325830,0.000000,-1.056655,0.702695,-0.000000
2.680000,-1.541907,-0.188762,-1.744751,1.902709,1.356174,0.008493,2.892449,-2.490131,1.031776,-6.489823,-10.113863,-3.290840,-40.654793,52.960580,-30.279193,-0.263173,-0.318299,0.000000,-0.990477,0.751532,-0.000000
2.690000,-1.522735,-0.175324,-1.744615,1.931308,1.330767,0.018646,2.825516,-2.588625,0.997355,-6.880810,-9.574809,-3.581102,-37.442539,55.007714,-27.826258,-0.272744,-0.310266,0.000000,-0.922832,0.795611,0.000000
2.700000,-1.503281,-0.162146,-1.744379,1.959219,1.304402,0.028441,2.754833,-2.681627,0.960154,-7.238674,-9.013709,-3.847365,-34.065872,57.297915,-25.350995,-0.281631,-0.301778,0.000000,-0.853533,0.834822,0.000000
2.710000,-1.483551,-0.149236,-1.744046,1.986405,1.277135,0.037849,2.680742,-2.768899,0.920408,-7.562127,-8.428851,-4.088122,-30.623643,59.392789,-22.748075,-0.289816,-0.292887,0.000000,-0.782608,0.869062,-0.000000
2.720000,-1.463553,-0.136604,-1.743622,2.012834,1.249024,0.046849,2.603590,-2.850204,0.878391,-7.851147,-7.825853,-4.302327,-27.220695,60.584461,-20.214498,-0.297284,-0.283643,0.000000,-0.710809,0.898388,0.000000
2.730000,-1.443294,-0.124256,-1.743109,2.038477,1.220130,0.055417,2.523719,-2.925416,0.834361,-8.106541,-7.217162,-4.492411,-23.866830,60.966969,-17.833736,-0.304034,-0.274097,0.000000,-0.639424,0.923050,0.000000
2.740000,-1.422783,-0.112201,-1.742513,2.063308,1.190515,0.063536,2.441460,-2.994547,0.788543,-8.328483,-6.606514,-4.659001,-20.470640,61.476591,-15.362068,-0.310075,-0.264297,0.000000,-0.568888,0.943179,-0.000000
2.750000,-1.402028,-0.100446,-1.741838,2.087306,1.160240,0.071188,2.357150,-3.057546,0.741181,-8.515954,-5.987630,-4.799653,-16.943957,62.383454,-12.671154,-0.315414,-0.254291,0.000000,-0.498741,0.958719,-0.000000
2.760000,-1.381037,-0.088996,-1.741089,2.110451,1.129365,0.078360,2.271141,-3.114300,0.692550,-8.667363,-5.358845,-4.912424,-13.389393,63.045434,-9.965472,-0.320052,-0.244130,0.000000,-0.428958,0.969594,0.000000
2.770000,-1.359819,-0.077858,-1.740271,2.132729,1.097954,0.085039,2.183802,-3.164723,0.642933,-8.783742,-4.726721,-4.998962,-10.126213,62.840628,-7.606295,-0.323996,-0.233864,0.000000,-0.360201,0.976086,0.000000
2.780000,-1.338383,-0.067037,-1.739389,2.154127,1.066070,0.091218,2.095466,-3.208834,0.592571,-8.869887,-4.102032,-5.064550,-7.171571,61.977159,-5.568729,-0.327259,-0.223538,0.000000,-0.293406,0.978913,-0.000000
2.790000,-1.316737,-0.056537,-1.738447,2.174638,1.033777,0.096891,2.006405,-3.246764,0.541642,-8.927173,-3.487178,-5.110337,-4.131873,61.271853,-3.403260,-0.329866,-0.213189,0.000000,-0.228777,0.978336,0.000000
2.800000,-1.294890,-0.046362,-1.737451,2.194256,1.001135,0.102051,1.916922,-3.278578,0.490364,-8.952524,-2.876595,-5.132616,-0.863480,60.803894,-0.984473,-0.331837,-0.202857,0.000000,-0.165886,0.974091,0.000000
2.810000,-1.272851,-0.036514,-1.736406,2.212977,0.968205,0.106698,1.827354,-3.304296,0.438990,-8.944443,-2.271100,-5.130026,2.330804,60.046049,1.356600,-0.333187,-0.192584,0.000000,-0.104849,0.966131,0.000000
2.820000,-1.250630,-0.026998,-1.735317,2.230803,0.935049,0.110831,1.738033,-3.324000,0.387763,-8.905908,-1.675674,-5.105484,5.053512,58.907712,3.287265,-0.333937,-0.182410,0.000000,-0.046048,0.954925,0.000000
2.830000,-1.228235,-0.017813,-1.734189,2.247737,0.901725,0.114453,1.649236,-3.337809,0.336880,-8.843373,-1.092946,-5.064281,7.361444,57.597792,4.883907,-0.334110,-0.172369,0.000000,0.010435,0.941295,0.000000
2.840000,-1.205676,-0.008963,-1.733028,2.263787,0.868293,0.117568,1.561166,-3.345859,0.286478,-8.758679,-0.523718,-5.007805,9.749347,56.224796,6.557472,-0.333730,-0.162482,0.000000,0.064601,0.925519,0.000000
2.850000,-1.182960,-0.000447,-1.731838,2.278961,0.834808,0.120183,1.474062,-3.348283,0.236724,-8.648386,0.031550,-4.933132,12.365832,54.724226,8.432812,-0.332820,-0.152777,0.000000,0.116383,0.907294,0.000000
2.860000,-1.160096,0.007733,-1.730624,2.293269,0.801327,0.122303,1.388198,-3.345228,0.187815,-8.511363,0.570766,-4.839149,14.851894,53.061079,10.215270,-0.331405,-0.143282,0.000000,0.165608,0.886579,0.000000
2.870000,-1.137094,0.015579,-1.729392,2.306725,0.767904,0.123939,1.303835,-3.336868,0.139941,-8.351348,1.092771,-4.728826,16.811290,51.429179,11.566625,-0.329510,-0.134024,0.000000,0.212300,0.863850,0.000000
2.880000,-1.113962,0.023091,-1.728145,2.319345,0.734590,0.125102,1.221171,-3.323372,0.093239,-8.175137,1.599350,-4.607817,18.333696,49.877971,12.563010,-0.327160,-0.125021,0.000000,0.256835,0.839889,0.000000
2.890000,-1.090707,0.030271,-1.726890,2.331148,0.701436,0.125804,1.140332,-3.304881,0.047785,-7.984674,2.090331,-4.477566,19.919782,48.169790,13.636865,-0.324375,-0.116284,0.000000,0.299295,0.814925,0.000000
2.900000,-1.067339,0.037120,-1.725629,2.342152,0.668492,0.126057,1.061478,-3.281566,0.003687,-7.776741,2.562746,-4.335079,21.682596,46.218541,14.877994,-0.321176,-0.107825,0.000000,0.339395,0.788647,0.000000
2.910000,-1.043864,0.043641,-1.724369,2.352378,0.635805,0.125877,0.984798,-3.253626,-0.038917,-7.551022,3.014702,-4.180006,23.273261,44.215849,15.989011,-0.317588,-0.099659,0.000000,0.377017,0.761051,0.000000
2.920000,-1.020291,0.049836,-1.723112,2.361848,0.603420,0.125279,0.910457,-3.221272,-0.079913,-7.311276,3.447063,-4.015299,24.413690,42.402708,16.761461,-0.313636,-0.091800,0.000000,0.412382,0.732548,0.000000
2.930000,-0.996627,0.055709,-1.721863,2.370587,0.571379,0.124279,0.838572,-3.184685,-0.119223,-7.062748,3.862756,-3.844777,25.206801,40.749837,17.287104,-0.309341,-0.084255,0.000000,0.445916,0.703678,0.000000
2.940000,-0.972880,0.061264,-1.720626,2.378619,0.539726,0.122895,0.769202,-3.144016,-0.156808,-6.807140,4.262059,-3.669557,26.002887,38.967848,17.828908,-0.304718,-0.077024,0.000000,0.477732,0.674605,0.000000
2.950000,-0.949055,0.066504,-1.719405,2.385971,0.508499,0.121143,0.702429,-3.099444,-0.192614,-6.542690,4.642113,-3.488199,26.868833,36.956526,18.437273,-0.299786,-0.070109,0.000000,0.507588,0.645141,0.000000
2.960000,-0.925160,0.071434,-1.718203,2.392668,0.477737,0.119042,0.638349,-3.051174,-0.226572,-6.269763,5.001190,-3.300812,27.568790,34.935164,18.938418,-0.294566,-0.063517,0.000000,0.535383,0.615312,0.000000
2.970000,-0.901202,0.076058,-1.717024,2.398738,0.447476,0.116612,0.577034,-2.999420,-0.258630,-5.991314,5.340816,-3.109430,27.942786,33.192886,19.212723,-0.289078,-0.057247,0.000000,0.561356,0.585399,0.000000
2.980000,-0.877185,0.080383,-1.715871,2.404209,0.417749,0.113870,0.518522,-2.944358,-0.288761,-5.710908,5.665048,-2.916557,28.067134,31.686386,19.320021,-0.283339,-0.051300,0.000000,0.585984,0.555730,-0.000000
2.990000,-0.853117,0.084413,-1.714747,2.409108,0.388588,0.110836,0.462816,-2.886119,-0.316962,-5.429972,5.974544,-2.723030,28.147614,30.053716,19.417916,-0.277358,-0.045670,0.000000,0.609387,0.526417,-0.000000
3.000000,-0.829003,0.088155,-1.713654,2.413465,0.360026,0.107531,0.409923,-2.824867,-0.343222,-5.147955,6.266122,-2.528199,28.220379,28.194243,19.524427,-0.271151,-0.040352,0.000000,0.631294,0.497377,0.000000
3.010000,-0.804848,0.091614,-1.712596,2.417307,0.332091,0.103972,0.359857,-2.760797,-0.367526,-4.865564,6.538429,-2.332541,28.153360,26.368220,19.541937,-0.264732,-0.035343,0.000000,0.651624,0.468650,0.000000
3.020000,-0.780657,0.094797,-1.711575,2.420662,0.304810,0.100180,0.312612,-2.694098,-0.389872,-4.584888,6.793486,-2.137360,27.869304,24.838170,19.446040,-0.258117,-0.030639,0.000000,0.670618,0.440409,0.000000
3.030000,-0.756435,0.097710,-1.710593,2.423559,0.278209,0.096174,0.268159,-2.624927,-0.410273,-4.308178,7.035192,-1.943621,27.416626,23.536160,19.279275,-0.251319,-0.026232,0.000000,0.688678,0.412839,0.000000
3.040000,-0.732186,0.100361,-1.709651,2.426025,0.252312,0.091975,0.226448,-2.553395,-0.428745,-4.036556,7.264210,-1.751775,26.901106,22.131683,19.077427,-0.244343,-0.022113,0.000000,0.705893,0.386016,0.000000
3.050000,-0.707914,0.102756,-1.708753,2.428088,0.227141,0.087600,0.187428,-2.479643,-0.445308,-3.770156,7.477826,-1.562072,26.338918,20.551820,18.824295,-0.237200,-0.018274,0.000000,0.722034,0.359922,0.000000
3.060000,-0.683624,0.104904,-1.707899,2.429774,0.202719,0.083068,0.151045,-2.403838,-0.459986,-3.509777,7.675246,-1.375289,25.668612,19.025785,18.507491,-0.229901,-0.014706,0.000000,0.737053,0.334604,0.000000
3.070000,-0.659319,0.106811,-1.707092,2.431109,0.179064,0.078400,0.117232,-2.326138,-0.472814,-3.256784,7.858341,-1.191922,24.868275,17.733865,18.187435,-0.222458,-0.011400,0.000000,0.751138,0.310165,0.000000
3.080000,-0.635002,0.108485,-1.706331,2.432118,0.156196,0.073612,0.085909,-2.246671,-0.483825,-3.012412,8.029923,-1.011540,23.965907,16.605858,17.881874,-0.214877,-0.008346,0.000000,0.764540,0.286694,0.000000
3.090000,-0.610677,0.109935,-1.705620,2.432827,0.134131,0.068723,0.056984,-2.165539,-0.493045,-2.777466,8.190459,-0.834285,22.999712,15.414607,17.517176,-0.207166,-0.005531,0.000000,0.777310,0.264243,-0.000000
3.100000,-0.586345,0.111168,-1.704957,2.433258,0.112885,0.063751,0.030360,-2.082862,-0.500510,-2.552418,8.338215,-0.661196,21.978016,14.130801,17.057745,-0.199330,-0.002945,0.000000,0.789303,0.242836,0.000000
3.110000,-0.562011,0.112192,-1.704345,2.433434,0.092474,0.058713,0.005936,-1.998775,-0.506269,-2.337905,8.473075,-0.493130,20.885868,12.905589,16.564397,-0.191379,-0.000575,0.000000,0.800517,0.222513,0.000000
3.120000,-0.537677,0.113017,-1.703783,2.433377,0.072910,0.053626,-0.016398,-1.913401,-0.510373,-2.134700,8.596327,-0.329909,19.720954,11.801158,16.138754,-0.183319,0.001589,0.000000,0.811055,0.203327,0.000000
3.130000,-0.513344,0.113651,-1.703272,2.433106,0.054206,0.048506,-0.036758,-1.826848,-0.512867,-1.943486,8.709098,-0.170355,18.496149,10.764851,15.771467,-0.175156,0.003561,0.000000,0.820992,0.185329,0.000000
3.140000,-0.489015,0.114101,-1.702813,2.432642,0.036373,0.043369,-0.055268,-1.739219,-0.513780,-1.764777,8.811624,-0.014479,17.227777,9.720511,15.336776,-0.166898,0.005353,0.000000,0.830340,0.168555,0.000000
3.150000,-0.464691,0.114378,-1.702405,2.432001,0.019421,0.038230,-0.072054,-1.650616,-0.513156,-1.598931,8.903508,0.136381,15.925557,8.664960,14.809006,-0.158549,0.006980,0.000000,0.839068,0.153029,0.000000
3.160000,-0.440375,0.114490,-1.702048,2.431201,0.003361,0.033105,-0.087247,-1.561148,-0.511052,-1.446266,8.984923,0.281701,14.589099,7.644033,14.280160,-0.150115,0.008453,0.000000,0.847182,0.138770,0.000000
3.170000,-0.416067,0.114445,-1.701743,2.430256,-0.011802,0.028009,-0.100979,-1.470917,-0.507522,-1.307149,9.056389,0.421984,13.214497,6.662023,13.816937,-0.141604,0.009787,0.000000,0.854702,0.125808,-0.000000
3.180000,-0.391770,0.114254,-1.701488,2.429181,-0.026058,0.022955,-0.113389,-1.380021,-0.502613,-1.181976,9.118164,0.558040,11.812053,5.693244,13.396862,-0.133020,0.010995,0.000000,0.861624,0.114178,0.000000
3.190000,-0.367483,0.113924,-1.701283,2.427988,-0.039402,0.017957,-0.124619,-1.288554,-0.496362,-1.070908,9.170253,0.689921,10.401346,4.731646,12.941830,-0.124371,0.012091,0.000000,0.867926,0.103893,-0.000000
3.200000,-0.343210,0.113466,-1.701129,2.426689,-0.051829,0.013028,-0.134808,-1.196616,-0.488814,-0.973949,9.212797,0.816876,8.976055,3.824143,12.425029,-0.115661,0.013089,0.000000,0.873611,0.094952,0.000000
3.210000,-0.318950,0.112887,-1.701023,2.425292,-0.063334,0.008180,-0.144098,-1.104298,-0.480024,-0.891387,9.246736,0.938422,7.534966,2.966042,11.904209,-0.106898,0.014003,0.000000,0.878751,0.087384,-0.000000
3.220000,-0.294704,0.112199,-1.700965,2.423807,-0.073915,0.003427,-0.152635,-1.011681,-0.470046,-0.823250,9.272118,1.054960,6.123758,2.017551,11.460269,-0.098085,0.014847,0.000000,0.883322,0.081196,-0.000000
3.230000,-0.270473,0.111409,-1.700954,2.422239,-0.083568,-0.001220,-0.160563,-0.918856,-0.458925,-0.768911,9.287087,1.167627,4.757139,0.969333,11.084069,-0.089231,0.015635,0.000000,0.887110,0.076332,0.000000
3.240000,-0.246259,0.110528,-1.700990,2.420595,-0.092292,-0.005751,-0.168014,-0.825939,-0.446693,-0.728107,9.291504,1.276642,3.385377,0.009975,10.671630,-0.080343,0.016379,0.000000,0.890079,0.072772,0.000000
3.250000,-0.222062,0.109563,-1.701069,2.418879,-0.100087,-0.010154,-0.175125,-0.733026,-0.433392,-0.701204,9.287287,1.381060,1.977650,-0.820729,10.174346,-0.071429,0.017095,0.000000,0.892400,0.070558,0.000000
3.260000,-0.197882,0.108526,-1.701193,2.417093,-0.106952,-0.014419,-0.182038,-0.640193,-0.419072,-0.688554,9.275090,1.480129,0.580398,-1.654316,9.667154,-0.062494,0.017794,0.000000,0.894117,0.069730,-0.000000
3.270000,-0.173720,0.107424,-1.701358,2.415238,-0.112891,-0.018536,-0.188896,-0.547524,-0.403790,-0.689596,9.254201,1.574403,-0.707381,-2.567501,9.278553,-0.053546,0.018492,0.000000,0.895131,0.070242,-0.000000
3.280000,-0.149577,0.106268,-1.701563,2.413315,-0.117903,-0.022495,-0.195830,-0.455109,-0.387584,-0.702702,9.223740,1.665700,-1.887418,-3.515883,8.987416,-0.044591,0.019201,0.000000,0.895326,0.071947,-0.000000
3.290000,-0.125453,0.105066,-1.701808,2.411322,-0.121993,-0.026287,-0.202950,-0.363049,-0.370476,-0.727344,9.183883,1.754151,-3.080475,-4.406672,8.623746,-0.035639,0.019933,0.000000,0.894701,0.074803,0.000000
3.300000,-0.101350,0.103828,-1.702089,2.409256,-0.125164,-0.029904,-0.210376,-0.271432,-0.352501,-0.764311,9.135606,1.838175,-4.318624,-5.248043,8.173993,-0.026697,0.020698,0.000000,0.893337,0.078891,0.000000
3.310000,-0.077268,0.102563,-1.702406,2.407114,-0.127421,-0.033337,-0.218236,-0.180337,-0.333712,-0.813717,9.078922,1.917631,-5.510323,-6.099819,7.751329,-0.017772,0.021511,0.000000,0.891213,0.084234,-0.000000
3.320000,-0.053208,0.101280,-1.702756,2.404891,-0.128771,-0.036579,-0.226651,-0.089853,-0.314149,-0.874518,9.013610,1.993201,-6.566753,-6.934772,7.364328,-0.008873,0.022383,0.000000,0.888286,0.090738,0.000000
3.330000,-0.029170,0.099988,-1.703137,2.402581,-0.129218,-0.039620,-0.235727,-0.000065,-0.293848,-0.945052,8.940227,2.064918,-7.507532,-7.732761,6.970195,-0.000006,0.023326,0.000000,0.884592,0.098248,0.000000
3.340000,-0.005156,0.098695,-1.703548,2.400177,-0.128772,-0.042456,-0.245552,0.088951,-0.272850,-1.024668,8.858955,2.132605,-8.438529,-8.535020,6.565157,0.008819,0.024349,0.000000,0.880130,0.106708,-0.000000
3.350000,0.018833,0.097412,-1.703986,2.397670,-0.127439,-0.045077,-0.256220,0.177114,-0.251196,-1.113822,8.769526,2.196221,-9.390293,-9.330486,6.167214,0.017596,0.025461,0.000000,0.874855,0.116170,0.000000
3.360000,0.042797,0.096147,-1.704450,2.395052,-0.125230,-0.047480,-0.267828,0.264342,-0.228926,-1.212474,8.672345,2.255950,-10.284266,-10.091112,5.774072,0.026316,0.026673,0.000000,0.868789,0.126639,0.000000
3.370000,0.066734,0.094907,-1.704936,2.392314,-0.122153,-0.049656,-0.280469,0.350561,-0.206077,-1.319508,8.567704,2.311702,-11.031422,-10.864770,5.343718,0.034972,0.027995,0.000000,0.861944,0.138009,-0.000000
3.380000,0.090643,0.093703,-1.705443,2.389443,-0.118218,-0.051601,-0.294218,0.435696,-0.182692,-1.433103,8.455050,2.362824,-11.650232,-11.659533,4.871466,0.043555,0.029435,0.000000,0.854247,0.150104,0.000000
3.390000,0.114523,0.092543,-1.705968,2.386429,-0.113439,-0.053310,-0.309131,0.519662,-0.158820,-1.552512,8.334513,2.409131,-12.250781,-12.406307,4.412886,0.052057,0.031000,0.000000,0.845689,0.162853,0.000000
3.400000,0.138372,0.091435,-1.706509,2.383260,-0.107825,-0.054777,-0.325269,0.602386,-0.134509,-1.678118,8.206923,2.451082,-12.853746,-13.117714,3.990125,0.060469,0.032697,0.000000,0.836338,0.176298,0.000000
3.410000,0.162188,0.090387,-1.707064,2.379924,-0.101391,-0.056000,-0.342694,0.683801,-0.109799,-1.809587,8.072159,2.488934,-13.380785,-13.837966,3.562551,0.068783,0.034533,0.000000,0.826167,0.190411,-0.000000
3.420000,0.185970,0.089407,-1.707629,2.376406,-0.094149,-0.056973,-0.361460,0.763829,-0.084730,-1.945734,7.930164,2.522333,-13.778850,-14.508405,3.075041,0.076992,0.036514,0.000000,0.815154,0.205072,-0.000000
3.430000,0.209716,0.088504,-1.708203,2.372695,-0.086114,-0.057695,-0.381608,0.842404,-0.059352,-2.085164,7.781991,2.550435,-14.068099,-15.111400,2.536257,0.085086,0.038647,0.000000,0.803380,0.220139,0.000000
3.440000,0.233424,0.087685,-1.708783,2.368774,-0.077301,-0.058160,-0.403164,0.919469,-0.033722,-2.227096,7.627936,2.573058,-14.312081,-15.730057,2.018057,0.093059,0.040934,0.000000,0.790857,0.235531,0.000000
3.450000,0.257092,0.086958,-1.709366,2.364631,-0.067725,-0.058369,-0.426150,0.994963,-0.007891,-2.371406,7.467390,2.590796,-14.536556,-16.366714,1.545984,0.100903,0.043378,0.000000,0.777512,0.251233,0.000000
3.460000,0.280717,0.086330,-1.709950,2.360251,-0.057402,-0.058318,-0.450592,1.068817,0.018094,-2.517827,7.300602,2.603977,-14.695754,-16.964373,1.069992,0.108609,0.045984,0.000000,0.763359,0.267218,-0.000000
3.470000,0.304297,0.085810,-1.710533,2.355619,-0.046349,-0.058007,-0.476507,1.140975,0.044189,-2.665321,7.128102,2.612196,-14.715037,-17.539866,0.526474,0.116169,0.048755,0.000000,0.748434,0.283373,-0.000000
3.480000,0.327829,0.085403,-1.711110,2.350721,-0.034582,-0.057435,-0.503898,1.211379,0.070338,-2.812128,6.949804,2.614507,-14.603949,-18.113542,-0.071094,0.123577,0.051691,0.000000,0.732703,0.299508,-0.000000
3.490000,0.351311,0.085118,-1.711681,2.345541,-0.022121,-0.056600,-0.532749,1.279971,0.096479,-2.957400,6.765831,2.610774,-14.460938,-18.656361,-0.638081,0.130823,0.054791,0.000000,0.716162,0.315527,0.000000
3.500000,0.374740,0.084961,-1.712242,2.340066,-0.008983,-0.055505,-0.563046,1.346696,0.122554,-3.101347,6.576677,2.601745,-14.315199,-19.162338,-1.152168,0.137899,0.058056,0.000000,0.698856,0.331443,-0.000000
3.510000,0.398113,0.084938,-1.712791,2.334281,0.004813,-0.054149,-0.594776,1.411504,0.148514,-3.243704,6.382585,2.587731,-14.098907,-19.651390,-1.669895,0.144799,0.061484,0.000000,0.680803,0.347222,0.000000
3.520000,0.421426,0.085057,-1.713325,2.328171,0.019247,-0.052535,-0.627920,1.474347,0.174308,-3.383325,6.183649,2.568347,-13.743628,-20.125218,-2.240521,0.151515,0.065074,0.000000,0.661999,0.362732,-0.000000
3.530000,0.444676,0.085323,-1.713842,2.321722,0.034300,-0.050663,-0.662443,1.535177,0.199881,-3.518577,5.980080,2.542920,-13.266235,-20.577194,-2.845501,0.158039,0.068823,0.000000,0.642447,0.377787,0.000000
3.540000,0.467860,0.085743,-1.714339,2.314922,0.049951,-0.048537,-0.698292,1.593949,0.225167,-3.648649,5.772106,2.511437,-12.757790,-21.005722,-3.418677,0.164363,0.072725,0.000000,0.622159,0.392289,-0.000000
3.550000,0.490974,0.086322,-1.714813,2.307756,0.066179,-0.046160,-0.735416,1.650619,0.250109,-3.773732,5.559966,2.474547,-12.262605,-21.405054,-3.946589,0.170481,0.076776,0.000000,0.601165,0.406243,-0.000000
3.560000,0.514015,0.087067,-1.715262,2.300213,0.082963,-0.043535,-0.773767,1.705148,0.274658,-3.893901,5.344004,2.432506,-11.718855,-21.775793,-4.471124,0.176386,0.080970,0.000000,0.579500,0.419646,-0.000000
3.570000,0.536979,0.087981,-1.715684,2.292281,0.100282,-0.040667,-0.813294,1.757499,0.298759,-4.008109,5.124450,2.385124,-11.013692,-22.135745,-5.017910,0.182071,0.085301,0.000000,0.557181,0.432369,0.000000
3.580000,0.559861,0.089072,-1.716075,2.283948,0.118113,-0.037560,-0.853929,1.807637,0.322360,-4.114175,4.901290,2.332147,-10.159189,-22.489486,-5.570313,0.187529,0.089762,0.000000,0.534205,0.444171,0.000000
3.590000,0.582658,0.090344,-1.716435,2.275202,0.136435,-0.034219,-0.895577,1.855525,0.345402,-4.211293,4.674660,2.273718,-9.312080,-22.810050,-6.092183,0.192754,0.094343,0.000000,0.510591,0.454949,0.000000
3.600000,0.605365,0.091801,-1.716760,2.266036,0.155224,-0.030652,-0.938155,1.901130,0.367834,-4.300417,4.445089,2.210304,-8.545155,-23.059202,-6.582276,0.197740,0.099033,0.000000,0.486403,0.464790,0.000000
3.610000,0.627978,0.093448,-1.717048,2.256439,0.174457,-0.026863,-0.981586,1.944427,0.389608,-4.382196,4.213476,2.142072,-7.753190,-23.256822,-7.060598,0.202481,0.103823,0.000000,0.461739,0.473744,0.000000
3.620000,0.650494,0.095290,-1.717297,2.246404,0.194112,-0.022859,-1.025799,1.985400,0.410676,-4.455481,3.979952,2.069092,-6.763446,-23.504265,-7.520316,0.206974,0.108705,0.000000,0.436623,0.481679,0.000000
3.630000,0.672906,0.097330,-1.717505,2.235923,0.214165,-0.018649,-1.070695,2.024026,0.430990,-4.517465,3.743391,1.991666,-5.615546,-23.788592,-7.949458,0.211213,0.113667,0.000000,0.410963,0.488293,0.000000
3.640000,0.695212,0.099573,-1.717670,2.224990,0.234593,-0.014240,-1.116148,2.060268,0.450509,-4.567792,3.504180,1.910103,-4.546582,-23.971161,-8.354338,0.215193,0.118693,0.000000,0.384819,0.493539,0.000000
3.650000,0.717406,0.102022,-1.717790,2.213600,0.255370,-0.009639,-1.162051,2.094110,0.469192,-4.608397,3.263968,1.824579,-3.550521,-24.098011,-8.746727,0.218909,0.123770,0.000000,0.358368,0.497607,0.000000
3.660000,0.739484,0.104681,-1.717863,2.201749,0.276475,-0.004856,-1.208316,2.125547,0.487001,-4.638802,3.022220,1.735168,-2.479112,-24.255148,-9.117235,0.222360,0.128887,0.000000,0.331575,0.500437,0.000000
3.670000,0.761441,0.107552,-1.717887,2.189434,0.297881,0.000101,-1.254827,2.154554,0.503896,-4.657979,2.778865,1.642235,-1.407551,-24.274763,-9.427739,0.225540,0.134031,0.000000,0.304458,0.501919,0.000000
3.680000,0.783273,0.110638,-1.717861,2.176653,0.319566,0.005222,-1.301475,2.181124,0.519845,-4.666953,2.536725,1.546613,-0.401587,-24.115712,-9.672404,0.228449,0.139186,0.000000,0.277336,0.502164,-0.000000
3.690000,0.804974,0.113943,-1.717782,2.163405,0.341504,0.010498,-1.348166,2.205289,0.534828,-4.666011,2.296551,1.448786,0.644140,-24.014901,-9.899333,0.231087,0.144341,0.000000,0.250313,0.501204,0.000000
3.700000,0.826541,0.117468,-1.717651,2.149689,0.363672,0.015919,-1.394796,2.227055,0.548821,-4.654070,2.056427,1.348627,1.769106,-24.019875,-10.147298,0.233455,0.149483,0.000000,0.223212,0.498923,-0.000000
3.710000,0.847968,0.121217,-1.717464,2.135509,0.386045,0.021474,-1.441248,2.246417,0.561800,-4.630629,1.816153,1.245841,2.888878,-23.966516,-10.377867,0.235551,0.154597,0.000000,0.196027,0.495265,0.000000
3.720000,0.869251,0.125189,-1.717221,2.120864,0.408600,0.027155,-1.487408,2.263379,0.573738,-4.596293,1.577096,1.141069,3.915331,-23.781863,-10.481938,0.237375,0.159669,0.000000,0.168926,0.490303,0.000000
3.730000,0.890385,0.129389,-1.716921,2.105760,0.431313,0.032949,-1.533174,2.277959,0.584622,-4.552322,1.340516,1.036202,4.868456,-23.523692,-10.462260,0.238929,0.164686,0.000000,0.142096,0.484201,-0.000000
3.740000,0.911366,0.133816,-1.716562,2.090201,0.454159,0.038847,-1.578455,2.290189,0.594462,-4.498924,1.106623,0.931824,5.851445,-23.278253,-10.464425,0.240217,0.169636,0.000000,0.115587,0.476999,0.000000
3.750000,0.932189,0.138472,-1.716144,2.074191,0.477116,0.044838,-1.623152,2.300091,0.603258,-4.435293,0.874951,0.826913,6.868956,-23.030916,-10.537032,0.241241,0.174507,0.000000,0.089347,0.468605,0.000000
3.760000,0.952850,0.143358,-1.715665,2.057738,0.500161,0.050912,-1.667160,2.307688,0.611000,-4.361544,0.646004,0.721083,7.845027,-22.728458,-10.578178,0.242004,0.179287,0.000000,0.063433,0.459031,-0.000000
3.770000,0.973344,0.148475,-1.715126,2.040848,0.523270,0.057058,-1.710383,2.313012,0.617680,-4.278393,0.420382,0.615350,8.763064,-22.413485,-10.473694,0.242510,0.183963,0.000000,0.037938,0.448380,0.000000
3.780000,0.993667,0.153823,-1.714524,2.023530,0.546421,0.063266,-1.752728,2.316095,0.623307,-4.186283,0.197735,0.511610,9.638279,-22.104946,-10.254148,0.242763,0.188524,0.000000,0.012885,0.436744,0.000000
3.790000,1.013815,0.159403,-1.713860,2.005794,0.569592,0.069524,-1.794109,2.316966,0.627912,-4.085627,-0.021717,0.410267,10.479747,-21.742775,-10.069246,0.242768,0.192961,0.000000,-0.011685,0.424188,0.000000
3.800000,1.033783,0.165215,-1.713134,1.987648,0.592761,0.075824,-1.834441,2.315661,0.631513,-3.976688,-0.237121,0.310225,11.324845,-21.339844,-9.940807,0.242530,0.197264,0.000000,-0.035707,0.410732,0.000000
3.810000,1.053568,0.171259,-1.712344,1.969105,0.615905,0.082155,-1.873642,2.312224,0.634117,-3.859130,-0.448514,0.211451,12.159120,-20.937742,-9.770006,0.242054,0.201423,0.000000,-0.059177,0.396355,0.000000
3.820000,1.073165,0.177533,-1.711491,1.950175,0.639005,0.088506,-1.911623,2.306691,0.635742,-3.733506,-0.655876,0.114825,12.853801,-20.482150,-9.518222,0.241346,0.205429,0.000000,-0.082067,0.381144,0.000000
3.830000,1.092571,0.184039,-1.710574,1.930872,0.662039,0.094870,-1.948312,2.299106,0.636413,-3.602054,-0.858157,0.021086,13.400815,-19.958314,-9.222024,0.240413,0.209273,0.000000,-0.104262,0.365356,-0.000000
3.840000,1.111782,0.190774,-1.709593,1.911209,0.684987,0.101235,-1.983665,2.289528,0.636163,-3.465490,-1.055042,-0.069616,13.971213,-19.447530,-8.929916,0.239261,0.212952,0.000000,-0.125730,0.349081,0.000000
3.850000,1.130795,0.197738,-1.708549,1.891199,0.707830,0.107593,-2.017622,2.278005,0.635021,-3.322630,-1.247108,-0.157512,14.612193,-18.957935,-8.637157,0.237899,0.216460,0.000000,-0.146528,0.332207,0.000000
3.860000,1.149606,0.204931,-1.707441,1.870857,0.730547,0.113935,-2.050117,2.264586,0.633013,-3.173246,-1.434201,-0.242359,15.201970,-18.436566,-8.316519,0.236331,0.219789,0.000000,-0.166635,0.314729,0.000000
3.870000,1.168213,0.212349,-1.706270,1.850197,0.753121,0.120253,-2.081087,2.249321,0.630174,-3.018590,-1.615839,-0.323843,15.634000,-17.889313,-7.987085,0.234566,0.222934,0.000000,-0.186004,0.296792,0.000000
3.880000,1.186610,0.219993,-1.705036,1.829235,0.775534,0.126539,-2.110489,2.232269,0.626536,-2.860566,-1.791987,-0.402101,15.943315,-17.337749,-7.663311,0.232611,0.225892,0.000000,-0.204649,0.278596,-0.000000
3.890000,1.204797,0.227860,-1.703740,1.807987,0.797767,0.132784,-2.138298,2.213482,0.622132,-2.699724,-1.962594,-0.477109,16.264015,-16.772492,-7.321498,0.230473,0.228660,0.000000,-0.222573,0.260207,0.000000
3.900000,1.222770,0.235948,-1.702381,1.786469,0.819803,0.138981,-2.164483,2.193017,0.616994,-2.535285,-2.127437,-0.548531,16.619962,-16.187258,-6.951459,0.228160,0.231237,0.000000,-0.239746,0.241561,0.000000
3.910000,1.240527,0.244256,-1.700960,1.764697,0.841627,0.145124,-2.189004,2.170933,0.611161,-2.367325,-2.286339,-0.616138,16.920074,-15.592244,-6.574196,0.225679,0.233620,0.000000,-0.256153,0.222680,0.000000
3.920000,1.258064,0.252781,-1.699478,1.742689,0.863222,0.151204,-2.211830,2.147290,0.604671,-2.196884,-2.439282,-0.680015,17.108054,-15.001973,-6.218203,0.223037,0.235807,0.000000,-0.271807,0.203673,-0.000000
3.930000,1.275380,0.261521,-1.697936,1.720461,0.884573,0.157217,-2.232942,2.122147,0.597561,-2.025164,-2.586379,-0.740502,17.213026,-14.416273,-5.881640,0.220243,0.237797,0.000000,-0.286740,0.184658,0.000000
3.940000,1.292473,0.270472,-1.696334,1.698030,0.905665,0.163156,-2.252333,2.095562,0.589861,-1.852623,-2.727607,-0.797647,17.305655,-13.819471,-5.531411,0.217302,0.239592,0.000000,-0.300962,0.165683,0.000000
3.950000,1.309341,0.279634,-1.694673,1.675414,0.926484,0.169014,-2.269994,2.067595,0.581608,-1.679051,-2.862768,-0.851130,17.397762,-13.205812,-5.154401,0.214224,0.241191,0.000000,-0.314452,0.146739,0.000000
3.960000,1.325982,0.289002,-1.692954,1.652630,0.947017,0.174788,-2.285914,2.038307,0.572839,-1.504668,-2.991723,-0.900736,17.443447,-12.588793,-4.777029,0.211014,0.242595,0.000000,-0.327201,0.127854,0.000000
3.970000,1.342394,0.298574,-1.691177,1.629696,0.967250,0.180471,-2.300088,2.007761,0.563593,-1.330182,-3.114544,-0.946671,17.415062,-11.988214,-4.439298,0.207680,0.243806,0.000000,-0.339232,0.109096,0.000000
3.980000,1.358576,0.308347,-1.689344,1.606628,0.987172,0.186060,-2.312518,1.976016,0.553905,-1.156367,-3.231488,-0.989521,17.328674,-11.402660,-4.137347,0.204229,0.244826,0.000000,-0.350595,0.090529,0.000000
3.990000,1.374526,0.318318,-1.687456,1.583445,1.006771,0.191549,-2.323215,1.943131,0.543803,-0.983608,-3.342597,-1.029418,17.221269,-10.808957,-3.821667,0.200668,0.245656,0.000000,-0.361306,0.072188,0.000000
4.000000,1.390244,0.328483,-1.685513,1.560164,1.026035,0.196936,-2.332190,1.909164,0.533317,-0.811941,-3.447667,-1.065955,17.099512,-10.200808,-3.476935,0.197003,0.246299,0.000000,-0.371342,0.054084,0.000000
4.010000,1.405729,0.338838,-1.683517,1.536802,1.044954,0.202216,-2.339454,1.874178,0.522484,-0.641618,-3.546613,-1.098956,16.941106,-9.596278,-3.139665,0.193241,0.246759,0.000000,-0.380699,0.036247,-0.000000
4.020000,1.420980,0.349382,-1.681469,1.513375,1.063518,0.207385,-2.345022,1.838232,0.511338,-0.473119,-3.639592,-1.128748,16.734073,-9.014504,-2.851332,0.189389,0.247038,0.000000,-0.389409,0.018715,0.000000
4.030000,1.435997,0.360109,-1.679369,1.489901,1.081718,0.212442,-2.348916,1.801386,0.499909,-0.306937,-3.726903,-1.155983,16.488161,-8.451934,-2.602974,0.185453,0.247140,0.000000,-0.397521,0.001517,0.000000
4.040000,1.450778,0.371016,-1.677220,1.466397,1.099546,0.217384,-2.351161,1.763694,0.488218,-0.143356,-3.808631,-1.180808,16.221604,-7.886094,-2.342759,0.181438,0.247069,0.000000,-0.405052,-0.015324,0.000000
4.050000,1.465325,0.382100,-1.675022,1.442878,1.116992,0.222207,-2.351783,1.725213,0.476292,0.017495,-3.884625,-1.202838,15.934856,-7.311733,-2.061186,0.177352,0.246829,0.000000,-0.411984,-0.031789,0.000000
4.060000,1.479636,0.393356,-1.672776,1.419361,1.134050,0.226909,-2.350811,1.686001,0.464161,0.175341,-3.954866,-1.222031,15.618969,-6.745818,-1.794681,0.173199,0.246423,0.000000,-0.418320,-0.047851,0.000000
4.070000,1.493712,0.404781,-1.670484,1.395862,1.150712,0.231490,-2.348277,1.646116,0.451852,0.329875,-4.019542,-1.238732,15.279903,-6.204225,-1.566532,0.168985,0.245857,0.000000,-0.424089,-0.063493,0.000000
4.080000,1.507553,0.416370,-1.668146,1.372395,1.166973,0.235946,-2.344214,1.605611,0.439387,0.480939,-4.078950,-1.253362,14.923822,-5.683349,-1.366668,0.164717,0.245135,0.000000,-0.429331,-0.078711,-0.000000
4.090000,1.521160,0.428120,-1.665765,1.348977,1.182825,0.240278,-2.338658,1.564537,0.426785,0.628351,-4.133209,-1.266065,14.545677,-5.164478,-1.167078,0.160399,0.244262,0.000000,-0.434063,-0.093496,0.000000
4.100000,1.534533,0.440027,-1.663341,1.325622,1.198263,0.244482,-2.331647,1.522946,0.414065,0.771853,-4.182240,-1.276704,14.142680,-4.642125,-0.958152,0.156035,0.243241,0.000000,-0.438277,-0.107819,-0.000000
4.110000,1.547672,0.452085,-1.660875,1.302344,1.213284,0.248559,-2.323221,1.480892,0.401251,0.911205,-4.226051,-1.285228,13.721663,-4.130294,-0.759463,0.151633,0.242079,0.000000,-0.441975,-0.121660,0.000000
4.120000,1.560580,0.464292,-1.658369,1.279158,1.227881,0.252507,-2.313423,1.438425,0.388361,1.046286,-4.264846,-1.291893,13.294636,-3.645344,-0.598240,0.147196,0.240780,0.000000,-0.445181,-0.135015,0.000000
4.130000,1.573256,0.476643,-1.655825,1.256076,1.242052,0.256326,-2.302295,1.395595,0.375413,1.177098,-4.298958,-1.297193,12.862597,-3.184305,-0.469405,0.142729,0.239349,0.000000,-0.447938,-0.147899,0.000000
4.140000,1.585701,0.489133,-1.653243,1.233112,1.255793,0.260015,-2.289881,1.352446,0.362417,1.303538,-4.328532,-1.301281,12.413318,-2.726988,-0.337243,0.138237,0.237792,0.000000,-0.450260,-0.160308,0.000000
4.150000,1.597918,0.501759,-1.650625,1.210278,1.269101,0.263575,-2.276224,1.309025,0.349387,1.425364,-4.353498,-1.303938,11.942272,-2.268129,-0.194283,0.133724,0.236112,0.000000,-0.452138,-0.172214,-0.000000
4.160000,1.609907,0.514515,-1.647971,1.187587,1.281973,0.267003,-2.261373,1.265376,0.336338,1.542383,-4.373894,-1.305167,11.460855,-1.822303,-0.064571,0.129194,0.234316,0.000000,-0.453575,-0.183601,0.000000
4.170000,1.621670,0.527398,-1.645285,1.165051,1.294409,0.270301,-2.245377,1.221547,0.323284,1.654581,-4.389944,-1.305229,10.986087,-1.403589,0.036194,0.124652,0.232409,0.000000,-0.454595,-0.194474,0.000000
4.180000,1.633208,0.540403,-1.642565,1.142680,1.306404,0.273469,-2.228282,1.177577,0.310234,1.762105,-4.401966,-1.304443,10.517529,-1.008189,0.116497,0.120102,0.230397,0.000000,-0.455232,-0.204858,-0.000000
4.190000,1.644523,0.553526,-1.639815,1.120485,1.317960,0.276506,-2.210134,1.133507,0.297195,1.864932,-4.410108,-1.302899,10.035999,-0.618603,0.196493,0.115548,0.228283,0.000000,-0.455500,-0.214754,0.000000
4.200000,1.655618,0.566763,-1.637035,1.098477,1.329075,0.279413,-2.190983,1.089375,0.284176,1.962825,-4.414338,-1.300513,9.534852,-0.231252,0.275753,0.110992,0.226073,0.000000,-0.455394,-0.224136,0.000000
4.210000,1.666493,0.580108,-1.634227,1.076666,1.339748,0.282189,-2.170878,1.045221,0.271185,2.055629,-4.414733,-1.297384,9.029879,0.141629,0.341824,0.106440,0.223772,0.000000,-0.454920,-0.232993,0.000000
4.220000,1.677151,0.593558,-1.631391,1.055060,1.349979,0.284836,-2.149871,1.001081,0.258228,2.143423,-4.411506,-1.293676,8.542440,0.490935,0.398661,0.101894,0.221386,0.000000,-0.454098,-0.241337,0.000000
4.230000,1.687594,0.607107,-1.628530,1.033668,1.359769,0.287354,-2.128010,0.956990,0.245311,2.226477,-4.404914,-1.289411,8.070087,0.820154,0.451246,0.097358,0.218920,0.000000,-0.452952,-0.249195,0.000000
4.240000,1.697824,0.620753,-1.625644,1.012500,1.369119,0.289743,-2.105341,0.912982,0.232440,2.304824,-4.395102,-1.284651,7.587539,1.140577,0.494179,0.092835,0.216379,0.000000,-0.451496,-0.256572,-0.000000
4.250000,1.707844,0.634490,-1.622735,0.991561,1.378029,0.292003,-2.081913,0.869088,0.219618,2.378228,-4.382102,-1.279528,7.089315,1.454961,0.527855,0.088328,0.213767,0.000000,-0.449730,-0.263449,0.000000
4.260000,1.717655,0.648314,-1.619804,0.970861,1.386501,0.294135,-2.057776,0.825340,0.206849,2.446611,-4.366003,-1.274094,6.594604,1.755570,0.556832,0.083840,0.211089,0.000000,-0.447663,-0.269818,-0.000000
4.270000,1.727261,0.662220,-1.616853,0.950406,1.394536,0.296140,-2.032981,0.781768,0.194136,2.510120,-4.346991,-1.268391,6.119697,2.035183,0.578781,0.079374,0.208351,0.000000,-0.445312,-0.275694,-0.000000
4.280000,1.736664,0.676204,-1.613882,0.930202,1.402136,0.298018,-2.007574,0.738400,0.181481,2.569005,-4.325300,-1.262519,5.660388,2.296022,0.592828,0.074934,0.205558,0.000000,-0.442697,-0.281105,0.000000
4.290000,1.745865,0.690263,-1.610892,0.910254,1.409304,0.299769,-1.981601,0.695262,0.168886,2.623328,-4.301071,-1.256534,5.197986,2.547495,0.603674,0.070521,0.202713,0.000000,-0.439831,-0.286058,0.000000
4.300000,1.754869,0.704390,-1.607886,0.890570,1.416041,0.301395,-1.955107,0.652379,0.156351,2.672964,-4.274350,-1.250445,4.727872,2.792097,0.611141,0.066137,0.199822,0.000000,-0.436718,-0.290540,-0.000000
4.310000,1.763677,0.718583,-1.604864,0.871152,1.422351,0.302896,-1.928141,0.609775,0.143877,2.717886,-4.245229,-1.244312,4.264273,3.023556,0.612938,0.061786,0.196890,0.000000,-0.433364,-0.294549,0.000000
4.320000,1.772292,0.732837,-1.601828,0.852007,1.428237,0.304273,-1.900750,0.567474,0.131464,2.758250,-4.213879,-1.238186,3.821901,3.236041,0.613041,0.057470,0.193920,0.000000,-0.429787,-0.298101,0.000000
4.330000,1.780717,0.747148,-1.598779,0.833137,1.433701,0.305526,-1.872976,0.525498,0.119113,2.794324,-4.180508,-1.232051,3.397791,3.431513,0.613257,0.053190,0.190918,0.000000,-0.426005,-0.301223,-0.000000
4.340000,1.788954,0.761511,-1.595718,0.814547,1.438747,0.306655,-1.844863,0.483864,0.106823,2.826206,-4.145248,-1.225921,2.974469,3.617835,0.608977,0.048950,0.187887,0.000000,-0.422029,-0.303923,0.000000
4.350000,1.797008,0.775923,-1.592646,0.796240,1.443378,0.307662,-1.816452,0.442593,0.094595,2.853813,-4.108151,-1.219871,2.547723,3.797147,0.598528,0.044750,0.184832,0.000000,-0.417865,-0.306196,0.000000
4.360000,1.804879,0.790379,-1.589564,0.778218,1.447598,0.308547,-1.787787,0.401701,0.082426,2.877160,-4.069305,-1.213951,2.130567,3.964404,0.585987,0.040593,0.181757,0.000000,-0.413521,-0.308042,0.000000
4.370000,1.812572,0.804875,-1.586475,0.760484,1.451412,0.309311,-1.758909,0.361207,0.070316,2.896424,-4.028863,-1.208151,1.735352,4.115015,0.576519,0.036480,0.178666,0.000000,-0.409011,-0.309479,-0.000000
4.380000,1.820089,0.819407,-1.583378,0.743040,1.454823,0.309953,-1.729859,0.321124,0.058263,2.911867,-3.987005,-1.202420,1.359080,4.250723,0.569682,0.032412,0.175563,0.000000,-0.404352,-0.310533,-0.000000
4.390000,1.827433,0.833971,-1.580276,0.725887,1.457834,0.310476,-1.700672,0.281467,0.046267,2.923606,-3.943849,-1.196758,0.986952,4.377986,0.559672,0.028393,0.172452,0.000000,-0.399556,-0.311214,0.000000
4.400000,1.834607,0.848564,-1.577169,0.709027,1.460452,0.310879,-1.671386,0.242247,0.034328,2.931606,-3.899445,-1.191227,0.615393,4.498644,0.544821,0.024421,0.169337,0.000000,-0.394627,-0.311520,0.000000
4.410000,1.841613,0.863180,-1.574058,0.692459,1.462679,0.311163,-1.642040,0.203478,0.022443,2.935914,-3.853876,-1.185861,0.255221,4.608753,0.529809,0.020500,0.166220,0.000000,-0.389574,-0.311457,-0.000000
4.420000,1.848456,0.877817,-1.570945,0.676186,1.464522,0.311328,-1.612668,0.165170,0.010611,2.936710,-3.807270,-1.180631,-0.083285,4.704724,0.520184,0.016630,0.163106,0.000000,-0.384411,-0.311042,0.000000
4.430000,1.855137,0.892471,-1.567832,0.660206,1.465983,0.311375,-1.583305,0.127332,-0.001170,2.934248,-3.759781,-1.175458,-0.402730,4.788096,0.515244,0.012812,0.159998,0.000000,-0.379151,-0.310299,-0.000000
4.440000,1.861660,0.907137,-1.564718,0.644520,1.467068,0.311304,-1.553983,0.089974,-0.012899,2.928656,-3.711508,-1.170326,-0.715658,4.864207,0.508510,0.009047,0.156900,0.000000,-0.373806,-0.309242,0.000000
4.450000,1.868027,0.921812,-1.561606,0.629126,1.467782,0.311117,-1.524732,0.053102,-0.024576,2.919935,-3.662497,-1.165288,-1.025223,4.934540,0.498129,0.005336,0.153813,0.000000,-0.368381,-0.307871,0.000000
4.460000,1.874242,0.936493,-1.558496,0.614025,1.468130,0.310813,-1.495584,0.016724,-0.036204,2.908151,-3.612818,-1.160363,-1.322434,4.996048,0.489125,0.001679,0.150742,0.000000,-0.362883,-0.306193,0.000000
4.470000,1.880308,0.951175,-1.555389,0.599215,1.468117,0.310393,-1.466569,-0.019154,-0.047784,2.893486,-3.562576,-1.155505,-1.598618,5.046284,0.487142,-0.001922,0.147689,0.000000,-0.357323,-0.304228,0.000000
4.480000,1.886227,0.965855,-1.552288,0.584694,1.467747,0.309857,-1.437715,-0.054528,-0.059314,2.876179,-3.511892,-1.150620,-1.856038,5.086632,0.491218,-0.005467,0.144658,0.000000,-0.351715,-0.301997,0.000000
4.490000,1.892002,0.980530,-1.549192,0.570460,1.467026,0.309206,-1.409046,-0.089392,-0.070796,2.856365,-3.460844,-1.145681,-2.105540,5.121067,0.494609,-0.008956,0.141649,0.000000,-0.346068,-0.299514,0.000000
4.500000,1.897636,0.995196,-1.546104,0.556513,1.465959,0.308441,-1.380587,-0.123744,-0.082228,2.834068,-3.409471,-1.140728,-2.349966,5.150647,0.495435,-0.012389,0.138667,0.000000,-0.340385,-0.296784,0.000000
4.510000,1.903132,1.009849,-1.543023,0.542849,1.464551,0.307562,-1.352364,-0.157581,-0.093611,2.809366,-3.357831,-1.135772,-2.581702,5.173344,0.498731,-0.015764,0.135713,0.000000,-0.334675,-0.293815,0.000000
4.520000,1.908493,1.024487,-1.539952,0.529465,1.462808,0.306569,-1.324400,-0.190901,-0.104943,2.782434,-3.306004,-1.130754,-2.793416,5.187966,0.509971,-0.019082,0.132790,0.000000,-0.328946,-0.290625,0.000000
4.530000,1.913721,1.039105,-1.536892,0.516361,1.460733,0.305463,-1.296716,-0.223702,-0.116226,2.753498,-3.254071,-1.125573,-2.987162,5.195715,0.528071,-0.022343,0.129900,0.000000,-0.323207,-0.287235,0.000000
4.540000,1.918820,1.053701,-1.533843,0.503531,1.458334,0.304244,-1.269330,-0.255982,-0.127455,2.722691,-3.202089,-1.120192,-3.172343,5.198987,0.546316,-0.025546,0.127044,0.000000,-0.317466,-0.283659,-0.000000
4.550000,1.923792,1.068272,-1.530807,0.490974,1.455614,0.302914,-1.242262,-0.287743,-0.138630,2.690051,-3.150092,-1.114646,-3.351553,5.198280,0.562847,-0.028692,0.124225,0.000000,-0.311727,-0.279903,0.000000
4.560000,1.928640,1.082814,-1.527785,0.478686,1.452579,0.301472,-1.215529,-0.318984,-0.149748,2.655660,-3.098124,-1.108935,-3.518368,5.192702,0.582532,-0.031781,0.121444,0.000000,-0.305996,-0.275976,0.000000
4.570000,1.933366,1.097323,-1.524778,0.466663,1.449234,0.299919,-1.189149,-0.349706,-0.160808,2.619684,-3.046238,-1.102996,-3.666440,5.182599,0.610461,-0.034812,0.118702,0.000000,-0.300279,-0.271894,0.000000
4.580000,1.937973,1.111798,-1.521786,0.454903,1.445585,0.298256,-1.163135,-0.379909,-0.171808,2.582331,-2.994472,-1.096726,-3.797589,5.169043,0.645590,-0.037786,0.116002,0.000000,-0.294582,-0.267678,0.000000
4.590000,1.942464,1.126235,-1.518813,0.443401,1.441636,0.296483,-1.137502,-0.409595,-0.182743,2.543732,-2.942857,-1.090084,-3.920225,5.152408,0.681491,-0.040704,0.113345,0.000000,-0.288910,-0.263342,-0.000000
4.600000,1.946841,1.140631,-1.515857,0.432153,1.437393,0.294601,-1.112261,-0.438766,-0.193609,2.503927,-2.891424,-1.083096,-4.037098,5.131722,0.715574,-0.043565,0.110731,0.000000,-0.283266,-0.258891,-0.000000
4.610000,1.951107,1.154983,-1.512921,0.421155,1.432860,0.292611,-1.087424,-0.467424,-0.204405,2.462990,-2.840222,-1.075772,-4.142627,5.107579,0.752440,-0.046369,0.108162,0.000000,-0.277657,-0.254334,0.000000
4.620000,1.955264,1.169288,-1.510005,0.410404,1.428044,0.290513,-1.063001,-0.495571,-0.215125,2.421074,-2.789272,-1.068047,-4.230309,5.084243,0.798997,-0.049118,0.105639,0.000000,-0.272086,-0.249685,0.000000
4.630000,1.959315,1.183544,-1.507110,0.399895,1.422949,0.288308,-1.039002,-0.523209,-0.225766,2.378384,-2.738537,-1.059792,-4.301934,5.062304,0.854075,-0.051811,0.103162,0.000000,-0.266551,-0.244965,-0.000000
4.640000,1.963262,1.197747,-1.504238,0.389624,1.417580,0.285997,-1.015433,-0.550341,-0.236321,2.335035,-2.688026,-1.050966,-4.366413,5.036855,0.908573,-0.054449,0.100733,0.000000,-0.261055,-0.240187,-0.000000
4.650000,1.967107,1.211895,-1.501390,0.379587,1.411942,0.283582,-0.992301,-0.576970,-0.246785,2.291055,-2.637800,-1.041621,-4.425649,5.007010,0.960613,-0.057032,0.098351,0.000000,-0.255604,-0.235353,-0.000000
4.660000,1.970854,1.225986,-1.498567,0.369778,1.406041,0.281062,-0.969612,-0.603097,-0.257153,2.246522,-2.587886,-1.031754,-4.473960,4.976796,1.016352,-0.059561,0.096018,0.000000,-0.250203,-0.230473,0.000000
4.670000,1.974503,1.240016,-1.495769,0.360195,1.399880,0.278439,-0.947371,-0.628727,-0.267420,2.201576,-2.538264,-1.021294,-4.507909,4.949137,1.079689,-0.062036,0.093734,0.000000,-0.244851,-0.225562,0.000000
4.680000,1.978058,1.253984,-1.492998,0.350831,1.393466,0.275713,-0.925581,-0.653863,-0.277579,2.156364,-2.488903,-1.010160,-4.529662,4.923395,1.148634,-0.064458,0.091498,0.000000,-0.239545,-0.220632,-0.000000
4.690000,1.981520,1.267886,-1.490255,0.341683,1.386803,0.272887,-0.904244,-0.678505,-0.287623,2.110983,-2.439796,-0.998321,-4.544070,4.896677,1.218169,-0.066827,0.089312,0.000000,-0.234287,-0.215695,0.000000
4.700000,1.984891,1.281720,-1.487540,0.332746,1.379896,0.269961,-0.883361,-0.702659,-0.297545,2.065483,-2.390970,-0.985797,-4.552009,4.867788,1.287136,-0.069144,0.087175,0.000000,-0.229080,-0.210756,0.000000
4.710000,1.988175,1.295484,-1.484856,0.324016,1.372750,0.266936,-0.862934,-0.726325,-0.307339,2.019943,-2.342441,-0.972579,-4.550753,4.839318,1.358752,-0.071409,0.085087,0.000000,-0.223927,-0.205824,0.000000
4.720000,1.991372,1.309175,-1.482202,0.315487,1.365370,0.263814,-0.842962,-0.749507,-0.316997,1.974468,-2.294183,-0.958621,-4.539076,4.815837,1.435700,-0.073622,0.083048,0.000000,-0.218825,-0.200909,0.000000
4.730000,1.994484,1.322791,-1.479579,0.307156,1.357760,0.260596,-0.823445,-0.772209,-0.326512,1.929161,-2.246124,-0.943865,-4.518158,4.797384,1.517048,-0.075785,0.081058,0.000000,-0.213770,-0.196021,0.000000
4.740000,1.997515,1.336330,-1.476990,0.299018,1.349925,0.257284,-0.804379,-0.794430,-0.335874,1.884105,-2.198235,-0.928281,-4.490224,4.778501,1.599004,-0.077898,0.079116,0.000000,-0.208758,-0.191169,-0.000000
4.750000,2.000465,1.349789,-1.474434,0.291069,1.341871,0.253879,-0.785763,-0.816173,-0.345077,1.839357,-2.150554,-0.911884,-4.456674,4.756300,1.679258,-0.079961,0.077222,0.000000,-0.203795,-0.186358,0.000000
4.760000,2.003336,1.363167,-1.471912,0.283303,1.333602,0.250382,-0.767592,-0.837441,-0.354112,1.794971,-2.103109,-0.894695,-4.416521,4.735118,1.760232,-0.081974,0.075377,0.000000,-0.198884,-0.181596,0.000000
4.770000,2.006131,1.376461,-1.469426,0.275717,1.325122,0.246796,-0.749863,-0.858235,-0.362971,1.751026,-2.055852,-0.876680,-4.367047,4.723430,1.847583,-0.083938,0.073578,0.000000,-0.194020,-0.176888,0.000000
4.780000,2.008850,1.389670,-1.466976,0.268306,1.316437,0.243123,-0.732571,-0.878558,-0.371646,1.707630,-2.008641,-0.857744,-4.308928,4.720563,1.940470,-0.085854,0.071826,0.000000,-0.189191,-0.172246,0.000000
4.790000,2.011497,1.402790,-1.464564,0.261066,1.307551,0.239364,-0.715710,-0.898408,-0.380126,1.664848,-1.961440,-0.837870,-4.246636,4.715627,2.030893,-0.087722,0.070121,0.000000,-0.184393,-0.167676,0.000000
4.800000,2.014072,1.415821,-1.462189,0.253992,1.298469,0.235520,-0.699274,-0.917787,-0.388403,1.622698,-1.914328,-0.817126,-4.181129,4.706217,2.117568,-0.089542,0.068460,0.000000,-0.179636,-0.163180,0.000000
4.810000,2.016577,1.428760,-1.459853,0.247080,1.289195,0.231595,-0.683257,-0.936695,-0.396468,1.581225,-1.867316,-0.795519,-4.110021,4.700113,2.205481,-0.091315,0.066844,0.000000,-0.174919,-0.158763,-0.000000
4.820000,2.019013,1.441605,-1.457557,0.240327,1.279735,0.227591,-0.667650,-0.955133,-0.404313,1.540497,-1.820326,-0.773016,-4.032774,4.703023,2.295932,-0.093041,0.065271,0.000000,-0.170236,-0.154431,0.000000
4.830000,2.021383,1.454354,-1.455301,0.233727,1.270093,0.223509,-0.652447,-0.973101,-0.411929,1.500570,-1.773255,-0.749600,-3.950822,4.712827,2.386809,-0.094720,0.063742,0.000000,-0.165577,-0.150189,0.000000
4.840000,2.023688,1.467007,-1.453087,0.227278,1.260273,0.219352,-0.637638,-0.990598,-0.419305,1.461481,-1.726070,-0.725280,-3.865542,4.722474,2.476269,-0.096352,0.062254,0.000000,-0.160939,-0.146041,-0.000000
4.850000,2.025929,1.479560,-1.450914,0.220974,1.250281,0.215123,-0.623217,-1.007623,-0.426434,1.423259,-1.678806,-0.700075,-3.776507,4.729830,2.564536,-0.097939,0.060807,0.000000,-0.156325,-0.141990,0.000000
4.860000,2.028107,1.492012,-1.448784,0.214813,1.240121,0.210824,-0.609173,-1.024174,-0.433307,1.385951,-1.631473,-0.673989,-3.683557,4.739845,2.652235,-0.099479,0.059400,0.000000,-0.151736,-0.138040,0.000000
4.870000,2.030225,1.504362,-1.446698,0.208791,1.229797,0.206457,-0.595498,-1.040252,-0.439914,1.349588,-1.584009,-0.647030,-3.589326,4.758356,2.738125,-0.100973,0.058033,0.000000,-0.147166,-0.134193,-0.000000
4.880000,2.032283,1.516608,-1.444655,0.202903,1.219316,0.202025,-0.582182,-1.055855,-0.446248,1.314164,-1.536306,-0.619227,-3.494614,4.784132,2.821585,-0.102422,0.056703,0.000000,-0.142605,-0.130450,0.000000
4.890000,2.034283,1.528748,-1.442657,0.197147,1.208680,0.197532,-0.569215,-1.070978,-0.452299,1.279695,-1.488326,-0.590599,-3.396643,4.809523,2.903712,-0.103826,0.055410,0.000000,-0.138047,-0.126812,0.000000
4.900000,2.036226,1.540782,-1.440705,0.191519,1.197896,0.192979,-0.556588,-1.085621,-0.458060,1.246231,-1.440115,-0.561153,-3.294464,4.832116,2.984512,-0.105183,0.054153,0.000000,-0.133498,-0.123283,0.000000
4.910000,2.038113,1.552706,-1.438798,0.186016,1.186968,0.188371,-0.544290,-1.099781,-0.463522,1.213806,-1.391684,-0.530908,-3.190675,4.857138,3.062760,-0.106496,0.052930,0.000000,-0.128958,-0.119866,0.000000
4.920000,2.039946,1.564521,-1.436937,0.180633,1.175900,0.183709,-0.532312,-1.113455,-0.468678,1.182418,-1.342973,-0.499897,-3.088703,4.890322,3.137408,-0.107763,0.051742,0.000000,-0.124421,-0.116560,0.000000
4.930000,2.041726,1.576224,-1.435124,0.175369,1.164699,0.178997,-0.520642,-1.126640,-0.473520,1.152032,-1.293878,-0.468160,-2.987997,4.929551,3.202362,-0.108984,0.050586,0.000000,-0.119875,-0.113363,0.000000
4.940000,2.043454,1.587815,-1.433357,0.170220,1.153368,0.174239,-0.509271,-1.139332,-0.478041,1.122658,-1.244382,-0.435850,-2.884945,4.967312,3.259970,-0.110160,0.049461,0.000000,-0.115317,-0.110275,0.000000
4.950000,2.045131,1.599292,-1.431639,0.165184,1.141912,0.169436,-0.498189,-1.151528,-0.482237,1.094333,-1.194531,-0.402961,-2.781336,5.005912,3.355345,-0.111291,0.048367,0.000000,-0.110751,-0.107300,-0.000000
4.960000,2.046757,1.610653,-1.429968,0.160257,1.130337,0.164594,-0.487384,-1.163223,-0.486100,1.067031,-1.144263,-0.368743,-2.680011,5.049952,3.483046,-0.112375,0.047301,0.000000,-0.106179,-0.104431,0.000000
4.970000,2.048336,1.621898,-1.428347,0.155436,1.118648,0.159714,-0.476848,-1.174413,-0.489612,1.040733,-1.093532,-0.333300,-2.571990,5.045374,3.510122,-0.113414,0.046265,0.000000,-0.101594,-0.101667,0.000000
4.980000,2.049866,1.633026,-1.426774,0.150720,1.106849,0.154802,-0.466570,-1.185094,-0.492766,1.015591,-1.043356,-0.298541,-2.376659,4.186177,3.390204,-0.114407,0.045255,0.000000,-0.097073,-0.099031,0.000000
4.990000,2.051350,1.644035,-1.425251,0.146105,1.094946,0.149859,-0.456536,-1.195280,-0.495582,0.993200,-1.009809,-0.265496,-2.128778,2.761642,3.318892,-0.115356,0.044271,0.000000,-0.094141,-0.096678,0.000000
5.000000,2.052788,1.654925,-1.423777,0.141589,1.082943,0.144890,-0.446706,-1.205290,-0.498076,0.973016,-0.988123,-0.232163,-2.419230,6.705408,3.638434,-0.116290,0.043308,0.000000,-0.092360,-0.094548,0.000000
5.010000,2.054182,1.665694,-1.422353,0.137171,1.070840,0.139898,-0.437076,-1.215043,-0.500226,0.944815,-0.875701,-0.192727,-3.180605,15.374057,4.193931,-0.117203,0.042367,0.000000,-0.081982,-0.091632,0.000000
5.020000,2.055532,1.676342,-1.420979,0.132847,1.058642,0.134885,-0.427809,-1.222804,-0.501931,0.909404,-0.680642,-0.148284,-2.745131,11.985399,4.064704,-0.117930,0.041463,0.000000,-0.063785,-0.088018,0.000000
5.030000,2.056839,1.686867,-1.419655,0.128615,1.046384,0.129859,-0.418888,-1.228655,-0.503191,0.889913,-0.635993,-0.111433,-1.489999,0.229251,3.567573,-0.118479,0.040594,0.000000,-0.059901,-0.085978,0.000000
5.040000,2.058104,1.697270,-1.418382,0.124470,1.034069,0.124822,-0.410011,-1.235524,-0.504159,0.879604,-0.676057,-0.076933,-1.623034,2.339611,3.896595,-0.119128,0.039731,0.000000,-0.064090,-0.084837,0.000000
5.050000,2.059328,1.707549,-1.417159,0.120414,1.021673,0.119776,-0.401296,-1.242177,-0.504730,0.857452,-0.589201,-0.033501,-0.396425,-8.684478,3.047430,-0.119761,0.038885,0.000000,-0.056263,-0.082534,0.000000
5.060000,2.060512,1.717703,-1.415986,0.116444,1.009226,0.114727,-0.392862,-1.247308,-0.504829,0.871675,-0.849746,-0.015984,3.427250,-45.363095,0.394548,-0.120253,0.038069,0.000000,-0.081335,-0.083834,0.000000
5.070000,2.061657,1.727733,-1.414864,0.112557,0.996727,0.109679,-0.383862,-1.259171,-0.505050,0.925997,-1.496462,-0.025610,1.423625,-24.785740,1.969268,-0.121387,0.037197,0.000000,-0.142953,-0.089079,0.000000
5.080000,2.062763,1.737638,-1.413793,0.108767,0.984042,0.104626,-0.374342,-1.277237,-0.505341,0.900148,-1.345461,0.023401,-6.404416,53.209929,7.688115,-0.123112,0.036274,0.000000,-0.129043,-0.086407,0.000000
5.090000,2.063832,1.747414,-1.412772,0.105070,0.971182,0.099572,-0.365859,-1.286081,-0.504582,0.797909,-0.432264,0.128152,-8.475424,74.596289,9.273759,-0.123968,0.035455,0.000000,-0.043100,-0.076230,0.000000
5.100000,2.064865,1.757061,-1.411801,0.101449,0.958321,0.094534,-0.358384,-1.285882,-0.502778,0.730639,0.146465,0.208876,-8.924957,79.549294,9.599624,-0.123974,0.034737,0.000000,0.011193,-0.069522,0.000000
5.110000,2.065861,1.766580,-1.410881,0.097903,0.945465,0.089517,-0.351246,-1.283151,-0.500404,0.619409,1.158722,0.320145,-15.098000,140.433756,13.913910,-0.123744,0.034054,0.000000,0.106558,-0.058499,-0.000000
5.120000,2.066823,1.775971,-1.410011,0.094424,0.932658,0.084526,-0.345996,-1.262708,-0.496375,0.428679,2.955140,0.487154,-12.088364,112.001378,11.819126,-0.121842,0.033558,0.000000,0.276471,-0.039665,0.000000
5.130000,2.067750,1.785233,-1.409191,0.090983,0.920211,0.079589,-0.342673,-1.224049,-0.490661,0.377642,3.398750,0.556527,2.862094,-32.976759,1.237488,-0.118213,0.033255,0.000000,0.318722,-0.034583,-0.000000
5.140000,2.068643,1.794375,-1.408419,0.087571,0.908177,0.074713,-0.338443,-1.194733,-0.485245,0.485921,2.295604,0.511904,8.679505,-89.081565,-3.103204,-0.115468,0.032862,0.000000,0.214037,-0.045212,0.000000
5.150000,2.069501,1.803397,-1.407696,0.084214,0.896316,0.069884,-0.332954,-1.178137,-0.480423,0.551232,1.617118,0.494463,5.939515,-61.413774,-0.834380,-0.113933,0.032344,0.000000,0.149418,-0.051622,0.000000
5.160000,2.070327,1.812301,-1.407022,0.080912,0.884614,0.065105,-0.327418,-1.162390,-0.475356,0.604711,1.067329,0.495217,8.693212,-86.998793,-1.844218,-0.112480,0.031823,0.000000,0.096839,-0.056841,0.000000
5.170000,2.071120,1.821089,-1.406394,0.077665,0.873068,0.060377,-0.320860,-1.156790,-0.470519,0.725097,-0.122858,0.457579,9.268645,-92.444123,-2.983002,-0.111997,0.031200,0.000000,-0.016978,-0.068642,0.000000
5.180000,2.071880,1.829762,-1.405814,0.074495,0.861478,0.055694,-0.312916,-1.164847,-0.466204,0.790084,-0.781553,0.435557,1.939481,-21.917192,-0.152397,-0.112820,0.030441,0.000000,-0.080055,-0.075044,0.000000
5.190000,2.072609,1.838319,-1.405280,0.071407,0.849771,0.051053,-0.305059,-1.172421,-0.461808,0.763886,-0.561201,0.454531,-1.492837,11.441750,1.420593,-0.113598,0.029690,0.000000,-0.059137,-0.072518,0.000000
5.200000,2.073308,1.846758,-1.404793,0.068394,0.838030,0.046458,-0.297639,-1.176072,-0.457114,0.760227,-0.552718,0.463968,3.705729,-38.673863,-2.349373,-0.114003,0.028981,0.000000,-0.058460,-0.072202,-0.000000
5.210000,2.073977,1.855079,-1.404351,0.065454,0.826250,0.041911,-0.289854,-1.183475,-0.452528,0.838001,-1.334679,0.407543,9.053493,-90.834617,-7.465848,-0.114768,0.028236,0.000000,-0.133073,-0.079941,0.000000
5.220000,2.074617,1.863283,-1.403955,0.062596,0.814360,0.037408,-0.280879,-1.202765,-0.448963,0.941297,-2.369411,0.314651,5.430071,-55.232914,-4.575999,-0.116664,0.027372,0.000000,-0.231579,-0.090228,0.000000
5.230000,2.075229,1.871367,-1.403603,0.059837,0.802195,0.032932,-0.271028,-1.230864,-0.446235,0.946602,-2.439337,0.316023,-3.747882,35.312087,4.740858,-0.119399,0.026420,0.000000,-0.238313,-0.090766,-0.000000
5.240000,2.075814,1.879327,-1.403296,0.057176,0.789743,0.028483,-0.261946,-1.251552,-0.442642,0.866340,-1.663169,0.409469,-6.802975,65.625898,8.067001,-0.121431,0.025544,0.000000,-0.164845,-0.082810,0.000000
5.250000,2.076373,1.887161,-1.403033,0.054598,0.777164,0.024079,-0.253701,-1.264127,-0.438046,0.810543,-1.126819,0.477363,-8.319290,80.171001,8.083985,-0.122696,0.024751,0.000000,-0.114167,-0.077306,0.000000
5.260000,2.076906,1.894870,-1.402814,0.052102,0.764460,0.019722,-0.245736,-1.274088,-0.433095,0.699954,-0.059749,0.571148,-15.536113,150.450317,12.757840,-0.123714,0.023986,0.000000,-0.012767,-0.066446,0.000000
5.270000,2.077415,1.902451,-1.402639,0.049683,0.751682,0.015417,-0.239702,-1.265322,-0.426623,0.499820,1.882187,0.732520,-13.497631,130.850032,11.890871,-0.122950,0.023412,0.000000,0.172209,-0.046769,0.000000
5.280000,2.077900,1.909904,-1.402506,0.047308,0.739154,0.011190,-0.235739,-1.236444,-0.418445,0.430001,2.557252,0.808966,0.549523,-5.817950,2.388515,-0.120268,0.023043,0.000000,0.236819,-0.039905,0.000000
5.290000,2.078361,1.917234,-1.402415,0.044968,0.726953,0.007048,-0.231102,-1.214177,-0.410443,0.510811,1.765828,0.780290,5.543488,-54.395685,-1.113408,-0.118215,0.022608,0.000000,0.161258,-0.047892,-0.000000
5.300000,2.078799,1.924443,-1.402365,0.042686,0.714870,0.002981,-0.225523,-1.201128,-0.402839,0.540871,1.469338,0.786698,2.088926,-20.568843,2.093500,-0.117044,0.022079,0.000000,0.132810,-0.050883,0.000000
5.310000,2.079215,1.931531,-1.402356,0.040458,0.702930,-0.001009,-0.220285,-1.184790,-0.394709,0.552589,1.354452,0.822160,4.277721,-41.631940,2.068985,-0.115558,0.021583,0.000000,0.121576,-0.052037,-0.000000
5.320000,2.079608,1.938501,-1.402385,0.038280,0.691175,-0.004914,-0.214471,-1.174039,-0.386395,0.626425,0.636699,0.828077,4.507808,-43.994564,1.191378,-0.114613,0.021031,0.000000,0.052244,-0.059310,-0.000000
5.330000,2.079980,1.945355,-1.402454,0.036168,0.679450,-0.008737,-0.207756,-1.172056,-0.378148,0.642746,0.474560,0.845988,-2.436621,23.153943,3.123674,-0.114514,0.020389,0.000000,0.036394,-0.060967,-0.000000
5.340000,2.080332,1.952090,-1.402560,0.034125,0.667733,-0.012476,-0.201616,-1.164548,-0.369476,0.577693,1.099778,0.890551,-4.908437,46.986547,3.723916,-0.113884,0.019804,0.000000,0.096622,-0.054640,0.000000
5.350000,2.080663,1.958709,-1.402703,0.032136,0.656159,-0.016126,-0.196202,-1.150061,-0.360337,0.544577,1.414291,0.920466,-1.719069,15.895148,1.806430,-0.112581,0.019289,0.000000,0.127065,-0.051453,0.000000
5.360000,2.080974,1.965214,-1.402883,0.030201,0.644732,-0.019683,-0.190725,-1.136262,-0.351066,0.543312,1.417681,0.926679,-0.926869,7.961154,0.370044,-0.111343,0.018768,0.000000,0.127596,-0.051420,0.000000
5.370000,2.081267,1.971604,-1.403097,0.028322,0.633433,-0.023147,-0.185336,-1.121707,-0.341803,0.526039,1.573514,0.927867,-1.416338,12.549887,0.585714,-0.110029,0.018254,0.000000,0.143029,-0.049829,0.000000
5.380000,2.081541,1.977882,-1.403346,0.026494,0.622298,-0.026519,-0.180204,-1.104792,-0.332509,0.514985,1.668679,0.938394,-0.297090,1.659615,1.423861,-0.108482,0.017765,0.000000,0.152517,-0.048827,0.000000
5.390000,2.081797,1.984050,-1.403627,0.024718,0.611338,-0.029798,-0.175036,-1.088333,-0.323035,0.520098,1.606707,0.956344,0.165414,-2.992394,1.571497,-0.106978,0.017272,0.000000,0.146619,-0.049398,0.000000
5.400000,2.082035,1.990109,-1.403942,0.022993,0.600531,-0.032980,-0.169802,-1.072657,-0.313382,0.518293,1.608831,0.969824,-0.634856,4.473674,1.218470,-0.105550,0.016772,0.000000,0.147012,-0.049301,0.000000
5.410000,2.082257,1.996061,-1.404287,0.021321,0.589884,-0.036065,-0.164671,-1.056157,-0.303639,0.507400,1.696180,0.980714,-1.045189,8.202037,1.200364,-0.104038,0.016281,0.000000,0.155784,-0.048316,-0.000000
5.420000,2.082461,2.001907,-1.404663,0.019700,0.579408,-0.039053,-0.159654,-1.038734,-0.293768,0.497389,1.772872,0.993831,-0.932103,6.828349,1.089246,-0.102434,0.015800,0.000000,0.163528,-0.047412,-0.000000
5.430000,2.082651,2.007649,-1.405068,0.018128,0.569110,-0.041941,-0.154723,-1.020699,-0.283762,0.488758,1.832747,1.002499,-0.873918,5.899172,0.573528,-0.100767,0.015327,0.000000,0.169701,-0.046651,0.000000
5.440000,2.082824,2.013289,-1.405502,0.016606,0.558994,-0.044728,-0.149879,-1.002079,-0.273718,0.479911,1.890855,1.005301,-0.894075,5.755840,0.309832,-0.099040,0.014862,0.000000,0.175785,-0.045875,-0.000000
5.450000,2.082983,2.018829,-1.405963,0.015131,0.549068,-0.047415,-0.145125,-0.982882,-0.263656,0.470877,1.947864,1.008695,-0.912369,5.639951,0.399272,-0.097252,0.014405,0.000000,0.181779,-0.045077,0.000000
5.460000,2.083127,2.024270,-1.406450,0.013703,0.539337,-0.050001,-0.140461,-0.963122,-0.253544,0.461664,2.003654,1.013287,-0.933134,5.515770,0.382100,-0.095404,0.013957,0.000000,0.187668,-0.044259,-0.000000
5.470000,2.083257,2.029615,-1.406963,0.012322,0.529806,-0.052486,-0.135891,-0.942809,-0.243391,0.452214,2.058179,1.016337,-0.956825,5.385644,0.222314,-0.093498,0.013516,0.000000,0.193470,-0.043416,0.000000
5.480000,2.083373,2.034866,-1.407500,0.010985,0.520481,-0.054869,-0.131417,-0.921958,-0.233217,0.442527,2.111367,1.017733,-0.980125,5.246352,0.080039,-0.091535,0.013084,0.000000,0.199179,-0.042550,0.000000
5.490000,2.083476,2.040025,-1.408060,0.009693,0.511367,-0.057150,-0.127041,-0.900582,-0.223036,0.432612,2.163106,1.017938,-1.002847,5.094860,-0.038790,-0.089515,0.012662,0.000000,0.204778,-0.041660,-0.000000
5.500000,2.083567,2.045094,-1.408643,0.008444,0.502469,-0.059330,-0.122765,-0.878696,-0.212858,0.422470,2.213264,1.016957,-1.025040,4.930910,-0.157591,-0.087439,0.012248,0.000000,0.210251,-0.040745,0.000000
5.510000,2.083645,2.050074,-1.409247,0.007238,0.493793,-0.061407,-0.118591,-0.856317,-0.202697,0.412111,2.261724,1.014786,-1.046424,4.756006,-0.274208,-0.085310,0.011844,0.000000,0.215586,-0.039808,-0.000000
5.520000,2.083712,2.054969,-1.409871,0.006073,0.485343,-0.063384,-0.114523,-0.833461,-0.192563,0.401542,2.308384,1.011473,-1.067476,4.570406,-0.383971,-0.083127,0.011449,0.000000,0.220769,-0.038846,0.000000
5.530000,2.083767,2.059781,-1.410514,0.004948,0.477123,-0.065259,-0.110561,-0.810149,-0.182467,0.390761,2.353133,1.007107,-1.088042,4.373041,-0.487396,-0.080894,0.011064,0.000000,0.225787,-0.037862,-0.000000
5.540000,2.083811,2.064512,-1.411176,0.003861,0.469140,-0.067033,-0.106707,-0.786399,-0.172421,0.379781,2.395845,1.001725,-1.106981,4.163011,-0.590120,-0.078612,0.010689,0.000000,0.230626,-0.036854,0.000000
5.550000,2.083844,2.069164,-1.411855,0.002813,0.461395,-0.068707,-0.102965,-0.762232,-0.162433,0.368622,2.436393,0.995305,-1.124320,3.941299,-0.694129,-0.076282,0.010325,0.000000,0.235269,-0.035825,-0.000000
5.560000,2.083867,2.073740,-1.412550,0.001802,0.453895,-0.070282,-0.099335,-0.737671,-0.152515,0.357294,2.474671,0.987843,-1.140533,3.707995,-0.795276,-0.073906,0.009971,0.000000,0.239704,-0.034777,-0.000000
5.570000,2.083880,2.078242,-1.413261,0.000827,0.446642,-0.071757,-0.095819,-0.712739,-0.142676,0.345811,2.510553,0.979399,-1.154651,3.459369,-0.888131,-0.071487,0.009627,0.000000,0.243916,-0.033709,-0.000000
5.580000,2.083883,2.082673,-1.413985,-0.000114,0.439640,-0.073135,-0.092419,-0.687460,-0.132927,0.334201,2.543858,0.970080,-1.166185,3.194580,-0.973518,-0.069028,0.009295,0.000000,0.247884,-0.032624,-0.000000
5.590000,2.083878,2.087035,-1.414723,-0.001022,0.432893,-0.074416,-0.089135,-0.661861,-0.123274,0.322487,2.574444,0.959929,-1.176019,2.918094,-1.058173,-0.066530,0.008973,0.000000,0.251589,-0.031526,0.000000
5.600000,2.083863,2.091331,-1.415474,-0.001897,0.426403,-0.075601,-0.085969,-0.635971,-0.113728,0.310681,2.602220,0.948917,-1.184471,2.632213,-1.144260,-0.063996,0.008663,0.000000,0.255020,-0.030414,0.000000
5.610000,2.083840,2.095563,-1.416235,-0.002741,0.420173,-0.076690,-0.082921,-0.609817,-0.104296,0.298798,2.627089,0.937043,-1.190642,2.333360,-1.227012,-0.061429,0.008364,0.000000,0.258166,-0.029290,-0.000000
5.620000,2.083808,2.099734,-1.417007,-0.003555,0.414207,-0.077687,-0.079993,-0.583429,-0.094987,0.286868,2.648887,0.924376,-1.193160,2.014952,-1.300694,-0.058833,0.008076,0.000000,0.261005,-0.028158,0.000000
5.630000,2.083769,2.103847,-1.417789,-0.004341,0.408505,-0.078590,-0.077184,-0.556839,-0.085809,0.274935,2.667388,0.911030,-1.191993,1.677305,-1.366434,-0.056209,0.007800,0.000000,0.263513,-0.027021,0.000000
5.640000,2.083721,2.107904,-1.418579,-0.005099,0.403070,-0.079403,-0.074494,-0.530081,-0.076767,0.263028,2.682434,0.897048,-1.188601,1.328807,-1.431677,-0.053562,0.007535,0.000000,0.265669,-0.025882,0.000000
5.650000,2.083667,2.111908,-1.419377,-0.005831,0.397903,-0.080126,-0.071923,-0.503191,-0.067868,0.251163,2.693964,0.882396,-1.183182,0.972896,-1.498702,-0.050896,0.007281,0.000000,0.267466,-0.024743,0.000000
5.660000,2.083605,2.115862,-1.420182,-0.006538,0.393006,-0.080760,-0.069471,-0.476202,-0.059119,0.239365,2.701891,0.867074,-1.174434,0.603412,-1.562368,-0.048213,0.007039,0.000000,0.268892,-0.023607,0.000000
5.670000,2.083536,2.119768,-1.420992,-0.007220,0.388379,-0.081308,-0.067136,-0.449153,-0.050526,0.227674,2.706032,0.851149,-1.161484,0.211239,-1.617092,-0.045518,0.006808,0.000000,0.269926,-0.022477,-0.000000
5.680000,2.083460,2.123630,-1.421808,-0.007880,0.384023,-0.081771,-0.064918,-0.422082,-0.042096,0.216135,2.706116,0.834732,-1.144508,-0.202645,-1.664337,-0.042815,0.006589,0.000000,0.270536,-0.021359,-0.000000
5.690000,2.083378,2.127449,-1.422628,-0.008519,0.379937,-0.082150,-0.062813,-0.395030,-0.033831,0.204784,2.701979,0.817862,-1.124218,-0.626265,-1.711479,-0.040107,0.006381,0.000000,0.270704,-0.020256,-0.000000
