time,x,y,z,vx,vy,vz,ax,ay,az,jx,jy,jz,sx,sy,sz,roll,pitch,yaw,p,q,r
0.000000,-2.495945,-2.046737,-1.452190,0.018710,-0.004380,-0.011485,-0.089532,0.119970,0.009068,-4.235453,5.556030,0.503738,23.335731,-27.966804,7.840818,0.012240,0.009135,0.000000,0.567360,0.432549,-0.000000
0.010000,-2.495758,-2.046781,-1.452305,0.017814,-0.003180,-0.011395,-0.131887,0.175530,0.014105,-4.002096,5.276362,0.582147,140.134203,-165.577800,1.723228,0.017915,0.013463,0.000000,0.539374,0.409209,0.000000
0.020000,-2.495589,-2.046800,-1.452418,0.016072,-0.000869,-0.011203,-0.169574,0.225497,0.020711,-1.432769,2.244474,0.538203,243.801424,-260.597933,-3.684286,0.023028,0.017321,0.000000,0.230329,0.147230,-0.000000
0.030000,-2.495437,-2.046798,-1.452529,0.014423,0.001330,-0.010981,-0.160542,0.220420,0.024870,0.873933,0.064403,0.508461,112.503760,-55.521024,6.858732,0.022519,0.016405,0.000000,0.007780,-0.088414,0.000000
0.040000,-2.495300,-2.046774,-1.452637,0.012861,0.003539,-0.010706,-0.152095,0.226785,0.030880,0.817306,1.134053,0.675378,-5.473170,99.784868,14.950614,0.023184,0.015552,0.000000,0.117521,-0.082460,0.000000
0.050000,-2.495179,-2.046727,-1.452743,0.011381,0.005866,-0.010363,-0.144196,0.243101,0.038377,0.764469,2.060101,0.807473,-5.097134,85.982133,11.642323,0.024870,0.014756,0.000000,0.212754,-0.076974,0.000000
0.060000,-2.495073,-2.046656,-1.452845,0.009977,0.008401,-0.009938,-0.136806,0.267987,0.047030,0.715363,2.853696,0.908224,-4.727212,73.271000,8.672529,0.027440,0.014012,0.000000,0.294628,-0.071928,-0.000000
0.070000,-2.494980,-2.046559,-1.452942,0.008645,0.011226,-0.009422,-0.129889,0.300175,0.056542,0.669925,3.525521,0.980924,-4.363924,61.604391,6.022899,0.030764,0.013316,0.000000,0.364209,-0.067303,0.000000
0.080000,-2.494900,-2.046432,-1.453033,0.007379,0.014405,-0.008808,-0.123408,0.338498,0.066648,0.628085,4.085784,1.028682,-4.007807,50.935230,3.675100,0.034725,0.012665,0.000000,0.422493,-0.063078,0.000000
0.090000,-2.494832,-2.046271,-1.453118,0.006177,0.017995,-0.008089,-0.117327,0.381890,0.077115,0.589769,4.544225,1.054426,-3.659381,41.216442,1.610784,0.039214,0.012054,0.000000,0.470414,-0.059235,0.000000
0.100000,-2.494776,-2.046072,-1.453195,0.005033,0.022043,-0.007265,-0.111612,0.429382,0.087737,0.554897,4.910113,1.060898,-3.319164,32.400951,-0.188401,0.044133,0.011480,0.000000,0.508860,-0.055761,0.000000
0.110000,-2.494732,-2.045830,-1.453263,0.003944,0.026583,-0.006335,-0.106229,0.480093,0.098333,0.523386,5.192244,1.050658,-2.987687,24.441675,-1.740770,0.049391,0.010938,0.000000,0.538668,-0.052639,0.000000
0.120000,-2.494697,-2.045540,-1.453321,0.002908,0.031645,-0.005299,-0.101144,0.533227,0.108750,0.495144,5.398946,1.026082,-2.665470,17.291559,-3.064675,0.054907,0.010426,0.000000,0.560639,-0.049856,0.000000
0.130000,-2.494673,-2.045197,-1.453369,0.001921,0.037248,-0.004160,-0.096326,0.588072,0.118855,0.470076,5.538075,0.989364,-2.353039,10.903526,-4.178467,0.060604,0.009939,0.000000,0.575533,-0.047399,0.000000
0.140000,-2.494659,-2.044795,-1.453405,0.000982,0.043406,-0.002921,-0.091743,0.643988,0.128537,0.448083,5.617017,0.942513,-2.050933,5.230422,-5.100410,0.066417,0.009476,0.000000,0.584076,-0.045256,0.000000
0.150000,-2.494654,-2.044329,-1.453427,0.000087,0.050127,-0.001589,-0.087365,0.700412,0.137705,0.429058,5.642684,0.887356,-1.759655,0.225229,-5.848897,0.072285,0.009032,0.000000,0.586956,-0.043414,0.000000
0.160000,-2.494657,-2.043793,-1.453436,-0.000766,0.057414,-0.000167,-0.083162,0.756842,0.146284,0.412890,5.621521,0.825535,-1.479725,-4.159035,-6.442347,0.078156,0.008605,0.000000,0.584824,-0.041859,0.000000
0.170000,-2.494669,-2.043181,-1.453431,-0.001577,0.065264,0.001337,-0.079107,0.812842,0.154216,0.399463,5.559503,0.758509,-1.211851,-7.972327,-6.900578,0.083981,0.008192,0.000000,0.578293,-0.040581,0.000000
0.180000,-2.494689,-2.042488,-1.453410,-0.002348,0.073671,0.002917,-0.075173,0.868032,0.161454,0.388653,5.462075,0.687524,-0.959264,-11.310119,-7.269591,0.089721,0.007791,0.000000,0.567928,-0.039564,0.000000
0.190000,-2.494716,-2.041707,-1.453372,-0.003080,0.082625,0.004566,-0.071334,0.922084,0.167966,0.380278,5.333301,0.613117,-0.721547,-14.202680,-7.558220,0.095339,0.007398,0.000000,0.554156,-0.038790,0.000000
0.200000,-2.494750,-2.040835,-1.453318,-0.003775,0.092113,0.006276,-0.067567,0.974698,0.173717,0.374222,5.178021,0.536359,-0.479082,-16.340253,-7.580510,0.100803,0.007012,0.000000,0.537491,-0.038247,0.000000
0.210000,-2.494792,-2.039865,-1.453247,-0.004431,0.102119,0.008040,-0.063849,1.025644,0.178693,0.370696,5.006496,0.461507,-0.234514,-17.808172,-7.376679,0.106089,0.006629,0.000000,0.519047,-0.037955,0.000000
0.220000,-2.494839,-2.038793,-1.453158,-0.005051,0.112626,0.009850,-0.060153,1.074828,0.182947,0.369531,4.821858,0.388826,-0.046199,-19.678244,-7.551546,0.111184,0.006248,0.000000,0.499170,-0.037895,0.000000
0.230000,-2.494893,-2.037613,-1.453050,-0.005635,0.123615,0.011699,-0.056459,1.122081,0.186470,0.369772,4.612931,0.310476,0.084731,-22.043111,-8.147135,0.116072,0.005867,0.000000,0.476639,-0.037976,0.000000
0.240000,-2.494952,-2.036320,-1.452924,-0.006181,0.135067,0.013580,-0.052758,1.167087,0.189156,0.371226,4.380996,0.225883,0.237941,-23.519991,-8.364101,0.120717,0.005484,0.000000,0.451587,-0.038176,0.000000
0.250000,-2.495016,-2.034911,-1.452778,-0.006690,0.146957,0.015482,-0.049034,1.209701,0.190988,0.374531,4.142531,0.143194,0.417833,-23.807290,-8.038781,0.125103,0.005098,0.000000,0.425818,-0.038556,0.000000
0.260000,-2.495086,-2.033381,-1.452614,-0.007161,0.159261,0.017399,-0.045267,1.249937,0.192020,0.379583,3.904850,0.065107,0.570902,-23.916556,-7.739731,0.129233,0.004706,0.000000,0.400136,-0.039104,-0.000000
0.270000,-2.495159,-2.031726,-1.452430,-0.007595,0.171956,0.019323,-0.041442,1.287798,0.192290,0.385949,3.664200,-0.011600,0.702629,-24.540634,-7.804457,0.133106,0.004309,0.000000,0.374135,-0.039778,0.000000
0.280000,-2.495237,-2.029942,-1.452227,-0.007990,0.185017,0.021245,-0.037548,1.323221,0.191788,0.393635,3.414037,-0.090982,0.832441,-25.404257,-8.064892,0.136715,0.003904,0.000000,0.347104,-0.040580,0.000000
0.290000,-2.495319,-2.028026,-1.452005,-0.008346,0.198420,0.023158,-0.033570,1.356079,0.190470,0.402598,3.156115,-0.172898,0.948620,-25.703655,-8.122699,0.140048,0.003490,0.000000,0.319235,-0.041504,-0.000000
0.300000,-2.495404,-2.025974,-1.451764,-0.008662,0.212139,0.025054,-0.029496,1.386344,0.188330,0.412608,2.899964,-0.253436,1.047637,-25.306968,-7.908324,0.143100,0.003066,0.000000,0.291568,-0.042524,-0.000000
0.310000,-2.495492,-2.023783,-1.451504,-0.008936,0.226147,0.026925,-0.025318,1.414078,0.185401,0.423551,2.649975,-0.331065,1.138756,-24.794268,-7.697912,0.145879,0.002631,0.000000,0.264584,-0.043629,0.000000
0.320000,-2.495583,-2.021451,-1.451226,-0.009168,0.240420,0.028762,-0.021025,1.439343,0.181709,0.435383,2.404079,-0.407394,1.223302,-24.585378,-7.698798,0.148392,0.002184,0.000000,0.238058,-0.044813,0.000000
0.330000,-2.495676,-2.018975,-1.450929,-0.009356,0.254934,0.030559,-0.016610,1.462160,0.177253,0.448017,2.158268,-0.485041,1.298305,-24.528300,-7.829827,0.150640,0.001724,0.000000,0.211550,-0.046069,0.000000
0.340000,-2.495770,-2.016352,-1.450615,-0.009500,0.269664,0.032308,-0.012065,1.482509,0.172008,0.461349,1.913513,-0.563991,1.363594,-24.135490,-7.835347,0.152623,0.001252,0.000000,0.185165,-0.047384,0.000000
0.350000,-2.495866,-2.013581,-1.450283,-0.009598,0.284584,0.033999,-0.007383,1.500430,0.165974,0.475288,1.675558,-0.641748,1.420867,-23.321484,-7.677241,0.154344,0.000766,0.000000,0.159532,-0.048748,0.000000
0.360000,-2.495962,-2.010660,-1.449935,-0.009648,0.299672,0.035627,-0.002559,1.516020,0.159173,0.489766,1.447083,-0.717535,1.470571,-22.441175,-7.529452,0.155814,0.000265,0.000000,0.134937,-0.050153,0.000000
0.370000,-2.496059,-2.007588,-1.449570,-0.009649,0.314905,0.037183,0.002412,1.529372,0.151623,0.504700,1.226734,-0.792337,1.510270,-21.764619,-7.486393,0.157043,-0.000250,0.000000,0.111231,-0.051592,0.000000
0.380000,-2.496155,-2.004362,-1.449191,-0.009600,0.330260,0.038659,0.007535,1.540554,0.143327,0.519972,1.011790,-0.867263,1.540051,-21.201629,-7.490731,0.158039,-0.000779,0.000000,0.088125,-0.053051,0.000000
0.390000,-2.496251,-2.000983,-1.448797,-0.009498,0.345716,0.040049,0.012812,1.549608,0.134278,0.535501,0.802702,-0.942151,1.564084,-20.438135,-7.427878,0.158805,-0.001324,0.000000,0.065670,-0.054521,0.000000
0.400000,-2.496345,-1.997448,-1.448390,-0.009343,0.361252,0.041345,0.018245,1.556608,0.124484,0.551253,0.603028,-1.015821,1.583950,-19.415179,-7.294538,0.159352,-0.001884,0.000000,0.044245,-0.055999,0.000000
0.410000,-2.496438,-1.993758,-1.447970,-0.009133,0.376848,0.042539,0.023837,1.561668,0.113961,0.567180,0.414398,-1.088042,1.597329,-18.362879,-7.164741,0.159691,-0.002458,0.000000,0.024019,-0.057479,0.000000
0.420000,-2.496528,-1.989911,-1.447539,-0.008867,0.392485,0.043624,0.029589,1.564896,0.102723,0.583200,0.235770,-1.159116,1.601873,-17.465920,-7.043165,0.159833,-0.003048,0.000000,0.004882,-0.058953,0.000000
0.430000,-2.496615,-1.985908,-1.447098,-0.008542,0.408146,0.044594,0.035501,1.566384,0.090779,0.599217,0.065080,-1.228905,1.598778,-16.667492,-6.900268,0.159788,-0.003653,0.000000,-0.013370,-0.060411,0.000000
0.440000,-2.496699,-1.981748,-1.446647,-0.008157,0.423813,0.045440,0.041573,1.566198,0.078145,0.615175,-0.097580,-1.297121,1.591915,-15.751675,-6.734087,0.159566,-0.004272,0.000000,-0.030724,-0.061846,-0.000000
0.450000,-2.496778,-1.977432,-1.446189,-0.007710,0.439470,0.046156,0.047804,1.564432,0.064837,0.631056,-0.249954,-1.363587,1.582085,-14.674286,-6.563786,0.159174,-0.004905,0.000000,-0.046952,-0.063258,0.000000
0.460000,-2.496853,-1.972959,-1.445724,-0.007200,0.455102,0.046737,0.054194,1.561199,0.050873,0.646817,-0.391065,-1.428397,1.567339,-13.593973,-6.386184,0.158627,-0.005553,0.000000,-0.061958,-0.064641,0.000000
0.470000,-2.496922,-1.968330,-1.445254,-0.006626,0.470694,0.047174,0.060741,1.556611,0.036269,0.662402,-0.521833,-1.491311,1.547267,-12.646451,-6.150956,0.157935,-0.006215,0.000000,-0.075834,-0.065991,0.000000
0.480000,-2.496985,-1.963545,-1.444781,-0.005986,0.486234,0.047462,0.067442,1.550762,0.021047,0.677763,-0.643994,-1.551416,1.523151,-11.793408,-5.852798,0.157110,-0.006890,0.000000,-0.088740,-0.067303,0.000000
0.490000,-2.497042,-1.958605,-1.444305,-0.005277,0.501709,0.047595,0.074296,1.543731,0.005240,0.692865,-0.757701,-1.608367,1.496280,-10.874187,-5.559091,0.156161,-0.007577,0.000000,-0.100690,-0.068575,0.000000
0.500000,-2.497091,-1.953511,-1.443829,-0.004500,0.517108,0.047567,0.081299,1.535608,-0.011121,0.707688,-0.861478,-1.662598,1.466457,-9.852707,-5.298426,0.155097,-0.008278,0.000000,-0.111547,-0.069804,0.000000
0.510000,-2.497132,-1.948263,-1.443354,-0.003651,0.532421,0.047372,0.088450,1.526501,-0.028012,0.722195,-0.954755,-1.714335,1.433598,-8.846522,-5.022032,0.153930,-0.008990,0.000000,-0.121262,-0.070987,-0.000000
0.520000,-2.497164,-1.942862,-1.442881,-0.002731,0.547638,0.047007,0.095743,1.516513,-0.045407,0.736360,-1.038409,-1.763038,1.399686,-7.962483,-4.659313,0.152672,-0.009715,0.000000,-0.129918,-0.072123,0.000000
0.530000,-2.497186,-1.937310,-1.442414,-0.001736,0.562751,0.046464,0.103177,1.505733,-0.063272,0.750188,-1.114005,-1.807522,1.365490,-7.172181,-4.221597,0.151332,-0.010450,0.000000,-0.137659,-0.073214,0.000000
0.540000,-2.497199,-1.931607,-1.441952,-0.000667,0.577753,0.045741,0.110747,1.494233,-0.081558,0.763670,-1.181852,-1.847470,1.329181,-6.346675,-3.801931,0.149919,-0.011196,0.000000,-0.144515,-0.074261,0.000000
0.550000,-2.497200,-1.925755,-1.441499,0.000478,0.592636,0.044833,0.118450,1.482096,-0.100222,0.776772,-1.240939,-1.883560,1.289756,-5.455108,-3.427533,0.148442,-0.011952,0.000000,-0.150404,-0.075261,0.000000
0.560000,-2.497189,-1.919754,-1.441055,0.001702,0.607395,0.043737,0.126283,1.469414,-0.119229,0.789465,-1.290954,-1.916021,1.249211,-4.590628,-3.034748,0.146911,-0.012718,0.000000,-0.155304,-0.076213,0.000000
0.570000,-2.497166,-1.913607,-1.440624,0.003004,0.622024,0.042449,0.134240,1.456277,-0.138542,0.801756,-1.332751,-1.944255,1.211434,-3.840158,-2.560114,0.145336,-0.013493,0.000000,-0.159298,-0.077117,0.000000
0.580000,-2.497129,-1.907314,-1.440206,0.004387,0.636520,0.040966,0.142318,1.442759,-0.158114,0.813694,-1.367757,-1.967223,1.176601,-3.180199,-2.022848,0.143725,-0.014276,0.000000,-0.162519,-0.077984,0.000000
0.590000,-2.497078,-1.900877,-1.439805,0.005850,0.650880,0.039286,0.150514,1.428922,-0.177887,0.825288,-1.396355,-1.984712,1.140410,-2.503631,-1.506951,0.142085,-0.015068,0.000000,-0.165010,-0.078814,0.000000
0.600000,-2.497012,-1.894296,-1.439421,0.007397,0.665099,0.037408,0.158823,1.414832,-0.197808,0.836502,-1.417830,-1.997362,1.101128,-1.784883,-1.031378,0.140425,-0.015869,0.000000,-0.166715,-0.079606,0.000000
0.610000,-2.496930,-1.887575,-1.439057,0.009027,0.679176,0.035330,0.167244,1.400565,-0.217834,0.847311,-1.432053,-2.005340,1.062271,-1.099792,-0.541242,0.138751,-0.016676,0.000000,-0.167634,-0.080358,-0.000000
0.620000,-2.496831,-1.880713,-1.438714,0.010742,0.693110,0.033051,0.175770,1.386191,-0.237915,0.857747,-1.439826,-2.008187,1.029186,-0.516602,0.003303,0.137072,-0.017491,0.000000,-0.167846,-0.081077,-0.000000
0.630000,-2.496715,-1.873712,-1.438396,0.012542,0.706900,0.030572,0.184399,1.371769,-0.257998,0.867894,-1.442385,-2.005274,1.001466,-0.014638,0.582719,0.135394,-0.018313,0.000000,-0.167471,-0.081772,-0.000000
0.640000,-2.496581,-1.866575,-1.438103,0.014430,0.720546,0.027891,0.193128,1.357343,-0.278021,0.877777,-1.440119,-1.996533,0.972893,0.491809,1.143075,0.133723,-0.019142,0.000000,-0.166553,-0.082450,-0.000000
0.650000,-2.496427,-1.859302,-1.437838,0.016405,0.734047,0.025011,0.201954,1.342966,-0.297928,0.887352,-1.432549,-1.982412,0.941669,1.021875,1.676938,0.132063,-0.019977,0.000000,-0.165059,-0.083106,-0.000000
0.660000,-2.496252,-1.851894,-1.437602,0.018469,0.747405,0.021933,0.210875,1.328692,-0.317669,0.896610,-1.419681,-1.962994,0.912471,1.516472,2.216909,0.130421,-0.020819,0.000000,-0.162998,-0.083741,0.000000
0.670000,-2.496057,-1.844353,-1.437399,0.020622,0.760621,0.018658,0.219886,1.314573,-0.337188,0.905602,-1.402219,-1.938074,0.890694,1.927764,2.772622,0.128803,-0.021666,0.000000,-0.160441,-0.084363,0.000000
0.680000,-2.495840,-1.836682,-1.437229,0.022867,0.773696,0.015189,0.228987,1.300648,-0.356430,0.914424,-1.381126,-1.907542,0.875477,2.273622,3.329303,0.127212,-0.022520,0.000000,-0.157486,-0.084983,0.000000
0.690000,-2.495600,-1.828880,-1.437095,0.025202,0.786634,0.011529,0.238175,1.286950,-0.375339,0.923111,-1.356747,-1.871488,0.860228,2.615034,3.871633,0.125653,-0.023380,0.000000,-0.154174,-0.085607,0.000000
0.700000,-2.495336,-1.820949,-1.436999,0.027630,0.799435,0.007682,0.247449,1.273513,-0.393860,0.931628,-1.328825,-1.830109,0.843047,2.963236,4.403370,0.124129,-0.024246,0.000000,-0.150488,-0.086232,-0.000000
0.710000,-2.495047,-1.812891,-1.436942,0.030151,0.812104,0.003652,0.256807,1.260374,-0.411941,0.939972,-1.297482,-1.783421,0.828822,3.277727,4.930024,0.122643,-0.025118,0.000000,-0.146443,-0.086860,0.000000
0.720000,-2.494733,-1.804707,-1.436926,0.032766,0.824643,-0.000557,0.266248,1.247563,-0.429529,0.948205,-1.263271,-1.731508,0.822800,3.533150,5.433405,0.121200,-0.025996,0.000000,-0.142097,-0.087499,0.000000
0.730000,-2.494392,-1.796398,-1.436953,0.035476,0.837055,-0.004938,0.275771,1.235108,-0.446571,0.956428,-1.226819,-1.674752,0.823833,3.743501,5.906125,0.119801,-0.026881,0.000000,-0.137520,-0.088159,-0.000000
0.740000,-2.494023,-1.787966,-1.437024,0.038282,0.849345,-0.009488,0.285377,1.223027,-0.463024,0.964682,-1.188401,-1.613386,0.825439,3.941780,6.368869,0.118449,-0.027772,0.000000,-0.132743,-0.088846,0.000000
0.750000,-2.493626,-1.779411,-1.437142,0.041184,0.861516,-0.014199,0.295065,1.211340,-0.478839,0.972937,-1.147983,-1.547375,0.826037,4.131068,6.834679,0.117146,-0.028670,0.000000,-0.127764,-0.089557,0.000000
0.760000,-2.493200,-1.770735,-1.437308,0.044183,0.873572,-0.019065,0.304836,1.200067,-0.493971,0.981202,-1.105779,-1.476692,0.830260,4.290987,7.284680,0.115894,-0.029576,0.000000,-0.122604,-0.090296,0.000000
0.770000,-2.492743,-1.761940,-1.437524,0.047280,0.885517,-0.024078,0.314689,1.189225,-0.508373,0.989542,-1.062164,-1.401681,0.842281,4.417838,7.678731,0.114694,-0.030488,0.000000,-0.117306,-0.091070,0.000000
0.780000,-2.492254,-1.753025,-1.437790,0.050477,0.897356,-0.029232,0.324626,1.178824,-0.522005,0.998048,-1.017423,-1.323118,0.861004,4.520593,8.017253,0.113548,-0.031409,0.000000,-0.111904,-0.091887,-0.000000
0.790000,-2.491733,-1.743992,-1.438108,0.053773,0.909094,-0.034518,0.334650,1.168876,-0.534835,1.006762,-0.971752,-1.241336,0.881190,4.604740,8.349880,0.112456,-0.032338,0.000000,-0.106422,-0.092751,0.000000
0.800000,-2.491179,-1.734843,-1.438480,0.057170,0.920734,-0.039929,0.344762,1.159389,-0.546831,1.015672,-0.925328,-1.156120,0.900600,4.666285,8.694228,0.111419,-0.033276,0.000000,-0.100873,-0.093663,0.000000
0.810000,-2.490590,-1.725578,-1.438907,0.060668,0.932281,-0.045455,0.354963,1.150370,-0.557958,1.024774,-0.878426,-1.067452,0.922953,4.703980,9.012772,0.110438,-0.034223,0.000000,-0.095282,-0.094624,0.000000
0.820000,-2.489965,-1.716197,-1.439389,0.064269,0.943741,-0.051088,0.365257,1.141821,-0.568181,1.034131,-0.831248,-0.975865,0.954335,4.731657,9.257134,0.109513,-0.035180,0.000000,-0.089673,-0.095640,-0.000000
0.830000,-2.489304,-1.706703,-1.439929,0.067973,0.955118,-0.056819,0.375646,1.133745,-0.577475,1.043861,-0.783793,-0.882309,0.993831,4.752678,9.434536,0.108645,-0.036148,0.000000,-0.084055,-0.096720,0.000000
0.840000,-2.488606,-1.697095,-1.440526,0.071782,0.966416,-0.062638,0.386134,1.126145,-0.585827,1.054007,-0.736195,-0.787174,1.033279,4.750036,9.605814,0.107832,-0.037126,0.000000,-0.078441,-0.097867,0.000000
0.850000,-2.487869,-1.687375,-1.441182,0.075696,0.977641,-0.068535,0.396726,1.119021,-0.593218,1.064527,-0.688792,-0.690193,1.070868,4.715203,9.791262,0.107076,-0.038116,0.000000,-0.072859,-0.099081,0.000000
0.860000,-2.487092,-1.677542,-1.441897,0.079716,0.988797,-0.074502,0.407425,1.112369,-0.599631,1.075425,-0.641890,-0.591349,1.112151,4.661937,9.947061,0.106375,-0.039119,0.000000,-0.067336,-0.100362,0.000000
0.870000,-2.486274,-1.667599,-1.442672,0.083844,0.999888,-0.080528,0.418235,1.106183,-0.605045,1.086770,-0.595554,-0.491252,1.160970,4.614235,10.019537,0.105729,-0.040135,0.000000,-0.061881,-0.101716,0.000000
0.880000,-2.485415,-1.657545,-1.443507,0.088081,1.010920,-0.086603,0.429160,1.100458,-0.609456,1.098644,-0.549606,-0.390958,1.215539,4.570326,10.019036,0.105137,-0.041165,0.000000,-0.056485,-0.103147,0.000000
0.890000,-2.484513,-1.647380,-1.444404,0.092428,1.021897,-0.092717,0.440208,1.095191,-0.612865,1.111080,-0.504147,-0.290871,1.270737,4.499999,10.014912,0.104599,-0.042210,0.000000,-0.051159,-0.104659,0.000000
0.900000,-2.483567,-1.637107,-1.445361,0.096885,1.032824,-0.098860,0.451382,1.090375,-0.615273,1.124059,-0.459606,-0.190660,1.325211,4.393537,10.027754,0.104114,-0.043270,0.000000,-0.045937,-0.106250,-0.000000
0.910000,-2.482575,-1.626724,-1.446381,0.101455,1.043705,-0.105022,0.462689,1.085999,-0.616678,1.137585,-0.416276,-0.090316,1.382267,4.272937,10.009500,0.103680,-0.044346,0.000000,-0.040845,-0.107923,0.000000
0.920000,-2.481537,-1.616233,-1.447462,0.106139,1.054544,-0.111194,0.474134,1.082049,-0.617079,1.151704,-0.374147,0.009530,1.444993,4.163696,9.909714,0.103297,-0.045440,0.000000,-0.035885,-0.109679,-0.000000
0.930000,-2.480452,-1.605633,-1.448605,0.110938,1.065346,-0.117364,0.485723,1.078516,-0.616487,1.166484,-0.333002,0.107878,1.512442,4.060485,9.742105,0.102963,-0.046552,0.000000,-0.031043,-0.111522,0.000000
0.940000,-2.479319,-1.594926,-1.449809,0.115853,1.076114,-0.123523,0.497463,1.075389,-0.614922,1.181953,-0.292937,0.204372,1.580238,3.930911,9.572867,0.102676,-0.047682,0.000000,-0.026329,-0.113453,0.000000
0.950000,-2.478135,-1.584111,-1.451075,0.120887,1.086854,-0.129662,0.509362,1.072657,-0.612400,1.198089,-0.254384,0.299336,1.645792,3.767049,9.418104,0.102436,-0.048833,0.000000,-0.021779,-0.115471,0.000000
0.960000,-2.476901,-1.573189,-1.452402,0.126041,1.097567,-0.135771,0.521425,1.070302,-0.608935,1.214869,-0.217596,0.392735,1.711890,3.591488,9.233725,0.102240,-0.050004,0.000000,-0.017415,-0.117575,-0.000000
0.970000,-2.475614,-1.562159,-1.453791,0.131316,1.108260,-0.141841,0.533659,1.068305,-0.604545,1.232327,-0.182554,0.484010,1.784867,3.423733,8.983766,0.102088,-0.051197,0.000000,-0.013238,-0.119766,0.000000
0.980000,-2.474275,-1.551023,-1.455239,0.136714,1.118934,-0.147862,0.546072,1.066650,-0.599255,1.250566,-0.149122,0.572410,1.863898,3.257021,8.682601,0.101976,-0.052412,0.000000,-0.009241,-0.122050,0.000000
0.990000,-2.472880,-1.539781,-1.456748,0.142237,1.129593,-0.153826,0.558671,1.065323,-0.593097,1.269605,-0.117414,0.657662,1.939929,3.066580,8.378396,0.101903,-0.053651,0.000000,-0.005436,-0.124426,0.000000
1.000000,-2.471430,-1.528431,-1.458316,0.147887,1.140240,-0.159724,0.571464,1.064302,-0.586102,1.289365,-0.087790,0.739978,2.010600,2.848678,8.082275,0.101867,-0.054914,0.000000,-0.001853,-0.126890,0.000000
1.010000,-2.469922,-1.516976,-1.459942,0.153666,1.150879,-0.165548,0.584458,1.063567,-0.578297,1.309817,-0.060440,0.819308,2.081684,2.619874,7.763739,0.101866,-0.056202,0.000000,0.001489,-0.129437,0.000000
1.020000,-2.468357,-1.505414,-1.461627,0.159576,1.161511,-0.171290,0.597660,1.063093,-0.569715,1.330999,-0.035393,0.895253,2.157357,2.388186,7.400001,0.101897,-0.057516,0.000000,0.004585,-0.132068,0.000000
1.030000,-2.466731,-1.493746,-1.463368,0.165620,1.172140,-0.176943,0.611078,1.062859,-0.560392,1.352964,-0.012677,0.967308,2.235476,2.147611,7.002612,0.101958,-0.058857,0.000000,0.007428,-0.134786,-0.000000
1.040000,-2.465044,-1.481971,-1.465166,0.171798,1.182768,-0.182498,0.624719,1.062840,-0.550369,1.375708,0.007560,1.035305,2.310062,1.888229,6.603847,0.102045,-0.060226,0.000000,0.010002,-0.137589,0.000000
1.050000,-2.463295,-1.470090,-1.467018,0.178114,1.193397,-0.187950,0.638592,1.063010,-0.539686,1.399165,0.025088,1.099385,2.379481,1.611605,6.208927,0.102158,-0.061623,0.000000,0.012287,-0.140470,-0.000000
1.060000,-2.461482,-1.458103,-1.468925,0.184570,1.204029,-0.193292,0.652703,1.063342,-0.528382,1.423298,0.039792,1.159483,2.447195,1.323662,5.799134,0.102291,-0.063050,0.000000,0.014269,-0.143424,0.000000
1.070000,-2.459604,-1.446010,-1.470884,0.191168,1.214664,-0.198518,0.667058,1.063806,-0.516497,1.448109,0.051561,1.215367,2.516174,1.019012,5.368591,0.102443,-0.064507,0.000000,0.015936,-0.146449,0.000000
1.080000,-2.457658,-1.433810,-1.472895,0.197911,1.225305,-0.203622,0.681665,1.064373,-0.504074,1.473621,0.060172,1.266855,2.584890,0.694269,4.926552,0.102610,-0.065995,0.000000,0.017263,-0.149545,0.000000
1.090000,-2.455645,-1.421504,-1.474956,0.204801,1.235952,-0.208599,0.696530,1.065009,-0.491159,1.499807,0.065447,1.313899,2.648663,0.357003,4.483565,0.102788,-0.067514,0.000000,0.018231,-0.152708,-0.000000
1.100000,-2.453562,-1.409091,-1.477067,0.211842,1.246605,-0.213445,0.711661,1.065682,-0.477796,1.526594,0.067312,1.356526,2.706432,0.013724,4.037717,0.102975,-0.069065,0.000000,0.018832,-0.155930,-0.000000
1.110000,-2.451408,-1.396572,-1.479225,0.219035,1.257265,-0.218155,0.727062,1.066356,-0.464029,1.553936,0.065721,1.394653,2.760684,-0.341621,3.585638,0.103165,-0.070649,0.000000,0.019058,-0.159203,0.000000
1.120000,-2.449182,-1.383946,-1.481430,0.226383,1.267932,-0.222725,0.742740,1.066996,-0.449903,1.581808,0.060480,1.428239,2.812431,-0.726135,3.139511,0.103356,-0.072266,0.000000,0.018888,-0.162523,-0.000000
1.130000,-2.446881,-1.371213,-1.483680,0.233889,1.278605,-0.227153,0.758698,1.067565,-0.435464,1.610184,0.051198,1.457443,2.860244,-1.139616,2.704644,0.103543,-0.073917,0.000000,0.018285,-0.165887,0.000000
1.140000,-2.444504,-1.358373,-1.485973,0.241557,1.289283,-0.231435,0.774943,1.068020,-0.420754,1.639013,0.037687,1.482332,2.902001,-1.559036,2.267984,0.103721,-0.075602,0.000000,0.017227,-0.169288,0.000000
1.150000,-2.442050,-1.345427,-1.488308,0.249388,1.299966,-0.235568,0.791479,1.068319,-0.405817,1.668224,0.020018,1.502803,2.937418,-1.974272,1.821042,0.103887,-0.077321,0.000000,0.015718,-0.172717,0.000000
1.160000,-2.439516,-1.332374,-1.490684,0.257386,1.310650,-0.239551,0.808308,1.068421,-0.390698,1.697761,-0.001798,1.518753,2.967141,-2.401510,1.376503,0.104036,-0.079075,0.000000,0.013755,-0.176164,0.000000
1.170000,-2.436902,-1.319214,-1.493099,0.265554,1.321334,-0.243382,0.825434,1.068283,-0.375442,1.727567,-0.028013,1.530333,2.990349,-2.865725,0.961988,0.104162,-0.080864,0.000000,0.011312,-0.179623,0.000000
1.180000,-2.434205,-1.305947,-1.495552,0.273895,1.332015,-0.247060,0.842859,1.067860,-0.360092,1.757568,-0.059113,1.537993,3.006095,-3.363188,0.577942,0.104262,-0.082687,0.000000,0.008344,-0.183086,0.000000
1.190000,-2.431424,-1.292574,-1.498041,0.282412,1.342691,-0.250584,0.860585,1.067101,-0.344683,1.787689,-0.095276,1.541892,3.014556,-3.860166,0.190838,0.104329,-0.084546,0.000000,0.004833,-0.186547,0.000000
1.200000,-2.428557,-1.279094,-1.500564,0.291107,1.353357,-0.253954,0.878613,1.065955,-0.329254,1.817859,-0.136316,1.541809,3.016252,-4.344876,-0.212842,0.104358,-0.086439,0.000000,0.000790,-0.189993,-0.000000
1.210000,-2.425602,-1.265507,-1.503120,0.299984,1.364010,-0.257169,0.896943,1.064374,-0.313846,1.848014,-0.182174,1.537635,3.010270,-4.840117,-0.607065,0.104345,-0.088366,0.000000,-0.003781,-0.193413,0.000000
1.220000,-2.422557,-1.251813,-1.505707,0.309046,1.374645,-0.260231,0.915573,1.062311,-0.298501,1.878065,-0.233118,1.529668,2.993750,-5.373354,-0.953318,0.104283,-0.090328,0.000000,-0.008908,-0.196799,0.000000
1.230000,-2.419421,-1.238014,-1.508324,0.318295,1.385256,-0.263139,0.934504,1.059712,-0.283253,1.907889,-0.289641,1.518568,2.966111,-5.937988,-1.255677,0.104167,-0.092324,0.000000,-0.014633,-0.200140,0.000000
1.240000,-2.416191,-1.224108,-1.510970,0.327736,1.395839,-0.265896,0.953731,1.056518,-0.268130,1.937387,-0.351878,1.504555,2.930245,-6.496517,-1.562628,0.103990,-0.094353,0.000000,-0.020971,-0.203428,0.000000
1.250000,-2.412866,-1.210097,-1.513642,0.337370,1.406387,-0.268502,0.973252,1.052675,-0.253162,1.966494,-0.419571,1.487316,2.887782,-7.037514,-1.891410,0.103747,-0.096414,0.000000,-0.027901,-0.206649,0.000000
1.260000,-2.409444,-1.195981,-1.516340,0.347201,1.416893,-0.270959,0.993061,1.048127,-0.238383,1.995143,-0.492628,1.466726,2.835971,-7.585442,-2.206744,0.103432,-0.098508,0.000000,-0.035418,-0.209792,0.000000
1.270000,-2.405922,-1.181759,-1.519061,0.357231,1.427349,-0.273269,1.013154,1.042822,-0.223827,2.023213,-0.571280,1.443181,2.769120,-8.165153,-2.462866,0.103039,-0.100633,0.000000,-0.043543,-0.212846,-0.000000
1.280000,-2.402299,-1.167434,-1.521805,0.367464,1.437749,-0.275435,1.033525,1.036701,-0.209520,2.050525,-0.655931,1.417469,2.687046,-8.768553,-2.668001,0.102561,-0.102788,0.000000,-0.052308,-0.215798,0.000000
1.290000,-2.398573,-1.153004,-1.524570,0.377902,1.448083,-0.277460,1.054165,1.029703,-0.195478,2.076954,-0.746651,1.389821,2.596620,-9.361014,-2.881157,0.101992,-0.104972,0.000000,-0.061720,-0.218635,-0.000000
1.300000,-2.394741,-1.138472,-1.527355,0.388547,1.458343,-0.279345,1.075064,1.021768,-0.181723,2.102458,-0.843152,1.359846,2.501284,-9.932933,-3.118112,0.101326,-0.107183,0.000000,-0.071755,-0.221346,0.000000
1.310000,-2.390802,-1.123837,-1.530157,0.399403,1.468519,-0.281094,1.096214,1.012840,-0.168281,2.126980,-0.945310,1.327459,2.395604,-10.505927,-3.337925,0.100557,-0.109421,0.000000,-0.082403,-0.223923,0.000000
1.320000,-2.386753,-1.109102,-1.532976,0.410471,1.478600,-0.282711,1.117604,1.002862,-0.155174,2.150370,-1.053270,1.293087,2.269617,-11.098970,-3.502569,0.099678,-0.111684,0.000000,-0.093674,-0.226351,-0.000000
1.330000,-2.382593,-1.094265,-1.535811,0.421755,1.488576,-0.284198,1.139221,0.991775,-0.142419,2.172372,-1.167289,1.257407,2.124238,-11.703757,-3.623651,0.098684,-0.113971,0.000000,-0.105586,-0.228610,0.000000
1.340000,-2.378318,-1.079330,-1.538660,0.433256,1.498435,-0.285559,1.161051,0.979516,-0.130026,2.192854,-1.287345,1.220614,1.972172,-12.292750,-3.750487,0.097566,-0.116279,0.000000,-0.118136,-0.230687,-0.000000
1.350000,-2.373927,-1.064297,-1.541522,0.444976,1.508166,-0.286798,1.183079,0.966028,-0.118007,2.211816,-1.413144,1.182398,1.816090,-12.860013,-3.896692,0.096321,-0.118606,0.000000,-0.131297,-0.232577,0.000000
1.360000,-2.369419,-1.049167,-1.544396,0.456917,1.517756,-0.287919,1.205288,0.951254,-0.106378,2.229176,-1.544546,1.142681,1.646952,-13.421519,-4.029200,0.094940,-0.120952,0.000000,-0.145054,-0.234267,-0.000000
1.370000,-2.364789,-1.033942,-1.547281,0.469082,1.527191,-0.288926,1.227662,0.935137,-0.095153,2.244755,-1.681575,1.101814,1.458457,-13.985685,-4.115507,0.093420,-0.123313,0.000000,-0.159407,-0.235742,-0.000000
1.380000,-2.360037,-1.018623,-1.550175,0.481471,1.536459,-0.289822,1.250183,0.917622,-0.084342,2.258345,-1.824259,1.060370,1.252971,-14.545189,-4.166430,0.091752,-0.125687,0.000000,-0.174350,-0.236987,0.000000
1.390000,-2.355160,-1.003212,-1.553077,0.494085,1.545544,-0.290613,1.272829,0.898652,-0.073946,2.269814,-1.972478,1.018485,1.038148,-15.085950,-4.225500,0.089932,-0.128073,0.000000,-0.189868,-0.237988,0.000000
1.400000,-2.350155,-0.987712,-1.555987,0.506927,1.554432,-0.291301,1.295579,0.878172,-0.063972,2.279108,-2.125978,0.975860,0.817129,-15.604698,-4.299178,0.087955,-0.130466,0.000000,-0.205938,-0.238735,0.000000
1.410000,-2.345021,-0.972124,-1.558903,0.519997,1.563107,-0.291892,1.318411,0.856132,-0.054429,2.286157,-2.284572,0.932501,0.584486,-16.107866,-4.359708,0.085814,-0.132866,0.000000,-0.222537,-0.239220,0.000000
1.420000,-2.339755,-0.956450,-1.561825,0.533295,1.571554,-0.292390,1.341302,0.832481,-0.045322,2.290798,-2.448136,0.888666,0.331254,-16.597657,-4.397081,0.083504,-0.135268,0.000000,-0.239649,-0.239427,0.000000
1.430000,-2.334355,-0.940693,-1.564751,0.546823,1.579757,-0.292798,1.364227,0.807170,-0.036655,2.292782,-2.616526,0.844560,0.058286,-17.069445,-4.423075,0.081021,-0.137671,0.000000,-0.257254,-0.239335,0.000000
1.440000,-2.328819,-0.924855,-1.567681,0.560580,1.587698,-0.293123,1.387158,0.780151,-0.028431,2.291964,-2.789525,0.800205,-0.222423,-17.516596,-4.451231,0.078359,-0.140071,0.000000,-0.275326,-0.238928,0.000000
1.450000,-2.323144,-0.908939,-1.570614,0.574566,1.595360,-0.293367,1.410066,0.751379,-0.020651,2.288333,-2.966857,0.755535,-0.505001,-17.937659,-4.475321,0.075514,-0.142464,0.000000,-0.293835,-0.238204,0.000000
1.460000,-2.317328,-0.892947,-1.573548,0.588781,1.602725,-0.293536,1.432925,0.720813,-0.013320,2.281864,-3.148278,0.710698,-0.797792,-18.333855,-4.489130,0.072482,-0.144848,0.000000,-0.312750,-0.237160,0.000000
1.470000,-2.311368,-0.876884,-1.576484,0.603225,1.609776,-0.293633,1.455704,0.688414,-0.006437,2.272378,-3.333535,0.665753,-1.115551,-18.702156,-4.514179,0.069259,-0.147220,0.000000,-0.332042,-0.235780,0.000000
1.480000,-2.305263,-0.860752,-1.579421,0.617895,1.616494,-0.293665,1.478372,0.654143,-0.000005,2.259553,-3.522321,0.620415,-1.456113,-19.039006,-4.556482,0.065841,-0.149575,0.000000,-0.351676,-0.234028,0.000000
1.490000,-2.299010,-0.844554,-1.582358,0.632792,1.622859,-0.293634,1.500895,0.617967,0.005971,2.243255,-3.714315,0.574623,-1.799487,-19.344550,-4.587974,0.062226,-0.151910,0.000000,-0.371615,-0.231887,-0.000000
1.500000,-2.292607,-0.828295,-1.585294,0.647913,1.628853,-0.293545,1.523237,0.579856,0.011487,2.223563,-3.909212,0.528655,-2.140848,-19.621381,-4.595217,0.058409,-0.154222,0.000000,-0.391819,-0.229371,0.000000
1.510000,-2.286052,-0.811977,-1.588228,0.663257,1.634456,-0.293404,1.545366,0.539783,0.016544,2.200438,-4.106742,0.482719,-2.493406,-19.865911,-4.599936,0.054389,-0.156505,0.000000,-0.412253,-0.226479,-0.000000
1.520000,-2.279342,-0.795606,-1.591162,0.678821,1.639649,-0.293214,1.567246,0.497722,0.021142,2.173695,-4.306530,0.436657,-2.866927,-20.064228,-4.637354,0.050164,-0.158758,0.000000,-0.432875,-0.223190,-0.000000
1.530000,-2.272475,-0.779184,-1.594093,0.694602,1.644411,-0.292981,1.588840,0.453652,0.025277,2.143100,-4.508027,0.389972,-3.257196,-20.213788,-4.704577,0.045732,-0.160975,0.000000,-0.453623,-0.219474,0.000000
1.540000,-2.265450,-0.762717,-1.597021,0.710597,1.648722,-0.292709,1.610108,0.407561,0.028941,2.108551,-4.710806,0.342565,-3.650953,-20.329574,-4.756148,0.041092,-0.163152,0.000000,-0.474446,-0.215319,0.000000
1.550000,-2.258264,-0.746210,-1.599947,0.726804,1.652562,-0.292402,1.631011,0.359436,0.032128,2.070081,-4.914618,0.294849,-4.043588,-20.418044,-4.771613,0.036243,-0.165285,0.000000,-0.495307,-0.210735,0.000000
1.560000,-2.250914,-0.729666,-1.602869,0.743218,1.655910,-0.292066,1.651510,0.309269,0.034838,2.027679,-5.119167,0.247133,-4.443466,-20.465657,-4.783778,0.031186,-0.167369,0.000000,-0.516167,-0.205728,0.000000
1.570000,-2.243399,-0.713092,-1.605788,0.759834,1.658747,-0.291705,1.671564,0.257053,0.037071,1.981211,-5.323931,0.199173,-4.861114,-20.450549,-4.846329,0.025920,-0.169401,0.000000,-0.536964,-0.200282,0.000000
1.580000,-2.235717,-0.696491,-1.608703,0.776649,1.661052,-0.291325,1.691134,0.202790,0.038822,1.930457,-5.528178,0.150206,-5.293807,-20.373275,-4.952642,0.020447,-0.171376,0.000000,-0.557616,-0.194363,-0.000000
1.590000,-2.227866,-0.679871,-1.611615,0.793657,1.662803,-0.290929,1.710174,0.146489,0.040075,1.875335,-5.731397,0.100120,-5.726425,-20.259487,-5.031259,0.014768,-0.173289,0.000000,-0.578059,-0.187963,0.000000
1.600000,-2.219844,-0.663235,-1.614522,0.810852,1.663981,-0.290523,1.728641,0.088162,0.040824,1.815928,-5.933368,0.049581,-6.153719,-20.119409,-5.056940,0.008886,-0.175136,0.000000,-0.598258,-0.181104,0.000000
1.610000,-2.211649,-0.646591,-1.617425,0.828230,1.664566,-0.290112,1.746492,0.027822,0.041067,1.752261,-6.133785,-0.001019,-6.585100,-19.932664,-5.078821,0.002804,-0.176911,0.000000,-0.618169,-0.173796,0.000000
1.620000,-2.203280,-0.629944,-1.620324,0.845782,1.664538,-0.289702,1.763686,-0.034514,0.040804,1.684226,-6.332021,-0.051995,-7.031243,-19.668521,-5.157332,-0.003477,-0.178611,0.000000,-0.637720,-0.166028,0.000000
1.630000,-2.194733,-0.613300,-1.623219,0.863503,1.663876,-0.289296,1.780177,-0.098819,0.040027,1.611636,-6.527156,-0.104165,-7.488655,-19.329500,-5.278737,-0.009950,-0.180232,0.000000,-0.656805,-0.157769,0.000000
1.640000,-2.186009,-0.596666,-1.626110,0.881386,1.662561,-0.288901,1.795918,-0.165057,0.038720,1.534453,-6.718611,-0.157570,-7.941760,-18.953867,-5.361850,-0.016612,-0.181767,0.000000,-0.675351,-0.149018,-0.000000
1.650000,-2.177106,-0.580049,-1.628997,0.899422,1.660575,-0.288522,1.810866,-0.233191,0.036875,1.452801,-6.906233,-0.211402,-8.386194,-18.557207,-5.384270,-0.023457,-0.183213,0.000000,-0.693332,-0.139805,-0.000000
1.660000,-2.168021,-0.563455,-1.631881,0.917603,1.657898,-0.288164,1.824974,-0.303181,0.034492,1.366729,-7.089755,-0.265256,-8.831236,-18.111091,-5.399644,-0.030478,-0.184564,0.000000,-0.710710,-0.130147,0.000000
1.670000,-2.158754,-0.546891,-1.634761,0.935921,1.654511,-0.287832,1.838200,-0.374986,0.031570,1.276176,-7.268455,-0.319395,-9.284528,-17.572781,-5.456824,-0.037670,-0.185817,0.000000,-0.727404,-0.120039,-0.000000
1.680000,-2.149303,-0.530365,-1.637637,0.954367,1.650398,-0.287532,1.850498,-0.448551,0.028104,1.181039,-7.441211,-0.374392,-9.742084,-16.947472,-5.537439,-0.045026,-0.186966,0.000000,-0.743288,-0.109464,-0.000000
1.690000,-2.139666,-0.513883,-1.640511,0.972931,1.645540,-0.287270,1.861821,-0.523810,0.024083,1.081334,-7.607404,-0.430144,-10.192159,-16.290582,-5.574987,-0.052535,-0.188008,0.000000,-0.758290,-0.098432,0.000000
1.700000,-2.129844,-0.497454,-1.643383,0.991604,1.639922,-0.287051,1.872125,-0.600699,0.019501,0.977196,-7.767022,-0.485892,-10.632365,-15.622346,-5.558308,-0.060191,-0.188938,0.000000,-0.772405,-0.086977,0.000000
1.710000,-2.119834,-0.481085,-1.646252,1.010374,1.633526,-0.286880,1.881365,-0.679150,0.014365,0.868687,-7.919851,-0.541310,-11.069018,-14.903627,-5.528765,-0.067983,-0.189751,0.000000,-0.785607,-0.075116,0.000000
1.720000,-2.109636,-0.464783,-1.649120,1.029231,1.626339,-0.286763,1.889498,-0.759096,0.008675,0.755815,-8.065095,-0.596467,-11.504264,-14.083245,-5.503613,-0.075902,-0.190444,0.000000,-0.797815,-0.062858,0.000000
1.730000,-2.099250,-0.448558,-1.651987,1.048164,1.618344,-0.286707,1.896481,-0.840452,0.002435,0.638602,-8.201516,-0.651382,-11.934655,-13.170914,-5.464354,-0.083938,-0.191012,0.000000,-0.808901,-0.050209,0.000000
1.740000,-2.088673,-0.432416,-1.654854,1.067160,1.609530,-0.286715,1.902270,-0.923126,-0.004352,0.517122,-8.328513,-0.705754,-12.355564,-12.234307,-5.386084,-0.092079,-0.191451,0.000000,-0.818810,-0.037191,0.000000
1.750000,-2.077906,-0.416367,-1.657722,1.086209,1.599882,-0.286794,1.906824,-1.007023,-0.011680,0.391491,-8.446202,-0.759104,-12.766004,-11.293923,-5.278251,-0.100313,-0.191759,0.000000,-0.827561,-0.023831,0.000000
1.760000,-2.066949,-0.400419,-1.660590,1.105297,1.589389,-0.286948,1.910100,-1.092050,-0.019534,0.261802,-8.554391,-0.811319,-13.167280,-10.303850,-5.152062,-0.108630,-0.191931,0.000000,-0.835143,-0.010149,-0.000000
1.770000,-2.055801,-0.384579,-1.663461,1.124411,1.578041,-0.287184,1.912060,-1.178110,-0.027906,0.128145,-8.652279,-0.862145,-13.558572,-9.216222,-4.971457,-0.117015,-0.191963,0.000000,-0.841487,0.003835,-0.000000
1.780000,-2.044461,-0.368858,-1.666334,1.143538,1.565827,-0.287506,1.912663,-1.265096,-0.036777,-0.009369,-8.738716,-0.910748,-13.938467,-8.044988,-4.724247,-0.125458,-0.191853,0.000000,-0.846503,0.018086,0.000000
1.790000,-2.032930,-0.353263,-1.669211,1.162664,1.552739,-0.287920,1.911872,-1.352885,-0.046121,-0.150624,-8.813179,-0.956630,-14.305720,-6.854286,-4.456703,-0.133945,-0.191599,0.000000,-0.850164,0.032578,0.000000
1.800000,-2.021208,-0.337803,-1.672092,1.181776,1.538769,-0.288429,1.909651,-1.441359,-0.055910,-0.295484,-8.875802,-0.999882,-14.656380,-5.659531,-4.199919,-0.142461,-0.191196,0.000000,-0.852501,0.047293,0.000000
1.810000,-2.009294,-0.322488,-1.674979,1.200857,1.523912,-0.289038,1.905963,-1.530401,-0.066119,-0.443752,-8.926370,-1.040629,-14.989748,-4.419040,-3.916531,-0.150994,-0.190643,0.000000,-0.853515,0.062207,0.000000
1.820000,-1.997190,-0.307325,-1.677873,1.219895,1.508161,-0.289751,1.900776,-1.619887,-0.076723,-0.595279,-8.964182,-1.078213,-15.313479,-3.100667,-3.520952,-0.159531,-0.189938,0.000000,-0.853171,0.077289,-0.000000
1.830000,-1.984896,-0.292324,-1.680774,1.238873,1.491514,-0.290572,1.894057,-1.709684,-0.087683,-0.750022,-8.988383,-1.111048,-15.627636,-1.719377,-3.015648,-0.168057,-0.189078,0.000000,-0.851439,0.092501,0.000000
1.840000,-1.972413,-0.277495,-1.683685,1.257776,1.473968,-0.291505,1.885775,-1.799654,-0.098943,-0.907831,-8.998570,-1.138526,-15.918856,-0.319373,-2.512919,-0.176559,-0.188062,0.000000,-0.848329,0.107815,-0.000000
1.850000,-1.959741,-0.262845,-1.686605,1.276588,1.455521,-0.292551,1.875901,-1.889656,-0.110453,-1.068399,-8.994770,-1.161306,-16.177928,1.092449,-2.059594,-0.185023,-0.186888,0.000000,-0.843867,0.123211,-0.000000
1.860000,-1.946881,-0.248384,-1.689536,1.295294,1.436174,-0.293714,1.864407,-1.979550,-0.122170,-1.231390,-8.976721,-1.179718,-16.412533,2.542730,-1.575218,-0.193436,-0.185555,0.000000,-0.838059,0.138662,0.000000
1.870000,-1.933835,-0.234121,-1.692479,1.313877,1.415930,-0.294995,1.851273,-2.069190,-0.134048,-1.396649,-8.943916,-1.192810,-16.642081,4.040775,-0.940977,-0.201784,-0.184062,0.000000,-0.830912,0.154137,0.000000
1.880000,-1.920604,-0.220066,-1.695435,1.332319,1.394791,-0.296395,1.836474,-2.158428,-0.146026,-1.564232,-8.895906,-1.198537,-16.863826,5.574741,-0.174338,-0.210055,-0.182408,0.000000,-0.822466,0.169607,0.000000
1.890000,-1.907189,-0.206226,-1.698407,1.350606,1.372761,-0.297915,1.819988,-2.247108,-0.158019,-1.733926,-8.832421,-1.196297,-17.048539,7.129756,0.566894,-0.218234,-0.180593,0.000000,-0.812754,0.185047,-0.000000
1.900000,-1.893592,-0.192610,-1.701394,1.368719,1.349848,-0.299555,1.801796,-2.335076,-0.169952,-1.905202,-8.753310,-1.187199,-17.185928,8.705948,1.226325,-0.226310,-0.178617,0.000000,-0.801786,0.200431,0.000000
1.910000,-1.879814,-0.179229,-1.704398,1.386642,1.326060,-0.301314,1.781884,-2.422175,-0.181763,-2.077644,-8.658302,-1.171771,-17.293832,10.309382,1.912186,-0.234270,-0.176480,0.000000,-0.789567,0.215737,0.000000
1.920000,-1.865859,-0.166089,-1.707420,1.404357,1.301405,-0.303191,1.760243,-2.508242,-0.193387,-2.251079,-8.547123,-1.148956,-17.391477,11.932791,2.760457,-0.242102,-0.174182,0.000000,-0.776137,0.230940,0.000000
1.930000,-1.851727,-0.153201,-1.710462,1.421847,1.275895,-0.305182,1.736862,-2.593117,-0.204742,-2.425474,-8.419646,-1.116561,-17.473106,13.572516,3.742332,-0.249793,-0.171722,0.000000,-0.761580,0.246010,0.000000
1.940000,-1.837422,-0.140571,-1.713524,1.439094,1.249543,-0.307285,1.711733,-2.676635,-0.215718,-2.600541,-8.275672,-1.074109,-17.509631,15.233930,4.674209,-0.257334,-0.169104,0.000000,-0.745937,0.260929,0.000000
1.950000,-1.822945,-0.128210,-1.716607,1.456081,1.222362,-0.309496,1.684852,-2.758631,-0.226224,-2.775667,-8.114968,-1.023077,-17.483831,16.905235,5.494527,-0.264713,-0.166326,0.000000,-0.729193,0.275679,0.000000
1.960000,-1.808300,-0.116124,-1.719714,1.472791,1.194370,-0.311810,1.656220,-2.838935,-0.236180,-2.950218,-7.937568,-0.964219,-17.413332,18.580021,6.325262,-0.271919,-0.163391,0.000000,-0.711369,0.290229,0.000000
1.970000,-1.793489,-0.104322,-1.722844,1.489206,1.165584,-0.314220,1.625847,-2.917382,-0.245508,-3.123933,-7.743367,-0.896572,-17.337560,20.287158,7.307724,-0.278941,-0.160300,0.000000,-0.692517,0.304558,-0.000000
1.980000,-1.778516,-0.092812,-1.725998,1.505308,1.136022,-0.316720,1.593741,-2.993802,-0.254111,-3.296969,-7.531825,-0.818064,-17.249725,22.030040,8.404053,-0.285770,-0.157055,0.000000,-0.672676,0.318670,0.000000
1.990000,-1.763383,-0.081602,-1.729178,1.521081,1.105708,-0.319302,1.559908,-3.068018,-0.261870,-3.468928,-7.302766,-0.728491,-17.092148,23.762377,9.419806,-0.292396,-0.153657,0.000000,-0.651872,0.332549,0.000000
2.000000,-1.748094,-0.070698,-1.732384,1.536506,1.074662,-0.321957,1.524363,-3.139857,-0.268681,-3.638812,-7.056577,-0.629668,-16.853882,25.455527,10.302231,-0.298809,-0.150109,0.000000,-0.630118,0.346154,-0.000000
2.010000,-1.732653,-0.060109,-1.735617,1.551568,1.042910,-0.324676,1.487132,-3.209150,-0.274463,-3.806005,-6.793656,-0.522446,-16.570240,27.138544,11.175740,-0.304999,-0.146412,0.000000,-0.607448,0.359464,0.000000
2.020000,-1.717063,-0.049840,-1.738878,1.566249,1.010479,-0.327447,1.448243,-3.275730,-0.279130,-3.970217,-6.513806,-0.406153,-16.253649,28.874080,12.147314,-0.310959,-0.142571,0.000000,-0.583879,0.372468,0.000000
2.030000,-1.701328,-0.039899,-1.742166,1.580533,0.977396,-0.330258,1.407727,-3.339426,-0.282586,-4.131078,-6.216174,-0.279500,-15.883475,30.650780,13.169888,-0.316678,-0.138587,0.000000,-0.559386,0.385143,0.000000
2.040000,-1.685452,-0.030292,-1.745483,1.594403,0.943690,-0.333098,1.365621,-3.400054,-0.284720,-4.287886,-5.900791,-0.142755,-15.441421,32.378254,14.092861,-0.322148,-0.134464,0.000000,-0.533977,0.397455,0.000000
2.050000,-1.669440,-0.021025,-1.748828,1.607845,0.909395,-0.335953,1.321970,-3.457442,-0.285441,-4.439907,-5.568609,0.002357,-14.964685,34.044562,14.897141,-0.327359,-0.130206,0.000000,-0.507689,0.409389,0.000000
2.060000,-1.653295,-0.012104,-1.752202,1.620843,0.874542,-0.338807,1.276823,-3.511426,-0.284673,-4.587180,-5.219899,0.155187,-14.457652,35.705182,15.671640,-0.332303,-0.125817,0.000000,-0.480524,0.420983,0.000000
2.070000,-1.637023,-0.003534,-1.755604,1.633382,0.839166,-0.341646,1.230226,-3.561840,-0.282337,-4.729060,-4.854505,0.315790,-13.804278,37.366822,16.429535,-0.336971,-0.121299,0.000000,-0.452462,0.432205,0.000000
2.080000,-1.620628,0.004679,-1.759035,1.645447,0.803305,-0.344454,1.182242,-3.608516,-0.278357,-4.863266,-4.472563,0.483778,-12.991173,39.010691,17.126674,-0.341353,-0.116657,0.000000,-0.423482,0.442876,0.000000
2.090000,-1.604114,0.012532,-1.762493,1.657026,0.766996,-0.347213,1.132961,-3.651291,-0.272662,-4.988883,-4.074292,0.658323,-12.175195,40.622997,17.736619,-0.345441,-0.111898,0.000000,-0.393556,0.452946,0.000000
2.100000,-1.587487,0.020019,-1.765979,1.668107,0.730279,-0.349907,1.082464,-3.690002,-0.265191,-5.106769,-3.660103,0.838511,-11.405024,42.164277,18.280918,-0.349225,-0.107028,0.000000,-0.362673,0.462530,0.000000
2.110000,-1.570752,0.027137,-1.769491,1.678676,0.693196,-0.352517,1.030825,-3.724493,-0.255892,-5.216984,-3.231006,1.023942,-10.569140,43.639732,18.761083,-0.352695,-0.102052,0.000000,-0.330875,0.471658,0.000000
2.120000,-1.553914,0.033883,-1.773029,1.688723,0.655789,-0.355025,0.978124,-3.754622,-0.244712,-5.318152,-2.787308,1.213732,-9.557992,45.154832,19.093535,-0.355843,-0.096975,0.000000,-0.298119,0.480234,-0.000000
2.130000,-1.536978,0.040253,-1.776592,1.698238,0.618103,-0.357411,0.924462,-3.780239,-0.231617,-5.408144,-2.327909,1.405813,-8.400159,46.712892,19.255739,-0.358658,-0.091804,0.000000,-0.264194,0.488097,0.000000
2.140000,-1.519949,0.046245,-1.780178,1.707212,0.580184,-0.359657,0.869962,-3.801180,-0.216596,-5.486155,-1.853050,1.598847,-7.237050,48.157128,19.348328,-0.361128,-0.086549,0.000000,-0.229025,0.495197,0.000000
2.150000,-1.502833,0.051857,-1.783785,1.715637,0.542080,-0.361743,0.814739,-3.817300,-0.199640,-5.552885,-1.364767,1.792779,-6.120048,49.418259,19.442074,-0.363239,-0.081216,0.000000,-0.192731,0.501606,0.000000
2.160000,-1.485636,0.057087,-1.787412,1.723507,0.503838,-0.363650,0.758904,-3.828476,-0.180740,-5.608556,-0.864685,1.987688,-4.952002,50.597834,19.451716,-0.364982,-0.075815,0.000000,-0.155396,0.507353,0.000000
2.170000,-1.468363,0.061933,-1.791058,1.730816,0.465510,-0.365358,0.702568,-3.834594,-0.159886,-5.651925,-0.352810,2.181813,-3.601948,51.842989,19.170792,-0.366347,-0.070353,0.000000,-0.116892,0.512339,0.000000
2.180000,-1.451020,0.066397,-1.794720,1.737558,0.427146,-0.366848,0.645865,-3.835532,-0.137104,-5.680595,0.172174,2.371104,-2.090981,53.116518,18.599069,-0.367319,-0.064839,0.000000,-0.076888,0.516364,0.000000
2.190000,-1.433612,0.070476,-1.798395,1.743733,0.388800,-0.368100,0.588956,-3.831151,-0.112464,-5.693744,0.709520,2.553795,-0.596802,54.210184,18.004434,-0.367884,-0.059286,0.000000,-0.035308,0.519345,0.000000
2.200000,-1.416145,0.074173,-1.802082,1.749338,0.350523,-0.369097,0.531991,-3.821341,-0.086028,-5.692531,1.256378,2.731193,0.793932,55.094824,17.514247,-0.368025,-0.053706,0.000000,0.007637,0.521366,0.000000
2.210000,-1.398625,0.077487,-1.805777,1.754373,0.312373,-0.369821,0.475106,-3.806023,-0.057840,-5.677866,1.811417,2.904080,2.201987,55.898604,16.932218,-0.367730,-0.048110,0.000000,0.051889,0.522490,0.000000
2.220000,-1.381058,0.080420,-1.809478,1.758840,0.274403,-0.370254,0.418433,-3.785113,-0.027946,-5.648492,2.374350,3.069837,3.841957,56.646816,15.923689,-0.366985,-0.042507,0.000000,0.097604,0.522589,-0.000000
2.230000,-1.363449,0.082975,-1.813182,1.762741,0.236671,-0.370380,0.362136,-3.758536,0.003557,-5.601026,2.944353,3.222553,5.675130,57.282164,14.522015,-0.365775,-0.036912,0.000000,0.145010,0.521330,0.000000
2.240000,-1.345803,0.085154,-1.816886,1.766082,0.199232,-0.370183,0.306413,-3.726226,0.036505,-5.534989,3.519994,3.360278,7.407188,57.763804,13.171969,-0.364083,-0.031341,0.000000,0.194139,0.518622,0.000000
2.250000,-1.328127,0.086960,-1.820586,1.768870,0.162146,-0.369650,0.251436,-3.688136,0.070762,-5.452883,4.099629,3.485993,9.005739,58.107690,12.056589,-0.361890,-0.025811,0.000000,0.244834,0.514639,-0.000000
2.260000,-1.310426,0.088397,-1.824279,1.771111,0.125470,-0.368768,0.197355,-3.644234,0.106225,-5.354874,4.682147,3.601409,10.659981,58.324115,10.866022,-0.359183,-0.020335,0.000000,0.297029,0.509341,0.000000
2.270000,-1.292705,0.089469,-1.827961,1.772817,0.089261,-0.367525,0.144338,-3.594493,0.142790,-5.239683,5.266111,3.703313,12.397805,58.345851,9.147502,-0.355946,-0.014930,0.000000,0.350793,0.502558,0.000000
2.280000,-1.274969,0.090182,-1.831629,1.773998,0.053580,-0.365912,0.092561,-3.538911,0.180291,-5.106918,5.849064,3.784359,14.206581,58.148905,6.993820,-0.352164,-0.009612,0.000000,0.406235,0.494191,0.000000
2.290000,-1.257225,0.090541,-1.835279,1.774668,0.018483,-0.363919,0.042200,-3.477512,0.218477,-4.955551,6.429089,3.843190,16.034045,57.810054,5.011391,-0.347818,-0.004400,0.000000,0.463291,0.484055,0.000000
2.300000,-1.239476,0.090551,-1.838908,1.774842,-0.015971,-0.361542,-0.006550,-3.410330,0.257155,-4.786237,7.005265,3.884587,17.429321,57.383426,3.278311,-0.342894,0.000686,0.000000,0.521772,0.472123,0.000000
2.310000,-1.221728,0.090221,-1.842510,1.774537,-0.049723,-0.358776,-0.053525,-3.337407,0.296169,-4.606965,7.576758,3.908756,18.447896,56.799511,1.397186,-0.337378,0.005626,0.000000,0.581646,0.459107,0.000000
2.320000,-1.203985,0.089557,-1.846083,1.773771,-0.082719,-0.355619,-0.098689,-3.258794,0.335330,-4.417279,8.141256,3.912531,20.367459,55.891314,-0.740098,-0.331257,0.010416,0.000000,0.642840,0.444893,0.000000
2.330000,-1.186252,0.088567,-1.849622,1.772563,-0.114899,-0.352070,-0.141870,-3.174581,0.374420,-4.199616,8.694584,3.893954,23.019145,54.628540,-3.022482,-0.324517,0.015035,0.000000,0.705025,0.427636,0.000000
2.340000,-1.168534,0.087259,-1.853124,1.770934,-0.146210,-0.348130,-0.182681,-3.084903,0.413209,-3.956896,9.233826,3.852081,24.661855,53.230132,-5.305791,-0.317152,0.019438,0.000000,0.767922,0.407507,0.000000
2.350000,-1.150834,0.085643,-1.856585,1.768910,-0.176597,-0.343805,-0.221008,-2.989905,0.451461,-3.706379,9.759187,3.787838,26.433308,51.999248,-7.318913,-0.309154,0.023611,0.000000,0.831482,0.386156,0.000000
2.360000,-1.133156,0.083727,-1.860001,1.766514,-0.206008,-0.339101,-0.256809,-2.889719,0.488966,-3.428230,10.273811,3.705703,29.376333,50.756547,-9.156948,-0.300518,0.027545,0.000000,0.895793,0.361500,0.000000
2.370000,-1.115503,0.081522,-1.863367,1.763773,-0.234392,-0.334026,-0.289573,-2.784429,0.525575,-3.118852,10.774318,3.604699,29.766695,48.647919,-11.583870,-0.291234,0.031179,0.000000,0.960474,0.333053,-0.000000
2.380000,-1.097880,0.079039,-1.866681,1.760722,-0.261697,-0.328590,-0.319186,-2.674233,0.561060,-2.832896,11.246770,3.474026,27.296855,45.684902,-14.545275,-0.281305,0.034497,0.000000,1.024385,0.306343,-0.000000
2.390000,-1.080289,0.076288,-1.869939,1.757390,-0.287876,-0.322805,-0.346231,-2.559493,0.595056,-2.572915,11.688016,3.313794,27.127841,43.032586,-16.969409,-0.270744,0.037555,0.000000,1.086978,0.281662,0.000000
2.400000,-1.062732,0.073282,-1.873137,1.753798,-0.312887,-0.316689,-0.370644,-2.440472,0.627336,-2.290340,12.107422,3.134637,28.291650,40.932857,-18.963643,-0.259563,0.040342,0.000000,1.148604,0.253968,0.000000
2.410000,-1.045213,0.070031,-1.876273,1.749977,-0.336686,-0.310258,-0.392038,-2.317345,0.657749,-2.007082,12.506673,2.934521,27.416047,38.595798,-21.202710,-0.247770,0.042809,0.000000,1.209287,0.225503,-0.000000
2.420000,-1.027733,0.066548,-1.879342,1.745957,-0.359234,-0.303534,-0.410786,-2.190339,0.686026,-1.742019,12.879337,2.710583,28.644702,35.579628,-23.077476,-0.235376,0.044992,0.000000,1.268181,0.198268,0.000000
2.430000,-1.010294,0.062846,-1.882343,1.741761,-0.380493,-0.296538,-0.426878,-2.059758,0.711960,-1.434188,13.218266,2.472971,33.272238,32.155879,-24.284120,-0.222406,0.046885,0.000000,1.323900,0.165829,0.000000
2.440000,-0.992898,0.058938,-1.885273,1.737419,-0.400429,-0.289294,-0.439470,-1.925973,0.735485,-1.076574,13.522455,2.224901,35.303828,28.885904,-25.684096,-0.208899,0.048391,0.000000,1.375938,0.127375,-0.000000
2.450000,-0.975546,0.054837,-1.888129,1.732972,-0.419012,-0.281828,-0.448409,-1.789309,0.756458,-0.728111,13.795984,1.959289,34.382786,25.813875,-27.513140,-0.194889,0.049488,0.000000,1.424617,0.089197,0.000000
2.460000,-0.958238,0.050558,-1.890910,1.728451,-0.436215,-0.274165,-0.454032,-1.650054,0.774671,-0.388918,14.038733,1.674638,34.561428,22.591481,-29.139635,-0.180409,0.050208,0.000000,1.469587,0.051378,0.000000
2.470000,-0.940977,0.046113,-1.893613,1.723891,-0.452013,-0.266335,-0.456188,-1.508534,0.789951,-0.036883,14.247813,1.376497,34.978443,19.156746,-30.113571,-0.165501,0.050532,0.000000,1.510038,0.011616,-0.000000
2.480000,-0.923760,0.041518,-1.896236,1.719328,-0.466386,-0.258366,-0.454769,-1.365098,0.802201,0.310651,14.421867,1.072367,33.921954,15.642014,-30.620289,-0.150213,0.050443,0.000000,1.545369,-0.028084,0.000000
2.490000,-0.906590,0.036785,-1.898780,1.714796,-0.479315,-0.250291,-0.449975,-1.220097,0.811399,0.641556,14.560653,0.764091,32.950848,12.139858,-31.194974,-0.134599,0.049963,0.000000,1.575244,-0.066277,0.000000
2.500000,-0.889465,0.031931,-1.901242,1.710328,-0.490788,-0.242138,-0.441938,-1.073884,0.817483,0.969668,14.664665,0.448467,34.014385,8.713991,-31.876654,-0.118715,0.049106,0.000000,1.599477,-0.104386,0.000000
2.510000,-0.872383,0.026970,-1.903623,1.705957,-0.500793,-0.233941,-0.430581,-0.926804,0.820368,1.321844,14.734933,0.126558,35.837960,5.330270,-32.293063,-0.102617,0.047861,0.000000,1.617899,-0.145263,0.000000
2.520000,-0.855345,0.021915,-1.905921,1.701716,-0.509324,-0.225731,-0.415501,-0.779186,0.820014,1.686427,14.771270,-0.197394,33.651783,1.838795,-32.329229,-0.086365,0.046185,0.000000,1.630256,-0.187501,-0.000000
2.530000,-0.838349,0.016783,-1.908137,1.697647,-0.516377,-0.217541,-0.396853,-0.631378,0.816420,1.994880,14.771709,-0.520027,27.939704,-1.705670,-32.048770,-0.070020,0.044098,0.000000,1.636190,-0.223378,0.000000
2.540000,-0.821392,0.011588,-1.910272,1.693779,-0.521951,-0.209403,-0.375604,-0.483752,0.809614,2.245221,14.737157,-0.838369,25.114462,-5.064714,-31.574633,-0.053650,0.041708,0.000000,1.635686,-0.252541,0.000000
2.550000,-0.804473,0.006344,-1.912325,1.690135,-0.526052,-0.201348,-0.351948,-0.336635,0.799653,2.497169,14.670415,-1.151519,24.224299,-8.384964,-31.285161,-0.037315,0.039041,0.000000,1.629023,-0.281511,0.000000
2.560000,-0.787590,0.001067,-1.914299,1.686740,-0.528684,-0.193409,-0.325660,-0.190343,0.786583,2.729707,14.569457,-1.464073,21.110312,-11.781282,-31.062217,-0.021078,0.036075,0.000000,1.616045,-0.307900,-0.000000
2.570000,-0.770739,-0.004229,-1.916193,1.683622,-0.529858,-0.185617,-0.297354,-0.045246,0.770371,2.919375,14.434789,-1.772764,19.893228,-14.714121,-29.772351,-0.005003,0.032883,0.000000,1.596858,-0.329044,0.000000
2.580000,-0.753917,-0.009530,-1.918011,1.680793,-0.529589,-0.178002,-0.267273,0.098352,0.751128,3.127572,14.275175,-2.059520,22.160456,-17.081795,-27.415292,0.010852,0.029495,0.000000,1.572597,-0.351630,0.000000
2.590000,-0.737123,-0.014821,-1.919754,1.678276,-0.527891,-0.170594,-0.234803,0.240257,0.729181,3.362584,14.093153,-2.321070,21.933067,-19.605073,-25.544742,0.026443,0.025851,0.000000,1.543868,-0.376521,0.000000
2.600000,-0.720352,-0.020088,-1.921423,1.676097,-0.524784,-0.163418,-0.200021,0.380216,0.704706,3.566233,13.883073,-2.570415,18.914813,-22.485020,-24.306046,0.041723,0.021964,0.000000,1.510305,-0.397329,0.000000
2.610000,-0.703601,-0.025317,-1.923022,1.674276,-0.520287,-0.156500,-0.163478,0.517919,0.677772,3.740880,13.643453,-2.807191,17.192335,-25.197338,-22.660334,0.056644,0.017899,0.000000,1.472008,-0.414339,0.000000
2.620000,-0.686866,-0.030494,-1.924553,1.672828,-0.514425,-0.149863,-0.125204,0.653085,0.648563,3.910080,13.379127,-3.023621,15.722893,-27.290991,-20.549502,0.071159,0.013666,0.000000,1.429868,-0.430136,0.000000
2.630000,-0.670144,-0.035605,-1.926019,1.671772,-0.507225,-0.143529,-0.085277,0.785501,0.617300,4.055338,13.097633,-3.218181,13.024867,-28.888883,-18.342780,0.085238,0.009276,0.000000,1.385053,-0.442744,0.000000
2.640000,-0.653431,-0.040638,-1.927424,1.671122,-0.498715,-0.137517,-0.044097,0.915037,0.584199,4.170577,12.801349,-3.390477,10.911385,-30.551328,-16.055448,0.098858,0.004780,0.000000,1.338147,-0.451586,0.000000
2.650000,-0.636722,-0.045580,-1.928770,1.670890,-0.488925,-0.131845,-0.001865,1.041528,0.549491,4.273566,12.486607,-3.539290,9.788457,-32.532209,-13.715067,0.111999,0.000201,0.000000,1.289091,-0.458668,0.000000
2.660000,-0.620013,-0.050417,-1.930060,1.671085,-0.477885,-0.126527,0.041374,1.164769,0.513413,4.366346,12.150705,-3.664778,8.374677,-34.429827,-11.342780,0.124639,-0.004450,0.000000,1.237912,-0.464279,0.000000
2.670000,-0.603300,-0.055137,-1.931300,1.671717,-0.465629,-0.121577,0.085462,1.284543,0.476195,4.441060,11.798010,-3.766145,6.487114,-35.543596,-8.766603,0.136758,-0.009156,0.000000,1.185384,-0.467662,-0.000000
2.680000,-0.586579,-0.059729,-1.932492,1.672794,-0.452194,-0.117003,0.130196,1.400730,0.438090,4.496088,11.439833,-3.840110,4.592056,-35.977182,-5.996076,0.148348,-0.013891,0.000000,1.133010,-0.468752,-0.000000
2.690000,-0.569844,-0.064181,-1.933640,1.674321,-0.437615,-0.112815,0.175384,1.513339,0.399393,4.532901,11.078466,-3.886067,2.834950,-36.660129,-3.303515,0.159420,-0.018635,0.000000,1.081260,-0.467811,0.000000
2.700000,-0.553092,-0.068482,-1.934748,1.676302,-0.421927,-0.109015,0.220854,1.622299,0.360369,4.552787,10.706630,-3.906181,1.090128,-37.730803,-0.694849,0.169976,-0.023367,0.000000,1.029544,-0.465076,0.000000
2.710000,-0.536318,-0.072620,-1.935820,1.678738,-0.405169,-0.105607,0.266439,1.727472,0.321269,4.554703,10.323850,-3.899964,-0.703212,-38.565097,1.984944,0.180013,-0.028072,0.000000,0.978005,-0.460538,0.000000
2.720000,-0.519518,-0.076585,-1.936860,1.681631,-0.387378,-0.102590,0.311948,1.828776,0.282370,4.538723,9.935328,-3.866482,-2.298400,-38.931925,4.631008,0.189539,-0.032730,0.000000,0.927345,-0.454307,-0.000000
2.730000,-0.502686,-0.080367,-1.937872,1.684977,-0.368593,-0.099960,0.357214,1.926178,0.243939,4.508735,9.545212,-3.807343,-3.635867,-39.061993,7.152177,0.198564,-0.037324,0.000000,0.878065,-0.446872,0.000000
2.740000,-0.485818,-0.083957,-1.938860,1.688775,-0.348854,-0.097711,0.402122,2.019680,0.206223,4.466006,9.154089,-3.723438,-5.047204,-39.231145,9.672923,0.207104,-0.041847,0.000000,0.830281,-0.438433,0.000000
2.750000,-0.468910,-0.087344,-1.939826,1.693020,-0.328200,-0.095836,0.446534,2.109260,0.169471,4.407791,8.760589,-3.613885,-6.703092,-39.362097,12.283024,0.215173,-0.046285,0.000000,0.783933,-0.428788,0.000000
2.760000,-0.451958,-0.090521,-1.940776,1.697705,-0.306669,-0.094322,0.490278,2.194892,0.133945,4.331944,8.366847,-3.477778,-8.355475,-39.298130,14.862741,0.222786,-0.050626,0.000000,0.739302,-0.417799,0.000000
2.770000,-0.434956,-0.093478,-1.941713,1.702825,-0.284302,-0.093157,0.533173,2.276597,0.099915,4.240682,7.974626,-3.316630,-9.571881,-39.270455,17.146611,0.229963,-0.054854,0.000000,0.696545,-0.405748,0.000000
2.780000,-0.417901,-0.096207,-1.942639,1.708369,-0.261137,-0.092324,0.575092,2.354384,0.067613,4.140506,7.581438,-3.134845,-10.424536,-39.348447,19.137492,0.236721,-0.058961,0.000000,0.655313,-0.393312,-0.000000
2.790000,-0.400789,-0.098701,-1.943559,1.714327,-0.237214,-0.091804,0.615983,2.428226,0.037218,4.032191,7.187657,-2.933880,-11.476891,-39.221879,21.160602,0.243073,-0.062947,0.000000,0.615593,-0.380587,0.000000
2.800000,-0.383615,-0.100951,-1.944476,1.720689,-0.212573,-0.091579,0.655736,2.498138,0.008935,3.910968,6.797000,-2.711633,-12.723177,-38.903800,23.307712,0.249036,-0.066805,0.000000,0.577774,-0.367142,-0.000000
2.810000,-0.366375,-0.102952,-1.945391,1.727442,-0.187251,-0.091626,0.694202,2.564166,-0.017014,3.777727,6.409581,-2.467726,-13.786538,-38.616978,25.332532,0.254632,-0.070525,0.000000,0.541842,-0.353098,0.000000
2.820000,-0.349066,-0.104696,-1.946308,1.734573,-0.161289,-0.091919,0.731290,2.626329,-0.040420,3.635238,6.024660,-2.204983,-14.772694,-38.261303,26.982362,0.259877,-0.074104,0.000000,0.507612,-0.338725,0.000000
2.830000,-0.331683,-0.106178,-1.947229,1.742067,-0.134725,-0.092434,0.766907,2.684659,-0.061114,3.482273,5.644355,-1.928079,-15.813732,-37.773030,28.307723,0.264787,-0.077536,0.000000,0.475122,-0.323878,0.000000
2.840000,-0.314224,-0.107391,-1.948157,1.749911,-0.107596,-0.093142,0.800936,2.739216,-0.078981,3.318963,5.269200,-1.638828,-16.730814,-37.326543,29.614077,0.269382,-0.080816,0.000000,0.444315,-0.308556,0.000000
2.850000,-0.296685,-0.108330,-1.949092,1.758086,-0.079940,-0.094014,0.833286,2.790043,-0.093891,3.147657,4.897825,-1.335797,-17.517935,-36.897806,31.003500,0.273676,-0.083940,0.000000,0.415038,-0.292992,0.000000
2.860000,-0.279063,-0.108990,-1.950037,1.766576,-0.051795,-0.095020,0.863889,2.837173,-0.105697,2.968604,4.531244,-1.018758,-18.298730,-36.384225,32.250254,0.277685,-0.086904,0.000000,0.387335,-0.277203,0.000000
2.870000,-0.261354,-0.109366,-1.950993,1.775364,-0.023197,-0.096128,0.892658,2.880668,-0.114266,2.781683,4.170140,-0.690792,-18.997252,-35.955410,33.063843,0.281425,-0.089706,0.000000,0.361133,-0.261137,0.000000
2.880000,-0.243555,-0.109454,-1.951960,1.784430,0.005818,-0.097305,0.919522,2.920576,-0.119513,2.588659,3.812135,-0.357481,-19.564628,-35.678861,33.492624,0.284910,-0.092342,0.000000,0.335998,-0.244894,0.000000
2.890000,-0.225665,-0.109249,-1.952939,1.793754,0.035215,-0.098518,0.944432,2.956911,-0.121415,2.390390,3.456563,-0.020940,-20.117389,-35.325239,33.905326,0.288147,-0.094810,0.000000,0.311750,-0.228508,-0.000000
2.900000,-0.207680,-0.108749,-1.953930,1.803318,0.064956,-0.099733,0.967330,2.989707,-0.119932,2.186311,3.105631,0.320625,-20.688909,-34.765915,34.406260,0.291146,-0.097109,0.000000,0.288585,-0.211910,0.000000
2.910000,-0.189599,-0.107950,-1.954933,1.813101,0.095009,-0.100917,0.988158,3.019023,-0.115003,1.976612,2.761244,0.667185,-21.197773,-34.177660,34.734503,0.293920,-0.099235,0.000000,0.266620,-0.195086,-0.000000
2.920000,-0.171418,-0.106849,-1.955948,1.823081,0.125337,-0.102033,1.006862,3.044932,-0.106588,1.762356,2.422078,1.015315,-21.592460,-33.889775,34.625620,0.296480,-0.101186,0.000000,0.245580,-0.178071,0.000000
2.930000,-0.153137,-0.105443,-1.956974,1.833238,0.155907,-0.103048,1.023405,3.067465,-0.094697,1.544763,2.083449,1.359698,-21.901657,-33.870286,34.147781,0.298833,-0.102960,0.000000,0.224830,-0.160888,0.000000
2.940000,-0.134754,-0.103731,-1.958009,1.843550,0.186686,-0.103927,1.037758,3.086601,-0.079394,1.324323,1.744672,1.698271,-22.190539,-33.688744,33.640524,0.300978,-0.104554,0.000000,0.204191,-0.143524,-0.000000
2.950000,-0.116266,-0.101710,-1.959053,1.853993,0.217639,-0.104636,1.049891,3.102358,-0.060731,1.100952,1.409674,2.032508,-22.455752,-33.229050,33.202359,0.302917,-0.105966,0.000000,0.184008,-0.125939,0.000000
2.960000,-0.097674,-0.099378,-1.960102,1.864547,0.248733,-0.105142,1.059777,3.114794,-0.038744,0.875208,1.080091,2.362318,-22.656680,-32.791530,32.600303,0.304658,-0.107193,0.000000,0.164373,-0.108142,-0.000000
2.970000,-0.078975,-0.096735,-1.961155,1.875189,0.279935,-0.105411,1.067396,3.123960,-0.013485,0.647818,0.753844,2.684514,-22.810574,-32.647116,31.590610,0.306205,-0.108233,0.000000,0.144951,-0.090126,0.000000
2.980000,-0.060170,-0.093779,-1.962210,1.885895,0.311213,-0.105411,1.072733,3.129871,0.014946,0.418996,0.427148,2.994130,-22.934975,-32.708432,30.238824,0.307558,-0.109083,0.000000,0.125192,-0.071814,0.000000
2.990000,-0.041257,-0.090511,-1.963264,1.896644,0.342533,-0.105112,1.075775,3.132503,0.046398,0.189119,0.099675,3.289291,-23.005131,-32.626791,28.867621,0.308709,-0.109740,0.000000,0.104950,-0.053173,-0.000000
3.000000,-0.022237,-0.086929,-1.964312,1.907411,0.373863,-0.104484,1.076516,3.131865,0.080732,-0.041106,-0.225387,3.571483,-23.010437,-32.324142,27.571760,0.309656,-0.110199,0.000000,0.084501,-0.034242,0.000000
3.010000,-0.003109,-0.083034,-1.965353,1.918174,0.405170,-0.103497,1.074953,3.127995,0.117827,-0.271090,-0.546808,3.840726,-22.970878,-32.033866,26.136749,0.310399,-0.110458,0.000000,0.063901,-0.015032,-0.000000
3.020000,0.016126,-0.078825,-1.966382,1.928910,0.436423,-0.102127,1.071094,3.120928,0.157547,-0.500524,-0.866065,4.094218,-22.910219,-31.936350,24.343884,0.310934,-0.110514,0.000000,0.042872,0.004502,0.000000
3.030000,0.035469,-0.074305,-1.967396,1.939596,0.467589,-0.100347,1.064943,3.110674,0.199712,-0.729294,-1.185535,4.327604,-22.823962,-31.953059,22.260331,0.311256,-0.110363,0.000000,0.021001,0.024438,0.000000
3.040000,0.054918,-0.069474,-1.968389,1.950209,0.498636,-0.098133,1.056508,3.097218,0.244099,-0.957003,-1.505126,4.539424,-22.683581,-31.846614,20.184220,0.311353,-0.109999,0.000000,-0.001814,0.044796,0.000000
3.050000,0.074473,-0.064332,-1.969358,1.960726,0.529533,-0.095465,1.045803,3.080571,0.290500,-1.182966,-1.822467,4.731288,-22.486372,-31.588794,18.196475,0.311218,-0.109420,0.000000,-0.025369,0.065529,0.000000
3.060000,0.094133,-0.058883,-1.970299,1.971125,0.560247,-0.092323,1.032849,3.060768,0.338725,-1.406731,-2.136902,4.903354,-22.253119,-31.329233,16.106464,0.310844,-0.108621,0.000000,-0.049659,0.086627,0.000000
3.070000,0.113896,-0.053127,-1.971205,1.981383,0.590748,-0.088690,1.017668,3.037833,0.388567,-1.628028,-2.449052,5.053417,-21.991204,-31.108346,13.745621,0.310223,-0.107599,0.000000,-0.074868,0.108119,0.000000
3.080000,0.133761,-0.047068,-1.972072,1.991478,0.621004,-0.084551,1.000288,3.011787,0.439793,-1.846555,-2.759069,5.178266,-21.694693,-30.860422,11.182573,0.309345,-0.106349,0.000000,-0.101171,0.130036,0.000000
3.090000,0.153725,-0.040707,-1.972896,2.001389,0.650984,-0.079894,0.980737,2.982652,0.492133,-2.061922,-3.066260,5.277069,-21.357140,-30.530392,8.655284,0.308198,-0.104867,0.000000,-0.128587,0.152372,0.000000
3.100000,0.173788,-0.034048,-1.973670,2.011093,0.680657,-0.074709,0.959050,2.950462,0.545334,-2.273697,-3.369676,5.351372,-20.979552,-30.162442,6.217140,0.306771,-0.103150,0.000000,-0.157030,0.175081,0.000000
3.110000,0.193947,-0.027094,-1.974390,2.020570,0.709993,-0.068988,0.935263,2.915259,0.599160,-2.481513,-3.669509,5.401412,-20.567295,-29.776742,3.725149,0.305055,-0.101193,0.000000,-0.186559,0.198135,0.000000
3.120000,0.214200,-0.019848,-1.975050,2.029798,0.738962,-0.062726,0.909419,2.877072,0.653363,-2.685043,-3.965211,5.425875,-20.121537,-29.229287,1.090748,0.303038,-0.098993,0.000000,-0.217206,0.221518,0.000000
3.130000,0.234543,-0.012315,-1.975645,2.038758,0.767535,-0.055920,0.881562,2.835954,0.707678,-2.883944,-4.254095,5.423227,-19.641879,-28.481999,-1.624271,0.300709,-0.096549,0.000000,-0.248784,0.245204,0.000000
3.140000,0.254975,-0.004498,-1.976168,2.047429,0.795681,-0.048572,0.851740,2.791990,0.761827,-3.077881,-4.534851,5.393389,-19.128715,-27.725491,-4.283107,0.298060,-0.093857,0.000000,-0.281183,0.269146,-0.000000
3.150000,0.275492,0.003599,-1.976616,2.055793,0.823374,-0.040684,0.820005,2.745257,0.815545,-3.266518,-4.808605,5.337564,-18.579412,-27.102538,-6.864323,0.295082,-0.090916,0.000000,-0.314486,0.293273,0.000000
3.160000,0.296091,0.011970,-1.976982,2.063829,0.850587,-0.032261,0.786410,2.695818,0.868578,-3.449469,-5.076902,5.256103,-17.995094,-26.464591,-9.437679,0.291767,-0.087726,0.000000,-0.348839,0.317509,-0.000000
3.170000,0.316768,0.020610,-1.977261,2.071521,0.877291,-0.023312,0.751015,2.643719,0.920667,-3.626420,-5.337897,5.148811,-17.386441,-25.426449,-12.008665,0.288103,-0.084285,0.000000,-0.384050,0.341781,0.000000
3.180000,0.337521,0.029516,-1.977448,2.078850,0.903461,-0.013848,0.713882,2.589060,0.971555,-3.797198,-5.585431,5.015930,-16.750822,-24.010484,-14.528080,0.284084,-0.080595,0.000000,-0.419442,0.366014,0.000000
3.190000,0.358345,0.038680,-1.977538,2.085799,0.929072,-0.003881,0.675071,2.532011,1.020986,-3.961437,-5.818106,4.858249,-16.076053,-22.730623,-16.966290,0.279712,-0.076658,0.000000,-0.454776,0.390100,-0.000000
3.200000,0.379237,0.048097,-1.977526,2.092351,0.954101,0.006572,0.634653,2.472698,1.068720,-4.118719,-6.040043,4.676604,-15.387276,-21.712032,-19.368897,0.274986,-0.072477,0.000000,-0.490380,0.413912,0.000000
3.210000,0.400192,0.057762,-1.977407,2.098492,0.978526,0.017493,0.592697,2.411210,1.114518,-4.269182,-6.252347,4.470871,-14.691779,-20.600960,-21.728132,0.269902,-0.068056,0.000000,-0.526288,0.437382,-0.000000
3.220000,0.421207,0.067667,-1.977176,2.104205,1.002325,0.028862,0.549269,2.347651,1.158137,-4.412555,-6.452063,4.242041,-13.916528,-19.130374,-23.867516,0.264458,-0.063401,0.000000,-0.562052,0.460380,0.000000
3.230000,0.442276,0.077808,-1.976830,2.109477,1.025479,0.040656,0.504446,2.282169,1.199359,-4.547513,-6.634954,3.993521,-13.054444,-17.412349,-25.751666,0.258660,-0.058517,0.000000,-0.596990,0.482635,0.000000
3.240000,0.463397,0.088177,-1.976363,2.114294,1.047969,0.052850,0.458319,2.214952,1.238007,-4.673643,-6.800310,3.727008,-12.209897,-15.789578,-27.598306,0.252518,-0.053416,0.000000,-0.630820,0.503981,0.000000
3.250000,0.484562,0.098768,-1.975773,2.118643,1.069778,0.065416,0.410973,2.146162,1.273899,-4.791711,-6.950746,3.441555,-11.416657,-14.317627,-29.527668,0.246043,-0.048108,0.000000,-0.663690,0.524399,-0.000000
3.260000,0.505769,0.109573,-1.975055,2.122514,1.090892,0.078328,0.362485,2.075937,1.306838,-4.901977,-7.086662,3.136454,-10.604528,-12.773287,-31.364171,0.239244,-0.042604,0.000000,-0.695490,0.543804,0.000000
3.270000,0.527013,0.120585,-1.974206,2.125893,1.111297,0.091553,0.312933,2.004429,1.336628,-5.003801,-7.206212,2.814271,-9.705801,-11.039990,-32.767929,0.232134,-0.036915,0.000000,-0.725761,0.561989,-0.000000
3.280000,0.548287,0.131799,-1.973224,2.128772,1.130981,0.105060,0.262409,1.931813,1.363124,-5.096093,-7.307462,2.481096,-8.745966,-9.197232,-33.759916,0.224730,-0.031056,0.000000,-0.753936,0.578686,0.000000
3.290000,0.569588,0.143205,-1.972105,2.131141,1.149933,0.118815,0.211012,1.858280,1.386250,-5.178720,-7.390156,2.139073,-7.816452,-7.399803,-34.775746,0.217057,-0.025044,0.000000,-0.779744,0.593766,0.000000
3.300000,0.590910,0.154797,-1.970847,2.132992,1.168146,0.132785,0.158834,1.784010,1.405905,-5.252422,-7.455458,1.785581,-6.919326,-5.672365,-35.957429,0.209137,-0.018897,0.000000,-0.803199,0.607221,0.000000
3.310000,0.612248,0.166568,-1.969449,2.134318,1.185613,0.146934,0.105963,1.709171,1.421962,-5.317107,-7.503604,1.419925,-5.998185,-3.923558,-36.991087,0.200995,-0.012632,0.000000,-0.824160,0.618936,0.000000
3.320000,0.633596,0.178509,-1.967909,2.135112,1.202330,0.161224,0.052492,1.633938,1.434304,-5.372385,-7.533929,1.045759,-5.066829,-2.111402,-37.516113,0.192657,-0.006267,0.000000,-0.842288,0.628766,0.000000
3.330000,0.654950,0.190614,-1.966225,2.135368,1.218292,0.175620,-0.001485,1.558492,1.442877,-5.418444,-7.545832,0.669602,-4.148686,-0.282541,-37.611404,0.184153,0.000177,0.000000,-0.857218,0.636652,-0.000000
3.340000,0.676304,0.202875,-1.964396,2.135082,1.233499,0.190082,-0.055877,1.483021,1.447696,-5.455359,-7.539580,0.293531,-3.225949,1.497359,-37.739796,0.175517,0.006682,0.000000,-0.868819,0.642555,0.000000
3.350000,0.697652,0.215284,-1.962423,2.134250,1.247952,0.204574,-0.110592,1.407700,1.448748,-5.482963,-7.515884,-0.085194,-2.299521,3.265242,-38.019112,0.166781,0.013226,0.000000,-0.877133,0.646413,0.000000
3.360000,0.718989,0.227834,-1.960305,2.132870,1.261653,0.219057,-0.165536,1.332703,1.445992,-5.501350,-7.474275,-0.466851,-1.386594,5.047216,-38.130170,0.157979,0.019789,0.000000,-0.882026,0.648205,0.000000
3.370000,0.740309,0.240518,-1.958042,2.130940,1.274606,0.233493,-0.220619,1.258215,1.439410,-5.510694,-7.414940,-0.847797,-0.482518,6.705980,-37.788927,0.149146,0.026350,0.000000,-0.883393,0.647941,0.000000
3.380000,0.761608,0.253327,-1.955635,2.128458,1.286818,0.247845,-0.275750,1.184404,1.429036,-5.511000,-7.340156,-1.222630,0.411519,8.214788,-37.090423,0.140316,0.032890,0.000000,-0.881391,0.645647,0.000000
3.390000,0.782878,0.266254,-1.953085,2.125425,1.298295,0.262074,-0.330839,1.111412,1.414958,-5.502464,-7.250644,-1.589605,1.282268,9.748531,-36.402479,0.131523,0.039388,0.000000,-0.876102,0.641388,0.000000
3.400000,0.804116,0.279292,-1.950393,2.121841,1.309046,0.276144,-0.385799,1.039392,1.397244,-5.485355,-7.145185,-1.950679,2.153675,11.337459,-35.804479,0.122799,0.045827,0.000000,-0.867462,0.635229,0.000000
3.410000,0.825315,0.292435,-1.947562,2.117709,1.319082,0.290019,-0.440546,0.968508,1.375944,-5.459391,-7.023895,-2.305695,3.028139,12.849612,-35.052561,0.114178,0.052187,0.000000,-0.855548,0.627190,0.000000
3.420000,0.846470,0.305674,-1.944593,2.113030,1.328416,0.303663,-0.494987,0.898914,1.351130,-5.424792,-6.888193,-2.651730,3.821563,14.216209,-33.968664,0.105692,0.058450,0.000000,-0.840576,0.617379,-0.000000
3.430000,0.867576,0.319003,-1.941489,2.107809,1.337061,0.317042,-0.549042,0.830744,1.322910,-5.382959,-6.739571,-2.985068,4.524855,15.464223,-32.634021,0.097370,0.064601,0.000000,-0.822793,0.606067,0.000000
3.440000,0.888626,0.332415,-1.938252,2.102049,1.345031,0.330121,-0.602646,0.764122,1.291429,-5.334295,-6.578908,-3.304411,5.249326,16.664860,-31.285741,0.089239,0.070627,0.000000,-0.802432,0.593401,0.000000
3.450000,0.909617,0.345904,-1.934886,2.095756,1.352343,0.342870,-0.655728,0.699166,1.256821,-5.277973,-6.406274,-3.610783,6.018706,17.878260,-29.973504,0.081325,0.076515,0.000000,-0.779662,0.579375,0.000000
3.460000,0.930542,0.359462,-1.931395,2.088935,1.359014,0.355258,-0.708206,0.635997,1.219213,-5.213921,-6.221343,-3.903881,6.753252,19.043508,-28.548710,0.073649,0.082252,0.000000,-0.754600,0.564081,-0.000000
3.470000,0.951395,0.373084,-1.927781,2.081592,1.365063,0.367254,-0.760006,0.574739,1.178744,-5.142908,-6.025404,-4.181757,7.403334,19.965188,-26.912068,0.066234,0.087826,0.000000,-0.727543,0.547727,0.000000
3.480000,0.972173,0.386763,-1.924050,2.073735,1.370509,0.378833,-0.811064,0.515489,1.135578,-5.065854,-5.822039,-4.442122,7.989904,20.644150,-25.121511,0.059099,0.093230,0.000000,-0.699051,0.530544,-0.000000
3.490000,0.992870,0.400494,-1.920205,2.065371,1.375373,0.389966,-0.861323,0.458298,1.089901,-4.983110,-5.612521,-4.684188,8.572055,21.336463,-23.319235,0.052254,0.098455,0.000000,-0.669430,0.512683,-0.000000
3.500000,1.013481,0.414271,-1.916250,2.056508,1.379675,0.400631,-0.910726,0.403238,1.041894,-4.894413,-5.395310,-4.908507,9.176102,22.115232,-21.525676,0.045711,0.103497,0.000000,-0.638663,0.494206,0.000000
3.510000,1.034000,0.428088,-1.912192,2.047156,1.383438,0.410804,-0.959211,0.350392,0.991731,-4.799588,-5.170216,-5.114701,9.759507,22.798250,-19.660920,0.039481,0.108349,0.000000,-0.606877,0.475189,0.000000
3.520000,1.054424,0.441940,-1.908034,2.037324,1.386683,0.420465,-1.006718,0.299834,0.939600,-4.699223,-4.939345,-5.301725,10.245453,23.213144,-17.709184,0.033573,0.113008,0.000000,-0.574447,0.455801,0.000000
3.530000,1.074747,0.455821,-1.903783,2.027022,1.389434,0.429596,-1.053196,0.251605,0.885697,-4.594679,-4.705953,-5.468885,10.644723,23.408319,-15.713639,0.027992,0.117471,0.000000,-0.541860,0.436280,0.000000
3.540000,1.094964,0.469728,-1.899442,2.016260,1.391715,0.438179,-1.098611,0.205715,0.830222,-4.486328,-4.471179,-5.615998,11.058816,23.603353,-13.709517,0.022735,0.121738,0.000000,-0.509349,0.416743,-0.000000
3.550000,1.115072,0.483656,-1.895019,2.005050,1.393549,0.446200,-1.142922,0.162182,0.773377,-4.373502,-4.233886,-5.743075,11.500815,23.861845,-11.679157,0.017803,0.125809,0.000000,-0.476882,0.397178,0.000000
3.560000,1.135065,0.497599,-1.890518,1.993402,1.394959,0.453647,-1.186081,0.121037,0.715361,-4.256312,-3.993942,-5.849581,11.902317,24.032888,-9.618025,0.013196,0.129684,0.000000,-0.444527,0.377664,0.000000
3.570000,1.154940,0.511555,-1.885946,1.981328,1.395969,0.460508,-1.228049,0.082303,0.656385,-4.135456,-3.753228,-5.935436,12.243610,23.956151,-7.608390,0.008911,0.133364,0.000000,-0.412560,0.358327,0.000000
3.580000,1.174692,0.525519,-1.881308,1.968841,1.396605,0.466774,-1.268790,0.045973,0.596652,-4.011440,-3.514819,-6.001749,12.554207,23.669799,-5.674158,0.004943,0.136851,0.000000,-0.381367,0.339248,0.000000
3.590000,1.194317,0.539487,-1.876611,1.955952,1.396889,0.472441,-1.308277,0.012007,0.536350,-3.884372,-3.279832,-6.048919,12.854848,23.386781,-3.721168,0.001282,0.140150,0.000000,-0.351098,0.320464,-0.000000
3.600000,1.213811,0.553456,-1.871859,1.942675,1.396845,0.477501,-1.346478,-0.019624,0.475674,-3.754343,-3.047083,-6.076172,13.103935,23.197227,-1.696917,-0.002081,0.143262,0.000000,-0.321648,0.302024,0.000000
3.610000,1.233170,0.567424,-1.867061,1.929023,1.396496,0.481954,-1.383364,-0.048935,0.414827,-3.622293,-2.815888,-6.082857,13.292657,22.957014,0.315629,-0.005153,0.146192,0.000000,-0.292960,0.284055,0.000000
3.620000,1.252391,0.581386,-1.862220,1.915008,1.395866,0.485798,-1.418924,-0.075942,0.354017,-3.488490,-2.587943,-6.069860,13.538187,22.442595,2.155235,-0.007942,0.148944,0.000000,-0.265220,0.266586,0.000000
3.630000,1.271471,0.595341,-1.857345,1.900644,1.394977,0.489034,-1.453134,-0.100694,0.293430,-3.351529,-2.367036,-6.039752,13.841409,21.708071,3.828806,-0.010459,0.151525,0.000000,-0.238815,0.249439,0.000000
3.640000,1.290404,0.609286,-1.852440,1.885945,1.393852,0.491667,-1.485954,-0.123283,0.233222,-3.211661,-2.153781,-5.993284,14.042241,21.056475,5.534673,-0.012720,0.153935,0.000000,-0.213782,0.232636,0.000000
3.650000,1.309189,0.623218,-1.847511,1.870925,1.392512,0.493699,-1.517367,-0.143770,0.173564,-3.070685,-1.945906,-5.929059,14.174781,20.466289,7.324221,-0.014737,0.156179,0.000000,-0.189863,0.216382,-0.000000
3.660000,1.327823,0.637136,-1.842566,1.855598,1.390977,0.495138,-1.547368,-0.162201,0.114640,-2.928166,-1.744456,-5.846799,14.343042,19.747262,9.049061,-0.016519,0.158264,0.000000,-0.167141,0.200632,0.000000
3.670000,1.346301,0.651038,-1.837609,1.839978,1.389268,0.495992,-1.575930,-0.178659,0.056628,-2.783824,-1.550961,-5.748078,14.409776,19.029974,10.569658,-0.018081,0.160194,0.000000,-0.145736,0.185327,0.000000
3.680000,1.364622,0.664921,-1.832646,1.824079,1.387404,0.496270,-1.603044,-0.193220,-0.000321,-2.639970,-1.363856,-5.635406,14.331687,18.395808,11.918395,-0.019435,0.161972,0.000000,-0.125448,0.170647,0.000000
3.690000,1.382783,0.678786,-1.827683,1.807917,1.385403,0.495985,-1.628730,-0.205936,-0.056080,-2.497190,-1.183045,-5.509710,14.307527,17.660306,13.263365,-0.020591,0.163608,0.000000,-0.106231,0.156615,0.000000
3.700000,1.400781,0.692630,-1.822726,1.791505,1.383285,0.495149,-1.652988,-0.216881,-0.110515,-2.353820,-1.010650,-5.370139,14.372004,16.785768,14.660767,-0.021561,0.165106,0.000000,-0.088261,0.143066,0.000000
3.710000,1.418613,0.706452,-1.817780,1.774857,1.381066,0.493775,-1.675806,-0.226149,-0.163483,-2.209750,-0.847330,-5.216494,14.389151,15.909953,15.986677,-0.022358,0.166471,0.000000,-0.071564,0.129976,-0.000000
3.720000,1.436278,0.720251,-1.812851,1.757988,1.378762,0.491879,-1.697183,-0.233827,-0.214845,-2.066037,-0.692451,-5.050405,14.320591,15.092141,17.080072,-0.022993,0.167708,0.000000,-0.056032,0.117404,0.000000
3.730000,1.453773,0.734027,-1.807943,1.740913,1.376389,0.489478,-1.717127,-0.239998,-0.264491,-1.923338,-0.545487,-4.874893,14.220064,14.290505,17.967325,-0.023479,0.168821,0.000000,-0.041568,0.105347,-0.000000
3.740000,1.471096,0.747779,-1.803061,1.723646,1.373962,0.486589,-1.735650,-0.244737,-0.312343,-1.781635,-0.406641,-4.691059,14.129362,13.446964,18.853375,-0.023826,0.169816,0.000000,-0.028152,0.093762,0.000000
3.750000,1.488246,0.761506,-1.798211,1.706200,1.371494,0.483231,-1.752760,-0.248131,-0.358312,-1.640751,-0.276548,-4.497826,14.004823,12.578243,19.798397,-0.024043,0.170697,0.000000,-0.015813,0.082632,0.000000
3.760000,1.505220,0.775209,-1.793396,1.688591,1.368999,0.479423,-1.768465,-0.250268,-0.402300,-1.501539,-0.155076,-4.295091,13.825812,11.728079,20.657593,-0.024142,0.171470,0.000000,-0.004503,0.072019,0.000000
3.770000,1.522018,0.788886,-1.788622,1.670831,1.366489,0.475185,-1.782790,-0.251232,-0.444214,-1.364235,-0.041986,-4.084674,13.714126,10.869492,21.278673,-0.024134,0.172139,0.000000,0.005838,0.061897,-0.000000
3.780000,1.538637,0.802538,-1.783893,1.652935,1.363975,0.470539,-1.795750,-0.251108,-0.483993,-1.227256,0.062314,-3.869517,13.681155,9.998279,21.701261,-0.024026,0.172708,0.000000,0.015206,0.052047,-0.000000
3.790000,1.555076,0.816165,-1.779212,1.634916,1.361467,0.465505,-1.807336,-0.249986,-0.521604,-1.090611,0.157980,-3.650648,13.560144,9.163275,22.121429,-0.023830,0.173180,0.000000,0.023648,0.042438,0.000000
3.800000,1.571335,0.829768,-1.774583,1.616788,1.358975,0.460107,-1.817562,-0.247948,-0.557006,-0.956054,0.245579,-3.427089,13.347805,8.326215,22.582172,-0.023553,0.173558,0.000000,0.031240,0.033233,0.000000
3.810000,1.587412,0.843345,-1.770009,1.598565,1.356508,0.454365,-1.826457,-0.245074,-0.590146,-0.823655,0.324504,-3.199005,13.157186,7.464334,22.950442,-0.023205,0.173846,0.000000,0.037950,0.024418,-0.000000
3.820000,1.603306,0.856898,-1.765495,1.580259,1.354074,0.448304,-1.834035,-0.241458,-0.620986,-0.692910,0.394866,-2.968080,12.958774,6.720042,23.127342,-0.022794,0.174047,0.000000,0.043811,0.015902,0.000000
3.830000,1.619017,0.870426,-1.761043,1.561884,1.351679,0.441945,-1.840315,-0.237177,-0.649508,-0.564480,0.458905,-2.736458,12.711134,6.115542,23.155094,-0.022329,0.174164,0.000000,0.049059,0.007696,0.000000
3.840000,1.634544,0.883931,-1.756656,1.543453,1.349330,0.435314,-1.845325,-0.232280,-0.675715,-0.438687,0.517177,-2.504978,12.465863,5.459574,23.161666,-0.021813,0.174201,0.000000,0.053761,-0.000199,0.000000
3.850000,1.649886,0.897413,-1.752337,1.524978,1.347033,0.428431,-1.849089,-0.226833,-0.699607,-0.315163,0.568096,-2.273225,12.239733,4.705478,23.171905,-0.021254,0.174160,0.000000,0.057780,-0.007824,0.000000
3.860000,1.665044,0.910872,-1.748088,1.506471,1.344793,0.421321,-1.851628,-0.220918,-0.721180,-0.193892,0.611286,-2.041540,11.996186,3.990268,23.102966,-0.020658,0.174044,0.000000,0.061092,-0.015200,0.000000
3.870000,1.680016,0.924309,-1.743911,1.487945,1.342615,0.414008,-1.852966,-0.214608,-0.740438,-0.075239,0.647902,-1.811166,11.715086,3.412012,22.901055,-0.020032,0.173856,0.000000,0.063819,-0.022325,0.000000
3.880000,1.694802,0.937724,-1.739808,1.469412,1.340501,0.406513,-1.853133,-0.207960,-0.757403,0.040409,0.679527,-1.583519,11.409239,2.932184,22.596352,-0.019381,0.173598,0.000000,0.066118,-0.029198,0.000000
3.890000,1.709404,0.951119,-1.735780,1.450882,1.338456,0.398860,-1.852158,-0.201017,-0.772109,0.152946,0.706545,-1.359238,11.103914,2.431263,22.261985,-0.018709,0.173272,0.000000,0.068030,-0.035831,-0.000000
3.900000,1.723820,0.964493,-1.731830,1.432368,1.336481,0.391070,-1.850074,-0.193829,-0.784588,0.262488,0.728152,-1.138279,10.799632,1.879595,21.906321,-0.018020,0.172881,0.000000,0.069485,-0.042242,0.000000
3.910000,1.738051,0.977849,-1.727959,1.413881,1.334579,0.383168,-1.846909,-0.186454,-0.794874,0.368938,0.744137,-0.921112,10.480828,1.360228,21.486002,-0.017319,0.172427,0.000000,0.070466,-0.048440,-0.000000
3.920000,1.752098,0.991185,-1.724167,1.395430,1.332752,0.375173,-1.842695,-0.178946,-0.803010,0.472104,0.755356,-0.708559,10.148743,0.954517,20.993149,-0.016611,0.171912,0.000000,0.071056,-0.054427,-0.000000
3.930000,1.765960,1.004504,-1.720456,1.377027,1.331000,0.367108,-1.837466,-0.171347,-0.809045,0.571913,0.763228,-0.501249,9.809541,0.639163,20.447441,-0.015898,0.171338,0.000000,0.071388,-0.060214,0.000000
3.940000,1.779638,1.017805,-1.716825,1.358681,1.329325,0.358992,-1.831257,-0.163682,-0.813035,0.668295,0.768140,-0.299610,9.461525,0.309578,19.863759,-0.015183,0.170708,0.000000,0.071497,-0.065808,0.000000
3.950000,1.793133,1.031090,-1.713276,1.340402,1.327727,0.350847,-1.824101,-0.155984,-0.815038,0.761144,0.769419,-0.103974,9.105532,-0.057137,19.242380,-0.014468,0.170022,0.000000,0.071321,-0.071210,0.000000
3.960000,1.806446,1.044360,-1.709808,1.322199,1.326205,0.342691,-1.816034,-0.148293,-0.815115,0.850406,0.766997,0.085237,8.743997,-0.390369,18.579961,-0.013757,0.169283,0.000000,0.070852,-0.076426,-0.000000
3.970000,1.819577,1.057614,-1.706422,1.304081,1.324761,0.334545,-1.807092,-0.140644,-0.813333,0.936024,0.761612,0.267625,8.374245,-0.637296,17.885853,-0.013051,0.168493,0.000000,0.070155,-0.081461,0.000000
3.980000,1.832528,1.070855,-1.703117,1.286057,1.323392,0.326425,-1.797313,-0.133061,-0.809762,1.017890,0.754251,0.442954,7.995903,-0.820949,17.167604,-0.012353,0.167654,0.000000,0.069321,-0.086311,0.000000
3.990000,1.845299,1.084082,-1.699893,1.268135,1.322099,0.318349,-1.786735,-0.125559,-0.804474,1.095942,0.745193,0.610977,7.614547,-1.010003,16.419912,-0.011664,0.166767,0.000000,0.068372,-0.090976,0.000000
4.000000,1.857891,1.097297,-1.696750,1.250322,1.320881,0.310335,-1.775395,-0.118157,-0.797542,1.170181,0.734051,0.771353,7.233606,-1.214799,15.635445,-0.010986,0.165834,0.000000,0.067269,-0.095465,0.000000
4.010000,1.870305,1.110500,-1.693687,1.232627,1.319736,0.302398,-1.763331,-0.110878,-0.789047,1.240614,0.720897,0.923686,6.850293,-1.391381,14.824622,-0.010319,0.164857,0.000000,0.066015,-0.099784,-0.000000
4.020000,1.882543,1.123691,-1.690702,1.215056,1.318664,0.294554,-1.750582,-0.103739,-0.779069,1.307187,0.706223,1.067845,6.458804,-1.520249,14.019593,-0.009665,0.163838,0.000000,0.064654,-0.103930,-0.000000
4.030000,1.894606,1.136873,-1.687796,1.197615,1.317661,0.286817,-1.737187,-0.096754,-0.767690,1.369790,0.690492,1.204078,6.060933,-1.618479,13.223990,-0.009026,0.162778,0.000000,0.063223,-0.107889,0.000000
4.040000,1.906495,1.150045,-1.684966,1.180312,1.316728,0.279201,-1.723186,-0.089930,-0.754987,1.428406,0.673854,1.332325,5.666130,-1.712535,12.401787,-0.008401,0.161680,0.000000,0.061733,-0.111659,0.000000
4.050000,1.918212,1.163208,-1.682212,1.163152,1.315863,0.271717,-1.708619,-0.083277,-0.741043,1.483113,0.656241,1.452114,5.275545,-1.801711,11.541007,-0.007791,0.160545,0.000000,0.060176,-0.115252,0.000000
4.060000,1.929758,1.176362,-1.679531,1.146140,1.315063,0.264380,-1.693524,-0.076805,-0.725945,1.533917,0.637820,1.563145,4.884180,-1.871820,10.672301,-0.007197,0.159375,0.000000,0.058562,-0.118672,0.000000
4.070000,1.941135,1.189509,-1.676924,1.129281,1.314327,0.257198,-1.677941,-0.070520,-0.709780,1.580796,0.618805,1.665560,4.493241,-1.931116,9.834839,-0.006620,0.158171,0.000000,0.056909,-0.121911,0.000000
4.080000,1.952344,1.202649,-1.674388,1.112581,1.313653,0.250184,-1.661908,-0.064429,-0.692634,1.623782,0.599197,1.759842,4.105755,-1.988613,9.024639,-0.006059,0.156936,0.000000,0.055214,-0.124961,-0.000000
4.090000,1.963387,1.215782,-1.671920,1.096043,1.313038,0.243346,-1.645465,-0.058536,-0.674583,1.662911,0.579032,1.846053,3.721425,-2.035439,8.196821,-0.005516,0.155672,0.000000,0.053476,-0.127822,-0.000000
4.100000,1.974265,1.228909,-1.669521,1.079672,1.312482,0.236692,-1.628650,-0.052848,-0.655713,1.698210,0.558488,1.923778,3.339497,-2.061532,7.340187,-0.004990,0.154379,0.000000,0.051709,-0.130497,0.000000
4.110000,1.984980,1.242031,-1.667186,1.063470,1.311981,0.230232,-1.611501,-0.047367,-0.636108,1.729701,0.537802,1.992856,2.961717,-2.076898,6.490086,-0.004481,0.153061,0.000000,0.049934,-0.132987,-0.000000
4.120000,1.995534,1.255149,-1.664916,1.047442,1.311534,0.223970,-1.594056,-0.042092,-0.615855,1.757444,0.516950,2.053580,2.592404,-2.112967,5.682313,-0.003991,0.151720,0.000000,0.048145,-0.135287,0.000000
4.130000,2.005929,1.268262,-1.662707,1.031589,1.311139,0.217914,-1.576352,-0.037028,-0.595036,1.781549,0.495542,2.106503,2.232545,-2.171248,4.910447,-0.003518,0.150356,0.000000,0.046302,-0.137395,-0.000000
4.140000,2.016166,1.281372,-1.660558,1.015914,1.310794,0.212069,-1.558425,-0.032181,-0.573725,1.802095,0.473526,2.151789,1.878064,-2.212553,4.133421,-0.003065,0.148972,0.000000,0.044398,-0.139310,0.000000
4.150000,2.026247,1.294478,-1.658466,1.000420,1.310496,0.206440,-1.540310,-0.027557,-0.552001,1.819111,0.451291,2.189171,1.526450,-2.222153,3.339657,-0.002631,0.147569,0.000000,0.042468,-0.141034,0.000000
4.160000,2.036175,1.307582,-1.656429,0.985108,1.310243,0.201029,-1.522043,-0.023155,-0.529942,1.832624,0.429082,2.218582,1.181990,-2.229865,2.560943,-0.002216,0.146151,0.000000,0.040533,-0.142564,-0.000000
4.170000,2.045950,1.320683,-1.654445,0.969980,1.310033,0.195841,-1.503658,-0.018975,-0.507629,1.842750,0.406694,2.240390,0.853990,-2.275767,1.833930,-0.001820,0.144718,0.000000,0.038572,-0.143900,-0.000000
4.180000,2.055574,1.333782,-1.652512,0.955035,1.309863,0.190877,-1.485188,-0.015021,-0.485134,1.849704,0.383567,2.255261,0.542896,-2.353918,1.152874,-0.001444,0.143273,0.000000,0.036529,-0.145047,0.000000
4.190000,2.065050,1.346880,-1.650628,0.940276,1.309732,0.186138,-1.466664,-0.011304,-0.462524,1.853608,0.359616,2.263447,0.237747,-2.413894,0.473827,-0.001089,0.141817,0.000000,0.034393,-0.146008,-0.000000
4.200000,2.074380,1.359977,-1.648789,0.925702,1.309637,0.181626,-1.448116,-0.007829,-0.439865,1.854459,0.335289,2.264737,-0.066683,-2.441753,-0.216225,-0.000756,0.140353,0.000000,0.032207,-0.146779,0.000000
4.210000,2.083564,1.373073,-1.646995,0.911313,1.309576,0.177341,-1.429574,-0.004598,-0.417229,1.852275,0.310781,2.259123,-0.361540,-2.473602,-0.884336,-0.000445,0.138881,0.000000,0.029987,-0.147356,0.000000
4.220000,2.092606,1.386168,-1.645242,0.897110,1.309545,0.173282,-1.411070,-0.001614,-0.394683,1.847228,0.285817,2.247050,-0.631218,-2.545351,-1.492981,-0.000157,0.137405,0.000000,0.027707,-0.147745,0.000000
4.230000,2.101506,1.399264,-1.643529,0.883092,1.309543,0.169447,-1.392630,0.001118,-0.372288,1.839650,0.259874,2.229263,-0.876836,-2.647618,-2.049249,0.000109,0.135926,0.000000,0.025313,-0.147960,0.000000
4.240000,2.110268,1.412359,-1.641854,0.869258,1.309568,0.165836,-1.374277,0.003584,-0.350098,1.829692,0.232865,2.206065,-1.118037,-2.735022,-2.599401,0.000350,0.134446,0.000000,0.022796,-0.148009,0.000000
4.250000,2.118892,1.425455,-1.640213,0.855607,1.309615,0.162445,-1.356036,0.005775,-0.328167,1.817290,0.205173,2.177275,-1.360749,-2.796005,-3.155623,0.000565,0.132966,0.000000,0.020191,-0.147881,0.000000
4.260000,2.127380,1.438552,-1.638605,0.842137,1.309683,0.159273,-1.337931,0.007687,-0.306552,1.802477,0.176945,2.142953,-1.590630,-2.862001,-3.684516,0.000753,0.131489,0.000000,0.017514,-0.147575,-0.000000
4.270000,2.135734,1.451649,-1.637027,0.828848,1.309769,0.156314,-1.319987,0.009314,-0.285308,1.785477,0.147933,2.103585,-1.792220,-2.962047,-4.153284,0.000915,0.130015,0.000000,0.014738,-0.147102,0.000000
4.280000,2.143957,1.464747,-1.635478,0.815737,1.309869,0.153567,-1.302222,0.010646,-0.264480,1.766632,0.117704,2.059887,-1.968884,-3.086969,-4.570250,0.001048,0.128547,0.000000,0.011821,-0.146481,0.000000
4.290000,2.152049,1.477846,-1.633956,0.802803,1.309982,0.151025,-1.284654,0.011668,-0.244110,1.746099,0.086194,2.012180,-2.140096,-3.199306,-4.976358,0.001151,0.127085,0.000000,0.008756,-0.145719,-0.000000
4.300000,2.160013,1.490947,-1.632458,0.790044,1.310103,0.148684,-1.267300,0.012370,-0.224237,1.723830,0.053718,1.960360,-2.311720,-3.291278,-5.382433,0.001223,0.125632,0.000000,0.005573,-0.144810,0.000000
4.310000,2.167850,1.504048,-1.630982,0.777457,1.310229,0.146540,-1.250177,0.012743,-0.204903,1.699865,0.020368,1.904531,-2.470017,-3.387909,-5.759682,0.001263,0.124189,0.000000,0.002281,-0.143754,-0.000000
4.320000,2.175562,1.517151,-1.629527,0.765041,1.310358,0.144586,-1.233303,0.012777,-0.186146,1.674430,-0.014040,1.845166,-2.599731,-3.506653,-6.079892,0.001269,0.122757,0.000000,-0.001138,-0.142563,0.000000
4.330000,2.183151,1.530255,-1.628090,0.752791,1.310485,0.142817,-1.216689,0.012462,-0.167999,1.647870,-0.049765,1.782934,-2.704432,-3.639068,-6.350807,0.001240,0.121338,0.000000,-0.004708,-0.141261,0.000000
4.340000,2.190618,1.543361,-1.626671,0.740707,1.310607,0.141226,-1.200345,0.011782,-0.150487,1.620341,-0.086822,1.718150,-2.803899,-3.762297,-6.608548,0.001174,0.119932,0.000000,-0.008432,-0.139858,0.000000
4.350000,2.197965,1.556468,-1.625266,0.728784,1.310720,0.139807,-1.184282,0.010725,-0.133636,1.591792,-0.125011,1.650763,-2.903607,-3.873116,-6.862616,0.001071,0.118541,0.000000,-0.012288,-0.138347,0.000000
4.360000,2.205194,1.569575,-1.623875,0.717021,1.310821,0.138554,-1.168509,0.009282,-0.117472,1.562269,-0.164284,1.580898,-2.990066,-3.985851,-7.088333,0.000929,0.117166,0.000000,-0.016272,-0.136730,-0.000000
4.370000,2.212305,1.582684,-1.622495,0.705414,1.310906,0.137458,-1.153036,0.007440,-0.102018,1.531991,-0.204728,1.508996,-3.050164,-4.106085,-7.262512,0.000746,0.115807,0.000000,-0.020391,-0.135022,-0.000000
4.380000,2.219302,1.595793,-1.621125,0.693961,1.310970,0.136513,-1.137869,0.005187,-0.087292,1.501266,-0.246406,1.435648,-3.087917,-4.227967,-7.392474,0.000521,0.114465,0.000000,-0.024650,-0.133247,-0.000000
4.390000,2.226185,1.608903,-1.619765,0.682657,1.311010,0.135712,-1.123011,0.002512,-0.073305,1.470233,-0.289287,1.361146,-3.120677,-4.343583,-7.508697,0.000253,0.113142,0.000000,-0.029045,-0.131414,-0.000000
4.400000,2.232955,1.622014,-1.618411,0.671500,1.311020,0.135047,-1.108465,-0.000599,-0.060069,1.438852,-0.333278,1.285474,-3.152728,-4.453623,-7.618755,-0.000060,0.111837,0.000000,-0.033564,-0.129519,0.000000
4.410000,2.239615,1.635124,-1.617064,0.660488,1.310998,0.134511,-1.094234,-0.004154,-0.047596,1.407178,-0.378360,1.208771,-3.172691,-4.561943,-7.702564,-0.000419,0.110552,0.000000,-0.038206,-0.127567,0.000000
4.420000,2.246165,1.648234,-1.615721,0.649616,1.310937,0.134095,-1.080321,-0.008166,-0.035894,1.375399,-0.424516,1.131423,-3.171167,-4.664104,-7.743192,-0.000824,0.109286,0.000000,-0.042965,-0.125572,0.000000
4.430000,2.252607,1.661343,-1.614382,0.638881,1.310834,0.133793,-1.066726,-0.012644,-0.024967,1.343755,-0.471642,1.053907,-3.152019,-4.757133,-7.747331,-0.001278,0.108040,0.000000,-0.047830,-0.123554,0.000000
4.440000,2.258942,1.674450,-1.613045,0.628281,1.310684,0.133596,-1.053446,-0.017599,-0.014816,1.312358,-0.519659,0.976476,-3.128061,-4.845958,-7.737975,-0.001781,0.106815,0.000000,-0.052791,-0.121522,0.000000
4.450000,2.265173,1.687556,-1.611710,0.617812,1.310482,0.133497,-1.040479,-0.023037,-0.005438,1.281193,-0.568561,0.899148,-3.102018,-4.934254,-7.720372,-0.002334,0.105610,0.000000,-0.057845,-0.119475,0.000000
4.460000,2.271299,1.700660,-1.610375,0.607472,1.310224,0.133487,-1.027822,-0.028970,0.003167,1.250318,-0.618344,0.822068,-3.065936,-5.017141,-7.680137,-0.002938,0.104426,0.000000,-0.062991,-0.117419,-0.000000
4.470000,2.277322,1.713761,-1.609040,0.597256,1.309903,0.133560,-1.015473,-0.035404,0.011003,1.219875,-0.668904,0.745545,-3.014840,-5.083143,-7.607075,-0.003594,0.103262,0.000000,-0.068214,-0.115365,-0.000000
4.480000,2.283244,1.726858,-1.607704,0.587162,1.309516,0.133707,-1.003425,-0.042348,0.018078,1.190021,-0.720007,0.669927,-2.951963,-5.132038,-7.506762,-0.004302,0.102118,0.000000,-0.073491,-0.113329,0.000000
4.490000,2.289065,1.739951,-1.606366,0.577187,1.309056,0.133921,-0.991672,-0.049804,0.024402,1.160836,-0.771544,0.595410,-2.884568,-5.177908,-7.393914,-0.005064,0.100995,0.000000,-0.078806,-0.111316,-0.000000
4.500000,2.294788,1.753039,-1.605026,0.567329,1.308519,0.134195,-0.980208,-0.057779,0.029986,1.132330,-0.823565,0.522049,-2.813650,-5.226121,-7.271338,-0.005878,0.099892,0.000000,-0.084165,-0.109330,0.000000
4.510000,2.300412,1.766121,-1.603682,0.557583,1.307901,0.134521,-0.969026,-0.066276,0.034843,1.104563,-0.876067,0.449983,-2.735283,-5.265840,-7.130712,-0.006747,0.098809,0.000000,-0.089563,-0.107376,-0.000000
4.520000,2.305939,1.779197,-1.602335,0.547948,1.307194,0.134892,-0.958117,-0.075300,0.038986,1.077624,-0.928882,0.379434,-2.649021,-5.282096,-6.968502,-0.007670,0.097745,0.000000,-0.094983,-0.105463,0.000000
4.530000,2.311371,1.792265,-1.600984,0.538421,1.306395,0.135301,-0.947473,-0.084853,0.042432,1.051582,-0.981709,0.310613,-2.557088,-5.276865,-6.788836,-0.008646,0.096699,0.000000,-0.100392,-0.103597,0.000000
4.540000,2.316708,1.805325,-1.599629,0.528999,1.305497,0.135741,-0.937085,-0.094934,0.045198,1.026482,-1.034419,0.243658,-2.461009,-5.268920,-6.598085,-0.009677,0.095673,0.000000,-0.105775,-0.101784,0.000000
4.550000,2.321951,1.818375,-1.598269,0.519679,1.304496,0.136205,-0.926943,-0.105542,0.047305,1.002362,-1.087087,0.178652,-2.360256,-5.264105,-6.396857,-0.010762,0.094664,0.000000,-0.111139,-0.100028,0.000000
4.560000,2.327101,1.831415,-1.596905,0.510460,1.303386,0.136687,-0.917038,-0.116676,0.048771,0.979277,-1.139701,0.115721,-2.254891,-5.248853,-6.182705,-0.011900,0.093672,0.000000,-0.116481,-0.098334,0.000000
4.570000,2.332160,1.844443,-1.595536,0.501338,1.302162,0.137180,-0.907358,-0.128336,0.049619,0.957264,-1.192064,0.054997,-2.148275,-5.207751,-5.957800,-0.013091,0.092697,0.000000,-0.121779,-0.096709,0.000000
4.580000,2.337128,1.857458,-1.594161,0.492313,1.300819,0.137679,-0.897893,-0.140517,0.049871,0.936312,-1.243856,-0.003435,-2.041433,-5.143988,-5.724658,-0.014336,0.091738,0.000000,-0.127001,-0.095150,0.000000
4.590000,2.342006,1.870459,-1.592782,0.483381,1.299352,0.138178,-0.888632,-0.153213,0.049550,0.916435,-1.294944,-0.059496,-1.930981,-5.077259,-5.482374,-0.015631,0.090794,0.000000,-0.132132,-0.093660,0.000000
4.600000,2.346796,1.883445,-1.591398,0.474540,1.297755,0.138670,-0.879564,-0.166416,0.048681,0.897692,-1.345402,-0.113083,-1.815777,-5.013658,-5.230046,-0.016978,0.089864,0.000000,-0.137179,-0.092246,0.000000
4.610000,2.351497,1.896414,-1.590009,0.465789,1.296024,0.139151,-0.870678,-0.180121,0.047289,0.880120,-1.395217,-0.164097,-1.699156,-4.939419,-4.970199,-0.018375,0.088949,0.000000,-0.142140,-0.090912,-0.000000
4.620000,2.356111,1.909366,-1.588615,0.457126,1.294153,0.139616,-0.861962,-0.194320,0.045399,0.863709,-1.444190,-0.212487,-1.585561,-4.839140,-4.708520,-0.019821,0.088046,0.000000,-0.146995,-0.089658,-0.000000
4.630000,2.360640,1.922297,-1.587216,0.448550,1.292137,0.140059,-0.853404,-0.209005,0.043039,0.848409,-1.492000,-0.258267,-1.474991,-4.716710,-4.446099,-0.021315,0.087155,0.000000,-0.151712,-0.088480,0.000000
4.640000,2.365082,1.935208,-1.585814,0.440058,1.289973,0.140477,-0.844993,-0.224160,0.040234,0.834209,-1.538524,-0.301409,-1.362732,-4.592253,-4.177517,-0.022855,0.086276,0.000000,-0.156278,-0.087378,0.000000
4.650000,2.369441,1.948097,-1.584407,0.431650,1.287654,0.140864,-0.836719,-0.239775,0.037011,0.821154,-1.583845,-0.341817,-1.246454,-4.469954,-3.899825,-0.024440,0.085407,0.000000,-0.160703,-0.086358,0.000000
4.660000,2.373715,1.960961,-1.582996,0.423324,1.285177,0.141217,-0.828570,-0.255837,0.033398,0.809280,-1.627923,-0.379405,-1.130330,-4.336351,-3.618561,-0.026069,0.084548,0.000000,-0.164982,-0.085423,0.000000
4.670000,2.377907,1.973800,-1.581582,0.415079,1.282537,0.141532,-0.820534,-0.272334,0.029423,0.798547,-1.670572,-0.414189,-1.022245,-4.182441,-3.344849,-0.027740,0.083698,0.000000,-0.169099,-0.084571,0.000000
4.680000,2.382017,1.986612,-1.580166,0.406913,1.279730,0.141805,-0.812599,-0.289249,0.025114,0.788835,-1.711572,-0.446302,-0.922013,-4.012637,-3.078794,-0.029451,0.082856,0.000000,-0.173031,-0.083791,-0.000000
4.690000,2.386045,1.999395,-1.578746,0.398827,1.276752,0.142034,-0.804757,-0.306565,0.020497,0.780107,-1.750825,-0.475765,-0.820041,-3.838739,-2.807515,-0.031200,0.082022,0.000000,-0.176770,-0.083081,0.000000
4.700000,2.389993,2.012147,-1.577325,0.390818,1.273599,0.142215,-0.796997,-0.324265,0.015599,0.772434,-1.788347,-0.502453,-0.712834,-3.663402,-2.527456,-0.032986,0.081194,0.000000,-0.180320,-0.082448,-0.000000
4.710000,2.393862,2.024867,-1.575902,0.382887,1.270267,0.142346,-0.789309,-0.342332,0.010448,0.765850,-1.824093,-0.526314,-0.607727,-3.479160,-2.248942,-0.034807,0.080372,0.000000,-0.183677,-0.081896,0.000000
4.720000,2.397651,2.037553,-1.574478,0.375032,1.266752,0.142424,-0.781680,-0.360747,0.005072,0.760280,-1.857930,-0.547431,-0.514631,-3.280245,-1.983066,-0.036660,0.079555,0.000000,-0.186829,-0.081419,0.000000
4.730000,2.401362,2.050202,-1.573054,0.367253,1.263052,0.142448,-0.774103,-0.379491,-0.000501,0.755558,-1.889698,-0.565975,-0.431940,-3.069337,-1.728044,-0.038543,0.078742,0.000000,-0.189763,-0.081002,0.000000
4.740000,2.404996,2.062814,-1.571629,0.359550,1.259163,0.142414,-0.766569,-0.398541,-0.006247,0.751641,-1.919317,-0.581992,-0.347317,-2.854615,-1.471103,-0.040455,0.077934,0.000000,-0.192471,-0.080643,0.000000
4.750000,2.408553,2.075385,-1.570205,0.351922,1.255081,0.142323,-0.759070,-0.417877,-0.012141,0.748612,-1.946790,-0.595397,-0.258664,-2.638352,-1.208819,-0.042393,0.077128,0.000000,-0.194957,-0.080349,0.000000
4.760000,2.412035,2.087915,-1.568783,0.344369,1.250805,0.142172,-0.751597,-0.437477,-0.018155,0.746468,-1.972084,-0.606169,-0.174735,-2.415695,-0.951088,-0.044354,0.076325,0.000000,-0.197219,-0.080121,0.000000
4.770000,2.415441,2.100401,-1.567362,0.336890,1.246332,0.141960,-0.744141,-0.457319,-0.024264,0.745117,-1.995104,-0.614419,-0.100806,-2.182378,-0.708733,-0.046337,0.075524,0.000000,-0.199250,-0.079951,0.000000
4.780000,2.418772,2.112842,-1.565943,0.329486,1.241659,0.141686,-0.736694,-0.477379,-0.030443,0.744452,-2.015731,-0.620343,-0.034469,-1.940607,-0.480010,-0.048339,0.074725,0.000000,-0.201039,-0.079830,0.000000
4.790000,2.422031,2.125235,-1.564528,0.322156,1.236784,0.141351,-0.729252,-0.497633,-0.036671,0.744427,-2.033916,-0.624019,0.030499,-1.696836,-0.252127,-0.050358,0.073926,0.000000,-0.202584,-0.079756,0.000000
4.800000,2.425216,2.137578,-1.563116,0.314901,1.231706,0.140953,-0.721806,-0.518057,-0.042924,0.745061,-2.049668,-0.625386,0.095559,-1.451416,-0.020786,-0.052391,0.073127,0.000000,-0.203888,-0.079730,0.000000
4.810000,2.428329,2.149869,-1.561709,0.307720,1.226423,0.140492,-0.714350,-0.538627,-0.049179,0.746339,-2.062944,-0.624435,0.156181,-1.200954,0.204380,-0.054435,0.072329,0.000000,-0.204950,-0.079751,0.000000
4.820000,2.431370,2.162106,-1.560307,0.300614,1.220934,0.139969,-0.706879,-0.559316,-0.055413,0.748185,-2.073687,-0.621298,0.207738,-0.947077,0.410859,-0.056490,0.071530,0.000000,-0.205765,-0.079814,0.000000
4.830000,2.434341,2.174287,-1.558910,0.293582,1.215237,0.139384,-0.699387,-0.580100,-0.061605,0.750493,-2.081886,-0.616218,0.251244,-0.691832,0.600627,-0.058551,0.070730,0.000000,-0.206333,-0.079909,0.000000
4.840000,2.437242,2.186411,-1.557519,0.286626,1.209332,0.138737,-0.691869,-0.600954,-0.067737,0.753210,-2.087524,-0.609286,0.292660,-0.433719,0.789120,-0.060616,0.069929,0.000000,-0.206656,-0.080033,0.000000
4.850000,2.440073,2.198474,-1.556135,0.279745,1.203218,0.138029,-0.684323,-0.621851,-0.073790,0.756347,-2.090560,-0.600435,0.334228,-0.171988,0.979939,-0.062684,0.069127,0.000000,-0.206731,-0.080187,0.000000
4.860000,2.442837,2.210475,-1.554758,0.272939,1.196894,0.137261,-0.676742,-0.642765,-0.079746,0.759895,-2.090964,-0.589687,0.371660,0.091336,1.162028,-0.064751,0.068322,0.000000,-0.206557,-0.080371,0.000000
4.870000,2.445532,2.222412,-1.553390,0.266210,1.190362,0.136434,-0.669125,-0.663670,-0.085584,0.763780,-2.088734,-0.577195,0.399073,0.353188,1.325948,-0.066815,0.067516,0.000000,-0.206136,-0.080579,0.000000
4.880000,2.448161,2.234282,-1.552030,0.259557,1.183621,0.135550,-0.661467,-0.684540,-0.091290,0.767876,-2.083900,-0.563168,0.417593,0.613371,1.474557,-0.068874,0.066707,0.000000,-0.205471,-0.080799,0.000000
4.890000,2.450723,2.246084,-1.550679,0.252981,1.176671,0.134609,-0.653767,-0.705348,-0.096847,0.772132,-2.076466,-0.547703,0.434934,0.874831,1.619449,-0.070924,0.065896,0.000000,-0.204565,-0.081030,0.000000
4.900000,2.453220,2.257816,-1.549337,0.246482,1.169514,0.133613,-0.646024,-0.726069,-0.102244,0.776575,-2.066403,-0.530779,0.452651,1.138499,1.763681,-0.072965,0.065082,0.000000,-0.203416,-0.081272,0.000000
4.910000,2.455653,2.269475,-1.548006,0.240060,1.162150,0.132564,-0.638236,-0.746676,-0.107463,0.781185,-2.053696,-0.512430,0.465527,1.401510,1.899068,-0.074993,0.064266,0.000000,-0.202024,-0.081525,0.000000
4.920000,2.458022,2.281059,-1.546686,0.233717,1.154581,0.131463,-0.630400,-0.767143,-0.112492,0.785885,-2.038373,-0.492798,0.470323,1.659910,2.017377,-0.077005,0.063447,0.000000,-0.200393,-0.081784,0.000000
4.930000,2.460327,2.292566,-1.545377,0.227452,1.146807,0.130314,-0.622518,-0.787444,-0.117319,0.790591,-2.020498,-0.472082,0.468197,1.913775,2.122268,-0.079001,0.062626,0.000000,-0.198530,-0.082040,0.000000
4.940000,2.462571,2.303995,-1.544080,0.221267,1.138832,0.129117,-0.614589,-0.807553,-0.121934,0.795249,-2.000098,-0.450352,0.463456,2.167331,2.223834,-0.080976,0.061801,0.000000,-0.196437,-0.082289,0.000000
4.950000,2.464753,2.315343,-1.542795,0.215160,1.130656,0.127875,-0.606613,-0.827446,-0.126326,0.799860,-1.977151,-0.427606,0.460986,2.421862,2.313728,-0.082929,0.060974,0.000000,-0.194114,-0.082533,-0.000000
4.960000,2.466874,2.326608,-1.541522,0.209134,1.122283,0.126591,-0.598591,-0.847096,-0.130486,0.804469,-1.951660,-0.404078,0.457717,2.673703,2.385854,-0.084858,0.060145,0.000000,-0.191561,-0.082776,0.000000
4.970000,2.468935,2.337789,-1.540263,0.203189,1.113714,0.125265,-0.590524,-0.866479,-0.134408,0.809015,-1.923677,-0.379888,0.444845,2.872130,2.451908,-0.086761,0.059313,0.000000,-0.188782,-0.083015,0.000000
4.980000,2.470938,2.348882,-1.539017,0.197324,1.104953,0.123902,-0.582411,-0.885570,-0.138084,0.813366,-1.894218,-0.355040,0.504821,2.211503,2.281367,-0.088634,0.058478,0.000000,-0.185880,-0.083236,0.000000
4.990000,2.472882,2.359888,-1.537785,0.191540,1.096003,0.122504,-0.574256,-0.904363,-0.141508,0.819111,-1.879447,-0.334261,0.628099,0.975701,1.919554,-0.090478,0.057642,0.000000,-0.184421,-0.083625,0.000000
5.000000,2.474768,2.370802,-1.536567,0.185839,1.086866,0.121072,-0.566029,-0.923159,-0.144769,0.825928,-1.874704,-0.316648,0.214258,5.114167,3.084979,-0.092323,0.056799,0.000000,-0.183942,-0.084144,0.000000
5.010000,2.476598,2.381625,-1.535364,0.180220,1.077540,0.119608,-0.557738,-0.941857,-0.147841,0.823396,-1.777164,-0.272562,-0.684321,13.985474,5.616717,-0.094157,0.055951,0.000000,-0.174493,-0.083586,0.000000
5.020000,2.478373,2.392353,-1.534175,0.174684,1.068029,0.118115,-0.549561,-0.958702,-0.150220,0.812241,-1.594994,-0.204314,-0.364114,10.758471,4.644471,-0.095813,0.055120,0.000000,-0.156910,-0.082051,0.000000
5.030000,2.480092,2.402986,-1.533001,0.169229,1.058366,0.116604,-0.541493,-0.973757,-0.151928,0.816114,-1.561995,-0.179672,0.814843,-0.880097,1.241321,-0.097296,0.054303,0.000000,-0.153778,-0.082268,-0.000000
5.040000,2.481757,2.413521,-1.531843,0.163854,1.048554,0.115077,-0.533239,-0.989942,-0.153814,0.828538,-1.612596,-0.179488,0.592622,1.371490,1.858129,-0.098888,0.053467,0.000000,-0.158710,-0.083469,0.000000
5.050000,2.483369,2.423957,-1.530700,0.158564,1.038567,0.113528,-0.524922,-1.006009,-0.155517,0.827966,-1.534565,-0.142510,1.638855,-9.477626,-1.427005,-0.100470,0.052625,0.000000,-0.151240,-0.083183,0.000000
5.060000,2.484929,2.434292,-1.529572,0.153356,1.028433,0.111966,-0.516679,-1.020633,-0.156664,0.861315,-1.802149,-0.208028,5.232545,-45.993285,-12.240835,-0.101913,0.051794,0.000000,-0.177052,-0.086814,-0.000000
5.070000,2.486436,2.444525,-1.528460,0.148230,1.018154,0.110394,-0.507696,-1.042052,-0.159678,0.932617,-2.454430,-0.387326,3.159722,-25.277066,-6.278916,-0.104010,0.050880,0.000000,-0.239710,-0.094762,-0.000000
5.080000,2.487893,2.454655,-1.527364,0.143202,1.007592,0.108773,-0.498027,-1.069722,-0.164410,0.924510,-2.307690,-0.333606,-4.617569,52.859084,16.402532,-0.106706,0.049889,0.000000,-0.225408,-0.093588,0.000000
5.090000,2.489300,2.464677,-1.526285,0.138270,0.996760,0.107106,-0.489206,-1.088206,-0.166350,0.840266,-1.397249,-0.059276,-6.797589,74.398599,22.401981,-0.108520,0.048997,0.000000,-0.138053,-0.083818,-0.000000
5.100000,2.490659,2.474590,-1.525222,0.133418,0.985828,0.105446,-0.481222,-1.097667,-0.165596,0.788558,-0.819718,0.114433,-7.300454,79.447155,24.140932,-0.109468,0.048203,0.000000,-0.082753,-0.077844,0.000000
5.110000,2.491969,2.484394,-1.524176,0.128645,0.974806,0.103794,-0.473434,-1.104600,-0.164061,0.694257,0.191694,0.423543,-13.304248,140.368984,42.764531,-0.110175,0.047431,0.000000,0.013975,-0.067030,0.000000
5.120000,2.493232,2.494086,-1.523146,0.123949,0.963736,0.102165,-0.467337,-1.093833,-0.157125,0.522473,1.987662,0.969724,-10.586108,112.115638,33.860324,-0.109188,0.046853,0.000000,0.186056,-0.047468,0.000000
5.130000,2.494448,2.503668,-1.522133,0.119299,0.952930,0.100652,-0.462985,-1.064847,-0.144667,0.482535,2.434007,1.100750,3.561681,-32.547272,-10.366717,-0.106450,0.046476,0.000000,0.229593,-0.042992,-0.000000
5.140000,2.495618,2.513145,-1.521133,0.114689,0.942439,0.099271,-0.457686,-1.045153,-0.135110,0.593707,1.336716,0.762390,9.015492,-88.473873,-27.215471,-0.104598,0.045989,0.000000,0.124576,-0.055745,-0.000000
5.150000,2.496742,2.522517,-1.520147,0.110145,0.932027,0.097950,-0.451111,-1.038113,-0.129419,0.662844,0.664530,0.556440,6.211104,-60.699542,-19.553906,-0.103960,0.045355,0.000000,0.059992,-0.063670,0.000000
5.160000,2.497820,2.531785,-1.519174,0.105667,0.921677,0.096683,-0.444429,-1.031862,-0.123981,0.717929,0.122725,0.371312,8.579307,-86.074207,-29.076633,-0.103398,0.044708,0.000000,0.008049,-0.070080,0.000000
5.170000,2.498855,2.540951,-1.518214,0.101256,0.911389,0.095470,-0.436752,-1.035658,-0.121993,0.834431,-1.056954,-0.025093,9.104595,-91.460814,-29.707248,-0.103800,0.043946,0.000000,-0.105295,-0.083511,0.000000
5.180000,2.499846,2.550013,-1.517265,0.096932,0.900964,0.094243,-0.427740,-1.053001,-0.124483,0.900021,-1.706491,-0.222833,2.313078,-21.098856,-4.534150,-0.105503,0.043030,0.000000,-0.167775,-0.090884,0.000000
5.190000,2.500793,2.558970,-1.516329,0.092701,0.890329,0.092980,-0.418752,-1.069788,-0.126450,0.880692,-1.478932,-0.115776,-0.949061,12.237361,6.894666,-0.107155,0.042118,0.000000,-0.146166,-0.088455,0.000000
5.200000,2.501700,2.567820,-1.515405,0.088557,0.879568,0.091714,-0.410127,-1.082580,-0.126799,0.881039,-1.461744,-0.084940,3.892306,-37.717750,-8.481977,-0.108427,0.041250,0.000000,-0.144733,-0.088344,0.000000
5.210000,2.502565,2.576561,-1.514494,0.084499,0.868678,0.090444,-0.401131,-1.099023,-0.128148,0.958538,-2.233287,-0.285415,9.014576,-89.784287,-22.579420,-0.110050,0.040341,0.000000,-0.219122,-0.096861,0.000000
5.220000,2.503390,2.585193,-1.513596,0.080534,0.857588,0.089151,-0.390956,-1.127245,-0.132507,1.061331,-3.257429,-0.536528,5.454952,-54.163880,-12.288355,-0.112808,0.039301,0.000000,-0.317667,-0.108010,0.000000
5.230000,2.504175,2.593713,-1.512711,0.076680,0.846133,0.087794,-0.379904,-1.164171,-0.138879,1.067637,-3.316564,-0.531182,-3.633091,36.423646,11.050967,-0.116402,0.038167,0.000000,-0.322947,-0.108453,0.000000
5.240000,2.504923,2.602116,-1.511841,0.072936,0.834304,0.086374,-0.369603,-1.193577,-0.143130,0.988669,-2.528956,-0.315509,-6.726886,66.794063,18.468612,-0.119268,0.037117,0.000000,-0.247012,-0.099658,0.000000
5.250000,2.505634,2.610399,-1.510984,0.069288,0.822261,0.084932,-0.360131,-1.214751,-0.145189,0.933100,-1.980683,-0.161810,-8.150586,81.322701,24.302329,-0.121343,0.036159,0.000000,-0.194373,-0.093502,-0.000000
5.260000,2.506309,2.618561,-1.510142,0.065734,0.810009,0.083470,-0.350941,-1.233190,-0.146367,0.825657,-0.902502,0.170538,-15.073455,151.530805,46.145625,-0.123156,0.035233,0.000000,-0.091664,-0.081599,0.000000
5.270000,2.506949,2.626599,-1.509315,0.062269,0.797598,0.082004,-0.343618,-1.232801,-0.141778,0.631630,1.049933,0.761103,-13.245556,132.024006,39.210812,-0.123177,0.034515,0.000000,0.094266,-0.060296,0.000000
5.280000,2.507554,2.634513,-1.508502,0.058861,0.785353,0.080634,-0.338308,-1.212192,-0.131145,0.560746,1.737978,0.954754,0.059800,-4.391298,-3.125352,-0.121268,0.034018,0.000000,0.160419,-0.052687,-0.000000
5.290000,2.508126,2.642306,-1.507702,0.055503,0.773354,0.079381,-0.332403,-1.198041,-0.122683,0.632826,0.962107,0.698596,4.750373,-52.854810,-18.158356,-0.119970,0.033453,0.000000,0.086821,-0.060849,0.000000
5.300000,2.508664,2.649980,-1.506914,0.052213,0.761392,0.078181,-0.325652,-1.192950,-0.117173,0.655754,0.680882,0.591587,1.339598,-19.022638,-9.079798,-0.119533,0.032792,0.000000,0.060272,-0.063576,0.000000
5.310000,2.509170,2.657534,-1.506138,0.048990,0.749495,0.077038,-0.319288,-1.184423,-0.110852,0.659618,0.581654,0.517000,3.279974,-39.993349,-17.656015,-0.118764,0.032172,0.000000,0.051400,-0.064288,0.000000
5.320000,2.509644,2.664970,-1.505373,0.045827,0.737704,0.075964,-0.312460,-1.181316,-0.106833,0.721353,-0.118985,0.238466,3.469255,-42.328609,-17.717171,-0.118505,0.031498,0.000000,-0.014914,-0.071407,-0.000000
5.330000,2.510087,2.672288,-1.504619,0.042741,0.725868,0.074901,-0.304861,-1.186803,-0.106082,0.729004,-0.264918,0.162656,-3.069550,24.709037,6.218371,-0.119062,0.030734,0.000000,-0.028526,-0.072428,0.000000
5.340000,2.510499,2.679487,-1.503875,0.039730,0.713968,0.073842,-0.297879,-1.186615,-0.103580,0.659962,0.375195,0.362834,-5.428846,48.517644,14.666158,-0.119076,0.030039,0.000000,0.032747,-0.064950,0.000000
5.350000,2.510881,2.686568,-1.503142,0.036783,0.702136,0.072830,-0.291662,-1.179299,-0.098826,0.620427,0.705435,0.455979,-2.463550,17.503389,4.517707,-0.118407,0.029426,0.000000,0.064559,-0.060777,0.000000
5.360000,2.511235,2.693530,-1.502419,0.033897,0.690382,0.071865,-0.285471,-1.172506,-0.094460,0.610691,0.725263,0.453188,-1.726244,9.593757,2.932408,-0.117785,0.028814,0.000000,0.066642,-0.059872,-0.000000
5.370000,2.511559,2.700375,-1.501705,0.031074,0.678686,0.070941,-0.279448,-1.164794,-0.089762,0.585902,0.897310,0.514627,-2.230870,14.190590,4.249681,-0.117074,0.028220,0.000000,0.083148,-0.057275,0.000000
5.380000,2.511856,2.707104,-1.501000,0.028308,0.667086,0.070070,-0.273753,-1.154560,-0.084167,0.566074,1.009075,0.538182,-1.270093,3.347852,-1.325637,-0.116122,0.027661,0.000000,0.094142,-0.055290,0.000000
5.390000,2.512125,2.713717,-1.500303,0.025598,0.655595,0.069257,-0.268126,-1.144612,-0.078998,0.560500,0.964267,0.488115,-0.886472,-1.280969,-3.571502,-0.115191,0.027107,0.000000,0.090379,-0.054934,-0.000000
5.400000,2.512368,2.720216,-1.499615,0.022946,0.644194,0.068490,-0.262543,-1.135275,-0.074405,0.548344,0.983455,0.466752,-1.646876,6.172007,-0.401328,-0.114314,0.026555,0.000000,0.092652,-0.053830,0.000000
5.410000,2.512584,2.726601,-1.498934,0.020348,0.632889,0.067769,-0.257159,-1.124943,-0.069663,0.527562,1.087707,0.480088,-2.056605,9.896468,0.876253,-0.113338,0.026023,0.000000,0.103038,-0.051764,0.000000
5.420000,2.512775,2.732874,-1.498259,0.017802,0.621695,0.067097,-0.251992,-1.113520,-0.064803,0.507212,1.181385,0.484277,-1.975953,8.527332,0.265628,-0.112253,0.025513,0.000000,0.112495,-0.049765,-0.000000
5.430000,2.512940,2.739035,-1.497592,0.015308,0.610619,0.066473,-0.247015,-1.101316,-0.059978,0.488043,1.258254,0.485401,-1.927201,7.595109,0.349188,-0.111088,0.025022,0.000000,0.120326,-0.047889,0.000000
5.440000,2.513081,2.745086,-1.496930,0.012862,0.599669,0.065897,-0.242231,-1.088355,-0.055095,0.468668,1.333287,0.491260,-1.957208,7.446582,0.430734,-0.109847,0.024549,0.000000,0.127938,-0.045978,0.000000
5.450000,2.513198,2.751028,-1.496274,0.010463,0.588852,0.065371,-0.237642,-1.074650,-0.050152,0.448899,1.407186,0.494015,-1.996245,7.326484,0.081099,-0.108529,0.024097,0.000000,0.135489,-0.044033,0.000000
5.460000,2.513290,2.756863,-1.495623,0.008109,0.578176,0.064894,-0.233253,-1.060212,-0.045215,0.428743,1.479817,0.492882,-2.030683,7.194860,-0.130934,-0.107137,0.023664,0.000000,0.142974,-0.042054,0.000000
5.470000,2.513360,2.762592,-1.494976,0.005798,0.567648,0.064467,-0.229067,-1.045054,-0.040295,0.408285,1.551083,0.491397,-2.058208,7.052853,-0.150458,-0.105670,0.023251,0.000000,0.150341,-0.040043,-0.000000
5.480000,2.513406,2.768216,-1.494333,0.003528,0.557275,0.064088,-0.225087,-1.029190,-0.035387,0.387579,1.620874,0.489873,-2.081850,6.898766,-0.180278,-0.104130,0.022858,0.000000,0.157578,-0.038002,0.000000
5.490000,2.513430,2.773737,-1.493694,0.001296,0.547064,0.063759,-0.221315,-1.012636,-0.030497,0.366648,1.689058,0.487791,-2.103625,6.730982,-0.239507,-0.102518,0.022486,0.000000,0.164674,-0.035936,-0.000000
5.500000,2.513432,2.779157,-1.493058,-0.000898,0.537022,0.063478,-0.217754,-0.995409,-0.025631,0.345507,1.755493,0.485083,-2.123026,6.549422,-0.302313,-0.100836,0.022136,0.000000,0.171616,-0.033847,-0.000000
5.510000,2.513412,2.784478,-1.492425,-0.003059,0.527156,0.063246,-0.214405,-0.977526,-0.020796,0.324188,1.820047,0.481745,-2.138596,6.354790,-0.362690,-0.099086,0.021806,0.000000,0.178390,-0.031736,-0.000000
5.520000,2.513371,2.789700,-1.491793,-0.005187,0.517471,0.063063,-0.211270,-0.959008,-0.015996,0.302735,1.882589,0.477829,-2.150560,6.146790,-0.416343,-0.097269,0.021498,0.000000,0.184980,-0.029610,0.000000
5.530000,2.513309,2.794827,-1.491163,-0.007284,0.507975,0.062926,-0.208351,-0.939874,-0.011239,0.281177,1.942983,0.473418,-2.159220,5.924711,-0.464507,-0.095386,0.021211,0.000000,0.191370,-0.027469,-0.000000
5.540000,2.513225,2.799860,-1.490535,-0.009354,0.498674,0.062838,-0.205647,-0.920148,-0.006528,0.259550,2.001083,0.468539,-2.163903,5.688630,-0.512638,-0.093441,0.020946,0.000000,0.197546,-0.025318,-0.000000
5.550000,2.513122,2.804801,-1.489907,-0.011397,0.489572,0.062796,-0.203160,-0.899853,-0.001868,0.237899,2.056755,0.463165,-2.164862,5.439727,-0.561796,-0.091435,0.020703,0.000000,0.203491,-0.023161,0.000000
5.560000,2.512997,2.809651,-1.489279,-0.013417,0.480677,0.062800,-0.200889,-0.879013,0.002735,0.216253,2.109878,0.457303,-2.162321,5.177459,-0.608288,-0.089371,0.020481,0.000000,0.209192,-0.021002,-0.000000
5.570000,2.512853,2.814414,-1.488651,-0.015415,0.471992,0.062851,-0.198835,-0.857655,0.007278,0.194652,2.160304,0.450999,-2.154706,4.897750,-0.649691,-0.087251,0.020281,0.000000,0.214632,-0.018844,0.000000
5.580000,2.512689,2.819091,-1.488022,-0.017393,0.463524,0.062946,-0.196996,-0.835807,0.011755,0.173159,2.207833,0.444309,-2.141608,4.600118,-0.687203,-0.085079,0.020103,0.000000,0.219789,-0.016693,0.000000
5.590000,2.512505,2.823685,-1.487392,-0.019355,0.455276,0.063086,-0.195371,-0.813499,0.016164,0.151820,2.252307,0.437255,-2.125060,4.289818,-0.723877,-0.082856,0.019946,0.000000,0.224645,-0.014555,-0.000000
5.600000,2.512302,2.828197,-1.486760,-0.021301,0.447254,0.063269,-0.193959,-0.790761,0.020500,0.130658,2.293629,0.429832,-2.105999,3.969320,-0.760129,-0.080586,0.019810,0.000000,0.229188,-0.012431,-0.000000
5.610000,2.512079,2.832630,-1.486126,-0.023234,0.439461,0.063496,-0.192758,-0.767626,0.024761,0.109700,2.331693,0.422053,-2.082770,3.634635,-0.794004,-0.078272,0.019696,0.000000,0.233406,-0.010325,0.000000
5.620000,2.511837,2.836986,-1.485490,-0.025156,0.431901,0.063764,-0.191765,-0.744127,0.028941,0.089002,2.366322,0.413952,-2.052909,3.279147,-0.824625,-0.075918,0.019603,0.000000,0.237278,-0.008243,0.000000
5.630000,2.511576,2.841268,-1.484851,-0.027069,0.424578,0.064075,-0.190978,-0.720300,0.033040,0.068642,2.397276,0.405560,-2.016724,2.903480,-0.852722,-0.073526,0.019531,0.000000,0.240779,-0.006191,0.000000
5.640000,2.511296,2.845477,-1.484209,-0.028976,0.417495,0.064425,-0.190393,-0.696182,0.037053,0.048668,2.424392,0.396897,-1.977280,2.516251,-0.879470,-0.071102,0.019479,0.000000,0.243889,-0.004176,0.000000
5.650000,2.510997,2.849618,-1.483562,-0.030877,0.410655,0.064816,-0.190005,-0.671812,0.040978,0.029096,2.447601,0.387971,-1.935357,2.120611,-0.904834,-0.068649,0.019447,0.000000,0.246600,-0.002200,0.000000
5.660000,2.510678,2.853691,-1.482912,-0.032776,0.404059,0.065245,-0.189811,-0.647229,0.044812,0.009961,2.466804,0.378801,-1.888743,1.710440,-0.928154,-0.066170,0.019435,0.000000,0.248900,-0.000265,0.000000
5.670000,2.510341,2.857699,-1.482258,-0.034673,0.397710,0.065712,-0.189806,-0.622476,0.048554,-0.008679,2.481810,0.369408,-1.835391,1.277854,-0.949798,-0.063671,0.019442,0.000000,0.250768,0.001621,0.000000
5.680000,2.509985,2.861645,-1.481598,-0.036572,0.391609,0.066216,-0.189984,-0.597593,0.052200,-0.026747,2.492361,0.359805,-1.775743,0.824111,-0.970294,-0.061155,0.019468,0.000000,0.252175,0.003451,0.000000
5.690000,2.509610,2.865531,-1.480933,-0.038473,0.385758,0.066756,-0.190341,-0.572628,0.055750,-0.044193,2.498292,0.350002,-1.712371,0.359667,-0.989172,-0.058627,0.019511,0.000000,0.253103,0.005220,0.000000
5.700000,2.509216,2.869360,-1.480263,-0.040379,0.380157,0.067331,-0.190868,-0.547627,0.059200,-0.060995,2.499554,0.340021,-1.646737,-0.110425,-1.005067,-0.056093,0.019572,0.000000,0.253545,0.006924,-0.000000
