time,x,y,z,vx,vy,vz,ax,ay,az,jx,jy,jz,sx,sy,sz,roll,pitch,yaw,p,q,r
0.000000,-2.071038,-2.776942,-1.439244,0.019459,-0.005782,-0.010808,-0.192579,0.269108,0.015779,1.166947,-3.969282,-0.037201,-12.737830,163.763686,-20.408294,0.027464,0.019660,0.000000,-0.404924,-0.119130,0.000000
0.010000,-2.070853,-2.776987,-1.439351,0.017589,-0.003262,-0.010655,-0.181519,0.237300,0.014431,1.047774,-2.422407,-0.227940,-11.119589,145.819100,-17.766110,0.024216,0.018529,0.000000,-0.247624,-0.107327,-0.000000
0.020000,-2.070686,-2.777008,-1.439457,0.015824,-0.000987,-0.010525,-0.171572,0.220083,0.011305,0.944109,-1.048820,-0.393048,-9.635181,129.098355,-15.281458,0.022453,0.017508,0.000000,-0.107829,-0.096999,0.000000
0.030000,-2.070536,-2.777007,-1.439561,0.014154,0.001182,-0.010434,-0.162589,0.215786,0.006650,0.854644,0.163489,-0.534080,-8.278577,113.556173,-12.950235,0.022005,0.016584,0.000000,0.015500,-0.088037,0.000000
0.040000,-2.070403,-2.776984,-1.439666,0.012570,0.003367,-0.010396,-0.154436,0.222854,0.000699,0.778132,1.226080,-0.652550,-7.043790,99.147148,-10.768349,0.022712,0.015743,0.000000,0.123430,-0.080333,0.000000
0.050000,-2.070284,-2.776939,-1.439770,0.011063,0.005672,-0.010424,-0.146988,0.239845,-0.006330,0.713386,2.150072,-0.749930,-5.924465,85.827382,-8.731591,0.024426,0.014973,0.000000,0.217037,-0.073779,0.000000
0.060000,-2.070181,-2.776870,-1.439874,0.009628,0.008192,-0.010526,-0.140133,0.265429,-0.014234,0.659278,2.946109,-0.827652,-4.914920,73.550117,-6.835988,0.027008,0.014263,0.000000,0.297385,-0.068270,0.000000
0.070000,-2.070092,-2.776775,-1.439980,0.008259,0.011005,-0.010711,-0.133770,0.298375,-0.022823,0.614742,3.624400,-0.887107,-4.008977,62.270703,-5.077386,0.030333,0.013604,0.000000,0.365520,-0.063706,-0.000000
0.080000,-2.070016,-2.776649,-1.440089,0.006951,0.014180,-0.010984,-0.127809,0.337557,-0.031920,0.578773,4.194698,-0.929643,-3.200609,51.943851,-3.451677,0.034282,0.012985,0.000000,0.422462,-0.059988,0.000000
0.090000,-2.069952,-2.776490,-1.440200,0.005702,0.017774,-0.011350,-0.122169,0.381940,-0.041363,0.550424,4.666301,-0.956569,-2.483839,42.524137,-1.954748,0.038748,0.012401,0.000000,0.469192,-0.057025,0.000000
0.100000,-2.069901,-2.776292,-1.440316,0.004507,0.021833,-0.011812,-0.116778,0.430583,-0.051003,0.528813,5.048068,-0.969154,-1.852337,33.967781,-0.582527,0.043634,0.011842,0.000000,0.506658,-0.054731,0.000000
0.110000,-2.069862,-2.776051,-1.440437,0.003366,0.026397,-0.012371,-0.111573,0.482630,-0.060703,0.513113,5.348384,-0.968622,-1.300363,26.227888,0.669129,0.048853,0.011303,0.000000,0.535761,-0.053023,0.000000
0.120000,-2.069834,-2.775762,-1.440564,0.002275,0.031495,-0.013026,-0.106499,0.537306,-0.070336,0.502561,5.575199,-0.956159,-0.821757,19.259873,1.804307,0.054325,0.010778,0.000000,0.557359,-0.051825,0.000000
0.130000,-2.069816,-2.775419,-1.440698,0.001235,0.037149,-0.013777,-0.101507,0.593914,-0.079790,0.496454,5.736004,-0.932910,-0.410441,13.018551,2.827092,0.059978,0.010263,0.000000,0.572265,-0.051069,0.000000
0.140000,-2.069809,-2.775017,-1.440840,0.000245,0.043377,-0.014621,-0.096557,0.651830,-0.088962,0.494149,5.837842,-0.899979,-0.060283,7.458771,3.741536,0.065750,0.009754,0.000000,0.581241,-0.050691,0.000000
0.150000,-2.069811,-2.774550,-1.440991,-0.000696,0.050189,-0.015555,-0.091614,0.710496,-0.097761,0.495065,5.887301,-0.858428,0.234956,2.535467,4.551641,0.071585,0.009246,0.000000,0.584998,-0.050634,-0.000000
0.160000,-2.069823,-2.774012,-1.441151,-0.001587,0.057588,-0.016574,-0.086647,0.769421,-0.106105,0.498666,5.890514,-0.809270,0.479707,-1.797333,5.262411,0.077435,0.008738,0.000000,0.584198,-0.050845,0.000000
0.170000,-2.069843,-2.773396,-1.441322,-0.002429,0.065576,-0.017675,-0.081633,0.828171,-0.113924,0.504509,5.853172,-0.753496,0.682065,-5.583916,5.876808,0.083256,0.008226,0.000000,0.579448,-0.051280,0.000000
0.180000,-2.069871,-2.772698,-1.441505,-0.003220,0.074150,-0.018851,-0.076551,0.886367,-0.121156,0.512184,5.780505,-0.692040,0.847267,-8.869863,6.399370,0.089013,0.007708,0.000000,0.571306,-0.051901,0.000000
0.190000,-2.069907,-2.771911,-1.441700,-0.003959,0.083301,-0.020096,-0.071384,0.943680,-0.127749,0.521350,5.677292,-0.625801,0.981282,-11.700536,6.834208,0.094673,0.007183,0.000000,0.560275,-0.052674,0.000000
0.200000,-2.069950,-2.771030,-1.441907,-0.004647,0.093019,-0.021404,-0.066120,0.999826,-0.133659,0.531732,5.547869,-0.555635,1.090721,-14.120292,7.185368,0.100210,0.006649,0.000000,0.546808,-0.053574,0.000000
0.210000,-2.070000,-2.770049,-1.442128,-0.005281,0.103292,-0.022767,-0.060727,1.054489,-0.138848,0.547438,5.379149,-0.481488,1.266621,-16.510468,7.474245,0.105595,0.006104,0.000000,0.529627,-0.055011,-0.000000
0.220000,-2.070056,-2.768963,-1.442362,-0.005861,0.114104,-0.024178,-0.055229,1.107583,-0.143293,0.549824,5.246876,-0.407847,-0.034278,-12.855045,7.393664,0.110820,0.005549,0.000000,0.516224,-0.055126,0.000000
0.230000,-2.070117,-2.767765,-1.442612,-0.006386,0.125439,-0.025630,-0.049691,1.159225,-0.146992,0.562617,5.060826,-0.330661,2.614395,-24.399735,8.036520,0.115900,0.004990,0.000000,0.497683,-0.056289,-0.000000
0.240000,-2.070183,-2.766452,-1.442875,-0.006854,0.137281,-0.027115,-0.043933,1.208593,-0.149895,0.586741,4.819756,-0.250427,1.443523,-20.778498,7.845207,0.120754,0.004411,0.000000,0.473914,-0.058590,0.000000
0.250000,-2.070254,-2.765018,-1.443154,-0.007264,0.149604,-0.028625,-0.038012,1.255812,-0.152011,0.597948,4.620654,-0.172676,1.559075,-21.985280,7.847850,0.125398,0.003816,0.000000,0.454446,-0.059616,0.000000
0.260000,-2.070328,-2.763458,-1.443448,-0.007614,0.162390,-0.030153,-0.031947,1.300855,-0.153348,0.615289,4.385139,-0.094913,1.645579,-23.009654,7.769571,0.129829,0.003206,0.000000,0.431550,-0.061265,0.000000
0.270000,-2.070406,-2.761769,-1.443757,-0.007902,0.175614,-0.031690,-0.025725,1.343653,-0.153907,0.628419,4.180200,-0.016794,1.233333,-19.957750,7.771812,0.134043,0.002582,0.000000,0.411838,-0.062508,0.000000
0.280000,-2.070486,-2.759945,-1.444082,-0.008128,0.189256,-0.033228,-0.019365,1.384341,-0.153693,0.645268,3.944358,0.058811,2.143125,-27.244818,7.337918,0.138054,0.001944,0.000000,0.389197,-0.064134,0.000000
0.290000,-2.070568,-2.757982,-1.444422,-0.008289,0.203292,-0.034761,-0.012804,1.422417,-0.152742,0.666112,3.676535,0.131260,1.767736,-24.263589,7.216884,0.141815,0.001285,0.000000,0.363512,-0.066172,0.000000
0.300000,-2.070652,-2.755878,-1.444777,-0.008383,0.217696,-0.036281,-0.006061,1.458019,-0.151071,0.682779,3.442328,0.202363,1.820377,-24.579173,6.922726,0.145340,0.000608,0.000000,0.341247,-0.067810,0.000000
0.310000,-2.070736,-2.753627,-1.445147,-0.008410,0.232444,-0.037780,0.000862,1.491181,-0.148709,0.701823,3.188917,0.269377,1.863846,-24.779349,6.577621,0.148632,-0.000087,0.000000,0.317152,-0.069699,0.000000
0.320000,-2.070820,-2.751228,-1.445532,-0.008366,0.247511,-0.039253,0.007967,1.521899,-0.145687,0.718905,2.959125,0.334763,1.670650,-22.425059,6.389957,0.151693,-0.000800,0.000000,0.295457,-0.071408,0.000000
0.330000,-2.070903,-2.748676,-1.445932,-0.008250,0.262874,-0.040692,0.015246,1.550303,-0.142032,0.737714,2.714218,0.394891,2.093621,-26.579248,5.626716,0.154535,-0.001532,0.000000,0.272286,-0.073303,0.000000
0.340000,-2.070984,-2.745969,-1.446346,-0.008060,0.278509,-0.042092,0.022728,1.576120,-0.137809,0.758344,2.453438,0.449275,1.911041,-24.285226,5.349067,0.157132,-0.002285,0.000000,0.247544,-0.075395,0.000000
0.350000,-2.071064,-2.743105,-1.446774,-0.007795,0.294389,-0.043446,0.030404,1.599479,-0.133054,0.776932,2.217945,0.500896,1.925130,-24.072238,4.867070,0.159497,-0.003058,0.000000,0.225299,-0.077298,0.000000
0.360000,-2.071140,-2.740081,-1.447215,-0.007451,0.310490,-0.044751,0.038271,1.620441,-0.127810,0.796365,1.974554,0.547096,1.927707,-23.792102,4.368151,0.161634,-0.003851,0.000000,0.202239,-0.079298,0.000000
0.370000,-2.071213,-2.736895,-1.447669,-0.007028,0.326790,-0.046001,0.046329,1.639045,-0.122129,0.815162,1.749705,0.588183,1.861819,-21.945523,3.847537,0.163549,-0.004665,0.000000,0.180946,-0.081249,-0.000000
0.380000,-2.071280,-2.733545,-1.448135,-0.006524,0.343264,-0.047192,0.054575,1.655411,-0.116064,0.834236,1.519499,0.624021,1.952728,-24.110672,3.317959,0.165251,-0.005498,0.000000,0.159063,-0.083239,0.000000
0.390000,-2.071343,-2.730029,-1.448612,-0.005936,0.359890,-0.048321,0.063015,1.669410,-0.109667,0.853551,1.283411,0.654481,1.876997,-22.313025,2.771425,0.166727,-0.006352,0.000000,0.136522,-0.085263,0.000000
0.400000,-2.071399,-2.726346,-1.449101,-0.005263,0.376644,-0.049385,0.071643,1.681158,-0.102992,0.872017,1.066715,0.679439,1.846509,-21.802110,2.220351,0.167989,-0.007227,0.000000,0.115790,-0.087213,0.000000
0.410000,-2.071448,-2.722496,-1.449600,-0.004503,0.393506,-0.050380,0.080454,1.690733,-0.096093,0.890137,0.849027,0.699581,1.802200,-21.253862,1.680604,0.169042,-0.008121,0.000000,0.094869,-0.089136,0.000000
0.420000,-2.071489,-2.718476,-1.450108,-0.003653,0.410452,-0.051306,0.089446,1.698196,-0.089029,0.908270,0.646128,0.711883,1.797579,-19.781825,0.903877,0.169891,-0.009036,0.000000,0.075248,-0.091066,-0.000000
0.430000,-2.071521,-2.714286,-1.450626,-0.002713,0.427463,-0.052161,0.098616,1.703654,-0.081868,0.925525,0.443806,0.720269,1.651037,-20.692290,0.778311,0.170546,-0.009969,0.000000,0.055593,-0.092913,0.000000
0.440000,-2.071543,-2.709926,-1.451151,-0.001681,0.444518,-0.052943,0.107953,1.707069,-0.074635,0.941773,0.241699,0.724977,1.622430,-19.259356,0.040212,0.171002,-0.010921,0.000000,0.035866,-0.094665,0.000000
0.450000,-2.071554,-2.705396,-1.451684,-0.000554,0.461598,-0.053653,0.117451,1.708547,-0.067395,0.957723,0.054735,0.722172,1.540663,-18.594347,-0.474559,0.171269,-0.011890,0.000000,0.017463,-0.096386,0.000000
0.460000,-2.071553,-2.700695,-1.452224,0.000669,0.478683,-0.054291,0.127103,1.708170,-0.060201,0.972381,-0.129190,0.716082,1.444699,-17.912370,-0.958068,0.171352,-0.012877,0.000000,-0.000733,-0.097978,0.000000
0.470000,-2.071540,-2.695822,-1.452770,0.001989,0.495755,-0.054858,0.136900,1.706009,-0.053107,0.987095,-0.300927,0.701069,1.442753,-16.700284,-1.830359,0.171258,-0.013879,0.000000,-0.017921,-0.099568,0.000000
0.480000,-2.071513,-2.690779,-1.453321,0.003407,0.512798,-0.055354,0.146838,1.702162,-0.046185,1.000074,-0.468774,0.683973,1.149772,-16.875878,-1.578654,0.170994,-0.014897,0.000000,-0.034799,-0.100983,-0.000000
0.490000,-2.071472,-2.685566,-1.453877,0.004926,0.529793,-0.055782,0.156895,1.696643,-0.039431,1.011148,-0.633004,0.665303,1.117742,-15.698902,-2.364366,0.170563,-0.015928,0.000000,-0.051386,-0.102205,0.000000
0.500000,-2.071414,-2.680184,-1.454436,0.006546,0.546725,-0.056143,0.167061,1.689548,-0.032909,1.021933,-0.785026,0.638581,0.984021,-14.973906,-2.763610,0.169971,-0.016971,0.000000,-0.066943,-0.103384,0.000000
0.510000,-2.071340,-2.674632,-1.454999,0.008268,0.563579,-0.056441,0.177326,1.680957,-0.026662,1.030749,-0.931973,0.610403,0.838148,-14.247161,-3.121320,0.169225,-0.018025,0.000000,-0.082058,-0.104358,-0.000000
0.520000,-2.071249,-2.668913,-1.455565,0.010092,0.580340,-0.056678,0.187676,1.670946,-0.020733,1.039222,-1.068419,0.573914,0.796420,-13.205201,-3.925306,0.168333,-0.019088,0.000000,-0.096306,-0.105278,0.000000
0.530000,-2.071138,-2.663026,-1.456133,0.012021,0.596993,-0.056857,0.198102,1.659605,-0.015183,1.045420,-1.199505,0.537169,0.439973,-13.017339,-3.410847,0.167301,-0.020160,0.000000,-0.110054,-0.105960,0.000000
0.540000,-2.071008,-2.656973,-1.456702,0.014055,0.613527,-0.056982,0.208576,1.646972,-0.009987,1.049180,-1.325478,0.500815,0.369833,-12.013520,-4.103537,0.166133,-0.021237,0.000000,-0.123313,-0.106391,0.000000
0.550000,-2.070857,-2.650756,-1.457272,0.016193,0.629929,-0.057058,0.219085,1.633133,-0.005194,1.052294,-1.441184,0.457318,0.192419,-11.293393,-4.342622,0.164837,-0.022317,0.000000,-0.135692,-0.106730,-0.000000
0.560000,-2.070684,-2.644375,-1.457843,0.018436,0.646186,-0.057088,0.229613,1.618165,-0.000836,1.053051,-1.551160,0.414081,0.006334,-10.583305,-4.538702,0.163421,-0.023400,0.000000,-0.147511,-0.106822,0.000000
0.570000,-2.070488,-2.637832,-1.458414,0.020785,0.662289,-0.057076,0.240144,1.602143,0.003062,1.052847,-1.651774,0.364451,-0.095219,-9.657391,-5.149717,0.161890,-0.024482,0.000000,-0.158514,-0.106788,0.000000
0.580000,-2.070268,-2.631130,-1.458984,0.023239,0.678226,-0.057028,0.250662,1.585148,0.006458,1.050139,-1.746785,0.316071,-0.448702,-9.350238,-4.513732,0.160252,-0.025563,0.000000,-0.168941,-0.106490,-0.000000
0.590000,-2.070023,-2.624269,-1.459554,0.025798,0.693989,-0.056949,0.261137,1.567224,0.009391,1.044809,-1.836462,0.269586,-0.570589,-8.469651,-5.012174,0.158513,-0.026639,0.000000,-0.178807,-0.105919,-0.000000
0.600000,-2.069751,-2.617251,-1.460123,0.028462,0.709568,-0.056842,0.271555,1.548450,0.011829,1.038308,-1.917219,0.217924,-0.777630,-7.801010,-5.081362,0.156679,-0.027708,0.000000,-0.187861,-0.105200,0.000000
0.610000,-2.069453,-2.610078,-1.460691,0.031229,0.724955,-0.056714,0.281895,1.528897,0.013758,1.029366,-1.992467,0.167861,-0.986235,-7.149675,-5.113011,0.154758,-0.028768,0.000000,-0.196329,-0.104223,0.000000
0.620000,-2.069126,-2.602752,-1.461257,0.034099,0.740143,-0.056569,0.292137,1.508631,0.015170,1.018846,-2.059318,0.114050,-1.145562,-6.322260,-5.463284,0.152755,-0.029817,0.000000,-0.204003,-0.103059,0.000000
0.630000,-2.068771,-2.595276,-1.461822,0.037071,0.755125,-0.056412,0.302263,1.487727,0.016047,1.005872,-2.121048,0.062495,-1.450192,-6.029560,-4.837232,0.150679,-0.030852,0.000000,-0.211110,-0.101638,0.000000
0.640000,-2.068385,-2.587650,-1.462386,0.040144,0.769896,-0.056249,0.312246,1.466225,0.016431,0.990395,-2.177957,0.013737,-1.617694,-5.254914,-5.092423,0.148535,-0.031872,0.000000,-0.217672,-0.099956,-0.000000
0.650000,-2.067967,-2.579878,-1.462947,0.043316,0.784448,-0.056085,0.322066,1.444195,0.016310,0.973285,-2.227059,-0.037718,-1.832024,-4.667810,-5.011363,0.146329,-0.032873,0.000000,-0.223469,-0.098085,0.000000
0.660000,-2.067518,-2.571962,-1.463507,0.046585,0.798778,-0.055925,0.331704,1.421699,0.015686,0.953868,-2.271360,-0.086750,-2.044446,-4.102574,-4.903692,0.144067,-0.033854,0.000000,-0.228721,-0.095974,0.000000
0.670000,-2.067035,-2.563904,-1.464066,0.049949,0.812881,-0.055773,0.341137,1.398794,0.014570,0.932463,-2.308318,-0.136750,-2.242550,-3.382251,-4.983123,0.141757,-0.034812,0.000000,-0.233222,-0.093644,-0.000000
0.680000,-2.066519,-2.555705,-1.464623,0.053407,0.826753,-0.055635,0.350346,1.375546,0.012961,0.908890,-2.340961,-0.184041,-2.471749,-3.152502,-4.468021,0.139404,-0.035745,0.000000,-0.237220,-0.091090,0.000000
0.690000,-2.065967,-2.547369,-1.465179,0.056955,0.840391,-0.055515,0.359308,1.351988,0.010900,0.883172,-2.369609,-0.228257,-2.664674,-2.489339,-4.482478,0.137014,-0.036651,0.000000,-0.240742,-0.088318,0.000000
0.700000,-2.065379,-2.538898,-1.465733,0.060592,0.853792,-0.055419,0.368003,1.328178,0.008393,0.855551,-2.391580,-0.272692,-2.864572,-1.999714,-4.291275,0.134592,-0.037528,0.000000,-0.243566,-0.085342,0.000000
0.710000,-2.064755,-2.530294,-1.466287,0.064314,0.866954,-0.055349,0.376412,1.304168,0.005456,0.825996,-2.409625,-0.314422,-3.057130,-1.533276,-4.086698,0.132144,-0.038373,0.000000,-0.245926,-0.082170,-0.000000
0.720000,-2.064093,-2.521560,-1.466840,0.068119,0.879875,-0.055311,0.384516,1.280007,0.002109,0.794322,-2.421583,-0.354694,-3.265287,-0.938481,-3.931868,0.129676,-0.039185,0.000000,-0.247623,-0.078781,0.000000
0.730000,-2.063392,-2.512698,-1.467393,0.072004,0.892553,-0.055308,0.392293,1.255747,-0.001629,0.760952,-2.430078,-0.392317,-3.407009,-0.766271,-3.589790,0.127193,-0.039961,0.000000,-0.248906,-0.075224,0.000000
0.740000,-2.062652,-2.503710,-1.467947,0.075964,0.904989,-0.055345,0.399730,1.231415,-0.005727,0.725979,-2.435418,-0.427129,-3.597771,-0.227382,-3.404707,0.124699,-0.040701,0.000000,-0.249806,-0.071510,0.000000
0.750000,-2.061873,-2.494599,-1.468500,0.079997,0.917182,-0.055424,0.406806,1.207059,-0.010166,0.689122,-2.435346,-0.460099,-3.760493,0.160416,-3.154065,0.122199,-0.041402,0.000000,-0.250110,-0.067608,0.000000
0.760000,-2.061052,-2.485367,-1.469055,0.084099,0.929130,-0.055549,0.413508,1.182718,-0.014921,0.650874,-2.432177,-0.490554,-3.911630,0.526997,-2.902472,0.119698,-0.042063,0.000000,-0.250045,-0.063574,-0.000000
0.770000,-2.060190,-2.476017,-1.469612,0.088266,0.940836,-0.055723,0.419817,1.158432,-0.019966,0.610700,-2.424348,-0.517823,-4.097890,0.980477,-2.583301,0.117200,-0.042682,0.000000,-0.249449,-0.059358,0.000000
0.780000,-2.059287,-2.466551,-1.470170,0.092494,0.952299,-0.055949,0.425718,1.134240,-0.025270,0.569448,-2.413788,-0.542894,-4.149851,1.126639,-2.431510,0.114710,-0.043258,0.000000,-0.248529,-0.055041,0.000000
0.790000,-2.058340,-2.456972,-1.470731,0.096779,0.963521,-0.056229,0.431203,1.110164,-0.030816,0.527265,-2.400762,-0.565790,-4.308410,1.531059,-2.114867,0.112230,-0.043790,0.000000,-0.247316,-0.050642,0.000000
0.800000,-2.057351,-2.447281,-1.471295,0.101117,0.974503,-0.056566,0.436258,1.086239,-0.036575,0.483520,-2.383700,-0.585472,-4.414514,1.822942,-1.854544,0.109765,-0.044277,0.000000,-0.245643,-0.046101,0.000000
0.810000,-2.056318,-2.437482,-1.471862,0.105503,0.985247,-0.056961,0.440872,1.062497,-0.042520,0.439097,-2.364239,-0.603163,-4.504819,2.097114,-1.603388,0.107318,-0.044717,0.000000,-0.243691,-0.041504,0.000000
0.820000,-2.055241,-2.427577,-1.472434,0.109933,0.995754,-0.057417,0.445034,1.038966,-0.048623,0.393128,-2.341532,-0.616809,-4.650787,2.411499,-1.205004,0.104893,-0.045111,0.000000,-0.241357,-0.036774,0.000000
0.830000,-2.054119,-2.417568,-1.473011,0.114402,1.006027,-0.057934,0.448733,1.015673,-0.054852,0.346884,-2.316692,-0.628926,-4.594586,2.552891,-1.221745,0.102492,-0.045457,0.000000,-0.238782,-0.032028,0.000000
0.840000,-2.052953,-2.407457,-1.473593,0.118906,1.016068,-0.058515,0.451972,0.992638,-0.061198,0.300558,-2.289925,-0.639681,-4.704391,2.828014,-0.851311,0.100118,-0.045755,0.000000,-0.235992,-0.027286,0.000000
0.850000,-2.051741,-2.397248,-1.474181,0.123440,1.025881,-0.059159,0.454740,0.969884,-0.067631,0.253154,-2.260440,-0.646650,-4.737644,3.036270,-0.622908,0.097773,-0.046005,0.000000,-0.232885,-0.022460,0.000000
0.860000,-2.050484,-2.386941,-1.474776,0.127999,1.035467,-0.059867,0.457036,0.947435,-0.074128,0.205875,-2.229107,-0.652370,-4.753123,3.230861,-0.411096,0.095461,-0.046206,0.000000,-0.229577,-0.017658,0.000000
0.870000,-2.049181,-2.376539,-1.475379,0.132579,1.044830,-0.060641,0.458855,0.925309,-0.080663,0.157805,-2.195847,-0.653883,-4.822198,3.416096,-0.001238,0.093183,-0.046359,0.000000,-0.226034,-0.012804,0.000000
0.880000,-2.047832,-2.366045,-1.475989,0.137174,1.053974,-0.061481,0.460194,0.903524,-0.087204,0.110241,-2.160890,-0.654698,-4.686780,3.572831,-0.166996,0.090941,-0.046464,0.000000,-0.222315,-0.008012,0.000000
0.890000,-2.046437,-2.355460,-1.476609,0.141781,1.062902,-0.062385,0.461062,0.882096,-0.093756,0.063397,-2.124380,-0.655078,-4.715495,3.729607,0.197920,0.088737,-0.046521,0.000000,-0.218440,-0.003302,0.000000
0.900000,-2.044996,-2.344787,-1.477237,0.146394,1.071617,-0.063356,0.461460,0.861041,-0.100291,0.016293,-2.086358,-0.651707,-4.665937,3.869198,0.365567,0.086573,-0.046530,0.000000,-0.214383,0.001410,-0.000000
0.910000,-2.043509,-2.334029,-1.477876,0.151009,1.080124,-0.064391,0.461392,0.840374,-0.106790,-0.029845,-2.046918,-0.647887,-4.597189,3.998182,0.514054,0.084450,-0.046493,0.000000,-0.210187,0.006015,0.000000
0.920000,-2.041976,-2.323186,-1.478525,0.155620,1.088426,-0.065491,0.460863,0.820105,-0.113235,-0.075946,-2.006604,-0.640387,-4.582829,4.080555,0.869368,0.082369,-0.046409,0.000000,-0.205879,0.010592,0.000000
0.930000,-2.040397,-2.312261,-1.479186,0.160224,1.096528,-0.066656,0.459878,0.800246,-0.119599,-0.120663,-1.964969,-0.632944,-4.356569,4.245175,0.613334,0.080332,-0.046281,0.000000,-0.201448,0.015023,0.000000
0.940000,-2.038772,-2.301256,-1.479859,0.164816,1.104433,-0.067883,0.458455,0.780810,-0.125895,-0.163772,-1.922101,-0.625854,-4.299844,4.308453,0.917690,0.078341,-0.046109,0.000000,-0.196906,0.019289,0.000000
0.950000,-2.037101,-2.290173,-1.480544,0.169392,1.112145,-0.069173,0.456604,0.761806,-0.132103,-0.206275,-1.878679,-0.615617,-4.161187,4.391942,1.012487,0.076395,-0.045894,0.000000,-0.192293,0.023473,-0.000000
0.960000,-2.035384,-2.279013,-1.481242,0.173947,1.119670,-0.070525,0.454336,0.743240,-0.138210,-0.246872,-1.834238,-0.605598,-4.002406,4.466939,1.089622,0.074495,-0.045638,0.000000,-0.187591,0.027462,0.000000
0.970000,-2.033622,-2.267780,-1.481955,0.178477,1.127012,-0.071937,0.451668,0.725121,-0.144205,-0.286698,-1.789629,-0.592944,-3.914176,4.480196,1.341399,0.072643,-0.045343,0.000000,-0.182864,0.031357,0.000000
0.980000,-2.031815,-2.256474,-1.482681,0.182979,1.134174,-0.073408,0.448611,0.707451,-0.150071,-0.324137,-1.744102,-0.580867,-3.569280,4.624373,1.068746,0.070838,-0.045010,0.000000,-0.178062,0.035011,0.000000
0.990000,-2.029962,-2.245097,-1.483423,0.187448,1.141162,-0.074938,0.445194,0.690242,-0.155826,-0.358951,-1.697716,-0.569635,-3.436926,4.624234,1.274012,0.069082,-0.044642,0.000000,-0.173191,0.038403,0.000000
1.000000,-2.028066,-2.233651,-1.484180,0.191882,1.147980,-0.076525,0.441435,0.673496,-0.161455,-0.392423,-1.651418,-0.556264,-3.208845,4.660954,1.299636,0.067374,-0.044241,0.000000,-0.168326,0.041648,0.000000
1.010000,-2.026125,-2.222138,-1.484954,0.196276,1.154634,-0.078167,0.437356,0.657216,-0.166954,-0.423071,-1.604505,-0.543566,-2.962031,4.690467,1.311297,0.065715,-0.043809,0.000000,-0.163416,0.044611,-0.000000
1.020000,-2.024140,-2.210559,-1.485744,0.200628,1.161126,-0.079863,0.432979,0.641404,-0.172320,-0.452012,-1.557910,-0.529402,-2.780855,4.655892,1.448508,0.064106,-0.043347,0.000000,-0.158539,0.047395,-0.000000
1.030000,-2.022113,-2.198916,-1.486551,0.204935,1.167463,-0.081613,0.428327,0.626060,-0.177546,-0.477737,-1.510811,-0.516123,-2.360072,4.763408,1.203378,0.062545,-0.042860,0.000000,-0.153630,0.049860,0.000000
1.040000,-2.020042,-2.187210,-1.487376,0.209194,1.173649,-0.083414,0.423436,0.611190,-0.182647,-0.500024,-1.463252,-0.503931,-2.137839,4.717971,1.305228,0.061033,-0.042349,0.000000,-0.148693,0.051986,0.000000
1.050000,-2.017929,-2.175443,-1.488220,0.213403,1.179689,-0.085265,0.418333,0.596792,-0.187619,-0.520077,-1.416233,-0.490654,-1.827099,4.713601,1.276705,0.059571,-0.041819,0.000000,-0.143814,0.053883,0.000000
1.060000,-2.015774,-2.163617,-1.489082,0.217560,1.185586,-0.087166,0.413047,0.582866,-0.192464,-0.536513,-1.369045,-0.478262,-1.499347,4.701613,1.239911,0.058157,-0.041271,0.000000,-0.138934,0.055424,-0.000000
1.070000,-2.013578,-2.151732,-1.489963,0.221663,1.191347,-0.089114,0.407610,0.569409,-0.197183,-0.550401,-1.322420,-0.465516,-1.235282,4.642465,1.269740,0.056792,-0.040709,0.000000,-0.134117,0.056710,0.000000
1.080000,-2.011341,-2.139790,-1.490864,0.225712,1.196976,-0.091109,0.402052,0.556418,-0.201777,-0.560319,-1.275796,-0.453694,-0.744944,4.681575,1.092480,0.055475,-0.040136,0.000000,-0.129316,0.057604,-0.000000
1.090000,-2.009064,-2.127793,-1.491785,0.229704,1.202477,-0.093149,0.396418,0.543893,-0.206260,-0.566076,-1.229225,-0.442908,-0.445208,4.610793,1.102681,0.054205,-0.039557,0.000000,-0.124535,0.058089,0.000000
1.100000,-2.006747,-2.115741,-1.492727,0.233640,1.207856,-0.095234,0.390740,0.531830,-0.210634,-0.568832,-1.183438,-0.431987,-0.063161,4.566433,1.042547,0.052984,-0.038974,0.000000,-0.119839,0.058276,-0.000000
1.110000,-2.004391,-2.103636,-1.493690,0.237519,1.213116,-0.097362,0.385056,0.520224,-0.214903,-0.567309,-1.137987,-0.421871,0.332458,4.513994,0.981421,0.051808,-0.038391,0.000000,-0.115189,0.058043,0.000000
1.120000,-2.001997,-2.091479,-1.494675,0.241341,1.218262,-0.099531,0.379404,0.509068,-0.219074,-0.562488,-1.093262,-0.412354,0.669693,4.437827,0.920366,0.050680,-0.037812,0.000000,-0.110622,0.057485,0.000000
1.130000,-1.999564,-2.079271,-1.495681,0.245107,1.223298,-0.101743,0.373822,0.498357,-0.223152,-0.553120,-1.049085,-0.403496,1.206812,4.396564,0.851011,0.049596,-0.037241,0.000000,-0.106119,0.056480,0.000000
1.140000,-1.997095,-2.067014,-1.496710,0.248818,1.228230,-0.103994,0.368358,0.488084,-0.227146,-0.539051,-1.005523,-0.395309,1.571949,4.306123,0.787714,0.048557,-0.036683,0.000000,-0.101688,0.055012,-0.000000
1.150000,-1.994588,-2.054707,-1.497761,0.252475,1.233061,-0.106285,0.363052,0.478243,-0.231061,-0.521343,-0.962919,-0.387751,2.007802,4.221730,0.722697,0.047562,-0.036141,0.000000,-0.097361,0.053188,-0.000000
1.160000,-1.992046,-2.042353,-1.498835,0.256080,1.237796,-0.108615,0.357947,0.468823,-0.234902,-0.498891,-0.921195,-0.380670,2.452997,4.128101,0.662653,0.046609,-0.035620,0.000000,-0.093130,0.050896,-0.000000
1.170000,-1.989467,-2.029952,-1.499933,0.259635,1.242439,-0.110983,0.353087,0.459816,-0.238679,-0.472544,-0.880324,-0.374779,2.847494,4.038477,0.546319,0.045699,-0.035123,0.000000,-0.088994,0.048226,0.000000
1.180000,-1.986853,-2.017504,-1.501055,0.263142,1.246994,-0.113389,0.348513,0.451213,-0.242398,-0.441289,-0.840583,-0.369095,3.405390,3.908343,0.592113,0.044829,-0.034656,0.000000,-0.084976,0.045072,0.000000
1.190000,-1.984204,-2.005012,-1.502201,0.266606,1.251465,-0.115831,0.344278,0.443000,-0.246061,-0.405027,-0.802058,-0.363539,3.817617,3.801610,0.489038,0.043999,-0.034223,0.000000,-0.081084,0.041426,0.000000
1.200000,-1.981521,-1.992475,-1.503372,0.270029,1.255855,-0.118310,0.340426,0.435168,-0.249673,-0.364665,-0.764630,-0.359038,4.285586,3.676465,0.442650,0.043207,-0.033828,0.000000,-0.077310,0.037380,0.000000
1.210000,-1.978804,-1.979895,-1.504568,0.273416,1.260169,-0.120824,0.337002,0.427703,-0.253241,-0.319341,-0.728642,-0.354502,4.757578,3.540795,0.406692,0.042452,-0.033476,0.000000,-0.073682,0.032847,-0.000000
1.220000,-1.976053,-1.967272,-1.505789,0.276771,1.264411,-0.123374,0.334053,0.420592,-0.256769,-0.269703,-0.693667,-0.351412,5.191238,3.434030,0.268406,0.041733,-0.033172,0.000000,-0.070165,0.027895,0.000000
1.230000,-1.973268,-1.954607,-1.507035,0.280099,1.268582,-0.125960,0.331624,0.413824,-0.260267,-0.215071,-0.660381,-0.347934,5.735980,3.221394,0.430064,0.041048,-0.032919,0.000000,-0.066818,0.022451,0.000000
1.240000,-1.970451,-1.941901,-1.508308,0.283405,1.272688,-0.128580,0.329768,0.407378,-0.263726,-0.155408,-0.628885,-0.343922,6.175330,3.095528,0.316988,0.040396,-0.032724,0.000000,-0.063649,0.016513,-0.000000
1.250000,-1.967600,-1.929154,-1.509607,0.286696,1.276731,-0.131234,0.328530,0.401242,-0.267151,-0.091387,-0.598658,-0.341086,6.649761,2.929899,0.307746,0.039775,-0.032590,0.000000,-0.060614,0.010153,0.000000
1.260000,-1.964717,-1.916366,-1.510933,0.289978,1.280714,-0.133922,0.327957,0.395399,-0.270545,-0.022477,-0.570354,-0.337700,7.121881,2.755432,0.309560,0.039183,-0.032522,0.000000,-0.057770,0.003314,0.000000
1.270000,-1.961801,-1.903540,-1.512285,0.293258,1.284640,-0.136645,0.328096,0.389831,-0.273909,0.050950,-0.543336,-0.335430,7.572490,2.622013,0.205110,0.038619,-0.032525,0.000000,-0.055061,-0.003963,0.000000
1.280000,-1.958852,-1.890674,-1.513666,0.296542,1.288511,-0.139401,0.328992,0.384524,-0.277250,0.129159,-0.518461,-0.332321,8.068732,2.351138,0.420028,0.038081,-0.032603,0.000000,-0.052564,-0.011709,0.000000
1.290000,-1.955870,-1.877769,-1.515074,0.299840,1.292331,-0.142190,0.330695,0.379454,-0.280552,0.212114,-0.495830,-0.328203,8.511649,2.199157,0.345016,0.037567,-0.032761,0.000000,-0.050288,-0.019920,-0.000000
1.300000,-1.952855,-1.864827,-1.516510,0.303159,1.296101,-0.145011,0.333249,0.374603,-0.283818,0.299452,-0.474714,-0.324881,8.964391,1.998076,0.380619,0.037075,-0.033003,0.000000,-0.048167,-0.028553,0.000000
1.310000,-1.949807,-1.851848,-1.517974,0.306508,1.299824,-0.147866,0.336699,0.369952,-0.287045,0.391270,-0.455926,-0.320384,9.407786,1.789212,0.431118,0.036603,-0.033334,0.000000,-0.046275,-0.037626,0.000000
1.320000,-1.946725,-1.838831,-1.519467,0.309896,1.303501,-0.150752,0.341090,0.365480,-0.290231,0.487670,-0.438665,-0.317049,9.861070,1.632220,0.323849,0.036149,-0.033758,0.000000,-0.044541,-0.047138,0.000000
1.330000,-1.943609,-1.825778,-1.520989,0.313333,1.307134,-0.153670,0.346466,0.361170,-0.293380,0.588255,-0.423926,-0.312065,10.254007,1.313874,0.677055,0.035711,-0.034279,0.000000,-0.043053,-0.057061,0.000000
1.340000,-1.940458,-1.812688,-1.522540,0.316829,1.310725,-0.156620,0.352868,0.356993,-0.296465,0.692909,-0.411800,-0.305228,10.684553,1.140618,0.604461,0.035287,-0.034901,0.000000,-0.041819,-0.067382,0.000000
1.350000,-1.937272,-1.799563,-1.524122,0.320394,1.314274,-0.159599,0.360339,0.352929,-0.299489,0.801825,-0.401382,-0.299212,11.086754,0.912061,0.687306,0.034874,-0.035629,0.000000,-0.040758,-0.078112,0.000000
1.360000,-1.934050,-1.786403,-1.525733,0.324039,1.317784,-0.162609,0.368918,0.348956,-0.302444,0.914640,-0.393533,-0.291616,11.476233,0.678980,0.778340,0.034471,-0.036465,0.000000,-0.039949,-0.089223,0.000000
1.370000,-1.930791,-1.773208,-1.527374,0.327776,1.321254,-0.165648,0.378644,0.345052,-0.305322,1.031324,-0.387612,-0.284126,11.855954,0.483459,0.773879,0.034075,-0.037415,0.000000,-0.039333,-0.100706,0.000000
1.380000,-1.927494,-1.759978,-1.529046,0.331616,1.324685,-0.168715,0.389556,0.341195,-0.308120,1.151661,-0.384320,-0.275001,12.208775,0.173902,1.053897,0.033683,-0.038482,0.000000,-0.038973,-0.112544,0.000000
1.390000,-1.924158,-1.746714,-1.530748,0.335572,1.328078,-0.171810,0.401689,0.337357,-0.310816,1.275491,-0.383712,-0.264105,12.556552,-0.031096,1.072530,0.033294,-0.039669,0.000000,-0.038874,-0.124725,0.000000
1.400000,-1.920782,-1.733417,-1.532482,0.339654,1.331432,-0.174931,0.415078,0.333514,-0.313403,1.402720,-0.385135,-0.253073,12.883598,-0.274651,1.187732,0.032905,-0.040979,0.000000,-0.038978,-0.137232,0.000000
1.410000,-1.917364,-1.720086,-1.534247,0.343877,1.334748,-0.178078,0.429754,0.329645,-0.315872,1.533052,-0.389229,-0.240535,13.191031,-0.520498,1.305603,0.032514,-0.042416,0.000000,-0.039343,-0.150042,0.000000
1.420000,-1.913904,-1.706722,-1.536044,0.348254,1.338025,-0.181248,0.445749,0.325724,-0.318211,1.666580,-0.395328,-0.227086,13.500232,-0.722482,1.399340,0.032118,-0.043982,0.000000,-0.039905,-0.163161,0.000000
1.430000,-1.910399,-1.693325,-1.537872,0.352797,1.341262,-0.184442,0.463094,0.321729,-0.320409,1.802760,-0.404163,-0.212231,13.731855,-1.045107,1.572578,0.031715,-0.045681,0.000000,-0.040734,-0.176540,0.000000
1.440000,-1.906847,-1.679897,-1.539732,0.357520,1.344459,-0.187656,0.481813,0.317631,-0.322450,1.941367,-0.415761,-0.195921,13.997136,-1.251060,1.675123,0.031302,-0.047516,0.000000,-0.041834,-0.190156,0.000000
1.450000,-1.903248,-1.666436,-1.541625,0.362438,1.347614,-0.190890,0.501930,0.313407,-0.324324,2.082534,-0.429377,-0.178598,14.221390,-1.495056,1.804281,0.030878,-0.049487,0.000000,-0.043132,-0.204022,0.000000
1.460000,-1.899598,-1.652945,-1.543550,0.367564,1.350727,-0.194142,0.523469,0.309034,-0.326017,2.225612,-0.445683,-0.159850,14.419742,-1.738734,1.935822,0.030439,-0.051599,0.000000,-0.044694,-0.218077,0.000000
1.470000,-1.895896,-1.639422,-1.545508,0.372912,1.353794,-0.197410,0.546451,0.304488,-0.327517,2.371119,-0.463900,-0.139949,14.648957,-1.929884,2.052233,0.029983,-0.053852,0.000000,-0.046442,-0.232371,0.000000
1.480000,-1.892139,-1.625869,-1.547499,0.378497,1.356816,-0.200691,0.570896,0.299747,-0.328812,2.517909,-0.484808,-0.118641,14.703835,-2.251760,2.209453,0.029509,-0.056249,0.000000,-0.048455,-0.246794,0.000000
1.490000,-1.888325,-1.612286,-1.549522,0.384335,1.359789,-0.203985,0.596812,0.294782,-0.329885,2.665687,-0.508401,-0.095921,14.876339,-2.440207,2.326536,0.029013,-0.058790,0.000000,-0.050730,-0.261319,-0.000000
1.500000,-1.884451,-1.598673,-1.551578,0.390439,1.362711,-0.207288,0.624216,0.289573,-0.330726,2.815098,-0.533813,-0.072046,14.972952,-2.667247,2.455655,0.028494,-0.061478,0.000000,-0.053185,-0.276008,0.000000
1.510000,-1.880515,-1.585032,-1.553668,0.396824,1.365579,-0.210599,0.653116,0.284098,-0.331323,2.965129,-0.561640,-0.047092,15.042498,-2.887678,2.577314,0.027949,-0.064313,0.000000,-0.055877,-0.290762,0.000000
1.520000,-1.876514,-1.571362,-1.555790,0.403506,1.368392,-0.213914,0.683521,0.278334,-0.331661,3.115981,-0.591457,-0.020118,15.109685,-3.083509,2.775767,0.027376,-0.067296,0.000000,-0.058762,-0.305609,0.000000
1.530000,-1.872444,-1.557664,-1.557946,0.410500,1.371145,-0.217231,0.715436,0.272261,-0.331723,3.266943,-0.623477,0.007546,15.077276,-3.319547,2.755157,0.026773,-0.070427,0.000000,-0.061865,-0.320471,0.000000
1.540000,-1.868303,-1.543939,-1.560135,0.417820,1.373836,-0.220548,0.748859,0.265857,-0.331508,3.417700,-0.657633,0.035807,15.082665,-3.500878,2.938126,0.026138,-0.073707,0.000000,-0.065180,-0.335318,-0.000000
1.550000,-1.864086,-1.530188,-1.562357,0.425482,1.376461,-0.223860,0.783790,0.259103,-0.331000,3.568380,-0.693543,0.065943,15.034449,-3.688496,3.046444,0.025469,-0.077136,0.000000,-0.068666,-0.350173,0.000000
1.560000,-1.859792,-1.516410,-1.564612,0.433501,1.379016,-0.227167,0.820224,0.251980,-0.330188,3.718249,-0.731323,0.096587,14.953509,-3.865211,3.145701,0.024764,-0.080713,0.000000,-0.072338,-0.364954,0.000000
1.570000,-1.855415,-1.502608,-1.566900,0.441891,1.381499,-0.230463,0.858153,0.244471,-0.329060,3.867521,-0.770805,0.129429,14.876740,-4.029759,3.359803,0.024021,-0.084437,0.000000,-0.076174,-0.379698,0.000000
1.580000,-1.850953,-1.488780,-1.569221,0.450669,1.383905,-0.233747,0.897569,0.236559,-0.327599,4.015279,-0.811889,0.162463,14.668810,-4.184892,3.244242,0.023240,-0.088308,0.000000,-0.080171,-0.394299,0.000000
1.590000,-1.846401,-1.474930,-1.571575,0.459847,1.386229,-0.237014,0.938453,0.228228,-0.325811,4.161166,-0.854449,0.195553,14.521946,-4.324530,3.435459,0.022417,-0.092325,0.000000,-0.084315,-0.408720,0.000000
1.600000,-1.841754,-1.461056,-1.573961,0.469442,1.388468,-0.240262,0.980787,0.219465,-0.323681,4.305444,-0.898340,0.230623,14.308820,-4.451458,3.515247,0.021553,-0.096484,0.000000,-0.088588,-0.423006,0.000000
1.610000,-1.837010,-1.447161,-1.576380,0.479468,1.390617,-0.243486,1.024553,0.210258,-0.321199,4.447152,-0.943354,0.265720,14.058663,-4.562184,3.584743,0.020645,-0.100786,0.000000,-0.092973,-0.437045,0.000000
1.620000,-1.832164,-1.433244,-1.578831,0.489938,1.392671,-0.246685,1.069724,0.200594,-0.318357,4.586791,-0.989655,0.303052,13.832453,-4.682372,3.801663,0.019693,-0.105227,0.000000,-0.097482,-0.450908,0.000000
1.630000,-1.827210,-1.419308,-1.581314,0.500867,1.394627,-0.249852,1.116277,0.190462,-0.315140,4.723036,-1.036677,0.340076,13.409727,-4.718877,3.599896,0.018695,-0.109805,0.000000,-0.102064,-0.464442,-0.000000
1.640000,-1.822145,-1.405352,-1.583828,0.512268,1.396479,-0.252986,1.164172,0.179858,-0.311558,4.855486,-1.084236,0.376635,13.105143,-4.803190,3.791124,0.017652,-0.114516,0.000000,-0.106700,-0.477603,-0.000000
1.650000,-1.816963,-1.391378,-1.586373,0.524155,1.398223,-0.256082,1.213377,0.168775,-0.307599,4.984753,-1.132571,0.415206,12.711112,-4.847714,3.842781,0.016561,-0.119357,0.000000,-0.111408,-0.490480,0.000000
1.660000,-1.811660,-1.377388,-1.588950,0.536540,1.399853,-0.259137,1.263851,0.157207,-0.303256,5.109474,-1.180960,0.453478,12.276407,-4.869800,3.887275,0.015423,-0.124325,0.000000,-0.116122,-0.502914,-0.000000
1.670000,-1.806230,-1.363382,-1.591556,0.549436,1.401365,-0.262146,1.315555,0.145152,-0.298522,5.230610,-1.230298,0.493643,11.896562,-4.952905,4.071119,0.014238,-0.129416,0.000000,-0.120926,-0.515025,0.000000
1.680000,-1.800669,-1.349361,-1.594192,0.562855,1.402754,-0.265106,1.368445,0.132603,-0.293385,5.346273,-1.279079,0.533339,11.228169,-4.798693,3.865525,0.013005,-0.134625,0.000000,-0.125673,-0.526601,-0.000000
1.690000,-1.794972,-1.335327,-1.596858,0.576809,1.404016,-0.268012,1.422460,0.119573,-0.287858,5.456017,-1.327045,0.572443,10.762621,-4.833077,4.029703,0.011725,-0.139947,0.000000,-0.130339,-0.537594,0.000000
1.700000,-1.789131,-1.321281,-1.599552,0.591308,1.405144,-0.270862,1.477550,0.106061,-0.281929,5.560987,-1.375314,0.613295,10.176797,-4.775243,4.066136,0.010398,-0.145376,0.000000,-0.135029,-0.548150,0.000000
1.710000,-1.783144,-1.307225,-1.602275,0.606363,1.406135,-0.273650,1.533657,0.092072,-0.275593,5.659269,-1.422299,0.653954,9.547362,-4.691550,4.103006,0.009025,-0.150908,0.000000,-0.139589,-0.558057,0.000000
1.720000,-1.777002,-1.293159,-1.605025,0.621984,1.406984,-0.276372,1.590720,0.077612,-0.268846,5.752487,-1.469773,0.695707,9.018031,-4.726521,4.211067,0.007606,-0.156536,0.000000,-0.144192,-0.567490,-0.000000
1.730000,-1.770702,-1.279085,-1.607802,0.638180,1.407686,-0.279025,1.648681,0.062684,-0.261679,5.837994,-1.515222,0.737409,8.074799,-4.357360,4.128369,0.006142,-0.162256,0.000000,-0.148592,-0.576179,0.000000
1.740000,-1.764237,-1.265006,-1.610605,0.654960,1.408236,-0.281604,1.707452,0.047316,-0.254098,5.915309,-1.558326,0.779026,7.454233,-4.333600,4.232572,0.004635,-0.168057,0.000000,-0.152756,-0.584078,0.000000
1.750000,-1.757601,-1.250921,-1.613434,0.672332,1.408631,-0.284106,1.766967,0.031516,-0.246094,5.986339,-1.601195,0.821755,6.673056,-4.162758,4.277059,0.003087,-0.173936,0.000000,-0.156891,-0.591392,0.000000
1.760000,-1.750788,-1.236834,-1.616287,0.690302,1.408865,-0.286525,1.827148,0.015302,-0.237661,6.048524,-1.641326,0.864942,5.848672,-3.963090,4.331333,0.001498,-0.179882,0.000000,-0.160752,-0.597866,0.000000
1.770000,-1.743793,-1.222744,-1.619164,0.708877,1.408935,-0.288857,1.887917,-0.001311,-0.228796,6.104027,-1.681333,0.908124,5.157413,-3.934606,4.334828,-0.000128,-0.185891,0.000000,-0.164595,-0.603705,-0.000000
1.780000,-1.736609,-1.208655,-1.622064,0.728062,1.408838,-0.291099,1.949196,-0.018312,-0.219496,6.149696,-1.717844,0.952265,3.967570,-3.360792,4.495134,-0.001792,-0.191953,0.000000,-0.168091,-0.608624,-0.000000
1.790000,-1.729229,-1.194568,-1.624986,0.747862,1.408568,-0.293246,2.010876,-0.035655,-0.209747,6.185046,-1.750505,0.997464,3.185703,-3.269011,4.516590,-0.003489,-0.198060,0.000000,-0.171206,-0.612587,0.000000
1.800000,-1.721649,-1.180485,-1.627929,0.768281,1.408123,-0.295293,2.072872,-0.053321,-0.199546,6.212533,-1.782299,1.042869,2.217263,-2.985336,4.594772,-0.005216,-0.204203,0.000000,-0.174234,-0.615818,0.000000
1.810000,-1.713862,-1.166406,-1.630891,0.789320,1.407501,-0.297235,2.135089,-0.071286,-0.188883,6.229239,-1.809953,1.089882,1.209964,-2.673381,4.691766,-0.006972,-0.210373,0.000000,-0.176856,-0.618071,0.000000
1.820000,-1.705861,-1.152335,-1.633873,0.810983,1.406697,-0.299069,2.197430,-0.089520,-0.177755,6.237466,-1.836909,1.135651,0.340900,-2.587479,4.577354,-0.008753,-0.216562,0.000000,-0.179409,-0.619515,0.000000
1.830000,-1.697640,-1.138273,-1.636872,0.833269,1.405709,-0.300789,2.259799,-0.108006,-0.166161,6.234078,-1.858970,1.183848,-1.026533,-1.817745,5.066917,-0.010559,-0.222761,0.000000,-0.181487,-0.619932,-0.000000
1.840000,-1.689193,-1.124222,-1.639888,0.856179,1.404536,-0.302390,2.322071,-0.126681,-0.154068,6.218633,-1.875782,1.234714,-1.977580,-1.670313,4.992794,-0.012381,-0.228958,0.000000,-0.183061,-0.619300,0.000000
1.850000,-1.680514,-1.110183,-1.642920,0.879710,1.403175,-0.303869,2.384142,-0.145520,-0.141472,6.193660,-1.891232,1.284702,-3.111386,-1.289053,5.121526,-0.014220,-0.235145,0.000000,-0.184509,-0.617790,-0.000000
1.860000,-1.671597,-1.096159,-1.645965,0.903860,1.401625,-0.305218,2.445902,-0.164487,-0.128362,6.156322,-1.901458,1.337639,-4.277472,-0.886609,5.273008,-0.016070,-0.241311,0.000000,-0.185463,-0.615227,-0.000000
1.870000,-1.662435,-1.082151,-1.649024,0.928626,1.399885,-0.306434,2.507236,-0.183546,-0.114730,6.108787,-1.910142,1.388402,-5.314865,-0.719342,5.069190,-0.017929,-0.247448,0.000000,-0.186278,-0.611709,0.000000
1.880000,-1.653022,-1.068162,-1.652094,0.954003,1.397954,-0.307511,2.568033,-0.202670,-0.100580,6.048238,-1.913102,1.443000,-6.801833,0.133136,5.857463,-0.019793,-0.253544,0.000000,-0.186559,-0.607118,0.000000
1.890000,-1.643353,-1.054193,-1.655173,0.979985,1.395832,-0.308444,2.628155,-0.221787,-0.085855,5.974308,-1.910053,1.501761,-7.906110,0.348037,5.705381,-0.021658,-0.259589,0.000000,-0.186288,-0.601449,0.000000
1.900000,-1.633421,-1.040246,-1.658262,1.006564,1.393518,-0.309226,2.687484,-0.240866,-0.070554,5.889344,-1.905013,1.558738,-9.171847,0.790958,5.880546,-0.023519,-0.265572,0.000000,-0.185847,-0.594784,0.000000
1.910000,-1.623220,-1.026323,-1.661357,1.033731,1.391015,-0.309853,2.745896,-0.259867,-0.054664,5.790892,-1.894325,1.619755,-10.460227,1.243062,6.074900,-0.025373,-0.271484,0.000000,-0.184898,-0.587050,0.000000
1.920000,-1.612744,-1.012426,-1.664458,1.061478,1.388322,-0.310317,2.803264,-0.278746,-0.038173,5.680643,-1.881100,1.677956,-11.652490,1.503555,5.806601,-0.027216,-0.277314,0.000000,-0.183732,-0.578238,0.000000
1.930000,-1.601988,-0.998557,-1.667563,1.089793,1.385440,-0.310614,2.859462,-0.297469,-0.021087,5.556528,-1.862123,1.740947,-13.175253,2.295115,6.798858,-0.029046,-0.283050,0.000000,-0.182061,-0.568364,0.000000
1.940000,-1.590947,-0.984718,-1.670670,1.118663,1.382373,-0.310737,2.914347,-0.315968,-0.003335,5.418298,-1.837251,1.809049,-14.412733,2.576753,6.577716,-0.030856,-0.288682,0.000000,-0.179879,-0.557431,-0.000000
1.950000,-1.579613,-0.970910,-1.673777,1.148075,1.379122,-0.310679,2.967788,-0.334207,0.015081,5.267715,-1.809731,1.874553,-15.766207,3.028339,6.764676,-0.032643,-0.294200,0.000000,-0.177485,-0.545400,0.000000
1.960000,-1.567983,-0.957136,-1.676883,1.178014,1.375690,-0.310433,3.019649,-0.352142,0.034173,5.102078,-1.776480,1.944338,-17.150915,3.482755,6.954082,-0.034404,-0.299592,0.000000,-0.174604,-0.532218,0.000000
1.970000,-1.556051,-0.943397,-1.679985,1.208462,1.372080,-0.309993,3.069801,-0.369733,0.053955,4.926612,-1.741373,2.011404,-18.148732,3.670550,6.688183,-0.036135,-0.304848,0.000000,-0.171593,-0.518177,-0.000000
1.980000,-1.543812,-0.929695,-1.683082,1.239403,1.368296,-0.309352,3.118125,-0.386949,0.074418,4.734774,-1.700299,2.082907,-20.226137,4.546214,7.617185,-0.037834,-0.309958,0.000000,-0.168082,-0.502878,0.000000
1.990000,-1.531262,-0.916032,-1.686172,1.270818,1.364343,-0.308502,3.164439,-0.403718,0.095630,4.526232,-1.653205,2.159014,-21.275235,4.734962,7.367635,-0.039495,-0.314908,0.000000,-0.164074,-0.486306,0.000000
2.000000,-1.518395,-0.902409,-1.689252,1.302685,1.360224,-0.307437,3.208620,-0.420010,0.117584,4.307514,-1.604515,2.232172,-22.675136,5.134556,7.492778,-0.041115,-0.319689,0.000000,-0.159969,-0.468841,0.000000
2.010000,-1.505207,-0.888828,-1.692320,1.334983,1.355944,-0.306148,3.250532,-0.435791,0.140285,4.072448,-1.550916,2.308150,-24.086237,5.512074,7.590284,-0.042693,-0.324289,0.000000,-0.155473,-0.450079,-0.000000
2.020000,-1.491693,-0.875290,-1.695374,1.367688,1.351510,-0.304628,3.290042,-0.451022,0.163741,3.828123,-1.494993,2.382889,-25.020581,5.735432,7.457121,-0.044224,-0.328697,0.000000,-0.150816,-0.430549,0.000000
2.030000,-1.477851,-0.861798,-1.698412,1.400775,1.346926,-0.302871,3.327036,-0.465676,0.187949,3.566963,-1.434889,2.459385,-27.216673,6.282528,7.839564,-0.045708,-0.332903,0.000000,-0.145838,-0.409632,0.000000
2.040000,-1.463677,-0.848352,-1.701430,1.434219,1.342198,-0.300867,3.361323,-0.479706,0.212935,3.288769,-1.370807,2.537437,-28.173368,6.460384,7.658538,-0.047140,-0.336893,0.000000,-0.140561,-0.387295,0.000000
2.050000,-1.449166,-0.834955,-1.704428,1.467992,1.337334,-0.298609,3.392786,-0.493088,0.238689,3.001477,-1.305221,2.613317,-29.526258,6.718462,7.615915,-0.048519,-0.340655,0.000000,-0.135196,-0.364138,-0.000000
2.060000,-1.434316,-0.821606,-1.707402,1.502065,1.332339,-0.296091,3.421303,-0.505809,0.265201,2.699681,-1.238832,2.688934,-30.837588,6.896127,7.520076,-0.049844,-0.344180,0.000000,-0.129828,-0.339701,0.000000
2.070000,-1.419124,-0.808308,-1.710349,1.536408,1.327220,-0.293303,3.446735,-0.517832,0.292465,2.384736,-1.164275,2.763762,-32.137009,7.675393,7.415789,-0.051112,-0.347454,0.000000,-0.123725,-0.314070,0.000000
2.080000,-1.403587,-0.795062,-1.713267,1.570989,1.321984,-0.290239,3.468955,-0.529106,0.320470,2.057245,-1.092457,2.836627,-33.354925,6.670594,7.147329,-0.052320,-0.350465,0.000000,-0.117949,-0.287234,0.000000
2.090000,-1.387703,-0.781869,-1.716153,1.605776,1.316640,-0.286891,3.487840,-0.539696,0.349189,1.717580,-1.024271,2.906950,-34.580550,7.295403,6.928996,-0.053473,-0.353202,0.000000,-0.112583,-0.259176,-0.000000
2.100000,-1.371471,-0.768730,-1.719004,1.640735,1.311193,-0.283253,3.503267,-0.549564,0.378601,1.365846,-0.949556,2.974820,-35.748848,7.304966,6.613327,-0.054569,-0.355652,0.000000,-0.106620,-0.229873,-0.000000
2.110000,-1.354888,-0.755645,-1.721817,1.675830,1.305651,-0.279317,3.515113,-0.558700,0.408666,1.001298,-0.877927,3.037433,-36.898702,7.262028,6.201178,-0.055607,-0.357802,0.000000,-0.100990,-0.199118,0.000000
2.120000,-1.337954,-0.742617,-1.724589,1.711025,1.300021,-0.275077,3.523276,-0.567105,0.439359,0.630381,-0.802180,3.101406,-37.521874,7.637747,6.288091,-0.056587,-0.359639,0.000000,-0.094995,-0.167699,-0.000000
2.130000,-1.320667,-0.729645,-1.727317,1.746282,1.294311,-0.270528,3.527673,-0.574759,0.470664,0.245880,-0.730403,3.156792,-39.375943,6.702293,4.768102,-0.057508,-0.361155,0.000000,-0.089395,-0.134550,0.000000
2.140000,-1.303028,-0.716731,-1.729999,1.781565,1.288528,-0.265662,3.528147,-0.581730,0.502460,-0.151944,-0.663406,3.202472,-39.929224,6.933085,4.652467,-0.058377,-0.362328,0.000000,-0.084259,-0.099595,0.000000
2.150000,-1.285036,-0.703875,-1.732630,1.816832,1.282679,-0.260477,3.524622,-0.588015,0.534715,-0.554590,-0.593972,3.247075,-40.835545,6.702407,3.959587,-0.059192,-0.363148,0.000000,-0.078890,-0.063885,0.000000
2.160000,-1.266692,-0.691078,-1.735207,1.852044,1.276770,-0.254967,3.517015,-0.593629,0.567357,-0.968514,-0.529508,3.279636,-41.679432,6.413835,3.142884,-0.059956,-0.363602,0.000000,-0.073975,-0.026364,0.000000
2.170000,-1.247996,-0.678340,-1.737728,1.887159,1.270809,-0.249129,3.505246,-0.598597,0.600328,-1.385544,-0.463725,3.315227,-41.961659,6.510453,3.377651,-0.060671,-0.363675,0.000000,-0.068942,0.011715,0.000000
2.180000,-1.228949,-0.665662,-1.740188,1.922135,1.264801,-0.242959,3.489268,-0.602926,0.633603,-1.812684,-0.404165,3.334653,-43.458727,5.387025,0.476793,-0.061337,-0.363360,0.000000,-0.064454,0.051763,0.000000
2.190000,-1.209554,-0.653044,-1.742586,1.956929,1.258752,-0.236456,3.468959,-0.606705,0.666957,-2.249361,-0.351597,3.336350,-43.608603,5.345474,0.440881,-0.061962,-0.362631,0.000000,-0.060574,0.093853,0.000000
2.200000,-1.189811,-0.640487,-1.744916,1.991499,1.252668,-0.229620,3.444283,-0.609955,0.700341,-2.686651,-0.299328,3.338207,-44.082554,4.875310,-0.670264,-0.062548,-0.361478,0.000000,-0.056703,0.136547,0.000000
2.210000,-1.169724,-0.627990,-1.747177,2.025800,1.246555,-0.222450,3.415211,-0.612724,0.733652,-3.128330,-0.255635,3.321627,-44.411432,4.324794,-1.899173,-0.063099,-0.359889,0.000000,-0.053580,0.180935,-0.000000
2.220000,-1.149296,-0.615556,-1.749364,2.059789,1.240415,-0.214948,3.381693,-0.615049,0.766793,-3.576123,-0.208657,3.306972,-44.955591,4.609823,-1.778315,-0.063618,-0.357848,0.000000,-0.050111,0.226504,0.000000
2.230000,-1.128530,-0.603182,-1.751475,2.093419,1.234255,-0.207115,3.343691,-0.616939,0.799713,-4.023427,-0.173105,3.270404,-44.478888,2.480500,-5.568437,-0.064105,-0.355345,0.000000,-0.047644,0.273533,0.000000
2.240000,-1.107429,-0.590871,-1.753506,2.126648,1.228077,-0.198955,3.301233,-0.618556,0.832116,-4.468750,-0.149965,3.210290,-44.737483,2.600868,-5.721085,-0.064575,-0.352362,0.000000,-0.046278,0.321971,-0.000000
2.250000,-1.085998,-0.578621,-1.755453,2.159429,1.221885,-0.190474,3.254306,-0.619924,0.863929,-4.916255,-0.125084,3.149493,-44.567816,1.913211,-7.186566,-0.065029,-0.348888,0.000000,-0.044694,0.371435,0.000000
2.260000,-1.064242,-0.566433,-1.757314,2.191719,1.215680,-0.181679,3.202946,-0.621081,0.895031,-5.354338,-0.107131,3.068152,-44.146203,1.272235,-8.695763,-0.065470,-0.344916,0.000000,-0.043637,0.421521,-0.000000
2.270000,-1.042166,-0.554307,-1.759086,2.223473,1.209464,-0.172577,3.147144,-0.622121,0.925273,-5.809022,-0.103409,2.979060,-45.679517,-0.142838,-9.510550,-0.065907,-0.340429,0.000000,-0.044025,0.474369,-0.000000
2.280000,-1.019775,-0.542244,-1.760765,2.254647,1.203237,-0.163177,3.086838,-0.623154,0.954542,-6.244620,-0.101900,2.869812,-41.382492,0.452901,-12.356080,-0.066351,-0.335409,0.000000,-0.044435,0.526883,0.000000
2.290000,-0.997075,-0.530242,-1.762348,2.285196,1.197001,-0.153490,3.022334,-0.624162,0.982597,-6.658201,-0.102290,2.739568,-42.407945,-0.927027,-13.311434,-0.066796,-0.329871,0.000000,-0.044808,0.578722,0.000000
2.300000,-0.974073,-0.518304,-1.763833,2.315079,1.190754,-0.143529,2.953617,-0.625255,1.009310,-7.082982,-0.117177,2.600243,-41.430257,-1.662225,-14.940430,-0.067252,-0.323800,0.000000,-0.046648,0.632792,0.000000
2.310000,-0.950776,-0.506427,-1.765218,2.344254,1.184495,-0.133309,2.880698,-0.626608,1.034468,-7.500156,-0.157130,2.426635,-40.539625,-2.826523,-16.876743,-0.067738,-0.317182,0.000000,-0.050895,0.688004,0.000000
2.320000,-0.927190,-0.494614,-1.766499,2.372680,1.178221,-0.122845,2.803763,-0.628152,1.058014,-7.880028,-0.141483,2.289456,-36.807666,2.557512,-13.374649,-0.068245,-0.310027,0.000000,-0.049261,0.738840,-0.000000
2.330000,-0.903325,-0.482863,-1.767674,2.400317,1.171932,-0.112153,2.723069,-0.629634,1.080062,-8.265149,-0.177307,2.100058,-40.234001,-9.824346,-24.586530,-0.068743,-0.302359,0.000000,-0.052763,0.792552,-0.000000
2.340000,-0.879187,-0.471175,-1.768741,2.427128,1.165625,-0.101252,2.638431,-0.631911,1.099808,-8.655887,-0.269083,1.854908,-36.474416,-5.091501,-21.588088,-0.069322,-0.294127,0.000000,-0.061956,0.849114,0.000000
2.350000,-0.854785,-0.459551,-1.769698,2.453074,1.159292,-0.090164,2.550111,-0.634780,1.117326,-9.006056,-0.308096,1.644382,-34.937555,-6.121291,-23.339892,-0.069957,-0.285357,0.000000,-0.065503,0.900646,0.000000
2.360000,-0.830128,-0.447990,-1.770544,2.478119,1.152928,-0.078913,2.458407,-0.638011,1.132701,-9.329807,-0.334479,1.431878,-32.800979,-6.092109,-24.252656,-0.070624,-0.276080,0.000000,-0.067503,0.949656,0.000000
2.370000,-0.805226,-0.436492,-1.771276,2.502231,1.146529,-0.067519,2.363344,-0.642032,1.145519,-9.689259,-0.493641,1.112661,-36.133230,-18.987984,-34.618455,-0.071366,-0.266285,0.000000,-0.083379,1.005668,0.000000
2.380000,-0.780087,-0.425059,-1.771894,2.525374,1.140082,-0.056013,2.264837,-0.647566,1.155159,-9.990441,-0.572495,0.843890,-23.984439,3.435850,-18.964992,-0.072258,-0.255945,0.000000,-0.090587,1.053701,0.000000
2.390000,-0.754722,-0.413691,-1.772396,2.547519,1.133578,-0.044422,2.163772,-0.653128,1.162631,-10.227650,-0.561192,0.633403,-26.387304,-7.976911,-28.121024,-0.073139,-0.245189,0.000000,-0.087942,1.092879,0.000000
2.400000,-0.729140,-0.402388,-1.772782,2.568641,1.127017,-0.032770,2.060140,-0.659323,1.167411,-10.492587,-0.674166,0.324246,-23.629509,-7.831157,-28.708942,-0.074073,-0.234004,0.000000,-0.098293,1.137192,-0.000000
2.410000,-0.703352,-0.391151,-1.773051,2.588714,1.120389,-0.021084,1.954177,-0.666615,1.169109,-10.692664,-0.789128,0.011215,-20.469745,-8.817720,-29.968316,-0.075105,-0.222413,0.000000,-0.108587,1.173641,0.000000
2.420000,-0.677369,-0.379980,-1.773204,2.607717,1.113682,-0.009397,1.846061,-0.674623,1.167913,-10.939358,-0.792139,-0.238809,-24.871538,2.062922,-23.819280,-0.076192,-0.210450,0.000000,-0.106740,1.212701,0.000000
2.430000,-0.651202,-0.368877,-1.773239,2.625628,1.106896,0.002266,1.735686,-0.682776,1.164119,-11.106221,-0.877036,-0.544587,-8.364884,-19.230423,-37.436854,-0.077272,-0.198119,0.000000,-0.113282,1.243237,-0.000000
2.440000,-0.624860,-0.357843,-1.773159,2.642428,1.100021,0.013873,1.624255,-0.692513,1.156792,-11.187020,-1.052115,-0.910309,-11.807977,-9.564156,-31.851557,-0.078494,-0.185546,0.000000,-0.129146,1.263988,0.000000
2.450000,-0.598357,-0.346877,-1.772962,2.658109,1.093042,0.025391,1.511741,-0.703356,1.146187,-11.308168,-1.120908,-1.213737,-8.413797,-10.378167,-32.632834,-0.079805,-0.172750,0.000000,-0.133402,1.286269,-0.000000
2.460000,-0.571702,-0.335982,-1.772651,2.672659,1.085951,0.036786,1.398225,-0.715059,1.132443,-11.391718,-1.219407,-1.534953,-5.583793,-10.581377,-32.874489,-0.081175,-0.159758,0.000000,-0.140552,1.303034,-0.000000
2.470000,-0.544907,-0.325159,-1.772227,2.686072,1.078737,0.048028,1.284221,-0.727853,1.115378,-11.394956,-1.343958,-1.882551,2.294923,-13.077381,-35.364363,-0.082626,-0.146643,0.000000,-0.150026,1.309409,0.000000
2.480000,-0.517984,-0.314408,-1.771691,2.698344,1.071390,0.059082,1.170296,-0.741883,1.094850,-11.401301,-1.454679,-2.215359,-3.655584,-9.010821,-31.128023,-0.084169,-0.133484,0.000000,-0.157798,1.313906,0.000000
2.490000,-0.490944,-0.303731,-1.771046,2.709477,1.063897,0.069915,1.056150,-0.756881,1.071142,-11.414967,-1.548809,-2.529834,3.571154,-11.043774,-32.999835,-0.085774,-0.120273,0.000000,-0.163588,1.317050,0.000000
2.500000,-0.463799,-0.293130,-1.770294,2.719468,1.056248,0.080494,0.942296,-0.772953,1.044166,-11.352727,-1.664564,-2.863974,6.210948,-10.843097,-32.534734,-0.087449,-0.107085,0.000000,-0.171237,1.310011,0.000000
2.510000,-0.436559,-0.282607,-1.769437,2.728325,1.048434,0.090788,0.829079,-0.789963,1.014061,-11.287377,-1.731951,-3.151734,8.723362,-9.805385,-31.260131,-0.089176,-0.093979,0.000000,-0.173610,1.300237,0.000000
2.520000,-0.409236,-0.272162,-1.768479,2.736053,1.040446,0.100765,0.716783,-0.808140,0.980667,-11.161286,-1.926475,-3.546296,14.654216,-22.107621,-41.535788,-0.090977,-0.081004,0.000000,-0.188802,1.282903,0.000000
2.530000,-0.381841,-0.261799,-1.767423,2.742665,1.032265,0.110388,0.605848,-0.828128,0.943469,-11.032935,-2.027353,-3.854085,10.941237,2.161396,-19.806600,-0.092914,-0.068224,0.000000,-0.194006,1.262646,0.000000
2.540000,-0.354386,-0.251518,-1.766273,2.748174,1.023883,0.119627,0.496106,-0.848285,0.903956,-10.905925,-2.024208,-4.065130,16.283655,-8.569272,-28.527662,-0.094816,-0.055647,0.000000,-0.188422,1.240515,0.000000
2.550000,-0.326882,-0.241322,-1.765032,2.752592,1.015297,0.128458,0.387947,-0.869128,0.861739,-10.723280,-2.138851,-4.372072,18.390111,-7.337106,-26.717272,-0.096734,-0.043327,0.000000,-0.194676,1.211569,-0.000000
2.560000,-0.299338,-0.231212,-1.763705,2.755939,1.006497,0.136852,0.281677,-0.891048,0.816598,-10.527009,-2.248872,-4.656751,20.529975,-7.365963,-25.708443,-0.098708,-0.031310,0.000000,-0.200371,1.179809,-0.000000
2.570000,-0.271766,-0.221192,-1.762296,2.758233,0.997474,0.144781,0.177450,-0.913513,0.769005,-10.315986,-2.219013,-4.844612,21.957866,6.251170,-16.214241,-0.100680,-0.019625,0.000000,-0.191586,1.145268,-0.000000
2.580000,-0.244177,-0.211264,-1.760811,2.759495,0.988228,0.152226,0.075436,-0.935758,0.719541,-10.081892,-2.272634,-5.072400,24.847974,-17.196782,-29.467345,-0.102574,-0.008298,0.000000,-0.191479,1.107763,0.000000
2.590000,-0.216580,-0.201429,-1.759254,2.759750,0.978754,0.159163,-0.024111,-0.959333,0.667371,-9.825656,-2.419577,-5.345446,26.067838,-5.036073,-20.724685,-0.104547,0.002637,0.000000,-0.200790,1.067299,-0.000000
2.600000,-0.188985,-0.191689,-1.757630,2.759022,0.969039,0.165566,-0.121046,-0.983584,0.613024,-9.558410,-2.434038,-5.524049,27.662901,-4.982846,-19.374645,-0.106532,0.013161,0.000000,-0.196702,1.025369,0.000000
2.610000,-0.161403,-0.182049,-1.755944,2.757338,0.959081,0.171417,-0.215240,-1.008099,0.556893,-9.278661,-2.466266,-5.697744,29.002968,-4.143382,-17.437311,-0.108490,0.023257,0.000000,-0.194583,0.982095,0.000000
2.620000,-0.133841,-0.172509,-1.754203,2.754727,0.948876,0.176698,-0.306517,-1.033099,0.498965,-8.972050,-2.541502,-5.891748,31.572550,-8.290889,-19.329238,-0.110443,0.032908,0.000000,-0.196780,0.936004,0.000000
2.630000,-0.106311,-0.163072,-1.752412,2.751218,0.938417,0.181390,-0.394678,-1.058778,0.439220,-8.662867,-2.577231,-6.041645,30.214342,1.232132,-10.577817,-0.112411,0.042093,0.000000,-0.195256,0.890058,0.000000
2.640000,-0.078820,-0.153741,-1.750577,2.746843,0.927700,0.185479,-0.479780,-1.084478,0.378306,-8.353748,-2.569495,-6.144076,32.308481,-2.312014,-11.943880,-0.114333,0.050825,0.000000,-0.189804,0.844820,0.000000
2.650000,-0.051377,-0.144519,-1.748705,2.741633,0.916726,0.188953,-0.561670,-1.110345,0.316248,-8.023431,-2.601032,-6.263053,33.001976,-1.367713,-9.810123,-0.116225,0.059093,0.000000,-0.188358,0.797867,0.000000
2.660000,-0.023990,-0.135408,-1.746800,2.735621,0.905493,0.191800,-0.640287,-1.136395,0.253155,-7.700264,-2.607310,-6.352312,33.376204,-0.502325,-7.807254,-0.118091,0.066898,0.000000,-0.184727,0.752521,0.000000
2.670000,0.003333,-0.126410,-1.744871,2.728839,0.893998,0.194013,-0.715521,-1.162512,0.189288,-7.340150,-2.616711,-6.417013,36.899070,-0.777535,-5.357011,-0.119923,0.074236,0.000000,-0.181865,0.704327,0.000000
2.680000,0.030584,-0.117528,-1.742922,2.721322,0.882242,0.195584,-0.787166,-1.188672,0.124872,-6.998936,-2.610267,-6.464179,31.263491,2.085673,-4.083709,-0.121724,0.081097,0.000000,-0.177720,0.659102,0.000000
2.690000,0.057757,-0.108766,-1.740961,2.713106,0.870226,0.196509,-0.855590,-1.214657,0.060060,-6.680599,-2.587111,-6.494148,34.115239,1.940270,-1.684344,-0.123473,0.087529,0.000000,-0.172242,0.617219,0.000000
2.700000,0.084844,-0.100125,-1.738994,2.704222,0.857950,0.196785,-0.920646,-1.240433,-0.004927,-6.331875,-2.566353,-6.499853,33.874240,2.812154,0.312154,-0.125172,0.093527,0.000000,-0.167528,0.573402,0.000000
2.710000,0.111839,-0.091608,-1.737028,2.694705,0.845418,0.196411,-0.982285,-1.265954,-0.069892,-5.996636,-2.536922,-6.490405,33.557813,3.575231,2.224397,-0.126821,0.099097,0.000000,-0.162316,0.532031,-0.000000
2.720000,0.138736,-0.083217,-1.735068,2.684587,0.832632,0.195388,-1.040558,-1.291105,-0.134618,-5.657416,-2.490275,-6.449478,33.869656,5.261187,5.322084,-0.128414,0.104256,0.000000,-0.156015,0.491525,0.000000
2.730000,0.165529,-0.074956,-1.733122,2.673905,0.819597,0.193720,-1.095469,-1.315758,-0.198849,-5.327951,-2.442053,-6.397387,31.990877,4.363595,5.068903,-0.129943,0.109016,0.000000,-0.149919,0.453041,0.000000
2.740000,0.192213,-0.066826,-1.731196,2.662689,0.806318,0.191413,-1.147159,-1.339948,-0.262538,-5.009998,-2.393203,-6.335457,31.979707,5.895168,7.947437,-0.131414,0.113401,0.000000,-0.144090,0.416681,-0.000000
2.750000,0.218781,-0.058830,-1.729296,2.650972,0.792800,0.188472,-1.195662,-1.363561,-0.325449,-4.692104,-2.328454,-6.244041,31.184219,6.556278,9.689106,-0.132821,0.117426,0.000000,-0.137323,0.381518,0.000000
2.760000,0.245231,-0.050971,-1.727429,2.638786,0.779049,0.184907,-1.241041,-1.386547,-0.387395,-4.385334,-2.268914,-6.142873,30.298357,7.027246,11.324530,-0.134164,0.121106,0.000000,-0.131393,0.348366,-0.000000
2.770000,0.271556,-0.043250,-1.725600,2.626161,0.765072,0.180728,-1.283388,-1.408787,-0.448189,-4.085111,-2.172552,-6.010490,29.591576,10.608526,14.374567,-0.135436,0.124462,0.000000,-0.122575,0.316988,0.000000
2.780000,0.297752,-0.035670,-1.723816,2.613128,0.750877,0.175948,-1.322784,-1.430060,-0.507589,-3.796717,-2.091099,-5.871699,28.069933,5.626422,13.348661,-0.136622,0.127511,0.000000,-0.115490,0.287547,0.000000
2.790000,0.323817,-0.028233,-1.722083,2.599715,0.736473,0.170581,-1.359366,-1.450680,-0.565613,-3.521122,-2.027104,-5.728234,27.179129,8.815667,16.106797,-0.137754,0.130273,0.000000,-0.110292,0.260040,0.000000
2.800000,0.349746,-0.020941,-1.720406,2.585950,0.721866,0.164641,-1.393234,-1.470459,-0.622046,-3.254550,-1.928841,-5.556375,25.984404,9.192120,17.481950,-0.138817,0.132768,0.000000,-0.102438,0.234346,-0.000000
2.810000,0.375535,-0.013797,-1.718792,2.571859,0.707067,0.158146,-1.424498,-1.489255,-0.676718,-3.000207,-1.828881,-5.376053,24.756709,9.771340,18.808304,-0.139803,0.135012,0.000000,-0.094733,0.210463,0.000000
2.820000,0.401182,-0.006801,-1.717245,2.557468,0.692084,0.151113,-1.453289,-1.507101,-0.729504,-2.760666,-1.742903,-5.178264,23.259944,8.417557,20.506338,-0.140719,0.137026,0.000000,-0.088718,0.188680,0.000000
2.830000,0.426683,0.000045,-1.715771,2.542801,0.676928,0.143562,-1.479749,-1.524048,-0.780254,-2.532711,-1.639671,-4.971023,22.328865,12.257388,20.922227,-0.141572,0.138829,0.000000,-0.081394,0.168540,0.000000
2.840000,0.452037,0.006737,-1.714376,2.527881,0.661607,0.135515,-1.503982,-1.539825,-0.828899,-2.316523,-1.517949,-4.755401,20.787846,11.079178,22.422421,-0.142341,0.140436,0.000000,-0.072655,0.149992,0.000000
2.850000,0.477240,0.013276,-1.713063,2.512728,0.646135,0.126992,-1.526134,-1.554470,-0.875308,-2.116036,-1.409606,-4.524809,19.422897,11.588707,23.450757,-0.143032,0.141866,0.000000,-0.065479,0.133425,-0.000000
2.860000,0.502291,0.019660,-1.711837,2.497364,0.630522,0.118016,-1.546342,-1.567982,-0.919376,-1.927803,-1.292221,-4.287445,18.055436,12.003195,24.375931,-0.143648,0.143137,0.000000,-0.057706,0.118368,0.000000
2.870000,0.527187,0.025886,-1.710704,2.481807,0.614779,0.108613,-1.564749,-1.580291,-0.960997,-1.756479,-1.168520,-4.034173,16.370740,12.619389,25.909705,-0.144186,0.144265,0.000000,-0.049688,0.105314,-0.000000
2.880000,0.551926,0.031955,-1.709666,2.466075,0.598920,0.098805,-1.581510,-1.591345,-1.000049,-1.596990,-1.042299,-3.776977,15.533016,12.617974,25.505722,-0.144642,0.145269,0.000000,-0.041613,0.093603,0.000000
2.890000,0.576508,0.037864,-1.708729,2.450182,0.582957,0.088620,-1.596726,-1.601130,-1.036531,-1.449057,-0.913910,-3.517113,13.892525,13.172087,26.813794,-0.145018,0.146161,0.000000,-0.033483,0.083158,0.000000
2.900000,0.600929,0.043614,-1.707895,2.434145,0.566902,0.078083,-1.610549,-1.609602,-1.070341,-1.317699,-0.779904,-3.244001,12.545177,13.510774,27.437948,-0.145311,0.146957,0.000000,-0.025106,0.074530,0.000000
2.910000,0.625190,0.049202,-1.707168,2.417976,0.550769,0.067222,-1.623113,-1.616726,-1.101401,-1.197156,-0.644463,-2.967276,11.246606,13.811103,27.999731,-0.145520,0.147671,0.000000,-0.016729,0.067048,-0.000000
2.920000,0.649289,0.054629,-1.706552,2.401686,0.534572,0.056065,-1.634561,-1.622462,-1.129660,-1.095620,-0.501563,-2.683284,9.377542,14.535754,28.685061,-0.145643,0.148319,0.000000,-0.007837,0.061458,0.000000
2.930000,0.673224,0.059893,-1.706048,2.385288,0.518325,0.044639,-1.645053,-1.626759,-1.155057,-1.002946,-0.358637,-2.395947,9.173424,14.039423,28.767377,-0.145677,0.148916,0.000000,0.000956,0.056786,0.000000
2.940000,0.696994,0.064995,-1.705660,2.368788,0.502041,0.032973,-1.654644,-1.629639,-1.177571,-0.918315,-0.216179,-2.106112,7.445789,14.681638,29.290900,-0.145625,0.149469,0.000000,0.009631,0.052932,-0.000000
2.950000,0.720599,0.069934,-1.705389,2.352197,0.485737,0.021097,-1.663483,-1.631056,-1.197160,-0.851202,-0.067029,-1.811230,6.298443,14.914297,29.571924,-0.145482,0.149992,0.000000,0.018820,0.050750,0.000000
2.960000,0.744038,0.074710,-1.705238,2.335521,0.469425,0.009040,-1.671690,-1.630973,-1.213791,-0.791806,0.084052,-1.514598,5.223859,15.162075,29.787695,-0.145248,0.150497,0.000000,0.028140,0.049321,-0.000000
2.970000,0.767309,0.079323,-1.705209,2.318765,0.453122,-0.003169,-1.679384,-1.629378,-1.227443,-0.749905,0.234900,-1.215285,3.521287,15.138495,30.021071,-0.144920,0.150995,0.000000,0.037423,0.049506,-0.000000
2.980000,0.790413,0.083772,-1.705302,2.301934,0.436843,-0.015499,-1.686705,-1.626261,-1.238095,-0.713719,0.389577,-0.915294,3.737436,15.798778,29.965437,-0.144498,0.151499,0.000000,0.047045,0.050241,-0.000000
2.990000,0.813348,0.088060,-1.705519,2.285032,0.420602,-0.027921,-1.693671,-1.621573,-1.245749,-0.682128,0.548131,-0.615313,2.233091,15.775160,30.063906,-0.143978,0.152012,0.000000,0.057031,0.051416,0.000000
3.000000,0.836113,0.092185,-1.705861,2.268062,0.404417,-0.040404,-1.700404,-1.615303,-1.250398,-0.665782,0.706179,-0.314586,1.405058,15.966491,30.028078,-0.143358,0.152544,0.000000,0.067025,0.053974,0.000000
3.010000,0.858709,0.096148,-1.706327,2.251025,0.388302,-0.052919,-1.706997,-1.607436,-1.252043,-0.653796,0.867544,-0.014484,0.663177,16.152648,29.940610,-0.142636,0.153104,0.000000,0.077375,0.056946,0.000000
3.020000,0.881133,0.099951,-1.706919,2.233922,0.372273,-0.065435,-1.713531,-1.597958,-1.250695,-0.655411,1.027793,0.283647,-0.642644,16.041912,29.716979,-0.141810,0.153699,0.000000,0.087744,0.061127,0.000000
3.030000,0.903387,0.103594,-1.707636,2.216754,0.356348,-0.077923,-1.720111,-1.586868,-1.246374,-0.659448,1.191421,0.580524,-0.141577,16.685806,29.650400,-0.140880,0.154339,0.000000,0.098511,0.065554,0.000000
3.040000,0.925468,0.107078,-1.708477,2.199520,0.340541,-0.090352,-1.726722,-1.574117,-1.239090,-0.664677,1.358487,0.875648,-1.225181,16.576660,29.324131,-0.139839,0.155023,0.000000,0.109705,0.070121,-0.000000
3.050000,0.947377,0.110405,-1.709443,2.182219,0.324871,-0.102695,-1.733447,-1.559705,-1.228873,-0.680848,1.524163,1.167178,-1.662544,16.703866,29.014144,-0.138686,0.155759,0.000000,0.120960,0.075663,-0.000000
3.060000,0.969112,0.113576,-1.710531,2.164850,0.309353,-0.114920,-1.740336,-1.543625,-1.215754,-0.697460,1.692090,1.456156,-2.000658,16.813019,28.661599,-0.137418,0.156551,0.000000,0.132582,0.081285,-0.000000
3.070000,0.990674,0.116593,-1.711741,2.147412,0.294004,-0.127000,-1.747435,-1.525866,-1.199772,-0.723849,1.859764,1.739215,-2.919465,16.782628,28.049568,-0.136033,0.157404,0.000000,0.144427,0.087769,0.000000
3.080000,1.012060,0.119457,-1.713070,2.129901,0.278841,-0.138906,-1.754804,-1.506424,-1.180979,-0.748356,2.029023,2.019248,-1.957647,17.068145,27.952082,-0.134528,0.158322,0.000000,0.156617,0.094141,0.000000
3.090000,1.033272,0.122170,-1.714518,2.112315,0.263881,-0.150610,-1.762388,-1.485280,-1.159397,-0.769683,2.199776,2.295905,-2.640947,17.014972,27.262100,-0.132900,0.159303,0.000000,0.169167,0.100289,-0.000000
3.100000,1.054306,0.124735,-1.716082,2.094652,0.249141,-0.162085,-1.770227,-1.462432,-1.135087,-0.797954,2.369804,2.565253,-2.653511,17.051638,26.708132,-0.131144,0.160349,0.000000,0.181964,0.107060,0.000000
3.110000,1.075164,0.127154,-1.717759,2.076909,0.234638,-0.173303,-1.778330,-1.437882,-1.108107,-0.822155,2.540268,2.829905,-2.563093,17.061388,26.110308,-0.129259,0.161461,0.000000,0.195076,0.113527,0.000000
3.120000,1.095844,0.129429,-1.719547,2.059084,0.220389,-0.184239,-1.786698,-1.411625,-1.078518,-0.852537,2.711181,3.086344,-3.121646,17.094567,25.270296,-0.127241,0.162641,0.000000,0.208584,0.120553,0.000000
3.130000,1.116346,0.131563,-1.721443,2.041174,0.206411,-0.194865,-1.795356,-1.383660,-1.046397,-0.876378,2.881603,3.337267,-1.621684,16.985439,24.909634,-0.125087,0.163890,0.000000,0.222366,0.127058,0.000000
3.140000,1.136668,0.133558,-1.723443,2.023177,0.192722,-0.205158,-1.804196,-1.353996,-1.011792,-0.892372,3.051281,3.582340,-1.946679,16.969625,23.995237,-0.122793,0.165199,0.000000,0.236419,0.132919,-0.000000
3.150000,1.156809,0.135418,-1.725545,2.005090,0.179337,-0.215093,-1.813221,-1.322635,-0.974784,-0.911817,3.220720,3.817879,-1.549144,16.891132,23.206103,-0.120357,0.166570,0.000000,0.250868,0.139091,-0.000000
3.160000,1.176769,0.137146,-1.727744,1.986912,0.166275,-0.224646,-1.822399,-1.289582,-0.935462,-0.922742,3.389662,4.045060,-1.055979,16.800338,22.349117,-0.117775,0.167999,0.000000,0.265669,0.144522,0.000000
3.170000,1.196547,0.138745,-1.730036,1.968642,0.153551,-0.233795,-1.831694,-1.254853,-0.893902,-0.936680,3.555789,4.265865,-1.301614,16.510780,21.681873,-0.115043,0.169482,0.000000,0.280628,0.150277,-0.000000
3.180000,1.216142,0.140218,-1.732418,1.950278,0.141183,-0.242517,-1.841094,-1.218467,-0.850181,-0.939765,3.721682,4.475975,0.708123,16.666272,20.328663,-0.112161,0.171020,0.000000,0.296014,0.155039,-0.000000
3.190000,1.235552,0.141570,-1.734885,1.931820,0.129187,-0.250792,-1.850445,-1.180420,-0.804421,-0.930790,3.887199,4.674766,0.673581,16.341479,19.545734,-0.109121,0.172599,0.000000,0.311833,0.158670,0.000000
3.200000,1.254778,0.142803,-1.737432,1.913269,0.117580,-0.258599,-1.859719,-1.140736,-0.756710,-0.922515,4.049188,4.865699,1.411883,16.142096,18.509923,-0.105924,0.174214,0.000000,0.327794,0.162373,0.000000
3.210000,1.273817,0.143923,-1.740055,1.894626,0.106378,-0.265920,-1.868850,-1.099451,-0.707149,-0.902163,4.207163,5.044530,2.223219,15.861463,17.420217,-0.102565,0.175860,0.000000,0.343879,0.164906,0.000000
3.220000,1.292670,0.144932,-1.742749,1.875893,0.095597,-0.272736,-1.877771,-1.056569,-0.655842,-0.881979,4.370124,5.215539,2.250624,16.324576,16.608933,-0.099042,0.177530,0.000000,0.360915,0.167442,0.000000
3.230000,1.311335,0.145836,-1.745508,1.857071,0.085252,-0.279031,-1.886441,-1.012078,-0.602885,-0.847991,4.525134,5.373097,4.566380,14.660165,14.891083,-0.095348,0.179220,0.000000,0.377740,0.168591,0.000000
3.240000,1.329811,0.146639,-1.748328,1.838165,0.075360,-0.284789,-1.894678,-0.966099,-0.548429,-0.799246,4.671352,5.516589,4.753108,14.983905,13.968557,-0.091489,0.180912,0.000000,0.394267,0.168214,-0.000000
3.250000,1.348098,0.147345,-1.751202,1.819179,0.065935,-0.289995,-1.902429,-0.918632,-0.492580,-0.749155,4.821283,5.650930,5.701495,14.594119,12.726772,-0.087459,0.182599,0.000000,0.411654,0.167618,-0.000000
3.260000,1.366194,0.147959,-1.754126,1.800119,0.056992,-0.294636,-1.909615,-0.869696,-0.435455,-0.686387,4.965171,5.771983,6.661757,14.202123,11.463339,-0.083256,0.184272,0.000000,0.429002,0.165648,0.000000
3.270000,1.384100,0.148486,-1.757093,1.780989,0.048546,-0.298700,-1.916140,-0.819340,-0.377185,-0.617659,5.105453,5.879953,7.272175,13.828243,10.139979,-0.078878,0.185921,0.000000,0.446544,0.162907,0.000000
3.280000,1.401814,0.148932,-1.760098,1.761798,0.040610,-0.302176,-1.921927,-0.767602,-0.317899,-0.537002,5.241196,5.974985,8.864837,13.315960,8.862091,-0.074325,0.187536,0.000000,0.464175,0.158801,0.000000
3.290000,1.419336,0.149300,-1.763135,1.742554,0.033198,-0.305055,-1.926838,-0.714532,-0.257729,-0.444162,5.372143,6.056807,9.512912,12.892111,7.482892,-0.069595,0.189101,0.000000,0.481860,0.153258,0.000000
3.300000,1.436665,0.149597,-1.766197,1.723265,0.026324,-0.307329,-1.930793,-0.660173,-0.196810,-0.345178,5.498779,6.124676,10.469481,12.409493,6.101472,-0.064687,0.190606,0.000000,0.499647,0.146804,0.000000
3.310000,1.453801,0.149828,-1.769279,1.703941,0.019999,-0.308989,-1.933710,-0.604565,-0.135288,-0.236723,5.622332,6.177092,11.376833,11.946774,4.662779,-0.059601,0.192039,0.000000,0.517644,0.139054,0.000000
3.320000,1.470744,0.149999,-1.772375,1.684594,0.014236,-0.310033,-1.935485,-0.547771,-0.073293,-0.116265,5.734419,6.220480,12.555215,10.807555,3.734795,-0.054337,0.193387,0.000000,0.534967,0.129842,0.000000
3.330000,1.487493,0.150115,-1.775478,1.665236,0.009047,-0.310454,-1.936013,-0.489877,-0.010941,0.011027,5.845560,6.245919,12.892195,11.427730,1.341437,-0.048900,0.194636,0.000000,0.552681,0.119458,0.000000
3.340000,1.504048,0.150182,-1.778582,1.645878,0.004443,-0.310251,-1.935245,-0.430859,0.051561,0.144569,5.956014,6.252850,13.964845,10.315755,0.321549,-0.043282,0.195775,0.000000,0.570792,0.107909,0.000000
3.350000,1.520410,0.150206,-1.781681,1.626535,0.000433,-0.309423,-1.933084,-0.370802,0.114088,0.288849,6.054717,6.249934,14.726673,9.763626,-1.184395,-0.037487,0.196791,0.000000,0.588115,0.094882,0.000000
3.360000,1.536579,0.150193,-1.784768,1.607222,-0.002970,-0.307970,-1.929453,-0.309782,0.176496,0.438173,6.148020,6.228853,15.413342,9.138845,-2.716308,-0.031520,0.197670,0.000000,0.605285,0.080737,0.000000
3.370000,1.552555,0.150149,-1.787838,1.587952,-0.005759,-0.305894,-1.924275,-0.247843,0.238640,0.599537,6.239678,6.198506,16.573145,8.950351,-3.660654,-0.025381,0.198400,0.000000,0.622613,0.064915,0.000000
3.380000,1.568338,0.150080,-1.790884,1.568742,-0.007924,-0.303198,-1.917456,-0.185022,0.300401,0.763623,6.321939,6.149192,16.224227,7.490441,-6.211306,-0.019070,0.198966,0.000000,0.639300,0.048117,0.000000
3.390000,1.583930,0.149992,-1.793900,1.549608,-0.009457,-0.299888,-1.908999,-0.121439,0.361557,0.929376,6.394239,6.080511,17.193057,7.206812,-7.213413,-0.012598,0.199360,0.000000,0.655212,0.030417,-0.000000
3.400000,1.599331,0.149893,-1.796880,1.530567,-0.010351,-0.295969,-1.898831,-0.057142,0.421984,1.104868,6.463955,6.002324,17.614562,6.492626,-8.731056,-0.005966,0.199569,0.000000,0.671042,0.011171,-0.000000
3.410000,1.614542,0.149787,-1.799817,1.511637,-0.010598,-0.291451,-1.886908,0.007814,0.481542,1.279955,6.526137,5.906673,17.915776,5.788960,-10.231557,0.000821,0.199581,0.000000,0.686228,-0.008773,0.000000
3.420000,1.629564,0.149683,-1.802707,1.492835,-0.010192,-0.286342,-1.873180,0.073345,0.540082,1.467742,6.578273,5.799279,19.117501,4.781302,-11.403017,0.007755,0.199386,0.000000,0.700435,-0.030665,0.000000
3.430000,1.644399,0.149586,-1.805542,1.474180,-0.009129,-0.280653,-1.857571,0.139362,0.597472,1.651311,6.624768,5.675347,17.565943,4.518673,-13.383510,0.014828,0.198967,0.000000,0.714054,-0.052874,0.000000
3.440000,1.659048,0.149502,-1.808318,1.455690,-0.007404,-0.274397,-1.840177,0.205823,0.653532,1.829086,6.665608,5.534951,18.488995,3.497584,-14.528416,0.022034,0.198328,0.000000,0.726999,-0.075218,0.000000
3.450000,1.673513,0.149440,-1.811028,1.437382,-0.005012,-0.267587,-1.820948,0.272637,0.708137,2.016422,6.695903,5.383533,18.449174,2.705108,-15.908707,0.029363,0.197456,0.000000,0.738687,-0.099192,0.000000
3.460000,1.687796,0.149404,-1.813668,1.419277,-0.001950,-0.260240,-1.799877,0.339710,0.761155,2.197364,6.717232,5.217908,18.287775,1.848537,-17.231727,0.036804,0.196344,0.000000,0.749187,-0.123176,0.000000
3.470000,1.701900,0.149403,-1.816231,1.401391,0.001783,-0.252370,-1.776962,0.406976,0.812450,2.387056,6.735482,5.038852,19.088350,1.515220,-18.548097,0.044346,0.194985,0.000000,0.759066,-0.148745,-0.000000
3.480000,1.715825,0.149442,-1.818714,1.383744,0.006190,-0.243997,-1.752171,0.474377,0.861891,2.567341,6.741530,4.847604,16.936195,-0.317825,-19.691083,0.051979,0.193368,0.000000,0.767244,-0.173920,0.000000
3.490000,1.729575,0.149529,-1.821110,1.366353,0.011271,-0.235139,-1.725656,0.541762,0.909363,2.736541,6.734782,4.644779,17.440683,-0.749422,-20.885918,0.059684,0.191504,0.000000,0.773555,-0.198452,0.000000
3.500000,1.743153,0.149670,-1.823415,1.349237,0.017025,-0.225816,-1.697412,0.609064,0.954748,2.911166,6.724057,4.430306,16.918548,-1.683028,-21.974878,0.067448,0.189387,0.000000,0.778902,-0.224087,0.000000
3.510000,1.756561,0.149872,-1.825625,1.332411,0.023451,-0.216051,-1.667480,0.676202,0.997941,3.073905,6.701734,4.206798,16.269825,-2.631727,-22.965312,0.075256,0.187016,0.000000,0.782365,-0.248852,-0.000000
3.520000,1.769802,0.150141,-1.827734,1.315892,0.030548,-0.205865,-1.635904,0.743080,1.038832,3.242303,6.672778,3.968947,16.759999,-3.309712,-24.348039,0.083091,0.184391,0.000000,0.784393,-0.274719,0.000000
3.530000,1.782880,0.150485,-1.829740,1.299698,0.038312,-0.195283,-1.602689,0.809618,1.077302,3.395484,6.632391,3.725224,13.842908,-4.774267,-24.375016,0.090937,0.181508,0.000000,0.784417,-0.299174,-0.000000
3.540000,1.795797,0.150910,-1.831639,1.283843,0.046739,-0.184327,-1.568056,0.875687,1.113322,3.531758,6.580252,3.476806,14.041037,-5.505703,-25.539895,0.098772,0.178388,0.000000,0.782347,-0.321927,-0.000000
3.550000,1.808558,0.151422,-1.833426,1.268342,0.055824,-0.173025,-1.532034,0.941202,1.146795,3.670607,6.520980,3.216813,13.076900,-6.498747,-26.197825,0.106578,0.175034,0.000000,0.778602,-0.345208,0.000000
3.560000,1.821165,0.152028,-1.835098,1.253207,0.065561,-0.161400,-1.494702,1.006066,1.177654,3.793914,6.450000,2.954354,12.033309,-7.509144,-26.727673,0.114336,0.171451,0.000000,0.772688,-0.366761,0.000000
3.570000,1.833623,0.152735,-1.836653,1.238452,0.075943,-0.149480,-1.456154,1.070183,1.205830,3.915292,6.372524,2.678446,11.785996,-8.169529,-28.001577,0.122026,0.167650,0.000000,0.765037,-0.388251,0.000000
3.580000,1.845936,0.153549,-1.838087,1.224088,0.086962,-0.137293,-1.416455,1.133474,1.231231,4.020074,6.282761,2.403810,9.147510,-9.788697,-26.895259,0.129629,0.163635,0.000000,0.755123,-0.407685,0.000000
3.590000,1.858106,0.154477,-1.839398,1.210126,0.098609,-0.124865,-1.375816,1.195795,1.253919,4.107098,6.180467,2.132052,8.699772,-10.484218,-27.879796,0.137121,0.159435,0.000000,0.742941,-0.424838,0.000000
3.600000,1.870140,0.155524,-1.840584,1.196574,0.110874,-0.112224,-1.334318,1.257064,1.273831,4.190097,6.071525,1.850296,7.444014,-11.487403,-28.015286,0.144483,0.155059,0.000000,0.728988,-0.441434,0.000000
3.610000,1.882039,0.156696,-1.841642,1.183442,0.123746,-0.099398,-1.292067,1.317175,1.290946,4.258048,5.948610,1.573026,6.175370,-12.531314,-28.010119,0.151693,0.150521,0.000000,0.712642,-0.455916,-0.000000
3.620000,1.893810,0.158001,-1.842571,1.170735,0.137213,-0.086414,-1.249197,1.376048,1.305245,4.313824,5.826122,1.285022,4.941218,-12.509030,-29.002402,0.158733,0.145839,0.000000,0.695304,-0.468820,-0.000000
3.630000,1.905456,0.159442,-1.843370,1.158460,0.151263,-0.073302,-1.205836,1.433638,1.316678,4.356078,5.687044,1.005311,3.505160,-15.319636,-26.904837,0.165590,0.141032,0.000000,0.675398,-0.479625,0.000000
3.640000,1.916981,0.161028,-1.844037,1.146619,0.165881,-0.060090,-1.162122,1.489727,1.325390,4.384555,5.530854,0.735708,2.221982,-15.362631,-27.575736,0.172232,0.136121,0.000000,0.652972,-0.488259,-0.000000
3.650000,1.928389,0.162762,-1.844571,1.135218,0.181052,-0.046804,-1.118187,1.544267,1.331359,4.400190,5.375223,0.459026,0.869693,-16.306521,-27.169271,0.178647,0.131126,0.000000,0.629752,-0.495077,0.000000
3.660000,1.939686,0.164650,-1.844973,1.124256,0.196761,-0.033472,-1.074172,1.597207,1.334611,4.400231,5.211887,0.192688,-0.522501,-17.094738,-26.639845,0.184823,0.126068,0.000000,0.605201,-0.499480,0.000000
3.670000,1.950876,0.166699,-1.845241,1.113734,0.212991,-0.020120,-1.030201,1.648419,1.335186,4.392863,5.026655,-0.078584,-1.278177,-19.225725,-27.058353,0.190739,0.120967,0.000000,0.577489,-0.502622,0.000000
3.680000,1.961963,0.168912,-1.845375,1.103652,0.229723,-0.006777,-0.986376,1.697749,1.333087,4.367815,4.842611,-0.336822,-3.738937,-17.552945,-24.557638,0.196373,0.115839,0.000000,0.549658,-0.503080,-0.000000
3.690000,1.972950,0.171295,-1.845376,1.094005,0.246940,0.006533,-0.942907,1.745285,1.328503,4.324792,4.661214,-0.580389,-4.530147,-19.444066,-24.687651,0.201734,0.110718,0.000000,0.522004,-0.500832,0.000000
3.700000,1.983844,0.173852,-1.845245,1.084792,0.264622,0.019785,-0.899899,1.790895,1.321464,4.274492,4.460053,-0.825662,-5.854564,-20.056396,-23.809740,0.206803,0.105619,0.000000,0.491743,-0.497333,0.000000
3.710000,1.994648,0.176589,-1.844981,1.076006,0.282751,0.032955,-0.857459,1.834491,1.312045,4.211596,4.258456,-1.056292,-7.080632,-20.623993,-22.831173,0.211570,0.100561,0.000000,0.461498,-0.491806,0.000000
3.720000,2.005366,0.179509,-1.844586,1.067640,0.301305,0.046018,-0.815737,1.876016,1.300329,4.129690,4.044345,-1.286902,-8.940570,-21.831420,-22.767874,0.216027,0.095568,0.000000,0.429636,-0.483729,-0.000000
3.730000,2.016002,0.182616,-1.844061,1.059688,0.320264,0.058954,-0.774888,1.915379,1.286367,4.040342,3.829520,-1.500690,-8.909004,-21.113981,-19.963561,0.220163,0.090661,0.000000,0.397992,-0.474274,0.000000
3.740000,2.026561,0.185915,-1.843407,1.052140,0.339606,0.071739,-0.734948,1.952610,1.270380,3.944583,3.614988,-1.696334,-10.588091,-22.145413,-19.672983,0.223988,0.085852,0.000000,0.366794,-0.463611,0.000000
3.750000,2.037046,0.189410,-1.842627,1.044985,0.359309,0.084355,-0.696059,1.987637,1.252439,3.831814,3.389853,-1.889594,-11.600816,-22.512499,-18.456237,0.227495,0.081160,0.000000,0.334488,-0.450748,0.000000
3.760000,2.047462,0.193103,-1.841721,1.038215,0.379351,0.096782,-0.658313,2.020403,1.232645,3.716341,3.162752,-2.067033,-12.459074,-22.856201,-17.209138,0.230679,0.076600,0.000000,0.302465,-0.437227,0.000000
3.770000,2.057812,0.196998,-1.840692,1.031815,0.399709,0.109002,-0.621839,2.050885,1.211126,3.573882,2.933295,-2.235355,-15.072451,-23.068297,-16.271305,0.233544,0.072191,0.000000,0.270522,-0.420429,-0.000000
3.780000,2.068099,0.201098,-1.839542,1.025773,0.420361,0.120999,-0.586817,2.079058,1.187989,3.435045,2.700684,-2.388616,-12.652975,-23.446564,-14.371563,0.236091,0.067956,0.000000,0.238837,-0.403814,0.000000
3.790000,2.078328,0.205406,-1.838273,1.020074,0.441283,0.132757,-0.553112,2.104889,1.163407,3.301893,2.465380,-2.526336,-14.921913,-23.563429,-13.350277,0.238322,0.063882,0.000000,0.207517,-0.387654,-0.000000
3.800000,2.088502,0.209924,-1.836887,1.014706,0.462451,0.144262,-0.520875,2.128363,1.137493,3.144990,2.229233,-2.654049,-15.491869,-23.699124,-12.011491,0.240242,0.059988,0.000000,0.176602,-0.368746,0.000000
3.810000,2.098623,0.214656,-1.835388,1.009652,0.483842,0.155503,-0.490197,2.149479,1.110368,2.989953,1.994178,-2.768860,-15.992351,-23.732122,-10.707542,0.241857,0.056287,0.000000,0.146448,-0.349985,0.000000
3.820000,2.108696,0.219602,-1.833778,1.004896,0.505433,0.166466,-0.461131,2.168212,1.082179,2.820891,1.750816,-2.865976,-17.332630,-24.515645,-8.952637,0.243170,0.052786,0.000000,0.116162,-0.329617,0.000000
3.830000,2.118722,0.224765,-1.832060,1.000423,0.527198,0.177143,-0.433770,2.184517,1.053081,2.653521,1.512768,-2.952897,-16.114119,-23.072771,-8.441212,0.244184,0.049494,0.000000,0.087054,-0.309479,0.000000
3.840000,2.128705,0.230146,-1.830236,0.996216,0.549115,0.187525,-0.408046,2.198492,1.023152,2.489244,1.281102,-3.030086,-17.208728,-23.672745,-6.761854,0.244916,0.046405,0.000000,0.059220,-0.289749,0.000000
3.850000,2.138647,0.235748,-1.828310,0.992257,0.571160,0.197604,-0.384031,2.210110,0.992540,2.313658,1.043033,-3.090235,-17.418671,-23.514640,-5.509530,0.245368,0.043526,0.000000,0.031467,-0.268833,-0.000000
3.860000,2.148551,0.241570,-1.826285,0.988529,0.593310,0.207374,-0.361762,2.219369,0.961372,2.140107,0.809111,-3.141554,-17.558427,-23.331913,-4.319984,0.245549,0.040861,0.000000,0.004716,-0.248267,0.000000
3.870000,2.158419,0.247614,-1.824164,0.985016,0.615540,0.216830,-0.341255,2.226293,0.929784,1.960151,0.575896,-3.172704,-18.151527,-23.237252,-2.342682,0.245466,0.038410,0.000000,-0.021121,-0.227099,-0.000000
3.880000,2.168252,0.253881,-1.821950,0.981698,0.637828,0.225969,-0.322548,2.230898,0.897936,1.782967,0.345907,-3.197494,-17.266388,-22.752033,-2.635405,0.245129,0.036176,0.000000,-0.046150,-0.206408,0.000000
3.890000,2.178053,0.260371,-1.819646,0.978559,0.660150,0.234788,-0.305581,2.233224,0.865849,1.609564,0.119619,-3.216926,-17.676907,-22.567383,-0.827917,0.244546,0.034152,0.000000,-0.070366,-0.186308,0.000000
3.900000,2.187824,0.267084,-1.817255,0.975581,0.682485,0.243285,-0.290375,2.233296,0.833667,1.431943,-0.104749,-3.217866,-17.565681,-22.233071,0.202428,0.243725,0.032338,0.000000,-0.093641,-0.165890,-0.000000
3.910000,2.197565,0.274020,-1.814781,0.972745,0.704809,0.251461,-0.276929,2.231142,0.801504,1.257740,-0.325344,-3.213316,-17.400798,-21.871662,1.157870,0.242675,0.030731,0.000000,-0.116138,-0.146032,0.000000
3.920000,2.207279,0.281180,-1.812227,0.970036,0.727100,0.259316,-0.265225,2.226802,0.769469,1.082861,-0.541998,-3.190679,-17.435597,-21.463035,2.916374,0.241406,0.029329,0.000000,-0.137543,-0.126250,0.000000
3.930000,2.216966,0.288562,-1.809596,0.967435,0.749338,0.266852,-0.255257,2.220315,0.737699,0.911944,-0.754697,-3.164498,-16.735759,-21.072735,2.296554,0.239927,0.028128,0.000000,-0.158256,-0.107088,-0.000000
3.940000,2.226628,0.296166,-1.806891,0.964925,0.771500,0.274071,-0.246970,2.211722,0.706183,0.745649,-0.963187,-3.135954,-16.648082,-20.612185,3.850865,0.238243,0.027122,0.000000,-0.178300,-0.088607,0.000000
3.950000,2.236265,0.303992,-1.804115,0.962490,0.793565,0.280977,-0.240344,2.201068,0.675041,0.580241,-1.166938,-3.091487,-16.294298,-20.143183,4.585870,0.236364,0.026304,0.000000,-0.197309,-0.070360,0.000000
3.960000,2.245878,0.312037,-1.801272,0.960113,0.815514,0.287573,-0.235350,2.188398,0.644358,0.419105,-1.366199,-3.044272,-15.911533,-19.657497,5.245305,0.234299,0.025672,0.000000,-0.215665,-0.052737,-0.000000
3.970000,2.255467,0.320302,-1.798365,0.957778,0.837327,0.293865,-0.231947,2.173764,0.614209,0.262267,-1.559580,-2.983119,-15.465123,-19.062355,6.588958,0.232055,0.025218,0.000000,-0.232974,-0.035696,-0.000000
3.980000,2.265034,0.328783,-1.795396,0.955469,0.858983,0.299859,-0.230091,2.157221,0.584696,0.109601,-1.748369,-2.920808,-15.063628,-18.694097,5.851124,0.229641,0.024936,0.000000,-0.249711,-0.019246,0.000000
3.990000,2.274577,0.337481,-1.792369,0.953171,0.880465,0.305561,-0.229740,2.138812,0.555790,-0.038613,-1.932466,-2.858480,-14.559798,-18.075603,6.994513,0.227062,0.024820,0.000000,-0.265908,-0.003404,0.000000
4.000000,2.284097,0.346392,-1.789286,0.950869,0.901753,0.310978,-0.230846,2.118594,0.527573,-0.181638,-2.110236,-2.784428,-14.055995,-17.523441,7.416863,0.224326,0.024864,0.000000,-0.281141,0.011797,0.000000
4.010000,2.293594,0.355515,-1.786150,0.948549,0.922831,0.316115,-0.233359,2.096623,0.500099,-0.320252,-2.283051,-2.709814,-13.542743,-16.964615,7.774255,0.221441,0.025060,0.000000,-0.295839,0.026425,0.000000
4.020000,2.303068,0.364848,-1.782964,0.946198,0.943680,0.320982,-0.237223,2.072958,0.473410,-0.451319,-2.448822,-2.626577,-12.784896,-16.258917,8.593932,0.218413,0.025402,0.000000,-0.309617,0.040186,0.000000
4.030000,2.312518,0.374388,-1.779731,0.943801,0.964285,0.325586,-0.242373,2.047662,0.447564,-0.578356,-2.609691,-2.543786,-12.623655,-15.915919,7.946607,0.215250,0.025882,0.000000,-0.322924,0.053441,-0.000000
4.040000,2.321944,0.384133,-1.776453,0.941346,0.984628,0.329936,-0.248778,2.020780,0.422528,-0.701379,-2.765681,-2.462368,-11.860740,-15.209405,8.600479,0.211956,0.026495,0.000000,-0.335792,0.066200,0.000000
4.050000,2.331345,0.394080,-1.773133,0.938821,1.004695,0.334040,-0.256372,1.992374,0.398344,-0.816534,-2.914469,-2.374269,-11.287330,-14.618841,8.739772,0.208537,0.027233,0.000000,-0.347819,0.078097,0.000000
4.060000,2.340720,0.404226,-1.769773,0.936215,1.024471,0.337906,-0.265095,1.962507,0.375037,-0.927250,-3.058055,-2.287065,-10.714122,-14.027533,8.830892,0.205001,0.028090,0.000000,-0.359389,0.089481,0.000000
4.070000,2.350069,0.414568,-1.766376,0.933516,1.043941,0.341543,-0.274886,1.931238,0.352616,-1.029506,-3.194364,-2.196541,-9.872533,-13.302166,9.132066,0.201352,0.029058,0.000000,-0.370210,0.099959,0.000000
4.080000,2.359390,0.425103,-1.762943,0.930714,1.063091,0.344961,-0.285672,1.898636,0.331100,-1.127548,-3.325524,-2.107389,-9.739832,-12.931732,8.686724,0.197598,0.030129,0.000000,-0.380607,0.109969,0.000000
4.090000,2.368683,0.435829,-1.759477,0.927799,1.081909,0.348168,-0.297425,1.864744,0.310460,-1.221540,-3.451619,-2.020241,-8.920788,-12.218550,8.871118,0.193741,0.031299,0.000000,-0.390606,0.119533,0.000000
4.100000,2.377946,0.446740,-1.755981,0.924762,1.100382,0.351173,-0.310073,1.829629,0.290704,-1.307132,-3.570482,-1.931252,-8.334879,-11.622783,8.785150,0.189788,0.032562,0.000000,-0.399912,0.128223,-0.000000
4.110000,2.387177,0.457835,-1.752455,0.921595,1.118498,0.353985,-0.323555,1.793351,0.271828,-1.388318,-3.684120,-1.844237,-7.759056,-11.032715,8.664551,0.185744,0.033909,0.000000,-0.408811,0.136447,0.000000
4.120000,2.396377,0.469109,-1.748902,0.918289,1.136245,0.356613,-0.337809,1.755972,0.253819,-1.461019,-3.790481,-1.757578,-6.919934,-10.310077,8.609105,0.181614,0.035335,0.000000,-0.417064,0.143799,-0.000000
4.130000,2.405543,0.480559,-1.745323,0.914836,1.153614,0.359065,-0.352762,1.717558,0.236668,-1.529633,-3.891807,-1.673266,-6.808070,-9.958137,8.246312,0.177404,0.036832,0.000000,-0.424939,0.150729,0.000000
4.140000,2.414673,0.492180,-1.741721,0.911231,1.170593,0.361349,-0.368389,1.678152,0.220344,-1.594406,-3.988238,-1.591689,-6.008076,-9.258040,8.117388,0.173117,0.038396,0.000000,-0.432456,0.157265,0.000000
4.150000,2.423767,0.503969,-1.738097,0.907467,1.187174,0.363474,-0.384621,1.637818,0.204831,-1.651014,-4.077586,-1.511464,-5.452676,-8.683168,7.870945,0.168757,0.040022,0.000000,-0.439364,0.162973,0.000000
4.160000,2.432822,0.515922,-1.734452,0.903537,1.203346,0.365448,-0.401397,1.596616,0.190106,-1.703363,-4.161841,-1.433897,-4.908494,-8.115611,7.607077,0.164331,0.041702,0.000000,-0.445889,0.168253,0.000000
4.170000,2.441837,0.528035,-1.730788,0.899437,1.219103,0.367279,-0.418661,1.554604,0.176141,-1.748201,-4.239430,-1.359687,-4.167503,-7.454878,7.262165,0.159841,0.043430,0.000000,-0.451875,0.172770,0.000000
4.180000,2.450810,0.540303,-1.727107,0.895162,1.234436,0.368973,-0.436348,1.511844,0.162904,-1.788991,-4.312048,-1.288073,-3.995528,-7.071601,7.058556,0.155294,0.045200,0.000000,-0.457481,0.176883,-0.000000
4.190000,2.459740,0.552722,-1.723409,0.890709,1.249338,0.370539,-0.454429,1.468379,0.150371,-1.825984,-4.379841,-1.219193,-3.296959,-6.436056,6.683882,0.150693,0.047010,0.000000,-0.462718,0.180620,0.000000
4.200000,2.468624,0.565288,-1.719696,0.886073,1.263801,0.371983,-0.472843,1.424269,0.138507,-1.855891,-4.441239,-1.154177,-2.793198,-5.897022,6.347865,0.146042,0.048851,0.000000,-0.467436,0.183639,0.000000
4.210000,2.477460,0.577997,-1.715970,0.881251,1.277821,0.373312,-0.491534,1.379570,0.127279,-1.881676,-4.497679,-1.091896,-2.301196,-5.366053,6.008867,0.141345,0.050721,0.000000,-0.471761,0.186248,0.000000
4.220000,2.486248,0.590843,-1.712230,0.876241,1.291391,0.374531,-0.510455,1.334335,0.116649,-1.901362,-4.548347,-1.034928,-1.700676,-4.794733,5.477974,0.136608,0.052612,0.000000,-0.475638,0.188232,0.000000
4.230000,2.494985,0.603823,-1.708479,0.871041,1.304506,0.375646,-0.529549,1.288619,0.106573,-1.917047,-4.594140,-0.980373,-1.440487,-4.366258,5.435026,0.131834,0.054519,0.000000,-0.479111,0.189818,0.000000
4.240000,2.503668,0.616932,-1.704718,0.865650,1.317162,0.376664,-0.548783,1.242468,0.097035,-1.928947,-4.635188,-0.928160,-0.878445,-3.819067,4.911374,0.127027,0.056440,0.000000,-0.482186,0.191030,0.000000
4.250000,2.512297,0.630165,-1.700946,0.860065,1.329354,0.377589,-0.568108,1.195934,0.087990,-1.935197,-4.670775,-0.881355,-0.436880,-3.325664,4.545653,0.122192,0.058369,0.000000,-0.484822,0.191657,0.000000
4.260000,2.520869,0.643517,-1.697166,0.854287,1.341080,0.378425,-0.587475,1.149068,0.079400,-1.937662,-4.701734,-0.837217,-0.010121,-2.843592,4.183830,0.117332,0.060301,0.000000,-0.487062,0.191903,-0.000000
4.270000,2.529382,0.656985,-1.693378,0.848316,1.352335,0.379178,-0.606843,1.101918,0.071225,-1.935003,-4.727459,-0.798580,0.492917,-2.326826,3.638933,0.112452,0.062232,0.000000,-0.488869,0.191614,0.000000
4.280000,2.537835,0.670562,-1.689583,0.842151,1.363117,0.379851,-0.626164,1.054533,0.063421,-1.928828,-4.748800,-0.762434,0.738268,-1.943899,3.593650,0.107556,0.064156,0.000000,-0.490288,0.190970,-0.000000
4.290000,2.546224,0.684245,-1.685781,0.835793,1.373425,0.380448,-0.645409,1.006956,0.055970,-1.919339,-4.765899,-0.728621,1.204366,-1.453972,3.073619,0.102648,0.066072,0.000000,-0.491325,0.189990,0.000000
4.300000,2.554550,0.698029,-1.681974,0.829243,1.383256,0.380971,-0.664535,0.959232,0.048829,-1.905197,-4.778119,-0.700126,1.575970,-1.015621,2.721701,0.097731,0.067975,0.000000,-0.491940,0.188516,-0.000000
4.310000,2.562809,0.711909,-1.678162,0.822503,1.392609,0.381425,-0.683502,0.911407,0.041960,-1.887752,-4.786223,-0.674113,1.934443,-0.589317,2.381017,0.092810,0.069859,0.000000,-0.492174,0.186704,0.000000
4.320000,2.570999,0.725880,-1.674346,0.815573,1.401484,0.381811,-0.702276,0.863523,0.035327,-1.866335,-4.789779,-0.653410,2.323491,-0.141302,1.858963,0.087889,0.071723,0.000000,-0.492002,0.184463,-0.000000
4.330000,2.579120,0.739937,-1.670526,0.808458,1.409879,0.382132,-0.720819,0.815624,0.028886,-1.841814,-4.789453,-0.634848,2.577852,0.203990,1.857976,0.082971,0.073562,0.000000,-0.491457,0.181901,-0.000000
4.340000,2.587168,0.754076,-1.666704,0.801158,1.417796,0.382390,-0.739103,0.767746,0.022624,-1.814358,-4.785389,-0.618201,2.934236,0.624378,1.374067,0.078061,0.075373,0.000000,-0.490547,0.179037,-0.000000
4.350000,2.595142,0.768291,-1.662879,0.793677,1.425235,0.382585,-0.757094,0.719930,0.016503,-1.783368,-4.777152,-0.606487,3.237732,1.003086,1.068743,0.073162,0.077152,0.000000,-0.489247,0.175785,0.000000
4.360000,2.603041,0.782579,-1.659052,0.786017,1.432195,0.382720,-0.774761,0.672215,0.010489,-1.749587,-4.765376,-0.596826,3.527497,1.368436,0.777991,0.068277,0.078897,0.000000,-0.487592,0.172242,0.000000
4.370000,2.610862,0.796934,-1.655225,0.778183,1.438679,0.382795,-0.792075,0.624636,0.004550,-1.712759,-4.749657,-0.591693,3.824895,1.755585,0.335539,0.063411,0.080604,0.000000,-0.485556,0.168360,0.000000
4.380000,2.618604,0.811351,-1.651396,0.770177,1.444689,0.382811,-0.809008,0.577232,-0.001350,-1.673366,-4.730678,-0.588289,4.050962,2.037443,0.350078,0.058567,0.082270,0.000000,-0.483183,0.164210,0.000000
4.390000,2.626265,0.825826,-1.647568,0.762004,1.450225,0.382768,-0.825535,0.530033,-0.007220,-1.631561,-4.708591,-0.586366,4.319042,2.395917,-0.049094,0.053748,0.083893,0.000000,-0.480486,0.159808,0.000000
4.400000,2.633843,0.840354,-1.643741,0.753668,1.455290,0.382667,-0.841630,0.483073,-0.013092,-1.587120,-4.682953,-0.588496,4.555228,2.711539,-0.289143,0.048959,0.085470,0.000000,-0.477430,0.155111,0.000000
4.410000,2.641338,0.854930,-1.639915,0.745173,1.459887,0.382506,-0.857270,0.436383,-0.018994,-1.540469,-4.654418,-0.592176,4.778114,3.013450,-0.512988,0.044201,0.086998,0.000000,-0.474066,0.150182,-0.000000
4.420000,2.648746,0.869550,-1.636091,0.736524,1.464019,0.382287,-0.872432,0.389996,-0.024949,-1.491551,-4.622542,-0.599340,4.998065,3.340210,-0.850883,0.039478,0.088476,0.000000,-0.470355,0.144998,-0.000000
4.430000,2.656068,0.884209,-1.632270,0.727726,1.467688,0.382007,-0.887094,0.343941,-0.030984,-1.440662,-4.588063,-0.607746,5.177531,3.552879,-0.825704,0.034795,0.089900,0.000000,-0.466360,0.139607,0.000000
4.440000,2.663300,0.898902,-1.628451,0.718784,1.470899,0.381667,-0.901239,0.298242,-0.037106,-1.387937,-4.551133,-0.617153,5.370641,3.850616,-1.120495,0.030152,0.091269,0.000000,-0.462096,0.134028,0.000000
4.450000,2.670443,0.913625,-1.624637,0.709703,1.473654,0.381265,-0.914847,0.252928,-0.043339,-1.333335,-4.511257,-0.629536,5.542102,4.102778,-1.286447,0.025554,0.092581,0.000000,-0.457518,0.128238,0.000000
4.460000,2.677494,0.928374,-1.620826,0.700489,1.475959,0.380800,-0.927900,0.208025,-0.049700,-1.277128,-4.469130,-0.642914,5.700930,4.341507,-1.436168,0.021003,0.093834,0.000000,-0.452690,0.122283,0.000000
4.470000,2.684452,0.943143,-1.617021,0.691147,1.477816,0.380270,-0.940384,0.163555,-0.056206,-1.219324,-4.424276,-0.658665,5.854272,4.607038,-1.663458,0.016501,0.095027,0.000000,-0.447567,0.116152,-0.000000
4.480000,2.691316,0.957929,-1.613221,0.681683,1.479231,0.379675,-0.952282,0.119546,-0.062875,-1.160158,-4.377454,-0.675125,5.976785,4.754675,-1.624674,0.012052,0.096157,0.000000,-0.442221,0.109884,0.000000
4.490000,2.698085,0.972726,-1.609428,0.672103,1.480209,0.379012,-0.963583,0.076012,-0.069709,-1.099756,-4.328813,-0.692080,6.105364,4.992102,-1.812266,0.007657,0.097224,0.000000,-0.436671,0.103495,-0.000000
4.500000,2.704758,0.987531,-1.605641,0.662413,1.480753,0.378280,-0.974273,0.032977,-0.076724,-1.038131,-4.277825,-0.710912,6.215122,5.183189,-1.903145,0.003319,0.098226,0.000000,-0.430864,0.096974,0.000000
4.510000,2.711333,1.002340,-1.601862,0.652620,1.480870,0.377477,-0.984342,-0.009539,-0.083929,-0.975502,-4.225189,-0.730169,6.313292,5.361851,-1.978783,-0.000959,0.099163,0.000000,-0.424871,0.090359,0.000000
4.520000,2.717810,1.017147,-1.598092,0.642729,1.480564,0.376601,-0.993780,-0.051519,-0.091332,-0.911863,-4.170442,-0.750743,6.408248,5.566418,-2.101740,-0.005177,0.100033,0.000000,-0.418647,0.083641,-0.000000
4.530000,2.724188,1.031950,-1.594330,0.632746,1.479841,0.375650,-1.002577,-0.092943,-0.098944,-0.847467,-4.114303,-0.771485,6.468884,5.659057,-2.043221,-0.009332,0.100836,0.000000,-0.412267,0.076858,0.000000
4.540000,2.730465,1.046743,-1.590579,0.622679,1.478707,0.374621,-1.010727,-0.133801,-0.106761,-0.782435,-4.056907,-0.792209,6.539949,5.837927,-2.131600,-0.013422,0.101570,0.000000,-0.405746,0.070024,0.000000
4.550000,2.736641,1.061523,-1.586838,0.612534,1.477167,0.373514,-1.018223,-0.174075,-0.114791,-0.716733,-3.997746,-0.813798,6.593211,5.973162,-2.151678,-0.017446,0.102236,0.000000,-0.399036,0.063130,0.000000
4.560000,2.742715,1.076285,-1.583109,0.602317,1.475228,0.372325,-1.025060,-0.213752,-0.123037,-0.650611,-3.937461,-0.835251,6.634834,6.097792,-2.158149,-0.021402,0.102833,0.000000,-0.392203,0.056210,-0.000000
4.570000,2.748687,1.091026,-1.579392,0.592035,1.472894,0.371052,-1.031234,-0.252819,-0.131498,-0.584022,-3.875679,-0.857114,6.675892,6.241877,-2.191735,-0.025290,0.103361,0.000000,-0.385211,0.049257,0.000000
4.580000,2.754556,1.105741,-1.575688,0.581694,1.470173,0.369694,-1.036740,-0.291263,-0.140178,-0.517239,-3.812975,-0.878607,6.678880,6.296929,-2.104097,-0.029106,0.103819,0.000000,-0.378124,0.042305,-0.000000
4.590000,2.760321,1.120428,-1.571999,0.571302,1.467071,0.368248,-1.041578,-0.329076,-0.149068,-0.450373,-3.749463,-0.899576,6.697965,6.419262,-2.108640,-0.032852,0.104207,0.000000,-0.370954,0.035369,0.000000
4.600000,2.765982,1.135082,-1.568324,0.560865,1.463594,0.366712,-1.045747,-0.366248,-0.158169,-0.383354,-3.684751,-0.920562,6.698255,6.506609,-2.065773,-0.036525,0.104526,0.000000,-0.363665,0.028437,0.000000
4.610000,2.771538,1.149699,-1.564665,0.550390,1.459748,0.365084,-1.049246,-0.402769,-0.167477,-0.316424,-3.619300,-0.940885,6.688554,6.586152,-2.011290,-0.040125,0.104776,0.000000,-0.356307,0.021541,-0.000000
4.620000,2.776989,1.164275,-1.561022,0.539882,1.455541,0.363362,-1.052076,-0.438631,-0.176986,-0.249593,-3.553019,-0.960881,6.673704,6.664902,-1.972343,-0.043651,0.104958,0.000000,-0.348871,0.014679,0.000000
4.630000,2.782336,1.178808,-1.557398,0.529350,1.450978,0.361544,-1.054239,-0.473827,-0.186692,-0.183031,-3.486107,-0.980008,6.637049,6.716194,-1.850905,-0.047102,0.105070,0.000000,-0.341384,0.007874,0.000000
4.640000,2.787576,1.193294,-1.553792,0.518800,1.446066,0.359627,-1.055738,-0.508352,-0.196583,-0.116836,-3.418643,-0.998144,6.602788,6.779139,-1.788544,-0.050478,0.105115,0.000000,-0.333856,0.001138,0.000000
4.650000,2.792711,1.207728,-1.550205,0.508238,1.440813,0.357611,-1.056576,-0.542198,-0.206653,-0.051017,-3.350580,-1.015627,6.556166,6.828652,-1.692852,-0.053779,0.105093,0.000000,-0.326283,-0.005532,0.000000
4.660000,2.797741,1.222109,-1.546640,0.497671,1.435225,0.355494,-1.056760,-0.575362,-0.216892,0.014223,-3.282107,-1.032023,6.499511,6.871128,-1.588528,-0.057004,0.105005,0.000000,-0.318689,-0.012112,-0.000000
4.670000,2.802665,1.236432,-1.543096,0.487105,1.429308,0.353273,-1.056293,-0.607838,-0.227290,0.079029,-3.213119,-1.047404,6.451434,6.919326,-1.482562,-0.060153,0.104851,0.000000,-0.311066,-0.018615,0.000000
4.680000,2.807483,1.250694,-1.539575,0.476547,1.423070,0.350947,-1.055182,-0.639623,-0.237836,0.143037,-3.143870,-1.061570,6.348619,6.929397,-1.349178,-0.063225,0.104632,0.000000,-0.303441,-0.025004,0.000000
4.690000,2.812196,1.264892,-1.536077,0.466003,1.416518,0.348516,-1.053436,-0.670715,-0.248517,0.206154,-3.074424,-1.074435,6.282402,6.965100,-1.226425,-0.066222,0.104350,0.000000,-0.295824,-0.031270,-0.000000
4.700000,2.816803,1.279023,-1.532605,0.455480,1.409658,0.345977,-1.051061,-0.701111,-0.259320,0.268585,-3.004636,-1.086042,6.193384,6.985416,-1.090073,-0.069142,0.104006,0.000000,-0.288202,-0.037433,-0.000000
4.710000,2.821306,1.293084,-1.529158,0.444984,1.402498,0.343329,-1.048067,-0.730807,-0.270233,0.329985,-2.934664,-1.096203,6.096203,7.002142,-0.946524,-0.071986,0.103600,0.000000,-0.280595,-0.043459,0.000000
4.720000,2.825703,1.307072,-1.525739,0.434521,1.395045,0.340572,-1.044464,-0.759804,-0.281240,0.390585,-2.864663,-1.105002,6.012128,7.003289,-0.807024,-0.074754,0.103135,0.000000,-0.273019,-0.049370,-0.000000
4.730000,2.829996,1.320984,-1.522347,0.424097,1.387304,0.337704,-1.040260,-0.788100,-0.292328,0.449984,-2.794487,-1.112210,5.866209,7.031526,-0.633468,-0.077446,0.102611,0.000000,-0.265463,-0.055127,0.000000
4.740000,2.834185,1.334817,-1.518985,0.413718,1.379285,0.334725,-1.035469,-0.815693,-0.303479,0.508100,-2.724163,-1.117763,5.766472,7.026567,-0.481650,-0.080063,0.102029,0.000000,-0.257931,-0.060722,0.000000
4.750000,2.838271,1.348569,-1.515653,0.403389,1.370993,0.331634,-1.030101,-0.842583,-0.314678,0.565208,-2.653912,-1.121781,5.642967,7.028890,-0.315753,-0.082605,0.101393,0.000000,-0.250446,-0.066184,0.000000
4.760000,2.842253,1.362236,-1.512353,0.393118,1.362436,0.328431,-1.024169,-0.868771,-0.325909,0.621002,-2.583525,-1.124073,5.514155,7.029986,-0.145458,-0.085072,0.100702,0.000000,-0.242991,-0.071481,0.000000
4.770000,2.846133,1.375817,-1.509085,0.382908,1.353620,0.325116,-1.017685,-0.894255,-0.337154,0.675465,-2.513486,-1.124710,5.378303,6.994998,0.021990,-0.087465,0.099958,0.000000,-0.235612,-0.076616,-0.000000
4.780000,2.849912,1.389308,-1.505851,0.372766,1.344553,0.321688,-1.010664,-0.919040,-0.348397,0.728567,-2.443266,-1.123549,5.241348,7.049285,0.210894,-0.089784,0.099164,0.000000,-0.228262,-0.081584,0.000000
4.790000,2.853589,1.402707,-1.502651,0.362696,1.335241,0.318148,-1.003119,-0.943120,-0.359619,0.780260,-2.372860,-1.120553,5.095537,7.013845,0.385169,-0.092030,0.098321,0.000000,-0.220940,-0.086382,0.000000
4.800000,2.857166,1.416012,-1.499488,0.352705,1.325693,0.314496,-0.995064,-0.966498,-0.370802,0.830469,-2.302845,-1.115808,4.946444,7.006539,0.567659,-0.094204,0.097430,0.000000,-0.213703,-0.091006,0.000000
4.810000,2.860643,1.429220,-1.496362,0.342797,1.315914,0.310732,-0.986514,-0.989176,-0.381929,0.879176,-2.232746,-1.109244,4.793367,6.998981,0.751115,-0.096305,0.096493,0.000000,-0.206507,-0.095454,0.000000
4.820000,2.864022,1.442330,-1.493274,0.332976,1.305912,0.306858,-0.977485,-1.011155,-0.392980,0.926322,-2.162985,-1.100728,4.635460,6.965601,0.946715,-0.098334,0.095512,0.000000,-0.199393,-0.099721,0.000000
4.830000,2.867303,1.455338,-1.490225,0.323248,1.295693,0.302873,-0.967993,-1.032436,-0.403937,0.971881,-2.093172,-1.090426,4.475797,6.997322,1.113495,-0.100293,0.094490,0.000000,-0.192323,-0.103809,0.000000
4.840000,2.870487,1.468243,-1.487217,0.313618,1.285265,0.298779,-0.958053,-1.053018,-0.414783,1.015819,-2.023296,-1.078342,4.310796,6.965076,1.308953,-0.102181,0.093426,0.000000,-0.185297,-0.107715,0.000000
4.850000,2.873576,1.481042,-1.484250,0.304089,1.274635,0.294578,-0.947682,-1.072903,-0.425498,1.058099,-1.953766,-1.064295,4.144148,6.953771,1.494681,-0.103999,0.092325,0.000000,-0.178355,-0.111437,0.000000
4.860000,2.876569,1.493735,-1.481325,0.294666,1.263809,0.290270,-0.936897,-1.092093,-0.436063,1.098684,-1.884175,-1.048449,3.974210,6.943763,1.679468,-0.105748,0.091186,0.000000,-0.171458,-0.114974,0.000000
4.870000,2.879469,1.506318,-1.478445,0.285352,1.252795,0.285857,-0.925714,-1.110589,-0.446460,1.137592,-1.815081,-1.030661,3.805211,6.895008,1.872831,-0.107428,0.090013,0.000000,-0.164659,-0.118329,0.000000
4.880000,2.882277,1.518790,-1.475609,0.276153,1.241600,0.281341,-0.914151,-1.128394,-0.456670,1.174746,-1.745854,-1.011104,3.625261,6.950962,2.038245,-0.109041,0.088806,0.000000,-0.157898,-0.121497,0.000000
4.890000,2.884993,1.531149,-1.472818,0.267070,1.230230,0.276724,-0.902225,-1.145505,-0.466676,1.210125,-1.676467,-0.989801,3.452117,6.906364,2.226894,-0.110586,0.087569,0.000000,-0.151170,-0.124480,-0.000000
4.900000,2.887619,1.543394,-1.470074,0.258109,1.218692,0.272009,-0.889954,-1.161925,-0.476460,1.243772,-1.607555,-0.966615,3.274964,6.896184,2.404573,-0.112065,0.086302,0.000000,-0.144539,-0.127281,0.000000
4.910000,2.890155,1.555523,-1.467378,0.249272,1.206994,0.267196,-0.877356,-1.177656,-0.486003,1.275654,-1.538535,-0.941738,3.097185,6.887228,2.578619,-0.113477,0.085008,0.000000,-0.137945,-0.129902,0.000000
4.920000,2.892604,1.567534,-1.464731,0.240563,1.195141,0.262289,-0.864447,-1.192698,-0.495288,1.305676,-1.470000,-0.914978,2.911017,6.839825,2.764822,-0.114824,0.083688,0.000000,-0.131446,-0.132333,0.000000
4.930000,2.894967,1.579425,-1.462133,0.231984,1.183142,0.257291,-0.851248,-1.207055,-0.504297,1.333957,-1.401316,-0.886624,2.745321,6.897659,2.905059,-0.116106,0.082344,0.000000,-0.124980,-0.134590,0.000000
4.940000,2.897245,1.591196,-1.459585,0.223539,1.171003,0.252204,-0.837774,-1.220723,-0.513016,1.360502,-1.332452,-0.856728,2.559691,6.854898,3.081534,-0.117324,0.080978,0.000000,-0.118541,-0.136676,0.000000
4.950000,2.899438,1.602845,-1.457089,0.215230,1.158730,0.247032,-0.824044,-1.233706,-0.521426,1.385179,-1.264046,-0.825075,2.380496,6.846610,3.239767,-0.118477,0.079592,0.000000,-0.112191,-0.138578,-0.000000
4.960000,2.901550,1.614370,-1.454645,0.207059,1.146331,0.241777,-0.810075,-1.246003,-0.529506,1.408316,-1.195275,-0.790559,2.206326,6.844230,3.419999,-0.119568,0.078188,0.000000,-0.105866,-0.140321,0.000000
4.970000,2.903580,1.625771,-1.452254,0.199029,1.133812,0.236443,-0.795887,-1.257617,-0.537251,1.428933,-1.127746,-0.758928,1.956727,6.723091,3.140350,-0.120595,0.076767,0.000000,-0.099649,-0.141856,-0.000000
4.980000,2.905531,1.637046,-1.449916,0.191142,1.121181,0.231033,-0.781501,-1.268555,-0.544668,1.448282,-1.059522,-0.722840,1.914301,6.923479,4.083069,-0.121561,0.075330,0.000000,-0.093441,-0.143249,0.000000
4.990000,2.907403,1.648194,-1.447633,0.183400,1.108443,0.225551,-0.766925,-1.278804,-0.551690,1.466424,-0.990525,-0.682058,1.674524,6.813679,3.834081,-0.122464,0.073881,0.000000,-0.087237,-0.144508,-0.000000
5.000000,2.909199,1.659214,-1.445406,0.175804,1.095607,0.220000,-0.752181,-1.288370,-0.558323,1.482109,-0.922720,-0.644180,1.502847,6.808465,3.976167,-0.123306,0.072419,0.000000,-0.081133,-0.145568,0.000000
5.010000,2.910920,1.670106,-1.443234,0.168357,1.082674,0.214385,-0.737151,-1.298622,-0.564707,1.527476,-1.166809,-0.636474,1.946606,0.627709,3.444588,-0.124214,0.070934,0.000000,-0.104237,-0.149666,0.000000
5.020000,2.912567,1.680868,-1.441118,0.161061,1.069638,0.208708,-0.722074,-1.307340,-0.570593,1.469240,-0.391988,-0.521158,-8.145553,99.841405,13.917969,-0.124982,0.069448,0.000000,-0.032117,-0.143205,0.000000
5.030000,2.914142,1.691499,-1.439060,0.153913,1.056554,0.202977,-0.707500,-1.309187,-0.575412,1.478923,-0.313820,-0.477769,10.241838,-85.803817,-5.409943,-0.125112,0.068019,0.000000,-0.025204,-0.143733,0.000000
5.040000,2.915646,1.701999,-1.437059,0.146914,1.043432,0.197198,-0.692203,-1.316600,-0.580457,1.563462,-1.001605,-0.513727,1.143468,3.488994,3.991227,-0.125765,0.066521,0.000000,-0.089786,-0.151876,0.000000
5.050000,2.917080,1.712367,-1.435116,0.140070,1.030221,0.191369,-0.676659,-1.324988,-0.585242,1.548186,-0.708054,-0.446527,1.269489,0.526592,3.726488,-0.126512,0.065001,0.000000,-0.062742,-0.149881,-0.000000
5.060000,2.918448,1.722603,-1.433231,0.133379,1.016954,0.185497,-0.661807,-1.325279,-0.588950,1.401902,0.846513,-0.278342,-2.210022,32.992234,6.526869,-0.126507,0.063556,0.000000,0.082213,-0.134878,-0.000000
5.070000,2.919748,1.732706,-1.431406,0.126835,1.003711,0.179591,-0.646436,-1.329516,-0.592616,1.764459,-2.599953,-0.531085,47.234069,-452.983967,-34.368602,-0.126875,0.062062,0.000000,-0.240392,-0.170741,0.000000
5.080000,2.920985,1.742676,-1.429640,0.120463,0.990245,0.173636,-0.627912,-1.363667,-0.598421,1.769616,-2.560419,-0.489081,-47.043495,469.138797,43.467967,-0.130040,0.060254,0.000000,-0.236714,-0.170771,-0.000000
5.090000,2.922158,1.752510,-1.427933,0.114264,0.976563,0.167635,-0.612576,-1.365763,-0.601133,1.380255,1.329350,-0.121428,-3.038576,36.564376,7.113432,-0.130215,0.058771,0.000000,0.125812,-0.131677,0.000000
5.100000,2.923271,1.762208,-1.426287,0.108209,0.962955,0.161617,-0.598212,-1.357652,-0.602580,1.474189,0.470050,-0.152886,-5.777343,62.009001,9.399626,-0.129443,0.057388,0.000000,0.045153,-0.140765,0.000000
5.110000,2.924323,1.771769,-1.424701,0.102303,0.949381,0.155582,-0.582529,-1.361796,-0.604453,1.697186,-1.637745,-0.244441,-0.694418,11.479440,6.172766,-0.129822,0.055876,0.000000,-0.152543,-0.162387,0.000000
5.120000,2.925317,1.781195,-1.423176,0.096555,0.935751,0.149531,-0.568248,-1.351872,-0.604824,0.990987,5.248872,0.281833,-90.882844,884.457137,66.116060,-0.128891,0.054507,0.000000,0.490819,-0.092622,0.000000
5.130000,2.926254,1.790486,-1.421710,0.090914,0.922580,0.143504,-0.560219,-1.281004,-0.600467,0.922029,5.946266,0.385855,78.668290,-760.262476,-46.370338,-0.122259,0.053761,0.000000,0.556825,-0.085679,-0.000000
5.140000,2.927136,1.799648,-1.420305,0.085371,0.909933,0.137510,-0.547057,-1.259655,-0.598933,1.560863,-0.229302,0.020071,-0.992543,10.693926,6.439097,-0.120267,0.052508,0.000000,-0.022847,-0.148361,0.000000
5.150000,2.927962,1.808685,-1.418960,0.079975,0.897366,0.131526,-0.532783,-1.248973,-0.597559,1.327254,2.039794,0.232241,4.174641,-40.603478,2.861158,-0.119280,0.051147,0.000000,0.189565,-0.125160,-0.000000
5.160000,2.928736,1.817596,-1.417675,0.074712,0.884989,0.125563,-0.519968,-1.224266,-0.594953,1.218578,3.062818,0.291327,2.725355,-28.221721,2.216301,-0.116979,0.049932,0.000000,0.286076,-0.114639,-0.000000
5.170000,2.929457,1.826386,-1.416449,0.069578,0.872856,0.119627,-0.506134,-1.209511,-0.592301,1.644611,-1.034412,0.214860,54.594187,-524.919254,-10.923869,-0.115618,0.048618,0.000000,-0.101242,-0.155678,0.000000
5.180000,2.930128,1.835053,-1.415282,0.064604,0.860655,0.113714,-0.488434,-1.232033,-0.590365,1.724955,-1.844309,0.211190,-39.451872,371.799347,10.431661,-0.117782,0.046929,0.000000,-0.177961,-0.163399,-0.000000
5.190000,2.930750,1.843598,-1.414175,0.059799,0.848309,0.107823,-0.473147,-1.231999,-0.587745,1.417526,1.035770,0.291647,6.010118,-63.559638,-0.915690,-0.117817,0.045473,0.000000,0.094147,-0.133840,0.000000
5.200000,2.931324,1.852020,-1.413126,0.055142,0.836008,0.101959,-0.457942,-1.231805,-0.585054,1.605457,-0.826212,0.250069,3.511563,-40.835331,-0.747050,-0.117836,0.044025,0.000000,-0.081903,-0.152026,0.000000
5.210000,2.931853,1.860318,-1.412135,0.050641,0.823660,0.096123,-0.442405,-1.235302,-0.581794,1.480767,0.332980,0.425002,-0.562915,-2.020341,2.940452,-0.118212,0.042547,0.000000,0.026078,-0.139518,-0.000000
5.220000,2.932338,1.868493,-1.411203,0.046295,0.811286,0.090322,-0.426197,-1.246171,-0.579096,1.850556,-3.391740,0.007534,47.411493,-475.870658,-54.540626,-0.119280,0.041000,0.000000,-0.322525,-0.176533,0.000000
5.230000,2.932780,1.876543,-1.410329,0.042130,0.798610,0.084527,-0.406795,-1.289373,-0.580029,1.860029,-3.579533,0.003644,-46.357216,446.601308,54.770884,-0.123372,0.039132,0.000000,-0.339937,-0.177374,0.000000
5.240000,2.933181,1.884464,-1.409512,0.038147,0.785617,0.078736,-0.390535,-1.302637,-0.577242,1.471912,0.137488,0.458372,-3.881025,27.057715,3.997006,-0.124669,0.037580,0.000000,0.006929,-0.138762,0.000000
5.250000,2.933543,1.892255,-1.408754,0.034317,0.772580,0.072985,-0.375323,-1.306701,-0.573279,1.551043,-0.758950,0.356339,-7.500465,61.682547,7.631273,-0.125108,0.036131,0.000000,-0.076819,-0.146789,0.000000
5.260000,2.933868,1.899915,-1.408053,0.030643,0.759454,0.067269,-0.358973,-1.322996,-0.570134,1.752145,-2.823504,0.251286,-3.324196,20.480601,5.220885,-0.126696,0.034569,0.000000,-0.271269,-0.166415,0.000000
5.270000,2.934156,1.907443,-1.407408,0.027133,0.746154,0.061586,-0.344287,-1.324325,-0.565583,1.015561,4.199412,0.771846,-94.345002,902.596407,65.951896,-0.126883,0.033170,0.000000,0.388305,-0.094540,0.000000
5.280000,2.934411,1.914840,-1.406821,0.023732,0.733210,0.055975,-0.336200,-1.262903,-0.556318,0.907470,5.120385,0.878808,74.315468,-733.804974,-45.621692,-0.121167,0.032421,0.000000,0.475971,-0.084081,0.000000
5.290000,2.934631,1.922109,-1.406289,0.020428,0.720707,0.050448,-0.323414,-1.248358,-0.549804,1.499135,-0.751453,0.524406,-6.033588,44.866587,7.932036,-0.119864,0.031208,0.000000,-0.078003,-0.141961,0.000000
5.300000,2.934820,1.929254,-1.405812,0.017264,0.708233,0.044980,-0.310020,-1.241074,-0.543301,1.212076,1.893183,0.755036,-1.475031,0.071148,5.072442,-0.119250,0.029935,0.000000,0.171169,-0.113970,0.000000
5.310000,2.934977,1.936274,-1.405389,0.014222,0.695935,0.039586,-0.298650,-1.215636,-0.535304,1.043985,3.366292,0.849073,-3.394140,17.875277,5.235436,-0.116921,0.028860,0.000000,0.310993,-0.097790,0.000000
5.320000,2.935104,1.943173,-1.405020,0.011292,0.683911,0.034275,-0.286868,-1.195632,-0.527005,1.408426,-0.292216,0.781567,48.343371,-480.686350,-10.488590,-0.115110,0.027744,0.000000,-0.036936,-0.133162,0.000000
5.330000,2.935203,1.949953,-1.404703,0.008498,0.671894,0.029044,-0.271849,-1.208333,-0.519283,1.424272,-0.602072,0.812508,-46.066366,427.306573,16.938839,-0.116412,0.026312,0.000000,-0.066968,-0.134804,0.000000
5.340000,2.935275,1.956611,-1.404438,0.005842,0.659856,0.023894,-0.259899,-1.193106,-0.510322,1.051534,2.821879,0.953619,-0.310880,-13.623501,2.964061,-0.115060,0.025178,0.000000,0.258916,-0.098842,0.000000
5.350000,2.935321,1.963151,-1.404225,0.003298,0.648041,0.018839,-0.248661,-1.172676,-0.500863,1.178515,1.430897,0.942612,-2.394413,5.884358,3.140272,-0.113213,0.024112,0.000000,0.126400,-0.111311,0.000000
5.360000,2.935341,1.969573,-1.404061,0.000871,0.636383,0.013878,-0.236858,-1.159388,-0.491202,1.185827,1.191809,0.991450,-2.042079,2.094114,3.203707,-0.112048,0.022989,0.000000,0.103237,-0.112135,0.000000
5.370000,2.935338,1.975879,-1.403947,-0.001440,0.624857,0.009016,-0.225412,-1.144433,-0.481310,1.083423,1.985975,0.975243,-12.712589,102.588806,-3.112843,-0.110722,0.021900,0.000000,0.179919,-0.102519,0.000000
5.380000,2.935313,1.982070,-1.403881,-0.003641,0.613522,0.004251,-0.214911,-1.122314,-0.471539,1.051808,2.106566,0.999148,6.570531,-80.178260,8.001840,-0.108704,0.020900,0.000000,0.191726,-0.099634,0.000000
5.390000,2.935266,1.988150,-1.403862,-0.005737,0.602391,-0.000413,-0.204068,-1.105228,-0.461151,1.099068,1.477392,1.068024,-2.895568,8.987786,2.416367,-0.107172,0.019865,0.000000,0.130885,-0.104296,0.000000
5.400000,2.935198,1.994119,-1.403889,-0.007723,0.591418,-0.004971,-0.193375,-1.088567,-0.450440,1.042997,1.821932,1.076035,-2.555050,5.423847,2.535432,-0.105680,0.018844,0.000000,0.164364,-0.099084,-0.000000
5.410000,2.935112,1.999979,-1.403961,-0.009605,0.580624,-0.009421,-0.183074,-1.070079,-0.439593,1.017169,1.875391,1.092049,-2.579973,5.308475,2.264140,-0.104009,0.017860,0.000000,0.169790,-0.096780,0.000000
5.420000,2.935007,2.005732,-1.404077,-0.011386,0.570018,-0.013762,-0.173030,-1.051059,-0.428478,0.991682,1.928461,1.136002,-2.545926,5.263964,4.976135,-0.102285,0.016898,0.000000,0.174931,-0.094460,0.000000
5.430000,2.934884,2.011380,-1.404235,-0.013067,0.559605,-0.017989,-0.163242,-1.031516,-0.416954,0.965652,1.979797,1.159018,-2.660478,5.000745,-0.421960,-0.100510,0.015961,0.000000,0.180151,-0.092122,-0.000000
5.440000,2.934746,2.016925,-1.404436,-0.014651,0.549390,-0.022101,-0.153719,-1.011470,-0.405387,0.939069,2.029269,1.158904,-2.626422,4.933169,1.963157,-0.098682,0.015047,0.000000,0.185442,-0.089761,-0.000000
5.450000,2.934592,2.022368,-1.404677,-0.016142,0.539377,-0.026097,-0.144459,-0.990932,-0.393662,0.912886,2.078089,1.184981,-2.639000,4.788732,1.692667,-0.096802,0.014157,0.000000,0.190447,-0.087394,-0.000000
5.460000,2.934423,2.027713,-1.404958,-0.017541,0.529573,-0.029974,-0.135462,-0.969914,-0.381730,0.886442,2.125265,1.201069,-2.647132,4.639662,1.521222,-0.094873,0.013291,0.000000,0.195418,-0.085011,-0.000000
5.470000,2.934241,2.032960,-1.405276,-0.018852,0.519981,-0.033731,-0.126730,-0.948432,-0.369646,0.859974,2.170804,1.215371,-2.648235,4.472174,1.342805,-0.092894,0.012449,0.000000,0.200276,-0.082623,0.000000
5.480000,2.934046,2.038113,-1.405632,-0.020077,0.510605,-0.037366,-0.118263,-0.926503,-0.357428,0.833441,2.214794,1.227999,-2.657945,4.324535,1.182788,-0.090868,0.011631,0.000000,0.205025,-0.080224,0.000000
5.490000,2.933840,2.043173,-1.406023,-0.021218,0.501452,-0.040879,-0.110061,-0.904142,-0.345092,0.806868,2.257158,1.238958,-2.653947,4.141388,1.005686,-0.088794,0.010838,0.000000,0.209657,-0.077815,-0.000000
5.500000,2.933622,2.048143,-1.406449,-0.022279,0.492524,-0.044268,-0.102125,-0.881366,-0.332655,0.780351,2.297637,1.248145,-2.651110,3.958603,0.835377,-0.086675,0.010069,0.000000,0.214145,-0.075407,0.000000
5.510000,2.933395,2.053024,-1.406908,-0.023262,0.483826,-0.047532,-0.094455,-0.858195,-0.320134,0.753821,2.336295,1.255736,-2.646330,3.767014,0.667728,-0.084512,0.009324,0.000000,0.218491,-0.072990,0.000000
5.520000,2.933157,2.057820,-1.407399,-0.024169,0.475361,-0.050670,-0.087048,-0.834647,-0.307547,0.727507,2.372906,1.261362,-2.623875,3.557841,0.472699,-0.082306,0.008603,0.000000,0.222675,-0.070588,-0.000000
5.530000,2.932911,2.062532,-1.407921,-0.025004,0.467134,-0.053682,-0.079904,-0.810743,-0.294912,0.701188,2.407511,1.265510,-2.639778,3.361785,0.357684,-0.080059,0.007907,0.000000,0.226694,-0.068177,0.000000
5.540000,2.932657,2.067164,-1.408472,-0.025768,0.459148,-0.056568,-0.073024,-0.786504,-0.282241,0.674878,2.440021,1.268220,-2.613892,3.134246,0.169450,-0.077772,0.007236,0.000000,0.230536,-0.065759,-0.000000
5.550000,2.932396,2.071716,-1.409052,-0.026465,0.451405,-0.059327,-0.066406,-0.761951,-0.269554,0.648851,2.470200,1.269035,-2.598985,2.904140,0.009009,-0.075449,0.006588,0.000000,0.234178,-0.063360,0.000000
5.560000,2.932128,2.076193,-1.409659,-0.027097,0.443910,-0.061959,-0.060047,-0.737108,-0.256865,0.622931,2.497989,1.268412,-2.580711,2.662207,-0.147882,-0.073089,0.005965,0.000000,0.237609,-0.060962,0.000000
5.570000,2.931855,2.080595,-1.410291,-0.027667,0.436664,-0.064464,-0.053946,-0.711998,-0.244192,0.597301,2.523502,1.265960,-2.550113,2.428788,-0.328419,-0.070697,0.005365,0.000000,0.240840,-0.058584,-0.000000
5.580000,2.931575,2.084927,-1.410947,-0.028177,0.429670,-0.066843,-0.048100,-0.686647,-0.231551,0.571826,2.546323,1.262138,-2.544806,2.133313,-0.435117,-0.068273,0.004790,0.000000,0.243822,-0.056211,0.000000
5.590000,2.931291,2.089190,-1.411627,-0.028630,0.422932,-0.069096,-0.042509,-0.661081,-0.218954,0.546522,2.566330,1.256993,-2.510164,1.876273,-0.606977,-0.065821,0.004239,0.000000,0.246542,-0.053845,0.000000
5.600000,2.931003,2.093386,-1.412329,-0.029028,0.416449,-0.071222,-0.037169,-0.635329,-0.206417,0.521588,2.583726,1.250133,-2.481753,1.591236,-0.751650,-0.063343,0.003711,0.000000,0.249017,-0.051506,-0.000000
5.610000,2.930711,2.097519,-1.413051,-0.029374,0.410226,-0.073224,-0.032077,-0.609417,-0.193955,0.496897,2.598053,1.241999,-2.450983,1.293268,-0.892078,-0.060842,0.003206,0.000000,0.251197,-0.049180,0.000000
5.620000,2.930416,2.101592,-1.413793,-0.029670,0.404262,-0.075102,-0.027229,-0.583376,-0.181583,0.472623,2.609746,1.232143,-2.408248,1.023025,-1.061587,-0.058320,0.002725,0.000000,0.253123,-0.046886,0.000000
5.630000,2.930118,2.105605,-1.414553,-0.029919,0.398558,-0.076856,-0.022623,-0.557234,-0.169316,0.448641,2.618049,1.221137,-2.387837,0.634978,-1.138438,-0.055781,0.002267,0.000000,0.254714,-0.044610,0.000000
5.640000,2.929817,2.109564,-1.415330,-0.030123,0.393117,-0.078489,-0.018255,-0.531027,-0.157164,0.424972,2.622818,1.209043,-2.340590,0.337408,-1.296765,-0.053227,0.001832,0.000000,0.255952,-0.042355,0.000000
5.650000,2.929515,2.113469,-1.416122,-0.030285,0.387938,-0.080000,-0.014122,-0.504787,-0.145141,0.401800,2.624585,1.195360,-2.298451,-0.006579,-1.422040,-0.050663,0.001419,0.000000,0.256889,-0.040139,0.000000
5.660000,2.929212,2.117323,-1.416929,-0.030407,0.383021,-0.081392,-0.010218,-0.478548,-0.133260,0.379003,2.622585,1.180646,-2.253935,-0.364473,-1.541919,-0.048091,0.001028,0.000000,0.257442,-0.037951,0.000000
5.670000,2.928907,2.121130,-1.417750,-0.030490,0.378367,-0.082666,-0.006540,-0.452345,-0.121533,0.356792,2.617540,1.164335,-2.194190,-0.676477,-1.698511,-0.045515,0.000658,0.000000,0.257683,-0.035811,0.000000
5.680000,2.928602,2.124891,-1.418582,-0.030538,0.373974,-0.083823,-0.003081,-0.426211,-0.109976,0.334996,2.608389,1.147134,-2.164591,-1.156507,-1.740259,-0.042939,0.000311,0.000000,0.257499,-0.033703,-0.000000
5.690000,2.928297,2.128610,-1.419426,-0.030552,0.369842,-0.084866,0.000162,-0.400192,-0.098593,0.313639,2.594976,1.129115,-2.099951,-1.497851,-1.884235,-0.040366,-0.000016,0.000000,0.256870,-0.031629,0.000000
5.700000,2.927991,2.132289,-1.420279,-0.030536,0.365970,-0.085796,0.003194,-0.374323,-0.087399,0.292955,2.578134,1.109642,-2.042864,-1.902160,-1.988092,-0.037802,-0.000323,0.000000,0.255880,-0.029614,-0.000000
