time,x,y,z,vx,vy,vz,ax,ay,az,jx,jy,jz,sx,sy,sz,roll,pitch,yaw,p,q,r
0.000000,-2.071038,-2.776942,-1.439244,0.018515,-0.004496,-0.010730,-0.090806,0.119258,0.007141,-4.291306,5.528972,0.279449,23.691484,-27.228537,-9.675720,0.012164,0.009263,0.000000,0.564206,0.437955,0.000000
0.010000,-2.070853,-2.776987,-1.439351,0.017606,-0.003303,-0.010659,-0.133719,0.174547,0.009936,-4.054391,5.256687,0.182691,141.697663,-163.877094,-23.267429,0.017807,0.013644,0.000000,0.536404,0.413822,0.000000
0.020000,-2.070686,-2.777008,-1.439457,0.015840,-0.001005,-0.010532,-0.171894,0.224391,0.010795,-1.457352,2.251430,-0.185900,245.775782,-258.404233,-35.274384,0.022891,0.017540,0.000000,0.229107,0.148304,-0.000000
0.030000,-2.070536,-2.777007,-1.439561,0.014169,0.001185,-0.010443,-0.162866,0.219576,0.006218,0.861125,0.088602,-0.522796,112.068574,-54.733981,-22.805127,0.022390,0.016611,0.000000,0.007871,-0.088675,0.000000
0.040000,-2.070403,-2.776984,-1.439666,0.012583,0.003387,-0.010407,-0.154671,0.226163,0.000339,0.784019,1.156751,-0.642002,-7.120794,99.873205,-10.865110,0.023048,0.015766,0.000000,0.116364,-0.080913,0.000000
0.050000,-2.070284,-2.776939,-1.439770,0.011075,0.005708,-0.010436,-0.147186,0.242711,-0.006622,0.718709,2.086066,-0.740098,-5.997564,86.522759,-8.825661,0.024717,0.014992,0.000000,0.210515,-0.074304,0.000000
0.060000,-2.070181,-2.776870,-1.439874,0.009639,0.008241,-0.010540,-0.140297,0.267885,-0.014463,0.664068,2.887206,-0.818516,-4.983987,74.215379,-6.927319,0.027258,0.014279,0.000000,0.291388,-0.068743,0.000000
0.070000,-2.070092,-2.776775,-1.439980,0.008269,0.011066,-0.010725,-0.133904,0.300455,-0.022992,0.619029,3.570374,-0.878645,-4.074022,62.905851,-5.165982,0.030543,0.013617,0.000000,0.360028,-0.064129,-0.000000
0.080000,-2.070016,-2.776649,-1.440089,0.006961,0.014250,-0.011000,-0.127916,0.339292,-0.032036,0.582587,4.145323,-0.921835,-3.261610,52.548979,-3.537539,0.034457,0.012996,0.000000,0.417452,-0.060365,0.000000
0.090000,-2.069952,-2.776490,-1.440200,0.005711,0.017852,-0.011366,-0.122252,0.383361,-0.041429,0.553797,4.621353,-0.949396,-2.540710,43.099584,-2.037883,0.038892,0.012409,0.000000,0.464643,-0.057359,0.000000
0.100000,-2.069901,-2.776292,-1.440316,0.004516,0.021917,-0.011828,-0.116840,0.431719,-0.051023,0.531773,5.007314,-0.962593,-1.905285,34.512501,-0.662913,0.043749,0.011848,0.000000,0.502545,-0.055023,0.000000
0.110000,-2.069862,-2.776051,-1.440437,0.003374,0.026486,-0.012387,-0.111617,0.483508,-0.060681,0.515691,5.311603,-0.962654,-1.349274,26.742489,0.591475,0.048942,0.011307,0.000000,0.532061,-0.053277,0.000000
0.120000,-2.069834,-2.775762,-1.440564,0.002284,0.031588,-0.013042,-0.106527,0.537951,-0.070277,0.504788,5.542164,-0.950763,-0.866670,19.744330,1.729401,0.054390,0.010781,0.000000,0.554049,-0.052045,0.000000
0.130000,-2.069816,-2.775419,-1.440698,0.001244,0.037245,-0.013792,-0.101521,0.594351,-0.079696,0.498358,5.706490,-0.928066,-0.451425,13.472861,2.754969,0.060023,0.010265,0.000000,0.569320,-0.051257,0.000000
0.140000,-2.069809,-2.775017,-1.440840,0.000253,0.043475,-0.014636,-0.096559,0.652081,-0.088838,0.495759,5.811621,-0.895664,-0.097359,7.882888,3.672234,0.065776,0.009754,0.000000,0.578635,-0.050850,0.000000
0.150000,-2.069811,-2.774550,-1.440991,-0.000688,0.050287,-0.015569,-0.091606,0.710583,-0.097610,0.496411,5.864148,-0.854621,0.201461,2.929201,4.485338,0.071595,0.009246,0.000000,0.582708,-0.050767,0.000000
0.160000,-2.069823,-2.774012,-1.441151,-0.001579,0.057686,-0.016588,-0.086631,0.769364,-0.105930,0.499788,5.870205,-0.805957,0.450930,-1.433405,5.198449,0.077431,0.008736,0.000000,0.582199,-0.050956,-0.000000
0.170000,-2.069843,-2.773396,-1.441322,-0.002420,0.065674,-0.017688,-0.081610,0.827988,-0.113729,0.505429,5.835480,-0.750652,0.657936,-5.252623,5.815728,0.083240,0.008224,0.000000,0.577716,-0.051371,0.000000
0.180000,-2.069871,-2.772698,-1.441505,-0.003211,0.074246,-0.018862,-0.076523,0.886074,-0.120943,0.512947,5.765153,-0.689643,0.839743,-8.617411,6.343503,0.088985,0.007705,0.000000,0.569811,-0.051977,-0.000000
0.190000,-2.069907,-2.771911,-1.441700,-0.003951,0.083395,-0.020106,-0.071351,0.943291,-0.127522,0.522224,5.663131,-0.623782,0.998398,-11.557838,6.785159,0.094636,0.007180,0.000000,0.558901,-0.052762,0.000000
0.200000,-2.069950,-2.771030,-1.441907,-0.004638,0.093112,-0.021413,-0.066078,0.999336,-0.133419,0.532915,5.533996,-0.553940,1.057442,-13.796196,7.128209,0.100164,0.006645,0.000000,0.545464,-0.053692,0.000000
0.210000,-2.070000,-2.770049,-1.442128,-0.005272,0.103382,-0.022775,-0.060693,1.053971,-0.138600,0.543373,5.387207,-0.481218,1.031768,-15.412294,7.378520,0.105546,0.006101,0.000000,0.530452,-0.054606,-0.000000
0.220000,-2.070056,-2.768963,-1.442362,-0.005852,0.114191,-0.024185,-0.055211,1.107080,-0.143043,0.553550,5.225750,-0.406369,1.164317,-17.378869,7.587688,0.110773,0.005547,0.000000,0.514164,-0.055499,0.000000
0.230000,-2.070117,-2.767765,-1.442612,-0.006376,0.125524,-0.025636,-0.049622,1.158486,-0.146728,0.566659,5.039630,-0.329464,1.469113,-19.787170,7.759597,0.115830,0.004984,0.000000,0.495621,-0.056693,0.000000
0.240000,-2.070183,-2.766452,-1.442875,-0.006844,0.137361,-0.027119,-0.043878,1.207873,-0.149633,0.582933,4.830007,-0.251177,1.622299,-21.386906,7.832712,0.120686,0.004406,0.000000,0.474941,-0.058213,0.000000
0.250000,-2.070254,-2.765018,-1.443154,-0.007254,0.149681,-0.028628,-0.037963,1.255086,-0.151751,0.599105,4.611892,-0.172810,1.568383,-21.871935,7.812248,0.125329,0.003811,0.000000,0.453600,-0.059734,0.000000
0.260000,-2.070328,-2.763458,-1.443448,-0.007604,0.162463,-0.030154,-0.031895,1.300111,-0.153089,0.614300,4.392568,-0.094932,1.534497,-22.163976,7.745283,0.129759,0.003201,0.000000,0.432303,-0.061169,0.000000
0.270000,-2.070406,-2.761769,-1.443757,-0.007892,0.175683,-0.031690,-0.025677,1.342937,-0.153650,0.629795,4.168612,-0.017904,1.621082,-22.995607,7.616160,0.133976,0.002577,0.000000,0.410699,-0.062647,0.000000
0.280000,-2.070486,-2.759945,-1.444082,-0.008117,0.189321,-0.033227,-0.019300,1.383483,-0.153447,0.646722,3.932656,0.057391,1.756521,-24.125761,7.410804,0.137973,0.001937,0.000000,0.388043,-0.064281,-0.000000
0.290000,-2.070568,-2.757982,-1.444422,-0.008278,0.203353,-0.034759,-0.012743,1.421590,-0.152502,0.664926,3.686097,0.130312,1.826935,-24.685768,7.163418,0.141737,0.001279,0.000000,0.364455,-0.066057,0.000000
0.300000,-2.070652,-2.755878,-1.444777,-0.008372,0.217753,-0.036277,-0.006001,1.457205,-0.150841,0.683261,3.438941,0.200659,1.820376,-24.517954,6.893967,0.145263,0.000602,0.000000,0.340903,-0.067860,0.000000
0.310000,-2.070736,-2.753627,-1.445147,-0.008398,0.232497,-0.037776,0.000922,1.490369,-0.148489,0.701333,3.195738,0.268191,1.813966,-24.247309,6.583877,0.148556,-0.000093,0.000000,0.317817,-0.069652,0.000000
0.320000,-2.070820,-2.751228,-1.445532,-0.008354,0.247561,-0.039247,0.008026,1.521120,-0.145477,0.719540,2.953995,0.332337,1.851812,-24.338044,6.202602,0.151620,-0.000806,0.000000,0.294927,-0.071473,-0.000000
0.330000,-2.070903,-2.748676,-1.445932,-0.008237,0.262920,-0.040685,0.015313,1.549449,-0.141842,0.738369,2.708977,0.392243,1.909819,-24.623185,5.760562,0.154454,-0.001539,0.000000,0.271740,-0.073371,0.000000
0.340000,-2.070984,-2.745969,-1.446346,-0.008047,0.278550,-0.042084,0.022793,1.575299,-0.137632,0.757736,2.461531,0.447548,1.935065,-24.555386,5.306732,0.157055,-0.002291,0.000000,0.248318,-0.075336,-0.000000
0.350000,-2.071064,-2.743105,-1.446774,-0.007782,0.294426,-0.043438,0.030468,1.598679,-0.132891,0.777071,2.217870,0.498378,1.922834,-24.039242,4.848223,0.159421,-0.003064,0.000000,0.225257,-0.077313,-0.000000
0.360000,-2.071140,-2.740081,-1.447215,-0.007438,0.310523,-0.044742,0.038334,1.619657,-0.127664,0.796193,1.980746,0.544512,1.908495,-23.467485,4.358967,0.161560,-0.003857,0.000000,0.202808,-0.079283,0.000000
0.370000,-2.071213,-2.736895,-1.447669,-0.007015,0.326819,-0.045991,0.046392,1.638294,-0.122001,0.815241,1.748520,0.585557,1.904727,-23.126436,3.841104,0.163477,-0.004671,0.000000,0.180790,-0.081258,0.000000
0.380000,-2.071280,-2.733545,-1.448135,-0.006510,0.343289,-0.047182,0.054639,1.654627,-0.115953,0.834288,1.518217,0.621335,1.899158,-22.910380,3.311118,0.165176,-0.005505,0.000000,0.158894,-0.083245,0.000000
0.390000,-2.071343,-2.730029,-1.448612,-0.005922,0.359911,-0.048310,0.063077,1.668659,-0.109574,0.853224,1.290312,0.651780,1.877347,-22.482452,2.772769,0.166655,-0.006359,0.000000,0.137154,-0.085231,0.000000
0.400000,-2.071399,-2.726346,-1.449101,-0.005249,0.376662,-0.049373,0.071704,1.680433,-0.102918,0.871835,1.068568,0.676790,1.842151,-21.786276,2.215363,0.167919,-0.007233,0.000000,0.115926,-0.087195,0.000000
0.410000,-2.071448,-2.722496,-1.449600,-0.004488,0.393520,-0.050369,0.080514,1.690030,-0.096038,0.890067,0.854587,0.696087,1.802329,-21.063388,1.644823,0.168974,-0.008128,0.000000,0.095354,-0.089128,0.000000
0.420000,-2.071489,-2.718476,-1.450108,-0.003638,0.410463,-0.051294,0.089505,1.697525,-0.088996,0.907881,0.647301,0.709686,1.750410,-20.484488,1.104181,0.169826,-0.009042,0.000000,0.075324,-0.091027,0.000000
0.430000,-2.071521,-2.714286,-1.450626,-0.002698,0.427470,-0.052149,0.098672,1.702976,-0.081845,0.925075,0.444897,0.718170,1.681947,-19.984223,0.601357,0.170480,-0.009975,0.000000,0.055661,-0.092868,0.000000
0.440000,-2.071543,-2.709926,-1.451151,-0.001665,0.444522,-0.052931,0.108007,1.706423,-0.074633,0.941520,0.247616,0.721714,1.607714,-19.363075,0.085902,0.170939,-0.010926,0.000000,0.036388,-0.094638,0.000000
0.450000,-2.071554,-2.705396,-1.451684,-0.000538,0.461599,-0.053641,0.117502,1.707928,-0.067410,0.957229,0.057635,0.719888,1.534853,-18.588955,-0.466450,0.171208,-0.011895,0.000000,0.017706,-0.096335,0.000000
0.460000,-2.071553,-2.700695,-1.452224,0.000685,0.478681,-0.054279,0.127151,1.707576,-0.060235,0.972217,-0.124163,0.712385,1.455142,-17.805263,-1.013429,0.171293,-0.012882,0.000000,-0.000305,-0.097958,0.000000
0.470000,-2.071540,-2.695822,-1.452770,0.002005,0.495750,-0.054846,0.136946,1.705445,-0.053163,0.986332,-0.298470,0.699620,1.350920,-17.111623,-1.482265,0.171201,-0.013884,0.000000,-0.017707,-0.099491,0.000000
0.480000,-2.071513,-2.690779,-1.453321,0.003424,0.512790,-0.055343,0.146878,1.701606,-0.046242,0.999236,-0.466396,0.682739,1.223464,-16.469627,-1.877124,0.170939,-0.014901,0.000000,-0.034590,-0.100898,0.000000
0.490000,-2.071472,-2.685566,-1.453877,0.004943,0.529782,-0.055771,0.156931,1.696117,-0.039508,1.010801,-0.627862,0.662077,1.096387,-15.763845,-2.287994,0.170510,-0.015932,0.000000,-0.050938,-0.102166,0.000000
0.500000,-2.071414,-2.680184,-1.454436,0.006563,0.546712,-0.056133,0.167094,1.689049,-0.033001,1.021163,-0.781672,0.636979,0.977926,-14.975322,-2.745860,0.169920,-0.016974,0.000000,-0.066643,-0.103304,0.000000
0.510000,-2.071340,-2.674632,-1.454999,0.008285,0.563563,-0.056431,0.177354,1.680484,-0.026768,1.030360,-0.927369,0.607160,0.851767,-14.187686,-3.183480,0.169177,-0.018028,0.000000,-0.081661,-0.104313,0.000000
0.520000,-2.071249,-2.668913,-1.455565,0.010110,0.580322,-0.056668,0.187701,1.670502,-0.020858,1.038199,-1.065426,0.573310,0.698367,-13.461588,-3.516011,0.168286,-0.019091,0.000000,-0.096023,-0.105174,0.000000
0.530000,-2.071138,-2.663026,-1.456133,0.012039,0.596974,-0.056848,0.198118,1.659175,-0.015302,1.044327,-1.196601,0.536840,0.522244,-12.775524,-3.757605,0.167256,-0.020161,0.000000,-0.109774,-0.105850,0.000000
0.540000,-2.071008,-2.656973,-1.456702,0.014072,0.613505,-0.056974,0.208588,1.646570,-0.010121,1.048643,-1.320937,0.498158,0.349528,-12.059363,-4.015247,0.166091,-0.021238,0.000000,-0.122909,-0.106330,0.000000
0.550000,-2.070857,-2.650756,-1.457272,0.016210,0.629905,-0.057050,0.219091,1.632757,-0.005339,1.051318,-1.437788,0.456535,0.187373,-11.299727,-4.319913,0.164798,-0.022318,0.000000,-0.135369,-0.106630,-0.000000
0.560000,-2.070684,-2.644375,-1.457843,0.018454,0.646160,-0.057081,0.229614,1.617814,-0.000990,1.052391,-1.546931,0.411759,0.018427,-10.548075,-4.595412,0.163383,-0.023399,0.000000,-0.147130,-0.106749,0.000000
0.570000,-2.070488,-2.637832,-1.458414,0.020803,0.662261,-0.057070,0.240139,1.601818,0.002896,1.051686,-1.648749,0.364627,-0.173008,-9.846942,-4.761834,0.161855,-0.024481,0.000000,-0.158211,-0.106670,0.000000
0.580000,-2.070268,-2.631130,-1.458984,0.023257,0.678197,-0.057023,0.250648,1.584839,0.006302,1.048931,-1.743870,0.316523,-0.381221,-9.183949,-4.839091,0.160219,-0.025561,0.000000,-0.168644,-0.106368,0.000000
0.590000,-2.070023,-2.624269,-1.459554,0.025816,0.693958,-0.056944,0.261118,1.566941,0.009227,1.044062,-1.832428,0.267845,-0.585009,-8.509182,-4.929320,0.158482,-0.026636,0.000000,-0.178432,-0.105837,-0.000000
0.600000,-2.069751,-2.617251,-1.460123,0.028479,0.709536,-0.056838,0.271529,1.548190,0.011659,1.037231,-1.914054,0.217936,-0.779488,-7.810840,-5.058163,0.156651,-0.027705,0.000000,-0.187544,-0.105090,0.000000
0.610000,-2.069453,-2.610078,-1.460691,0.031246,0.724922,-0.056711,0.281862,1.528659,0.013585,1.028472,-1.988645,0.166682,-0.977906,-7.125638,-5.155433,0.154731,-0.028764,0.000000,-0.195965,-0.104128,0.000000
0.620000,-2.069126,-2.602752,-1.461257,0.034116,0.740109,-0.056567,0.292098,1.508417,0.014993,1.017672,-2.056566,0.114828,-1.189598,-6.489093,-5.158863,0.152731,-0.029812,0.000000,-0.203714,-0.102942,0.000000
0.630000,-2.068771,-2.595276,-1.461822,0.037088,0.755090,-0.056411,0.302216,1.487528,0.015882,1.004680,-2.118427,0.063504,-1.409424,-5.892707,-5.089525,0.150657,-0.030847,0.000000,-0.210831,-0.101519,0.000000
0.640000,-2.068385,-2.587650,-1.462386,0.040161,0.769859,-0.056249,0.312192,1.466049,0.016263,0.989484,-2.174421,0.013037,-1.624224,-5.293555,-5.028214,0.148515,-0.031866,0.000000,-0.217326,-0.099861,0.000000
0.650000,-2.067967,-2.579878,-1.462947,0.043332,0.784411,-0.056086,0.322005,1.444040,0.016143,0.972196,-2.224298,-0.037060,-1.832030,-4.680431,-4.991955,0.146311,-0.032866,0.000000,-0.223180,-0.097976,-0.000000
0.660000,-2.067518,-2.571962,-1.463507,0.046601,0.798740,-0.055926,0.331636,1.421563,0.015522,0.952843,-2.268029,-0.086802,-2.040216,-4.084410,-4.927363,0.144051,-0.033847,0.000000,-0.228385,-0.095869,-0.000000
0.670000,-2.067035,-2.563904,-1.464066,0.049965,0.812842,-0.055775,0.341062,1.398679,0.014407,0.931391,-2.305986,-0.135607,-2.250608,-3.537029,-4.796881,0.141743,-0.034804,0.000000,-0.232969,-0.093539,0.000000
0.680000,-2.066519,-2.555705,-1.464623,0.053422,0.826714,-0.055638,0.350264,1.375443,0.012810,0.907831,-2.338770,-0.182740,-2.459419,-3.030790,-4.618944,0.139392,-0.035736,0.000000,-0.236979,-0.090987,0.000000
0.690000,-2.065967,-2.547369,-1.465179,0.056970,0.840351,-0.055519,0.359219,1.351904,0.010752,0.882203,-2.366602,-0.227986,-2.662876,-2.526395,-4.443548,0.137004,-0.036641,0.000000,-0.240434,-0.088221,0.000000
0.700000,-2.065379,-2.538898,-1.465733,0.060606,0.853752,-0.055423,0.367908,1.328111,0.008250,0.854574,-2.389298,-0.271611,-2.861464,-2.013609,-4.277909,0.134584,-0.037517,0.000000,-0.243319,-0.085247,0.000000
0.710000,-2.064755,-2.530294,-1.466287,0.064328,0.866913,-0.055354,0.376310,1.304118,0.005320,0.824974,-2.406874,-0.313544,-3.056060,-1.520250,-4.091193,0.132137,-0.038362,0.000000,-0.245635,-0.082070,0.000000
0.720000,-2.064093,-2.521560,-1.466840,0.068133,0.879834,-0.055317,0.384407,1.279974,0.001979,0.793452,-2.419703,-0.353434,-3.242366,-1.073035,-3.872055,0.129671,-0.039173,0.000000,-0.247415,-0.078698,0.000000
0.730000,-2.063392,-2.512698,-1.467393,0.072016,0.892513,-0.055315,0.392179,1.255724,-0.001749,0.760126,-2.428335,-0.390985,-3.418427,-0.664415,-3.633657,0.127189,-0.039949,0.000000,-0.248711,-0.075145,0.000000
0.740000,-2.062652,-2.503710,-1.467947,0.075976,0.904949,-0.055352,0.399610,1.231407,-0.005841,0.725084,-2.432991,-0.426108,-3.588352,-0.260507,-3.392815,0.124697,-0.040688,0.000000,-0.249546,-0.071423,0.000000
0.750000,-2.061873,-2.494599,-1.468500,0.080009,0.917141,-0.055431,0.406681,1.207064,-0.010271,0.688359,-2.433545,-0.458842,-3.754418,0.146528,-3.147761,0.122198,-0.041389,0.000000,-0.249911,-0.067537,0.000000
0.760000,-2.061052,-2.485367,-1.469055,0.084110,0.929090,-0.055557,0.413377,1.182736,-0.015017,0.649996,-2.430060,-0.489063,-3.912187,0.533456,-2.890967,0.119699,-0.042049,0.000000,-0.249812,-0.063492,0.000000
0.770000,-2.060190,-2.476017,-1.469612,0.088276,0.940796,-0.055732,0.419681,1.158463,-0.020053,0.610116,-2.422876,-0.516661,-4.053148,0.881164,-2.633815,0.117202,-0.042668,0.000000,-0.249285,-0.059304,0.000000
0.780000,-2.059287,-2.466551,-1.470170,0.092503,0.952259,-0.055958,0.425579,1.134279,-0.025351,0.568933,-2.412437,-0.541739,-4.176962,1.196776,-2.383013,0.114713,-0.043243,0.000000,-0.248378,-0.054995,0.000000
0.790000,-2.058340,-2.456972,-1.470731,0.096788,0.963481,-0.056239,0.431060,1.110214,-0.030887,0.526576,-2.398940,-0.564321,-4.293275,1.504898,-2.126221,0.112235,-0.043775,0.000000,-0.247115,-0.050579,0.000000
0.800000,-2.057351,-2.447281,-1.471295,0.101125,0.974463,-0.056576,0.436111,1.086300,-0.036637,0.483067,-2.382339,-0.584263,-4.406071,1.810228,-1.854953,0.109771,-0.044261,0.000000,-0.245491,-0.046061,-0.000000
0.810000,-2.056318,-2.437482,-1.471862,0.105510,0.985207,-0.056972,0.440721,1.062567,-0.042573,0.438455,-2.362736,-0.601420,-4.507303,2.096572,-1.581465,0.107325,-0.044702,0.000000,-0.243520,-0.041448,-0.000000
0.820000,-2.055241,-2.427577,-1.472434,0.109939,0.995715,-0.057427,0.444880,1.039045,-0.048665,0.392921,-2.340408,-0.615893,-4.584413,2.353580,-1.332954,0.104900,-0.045095,0.000000,-0.241234,-0.036758,-0.000000
0.830000,-2.054119,-2.417568,-1.473011,0.114408,1.005988,-0.057945,0.448580,1.015759,-0.054890,0.346767,-2.315664,-0.628079,-4.638356,2.586978,-1.109939,0.102500,-0.045441,0.000000,-0.238670,-0.032021,0.000000
0.840000,-2.052953,-2.407457,-1.473593,0.118911,1.016030,-0.058525,0.451815,0.992732,-0.061227,0.300154,-2.288668,-0.638092,-4.684366,2.810480,-0.879466,0.100127,-0.045739,0.000000,-0.235850,-0.027254,-0.000000
0.850000,-2.051741,-2.397248,-1.474181,0.123444,1.025843,-0.059169,0.454583,0.969986,-0.067652,0.253079,-2.259455,-0.645669,-4.726931,3.025293,-0.628539,0.097783,-0.045989,0.000000,-0.232776,-0.022458,0.000000
0.860000,-2.050484,-2.386941,-1.474776,0.128002,1.035430,-0.059878,0.456877,0.947543,-0.074140,0.205615,-2.228162,-0.650662,-4.754550,3.223085,-0.382816,0.095472,-0.046190,0.000000,-0.229466,-0.017641,0.000000
0.870000,-2.049181,-2.376539,-1.475379,0.132581,1.044794,-0.060652,0.458695,0.925422,-0.080666,0.157988,-2.194993,-0.653325,-4.754565,3.402842,-0.179435,0.093194,-0.046343,0.000000,-0.225943,-0.012826,0.000000
0.880000,-2.047832,-2.366045,-1.475989,0.137176,1.053938,-0.061492,0.460037,0.903643,-0.087207,0.110524,-2.160105,-0.654251,-4.729347,3.568339,-0.014112,0.090953,-0.046448,0.000000,-0.222233,-0.008044,0.000000
0.890000,-2.046437,-2.355460,-1.476609,0.141782,1.062867,-0.062396,0.460905,0.882220,-0.093751,0.063401,-2.123626,-0.653607,-4.694413,3.721382,0.159665,0.088749,-0.046505,0.000000,-0.218352,-0.003310,0.000000
0.900000,-2.044996,-2.344787,-1.477237,0.146394,1.071583,-0.063367,0.461305,0.861170,-0.100279,0.016636,-2.085678,-0.651058,-4.654442,3.860302,0.356706,0.086586,-0.046515,0.000000,-0.214311,0.001371,0.000000
0.910000,-2.043509,-2.334029,-1.477876,0.151008,1.080090,-0.064402,0.461238,0.840507,-0.106772,-0.029687,-2.046420,-0.646473,-4.598083,3.984983,0.543178,0.084463,-0.046477,0.000000,-0.210126,0.005991,-0.000000
0.920000,-2.041976,-2.323186,-1.478525,0.155619,1.088393,-0.065502,0.460711,0.820242,-0.113209,-0.075326,-2.005978,-0.640194,-4.512458,4.101505,0.679815,0.082383,-0.046394,0.000000,-0.205816,0.010528,-0.000000
0.930000,-2.040397,-2.312261,-1.479186,0.160222,1.096495,-0.066666,0.459732,0.800387,-0.119576,-0.119937,-1.964390,-0.632877,-4.400056,4.211214,0.774678,0.080347,-0.046266,0.000000,-0.201391,0.014949,0.000000
0.940000,-2.038772,-2.301256,-1.479859,0.164814,1.104400,-0.067893,0.458312,0.780954,-0.125866,-0.163327,-1.921754,-0.624701,-4.277144,4.306752,0.877733,0.078355,-0.046094,0.000000,-0.196863,0.019238,0.000000
0.950000,-2.037101,-2.290173,-1.480544,0.169389,1.112114,-0.069183,0.456465,0.761952,-0.132070,-0.205479,-1.878255,-0.615322,-4.149531,4.384896,1.002453,0.076409,-0.045880,0.000000,-0.192250,0.023391,0.000000
0.960000,-2.035384,-2.279013,-1.481242,0.173943,1.119640,-0.070535,0.454203,0.743389,-0.138172,-0.246318,-1.834056,-0.604652,-4.005663,4.451654,1.113936,0.074510,-0.045625,0.000000,-0.187568,0.027402,0.000000
0.970000,-2.033622,-2.267780,-1.481955,0.178473,1.126982,-0.071947,0.451539,0.725271,-0.144163,-0.285593,-1.789222,-0.593043,-3.830192,4.516336,1.178577,0.072658,-0.045331,0.000000,-0.182826,0.031246,0.000000
0.980000,-2.031815,-2.256474,-1.482681,0.182974,1.134145,-0.073418,0.448491,0.707605,-0.150033,-0.322921,-1.743729,-0.581080,-3.625878,4.578148,1.206183,0.070854,-0.044999,0.000000,-0.178027,0.034890,0.000000
0.990000,-2.029962,-2.245097,-1.483423,0.187443,1.141134,-0.074948,0.445080,0.690396,-0.155784,-0.358110,-1.697659,-0.568920,-3.412900,4.625621,1.240070,0.069098,-0.044631,0.000000,-0.173182,0.038315,-0.000000
1.000000,-2.028066,-2.233651,-1.484180,0.191875,1.147953,-0.076534,0.441329,0.673651,-0.161412,-0.391179,-1.651217,-0.556279,-3.197327,4.655113,1.290613,0.067390,-0.044231,0.000000,-0.168307,0.041523,-0.000000
1.010000,-2.026125,-2.222138,-1.484954,0.196269,1.154607,-0.078176,0.437257,0.657372,-0.166910,-0.422057,-1.604557,-0.543107,-2.965368,4.675145,1.328597,0.065731,-0.043799,0.000000,-0.163419,0.044507,-0.000000
1.020000,-2.024140,-2.210559,-1.485744,0.200621,1.161100,-0.079872,0.432887,0.641560,-0.172274,-0.450487,-1.557714,-0.529707,-2.702654,4.695697,1.329716,0.064122,-0.043338,0.000000,-0.158523,0.047244,-0.000000
1.030000,-2.022113,-2.198916,-1.486551,0.204927,1.167438,-0.081621,0.428247,0.626218,-0.177504,-0.476110,-1.510643,-0.516513,-2.413113,4.714816,1.303270,0.062561,-0.042852,0.000000,-0.153617,0.049699,0.000000
1.040000,-2.020042,-2.187210,-1.487376,0.209185,1.173625,-0.083422,0.423365,0.611347,-0.182604,-0.498749,-1.463418,-0.503641,-2.115904,4.720035,1.281276,0.061049,-0.042343,0.000000,-0.148709,0.051857,-0.000000
1.050000,-2.017929,-2.175443,-1.488220,0.213394,1.179665,-0.085273,0.418272,0.596949,-0.187577,-0.518428,-1.416242,-0.490888,-1.816867,4.708515,1.270123,0.059587,-0.041813,0.000000,-0.143818,0.053720,0.000000
1.060000,-2.015774,-2.163617,-1.489082,0.217551,1.185564,-0.087174,0.412997,0.583023,-0.192422,-0.535086,-1.369247,-0.478239,-1.503346,4.689102,1.249189,0.058173,-0.041266,0.000000,-0.138955,0.055282,0.000000
1.070000,-2.013578,-2.151732,-1.489963,0.221654,1.191325,-0.089122,0.407570,0.569565,-0.197142,-0.548495,-1.322460,-0.465904,-1.161937,4.669013,1.205463,0.056807,-0.040705,0.000000,-0.134125,0.056521,0.000000
1.080000,-2.011341,-2.139790,-1.490864,0.225702,1.196955,-0.091116,0.402027,0.556573,-0.201740,-0.558325,-1.275867,-0.454130,-0.796579,4.645723,1.146682,0.055490,-0.040134,0.000000,-0.129327,0.057407,0.000000
1.090000,-2.009064,-2.127793,-1.491785,0.229695,1.202457,-0.093157,0.396404,0.544047,-0.206224,-0.564426,-1.229546,-0.442970,-0.425707,4.610321,1.090707,0.054221,-0.039556,0.000000,-0.124568,0.057925,-0.000000
1.100000,-2.006747,-2.115741,-1.492727,0.233630,1.207836,-0.095241,0.390738,0.531982,-0.210599,-0.566839,-1.183661,-0.432315,-0.054862,4.561521,1.039161,0.052999,-0.038974,0.000000,-0.119864,0.058080,-0.000000
1.110000,-2.004391,-2.103636,-1.493690,0.237509,1.213097,-0.097369,0.385067,0.520374,-0.214870,-0.565524,-1.138315,-0.422187,0.327717,4.505455,0.981700,0.051824,-0.038392,0.000000,-0.115224,0.057866,-0.000000
1.120000,-2.001997,-2.091479,-1.494675,0.241332,1.218243,-0.099538,0.379428,0.509216,-0.219043,-0.560285,-1.093551,-0.412681,0.733779,4.445227,0.917953,0.050694,-0.037815,0.000000,-0.110653,0.057267,0.000000
1.130000,-1.999564,-2.079271,-1.495681,0.245098,1.223281,-0.101749,0.373861,0.498503,-0.223124,-0.550848,-1.049411,-0.403828,1.159274,4.378758,0.853209,0.049611,-0.037245,0.000000,-0.106155,0.056255,-0.000000
1.140000,-1.997095,-2.067014,-1.496710,0.248809,1.228213,-0.104001,0.368411,0.488228,-0.227120,-0.537099,-1.005976,-0.395617,1.587490,4.302412,0.789098,0.048571,-0.036688,0.000000,-0.101736,0.054819,0.000000
1.150000,-1.994588,-2.054707,-1.497761,0.252466,1.233045,-0.106292,0.363119,0.478383,-0.231036,-0.519098,-0.963362,-0.388046,2.013485,4.216800,0.722807,0.047576,-0.036148,0.000000,-0.097408,0.052966,0.000000
1.160000,-1.992046,-2.042353,-1.498835,0.256071,1.237781,-0.108622,0.358029,0.468961,-0.234881,-0.496830,-0.921640,-0.381161,2.447477,4.124282,0.655252,0.046623,-0.035628,0.000000,-0.093177,0.050694,0.000000
1.170000,-1.989467,-2.029952,-1.499933,0.259627,1.242425,-0.110989,0.353183,0.459951,-0.238660,-0.470149,-0.880877,-0.374941,2.899001,4.023060,0.596940,0.045712,-0.035133,0.000000,-0.089050,0.047989,0.000000
1.180000,-1.986853,-2.017504,-1.501055,0.263135,1.246980,-0.113395,0.348626,0.451343,-0.242379,-0.438850,-0.841179,-0.369222,3.364062,3.911968,0.549974,0.044842,-0.034667,0.000000,-0.085036,0.044831,0.000000
1.190000,-1.984204,-2.005012,-1.502201,0.266599,1.251451,-0.115837,0.344406,0.443127,-0.246044,-0.402868,-0.802637,-0.363941,3.828434,3.793851,0.501812,0.044011,-0.034235,0.000000,-0.081144,0.041213,0.000000
1.200000,-1.981521,-1.992475,-1.503372,0.270023,1.255843,-0.118316,0.340568,0.435290,-0.249658,-0.362281,-0.765302,-0.359186,4.288251,3.671039,0.445992,0.043219,-0.033842,0.000000,-0.077378,0.037145,0.000000
1.210000,-1.978804,-1.979895,-1.504568,0.273411,1.260157,-0.120830,0.337160,0.427821,-0.253228,-0.317102,-0.729217,-0.355022,4.751710,3.541367,0.392967,0.042464,-0.033492,0.000000,-0.073742,0.032627,0.000000
1.220000,-1.976053,-1.967272,-1.505789,0.276766,1.264399,-0.123380,0.334226,0.420706,-0.256759,-0.267247,-0.694475,-0.351327,5.225076,3.398994,0.361795,0.041744,-0.033189,0.000000,-0.070246,0.027652,0.000000
1.230000,-1.973268,-1.954607,-1.507035,0.280095,1.268571,-0.125965,0.331815,0.413931,-0.260254,-0.212601,-0.661237,-0.347786,5.704586,3.244156,0.351364,0.041059,-0.032938,0.000000,-0.066903,0.022207,0.000000
1.240000,-1.970451,-1.941901,-1.508308,0.283403,1.272678,-0.128585,0.329974,0.407481,-0.263714,-0.153155,-0.629592,-0.344299,6.179998,3.085041,0.337734,0.040406,-0.032744,0.000000,-0.063721,0.016292,0.000000
1.250000,-1.967600,-1.929154,-1.509607,0.286695,1.276721,-0.131240,0.328752,0.401340,-0.267140,-0.089001,-0.599536,-0.341031,6.648780,2.925142,0.313163,0.039785,-0.032612,0.000000,-0.060701,0.009918,0.000000
1.260000,-1.964717,-1.916366,-1.510933,0.289978,1.280704,-0.133928,0.328194,0.395491,-0.270535,-0.020180,-0.571089,-0.338036,7.116134,2.758830,0.295295,0.039192,-0.032546,0.000000,-0.057845,0.003088,0.000000
1.270000,-1.961801,-1.903540,-1.512285,0.293258,1.284631,-0.136650,0.328348,0.389918,-0.273901,0.053322,-0.544359,-0.335125,7.584494,2.577923,0.304683,0.038628,-0.032550,0.000000,-0.055162,-0.004198,0.000000
1.280000,-1.958852,-1.890674,-1.513666,0.296545,1.288503,-0.139406,0.329261,0.384603,-0.277238,0.131510,-0.519530,-0.331943,8.050577,2.383856,0.337758,0.038089,-0.032630,0.000000,-0.052669,-0.011942,-0.000000
1.290000,-1.955870,-1.877769,-1.515074,0.299844,1.292323,-0.142195,0.330979,0.379527,-0.280540,0.214333,-0.496682,-0.328370,8.509082,2.187849,0.368457,0.037574,-0.032789,0.000000,-0.050373,-0.020138,0.000000
1.300000,-1.952855,-1.864827,-1.516510,0.303164,1.296093,-0.145017,0.333547,0.374670,-0.283805,0.301692,-0.475773,-0.324573,8.959838,1.994124,0.386007,0.037082,-0.033033,0.000000,-0.048271,-0.028775,0.000000
1.310000,-1.949807,-1.851848,-1.517974,0.306515,1.299816,-0.147871,0.337012,0.370012,-0.287031,0.393530,-0.456800,-0.320650,9.404439,1.795263,0.409057,0.036609,-0.033365,0.000000,-0.046363,-0.037847,0.000000
1.320000,-1.946725,-1.838831,-1.519467,0.309904,1.303494,-0.150758,0.341418,0.365534,-0.290218,0.489781,-0.439868,-0.316392,9.838981,1.581560,0.466303,0.036154,-0.033790,0.000000,-0.044658,-0.047348,0.000000
1.330000,-1.943609,-1.825778,-1.520989,0.313343,1.307127,-0.153676,0.346808,0.361214,-0.293359,0.590310,-0.425168,-0.311324,10.261275,1.355304,0.553198,0.035716,-0.034313,0.000000,-0.043173,-0.057265,0.000000
1.340000,-1.940458,-1.812688,-1.522540,0.316841,1.310718,-0.156625,0.353224,0.357030,-0.296444,0.695006,-0.412762,-0.305328,10.674337,1.129971,0.631794,0.035291,-0.034936,0.000000,-0.041914,-0.067588,0.000000
1.350000,-1.937272,-1.799563,-1.524122,0.320408,1.314268,-0.159604,0.360708,0.352959,-0.299466,0.803796,-0.402569,-0.298688,11.077854,0.909134,0.693430,0.034877,-0.035665,0.000000,-0.040874,-0.078308,0.000000
1.360000,-1.934050,-1.786403,-1.525733,0.324055,1.317777,-0.162614,0.369300,0.348979,-0.302418,0.916563,-0.394579,-0.291460,11.467899,0.684175,0.763839,0.034473,-0.036503,0.000000,-0.040052,-0.089412,0.000000
1.370000,-1.930791,-1.773208,-1.527374,0.327794,1.321247,-0.165653,0.379039,0.345068,-0.305295,1.033154,-0.388886,-0.283411,11.842448,0.448104,0.861521,0.034076,-0.037454,0.000000,-0.039457,-0.100888,-0.000000
1.380000,-1.927494,-1.759978,-1.529046,0.331636,1.324678,-0.168720,0.389963,0.341201,-0.308086,1.153412,-0.385617,-0.274229,12.201222,0.203927,0.977931,0.033684,-0.038522,0.000000,-0.039099,-0.112719,-0.000000
1.390000,-1.924158,-1.746714,-1.530748,0.335593,1.328071,-0.171815,0.402108,0.337355,-0.310780,1.277179,-0.384807,-0.263852,12.544246,-0.038421,1.089100,0.033294,-0.039710,0.000000,-0.038982,-0.124891,-0.000000
1.400000,-1.920782,-1.733417,-1.532482,0.339678,1.331426,-0.174936,0.415507,0.333505,-0.313363,1.404297,-0.386386,-0.252447,12.871621,-0.275488,1.191985,0.032905,-0.041021,0.000000,-0.039100,-0.137389,0.000000
1.410000,-1.917364,-1.720086,-1.534247,0.343903,1.334741,-0.178082,0.430194,0.329628,-0.315828,1.534611,-0.390317,-0.240013,13.181476,-0.513243,1.301817,0.032512,-0.042459,0.000000,-0.039449,-0.150196,0.000000
1.420000,-1.913904,-1.706722,-1.536044,0.348282,1.338018,-0.181252,0.446199,0.325699,-0.318164,1.667927,-0.396651,-0.226411,13.469249,-0.758913,1.423924,0.032116,-0.044027,0.000000,-0.040033,-0.163296,-0.000000
1.430000,-1.910399,-1.693325,-1.537872,0.352827,1.341255,-0.184445,0.463552,0.321695,-0.320357,1.803996,-0.405495,-0.211534,13.733635,-1.010331,1.552550,0.031712,-0.045727,0.000000,-0.040864,-0.176664,0.000000
1.440000,-1.906847,-1.679897,-1.539732,0.357553,1.344452,-0.187659,0.482279,0.317589,-0.322394,1.942599,-0.416857,-0.195360,13.978471,-1.256657,1.680337,0.031298,-0.047562,0.000000,-0.041941,-0.190279,0.000000
1.450000,-1.903248,-1.666436,-1.541625,0.362472,1.347607,-0.190893,0.502404,0.313357,-0.324264,2.083566,-0.430628,-0.177928,14.206268,-1.493838,1.805987,0.030873,-0.049534,0.000000,-0.043254,-0.204127,0.000000
1.460000,-1.899598,-1.652945,-1.543550,0.367601,1.350719,-0.194145,0.523950,0.308976,-0.325953,2.226725,-0.446734,-0.159240,14.412488,-1.728335,1.933341,0.030433,-0.051646,0.000000,-0.044796,-0.218189,0.000000
1.470000,-1.895896,-1.639422,-1.545508,0.372951,1.353787,-0.197412,0.546939,0.304423,-0.327449,2.371815,-0.465195,-0.139261,14.586912,-1.968048,2.064404,0.029977,-0.053900,0.000000,-0.046568,-0.232443,0.000000
1.480000,-1.892139,-1.625869,-1.547499,0.378539,1.356808,-0.200693,0.571387,0.299672,-0.328738,2.518463,-0.486095,-0.117952,14.729304,-2.210246,2.196436,0.029502,-0.056297,0.000000,-0.048580,-0.246853,0.000000
1.490000,-1.888325,-1.612286,-1.549522,0.384379,1.359780,-0.203987,0.597308,0.294701,-0.329808,2.666401,-0.509400,-0.095332,14.851179,-2.442965,2.325586,0.029005,-0.058839,0.000000,-0.050828,-0.261392,-0.000000
1.500000,-1.884451,-1.598673,-1.551578,0.390486,1.362702,-0.207290,0.624715,0.289485,-0.330645,2.815487,-0.534954,-0.071440,14.954107,-2.663712,2.455537,0.028485,-0.061527,0.000000,-0.053296,-0.276050,0.000000
1.510000,-1.880515,-1.585032,-1.553668,0.396874,1.365570,-0.210600,0.653618,0.284002,-0.331237,2.965484,-0.562674,-0.046221,15.028726,-2.879336,2.587384,0.027939,-0.064362,0.000000,-0.055977,-0.290803,-0.000000
1.520000,-1.876514,-1.571362,-1.555790,0.403558,1.368382,-0.213914,0.684024,0.278231,-0.331569,3.116061,-0.592541,-0.019693,15.069258,-3.092547,2.707682,0.027366,-0.067346,0.000000,-0.058868,-0.305620,-0.000000
1.530000,-1.872444,-1.557664,-1.557946,0.410554,1.371134,-0.217231,0.715939,0.272151,-0.331630,3.266869,-0.624525,0.007932,15.077373,-3.299994,2.813792,0.026762,-0.070477,0.000000,-0.061968,-0.320467,-0.000000
1.540000,-1.868303,-1.543939,-1.560135,0.417877,1.373825,-0.220547,0.749362,0.265741,-0.331411,3.417609,-0.658541,0.036583,15.058356,-3.496734,2.923173,0.026126,-0.073757,0.000000,-0.065268,-0.335316,0.000000
1.550000,-1.864086,-1.530188,-1.562357,0.425541,1.376449,-0.223859,0.784291,0.258980,-0.330899,3.568036,-0.694460,0.066396,15.013628,-3.681866,3.043844,0.025457,-0.077186,0.000000,-0.068756,-0.350144,0.000000
1.560000,-1.859792,-1.516410,-1.564612,0.433563,1.379004,-0.227165,0.820722,0.251851,-0.330083,3.717881,-0.732178,0.097460,14.938215,-3.857242,3.162496,0.024751,-0.080762,0.000000,-0.072420,-0.364927,-0.000000
1.570000,-1.855415,-1.502608,-1.566900,0.441956,1.381486,-0.230461,0.858649,0.244337,-0.328950,3.866800,-0.771604,0.129646,14.825103,-4.022383,3.258158,0.024008,-0.084487,0.000000,-0.076253,-0.379631,0.000000
1.580000,-1.850953,-1.488780,-1.569221,0.450736,1.383891,-0.233744,0.898058,0.236419,-0.327490,4.014383,-0.812626,0.162623,14.674335,-4.175324,3.333020,0.023226,-0.088357,0.000000,-0.080243,-0.394214,0.000000
1.590000,-1.846401,-1.474930,-1.571575,0.459917,1.386215,-0.237011,0.938936,0.228084,-0.325697,4.160287,-0.855111,0.196306,14.493537,-4.315004,3.414197,0.022403,-0.092373,0.000000,-0.084379,-0.408643,-0.000000
1.600000,-1.841754,-1.461056,-1.573961,0.469514,1.388453,-0.240258,0.981264,0.219317,-0.323564,4.304254,-0.898926,0.230907,14.285934,-4.442085,3.512030,0.021539,-0.096532,0.000000,-0.088645,-0.422894,-0.000000
1.610000,-1.837010,-1.447161,-1.576380,0.479542,1.390601,-0.243482,1.025021,0.210106,-0.321079,4.446006,-0.943953,0.266547,14.044977,-4.555707,3.607216,0.020630,-0.100833,0.000000,-0.093031,-0.436943,0.000000
1.620000,-1.832164,-1.433244,-1.578831,0.490015,1.392655,-0.246679,1.070184,0.200438,-0.318233,4.585153,-0.990040,0.303051,13.759888,-4.650960,3.673280,0.019678,-0.105273,0.000000,-0.097520,-0.450751,-0.000000
1.630000,-1.827210,-1.419308,-1.581314,0.500946,1.394610,-0.249847,1.116724,0.190305,-0.315018,4.721203,-1.036972,0.340012,13.431015,-4.726264,3.714843,0.018680,-0.109850,0.000000,-0.102093,-0.464265,0.000000
1.640000,-1.822145,-1.405352,-1.583828,0.512349,1.396461,-0.252980,1.164608,0.179699,-0.311432,4.853774,-1.084565,0.377348,13.071385,-4.786564,3.766851,0.017636,-0.114560,0.000000,-0.106731,-0.477447,-0.000000
1.650000,-1.816963,-1.391378,-1.586373,0.524238,1.398204,-0.256075,1.213800,0.168613,-0.307471,4.982631,-1.132703,0.415349,12.686672,-4.836105,3.839893,0.016545,-0.119400,0.000000,-0.111422,-0.490278,0.000000
1.660000,-1.811660,-1.377388,-1.588950,0.536625,1.399833,-0.259129,1.264261,0.157044,-0.303125,5.107507,-1.181287,0.454146,12.266778,-4.869838,3.910145,0.015408,-0.124367,0.000000,-0.116154,-0.502734,0.000000
1.670000,-1.806230,-1.363382,-1.591556,0.549523,1.401345,-0.262138,1.315950,0.144988,-0.298388,5.227967,-1.230100,0.493552,11.795396,-4.873647,3.952800,0.014222,-0.129456,0.000000,-0.120907,-0.514770,-0.000000
1.680000,-1.800669,-1.349361,-1.594192,0.562944,1.402733,-0.265097,1.368820,0.132442,-0.293254,5.343415,-1.278760,0.533202,11.273814,-4.846725,3.975197,0.012989,-0.134663,0.000000,-0.125643,-0.526324,0.000000
1.690000,-1.794972,-1.335327,-1.596858,0.576900,1.403993,-0.268003,1.422818,0.119412,-0.287724,5.453443,-1.327034,0.573056,10.722880,-4.806638,4.010354,0.011709,-0.139983,0.000000,-0.130338,-0.537357,-0.000000
1.700000,-1.789131,-1.321281,-1.599552,0.591401,1.405121,-0.270851,1.477889,0.105902,-0.281793,5.557873,-1.374893,0.613409,10.151635,-4.762364,4.064819,0.010383,-0.145411,0.000000,-0.134988,-0.547854,0.000000
1.710000,-1.783144,-1.307225,-1.602275,0.606457,1.406111,-0.273639,1.533976,0.091915,-0.275456,5.656476,-1.422282,0.654353,9.544921,-4.700456,4.117158,0.009010,-0.150941,0.000000,-0.139588,-0.557796,-0.000000
1.720000,-1.777002,-1.293159,-1.605025,0.622080,1.406959,-0.276361,1.591019,0.077456,-0.268706,5.748771,-1.468902,0.695752,8.878784,-4.596176,4.154689,0.007591,-0.156567,0.000000,-0.144108,-0.567136,0.000000
1.730000,-1.770702,-1.279085,-1.607802,0.638278,1.407661,-0.279013,1.648951,0.062537,-0.261541,5.834051,-1.514205,0.737446,8.156128,-4.451216,4.185799,0.006128,-0.162284,0.000000,-0.148493,-0.575803,-0.000000
1.740000,-1.764237,-1.265006,-1.610605,0.655059,1.408210,-0.281591,1.707700,0.047172,-0.253957,5.911894,-1.557926,0.779468,7.408624,-4.297667,4.227498,0.004621,-0.168084,0.000000,-0.152718,-0.583760,0.000000
1.750000,-1.757601,-1.250921,-1.613434,0.672432,1.408604,-0.284092,1.767189,0.031378,-0.245951,5.982224,-1.600159,0.821996,6.648206,-4.148568,4.277945,0.003073,-0.173959,0.000000,-0.156790,-0.591004,0.000000
1.760000,-1.750788,-1.236834,-1.616287,0.690403,1.408838,-0.286510,1.827344,0.015169,-0.237517,6.044858,-1.640898,0.865027,5.852885,-3.981056,4.327527,0.001485,-0.179904,0.000000,-0.160711,-0.597520,0.000000
1.770000,-1.743793,-1.222744,-1.619164,0.708979,1.408907,-0.288842,1.888086,-0.001440,-0.228651,6.099281,-1.679780,0.908547,4.993340,-3.761757,4.385348,-0.000141,-0.185910,0.000000,-0.164445,-0.603262,-0.000000
1.780000,-1.736609,-1.208655,-1.622064,0.728165,1.408809,-0.291083,1.949330,-0.018427,-0.219346,6.144725,-1.716133,0.952734,4.075201,-3.495483,4.457871,-0.001804,-0.191969,0.000000,-0.167926,-0.608162,-0.000000
1.790000,-1.729229,-1.194568,-1.624986,0.747965,1.408539,-0.293229,2.010981,-0.035763,-0.209596,6.180785,-1.749689,0.997704,3.137841,-3.226631,4.533112,-0.003499,-0.198073,0.000000,-0.171129,-0.612191,-0.000000
1.800000,-1.721649,-1.180485,-1.627929,0.768384,1.408094,-0.295275,2.072946,-0.053421,-0.199392,6.207481,-1.780666,1.043396,2.194058,-2.972375,4.597760,-0.005226,-0.204213,0.000000,-0.174077,-0.615353,0.000000
1.810000,-1.713862,-1.166406,-1.630891,0.789424,1.407470,-0.297217,2.135130,-0.071376,-0.188728,6.224667,-1.809137,1.089660,1.217491,-2.702173,4.662333,-0.006981,-0.210380,0.000000,-0.176779,-0.617638,0.000000
1.820000,-1.705861,-1.152335,-1.633873,0.811087,1.406666,-0.299050,2.197439,-0.089603,-0.177599,6.231831,-1.834709,1.136643,0.178664,-2.374037,4.764031,-0.008762,-0.216566,0.000000,-0.179198,-0.619007,0.000000
1.830000,-1.697640,-1.138273,-1.636872,0.833373,1.405678,-0.300769,2.259767,-0.108070,-0.165995,6.228240,-1.856618,1.184940,-0.914533,-1.995895,4.904093,-0.010565,-0.222761,0.000000,-0.181262,-0.619409,0.000000
1.840000,-1.689193,-1.124222,-1.639888,0.856282,1.404505,-0.302370,2.322004,-0.126736,-0.153900,6.213541,-1.874627,1.234725,-2.021856,-1.624622,5.032713,-0.012387,-0.228955,0.000000,-0.182953,-0.618826,-0.000000
1.850000,-1.680514,-1.110183,-1.642920,0.879813,1.403144,-0.303847,2.384038,-0.145563,-0.141301,6.187803,-1.889110,1.285594,-3.131098,-1.278936,5.125406,-0.014224,-0.235139,0.000000,-0.184308,-0.617265,0.000000
1.860000,-1.671597,-1.096159,-1.645965,0.903963,1.401594,-0.305196,2.445760,-0.164518,-0.128188,6.150919,-1.900206,1.337233,-4.268270,-0.921012,5.217935,-0.016073,-0.241302,0.000000,-0.185346,-0.614717,0.000000
1.870000,-1.662435,-1.082151,-1.649024,0.928728,1.399853,-0.306411,2.507056,-0.183567,-0.114556,6.102437,-1.907530,1.389953,-5.459832,-0.508417,5.372323,-0.017931,-0.247435,0.000000,-0.186032,-0.611157,-0.000000
1.880000,-1.653022,-1.068162,-1.652094,0.954104,1.397922,-0.307487,2.567808,-0.202668,-0.100389,6.041722,-1.910374,1.444680,-6.696992,-0.052903,5.581754,-0.019794,-0.253527,0.000000,-0.186304,-0.606558,0.000000
1.890000,-1.643353,-1.054193,-1.655173,0.980084,1.395800,-0.308419,2.627891,-0.221774,-0.085663,5.968498,-1.908588,1.501588,-7.942621,0.387247,5.762698,-0.021657,-0.259569,0.000000,-0.186152,-0.600911,-0.000000
1.900000,-1.633421,-1.040246,-1.658262,1.006662,1.393487,-0.309200,2.687178,-0.240840,-0.070358,5.882870,-1.902629,1.559934,-9.186683,0.795918,5.882170,-0.023517,-0.265549,0.000000,-0.185626,-0.594220,0.000000
1.910000,-1.623220,-1.026323,-1.661357,1.033828,1.390983,-0.309826,2.745548,-0.259827,-0.054464,5.784764,-1.892670,1.619232,-10.452146,1.210396,5.997427,-0.025370,-0.271457,0.000000,-0.184744,-0.586476,-0.000000
1.920000,-1.612744,-1.012426,-1.664458,1.061573,1.388290,-0.310290,2.802874,-0.278694,-0.037973,5.673827,-1.878421,1.679882,-11.758358,1.663878,6.187755,-0.027212,-0.277282,0.000000,-0.183486,-0.577666,0.000000
1.930000,-1.601988,-0.998557,-1.667563,1.089885,1.385409,-0.310585,2.859025,-0.297395,-0.020866,5.549597,-1.859392,1.742987,-13.098914,2.144075,6.437916,-0.029040,-0.283015,0.000000,-0.181812,-0.567788,0.000000
1.940000,-1.590947,-0.984718,-1.670670,1.118753,1.382342,-0.310707,2.913866,-0.315881,-0.003113,5.411848,-1.835540,1.808640,-14.444705,2.603749,6.640139,-0.030848,-0.288643,0.000000,-0.179723,-0.556834,-0.000000
1.950000,-1.579613,-0.970910,-1.673777,1.148163,1.379092,-0.310648,2.967262,-0.334106,0.015307,5.260703,-1.807317,1.875790,-15.770268,3.023817,6.760145,-0.032634,-0.294157,0.000000,-0.177267,-0.544798,0.000000
1.960000,-1.567983,-0.957136,-1.676883,1.178099,1.375660,-0.310401,3.019080,-0.352028,0.034403,5.096443,-1.775063,1.943843,-17.093752,3.433327,6.869181,-0.034394,-0.299546,0.000000,-0.174477,-0.531696,-0.000000
1.970000,-1.556051,-0.943397,-1.679985,1.208544,1.372051,-0.309959,3.069190,-0.369607,0.054183,4.918828,-1.738651,2.013173,-18.479060,3.874292,7.043417,-0.036124,-0.304798,0.000000,-0.171348,-0.517522,0.000000
1.980000,-1.543812,-0.929695,-1.683082,1.239482,1.368268,-0.309317,3.117456,-0.386801,0.074666,4.726862,-1.697578,2.084712,-19.922976,4.335858,7.259087,-0.037821,-0.309903,0.000000,-0.167839,-0.502214,0.000000
1.990000,-1.531262,-0.916032,-1.686172,1.270893,1.364315,-0.308466,3.163728,-0.403559,0.095878,4.520368,-1.651934,2.158355,-21.332987,4.756698,7.411603,-0.039481,-0.314850,0.000000,-0.163962,-0.485759,-0.000000
2.000000,-1.518395,-0.902409,-1.689252,1.302757,1.360197,-0.307399,3.207864,-0.419839,0.117833,4.300202,-1.602444,2.232944,-22.672332,5.122567,7.480337,-0.041100,-0.319626,0.000000,-0.159786,-0.468202,0.000000
2.010000,-1.505207,-0.888828,-1.692320,1.335051,1.355918,-0.306110,3.249732,-0.435608,0.140536,4.066921,-1.549482,2.307962,-24.001096,5.470498,7.531010,-0.042677,-0.324222,0.000000,-0.155347,-0.449576,-0.000000
2.020000,-1.491693,-0.875290,-1.695374,1.367752,1.351485,-0.304589,3.289202,-0.450829,0.163992,3.820180,-1.493034,2.383564,-25.397466,5.821496,7.598673,-0.044207,-0.328627,0.000000,-0.150646,-0.429848,-0.000000
2.030000,-1.477851,-0.861798,-1.698412,1.400835,1.346902,-0.302830,3.326135,-0.465468,0.188208,3.558972,-1.433052,2.459935,-26.838864,6.154406,7.656713,-0.045690,-0.332828,0.000000,-0.145680,-0.408922,0.000000
2.040000,-1.463677,-0.848352,-1.701430,1.434274,1.342175,-0.300825,3.360381,-0.479490,0.213191,3.283403,-1.369945,2.536698,-28.215418,6.437860,7.654716,-0.047121,-0.336814,0.000000,-0.140488,-0.386785,0.000000
2.050000,-1.449166,-0.834955,-1.704428,1.468042,1.337312,-0.298566,3.391803,-0.492867,0.238942,2.994664,-1.304295,2.613029,-29.517083,6.703900,7.590096,-0.048500,-0.340573,0.000000,-0.135121,-0.363505,0.000000
2.060000,-1.434316,-0.821606,-1.707402,1.502110,1.332318,-0.296046,3.420275,-0.505576,0.265452,2.693061,-1.235867,2.688500,-30.810999,6.965007,7.489577,-0.049824,-0.344093,0.000000,-0.129551,-0.339079,0.000000
2.070000,-1.419124,-0.808308,-1.710349,1.536448,1.327200,-0.293257,3.445665,-0.517585,0.292712,2.378444,-1.164995,2.762821,-32.096278,7.115227,7.344700,-0.051091,-0.347363,0.000000,-0.123807,-0.313457,-0.000000
2.080000,-1.403587,-0.795062,-1.713267,1.571024,1.321966,-0.290192,3.467844,-0.528876,0.320708,2.051136,-1.093563,2.835394,-33.347501,7.138920,7.136308,-0.052300,-0.350370,0.000000,-0.118068,-0.286624,0.000000
2.090000,-1.387703,-0.781869,-1.716153,1.605805,1.316623,-0.286843,3.486687,-0.539456,0.349420,1.711494,-1.022217,2.905547,-34.561480,7.177841,6.870485,-0.053452,-0.353103,0.000000,-0.112388,-0.258558,-0.000000
2.100000,-1.371471,-0.768730,-1.719004,1.640757,1.311177,-0.283203,3.502073,-0.549320,0.378819,1.359906,-0.950006,2.972804,-35.710835,7.270670,6.577569,-0.054548,-0.355549,0.000000,-0.106668,-0.229242,0.000000
2.110000,-1.354888,-0.755645,-1.721817,1.675846,1.305636,-0.279266,3.513885,-0.558456,0.408876,0.997277,-0.876803,3.037099,-36.791640,7.315356,6.244008,-0.055586,-0.357694,0.000000,-0.100887,-0.198718,0.000000
2.120000,-1.337954,-0.742617,-1.724589,1.711035,1.300008,-0.275026,3.522019,-0.566856,0.439561,0.624073,-0.803699,3.097684,-37.876519,7.226272,5.773044,-0.056566,-0.359529,0.000000,-0.095141,-0.166961,-0.000000
2.130000,-1.320667,-0.729645,-1.727317,1.746287,1.294299,-0.270475,3.526367,-0.574530,0.470829,0.239747,-0.732278,3.152559,-38.967162,7.030850,5.152621,-0.057489,-0.361038,0.000000,-0.089573,-0.133802,0.000000
2.140000,-1.303028,-0.716731,-1.729999,1.781562,1.288517,-0.265609,3.526814,-0.581502,0.502612,-0.155270,-0.663082,3.200736,-39.951260,6.835541,4.509354,-0.058357,-0.362208,0.000000,-0.084224,-0.099191,0.000000
2.150000,-1.285036,-0.703875,-1.732630,1.816823,1.282669,-0.260423,3.523261,-0.587792,0.534844,-0.559279,-0.595567,3.242746,-40.786268,6.669363,3.915861,-0.059173,-0.363025,0.000000,-0.079035,-0.063253,0.000000
2.160000,-1.266692,-0.691078,-1.735207,1.852028,1.276762,-0.254912,3.515628,-0.593413,0.567467,-0.970995,-0.529695,3.279054,-41.541682,6.458263,3.276765,-0.059938,-0.363475,0.000000,-0.073994,-0.026067,0.000000
2.170000,-1.247996,-0.678340,-1.737728,1.887135,1.270801,-0.249073,3.503842,-0.598386,0.600425,-1.390112,-0.466402,3.308282,-42.295719,6.125416,2.398989,-0.060653,-0.363546,0.000000,-0.069181,0.012446,-0.000000
2.180000,-1.228949,-0.665662,-1.740188,1.922104,1.264794,-0.242904,3.487826,-0.602741,0.633633,-1.816910,-0.407186,3.327033,-43.016668,5.687023,1.295841,-0.061322,-0.363224,0.000000,-0.064723,0.052495,0.000000
2.190000,-1.209554,-0.653044,-1.742586,1.956892,1.258746,-0.236401,3.467503,-0.606529,0.666966,-2.250446,-0.352661,3.334199,-43.590143,5.243964,0.224330,-0.061948,-0.362492,0.000000,-0.060669,0.094095,0.000000
2.200000,-1.189811,-0.640487,-1.744916,1.991455,1.252663,-0.229564,3.442817,-0.609795,0.700317,-2.688713,-0.302307,3.331520,-44.021511,4.852127,-0.715695,-0.062535,-0.361336,0.000000,-0.056968,0.137053,0.000000
2.210000,-1.169724,-0.627990,-1.747177,2.025748,1.246550,-0.222394,3.413729,-0.612575,0.733596,-3.130876,-0.255619,3.319885,-44.375038,4.441136,-1.703789,-0.063087,-0.359744,0.000000,-0.053569,0.181315,0.000000
2.220000,-1.149296,-0.615556,-1.749364,2.059729,1.240412,-0.214892,3.380200,-0.614907,0.766714,-3.576213,-0.213484,3.297444,-44.595379,3.864659,-2.983854,-0.063606,-0.357701,0.000000,-0.050545,0.226935,0.000000
2.230000,-1.128530,-0.603182,-1.751475,2.093352,1.234252,-0.207060,3.342205,-0.616845,0.799545,-4.022783,-0.178326,3.260208,-44.633325,3.149548,-4.505530,-0.064098,-0.355193,0.000000,-0.048116,0.273919,0.000000
2.240000,-1.107429,-0.590871,-1.753506,2.126573,1.228075,-0.198902,3.299744,-0.618473,0.831919,-4.468880,-0.150493,3.207334,-44.560339,2.493272,-5.943262,-0.064568,-0.352209,0.000000,-0.046310,0.322174,-0.000000
2.250000,-1.085998,-0.578621,-1.755453,2.159347,1.221883,-0.190422,3.252827,-0.619855,0.863692,-4.913990,-0.128460,3.141342,-44.499008,1.871585,-7.229877,-0.065024,-0.348734,0.000000,-0.044984,0.371590,0.000000
2.260000,-1.064242,-0.566433,-1.757314,2.191630,1.215678,-0.181628,3.201464,-0.621043,0.894745,-5.358860,-0.113062,3.062736,-44.380392,1.158952,-8.581155,-0.065468,-0.344758,0.000000,-0.044231,0.422251,0.000000
2.270000,-1.042166,-0.554307,-1.759086,2.223376,1.209462,-0.172527,3.145650,-0.622116,0.924947,-5.801598,-0.105281,2.969719,-43.855592,0.465986,-10.132257,-0.065908,-0.340268,0.000000,-0.044140,0.474049,0.000000
2.280000,-1.019775,-0.542244,-1.760765,2.254543,1.203235,-0.163129,3.085432,-0.623148,0.954140,-6.235972,-0.103742,2.860091,-42.950561,-0.205946,-11.847603,-0.066351,-0.335254,0.000000,-0.044540,0.526438,-0.000000
2.290000,-0.997075,-0.530242,-1.762348,2.285085,1.196999,-0.153444,3.020931,-0.624191,0.982148,-6.660609,-0.109400,2.732767,-42.124818,-1.001770,-13.537682,-0.066799,-0.329713,0.000000,-0.045522,0.579283,0.000000
2.300000,-0.974073,-0.518304,-1.763833,2.314961,1.190752,-0.143486,2.952220,-0.625336,1.008795,-7.078468,-0.123777,2.589337,-41.266169,-1.571376,-14.883711,-0.067261,-0.323640,0.000000,-0.047268,0.632782,-0.000000
2.310000,-0.950776,-0.506427,-1.765218,2.344130,1.184492,-0.133268,2.879361,-0.626667,1.033935,-7.485933,-0.140828,2.435093,-40.071712,-1.839471,-16.024155,-0.067744,-0.317026,0.000000,-0.049160,0.686331,0.000000
2.320000,-0.927190,-0.494614,-1.766499,2.372549,1.178218,-0.122807,2.802501,-0.628153,1.057497,-7.879902,-0.160567,2.268854,-38.948288,-2.851190,-17.837795,-0.068244,-0.309879,0.000000,-0.051174,0.739574,0.000000
2.330000,-0.903325,-0.482863,-1.767674,2.400180,1.171929,-0.112118,2.721763,-0.629878,1.079312,-8.264898,-0.197851,2.078337,-37.970346,-4.563880,-20.221494,-0.068767,-0.302198,0.000000,-0.054844,0.793280,0.000000
2.340000,-0.879187,-0.471175,-1.768741,2.426984,1.165621,-0.101221,2.637203,-0.632110,1.099064,-8.639309,-0.251844,1.864424,-36.553527,-5.539105,-21.969009,-0.069341,-0.293974,0.000000,-0.060101,0.847110,0.000000
2.350000,-0.854785,-0.459551,-1.769698,2.452924,1.159287,-0.090137,2.548977,-0.634915,1.116601,-8.995969,-0.308633,1.638957,-34.939265,-6.352989,-23.492790,-0.069969,-0.285214,0.000000,-0.065494,0.899775,0.000000
2.360000,-0.830128,-0.447990,-1.770544,2.477963,1.152922,-0.078889,2.457284,-0.638282,1.131843,-9.338095,-0.378904,1.394569,-33.494781,-7.903681,-25.539543,-0.070650,-0.275934,0.000000,-0.072139,0.951669,0.000000
2.370000,-0.805226,-0.436492,-1.771276,2.502069,1.146521,-0.067500,2.362215,-0.642493,1.144492,-9.665865,-0.466707,1.128166,-31.329428,-8.155737,-26.612663,-0.071412,-0.266133,0.000000,-0.080466,1.002688,0.000000
2.380000,-0.780087,-0.425059,-1.771894,2.525208,1.140073,-0.055999,2.263967,-0.647617,1.154406,-9.964683,-0.542019,0.862315,-28.219007,-6.798884,-26.433274,-0.072259,-0.255830,0.000000,-0.087276,1.050386,0.000000
2.390000,-0.754722,-0.413691,-1.772396,2.547349,1.133569,-0.044412,2.162921,-0.653333,1.161738,-10.230245,-0.602685,0.599501,-25.436709,-6.683446,-27.090523,-0.073157,-0.245072,0.000000,-0.092297,1.094039,-0.000000
2.400000,-0.729140,-0.402388,-1.772782,2.568466,1.127006,-0.032764,2.059362,-0.659670,1.166396,-10.473417,-0.675688,0.320505,-23.558411,-7.466859,-28.408323,-0.074105,-0.233892,0.000000,-0.098388,1.135125,-0.000000
2.410000,-0.703352,-0.391151,-1.773051,2.588536,1.120376,-0.021084,1.953453,-0.666847,1.168148,-10.701413,-0.752022,0.031334,-21.688240,-7.263326,-28.984473,-0.075124,-0.222310,0.000000,-0.104591,1.174025,0.000000
2.420000,-0.677369,-0.379980,-1.773204,2.607535,1.113669,-0.009401,1.845334,-0.674711,1.167023,-10.907182,-0.820954,-0.259185,-18.519759,-7.842379,-29.884971,-0.076196,-0.210348,0.000000,-0.109736,1.209555,0.000000
2.430000,-0.651202,-0.368877,-1.773239,2.625443,1.106881,0.002256,1.735309,-0.683266,1.162965,-11.071808,-0.908869,-0.566365,-14.374385,-9.919040,-31.618569,-0.077318,-0.198052,0.000000,-0.116612,1.239767,-0.000000
2.440000,-0.624860,-0.357843,-1.773159,2.642241,1.100004,0.013858,1.623897,-0.692888,1.155696,-11.194670,-1.019335,-0.891556,-10.992153,-10.891264,-32.581276,-0.078528,-0.185484,0.000000,-0.125605,1.264307,0.000000
2.450000,-0.598357,-0.346877,-1.772962,2.657920,1.093024,0.025370,1.511416,-0.703653,1.145134,-11.291651,-1.126695,-1.217991,-8.231510,-10.542922,-32.676352,-0.079830,-0.172693,0.000000,-0.133973,1.284366,0.000000
2.460000,-0.571702,-0.335982,-1.772651,2.672470,1.085931,0.036761,1.398064,-0.715422,1.131336,-11.359300,-1.230194,-1.545083,-4.983188,-10.642602,-32.983182,-0.081206,-0.159720,0.000000,-0.141610,1.299427,-0.000000
2.470000,-0.544907,-0.325159,-1.772227,2.685882,1.078715,0.047997,1.284230,-0.728257,1.114232,-11.391315,-1.339547,-1.877654,-2.002008,-10.936026,-33.184573,-0.082661,-0.146625,0.000000,-0.149545,1.308746,-0.000000
2.480000,-0.517984,-0.314408,-1.771691,2.698154,1.071365,0.059045,1.170238,-0.742213,1.093783,-11.399340,-1.448914,-2.208775,0.237691,-10.673908,-32.783324,-0.084196,-0.133462,0.000000,-0.157183,1.313425,0.000000
2.490000,-0.490944,-0.303731,-1.771046,2.709287,1.063871,0.069873,1.056243,-0.757235,1.070056,-11.386561,-1.553025,-2.533321,2.832143,-10.371271,-32.313030,-0.085804,-0.120269,0.000000,-0.163971,1.313739,0.000000
2.500000,-0.463799,-0.293130,-1.770294,2.719279,1.056221,0.080446,0.942507,-0.773273,1.043116,-11.342697,-1.656340,-2.855035,6.122622,-10.911577,-32.529208,-0.087475,-0.107096,0.000000,-0.170364,1.308617,0.000000
2.510000,-0.436559,-0.282607,-1.769437,2.728137,1.048405,0.090735,0.829389,-0.790362,1.012956,-11.264109,-1.771257,-3.183905,9.302676,-11.846077,-32.987369,-0.089210,-0.094003,0.000000,-0.177651,1.297802,0.000000
2.520000,-0.409236,-0.272162,-1.768479,2.735867,1.040414,0.100706,0.717225,-0.808699,0.979438,-11.156644,-1.893261,-3.514783,11.721200,-10.960705,-31.748974,-0.091027,-0.081043,0.000000,-0.185363,1.281920,0.000000
2.530000,-0.381841,-0.261799,-1.767423,2.742481,1.032231,0.110324,0.606256,-0.828227,0.942660,-11.029685,-1.990471,-3.818885,13.623665,-8.436622,-28.962311,-0.092916,-0.068263,0.000000,-0.190240,1.261908,0.000000
2.540000,-0.354386,-0.251518,-1.766273,2.747992,1.023849,0.119559,0.496631,-0.848508,0.903060,-10.884171,-2.061994,-4.094029,15.800907,-7.260932,-27.243912,-0.094831,-0.055700,0.000000,-0.192282,1.238162,0.000000
2.550000,-0.326882,-0.241322,-1.765032,2.752414,1.015261,0.128385,0.388573,-0.869467,0.860780,-10.713667,-2.135689,-4.363763,18.249187,-6.946119,-26.363683,-0.096761,-0.043393,0.000000,-0.194384,1.210353,0.000000
2.560000,-0.299338,-0.231212,-1.763705,2.755764,1.006460,0.136774,0.282358,-0.891222,0.815785,-10.519187,-2.200916,-4.621302,20.429371,-5.556015,-24.610109,-0.098718,-0.031383,0.000000,-0.195461,1.178746,0.000000
2.570000,-0.271766,-0.221192,-1.762296,2.758061,0.997437,0.144701,0.178189,-0.913485,0.768353,-10.305079,-2.246810,-4.855965,22.384711,-5.155109,-23.215851,-0.100670,-0.019705,0.000000,-0.194502,1.144051,0.000000
2.580000,-0.244177,-0.211264,-1.760811,2.759327,0.988190,0.152141,0.076256,-0.936158,0.718666,-10.071493,-2.304018,-5.085619,24.285213,-6.478272,-22.815282,-0.102607,-0.008388,0.000000,-0.194718,1.106575,0.000000
2.590000,-0.216580,-0.201429,-1.759254,2.759586,0.978714,0.159074,-0.023241,-0.959566,0.666641,-9.819375,-2.376375,-5.312271,26.008574,-6.539552,-21.590168,-0.104564,0.002542,0.000000,-0.196477,1.066594,-0.000000
2.600000,-0.188985,-0.191689,-1.757630,2.758863,0.968999,0.165474,-0.120131,-0.983685,0.612420,-9.551321,-2.434809,-5.517423,27.588844,-5.238651,-19.506256,-0.106536,0.013060,0.000000,-0.196858,1.024607,0.000000
2.610000,-0.161403,-0.182049,-1.755944,2.757183,0.959040,0.171322,-0.214267,-1.008262,0.556293,-9.267598,-2.481148,-5.702396,29.098233,-4.607127,-17.814873,-0.108501,0.023151,0.000000,-0.196113,0.980901,0.000000
2.620000,-0.133841,-0.172509,-1.754203,2.754577,0.948833,0.176600,-0.305483,-1.033308,0.498373,-8.969356,-2.526952,-5.873720,30.310738,-3.997236,-15.993737,-0.110459,0.032795,0.000000,-0.195439,0.935797,0.000000
2.630000,-0.106311,-0.163072,-1.752412,2.751074,0.938374,0.181290,-0.393654,-1.058801,0.438818,-8.661383,-2.561093,-6.022271,31.158857,-2.658209,-13.593698,-0.112409,0.041982,0.000000,-0.193793,0.890029,0.000000
2.640000,-0.078820,-0.153741,-1.750577,2.746704,0.927657,0.185377,-0.478711,-1.084530,0.377927,-8.346179,-2.580116,-6.145594,31.954314,-1.667257,-11.463069,-0.114335,0.050710,0.000000,-0.190904,0.844067,0.000000
2.650000,-0.051377,-0.144519,-1.748705,2.741500,0.916683,0.188848,-0.560578,-1.110403,0.315906,-8.022297,-2.594438,-6.251532,32.913560,-1.293234,-9.727977,-0.116228,0.058976,0.000000,-0.187817,0.797878,0.000000
2.660000,-0.023990,-0.135408,-1.746800,2.735493,0.905449,0.191695,-0.639157,-1.136419,0.252897,-7.687908,-2.605981,-6.340154,33.802262,-0.774042,-7.812376,-0.118091,0.066778,0.000000,-0.184755,0.751398,0.000000
2.670000,0.003333,-0.126410,-1.744871,2.728716,0.893955,0.193906,-0.714336,-1.162523,0.189103,-7.346252,-2.609919,-6.407779,34.061361,0.138504,-5.747899,-0.119923,0.074112,0.000000,-0.181288,0.705105,0.000000
2.680000,0.030584,-0.117528,-1.742922,2.721206,0.882199,0.195477,-0.786082,-1.188617,0.124741,-7.006681,-2.603211,-6.455112,33.745003,1.172940,-3.761209,-0.121717,0.080985,0.000000,-0.177121,0.660044,0.000000
2.690000,0.057757,-0.108766,-1.740961,2.712995,0.870182,0.196401,-0.854469,-1.214587,0.060001,-6.671352,-2.586460,-6.483004,33.602411,2.051547,-1.775554,-0.123466,0.087415,0.000000,-0.172340,0.616469,0.000000
2.700000,0.084844,-0.100125,-1.738994,2.704116,0.857907,0.196677,-0.919509,-1.240347,-0.004919,-6.334633,-2.562180,-6.490623,33.740084,2.833130,0.304734,-0.125165,0.093412,0.000000,-0.167239,0.573854,-0.000000
2.710000,0.111839,-0.091608,-1.737028,2.694605,0.845375,0.196303,-0.981162,-1.265830,-0.069811,-5.996550,-2.529797,-6.476909,33.654377,3.682669,2.397659,-0.126812,0.098985,0.000000,-0.161798,0.532245,0.000000
2.720000,0.138736,-0.083217,-1.735068,2.684493,0.832591,0.195280,-1.039440,-1.290943,-0.134457,-5.661545,-2.488526,-6.442670,33.184734,4.453957,4.289210,-0.128402,0.104146,0.000000,-0.155944,0.492093,0.000000
2.730000,0.165529,-0.074956,-1.733122,2.673816,0.819557,0.193614,-1.094393,-1.315601,-0.198665,-5.332855,-2.440718,-6.391125,32.506995,5.052601,5.977364,-0.129931,0.108912,0.000000,-0.149881,0.453674,0.000000
2.740000,0.192213,-0.066826,-1.731196,2.662605,0.806279,0.191307,-1.146097,-1.339757,-0.262280,-5.011405,-2.387474,-6.323122,31.810287,5.688194,7.731844,-0.131400,0.113300,0.000000,-0.143711,0.417039,0.000000
2.750000,0.218781,-0.058830,-1.729296,2.650894,0.792761,0.188368,-1.194621,-1.363351,-0.325127,-4.696650,-2.326954,-6.236488,31.109795,6.561549,9.651259,-0.132806,0.117328,0.000000,-0.137290,0.382123,0.000000
2.760000,0.245231,-0.050971,-1.727429,2.638713,0.779012,0.184805,-1.240030,-1.386296,-0.387010,-4.389209,-2.256243,-6.130097,30.294852,7.506281,11.534291,-0.134146,0.121013,0.000000,-0.130362,0.348964,0.000000
2.770000,0.271556,-0.043250,-1.725600,2.626093,0.765036,0.180628,-1.282405,-1.408475,-0.447729,-4.090752,-2.176829,-6.005802,29.320082,7.997028,13.118804,-0.135414,0.124373,0.000000,-0.123057,0.317654,-0.000000
2.780000,0.297752,-0.035670,-1.723816,2.613065,0.750842,0.175850,-1.321845,-1.429833,-0.507126,-3.802808,-2.096303,-5.867721,28.234570,8.084626,14.454614,-0.136608,0.127427,0.000000,-0.116041,0.288238,0.000000
2.790000,0.323817,-0.028233,-1.722083,2.599656,0.736439,0.170485,-1.358461,-1.450401,-0.565084,-3.526061,-2.015136,-5.716710,27.109217,8.470247,15.872843,-0.137736,0.130194,0.000000,-0.109331,0.260708,0.000000
2.800000,0.349746,-0.020941,-1.720406,2.585896,0.721834,0.164548,-1.392366,-1.470135,-0.621460,-3.260623,-1.926898,-5.550264,25.940436,9.107134,17.417512,-0.138796,0.132693,0.000000,-0.102347,0.235046,0.000000
2.810000,0.375535,-0.013797,-1.718792,2.571809,0.707036,0.158056,-1.423674,-1.488939,-0.676089,-3.007252,-1.832993,-5.368359,24.697119,9.532608,18.858179,-0.139783,0.134943,0.000000,-0.095221,0.211265,0.000000
2.820000,0.401182,-0.006801,-1.717245,2.557422,0.692055,0.151027,-1.452511,-1.506795,-0.728827,-2.766681,-1.736246,-5.173101,23.420911,10.021271,20.100815,-0.140701,0.136962,0.000000,-0.088179,0.189347,0.000000
2.830000,0.426683,0.000045,-1.715771,2.542759,0.676900,0.143480,-1.479008,-1.523664,-0.779551,-2.538834,-1.632568,-4.966343,22.137958,10.746595,21.214043,-0.141548,0.138769,0.000000,-0.080813,0.169204,0.000000
2.840000,0.452037,0.006737,-1.714376,2.527842,0.661582,0.135436,-1.503288,-1.539447,-0.828154,-2.323922,-1.521314,-4.748820,20.807235,11.292512,22.302349,-0.142318,0.140382,0.000000,-0.073052,0.150789,0.000000
2.850000,0.477240,0.013276,-1.713063,2.512693,0.646111,0.126916,-1.525486,-1.554091,-0.874527,-2.122689,-1.406718,-4.520296,19.413007,11.609103,23.401821,-0.143009,0.141817,0.000000,-0.065280,0.134120,-0.000000
2.860000,0.502291,0.019660,-1.711837,2.497332,0.630500,0.117945,-1.545742,-1.567581,-0.918560,-1.935662,-1.289132,-4.280783,17.999223,11.984860,24.438825,-0.143624,0.143093,0.000000,-0.057514,0.119193,-0.000000
2.870000,0.527187,0.025886,-1.710704,2.481778,0.614760,0.108545,-1.564199,-1.579873,-0.960143,-1.762705,-1.167021,-4.031520,16.627845,12.407929,25.295186,-0.144160,0.144226,0.000000,-0.049591,0.105933,0.000000
2.880000,0.551926,0.031955,-1.709666,2.466048,0.598903,0.098742,-1.580996,-1.590921,-0.999190,-1.603105,-1.040973,-3.774880,15.301006,12.772652,25.989655,-0.144616,0.145234,0.000000,-0.041523,0.094200,-0.000000
2.890000,0.576508,0.037864,-1.708729,2.450158,0.582941,0.088561,-1.596261,-1.600693,-1.035641,-1.456685,-0.911568,-3.511727,13.954600,13.122506,26.677413,-0.144991,0.146131,0.000000,-0.033341,0.083928,0.000000
2.900000,0.600929,0.043614,-1.707895,2.434123,0.566889,0.078029,-1.610130,-1.609153,-1.069425,-1.324013,-0.778523,-3.241331,12.557411,13.500524,27.381068,-0.145283,0.146931,0.000000,-0.025016,0.075142,-0.000000
2.910000,0.625190,0.049202,-1.707168,2.417956,0.550758,0.067173,-1.622742,-1.616263,-1.100467,-1.205537,-0.641557,-2.964105,11.168024,13.871023,27.995664,-0.145492,0.147650,0.000000,-0.016506,0.067845,0.000000
2.920000,0.649289,0.054629,-1.706552,2.401668,0.534564,0.056020,-1.634240,-1.621984,-1.128707,-1.100652,-0.501102,-2.681418,9.895497,14.159157,28.481306,-0.145614,0.148303,0.000000,-0.007819,0.061938,0.000000
2.930000,0.673224,0.059893,-1.706048,2.385271,0.518319,0.044599,-1.644755,-1.626285,-1.154096,-1.007627,-0.358374,-2.394479,8.737879,14.376951,28.873603,-0.145648,0.148902,0.000000,0.000963,0.057227,0.000000
2.940000,0.696994,0.064995,-1.705660,2.368773,0.502038,0.032938,-1.654393,-1.629151,-1.176596,-0.925895,-0.213563,-2.103946,7.564705,14.623950,29.219949,-0.145595,0.149460,0.000000,0.009844,0.053635,0.000000
2.950000,0.720599,0.069934,-1.705389,2.352183,0.485736,0.021067,-1.663273,-1.630556,-1.196174,-0.856333,-0.065895,-1.810080,6.333040,14.894058,29.525464,-0.145451,0.149987,0.000000,0.018911,0.051222,0.000000
2.960000,0.744038,0.074710,-1.705238,2.335508,0.469427,0.009015,-1.671520,-1.630469,-1.212798,-0.799234,0.084318,-1.513437,5.144248,15.122294,29.760886,-0.145217,0.150495,0.000000,0.028161,0.049993,0.000000
2.970000,0.767309,0.079323,-1.705209,2.318753,0.453126,-0.003189,-1.679257,-1.628870,-1.226443,-0.753448,0.236551,-1.214862,4.123123,15.345699,29.911599,-0.144888,0.150997,0.000000,0.037569,0.049827,0.000000
2.980000,0.790413,0.083772,-1.705302,2.301922,0.436849,-0.015514,-1.686589,-1.625738,-1.237095,-0.716771,0.391232,-0.915205,3.250735,15.591460,29.989610,-0.144465,0.151503,0.000000,0.047196,0.050513,0.000000
2.990000,0.813348,0.088060,-1.705519,2.285021,0.420611,-0.027931,-1.693593,-1.621045,-1.244747,-0.688433,0.548380,-0.615070,2.375079,15.803474,30.015387,-0.143944,0.152019,0.000000,0.057066,0.051975,-0.000000
3.000000,0.836113,0.092185,-1.705861,2.268051,0.404428,-0.040409,-1.700357,-1.614771,-1.249397,-0.669270,0.707301,-0.314897,1.454289,15.957613,29.986362,-0.143324,0.152553,0.000000,0.067140,0.054280,-0.000000
3.010000,0.858709,0.096148,-1.706327,2.251014,0.388316,-0.052919,-1.706978,-1.606899,-1.251045,-0.659347,0.867532,-0.015343,0.600465,16.094808,29.891883,-0.142601,0.153116,0.000000,0.077403,0.057425,0.000000
3.020000,0.881133,0.099951,-1.706919,2.233911,0.372290,-0.065430,-1.713544,-1.597420,-1.249704,-0.657261,1.029197,0.282941,-0.070030,16.264645,29.745281,-0.141775,0.153714,0.000000,0.087888,0.061285,0.000000
3.030000,0.903387,0.103594,-1.707636,2.216743,0.356368,-0.077913,-1.720123,-1.586315,-1.245386,-0.660748,1.192825,0.579563,-0.582434,16.455658,29.554321,-0.140843,0.154354,0.000000,0.098660,0.065662,0.000000
3.040000,0.925468,0.107078,-1.708477,2.199509,0.340564,-0.090338,-1.726759,-1.573563,-1.238112,-0.668909,1.358311,0.874027,-1.080495,16.603209,29.302636,-0.139802,0.155040,0.000000,0.109730,0.070477,0.000000
3.050000,0.947377,0.110405,-1.709443,2.182208,0.324896,-0.102675,-1.733501,-1.559149,-1.227906,-0.682358,1.524889,1.165615,-1.607736,16.695915,28.977632,-0.138648,0.155777,0.000000,0.121061,0.075783,0.000000
3.060000,0.969112,0.113576,-1.710531,2.164839,0.309381,-0.114896,-1.740406,-1.543066,-1.214800,-0.701064,1.692229,1.453580,-2.060809,16.777209,28.593851,-0.137380,0.156571,0.000000,0.132649,0.081575,0.000000
3.070000,0.990674,0.116593,-1.711741,2.147400,0.294035,-0.126971,-1.747523,-1.525305,-1.198834,-0.723574,1.860434,1.737492,-2.321707,16.870143,28.187504,-0.135995,0.157425,0.000000,0.144525,0.087731,0.000000
3.080000,1.012060,0.119457,-1.713070,2.129888,0.278875,-0.138873,-1.754878,-1.505857,-1.180050,-0.747498,2.029632,2.017330,-2.414427,16.959336,27.757925,-0.134489,0.158342,0.000000,0.156713,0.094050,0.000000
3.090000,1.033272,0.122170,-1.714518,2.112302,0.263918,-0.150572,-1.762473,-1.484712,-1.158488,-0.771862,2.199620,2.292651,-2.490140,17.015789,27.258849,-0.132860,0.159323,0.000000,0.169219,0.100448,0.000000
3.100000,1.054306,0.124735,-1.716082,2.094639,0.249181,-0.162042,-1.770315,-1.461865,-1.134197,-0.797301,2.369947,2.562507,-2.598870,17.040676,26.676393,-0.131104,0.160369,0.000000,0.182032,0.106977,0.000000
3.110000,1.075164,0.127154,-1.717759,2.076896,0.234681,-0.173256,-1.778419,-1.437313,-1.107238,-0.823840,2.540434,2.826179,-2.634968,17.051670,26.044236,-0.129219,0.161482,0.000000,0.195164,0.113637,0.000000
3.120000,1.095844,0.129429,-1.719547,2.059070,0.220434,-0.184187,-1.786792,-1.411056,-1.077674,-0.850000,2.710981,3.083391,-2.471116,17.042373,25.397225,-0.127200,0.162661,0.000000,0.208623,0.120300,0.000000
3.130000,1.116346,0.131563,-1.721443,2.041160,0.206459,-0.194810,-1.795419,-1.383093,-1.045570,-0.873262,2.881281,3.334123,-2.133711,17.006668,24.723944,-0.125045,0.163908,0.000000,0.222397,0.126749,-0.000000
3.140000,1.136668,0.133558,-1.723443,2.023162,0.192773,-0.205099,-1.804257,-1.353430,-1.010991,-0.892675,3.051114,3.577870,-1.791117,16.952812,23.981428,-0.122751,0.165217,0.000000,0.236486,0.132895,0.000000
3.150000,1.156809,0.135418,-1.725545,2.005075,0.179391,-0.215029,-1.813272,-1.322071,-0.974012,-0.909084,3.220338,3.813752,-1.501004,16.872020,23.180761,-0.120314,0.166586,0.000000,0.250907,0.138800,0.000000
3.160000,1.176769,0.137146,-1.727744,1.986896,0.166331,-0.224579,-1.822439,-1.289023,-0.934716,-0.922695,3.388555,4.041486,-1.149152,16.757887,22.350347,-0.117732,0.168014,0.000000,0.265642,0.144479,0.000000
3.170000,1.196547,0.138745,-1.730036,1.968626,0.153610,-0.233724,-1.831726,-1.254300,-0.893183,-0.932068,3.555495,4.260759,-0.596806,16.636906,21.454594,-0.115000,0.169496,0.000000,0.280683,0.149798,0.000000
3.180000,1.216142,0.140218,-1.732418,1.950262,0.141245,-0.242442,-1.841080,-1.217914,-0.849501,-0.934631,3.721293,4.470577,0.124452,16.505242,20.480400,-0.112117,0.171030,0.000000,0.296063,0.154504,0.000000
3.190000,1.235552,0.141570,-1.734885,1.931804,0.129252,-0.250714,-1.850419,-1.179874,-0.803771,-0.929578,3.885600,4.670367,0.826392,16.325268,19.481251,-0.109078,0.172606,0.000000,0.311767,0.158503,-0.000000
3.200000,1.254778,0.142803,-1.737432,1.913254,0.117648,-0.258518,-1.859672,-1.140202,-0.756093,-0.918103,4.047798,4.860202,1.446745,16.135609,18.482310,-0.105880,0.174219,0.000000,0.327752,0.161895,0.000000
3.210000,1.273817,0.143923,-1.740055,1.894611,0.106448,-0.265836,-1.868781,-1.098918,-0.706567,-0.900644,4.208312,5.040013,2.109448,15.956759,17.446696,-0.102522,0.175863,0.000000,0.344067,0.164704,0.000000
3.220000,1.292670,0.144932,-1.742749,1.875878,0.095669,-0.272649,-1.877684,-1.056035,-0.655293,-0.875914,4.366933,5.209136,2.955274,15.664386,16.320446,-0.098998,0.177531,0.000000,0.360710,0.166788,0.000000
3.230000,1.311335,0.145836,-1.745508,1.857057,0.085327,-0.278941,-1.886299,-1.011580,-0.602384,-0.841538,4.521600,5.366422,3.942742,15.245589,15.116151,-0.095306,0.179216,0.000000,0.377499,0.167888,0.000000
3.240000,1.329811,0.146639,-1.748328,1.838152,0.075438,-0.284697,-1.894515,-0.965603,-0.547965,-0.797059,4.671845,5.511459,4.877451,14.872652,13.907311,-0.091446,0.180905,0.000000,0.394396,0.167928,0.000000
3.250000,1.348098,0.147345,-1.751202,1.819167,0.066015,-0.289901,-1.902240,-0.918143,-0.492155,-0.743989,4.819053,5.644568,5.721369,14.565885,12.698951,-0.087417,0.182588,0.000000,0.411530,0.167027,0.000000
3.260000,1.366194,0.147959,-1.754126,1.800107,0.057075,-0.294540,-1.909395,-0.869222,-0.435073,-0.682632,4.963163,5.765438,6.596576,14.208382,11.444307,-0.083214,0.184258,0.000000,0.428899,0.165181,0.000000
3.270000,1.384100,0.148486,-1.757093,1.780979,0.048631,-0.298602,-1.915893,-0.818879,-0.376846,-0.612058,5.103221,5.873454,7.565598,13.784452,10.145310,-0.078837,0.185904,0.000000,0.446413,0.162259,-0.000000
3.280000,1.401814,0.148932,-1.760098,1.761789,0.040697,-0.302077,-1.921636,-0.767158,-0.317604,-0.531320,5.238852,5.968345,8.577078,13.340554,8.816543,-0.074284,0.187513,0.000000,0.464028,0.158134,-0.000000
3.290000,1.419336,0.149300,-1.763135,1.742546,0.033288,-0.304954,-1.926519,-0.714102,-0.257479,-0.440516,5.370032,6.049785,9.541297,12.888044,7.456000,-0.069555,0.189075,0.000000,0.481736,0.152771,0.000000
3.300000,1.436665,0.149597,-1.766197,1.723259,0.026415,-0.307226,-1.930447,-0.659757,-0.196609,-0.340494,5.496613,6.117465,10.466093,12.386239,6.092654,-0.064648,0.190576,0.000000,0.499512,0.146207,0.000000
3.310000,1.453801,0.149828,-1.769279,1.703937,0.020093,-0.308887,-1.933329,-0.604170,-0.135130,-0.231194,5.617757,6.171638,11.397287,11.833405,4.729120,-0.059563,0.192005,0.000000,0.517256,0.138400,0.000000
3.320000,1.470744,0.149999,-1.772375,1.684592,0.014332,-0.309929,-1.935070,-0.547402,-0.073176,-0.112548,5.733281,6.212047,12.283481,11.336189,3.280852,-0.054302,0.193348,0.000000,0.534928,0.129299,0.000000
3.330000,1.487493,0.150115,-1.775478,1.665236,0.009145,-0.310350,-1.935580,-0.489505,-0.010889,0.014476,5.844480,6.237255,13.093195,10.896256,1.742033,-0.048864,0.194594,0.000000,0.552643,0.118930,0.000000
3.340000,1.504048,0.150182,-1.778582,1.645881,0.004542,-0.310147,-1.934781,-0.430512,0.051569,0.149316,5.951206,6.246888,13.886015,10.368432,0.235754,-0.043248,0.195729,0.000000,0.570359,0.107298,0.000000
3.350000,1.520410,0.150206,-1.781681,1.626540,0.000534,-0.309319,-1.932594,-0.370480,0.114049,0.292196,6.051849,6.241970,14.693917,9.764291,-1.190271,-0.037455,0.196741,0.000000,0.587878,0.094363,0.000000
3.360000,1.536579,0.150193,-1.784768,1.607229,-0.002868,-0.307866,-1.928937,-0.309475,0.176409,0.443194,6.146492,6.223082,15.461745,9.180081,-2.617477,-0.031489,0.197617,0.000000,0.605166,0.080087,-0.000000
3.370000,1.552555,0.150149,-1.787838,1.587962,-0.005655,-0.305790,-1.923730,-0.247551,0.238510,0.601431,6.235451,6.189621,16.092170,8.549130,-4.145640,-0.025351,0.198343,0.000000,0.622220,0.064509,0.000000
3.380000,1.568338,0.150080,-1.790884,1.568754,-0.007819,-0.303096,-1.916908,-0.184766,0.300201,0.765038,6.317474,6.140169,16.585025,7.837052,-5.747623,-0.019044,0.198907,0.000000,0.638868,0.047752,-0.000000
3.390000,1.583930,0.149992,-1.793900,1.549623,-0.009351,-0.299786,-1.908429,-0.121201,0.361314,0.933131,6.392192,6.074668,17.056903,7.143589,-7.284412,-0.012573,0.199297,0.000000,0.655014,0.029875,0.000000
3.400000,1.599331,0.149893,-1.796880,1.530586,-0.010243,-0.295869,-1.898246,-0.056923,0.421694,1.106176,6.460346,5.994481,17.566784,6.467336,-8.725463,-0.005943,0.199503,0.000000,0.670673,0.010833,0.000000
3.410000,1.614542,0.149787,-1.799817,1.511658,-0.010489,-0.291353,-1.886306,0.008006,0.481203,1.284467,6.521538,5.900159,18.022342,5.740816,-10.158035,0.000841,0.199512,0.000000,0.685742,-0.009417,-0.000000
3.420000,1.629564,0.149683,-1.802707,1.492860,-0.010083,-0.286245,-1.872556,0.073508,0.539698,1.466622,6.575162,5.791321,18.251642,5.004110,-11.634844,0.007772,0.199313,0.000000,0.700092,-0.030761,-0.000000
3.430000,1.644399,0.149586,-1.805542,1.474207,-0.009019,-0.280559,-1.856973,0.139509,0.597030,1.649500,6.621621,5.667462,18.266474,4.278517,-13.120452,0.014843,0.198896,0.000000,0.713691,-0.052894,0.000000
3.440000,1.659048,0.149502,-1.808318,1.455720,-0.007293,-0.274305,-1.839566,0.205941,0.653047,1.831952,6.660733,5.528911,18.287322,3.503985,-14.538781,0.022046,0.198254,0.000000,0.726443,-0.075690,0.000000
3.450000,1.673513,0.149440,-1.811028,1.437416,-0.004900,-0.267498,-1.820334,0.272724,0.707608,2.015246,6.691700,5.376687,18.387486,2.702004,-15.884497,0.029372,0.197380,0.000000,0.738185,-0.099255,0.000000
3.460000,1.687796,0.149404,-1.813668,1.419313,-0.001838,-0.260153,-1.799261,0.339775,0.760581,2.199702,6.714773,5.211222,18.408296,1.911787,-17.198669,0.036809,0.196267,0.000000,0.748863,-0.123607,0.000000
3.470000,1.701900,0.149403,-1.816231,1.401431,0.001895,-0.252286,-1.776340,0.407019,0.811832,2.383412,6.729936,5.032713,18.163111,1.048267,-18.472286,0.044348,0.194905,0.000000,0.758391,-0.148524,0.000000
3.480000,1.715825,0.149442,-1.818714,1.383787,0.006302,-0.243916,-1.751593,0.474373,0.861235,2.562964,6.735738,4.841776,17.688665,0.092582,-19.679699,0.051976,0.193292,0.000000,0.766526,-0.173605,0.000000
3.490000,1.729575,0.149529,-1.821110,1.366399,0.011383,-0.235061,-1.725081,0.541734,0.908668,2.737185,6.731788,4.639119,17.226209,-0.833119,-20.825094,0.059677,0.191427,0.000000,0.773137,-0.198670,0.000000
3.500000,1.743153,0.149670,-1.823415,1.349285,0.017137,-0.225743,-1.696850,0.609009,0.954017,2.907488,6.719076,4.425274,16.859902,-1.698355,-21.932427,0.067437,0.189310,0.000000,0.778252,-0.223819,0.000000
3.510000,1.756561,0.149872,-1.825625,1.332462,0.023563,-0.215981,-1.666931,0.676115,0.997173,3.074383,6.697821,4.200471,16.422007,-2.586407,-22.986747,0.075241,0.186940,0.000000,0.781815,-0.249057,0.000000
3.520000,1.769802,0.150141,-1.827734,1.315946,0.030659,-0.205799,-1.635362,0.742965,1.038027,3.235928,6.667348,3.965539,15.700400,-3.549483,-23.905386,0.083071,0.184314,0.000000,0.783677,-0.274106,-0.000000
3.530000,1.782880,0.150485,-1.829740,1.299755,0.038422,-0.195220,-1.602213,0.809462,1.076484,3.388391,6.626831,3.722363,14.740849,-4.561229,-24.677166,0.090912,0.181438,0.000000,0.783681,-0.298460,0.000000
3.540000,1.795797,0.150910,-1.831639,1.283902,0.046849,-0.184269,-1.567594,0.875502,1.112474,3.530745,6.576123,3.471996,13.825317,-5.553448,-25.404439,0.098743,0.178320,0.000000,0.781752,-0.321916,0.000000
3.550000,1.808558,0.151422,-1.833426,1.268403,0.055932,-0.172971,-1.531598,0.940985,1.145924,3.664898,6.515762,3.214274,13.023745,-6.502211,-26.139638,0.106544,0.174968,0.000000,0.777893,-0.344621,0.000000
3.560000,1.821165,0.152028,-1.835098,1.253270,0.065668,-0.161351,-1.494296,1.005817,1.176759,3.791220,6.446079,2.949203,12.148049,-7.451219,-26.801884,0.114298,0.171388,0.000000,0.772091,-0.366553,0.000000
3.570000,1.833623,0.152735,-1.836653,1.238517,0.076049,-0.149436,-1.455773,1.069906,1.204908,3.907859,6.366738,2.678236,11.046887,-8.459817,-27.244016,0.121984,0.167589,0.000000,0.764278,-0.387408,-0.000000
3.580000,1.845936,0.153549,-1.838087,1.224155,0.087066,-0.137253,-1.416139,1.133152,1.230324,4.012158,6.276883,2.404323,9.785590,-9.520030,-27.475523,0.129581,0.163582,0.000000,0.754363,-0.406766,0.000000
3.590000,1.858106,0.154477,-1.839398,1.210194,0.098712,-0.124829,-1.375530,1.195444,1.252994,4.103571,6.176337,2.128726,8.565907,-10.546577,-27.685710,0.137068,0.159385,0.000000,0.742330,-0.424476,0.000000
3.600000,1.870140,0.155524,-1.840584,1.196644,0.110975,-0.112193,-1.334067,1.256679,1.272899,4.183476,6.065951,1.850608,7.406671,-11.471821,-27.948577,0.144424,0.155013,0.000000,0.728263,-0.440651,-0.000000
3.610000,1.882039,0.156696,-1.841642,1.183513,0.123845,-0.099371,-1.291861,1.316763,1.290007,4.251704,5.946901,1.569754,6.182532,-12.352927,-28.127397,0.151630,0.150481,0.000000,0.712297,-0.455219,0.000000
3.620000,1.893810,0.158001,-1.842571,1.170807,0.137310,-0.086393,-1.249033,1.375617,1.304294,4.307127,5.818892,1.288060,4.877833,-13.361219,-28.030437,0.158668,0.145804,0.000000,0.694444,-0.467970,0.000000
3.630000,1.905456,0.159442,-1.843370,1.158532,0.151358,-0.073286,-1.205718,1.433141,1.315768,4.349261,5.679676,1.009146,3.539120,-14.467490,-27.688743,0.165517,0.141004,0.000000,0.674547,-0.478748,0.000000
3.640000,1.916981,0.161028,-1.844037,1.146693,0.165973,-0.060077,-1.162048,1.489210,1.324477,4.377909,5.529543,0.734286,2.192129,-15.434598,-27.353618,0.172156,0.136098,0.000000,0.652713,-0.487483,0.000000
3.650000,1.928389,0.162762,-1.844571,1.135291,0.181142,-0.046796,-1.118160,1.543732,1.330454,4.393103,5.370984,0.462073,0.874372,-16.315944,-27.101512,0.178569,0.131109,0.000000,0.629256,-0.494180,0.000000
3.660000,1.939686,0.164650,-1.844973,1.124329,0.196848,-0.033468,-1.074186,1.596630,1.333718,4.395396,5.203224,0.192255,-0.421733,-17.257233,-26.759427,0.184739,0.126056,0.000000,0.604147,-0.498891,0.000000
3.670000,1.950876,0.166699,-1.845241,1.113807,0.213075,-0.020122,-1.030252,1.647796,1.334299,4.384669,5.025840,-0.073115,-1.792620,-18.041309,-26.144861,0.190650,0.120960,0.000000,0.577448,-0.501568,0.000000
3.680000,1.961963,0.168912,-1.845375,1.103724,0.229804,-0.006782,-0.986493,1.697147,1.332256,4.359544,4.842398,-0.330642,-3.224851,-18.597653,-25.306244,0.196286,0.115842,0.000000,0.549713,-0.502013,0.000000
3.690000,1.972950,0.171295,-1.845376,1.094078,0.247018,0.006524,-0.943061,1.744644,1.327686,4.320172,4.653887,-0.579240,-4.571094,-19.230148,-24.485560,0.201643,0.110725,0.000000,0.521165,-0.500251,0.000000
3.700000,1.983844,0.173852,-1.845245,1.084863,0.264697,0.019771,-0.900089,1.790225,1.320671,4.268122,4.457795,-0.820353,-5.848893,-20.011380,-23.755979,0.206709,0.105631,0.000000,0.491576,-0.496506,0.000000
3.710000,1.994648,0.176589,-1.844981,1.076076,0.282822,0.032937,-0.857699,1.833800,1.311279,4.203194,4.253659,-1.054360,-7.142028,-20.724712,-22.956594,0.211473,0.100580,0.000000,0.460973,-0.490793,0.000000
3.720000,2.005366,0.179509,-1.844586,1.067709,0.301373,0.045997,-0.816025,1.875298,1.299584,4.125282,4.043300,-1.279485,-8.339613,-21.238136,-21.917980,0.215928,0.095593,0.000000,0.429683,-0.483116,-0.000000
3.730000,2.016002,0.182616,-1.844061,1.059755,0.320328,0.058929,-0.775193,1.914666,1.285689,4.036401,3.828896,-1.492719,-9.384096,-21.620882,-20.693521,0.220067,0.090690,0.000000,0.398111,-0.473720,0.000000
3.740000,2.026561,0.185915,-1.843407,1.052205,0.339666,0.071711,-0.735297,1.951876,1.269729,3.937600,3.610883,-1.693355,-10.422379,-22.030613,-19.513653,0.223890,0.085886,0.000000,0.366405,-0.462770,-0.000000
3.750000,2.037046,0.189410,-1.842627,1.045049,0.359365,0.084323,-0.696441,1.986884,1.251822,3.827954,3.388284,-1.882992,-11.569574,-22.466740,-18.417337,0.227395,0.081198,0.000000,0.334487,-0.450234,0.000000
3.760000,2.047462,0.193103,-1.841721,1.038276,0.379404,0.096747,-0.658738,2.019641,1.232070,3.706208,3.161548,-2.061702,-12.705212,-22.823925,-17.258896,0.230580,0.076644,0.000000,0.302468,-0.436026,0.000000
3.770000,2.057812,0.196998,-1.840692,1.031875,0.399758,0.108965,-0.622317,2.050115,1.210588,3.573850,2.931805,-2.228170,-13.517450,-23.105681,-15.976813,0.233445,0.072241,0.000000,0.270568,-0.420360,0.000000
3.780000,2.068099,0.201098,-1.839542,1.025830,0.420406,0.120959,-0.587261,2.078277,1.187506,3.435859,2.699434,-2.381238,-14.023150,-23.342178,-14.632277,0.235992,0.068003,0.000000,0.238922,-0.403846,0.000000
3.790000,2.078328,0.205406,-1.838273,1.020129,0.441324,0.132715,-0.553600,2.104103,1.162963,3.293387,2.464962,-2.520816,-14.631655,-23.519627,-13.311798,0.238224,0.063935,0.000000,0.207632,-0.386664,0.000000
3.800000,2.088502,0.209924,-1.836887,1.014758,0.462488,0.144218,-0.521394,2.127577,1.137090,3.143226,2.229042,-2.647474,-15.425688,-23.676389,-11.997521,0.240145,0.060045,0.000000,0.176785,-0.368512,-0.000000
3.810000,2.098623,0.214656,-1.835388,1.009701,0.483875,0.155456,-0.490735,2.148684,1.110014,2.984873,1.991434,-2.760766,-16.120060,-23.819139,-10.647277,0.241761,0.056347,0.000000,0.146393,-0.349379,0.000000
3.820000,2.108696,0.219602,-1.833778,1.004943,0.505462,0.166418,-0.461696,2.167405,1.081875,2.820825,1.752659,-2.860420,-16.541120,-23.818480,-9.338494,0.243074,0.052848,0.000000,0.116545,-0.329591,0.000000
3.830000,2.118722,0.224765,-1.832060,1.000468,0.527223,0.177094,-0.434319,2.183737,1.052805,2.654050,1.515064,-2.947536,-16.776885,-23.666505,-8.104751,0.244093,0.049555,0.000000,0.087480,-0.309524,0.000000
3.840000,2.128705,0.230146,-1.830236,0.996257,0.549137,0.187475,-0.408615,2.197707,1.022924,2.485287,1.279329,-3.022515,-17.039518,-23.543339,-6.850678,0.244825,0.046468,0.000000,0.059263,-0.289293,0.000000
3.850000,2.138647,0.235748,-1.828310,0.992295,0.571178,0.197552,-0.384613,2.209324,0.992355,2.313260,1.044198,-3.084550,-17.365273,-23.475052,-5.524709,0.245279,0.043591,0.000000,0.031777,-0.268783,0.000000
3.860000,2.148551,0.241570,-1.826285,0.988565,0.593323,0.207322,-0.362350,2.218591,0.961233,2.137982,0.809828,-3.133009,-17.612219,-23.340721,-4.207436,0.245462,0.040926,0.000000,0.005051,-0.248019,0.000000
3.870000,2.158419,0.247614,-1.824164,0.985048,0.615549,0.216777,-0.341853,2.225521,0.929695,1.961016,0.577383,-3.168698,-17.685220,-23.110816,-3.045013,0.245381,0.038477,0.000000,-0.020824,-0.227201,-0.000000
3.880000,2.168252,0.253881,-1.821950,0.981728,0.637833,0.225916,-0.323130,2.230138,0.897859,1.784277,0.347612,-3.193909,-17.630201,-22.829081,-2.029103,0.245046,0.036241,0.000000,-0.045844,-0.206561,0.000000
3.890000,2.178053,0.260371,-1.819646,0.978586,0.660152,0.234734,-0.306168,2.232473,0.865817,1.608412,0.120802,-3.209280,-17.569373,-22.529168,-0.977502,0.244465,0.034218,0.000000,-0.070014,-0.186180,0.000000
3.900000,2.187824,0.267084,-1.817255,0.975604,0.682483,0.243232,-0.290961,2.232554,0.833673,1.432890,-0.102972,-3.213459,-17.523799,-22.209241,0.167313,0.243647,0.032403,0.000000,-0.093313,-0.166002,0.000000
3.910000,2.197565,0.274020,-1.814781,0.972766,0.704803,0.251408,-0.277510,2.230413,0.801547,1.257936,-0.323383,-3.205934,-17.415076,-21.851604,1.270521,0.242600,0.030796,0.000000,-0.115718,-0.146054,0.000000
3.920000,2.207279,0.281180,-1.812227,0.970054,0.727091,0.259263,-0.265803,2.226087,0.769555,1.084588,-0.540004,-3.188049,-17.198293,-21.459622,2.178173,0.241333,0.029393,0.000000,-0.137245,-0.126452,0.000000
3.930000,2.216966,0.288562,-1.809596,0.967450,0.749325,0.266799,-0.255818,2.219613,0.737786,0.913970,-0.752576,-3.162371,-16.903043,-21.043075,2.921016,0.239855,0.028191,0.000000,-0.157961,-0.107322,0.000000
3.940000,2.226628,0.296166,-1.806891,0.964938,0.771483,0.274019,-0.247523,2.211035,0.706307,0.746528,-0.960865,-3.129629,-16.590572,-20.600558,3.692025,0.238174,0.027183,0.000000,-0.177883,-0.088705,0.000000
3.950000,2.236265,0.303992,-1.804115,0.962500,0.793546,0.280925,-0.240888,2.200396,0.675194,0.582158,-1.164587,-3.088530,-16.264176,-20.127903,4.542952,0.236298,0.026364,0.000000,-0.196977,-0.070578,0.000000
3.960000,2.245878,0.312037,-1.801272,0.960120,0.815491,0.287522,-0.235880,2.187743,0.644537,0.421244,-1.363423,-3.038770,-15.888855,-19.630388,5.336855,0.234235,0.025730,0.000000,-0.215230,-0.052969,0.000000
3.970000,2.255467,0.320302,-1.798365,0.957782,0.837301,0.293816,-0.232463,2.173128,0.614418,0.264381,-1.557195,-2.981793,-15.469485,-19.125082,5.939820,0.231994,0.025274,0.000000,-0.232687,-0.035935,-0.000000
3.980000,2.265034,0.328783,-1.795396,0.955471,0.858954,0.299811,-0.230593,2.156599,0.584901,0.111854,-1.745925,-2.919973,-15.024619,-18.614589,6.388804,0.229582,0.024991,0.000000,-0.249431,-0.019499,-0.000000
3.990000,2.274577,0.337481,-1.792369,0.953170,0.880433,0.305514,-0.230226,2.138209,0.556019,-0.036111,-1.929486,-2.854017,-14.551619,-18.080425,6.853756,0.227005,0.024873,0.000000,-0.265491,-0.003672,0.000000
4.000000,2.284097,0.346392,-1.789286,0.950866,0.901718,0.310931,-0.231315,2.118010,0.527820,-0.179178,-2.107534,-2.782898,-14.038748,-17.515086,7.373329,0.224272,0.024915,0.000000,-0.280826,0.011529,0.000000
4.010000,2.293594,0.355515,-1.786150,0.948544,0.922793,0.316070,-0.233809,2.096058,0.500361,-0.316886,-2.279788,-2.706550,-13.494958,-16.935048,7.830937,0.221389,0.025109,0.000000,-0.295428,0.026068,0.000000
4.020000,2.303068,0.364848,-1.782964,0.946190,0.943639,0.320938,-0.237652,2.072414,0.473689,-0.449077,-2.446235,-2.626279,-12.960716,-16.365647,8.132769,0.218363,0.025449,0.000000,-0.309347,0.039942,0.000000
4.030000,2.312518,0.374388,-1.779731,0.943791,0.964241,0.325544,-0.242791,2.047134,0.447835,-0.576100,-2.607101,-2.543895,-12.440625,-15.805493,8.314726,0.215202,0.025927,0.000000,-0.322665,0.053196,0.000000
4.040000,2.321944,0.384133,-1.776453,0.941334,0.984582,0.329895,-0.249174,2.020272,0.422811,-0.697890,-2.762344,-2.459985,-11.886486,-15.225100,8.497208,0.211910,0.026538,0.000000,-0.335403,0.065835,0.000000
4.050000,2.331345,0.394080,-1.773133,0.938808,1.004646,0.334000,-0.256748,1.991887,0.398636,-0.813830,-2.911603,-2.373951,-11.281801,-14.616452,8.701756,0.208494,0.027274,0.000000,-0.347526,0.077810,-0.000000
4.060000,2.340720,0.404226,-1.769773,0.936199,1.024420,0.337868,-0.265451,1.962040,0.375332,-0.923526,-3.054673,-2.285950,-10.665315,-14.002753,8.849115,0.204959,0.028128,0.000000,-0.359028,0.089093,0.000000
4.070000,2.350069,0.414568,-1.766376,0.933499,1.043887,0.341507,-0.275219,1.930793,0.352917,-1.027136,-3.191658,-2.196969,-10.085419,-13.408684,8.892381,0.201313,0.029094,0.000000,-0.369952,0.099708,0.000000
4.080000,2.359390,0.425103,-1.762943,0.930695,1.063036,0.344926,-0.285994,1.898207,0.331393,-1.125234,-3.322847,-2.108102,-9.535789,-12.830022,8.859047,0.197560,0.030163,0.000000,-0.380358,0.109724,0.000000
4.090000,2.368683,0.435829,-1.759477,0.927779,1.081851,0.348135,-0.297724,1.864336,0.310755,-1.217852,-3.448258,-2.019788,-8.958609,-12.237938,8.810886,0.193706,0.031332,0.000000,-0.390264,0.119151,-0.000000
4.100000,2.377946,0.446740,-1.755981,0.924740,1.100322,0.351141,-0.310351,1.829242,0.290997,-1.304406,-3.567606,-1.931884,-8.337156,-11.624287,8.757650,0.189755,0.032592,0.000000,-0.399642,0.127938,0.000000
4.110000,2.387177,0.457835,-1.752455,0.921572,1.118436,0.353955,-0.323812,1.792984,0.272117,-1.384595,-3.680744,-1.844635,-7.715168,-11.011125,8.661736,0.185712,0.033937,0.000000,-0.408486,0.136062,-0.000000
4.120000,2.396377,0.469109,-1.748902,0.918264,1.136182,0.356584,-0.338043,1.755627,0.254105,-1.458710,-3.787828,-1.758650,-7.141259,-10.423283,8.505785,0.181585,0.035361,0.000000,-0.416826,0.143557,-0.000000
4.130000,2.405543,0.480559,-1.745323,0.914811,1.153549,0.359037,-0.352986,1.717228,0.236944,-1.527420,-3.889210,-1.674519,-6.605943,-9.856193,8.305962,0.177376,0.036856,0.000000,-0.424709,0.150498,-0.000000
4.140000,2.414673,0.492180,-1.741721,0.911205,1.170527,0.361322,-0.368591,1.677842,0.220614,-1.590829,-3.984952,-1.592530,-6.049980,-9.279910,8.088252,0.173090,0.038418,0.000000,-0.432148,0.156896,-0.000000
4.150000,2.423767,0.503969,-1.738097,0.907439,1.187106,0.363449,-0.384803,1.637529,0.205093,-1.648420,-4.074808,-1.512754,-5.459500,-8.687785,7.852233,0.168732,0.040042,0.000000,-0.439116,0.162704,0.000000
4.160000,2.432822,0.515922,-1.734452,0.903508,1.203277,0.365424,-0.401560,1.596346,0.190359,-1.700019,-4.158708,-1.435486,-4.877575,-8.101851,7.585506,0.164307,0.041719,0.000000,-0.445608,0.167906,0.000000
4.170000,2.441837,0.528035,-1.730788,0.899408,1.219033,0.367256,-0.418803,1.554355,0.176384,-1.745972,-4.236845,-1.361044,-4.342359,-7.540838,7.299182,0.159820,0.043446,0.000000,-0.451646,0.172538,-0.000000
4.180000,2.450810,0.540303,-1.727107,0.895132,1.234364,0.368952,-0.436479,1.511609,0.163138,-1.786866,-4.309525,-1.289502,-3.842660,-6.999105,7.002867,0.155274,0.045215,0.000000,-0.457258,0.176662,0.000000
4.190000,2.459740,0.552722,-1.723409,0.890678,1.249265,0.370519,-0.454540,1.468164,0.150594,-1.822825,-4.376827,-1.220986,-3.332195,-6.454439,6.685850,0.150674,0.047022,0.000000,-0.462449,0.180292,0.000000
4.200000,2.468624,0.565288,-1.719696,0.886042,1.263727,0.371964,-0.472935,1.424073,0.138719,-1.853510,-4.438613,-1.155785,-2.802564,-5.903513,6.338472,0.146025,0.048862,0.000000,-0.467204,0.183391,0.000000
4.210000,2.477460,0.577997,-1.715970,0.881220,1.277746,0.373293,-0.491610,1.379392,0.127478,-1.878876,-4.494897,-1.094217,-2.286597,-5.362363,5.973364,0.141330,0.050729,0.000000,-0.471521,0.185953,0.000000
4.220000,2.486248,0.590843,-1.712230,0.876209,1.291315,0.374513,-0.510513,1.334175,0.116834,-1.899242,-4.545861,-1.036318,-1.807248,-4.840797,5.623525,0.136594,0.052619,0.000000,-0.475414,0.188011,0.000000
4.230000,2.494985,0.603823,-1.708479,0.871009,1.304430,0.375630,-0.529595,1.288475,0.106752,-1.915021,-4.591713,-0.981747,-1.355447,-4.334580,5.290382,0.131822,0.054525,0.000000,-0.478891,0.189607,0.000000
4.240000,2.503668,0.616932,-1.704718,0.865618,1.317085,0.376648,-0.548813,1.242341,0.097199,-1.926350,-4.632552,-0.930510,-0.903771,-3.832698,4.934754,0.127016,0.056444,0.000000,-0.481956,0.190755,-0.000000
4.250000,2.512297,0.630165,-1.700946,0.860033,1.329277,0.377574,-0.568122,1.195823,0.088141,-1.933096,-4.668367,-0.883051,-0.446485,-3.332680,4.545006,0.122182,0.058371,0.000000,-0.484606,0.191436,0.000000
4.260000,2.520869,0.643517,-1.697166,0.854255,1.341001,0.378411,-0.587475,1.148973,0.079538,-1.935280,-4.699206,-0.839610,-0.002948,-2.842705,4.152146,0.117324,0.060302,0.000000,-0.486840,0.191649,0.000000
4.270000,2.529382,0.656985,-1.693378,0.848283,1.352256,0.379165,-0.606828,1.101839,0.071349,-1.933155,-4.725221,-0.800009,0.410343,-2.371141,3.790429,0.112446,0.062231,0.000000,-0.488664,0.191420,-0.000000
4.280000,2.537835,0.670562,-1.689583,0.842119,1.363038,0.379838,-0.626138,1.054469,0.063538,-1.927073,-4.746629,-0.763801,0.798837,-1.916170,3.454261,0.107551,0.064154,0.000000,-0.490088,0.190785,0.000000
4.290000,2.546224,0.684245,-1.685781,0.835761,1.373345,0.380435,-0.645369,1.006907,0.056073,-1.917179,-4.763545,-0.730923,1.182914,-1.467717,3.103338,0.102644,0.066069,0.000000,-0.491115,0.189757,0.000000
4.300000,2.554550,0.698029,-1.681974,0.829211,1.383176,0.380960,-0.664482,0.959198,0.048920,-1.903415,-4.775983,-0.701735,1.565917,-1.023564,2.726123,0.097728,0.067970,0.000000,-0.491743,0.188327,0.000000
4.310000,2.562809,0.711909,-1.678162,0.822471,1.392529,0.381414,-0.683438,0.911387,0.042038,-1.885860,-4.784016,-0.676401,1.933827,-0.591078,2.353269,0.092809,0.069853,0.000000,-0.491975,0.186498,0.000000
4.320000,2.570999,0.725880,-1.674346,0.815542,1.401404,0.381800,-0.702199,0.863518,0.035392,-1.864739,-4.787805,-0.654669,2.278194,-0.176529,2.019375,0.087889,0.071716,0.000000,-0.491816,0.184293,0.000000
4.330000,2.579120,0.739937,-1.670526,0.808427,1.409800,0.382122,-0.720732,0.815631,0.028945,-1.840296,-4.787547,-0.636013,2.603306,0.221849,1.718152,0.082972,0.073554,0.000000,-0.491275,0.181740,0.000000
4.340000,2.587168,0.754076,-1.666704,0.801128,1.417717,0.382379,-0.739005,0.767767,0.022671,-1.812672,-4.783368,-0.620306,2.919464,0.611588,1.407601,0.078063,0.075363,0.000000,-0.490360,0.178851,0.000000
4.350000,2.595142,0.768291,-1.662879,0.793647,1.425155,0.382575,-0.756986,0.719964,0.016539,-1.781907,-4.775315,-0.607861,3.228196,0.994834,1.076953,0.073165,0.077142,0.000000,-0.489072,0.175628,0.000000
4.360000,2.603041,0.782579,-1.659052,0.785988,1.432116,0.382710,-0.774643,0.672260,0.010514,-1.748108,-4.763471,-0.598767,3.522603,1.366108,0.757011,0.068282,0.078885,0.000000,-0.487414,0.172078,0.000000
4.370000,2.610862,0.796934,-1.655225,0.778154,1.438600,0.382785,-0.791948,0.624694,0.004564,-1.711455,-4.747993,-0.592721,3.798690,1.719261,0.477826,0.063417,0.080591,0.000000,-0.485395,0.168221,0.000000
4.380000,2.618604,0.811351,-1.651396,0.770149,1.444610,0.382801,-0.808872,0.577301,-0.001340,-1.672135,-4.729086,-0.589211,4.058668,2.055520,0.231946,0.058574,0.082257,0.000000,-0.483027,0.164079,0.000000
4.390000,2.626265,0.825826,-1.647568,0.761977,1.450146,0.382759,-0.825391,0.530113,-0.007221,-1.630282,-4.706882,-0.588082,4.307574,2.382640,-0.017437,0.053757,0.083879,0.000000,-0.480322,0.159666,0.000000
4.400000,2.633843,0.840354,-1.643741,0.753641,1.455212,0.382657,-0.841478,0.483163,-0.013102,-1.585983,-4.681433,-0.589559,4.546244,2.703140,-0.279019,0.048968,0.085455,0.000000,-0.477281,0.154988,0.000000
4.410000,2.641338,0.854930,-1.639915,0.745147,1.459809,0.382497,-0.857110,0.436484,-0.019012,-1.539357,-4.652820,-0.593663,4.771410,3.011518,-0.526486,0.044211,0.086982,0.000000,-0.473910,0.150058,0.000000
4.420000,2.648746,0.869550,-1.636091,0.736499,1.463942,0.382277,-0.872265,0.390107,-0.024975,-1.490555,-4.621203,-0.600089,4.981231,3.301191,-0.736314,0.039490,0.088459,0.000000,-0.470222,0.144891,0.000000
4.430000,2.656068,0.884209,-1.632270,0.727702,1.467612,0.381997,-0.886921,0.344060,-0.031014,-1.439732,-4.586796,-0.608389,5.176884,3.573494,-0.915484,0.034807,0.089882,0.000000,-0.466234,0.139509,0.000000
4.440000,2.663300,0.898902,-1.628451,0.718761,1.470823,0.381657,-0.901060,0.298371,-0.037143,-1.387017,-4.549733,-0.618399,5.360844,3.837013,-1.093139,0.030165,0.091251,0.000000,-0.461958,0.133925,0.000000
4.450000,2.670443,0.913625,-1.624637,0.709681,1.473579,0.381254,-0.914662,0.253065,-0.043382,-1.332515,-4.510056,-0.630252,5.533688,4.094525,-1.275769,0.025568,0.092562,0.000000,-0.457398,0.128150,-0.000000
4.460000,2.677494,0.928374,-1.620826,0.700467,1.475884,0.380789,-0.927710,0.208170,-0.049748,-1.276344,-4.467842,-0.643914,5.693935,4.340130,-1.443033,0.021017,0.093814,0.000000,-0.452562,0.122196,0.000000
4.470000,2.684452,0.943143,-1.617021,0.691126,1.477742,0.380259,-0.940189,0.163708,-0.056260,-1.218637,-4.423253,-0.659112,5.840464,4.567055,-1.578056,0.016516,0.095006,0.000000,-0.447463,0.116079,0.000000
4.480000,2.691316,0.957929,-1.613221,0.681664,1.479158,0.379664,-0.952083,0.119704,-0.062930,-1.159534,-4.376501,-0.675475,5.973903,4.776922,-1.686657,0.012068,0.096136,0.000000,-0.442125,0.109819,0.000000
4.490000,2.698085,0.972726,-1.609428,0.672085,1.480136,0.379001,-0.963379,0.076178,-0.069769,-1.099159,-4.327714,-0.692845,6.095961,4.978783,-1.790080,0.007674,0.097203,0.000000,-0.436560,0.103429,0.000000
4.500000,2.704758,0.987531,-1.605641,0.662396,1.480682,0.378268,-0.974066,0.033150,-0.076787,-1.037615,-4.276925,-0.711277,6.207279,5.175427,-1.892869,0.003337,0.098205,0.000000,-0.430773,0.096920,0.000000
4.510000,2.711333,1.002340,-1.601862,0.652603,1.480799,0.377465,-0.984132,-0.009360,-0.083995,-0.975013,-4.224206,-0.730703,6.306971,5.360838,-1.980586,-0.000941,0.099141,0.000000,-0.424772,0.090306,0.000000
4.520000,2.717810,1.017147,-1.598092,0.642713,1.480495,0.376588,-0.993566,-0.051334,-0.091401,-0.911476,-4.169709,-0.750889,6.393752,5.528632,-2.042094,-0.005159,0.100011,0.000000,-0.418573,0.083602,-0.000000
4.530000,2.724188,1.031950,-1.594330,0.632732,1.479773,0.375637,-1.002361,-0.092754,-0.099013,-0.847138,-4.113633,-0.771545,6.467969,5.680692,-2.081868,-0.009313,0.100814,0.000000,-0.412199,0.076826,-0.000000
4.540000,2.730465,1.046743,-1.590579,0.622666,1.478640,0.374608,-1.010509,-0.133607,-0.106832,-0.782116,-4.056095,-0.792526,6.531734,5.825752,-2.114280,-0.013403,0.101548,0.000000,-0.405664,0.069991,0.000000
4.550000,2.736641,1.061523,-1.586838,0.612522,1.477101,0.373500,-1.018004,-0.173876,-0.114863,-0.716503,-3.997118,-0.813830,6.585957,5.966209,-2.142438,-0.017426,0.102214,0.000000,-0.398973,0.063108,0.000000
4.560000,2.742715,1.076285,-1.583109,0.602306,1.475162,0.372311,-1.024839,-0.213549,-0.123109,-0.650397,-3.936771,-0.835375,6.629444,6.096481,-2.156940,-0.021382,0.102810,0.000000,-0.392134,0.056190,-0.000000
4.570000,2.748687,1.091026,-1.579392,0.592025,1.472830,0.371038,-1.031011,-0.252612,-0.131571,-0.583914,-3.875189,-0.856969,6.660601,6.211600,-2.150741,-0.025269,0.103338,0.000000,-0.385163,0.049249,0.000000
4.580000,2.754556,1.105741,-1.575688,0.581686,1.470110,0.369679,-1.036517,-0.291053,-0.140248,-0.517185,-3.812539,-0.878390,6.679978,6.313652,-2.127030,-0.029085,0.103796,0.000000,-0.378081,0.042304,-0.000000
4.590000,2.760321,1.120428,-1.571999,0.571295,1.467009,0.368233,-1.041355,-0.328862,-0.149138,-0.450315,-3.748916,-0.899510,6.690094,6.409636,-2.095345,-0.032830,0.104184,0.000000,-0.370901,0.035366,0.000000
4.600000,2.765982,1.135082,-1.568324,0.560859,1.463533,0.366697,-1.045524,-0.366031,-0.158238,-0.383383,-3.684346,-0.920297,6.691577,6.500634,-2.057918,-0.036503,0.104503,0.000000,-0.363627,0.028445,0.000000
4.610000,2.771538,1.149699,-1.564665,0.550384,1.459688,0.365068,-1.049023,-0.402549,-0.167544,-0.316483,-3.618903,-0.940668,6.683032,6.582489,-2.008857,-0.040103,0.104754,0.000000,-0.356269,0.021552,-0.000000
4.620000,2.776989,1.164275,-1.561022,0.539878,1.455482,0.363346,-1.051853,-0.438409,-0.177052,-0.249723,-3.552696,-0.960474,6.663775,6.653991,-1.943717,-0.043629,0.104935,0.000000,-0.348842,0.014698,0.000000
4.630000,2.782336,1.178808,-1.557398,0.529347,1.450920,0.361527,-1.054017,-0.473603,-0.186754,-0.183208,-3.485823,-0.979542,6.634397,6.716905,-1.864836,-0.047080,0.105048,0.000000,-0.341360,0.007899,0.000000
4.640000,2.787576,1.193294,-1.553792,0.518798,1.446010,0.359611,-1.055518,-0.508126,-0.196643,-0.117035,-3.418358,-0.997770,6.596220,6.773352,-1.778706,-0.050456,0.105093,0.000000,-0.333831,0.001164,0.000000
4.650000,2.792711,1.207728,-1.550205,0.508237,1.440757,0.357594,-1.056358,-0.541970,-0.206709,-0.051283,-3.350356,-1.015116,6.550479,6.824319,-1.686425,-0.053756,0.105071,0.000000,-0.326266,-0.005499,0.000000
4.660000,2.797741,1.222109,-1.546640,0.497671,1.435170,0.355477,-1.056543,-0.575133,-0.216945,0.013975,-3.281872,-1.031499,6.496557,6.868983,-1.584348,-0.056981,0.104983,0.000000,-0.318671,-0.012080,-0.000000
4.670000,2.802665,1.236432,-1.543096,0.487106,1.429255,0.353256,-1.056078,-0.607608,-0.227339,0.078648,-3.212976,-1.046803,6.431813,6.905695,-1.471431,-0.060130,0.104829,0.000000,-0.311057,-0.018569,-0.000000
4.680000,2.807483,1.250694,-1.539575,0.476549,1.423018,0.350930,-1.054970,-0.639392,-0.237881,0.142611,-3.143758,-1.060927,6.356516,6.935255,-1.349418,-0.063202,0.104611,0.000000,-0.303436,-0.024954,0.000000
4.690000,2.812196,1.264892,-1.536077,0.466007,1.416467,0.348498,-1.053226,-0.670483,-0.248558,0.205778,-3.074271,-1.073792,6.274811,6.960715,-1.220458,-0.066199,0.104329,0.000000,-0.295815,-0.031225,-0.000000
4.700000,2.816803,1.279023,-1.532605,0.455485,1.409608,0.345959,-1.050855,-0.700878,-0.259357,0.268107,-3.004543,-1.085337,6.188435,6.982032,-1.085553,-0.069119,0.103985,0.000000,-0.288201,-0.037377,0.000000
4.710000,2.821306,1.293084,-1.529158,0.444990,1.402449,0.343311,-1.047864,-0.730574,-0.270265,0.329547,-2.934631,-1.095503,6.094906,6.997858,-0.944031,-0.071963,0.103580,0.000000,-0.280600,-0.043407,0.000000
4.720000,2.825703,1.307072,-1.525739,0.434527,1.394997,0.340553,-1.044264,-0.759570,-0.281267,0.390006,-2.864586,-1.104217,5.990980,7.010300,-0.794584,-0.074731,0.103115,0.000000,-0.273020,-0.049304,0.000000
4.730000,2.829996,1.320984,-1.522347,0.424104,1.387258,0.337685,-1.040064,-0.787866,-0.292349,0.449366,-2.794425,-1.111395,5.877780,7.020676,-0.637965,-0.077423,0.102591,0.000000,-0.265466,-0.055057,-0.000000
4.740000,2.834185,1.334817,-1.518985,0.413726,1.379239,0.334706,-1.035276,-0.815459,-0.303495,0.507561,-2.724173,-1.116977,5.760188,7.026786,-0.477020,-0.080040,0.102011,0.000000,-0.257941,-0.060660,0.000000
4.750000,2.838271,1.348569,-1.515653,0.403399,1.370949,0.331616,-1.029913,-0.842349,-0.314688,0.564570,-2.653889,-1.120935,5.638739,7.026794,-0.312787,-0.082582,0.101374,0.000000,-0.250454,-0.066111,0.000000
4.760000,2.842253,1.362236,-1.512353,0.393128,1.362393,0.328413,-1.023985,-0.868537,-0.325913,0.620336,-2.583637,-1.123232,5.510661,7.022986,-0.144140,-0.085049,0.100684,0.000000,-0.243012,-0.071407,0.000000
4.770000,2.846133,1.375817,-1.509085,0.382919,1.353578,0.325097,-1.017506,-0.894022,-0.337153,0.674783,-2.513429,-1.123818,5.376268,7.021357,0.029637,-0.087442,0.099941,0.000000,-0.235617,-0.076539,0.000000
4.780000,2.849912,1.389308,-1.505851,0.372778,1.344512,0.321670,-1.010489,-0.918805,-0.348390,0.727861,-2.443210,-1.122640,5.236964,7.021976,0.207439,-0.089762,0.099147,0.000000,-0.228267,-0.081505,0.000000
4.790000,2.853589,1.402707,-1.502651,0.362709,1.335202,0.318129,-1.002949,-0.942886,-0.359606,0.779523,-2.372990,-1.119669,5.092749,7.017506,0.387260,-0.092008,0.098304,0.000000,-0.220964,-0.086301,-0.000000
4.800000,2.857166,1.416012,-1.499488,0.352719,1.325654,0.314477,-0.994899,-0.966265,-0.370783,0.829716,-2.302860,-1.114894,4.943762,7.006262,0.569134,-0.094181,0.097414,0.000000,-0.213716,-0.090923,0.000000
4.810000,2.860643,1.429220,-1.496362,0.342811,1.315877,0.310714,-0.986355,-0.988943,-0.381904,0.878398,-2.232864,-1.108286,4.790614,6.993833,0.753499,-0.096282,0.096478,0.000000,-0.206530,-0.095369,0.000000
4.820000,2.864022,1.442330,-1.493274,0.332992,1.305875,0.306839,-0.977331,-1.010922,-0.392949,0.925529,-2.162983,-1.099824,4.633686,6.984853,0.938158,-0.098312,0.095498,0.000000,-0.199404,-0.099635,-0.000000
4.830000,2.867303,1.455338,-1.490225,0.323265,1.295658,0.302855,-0.967844,-1.032203,-0.403900,0.971072,-2.093167,-1.089523,4.473135,6.978189,1.122139,-0.100271,0.094475,0.000000,-0.192334,-0.103722,0.000000
4.840000,2.870487,1.468243,-1.487217,0.313635,1.285231,0.298761,-0.957910,-1.052786,-0.414739,1.014991,-2.023419,-1.077382,4.309204,6.968458,1.307379,-0.102159,0.093413,0.000000,-0.185321,-0.107626,0.000000
4.850000,2.873576,1.481042,-1.484250,0.304106,1.274602,0.294560,-0.947544,-1.072671,-0.425448,1.057256,-1.953798,-1.063376,4.142431,6.953423,1.494209,-0.103977,0.092312,0.000000,-0.178370,-0.111347,0.000000
4.860000,2.876569,1.493735,-1.481325,0.294684,1.263778,0.290252,-0.936764,-1.091862,-0.436007,1.097840,-1.884351,-1.047497,3.973159,6.937240,1.680433,-0.105726,0.091174,0.000000,-0.171487,-0.114884,0.000000
4.870000,2.879469,1.506318,-1.478445,0.285371,1.252765,0.285840,-0.925587,-1.110358,-0.446398,1.136719,-1.815053,-1.029767,3.801170,6.926713,1.863846,-0.107407,0.090001,0.000000,-0.164669,-0.118237,-0.000000
4.880000,2.882277,1.518790,-1.475609,0.276172,1.241571,0.281324,-0.914030,-1.128163,-0.456602,1.173863,-1.745817,-1.010221,3.626817,6.921174,2.044371,-0.109020,0.088795,0.000000,-0.157906,-0.121405,-0.000000
4.890000,2.884993,1.531149,-1.472818,0.267091,1.230202,0.276708,-0.902110,-1.145275,-0.466602,1.209255,-1.676630,-0.988879,3.451142,6.911963,2.223797,-0.110565,0.087558,0.000000,-0.151199,-0.124389,-0.000000
4.900000,2.887619,1.543394,-1.470074,0.258130,1.218665,0.271992,-0.889845,-1.161695,-0.476380,1.242886,-1.607577,-0.965745,3.274121,6.896385,2.402676,-0.112044,0.086292,0.000000,-0.144553,-0.127190,-0.000000
4.910000,2.890155,1.555523,-1.467378,0.249294,1.206968,0.267180,-0.877252,-1.177426,-0.485917,1.274738,-1.538702,-0.940826,3.095601,6.880656,2.578957,-0.113456,0.084999,0.000000,-0.137973,-0.129807,0.000000
4.920000,2.892604,1.567534,-1.464731,0.240585,1.195117,0.262274,-0.864350,-1.192469,-0.495196,1.304798,-1.469964,-0.914165,2.917133,6.871699,2.749734,-0.114803,0.083679,0.000000,-0.131454,-0.132243,-0.000000
4.930000,2.894967,1.579425,-1.462133,0.232007,1.183119,0.257276,-0.851156,-1.206825,-0.504200,1.333080,-1.401268,-0.885831,2.739857,6.868609,2.918493,-0.116086,0.082336,0.000000,-0.124986,-0.134501,-0.000000
4.940000,2.897245,1.591196,-1.459585,0.223562,1.170980,0.252190,-0.837689,-1.220495,-0.512913,1.359595,-1.332592,-0.855796,2.562169,6.862336,3.087104,-0.117303,0.080971,0.000000,-0.118567,-0.136583,0.000000
4.950000,2.899438,1.602845,-1.457089,0.215253,1.158709,0.247018,-0.823964,-1.233477,-0.521316,1.384324,-1.264022,-0.824089,2.379869,6.845647,3.229775,-0.118457,0.079586,0.000000,-0.112203,-0.138490,0.000000
4.960000,2.901550,1.614370,-1.454645,0.207082,1.146311,0.241764,-0.810002,-1.245775,-0.529395,1.407193,-1.195679,-0.791200,2.194912,6.825162,3.346465,-0.119547,0.078182,0.000000,-0.105899,-0.140220,0.000000
4.970000,2.903580,1.625771,-1.452254,0.199053,1.133793,0.236430,-0.795821,-1.257391,-0.537140,1.428222,-1.127518,-0.757160,2.024644,6.774503,3.505219,-0.120575,0.076761,0.000000,-0.099650,-0.141777,0.000000
4.980000,2.905531,1.637046,-1.449916,0.191166,1.121163,0.231021,-0.781438,-1.268325,-0.544538,1.447686,-1.060189,-0.721096,1.949707,5.886464,3.623513,-0.121540,0.075325,0.000000,-0.093527,-0.143182,0.000000
4.990000,2.907403,1.648194,-1.447633,0.183424,1.108427,0.225539,-0.766867,-1.278595,-0.551562,1.467216,-1.009789,-0.684690,1.925418,4.412754,3.628107,-0.122446,0.073876,0.000000,-0.089036,-0.144604,0.000000
5.000000,2.909199,1.659214,-1.445406,0.175829,1.095591,0.219990,-0.752093,-1.288521,-0.558232,1.486194,-0.971934,-0.648534,1.356145,8.294649,4.129462,-0.123321,0.072411,0.000000,-0.085748,-0.145987,-0.000000
5.010000,2.910920,1.670106,-1.443234,0.168382,1.082656,0.214375,-0.737143,-1.298033,-0.564533,1.494339,-0.843896,-0.602100,0.317235,16.913033,5.128269,-0.124161,0.070934,0.000000,-0.074049,-0.146284,0.000000
5.020000,2.912567,1.680868,-1.441118,0.161086,1.069630,0.208699,-0.722207,-1.305399,-0.570274,1.492539,-0.633673,-0.545968,0.490332,13.454252,4.865950,-0.124802,0.069463,0.000000,-0.054720,-0.145594,0.000000
5.030000,2.914142,1.691499,-1.439060,0.153938,1.056548,0.202969,-0.707292,-1.310707,-0.575452,1.504146,-0.574811,-0.504781,1.495889,1.585667,3.620644,-0.125255,0.067999,0.000000,-0.049578,-0.146303,0.000000
5.040000,2.915646,1.701999,-1.437059,0.146940,1.043416,0.197190,-0.692124,-1.316895,-0.580369,1.522456,-0.601960,-0.473555,1.108900,3.589993,3.746963,-0.125794,0.066514,0.000000,-0.052458,-0.147724,0.000000
5.050000,2.917080,1.712367,-1.435116,0.140096,1.030210,0.191362,-0.676843,-1.322746,-0.584923,1.526324,-0.503011,-0.429842,2.081069,-7.434947,3.027598,-0.126304,0.065021,0.000000,-0.043566,-0.147709,0.000000
5.060000,2.918448,1.722603,-1.433231,0.133403,1.016961,0.185491,-0.661597,-1.326956,-0.588966,1.564078,-0.750659,-0.413003,5.661547,-44.049495,0.084061,-0.126665,0.063536,0.000000,-0.067128,-0.151097,0.000000
5.070000,2.919748,1.732706,-1.431406,0.126864,1.003671,0.179583,-0.645562,-1.337759,-0.593183,1.639554,-1.384001,-0.428161,3.413145,-23.610601,1.867054,-0.127647,0.061975,0.000000,-0.126683,-0.158243,-0.000000
5.080000,2.920985,1.742676,-1.429640,0.120492,0.990206,0.173628,-0.628806,-1.354636,-0.597529,1.632341,-1.222871,-0.375662,-4.665349,54.089869,8.622840,-0.129199,0.060345,0.000000,-0.111949,-0.157124,-0.000000
5.090000,2.922158,1.752510,-1.427933,0.114288,0.976579,0.167632,-0.612915,-1.362217,-0.600697,1.546248,-0.302204,-0.255704,-6.972819,75.382569,10.740657,-0.129886,0.058806,0.000000,-0.026467,-0.148194,0.000000
5.100000,2.923271,1.762208,-1.426287,0.108234,0.962962,0.161614,-0.597881,-1.360680,-0.602643,1.492884,0.284781,-0.160849,-7.642089,80.187150,10.744844,-0.129728,0.057356,0.000000,0.027770,-0.142577,0.000000
5.110000,2.924323,1.771769,-1.424701,0.102330,0.949365,0.155579,-0.583057,-1.356521,-0.603914,1.393406,1.301539,-0.040807,-14.030919,140.653674,14.810723,-0.129331,0.055930,0.000000,0.122254,-0.132487,-0.000000
5.120000,2.925317,1.781195,-1.423176,0.096573,0.935831,0.149536,-0.570013,-1.334649,-0.603460,1.212266,3.097854,0.135365,-11.233199,112.356096,13.133756,-0.127282,0.054684,0.000000,0.289823,-0.114423,-0.000000
5.130000,2.926254,1.790486,-1.421710,0.090930,0.922672,0.143510,-0.558812,-1.294564,-0.601206,1.168742,3.548661,0.221868,3.516594,-31.866140,3.236600,-0.123532,0.053623,0.000000,0.331860,-0.109951,-0.000000
5.140000,2.927136,1.799648,-1.420305,0.085396,0.909940,0.137511,-0.546638,-1.263676,-0.599022,1.282598,2.460531,0.200097,9.144031,-87.737786,-0.878410,-0.120646,0.052468,0.000000,0.229578,-0.120988,0.000000
5.150000,2.927962,1.808685,-1.418960,0.079997,0.897399,0.131530,-0.533160,-1.245353,-0.597204,1.351622,1.793906,0.204300,6.208033,-60.205866,1.762527,-0.118942,0.051185,0.000000,0.166633,-0.127623,-0.000000
5.160000,2.928736,1.817596,-1.417675,0.074733,0.885033,0.125567,-0.519606,-1.227798,-0.594936,1.406758,1.256414,0.235348,8.762347,-85.546748,1.683278,-0.117313,0.049897,0.000000,0.115544,-0.132819,-0.000000
5.170000,2.929457,1.826386,-1.416449,0.069605,0.872843,0.119631,-0.505025,-1.220225,-0.592497,1.526869,0.082971,0.237965,9.183014,-91.115657,0.219272,-0.116631,0.048510,0.000000,0.004399,-0.144339,0.000000
5.180000,2.930128,1.835053,-1.415282,0.064633,0.860629,0.113717,-0.489068,-1.226138,-0.590177,1.590419,-0.565899,0.239733,1.744864,-21.382554,1.294193,-0.117226,0.046990,0.000000,-0.057114,-0.150463,0.000000
5.190000,2.930750,1.843598,-1.414175,0.059823,0.848320,0.107827,-0.473216,-1.231543,-0.587703,1.561767,-0.344681,0.263849,-1.815998,11.604796,2.199878,-0.117774,0.045480,0.000000,-0.036409,-0.147710,-0.000000
5.200000,2.931324,1.852020,-1.413126,0.055168,0.835998,0.101963,-0.457833,-1.233032,-0.584900,1.554099,-0.333803,0.283731,3.228322,-38.273170,-1.196650,-0.117954,0.044016,0.000000,-0.035588,-0.146988,-0.000000
5.210000,2.931853,1.860318,-1.412135,0.050667,0.823659,0.096129,-0.442134,-1.238219,-0.582028,1.626333,-1.110144,0.239916,8.440302,-90.341224,-6.577404,-0.118486,0.042520,0.000000,-0.108724,-0.154147,0.000000
5.220000,2.932338,1.868493,-1.411203,0.046326,0.811233,0.090323,-0.425306,-1.255235,-0.580102,1.722905,-2.140628,0.152183,4.702812,-54.977778,-3.803465,-0.120128,0.040911,0.000000,-0.205443,-0.163757,0.000000
5.230000,2.932780,1.876543,-1.410329,0.042161,0.798554,0.084527,-0.407676,-1.281032,-0.578984,1.720389,-2.209699,0.163847,-4.583969,35.300402,6.201598,-0.122594,0.039221,0.000000,-0.212053,-0.163489,0.000000
5.240000,2.933181,1.884464,-1.409512,0.038172,0.785613,0.078743,-0.390899,-1.299429,-0.576825,1.631225,-1.434620,0.276215,-7.743441,65.503736,9.796049,-0.124370,0.037616,0.000000,-0.139893,-0.154622,0.000000
5.250000,2.933543,1.892255,-1.408754,0.034343,0.772566,0.072991,-0.375052,-1.309724,-0.573460,1.565520,-0.899625,0.359768,-9.351765,79.789556,9.281866,-0.125392,0.036104,0.000000,-0.090198,-0.148152,0.000000
5.260000,2.933868,1.899915,-1.408053,0.030671,0.759418,0.067274,-0.359588,-1.317421,-0.569629,1.444190,0.161171,0.461852,-16.649212,149.576338,13.500746,-0.126174,0.034630,0.000000,0.009123,-0.136338,-0.000000
5.270000,2.934156,1.907443,-1.407408,0.027151,0.746217,0.061598,-0.346168,-1.306501,-0.564223,1.232536,2.091902,0.629783,-14.697920,130.082511,12.857123,-0.125209,0.033356,0.000000,0.190385,-0.115739,0.000000
5.280000,2.934411,1.914840,-1.406821,0.023748,0.733288,0.055989,-0.334937,-1.275583,-0.557034,1.150232,2.762822,0.718995,-0.744664,-5.848183,3.941919,-0.122364,0.032297,0.000000,0.253566,-0.107785,0.000000
5.290000,2.934631,1.922109,-1.406289,0.020452,0.720706,0.050457,-0.323163,-1.251244,-0.549843,1.217643,1.974938,0.708621,4.172789,-54.201007,0.648524,-0.120138,0.031184,0.000000,0.179238,-0.114458,-0.000000
5.300000,2.934820,1.929254,-1.405812,0.017284,0.708263,0.044993,-0.310585,-1.236084,-0.542861,1.233688,1.678801,0.731965,0.657933,-20.551732,3.861977,-0.118780,0.029991,0.000000,0.151077,-0.116114,0.000000
5.310000,2.934977,1.936274,-1.405389,0.014240,0.695984,0.039600,-0.298489,-1.217668,-0.535204,1.230802,1.563904,0.785861,2.786325,-41.441101,4.110625,-0.117116,0.028845,0.000000,0.139840,-0.115885,0.000000
5.320000,2.935104,1.943173,-1.405020,0.011315,0.683910,0.034289,-0.285969,-1.204806,-0.527144,1.289414,0.849979,0.814178,2.964088,-43.874775,3.203799,-0.115984,0.027657,0.000000,0.071651,-0.121641,0.000000
5.330000,2.935203,1.949953,-1.404703,0.008521,0.671888,0.029057,-0.272701,-1.200669,-0.518920,1.290083,0.686408,0.849937,-4.018479,22.676644,4.620497,-0.115684,0.026396,0.000000,0.055741,-0.121822,0.000000
5.340000,2.935275,1.956611,-1.404438,0.005861,0.659897,0.023910,-0.260167,-1.191078,-0.510145,1.209044,1.303512,0.906587,-6.527218,46.267365,5.035701,-0.114868,0.025204,0.000000,0.114277,-0.114109,-0.000000
5.350000,2.935321,1.963151,-1.404225,0.003318,0.648066,0.018854,-0.248520,-1.174598,-0.500789,1.159539,1.611756,0.950651,-3.376921,15.338684,3.320016,-0.113398,0.024098,0.000000,0.143607,-0.109465,0.000000
5.360000,2.935341,1.969573,-1.404061,0.000890,0.636405,0.013894,-0.236976,-1.158843,-0.491132,1.141506,1.610286,0.972988,-2.617075,7.369875,1.914243,-0.111996,0.023001,0.000000,0.143560,-0.107903,-0.000000
5.370000,2.935338,1.975879,-1.403947,-0.001422,0.624890,0.009032,-0.225690,-1.142393,-0.481329,1.107197,1.759153,0.988935,-3.128171,11.886545,2.073197,-0.110526,0.021927,0.000000,0.158027,-0.104784,0.000000
5.380000,2.935313,1.982070,-1.403881,-0.003624,0.613557,0.004268,-0.214832,-1.123660,-0.471354,1.078943,1.848017,1.014452,-2.022965,1.105268,2.968030,-0.108835,0.020892,0.000000,0.166699,-0.102227,0.000000
5.390000,2.935266,1.988150,-1.403862,-0.005718,0.602416,-0.000395,-0.204111,-1.105432,-0.461040,1.066738,1.781258,1.048296,-1.572067,-3.530337,3.120517,-0.107192,0.019870,0.000000,0.160334,-0.101206,0.000000
5.400000,2.935198,1.994119,-1.403889,-0.007706,0.591448,-0.004953,-0.193497,-1.088035,-0.450388,1.047501,1.777410,1.076862,-2.382033,3.811668,2.674857,-0.105629,0.018856,0.000000,0.160073,-0.099519,0.000000
5.410000,2.935112,1.999979,-1.403961,-0.009588,0.580656,-0.009403,-0.183161,-1.069884,-0.439503,1.019098,1.857492,1.101793,-2.797063,7.469382,2.587436,-0.103991,0.017868,0.000000,0.167968,-0.096950,0.000000
5.420000,2.935007,2.005732,-1.404077,-0.011369,0.570050,-0.013743,-0.173115,-1.050885,-0.428352,0.991560,1.926798,1.128611,-2.682961,6.073013,2.449460,-0.102269,0.016907,0.000000,0.174848,-0.094460,-0.000000
5.430000,2.934884,2.011380,-1.404235,-0.013051,0.559638,-0.017970,-0.163330,-1.031348,-0.416930,0.965438,1.978952,1.150782,-2.619468,5.100512,1.907613,-0.100494,0.015969,0.000000,0.180152,-0.092114,0.000000
5.440000,2.934746,2.016925,-1.404436,-0.014636,0.549423,-0.022082,-0.153807,-1.011306,-0.405336,0.939171,2.028808,1.166763,-2.631216,4.918983,1.604300,-0.098666,0.015055,0.000000,0.185325,-0.089758,0.000000
5.450000,2.934592,2.022368,-1.404677,-0.016127,0.539412,-0.026077,-0.144547,-0.990772,-0.393595,0.912814,2.077332,1.182868,-2.637878,4.782168,1.646123,-0.096787,0.014165,0.000000,0.190397,-0.087389,-0.000000
5.460000,2.934423,2.027713,-1.404958,-0.017527,0.529608,-0.029954,-0.135550,-0.969759,-0.381679,0.886413,2.124451,1.199686,-2.643444,4.634313,1.581676,-0.094858,0.013299,0.000000,0.195355,-0.085010,0.000000
5.470000,2.934241,2.032960,-1.405276,-0.018838,0.520017,-0.033710,-0.126818,-0.948283,-0.369601,0.859945,2.170018,1.214502,-2.649396,4.475880,1.373606,-0.092880,0.012457,0.000000,0.200210,-0.082620,-0.000000
5.480000,2.934046,2.038113,-1.405632,-0.020063,0.510642,-0.037346,-0.118351,-0.926359,-0.357389,0.833425,2.213969,1.227158,-2.652972,4.310853,1.179345,-0.090854,0.011640,0.000000,0.204955,-0.080222,0.000000
5.490000,2.933840,2.043173,-1.406023,-0.021205,0.501490,-0.040858,-0.110150,-0.904003,-0.345058,0.806886,2.256235,1.238089,-2.653069,4.136934,1.007695,-0.088781,0.010846,0.000000,0.209577,-0.077817,0.000000
5.500000,2.933622,2.048143,-1.406449,-0.022266,0.492562,-0.044247,-0.102214,-0.881234,-0.332627,0.780364,2.296708,1.247312,-2.649212,3.952648,0.835859,-0.086662,0.010077,0.000000,0.214063,-0.075408,0.000000
5.510000,2.933395,2.053024,-1.406908,-0.023249,0.483865,-0.047511,-0.094543,-0.858069,-0.320112,0.753901,2.335288,1.254806,-2.642203,3.759356,0.664139,-0.084499,0.009333,0.000000,0.218403,-0.072998,0.000000
5.520000,2.933157,2.057820,-1.407399,-0.024157,0.475401,-0.050649,-0.087136,-0.834528,-0.307531,0.727520,2.371895,1.260594,-2.634560,3.558298,0.497676,-0.082294,0.008612,0.000000,0.222584,-0.070589,-0.000000
5.530000,2.932911,2.062532,-1.407921,-0.024992,0.467174,-0.053661,-0.079992,-0.810631,-0.294900,0.701210,2.406454,1.264760,-2.626247,3.348577,0.336750,-0.080048,0.007916,0.000000,0.226598,-0.068179,-0.000000
5.540000,2.932657,2.067164,-1.408472,-0.025757,0.459188,-0.056547,-0.073112,-0.786399,-0.282236,0.674995,2.438866,1.267329,-2.613995,3.128108,0.175102,-0.077762,0.007244,0.000000,0.230430,-0.065770,-0.000000
5.550000,2.932396,2.071716,-1.409052,-0.026454,0.451446,-0.059306,-0.066492,-0.761854,-0.269554,0.648930,2.469016,1.268262,-2.596863,2.897600,0.011014,-0.075439,0.006597,0.000000,0.234069,-0.063367,-0.000000
5.560000,2.932128,2.076193,-1.409659,-0.027087,0.443951,-0.061938,-0.060133,-0.737019,-0.256870,0.623057,2.496818,1.267550,-2.577084,2.657935,-0.150643,-0.073081,0.005973,0.000000,0.237501,-0.060974,0.000000
5.570000,2.931855,2.080595,-1.410291,-0.027657,0.436706,-0.064443,-0.054031,-0.711918,-0.244203,0.597389,2.522175,1.265249,-2.556700,2.405900,-0.305018,-0.070689,0.005374,0.000000,0.240714,-0.058592,0.000000
5.580000,2.931575,2.084927,-1.410947,-0.028167,0.429713,-0.066822,-0.048185,-0.686576,-0.231565,0.571923,2.544936,1.261449,-2.535079,2.140456,-0.453066,-0.068266,0.004799,0.000000,0.243690,-0.056220,0.000000
5.590000,2.931291,2.089190,-1.411627,-0.028620,0.422974,-0.069075,-0.042593,-0.661019,-0.218974,0.546687,2.564984,1.256187,-2.509718,1.865660,-0.600526,-0.065815,0.004247,0.000000,0.246414,-0.053861,0.000000
5.600000,2.931003,2.093386,-1.412329,-0.029019,0.416492,-0.071202,-0.037251,-0.635276,-0.206442,0.521729,2.582249,1.249439,-2.479991,1.583957,-0.749346,-0.063338,0.003719,0.000000,0.248875,-0.051519,0.000000
5.610000,2.930711,2.097519,-1.413051,-0.029365,0.410269,-0.073204,-0.032158,-0.609374,-0.193985,0.497087,2.596663,1.241201,-2.447532,1.292050,-0.895186,-0.060838,0.003215,0.000000,0.251063,-0.049198,0.000000
5.620000,2.930416,2.101592,-1.413793,-0.029662,0.404305,-0.075081,-0.027310,-0.583343,-0.181618,0.472778,2.608090,1.231535,-2.413947,0.983119,-1.032187,-0.058317,0.002733,0.000000,0.252961,-0.046900,0.000000
5.630000,2.930118,2.105605,-1.414553,-0.029912,0.398602,-0.076836,-0.022703,-0.557212,-0.169354,0.448808,2.616325,1.220557,-2.378808,0.657368,-1.161091,-0.055778,0.002275,0.000000,0.254545,-0.044626,-0.000000
5.640000,2.929817,2.109564,-1.415330,-0.030116,0.393161,-0.078468,-0.018334,-0.531016,-0.157207,0.425202,2.621238,1.208313,-2.339940,0.323639,-1.289265,-0.053226,0.001839,0.000000,0.255797,-0.042377,0.000000
5.650000,2.929515,2.113469,-1.416122,-0.030278,0.387982,-0.079980,-0.014199,-0.504787,-0.145188,0.402010,2.622798,1.194771,-2.296473,-0.014217,-1.419393,-0.050663,0.001426,0.000000,0.256712,-0.040159,0.000000
5.660000,2.929212,2.117323,-1.416929,-0.030400,0.383065,-0.081372,-0.010293,-0.478560,-0.133311,0.379273,2.620953,1.179925,-2.249864,-0.362643,-1.546126,-0.048092,0.001035,0.000000,0.257280,-0.037977,0.000000
5.670000,2.928907,2.121130,-1.417750,-0.030484,0.378411,-0.082646,-0.006613,-0.452368,-0.121589,0.357012,2.615545,1.163849,-2.202178,-0.731640,-1.662308,-0.045517,0.000666,0.000000,0.257483,-0.035832,-0.000000
5.680000,2.928602,2.124891,-1.418582,-0.030532,0.374018,-0.083804,-0.003153,-0.426249,-0.110034,0.335229,2.606321,1.146679,-2.152943,-1.120235,-1.769226,-0.042942,0.000318,0.000000,0.257291,-0.033725,0.000000
5.690000,2.928297,2.128610,-1.419426,-0.030547,0.369886,-0.084847,0.000091,-0.400242,-0.098656,0.313953,2.593141,1.128464,-2.099316,-1.515139,-1.876137,-0.040371,-0.000009,0.000000,0.256686,-0.031660,0.000000
5.700000,2.927991,2.132289,-1.420279,-0.030531,0.366013,-0.085777,0.003126,-0.374386,-0.087465,0.293243,2.576018,1.109156,-2.040772,-1.909084,-1.985149,-0.037808,-0.000316,0.000000,0.255666,-0.029642,0.000000
