time,x,y,z,vx,vy,vz,ax,ay,az,jx,jy,jz,sx,sy,sz,qw,qx,qy,qz,wx,wy,wz
0.000000,-2.474971,-2.488758,0.492842,-0.005739,0.019546,0.011205,0.275660,-0.191952,-0.013414,-3.967020,1.149180,-0.005617,67.923364,-9.545193,1.948081,0.999997,0.001521,0.001126,-0.001344,-0.000946,-0.002399,0.000748
0.010000,-2.475015,-2.488571,0.492953,-0.003169,0.017683,0.011071,0.239304,-0.180928,-0.013374,-3.312186,1.056333,0.013583,63.090555,-9.027181,1.891929,0.999997,0.001515,0.001116,-0.001340,-0.001281,-0.002038,0.000881
0.020000,-2.475035,-2.488404,0.493063,-0.000932,0.015925,0.010938,0.209260,-0.170808,-0.013144,-2.704283,0.968578,0.032225,58.535558,-8.526547,1.836653,0.999997,0.001508,0.001105,-0.001335,-0.001493,-0.001804,0.000964
0.030000,-2.475035,-2.488253,0.493172,0.001035,0.014264,0.010808,0.185071,-0.161540,-0.012731,-2.140582,0.885745,0.050319,54.248300,-8.042942,1.782231,0.999997,0.001502,0.001095,-0.001331,-0.001619,-0.001660,0.001013
0.040000,-2.475015,-2.488118,0.493279,0.002788,0.012691,0.010684,0.166309,-0.153077,-0.012140,-1.618458,0.807664,0.067872,50.218691,-7.576087,1.728632,0.999997,0.001495,0.001086,-0.001327,-0.001686,-0.001578,0.001037
0.050000,-2.474979,-2.487999,0.493386,0.004378,0.011199,0.010566,0.152572,-0.145372,-0.011376,-1.135381,0.734177,0.084895,46.436848,-7.124755,1.675901,0.999997,0.001488,0.001076,-0.001322,-0.001715,-0.001534,0.001046
0.060000,-2.474928,-2.487894,0.493491,0.005855,0.009781,0.010457,0.143480,-0.138379,-0.010444,-0.688928,0.665119,0.101393,42.892486,-6.689561,1.623950,0.999997,0.001480,0.001068,-0.001317,-0.001721,-0.001515,0.001046
0.070000,-2.474862,-2.487803,0.493595,0.007262,0.008430,0.010358,0.138679,-0.132055,-0.009349,-0.276773,0.600335,0.117376,39.575621,-6.269730,1.572783,0.999997,0.001471,0.001060,-0.001312,-0.001715,-0.001508,0.001040
0.080000,-2.474783,-2.487725,0.493698,0.008642,0.007138,0.010270,0.137837,-0.126358,-0.008098,0.103309,0.539674,0.132851,36.476190,-5.864845,1.522374,0.999998,0.001463,0.001053,-0.001307,-0.001703,-0.001508,0.001033
0.090000,-2.474690,-2.487660,0.493800,0.010031,0.005901,0.010196,0.140645,-0.121248,-0.006694,0.453442,0.482990,0.147826,33.584134,-5.474466,1.472681,0.999998,0.001454,0.001046,-0.001301,-0.001690,-0.001509,0.001025
0.100000,-2.474582,-2.487607,0.493902,0.011466,0.004711,0.010137,0.146813,-0.116686,-0.005143,0.775650,0.430135,0.162309,30.889407,-5.098468,1.423827,0.999998,0.001445,0.001038,-0.001296,-0.001678,-0.001509,0.001017
0.110000,-2.474460,-2.487565,0.494003,0.012978,0.003565,0.010094,0.156072,-0.112633,-0.003449,1.071854,0.380973,0.176305,28.381913,-4.736120,1.375628,0.999998,0.001437,0.001031,-0.001291,-0.001667,-0.001507,0.001010
0.120000,-2.474322,-2.487535,0.494104,0.014597,0.002457,0.010069,0.168170,-0.109055,-0.001618,1.343879,0.335368,0.189824,26.051596,-4.387137,1.328127,0.999998,0.001429,0.001023,-0.001286,-0.001659,-0.001503,0.001003
0.130000,-2.474168,-2.487516,0.494204,0.016350,0.001383,0.010062,0.182874,-0.105915,0.000345,1.593443,0.293188,0.202870,23.888363,-4.051087,1.281315,0.999998,0.001420,0.001016,-0.001281,-0.001652,-0.001498,0.000997
0.140000,-2.473995,-2.487508,0.494305,0.018262,0.000337,0.010076,0.199969,-0.103180,0.002437,1.822169,0.254305,0.215452,21.882093,-3.727490,1.235200,0.999998,0.001412,0.001008,-0.001276,-0.001646,-0.001491,0.000992
0.150000,-2.473802,-2.487509,0.494406,0.020356,-0.000682,0.010111,0.219253,-0.100818,0.004653,2.031575,0.218598,0.227577,20.022609,-3.415798,1.189820,0.999998,0.001404,0.001001,-0.001271,-0.001641,-0.001485,0.000987
0.160000,-2.473587,-2.487521,0.494507,0.022654,-0.001680,0.010169,0.240541,-0.098798,0.006987,2.223090,0.185935,0.239246,18.300933,-3.116988,1.144721,0.999998,0.001396,0.000994,-0.001266,-0.001635,-0.001479,0.000981
0.170000,-2.473348,-2.487543,0.494610,0.025173,-0.002659,0.010251,0.263660,-0.097089,0.009436,2.398021,0.156215,0.250471,16.705602,-2.828899,1.100433,0.999998,0.001388,0.000986,-0.001261,-0.001628,-0.001473,0.000976
0.180000,-2.473083,-2.487574,0.494713,0.027933,-0.003623,0.010358,0.288450,-0.095664,0.011995,2.557591,0.129320,0.261257,15.227112,-2.551848,1.056729,0.999998,0.001379,0.000979,-0.001256,-0.001621,-0.001469,0.000970
0.190000,-2.472788,-2.487615,0.494817,0.030947,-0.004573,0.010492,0.314764,-0.094494,0.014660,2.702919,0.105142,0.271608,13.855459,-2.285579,1.013571,0.999998,0.001371,0.000971,-0.001252,-0.001613,-0.001465,0.000964
0.200000,-2.472463,-2.487666,0.494922,0.034232,-0.005513,0.010652,0.342464,-0.093552,0.017426,2.835018,0.083582,0.281531,12.580143,-2.028875,0.971029,0.999998,0.001363,0.000964,-0.001247,-0.001605,-0.001461,0.000957
0.210000,-2.472103,-2.487725,0.495030,0.037801,-0.006445,0.010840,0.371405,-0.092814,0.020289,2.950684,0.064624,0.291015,11.310087,-1.780524,0.928692,0.999998,0.001355,0.000957,-0.001242,-0.001598,-0.001457,0.000952
0.220000,-2.471706,-2.487795,0.495139,0.041664,-0.007370,0.011058,0.401498,-0.092253,0.023245,3.068324,0.047791,0.300131,11.509682,-1.571854,0.891961,0.999998,0.001347,0.000950,-0.001237,-0.001590,-0.001452,0.000946
0.230000,-2.471269,-2.487873,0.495251,0.045835,-0.008291,0.011306,0.432700,-0.091849,0.026290,3.165980,0.033486,0.308801,8.010544,-1.290225,0.841998,0.999998,0.001339,0.000942,-0.001233,-0.001583,-0.001448,0.000940
0.240000,-2.470788,-2.487960,0.495366,0.050321,-0.009208,0.011584,0.464744,-0.091575,0.029420,3.243348,0.021640,0.317026,8.201917,-1.096159,0.805831,0.999998,0.001331,0.000935,-0.001228,-0.001577,-0.001443,0.000934
0.250000,-2.470261,-2.488057,0.495483,0.055132,-0.010123,0.011894,0.497591,-0.091410,0.032630,3.324043,0.011665,0.324895,7.220511,-0.884053,0.765524,0.999998,0.001324,0.000928,-0.001223,-0.001570,-0.001439,0.000929
0.260000,-2.469684,-2.488163,0.495604,0.060275,-0.011036,0.012237,0.531166,-0.091334,0.035916,3.389285,0.003916,0.332349,6.291187,-0.679601,0.725925,0.999998,0.001316,0.000921,-0.001219,-0.001563,-0.001434,0.000923
0.270000,-2.469054,-2.488278,0.495728,0.065758,-0.011949,0.012613,0.565383,-0.091326,0.039275,3.454219,-0.002070,0.339421,6.263174,-0.506762,0.687940,0.999998,0.001308,0.000914,-0.001214,-0.001556,-0.001430,0.000917
0.280000,-2.468368,-2.488402,0.495856,0.071585,-0.012863,0.013023,0.600202,-0.091369,0.042703,3.505454,-0.005987,0.346097,3.977709,-0.277514,0.647490,0.999998,0.001300,0.000906,-0.001209,-0.001549,-0.001425,0.000911
0.290000,-2.467622,-2.488535,0.495988,0.077763,-0.013777,0.013467,0.635443,-0.091439,0.046196,3.542837,-0.007894,0.352384,3.951061,-0.117491,0.610418,0.999998,0.001292,0.000899,-0.001205,-0.001542,-0.001421,0.000906
0.300000,-2.466812,-2.488677,0.496125,0.084295,-0.014692,0.013947,0.671068,-0.091522,0.049750,3.580832,-0.008257,0.358303,3.210852,0.056062,0.572901,0.999998,0.001285,0.000892,-0.001200,-0.001536,-0.001417,0.000900
0.310000,-2.465934,-2.488829,0.496267,0.091185,-0.015607,0.014462,0.707019,-0.091598,0.053361,3.607988,-0.006794,0.363848,2.504816,0.224018,0.535953,0.999998,0.001277,0.000885,-0.001196,-0.001529,-0.001412,0.000895
0.320000,-2.464987,-2.488990,0.496415,0.098436,-0.016524,0.015014,0.743228,-0.091653,0.057026,3.633585,-0.003876,0.369020,2.351667,0.367348,0.498841,0.999998,0.001269,0.000878,-0.001191,-0.001522,-0.001408,0.000889
0.330000,-2.463965,-2.489159,0.496568,0.106051,-0.017440,0.015603,0.779656,-0.091670,0.060740,3.649493,0.000718,0.373834,0.826744,0.550691,0.464121,0.999998,0.001262,0.000871,-0.001187,-0.001516,-0.001404,0.000883
0.340000,-2.462864,-2.489338,0.496727,0.114030,-0.018357,0.016229,0.816183,-0.091633,0.064501,3.655651,0.006936,0.378297,0.680871,0.682999,0.428137,0.999998,0.001254,0.000864,-0.001183,-0.001509,-0.001399,0.000878
0.350000,-2.461683,-2.489526,0.496893,0.122375,-0.019273,0.016893,0.852771,-0.091527,0.068305,3.660904,0.014429,0.382401,0.103707,0.824030,0.393179,0.999998,0.001247,0.000857,-0.001178,-0.001503,-0.001395,0.000872
0.360000,-2.460416,-2.489724,0.497065,0.131085,-0.020187,0.017595,0.889372,-0.091339,0.072148,3.658323,0.023387,0.386160,-0.448632,0.959499,0.358748,0.999998,0.001239,0.000850,-0.001174,-0.001496,-0.001391,0.000867
0.370000,-2.459060,-2.489930,0.497245,0.140162,-0.021099,0.018336,0.925933,-0.091056,0.076027,3.653550,0.033533,0.389578,-0.664063,1.075621,0.324951,0.999998,0.001232,0.000843,-0.001170,-0.001490,-0.001387,0.000861
0.380000,-2.457611,-2.490146,0.497432,0.149604,-0.022008,0.019116,0.962419,-0.090664,0.079938,3.641715,0.045028,0.392659,-1.704203,1.222828,0.291296,0.999998,0.001224,0.000836,-0.001165,-0.001483,-0.001383,0.000856
0.390000,-2.456066,-2.490370,0.497627,0.159410,-0.022912,0.019935,0.998743,-0.090151,0.083879,3.622817,0.057829,0.395407,-1.908414,1.329330,0.258496,0.999998,0.001217,0.000829,-0.001161,-0.001477,-0.001379,0.000850
0.400000,-2.454422,-2.490604,0.497831,0.169578,-0.023810,0.020794,1.034872,-0.089504,0.087845,3.602234,0.071654,0.397829,-2.368990,1.442210,0.226040,0.999998,0.001210,0.000823,-0.001157,-0.001471,-0.001374,0.000845
0.410000,-2.452674,-2.490847,0.498043,0.180106,-0.024702,0.021692,1.070766,-0.088714,0.091834,3.575815,0.086648,0.399930,-2.811358,1.550226,0.194100,0.999998,0.001202,0.000816,-0.001153,-0.001464,-0.001370,0.000840
0.420000,-2.450819,-2.491098,0.498265,0.190992,-0.025584,0.022631,1.106382,-0.087768,0.095843,3.546991,0.102590,0.401713,-3.047771,1.642770,0.162647,0.999998,0.001195,0.000809,-0.001148,-0.001458,-0.001366,0.000834
0.430000,-2.448853,-2.491358,0.498496,0.202233,-0.026457,0.023609,1.141688,-0.086658,0.099868,3.512873,0.119600,0.403184,-3.776065,1.758663,0.131682,0.999998,0.001188,0.000802,-0.001144,-0.001452,-0.001362,0.000829
0.440000,-2.446773,-2.491627,0.498737,0.213825,-0.027317,0.024628,1.176621,-0.085373,0.103906,3.473495,0.137638,0.404348,-3.998545,1.842773,0.101180,0.999998,0.001180,0.000795,-0.001140,-0.001446,-0.001358,0.000823
0.450000,-2.444575,-2.491904,0.498988,0.225764,-0.028163,0.025687,1.211153,-0.083903,0.107954,3.432119,0.156482,0.405210,-4.371954,1.931070,0.071228,0.999998,0.001173,0.000788,-0.001136,-0.001440,-0.001354,0.000818
0.460000,-2.442256,-2.492190,0.499251,0.238047,-0.028994,0.026787,1.245248,-0.082240,0.112009,3.386295,0.176239,0.405775,-4.730654,2.015150,0.041728,0.999998,0.001166,0.000782,-0.001132,-0.001434,-0.001351,0.000813
0.470000,-2.439813,-2.492484,0.499524,0.250668,-0.029807,0.027927,1.278872,-0.080376,0.116068,3.338105,0.196731,0.406046,-4.963037,2.086777,0.012610,0.999998,0.001159,0.000775,-0.001128,-0.001428,-0.001347,0.000807
0.480000,-2.437242,-2.492786,0.499810,0.263622,-0.030601,0.029108,1.311996,-0.078303,0.120129,3.285862,0.218047,0.406030,-5.485041,2.175809,-0.015763,0.999998,0.001152,0.000768,-0.001124,-0.001422,-0.001343,0.000802
0.490000,-2.434539,-2.493096,0.500107,0.276906,-0.031373,0.030330,1.344575,-0.076012,0.124188,3.229623,0.240149,0.405731,-5.701975,2.239650,-0.043924,0.999998,0.001145,0.000762,-0.001120,-0.001416,-0.001339,0.000797
0.500000,-2.431703,-2.493414,0.500416,0.290512,-0.032121,0.031592,1.376583,-0.073498,0.128242,3.171363,0.262865,0.405154,-6.005730,2.306719,-0.071505,0.999998,0.001138,0.000755,-0.001116,-0.001410,-0.001335,0.000792
0.510000,-2.428728,-2.493739,0.500739,0.304435,-0.032842,0.032895,1.407991,-0.070753,0.132290,3.109663,0.286267,0.404303,-6.297016,2.369749,-0.098625,0.999998,0.001130,0.000748,-0.001112,-0.001404,-0.001331,0.000786
0.520000,-2.425613,-2.494070,0.501074,0.318670,-0.033535,0.034238,1.438770,-0.067771,0.136328,3.045788,0.310216,0.403182,-6.510319,2.422685,-0.125324,0.999998,0.001123,0.000742,-0.001108,-0.001398,-0.001328,0.000781
0.530000,-2.422354,-2.494409,0.501424,0.333208,-0.034197,0.035621,1.468896,-0.064546,0.140353,2.978777,0.334775,0.401798,-6.890881,2.488567,-0.151436,0.999998,0.001116,0.000735,-0.001104,-0.001392,-0.001324,0.000776
0.540000,-2.418948,-2.494754,0.501787,0.348045,-0.034825,0.037045,1.498335,-0.061073,0.144363,2.908700,0.359910,0.400155,-7.088220,2.534638,-0.177228,0.999999,0.001110,0.000728,-0.001100,-0.001386,-0.001320,0.000771
0.550000,-2.415392,-2.495106,0.502165,0.363173,-0.035417,0.038508,1.527064,-0.057347,0.148355,2.836757,0.385482,0.398256,-7.333035,2.582460,-0.202450,0.999999,0.001103,0.000722,-0.001096,-0.001380,-0.001316,0.000766
0.560000,-2.411683,-2.495463,0.502557,0.378584,-0.035971,0.040012,1.555060,-0.053362,0.152327,2.762144,0.411544,0.396107,-7.567204,2.626841,-0.227252,0.999999,0.001096,0.000715,-0.001093,-0.001375,-0.001313,0.000760
0.570000,-2.407819,-2.495825,0.502965,0.394272,-0.036484,0.041555,1.582301,-0.049115,0.156276,2.685636,0.437984,0.393713,-7.752530,2.662973,-0.251604,0.999999,0.001089,0.000709,-0.001089,-0.001369,-0.001309,0.000755
0.580000,-2.403797,-2.496192,0.503388,0.410227,-0.036952,0.043137,1.608765,-0.044601,0.160200,2.606710,0.464844,0.391077,-8.031642,2.708585,-0.275471,0.999999,0.001082,0.000702,-0.001085,-0.001363,-0.001306,0.000750
0.590000,-2.399614,-2.496564,0.503828,0.426444,-0.037375,0.044759,1.634427,-0.039816,0.164097,2.525440,0.492094,0.388205,-8.200675,2.738466,-0.298905,0.999999,0.001075,0.000696,-0.001081,-0.001358,-0.001302,0.000745
0.600000,-2.395267,-2.496939,0.504284,0.442913,-0.037748,0.046419,1.659269,-0.034758,0.167964,2.442559,0.519624,0.385100,-8.393802,2.769403,-0.321886,0.999999,0.001068,0.000689,-0.001078,-0.001352,-0.001298,0.000740
0.610000,-2.390755,-2.497318,0.504756,0.459627,-0.038069,0.048118,1.683271,-0.029423,0.171798,2.357625,0.547471,0.381768,-8.578180,2.797201,-0.344459,0.999999,0.001062,0.000683,-0.001074,-0.001347,-0.001295,0.000735
0.620000,-2.386074,-2.497701,0.505246,0.476576,-0.038335,0.049855,1.706416,-0.023808,0.175598,2.271130,0.575541,0.378212,-8.730718,2.818191,-0.366569,0.999999,0.001055,0.000676,-0.001070,-0.001341,-0.001292,0.000730
0.630000,-2.381222,-2.498085,0.505754,0.493752,-0.038544,0.051630,1.728688,-0.017911,0.179362,2.182803,0.603865,0.374438,-8.933454,2.846110,-0.388196,0.999999,0.001048,0.000670,-0.001067,-0.001336,-0.001288,0.000725
0.640000,-2.376198,-2.498471,0.506279,0.511147,-0.038693,0.053442,1.750066,-0.011730,0.183086,2.092721,0.632415,0.370449,-9.070007,2.861583,-0.409404,0.999999,0.001042,0.000663,-0.001063,-0.001330,-0.001285,0.000720
0.650000,-2.370999,-2.498859,0.506823,0.528750,-0.038778,0.055291,1.770538,-0.005262,0.186770,2.001334,0.661100,0.366251,-9.217133,2.877127,-0.430213,0.999999,0.001035,0.000657,-0.001059,-0.001325,-0.001281,0.000715
0.660000,-2.365622,-2.499247,0.507385,0.546554,-0.038797,0.057177,1.790088,0.001493,0.190411,1.908432,0.689946,0.361846,-9.355463,2.890017,-0.450560,0.999999,0.001028,0.000650,-0.001056,-0.001319,-0.001278,0.000710
0.670000,-2.360067,-2.499634,0.507966,0.564549,-0.038747,0.059100,1.808703,0.008537,0.194006,1.814314,0.718877,0.357241,-9.472973,2.897297,-0.470475,0.999999,0.001022,0.000644,-0.001052,-0.001314,-0.001275,0.000705
0.680000,-2.354331,-2.500021,0.508567,0.582725,-0.038625,0.061057,1.826370,0.015871,0.197555,1.718868,0.747913,0.352438,-9.615046,2.909519,-0.489975,0.999999,0.001015,0.000638,-0.001049,-0.001309,-0.001271,0.000700
0.690000,-2.348412,-2.500407,0.509187,0.601073,-0.038429,0.063050,1.843076,0.023495,0.201054,1.622169,0.777029,0.347443,-9.716880,2.911756,-0.509056,0.999999,0.001009,0.000631,-0.001045,-0.001303,-0.001268,0.000695
0.700000,-2.342309,-2.500790,0.509828,0.619583,-0.038154,0.065078,1.858810,0.031411,0.204503,1.524499,0.806150,0.342259,-9.821646,2.913728,-0.527654,0.999999,0.001002,0.000625,-0.001042,-0.001298,-0.001265,0.000690
0.710000,-2.336020,-2.501169,0.510489,0.638246,-0.037799,0.067140,1.873562,0.039618,0.207899,1.425776,0.835293,0.336891,-9.918097,2.913262,-0.545866,0.999999,0.000996,0.000619,-0.001038,-0.001293,-0.001261,0.000685
0.720000,-2.329543,-2.501545,0.511171,0.657051,-0.037361,0.069236,1.887323,0.048117,0.211240,1.326196,0.864396,0.331343,-10.000035,2.908107,-0.563664,0.999999,0.000989,0.000612,-0.001035,-0.001288,-0.001258,0.000680
0.730000,-2.322878,-2.501916,0.511874,0.675989,-0.036836,0.071365,1.900083,0.056906,0.214525,1.225731,0.893471,0.325620,-10.091813,2.906375,-0.581023,0.999999,0.000983,0.000606,-0.001032,-0.001283,-0.001255,0.000675
0.740000,-2.316023,-2.502282,0.512598,0.695050,-0.036222,0.073526,1.911835,0.065986,0.217752,1.124454,0.922493,0.319724,-10.158793,2.896514,-0.597971,0.999999,0.000976,0.000600,-0.001028,-0.001278,-0.001252,0.000670
0.750000,-2.308977,-2.502640,0.513345,0.714223,-0.035515,0.075720,1.922570,0.075356,0.220919,1.022551,0.951406,0.313661,-10.223969,2.886447,-0.614550,0.999999,0.000970,0.000594,-0.001025,-0.001273,-0.001249,0.000665
0.760000,-2.301739,-2.502992,0.514113,0.733498,-0.034714,0.077945,1.932283,0.085014,0.224025,0.920007,0.980206,0.307446,-10.281580,2.873819,-0.630469,0.999999,0.000964,0.000587,-0.001022,-0.001267,-0.001246,0.000660
0.770000,-2.294307,-2.503334,0.514904,0.752865,-0.033814,0.080200,1.940969,0.094959,0.227067,0.816962,1.008880,0.301034,-10.328175,2.859962,-0.649794,0.999999,0.000957,0.000581,-0.001018,-0.001262,-0.001243,0.000656
0.780000,-2.286681,-2.503668,0.515717,0.772314,-0.032814,0.082486,1.948621,0.105191,0.230045,0.713429,1.037387,0.294493,-10.377219,2.841116,-0.658395,0.999999,0.000951,0.000575,-0.001015,-0.001257,-0.001240,0.000651
0.790000,-2.278860,-2.503990,0.516553,0.791834,-0.031709,0.084801,1.955236,0.115707,0.232957,0.609479,1.065705,0.287828,-10.409751,2.822782,-0.676509,0.999999,0.000945,0.000569,-0.001012,-0.001253,-0.001237,0.000646
0.800000,-2.270844,-2.504301,0.517413,0.811415,-0.030499,0.087145,1.960810,0.126504,0.235801,0.505246,1.093833,0.280979,-10.438057,2.801571,-0.690995,0.999999,0.000938,0.000563,-0.001009,-0.001248,-0.001234,0.000641
0.810000,-2.262632,-2.504600,0.518296,0.831047,-0.029178,0.089517,1.965340,0.137583,0.238576,0.400750,1.121760,0.273968,-10.459446,2.778820,-0.705788,0.999999,0.000932,0.000556,-0.001005,-0.001243,-0.001231,0.000636
0.820000,-2.254223,-2.504885,0.519204,0.850718,-0.027746,0.091916,1.968824,0.148938,0.241280,0.296084,1.149359,0.266914,-10.473020,2.745156,-0.710241,0.999999,0.000926,0.000550,-0.001002,-0.001238,-0.001228,0.000631
0.830000,-2.245617,-2.505155,0.520135,0.870420,-0.026199,0.094342,1.971261,0.160569,0.243914,0.191302,1.176754,0.259656,-10.482214,2.733790,-0.741444,0.999999,0.000920,0.000544,-0.000999,-0.001233,-0.001225,0.000627
0.840000,-2.236815,-2.505408,0.521090,0.890140,-0.024534,0.096794,1.972650,0.172473,0.246473,0.086472,1.203934,0.252191,-10.482374,2.697195,-0.746242,0.999999,0.000914,0.000538,-0.000996,-0.001228,-0.001222,0.000622
0.850000,-2.227814,-2.505645,0.522071,0.909869,-0.022748,0.099271,1.972991,0.184646,0.248957,-0.018327,1.230731,0.244688,-10.476760,2.666462,-0.759547,0.999999,0.000908,0.000532,-0.000993,-0.001223,-0.001219,0.000617
0.860000,-2.218617,-2.505863,0.523076,0.929596,-0.020840,0.101773,1.972284,0.197086,0.251366,-0.123037,1.257225,0.237041,-10.464383,2.633603,-0.771768,0.999999,0.000901,0.000526,-0.000990,-0.001219,-0.001217,0.000612
0.870000,-2.209223,-2.506061,0.524106,0.949311,-0.018806,0.104298,1.970530,0.209790,0.253698,-0.227589,1.283408,0.229238,-10.445173,2.601483,-0.786975,0.999999,0.000895,0.000520,-0.000987,-0.001214,-0.001214,0.000608
0.880000,-2.199631,-2.506239,0.525162,0.969003,-0.016643,0.106847,1.967733,0.222753,0.255951,-0.331926,1.309219,0.221339,-10.421122,2.560359,-0.792737,0.999999,0.000889,0.000514,-0.000984,-0.001209,-0.001211,0.000603
0.890000,-2.189843,-2.506394,0.526243,0.988662,-0.014350,0.109417,1.963893,0.235973,0.258124,-0.435985,1.334637,0.213350,-10.389369,2.524278,-0.806745,0.999999,0.000883,0.000508,-0.000981,-0.001205,-0.001209,0.000598
0.900000,-2.179858,-2.506525,0.527350,1.008278,-0.011923,0.112009,1.959014,0.249445,0.260217,-0.539697,1.359689,0.205221,-10.352141,2.484308,-0.817295,0.999999,0.000877,0.000502,-0.000978,-0.001200,-0.001206,0.000593
0.910000,-2.169677,-2.506632,0.528484,1.027839,-0.009360,0.114621,1.953100,0.263165,0.262228,-0.643008,1.384305,0.197025,-10.308791,2.442217,-0.826994,0.999999,0.000871,0.000496,-0.000975,-0.001196,-0.001204,0.000589
0.920000,-2.159301,-2.506712,0.529643,1.047336,-0.006659,0.117253,1.946156,0.277130,0.264157,-0.745852,1.408563,0.188636,-10.259126,2.405505,-0.845699,0.999999,0.000865,0.000490,-0.000972,-0.001191,-0.001201,0.000584
0.930000,-2.148731,-2.506764,0.530829,1.066759,-0.003817,0.119904,1.938185,0.291335,0.266001,-0.848176,1.432333,0.180215,-10.204733,2.348191,-0.838386,0.999999,0.000859,0.000484,-0.000969,-0.001187,-0.001199,0.000579
0.940000,-2.137966,-2.506788,0.532041,1.086097,-0.000831,0.122573,1.929194,0.305775,0.267761,-0.949923,1.455595,0.171771,-10.143687,2.307687,-0.855272,0.999999,0.000853,0.000478,-0.000966,-0.001182,-0.001196,0.000575
0.950000,-2.127009,-2.506780,0.533280,1.105339,0.002300,0.125259,1.919189,0.320445,0.269436,-1.051028,1.478448,0.163152,-10.076991,2.259271,-0.863434,0.999999,0.000847,0.000472,-0.000963,-0.001178,-0.001194,0.000570
0.960000,-2.115860,-2.506741,0.534546,1.124477,0.005578,0.127961,1.908176,0.335342,0.271024,-1.151441,1.500822,0.154456,-10.004922,2.210337,-0.871966,0.999999,0.000842,0.000466,-0.000960,-0.001173,-0.001191,0.000565
0.970000,-2.104520,-2.506668,0.535839,1.143500,0.009007,0.130679,1.896162,0.350460,0.272525,-1.251111,1.522605,0.145748,-9.927899,2.150859,-0.873199,0.999999,0.000836,0.000460,-0.000958,-0.001169,-0.001189,0.000561
0.980000,-2.092990,-2.506561,0.537160,1.162397,0.012588,0.133411,1.883156,0.365793,0.273938,-1.349976,1.543934,0.136918,-9.844214,2.114846,-0.893005,0.999999,0.000830,0.000454,-0.000955,-0.001164,-0.001186,0.000556
0.990000,-2.081273,-2.506416,0.538508,1.181159,0.016324,0.136157,1.869166,0.381337,0.275263,-1.447983,1.564801,0.127962,-9.756579,2.053472,-0.894357,0.999999,0.000824,0.000448,-0.000952,-0.001160,-0.001184,0.000551
1.000000,-2.069368,-2.506234,0.539883,1.199777,0.020216,0.138916,1.854200,0.397087,0.276498,-1.545087,1.585046,0.119001,-9.663310,1.999468,-0.901490,0.999999,0.000818,0.000442,-0.000949,-0.001156,-0.001182,0.000547
1.010000,-2.057278,-2.506011,0.541286,1.218240,0.024266,0.141687,1.838267,0.413036,0.277642,-1.641232,1.604762,0.109953,-9.565029,1.943604,-0.908110,0.999999,0.000813,0.000436,-0.000947,-0.001152,-0.001180,0.000542
1.020000,-2.045003,-2.505748,0.542717,1.236539,0.028477,0.144469,1.821378,0.429180,0.278697,-1.736372,1.623914,0.100841,-9.462013,1.886583,-0.914190,0.999999,0.000807,0.000430,-0.000944,-0.001147,-0.001177,0.000538
1.030000,-2.032547,-2.505441,0.544176,1.254665,0.032850,0.147261,1.803543,0.445513,0.279659,-1.830454,1.642489,0.091668,-9.353518,1.828144,-0.920516,0.999999,0.000801,0.000424,-0.000941,-0.001143,-0.001175,0.000533
1.040000,-2.019911,-2.505090,0.545662,1.272607,0.037388,0.150062,1.784773,0.462028,0.280530,-1.923429,1.660475,0.082434,-9.240744,1.768815,-0.925999,0.999999,0.000795,0.000418,-0.000939,-0.001139,-0.001173,0.000529
1.050000,-2.007096,-2.504693,0.547177,1.290357,0.042092,0.152871,1.765078,0.478720,0.281308,-2.015257,1.677861,0.073149,-9.123490,1.708209,-0.931243,0.999999,0.000790,0.000413,-0.000936,-0.001135,-0.001171,0.000524
1.060000,-1.994104,-2.504248,0.548720,1.307905,0.046963,0.155688,1.744472,0.495583,0.281992,-2.105886,1.694633,0.063813,-9.001486,1.646479,-0.936165,0.999999,0.000784,0.000407,-0.000933,-0.001131,-0.001169,0.000519
1.070000,-1.980938,-2.503753,0.550291,1.325243,0.052004,0.158511,1.722965,0.512611,0.282584,-2.195272,1.710791,0.054423,-8.875043,1.584465,-0.941427,0.999999,0.000778,0.000401,-0.000931,-0.001126,-0.001167,0.000515
1.080000,-1.967600,-2.503207,0.551890,1.342362,0.057216,0.161339,1.700571,0.529797,0.283081,-2.283372,1.726311,0.044993,-8.744157,1.519325,-0.944561,0.999999,0.000773,0.000395,-0.000928,-0.001122,-0.001165,0.000510
1.090000,-1.954092,-2.502608,0.553517,1.359252,0.062600,0.164172,1.677302,0.547135,0.283483,-2.370141,1.741183,0.035526,-8.608915,1.455330,-0.949144,0.999999,0.000767,0.000389,-0.000926,-0.001118,-0.001163,0.000506
1.100000,-1.940416,-2.501955,0.555173,1.375905,0.068159,0.167008,1.653172,0.564618,0.283791,-2.455542,1.755407,0.026015,-8.469999,1.389335,-0.952743,0.999999,0.000762,0.000383,-0.000923,-0.001114,-0.001161,0.000501
1.110000,-1.926575,-2.501244,0.556858,1.392313,0.073893,0.169847,1.628196,0.582241,0.284004,-2.539526,1.768962,0.016466,-8.326699,1.322522,-0.956176,0.999999,0.000756,0.000378,-0.000921,-0.001110,-0.001159,0.000497
1.120000,-1.912571,-2.500476,0.558570,1.408466,0.079804,0.172688,1.602387,0.599995,0.284120,-2.622067,1.781862,0.006900,-8.180408,1.256455,-0.957784,0.999999,0.000750,0.000372,-0.000918,-0.001106,-0.001157,0.000493
1.130000,-1.898406,-2.499648,0.560311,1.424358,0.085893,0.175529,1.575759,0.617876,0.284141,-2.703111,1.794071,-0.002705,-8.027649,1.185089,-0.963174,0.999999,0.000745,0.000366,-0.000916,-0.001102,-0.001155,0.000488
1.140000,-1.884084,-2.498758,0.562081,1.439979,0.092162,0.178371,1.548329,0.635874,0.284066,-2.782618,1.805579,-0.012347,-7.873632,1.117269,-0.964303,0.999999,0.000739,0.000360,-0.000913,-0.001098,-0.001153,0.000484
1.150000,-1.869608,-2.497804,0.563879,1.455321,0.098611,0.181210,1.520112,0.653985,0.283895,-2.860569,1.816403,-0.021997,-7.715240,1.046956,-0.966459,0.999999,0.000734,0.000355,-0.000911,-0.001095,-0.001152,0.000479
1.160000,-1.854979,-2.496785,0.565705,1.470378,0.105242,0.184048,1.491123,0.672200,0.283626,-2.936914,1.826521,-0.031669,-7.553256,0.976134,-0.968203,0.999999,0.000728,0.000349,-0.000909,-0.001091,-0.001150,0.000475
1.170000,-1.840201,-2.495698,0.567560,1.485141,0.112056,0.186883,1.461379,0.690513,0.283261,-3.011624,1.835920,-0.041363,-7.388059,0.903807,-0.970252,0.999999,0.000723,0.000343,-0.000906,-0.001087,-0.001148,0.000471
1.180000,-1.825277,-2.494543,0.569443,1.499603,0.119053,0.189713,1.430896,0.708916,0.282799,-3.084661,1.844604,-0.051066,-7.218885,0.832929,-0.970277,0.999999,0.000718,0.000337,-0.000904,-0.001083,-0.001147,0.000466
1.190000,-1.810210,-2.493317,0.571354,1.513757,0.126234,0.192538,1.399692,0.727403,0.282240,-3.155993,1.852568,-0.060774,-7.046979,0.759345,-0.971596,0.999999,0.000712,0.000332,-0.000902,-0.001079,-0.001145,0.000462
1.200000,-1.795003,-2.492018,0.573293,1.527595,0.133601,0.195358,1.367782,0.745965,0.281583,-3.225589,1.859792,-0.070494,-6.871515,0.685871,-0.971977,0.999999,0.000707,0.000326,-0.000899,-0.001075,-0.001143,0.000458
1.210000,-1.779659,-2.490644,0.575261,1.541110,0.141154,0.198170,1.335186,0.764596,0.280830,-3.293428,1.866293,-0.080209,-6.694000,0.612089,-0.972096,0.999999,0.000701,0.000320,-0.000897,-0.001072,-0.001142,0.000453
1.220000,-1.764182,-2.489194,0.577257,1.554296,0.148893,0.200974,1.301920,0.783288,0.279979,-3.359459,1.872019,-0.089946,-6.512163,0.534587,-0.974005,0.999999,0.000696,0.000314,-0.000895,-0.001068,-0.001140,0.000449
1.230000,-1.748574,-2.487666,0.579280,1.567147,0.156820,0.203769,1.268003,0.802034,0.279031,-3.423672,1.877016,-0.099664,-6.329876,0.464921,-0.969632,0.999999,0.000691,0.000309,-0.000892,-0.001064,-0.001139,0.000445
1.240000,-1.732840,-2.486057,0.581332,1.579654,0.164934,0.206554,1.233453,0.820826,0.277986,-3.486039,1.881283,-0.109361,-6.142689,0.386597,-0.970712,0.999999,0.000685,0.000303,-0.000890,-0.001061,-0.001138,0.000440
1.250000,-1.716982,-2.484366,0.583412,1.591814,0.173236,0.209328,1.198288,0.839657,0.276844,-3.546517,1.884765,-0.119068,-5.953404,0.310933,-0.969507,0.999999,0.000680,0.000297,-0.000888,-0.001057,-0.001136,0.000436
1.260000,-1.701005,-2.482592,0.585519,1.603618,0.181727,0.212091,1.162529,0.858519,0.275605,-3.605097,1.887496,-0.128747,-5.761753,0.234588,-0.967926,0.999999,0.000675,0.000292,-0.000886,-0.001054,-0.001135,0.000432
1.270000,-1.684911,-2.480731,0.587653,1.615062,0.190407,0.214840,1.126193,0.877404,0.274269,-3.661741,1.889450,-0.138440,-5.567050,0.156660,-0.969035,0.999999,0.000670,0.000286,-0.000884,-0.001050,-0.001133,0.000428
1.280000,-1.668705,-2.478783,0.589815,1.626140,0.199275,0.217576,1.089300,0.896305,0.272836,-3.716437,1.890641,-0.148094,-5.371737,0.081487,-0.961814,0.999999,0.000664,0.000280,-0.000882,-0.001046,-0.001132,0.000424
1.290000,-1.652390,-2.476745,0.592005,1.636846,0.208333,0.220297,1.051871,0.915215,0.271307,-3.769162,1.891066,-0.157706,-5.172495,0.002812,-0.962054,0.999999,0.000659,0.000275,-0.000880,-0.001043,-0.001131,0.000419
1.300000,-1.635969,-2.474616,0.594221,1.647176,0.217580,0.223002,1.013924,0.934124,0.269682,-3.819884,1.890705,-0.167323,-4.971834,-0.074858,-0.959533,0.999999,0.000654,0.000269,-0.000877,-0.001040,-0.001130,0.000415
1.310000,-1.619447,-2.472393,0.596465,1.657123,0.227015,0.225690,0.975480,0.953026,0.267961,-3.868600,1.889523,-0.176917,-4.769251,-0.153900,-0.957078,0.999999,0.000649,0.000263,-0.000875,-0.001036,-0.001129,0.000411
1.320000,-1.602828,-2.470075,0.598735,1.666684,0.236640,0.228360,0.936559,0.971913,0.266144,-3.915246,1.887697,-0.186443,-4.561366,-0.218807,-0.950234,0.999999,0.000643,0.000258,-0.000873,-0.001033,-0.001128,0.000407
1.330000,-1.586115,-2.467659,0.601032,1.675853,0.246453,0.231012,0.897181,0.990777,0.264232,-3.959858,1.884989,-0.195967,-4.360771,-0.322928,-0.954543,0.999999,0.000638,0.000252,-0.000871,-0.001029,-0.001127,0.000403
1.340000,-1.569312,-2.465145,0.603355,1.684626,0.256455,0.233645,0.857368,1.009609,0.262224,-4.002420,1.881389,-0.205490,-4.149573,-0.389552,-0.947758,0.999999,0.000633,0.000247,-0.000869,-0.001026,-0.001125,0.000399
1.350000,-1.552424,-2.462530,0.605705,1.692999,0.266646,0.236257,0.817140,1.028403,0.260122,-4.042861,1.877130,-0.214939,-3.939864,-0.469380,-0.944424,0.999999,0.000628,0.000241,-0.000867,-0.001023,-0.001124,0.000395
1.360000,-1.535454,-2.459811,0.608080,1.700967,0.277023,0.238847,0.776518,1.047149,0.257926,-4.081167,1.872090,-0.224400,-3.727656,-0.547543,-0.941481,0.999999,0.000623,0.000235,-0.000865,-0.001019,-0.001123,0.000391
1.370000,-1.518406,-2.456989,0.610482,1.708528,0.287588,0.241415,0.735523,1.065841,0.255635,-4.117470,1.866097,-0.233710,-3.526326,-0.642390,-0.926519,0.999999,0.000618,0.000230,-0.000863,-0.001016,-0.001122,0.000387
1.380000,-1.501284,-2.454059,0.612908,1.715677,0.298340,0.243959,0.694176,1.084469,0.253251,-4.151554,1.859424,-0.243058,-3.290161,-0.691883,-0.943324,0.999999,0.000613,0.000224,-0.000862,-0.001013,-0.001121,0.000383
1.390000,-1.484094,-2.451021,0.615361,1.722410,0.309277,0.246479,0.652500,1.103027,0.250774,-4.183398,1.852083,-0.252452,-3.084889,-0.785023,-0.929125,0.999999,0.000608,0.000219,-0.000860,-0.001009,-0.001119,0.000379
1.400000,-1.466838,-2.447873,0.617838,1.728726,0.320400,0.248974,0.610515,1.121507,0.248203,-4.213195,1.843804,-0.261691,-2.867726,-0.862750,-0.925005,0.999999,0.000603,0.000213,-0.000858,-0.001006,-0.001118,0.000375
1.410000,-1.449521,-2.444613,0.620340,1.734620,0.331707,0.251443,0.568243,1.139901,0.245540,-4.240787,1.834805,-0.270890,-2.649983,-0.940802,-0.919641,0.999999,0.000598,0.000207,-0.000856,-0.001003,-0.001117,0.000371
1.420000,-1.432147,-2.441238,0.622867,1.740090,0.343198,0.253885,0.525707,1.158201,0.242785,-4.266188,1.824954,-0.280129,-2.430530,-1.025810,-0.923189,0.999999,0.000593,0.000202,-0.000854,-0.001000,-0.001117,0.000367
1.430000,-1.414720,-2.437748,0.625418,1.745133,0.354871,0.256299,0.482927,1.176398,0.239938,-4.289405,1.814366,-0.289252,-2.212738,-1.091604,-0.901188,0.999999,0.000588,0.000196,-0.000852,-0.000997,-0.001116,0.000363
1.440000,-1.397245,-2.434140,0.627993,1.749748,0.366726,0.258683,0.439926,1.194486,0.237000,-4.310431,1.803048,-0.298249,-1.992061,-1.175720,-0.902982,0.999999,0.000583,0.000191,-0.000850,-0.000994,-0.001116,0.000359
1.450000,-1.379727,-2.430413,0.630591,1.753931,0.378760,0.261038,0.396725,1.212456,0.233973,-4.329248,1.790883,-0.307269,-1.771658,-1.253635,-0.896154,0.999999,0.000578,0.000185,-0.000849,-0.000991,-0.001115,0.000355
1.460000,-1.362168,-2.426564,0.633213,1.757681,0.390974,0.263363,0.353348,1.230300,0.230855,-4.345907,1.777893,-0.316158,-1.551883,-1.332636,-0.888588,0.999999,0.000573,0.000179,-0.000847,-0.000988,-0.001114,0.000351
1.470000,-1.344575,-2.422593,0.635858,1.760997,0.403366,0.265655,0.309815,1.248012,0.227649,-4.360211,1.764344,-0.325106,-1.316663,-1.388836,-0.894016,0.999999,0.000568,0.000174,-0.000845,-0.000985,-0.001114,0.000347
1.480000,-1.326950,-2.418496,0.638526,1.763877,0.415934,0.267915,0.266151,1.265584,0.224354,-4.372405,1.749867,-0.333891,-1.122318,-1.506995,-0.862703,0.999999,0.000563,0.000168,-0.000843,-0.000982,-0.001113,0.000344
1.490000,-1.309298,-2.414273,0.641217,1.766320,0.428677,0.270142,0.222374,1.283006,0.220972,-4.382499,1.734446,-0.342500,-0.888552,-1.565197,-0.866080,0.999999,0.000558,0.000163,-0.000842,-0.000979,-0.001113,0.000340
1.500000,-1.291625,-2.409922,0.643929,1.768324,0.441594,0.272334,0.178509,1.300271,0.217504,-4.390240,1.718462,-0.351153,-0.667924,-1.643472,-0.857346,0.999999,0.000553,0.000157,-0.000840,-0.000976,-0.001112,0.000336
1.510000,-1.273933,-2.405441,0.646663,1.769890,0.454682,0.274492,0.134577,1.317373,0.213949,-4.395796,1.701670,-0.359713,-0.446614,-1.719989,-0.849401,0.999999,0.000548,0.000152,-0.000838,-0.000973,-0.001112,0.000332
1.520000,-1.256229,-2.400828,0.649419,1.771016,0.467940,0.276613,0.090600,1.334302,0.210310,-4.399204,1.684014,-0.368092,-0.231833,-1.806000,-0.831395,0.999999,0.000543,0.000146,-0.000837,-0.000971,-0.001112,0.000329
1.530000,-1.238515,-2.396082,0.652195,1.771702,0.481367,0.278698,0.046600,1.351051,0.206587,-4.400363,1.665660,-0.376448,0.000014,-1.864606,-0.839977,0.999999,0.000538,0.000141,-0.000835,-0.000968,-0.001111,0.000325
1.540000,-1.220796,-2.391200,0.654993,1.771948,0.494961,0.280745,0.002600,1.367613,0.202781,-4.399272,1.646620,-0.384787,0.214840,-1.948534,-0.822633,1.000000,0.000534,0.000135,-0.000833,-0.000965,-0.001111,0.000321
1.550000,-1.203077,-2.386182,0.657810,1.771754,0.508719,0.282753,-0.041378,1.383980,0.198892,-4.396037,1.626734,-0.392945,0.435086,-2.023270,-0.813952,1.000000,0.000529,0.000129,-0.000832,-0.000963,-0.001110,0.000318
1.560000,-1.185362,-2.381025,0.660647,1.771120,0.522640,0.284722,-0.085313,1.400145,0.194922,-4.390581,1.606141,-0.401065,0.654649,-2.097441,-0.805258,1.000000,0.000524,0.000124,-0.000830,-0.000960,-0.001110,0.000314
1.570000,-1.167656,-2.375729,0.663504,1.770048,0.536721,0.286651,-0.129183,1.416100,0.190872,-4.382961,1.584765,-0.409005,0.870717,-2.175350,-0.787346,1.000000,0.000519,0.000118,-0.000829,-0.000957,-0.001110,0.000311
1.580000,-1.149963,-2.370290,0.666380,1.768537,0.550961,0.288539,-0.172965,1.431838,0.186742,-4.373138,1.562683,-0.416910,1.093801,-2.240955,-0.793750,1.000000,0.000514,0.000113,-0.000827,-0.000955,-0.001110,0.000307
1.590000,-1.132287,-2.364709,0.669275,1.766589,0.565357,0.290386,-0.216638,1.447352,0.182534,-4.361117,1.539903,-0.424785,1.308558,-2.317218,-0.776433,1.000000,0.000510,0.000107,-0.000826,-0.000952,-0.001110,0.000304
1.600000,-1.114633,-2.358983,0.672188,1.764205,0.579907,0.292190,-0.260180,1.462634,0.178247,-4.346956,1.516361,-0.432476,1.524971,-2.388895,-0.766743,1.000000,0.000505,0.000102,-0.000824,-0.000950,-0.001110,0.000300
1.610000,-1.097004,-2.353110,0.675119,1.761386,0.594609,0.293950,-0.303570,1.477677,0.173884,-4.330633,1.492109,-0.440090,1.740130,-2.460255,-0.756509,1.000000,0.000500,0.000096,-0.000823,-0.000948,-0.001109,0.000297
1.620000,-1.079406,-2.347090,0.678067,1.758134,0.609460,0.295667,-0.346786,1.492474,0.169446,-4.312152,1.467171,-0.447610,1.955275,-2.528466,-0.746927,1.000000,0.000495,0.000091,-0.000821,-0.000945,-0.001109,0.000293
1.630000,-1.061843,-2.340921,0.681032,1.754451,0.624458,0.297339,-0.389806,1.507018,0.164932,-4.291544,1.441515,-0.455018,2.166058,-2.602565,-0.734499,1.000000,0.000491,0.000085,-0.000820,-0.000943,-0.001109,0.000290
1.640000,-1.044319,-2.334600,0.684013,1.750339,0.639600,0.298966,-0.432610,1.521301,0.160346,-4.268823,1.415148,-0.462309,2.378477,-2.669422,-0.724251,1.000000,0.000486,0.000080,-0.000818,-0.000941,-0.001110,0.000286
1.650000,-1.026838,-2.328128,0.687011,1.745799,0.654883,0.300546,-0.475175,1.535318,0.155687,-4.243985,1.388114,-0.469495,2.588356,-2.738041,-0.712675,1.000000,0.000481,0.000074,-0.000817,-0.000939,-0.001110,0.000283
1.660000,-1.009404,-2.321502,0.690024,1.740836,0.670305,0.302079,-0.517482,1.549061,0.150956,-4.217036,1.360386,-0.476530,2.797191,-2.805737,-0.700191,1.000000,0.000477,0.000068,-0.000815,-0.000936,-0.001110,0.000280
1.670000,-0.992022,-2.314721,0.693052,1.735451,0.685863,0.303565,-0.559509,1.562524,0.146156,-4.188085,1.332017,-0.483554,2.996665,-2.869617,-0.698732,1.000000,0.000472,0.000063,-0.000814,-0.000934,-0.001110,0.000276
1.680000,-0.974696,-2.307785,0.696095,1.729647,0.701554,0.305002,-0.601237,1.575699,0.141286,-4.157025,1.302964,-0.490379,3.215148,-2.940705,-0.666040,1.000000,0.000467,0.000057,-0.000813,-0.000932,-0.001110,0.000273
1.690000,-0.957431,-2.300690,0.699152,1.723427,0.717376,0.306390,-0.642643,1.588581,0.136349,-4.123869,1.273237,-0.496993,3.411672,-3.003087,-0.662618,1.000000,0.000463,0.000052,-0.000811,-0.000930,-0.001110,0.000270
1.700000,-0.940229,-2.293437,0.702223,1.716795,0.733325,0.307729,-0.683708,1.601162,0.131346,-4.088764,1.242893,-0.503579,3.612917,-3.067079,-0.648641,1.000000,0.000458,0.000046,-0.000810,-0.000928,-0.001110,0.000267
1.710000,-0.923096,-2.286023,0.705307,1.709754,0.749398,0.309017,-0.724411,1.613437,0.126278,-4.051634,1.211901,-0.509958,3.811957,-3.130252,-0.634457,1.000000,0.000453,0.000041,-0.000809,-0.000926,-0.001111,0.000263
1.720000,-0.906036,-2.278448,0.708403,1.702308,0.765593,0.310254,-0.764734,1.625398,0.121147,-4.012536,1.180299,-0.516348,4.007697,-3.190753,-0.635274,1.000000,0.000449,0.000035,-0.000807,-0.000924,-0.001111,0.000260
1.730000,-0.889051,-2.270711,0.711512,1.694461,0.781905,0.311440,-0.804656,1.637041,0.115952,-3.971479,1.148072,-0.522493,4.203342,-3.254383,-0.593553,1.000000,0.000444,0.000030,-0.000806,-0.000921,-0.001111,0.000257
1.740000,-0.872148,-2.262810,0.714632,1.686216,0.798333,0.312573,-0.844157,1.648358,0.110698,-3.928487,1.115231,-0.528382,4.394092,-3.312872,-0.592366,1.000000,0.000439,0.000024,-0.000805,-0.000919,-0.001111,0.000254
1.750000,-0.855328,-2.254744,0.717763,1.677579,0.814871,0.313653,-0.883219,1.659343,0.105384,-3.883599,1.081812,-0.534273,4.583144,-3.371561,-0.577402,1.000000,0.000435,0.000018,-0.000804,-0.000917,-0.001111,0.000251
1.760000,-0.838597,-2.246512,0.720905,1.668553,0.831518,0.314680,-0.921823,1.669992,0.100013,-3.836881,1.047823,-0.540025,4.768313,-3.428710,-0.563891,1.000000,0.000430,0.000013,-0.000802,-0.000914,-0.001112,0.000248
1.770000,-0.821959,-2.238113,0.724056,1.659144,0.848270,0.315653,-0.959950,1.680298,0.094585,-3.788166,1.013217,-0.545467,4.966149,-3.489689,-0.533373,1.000000,0.000426,0.000007,-0.000801,-0.000912,-0.001112,0.000245
1.780000,-0.805416,-2.229546,0.727217,1.649356,0.865123,0.316572,-0.997581,1.690254,0.089103,-3.737738,0.978089,-0.550878,5.118720,-3.535752,-0.549175,1.000000,0.000421,0.000002,-0.000800,-0.000909,-0.001112,0.000242
1.790000,-0.788973,-2.220810,0.730388,1.639194,0.882074,0.317435,-1.034699,1.699858,0.083567,-3.685638,0.942453,-0.556272,5.308801,-3.593776,-0.520624,1.000000,0.000417,-0.000004,-0.000799,-0.000907,-0.001112,0.000239
1.800000,-0.772633,-2.211904,0.733566,1.628664,0.899119,0.318243,-1.071287,1.709102,0.077979,-3.631641,0.906244,-0.561366,5.481970,-3.645658,-0.507206,1.000000,0.000412,-0.000009,-0.000797,-0.000905,-0.001112,0.000236
1.810000,-0.756401,-2.202828,0.736752,1.617770,0.916255,0.318995,-1.107326,1.717981,0.072340,-3.575988,0.869547,-0.566435,5.651956,-3.696285,-0.494656,1.000000,0.000407,-0.000015,-0.000796,-0.000902,-0.001113,0.000233
1.820000,-0.740279,-2.193579,0.739946,1.606519,0.933477,0.319690,-1.142801,1.726491,0.066652,-3.518576,0.832299,-0.571148,5.826032,-3.750534,-0.459682,1.000000,0.000403,-0.000020,-0.000795,-0.000900,-0.001113,0.000230
1.830000,-0.724271,-2.184158,0.743146,1.594916,0.950783,0.320328,-1.177693,1.734625,0.060917,-3.459559,0.794595,-0.575873,5.976703,-3.789831,-0.485670,1.000000,0.000398,-0.000026,-0.000794,-0.000898,-0.001113,0.000227
1.840000,-0.708382,-2.174563,0.746352,1.582967,0.968169,0.320908,-1.211987,1.742381,0.055134,-3.398976,0.756455,-0.580626,6.143174,-3.840565,-0.453101,1.000000,0.000394,-0.000032,-0.000793,-0.000896,-0.001113,0.000224
1.850000,-0.692613,-2.164794,0.749564,1.570679,0.985630,0.321430,-1.245667,1.749753,0.049306,-3.336738,0.717804,-0.585032,6.299747,-3.886072,-0.440137,1.000000,0.000390,-0.000037,-0.000792,-0.000894,-0.001114,0.000221
1.860000,-0.676969,-2.154850,0.752780,1.558056,1.003162,0.321894,-1.278717,1.756736,0.043434,-3.273010,0.678750,-0.589334,6.452206,-3.929445,-0.425745,1.000000,0.000385,-0.000043,-0.000791,-0.000892,-0.001114,0.000218
1.870000,-0.661453,-2.144731,0.756001,1.545106,1.020763,0.322299,-1.311121,1.763326,0.037519,-3.207643,0.639172,-0.593598,6.613909,-3.980956,-0.421655,1.000000,0.000381,-0.000048,-0.000790,-0.000890,-0.001115,0.000215
1.880000,-0.646068,-2.134435,0.759226,1.531836,1.038428,0.322644,-1.342865,1.769518,0.031563,-3.140883,0.599240,-0.597651,6.737261,-4.005127,-0.388749,1.000000,0.000376,-0.000054,-0.000789,-0.000888,-0.001115,0.000212
1.890000,-0.630818,-2.123962,0.762454,1.518251,1.056152,0.322930,-1.373934,1.775310,0.025567,-3.072776,0.558975,-0.601483,6.890358,-4.052666,-0.382971,1.000000,0.000372,-0.000059,-0.000787,-0.000886,-0.001116,0.000209
1.900000,-0.615704,-2.113312,0.765685,1.504360,1.073932,0.323155,-1.404315,1.780696,0.019533,-3.003144,0.518227,-0.605264,7.028524,-4.090912,-0.367691,1.000000,0.000367,-0.000065,-0.000786,-0.000884,-0.001116,0.000207
1.910000,-0.600731,-2.102483,0.768917,1.490167,1.091765,0.323320,-1.433994,1.785674,0.013463,-2.932318,0.477299,-0.608788,7.160713,-4.124527,-0.350857,1.000000,0.000363,-0.000071,-0.000785,-0.000883,-0.001117,0.000204
1.920000,-0.585902,-2.091476,0.772151,1.475682,1.109645,0.323424,-1.462955,1.790238,0.007357,-2.859715,0.435463,-0.612409,7.335436,-4.213291,-0.359749,1.000000,0.000358,-0.000076,-0.000784,-0.000881,-0.001118,0.000201
1.930000,-0.571219,-2.080290,0.775385,1.460911,1.127568,0.323467,-1.491185,1.794383,0.001216,-2.786123,0.393651,-0.615699,7.381571,-4.148152,-0.297902,1.000000,0.000354,-0.000082,-0.000783,-0.000879,-0.001118,0.000198
1.940000,-0.556685,-2.068925,0.778620,1.445861,1.145531,0.323449,-1.518675,1.798112,-0.004956,-2.711611,0.351912,-0.618639,7.544553,-4.229027,-0.303714,1.000000,0.000350,-0.000087,-0.000782,-0.000878,-0.001119,0.000195
1.950000,-0.542302,-2.057379,0.781854,1.430540,1.163529,0.323368,-1.545411,1.801418,-0.011158,-2.635448,0.309323,-0.621658,7.663400,-4.259213,-0.286538,1.000000,0.000345,-0.000093,-0.000781,-0.000876,-0.001119,0.000192
1.960000,-0.528075,-2.045654,0.785087,1.414955,1.181558,0.323225,-1.571379,1.804296,-0.017388,-2.557840,0.266136,-0.624490,7.788067,-4.299389,-0.270588,1.000000,0.000341,-0.000099,-0.000781,-0.000874,-0.001120,0.000189
1.970000,-0.514004,-2.033748,0.788318,1.399115,1.199613,0.323020,-1.596569,1.806746,-0.023646,-2.480343,0.224063,-0.626972,7.778704,-4.191544,-0.235813,1.000000,0.000336,-0.000104,-0.000780,-0.000872,-0.001120,0.000186
1.980000,-0.500093,-2.021662,0.791547,1.383026,1.217691,0.322752,-1.620978,1.808772,-0.029928,-2.400852,0.180702,-0.629415,8.120919,-4.482958,-0.253092,1.000000,0.000332,-0.000110,-0.000779,-0.000870,-0.001121,0.000182
1.990000,-0.486344,-2.009394,0.794773,1.366698,1.235787,0.322422,-1.644579,1.810355,-0.036234,-2.319311,0.135955,-0.631832,8.118137,-4.388935,-0.220284,1.000000,0.000328,-0.000115,-0.000778,-0.000869,-0.001122,0.000179
2.000000,-0.472760,-1.996946,0.797996,1.350138,1.253897,0.322028,-1.667366,1.811496,-0.042563,-2.237920,0.092271,-0.633906,8.227563,-4.424562,-0.204473,1.000000,0.000323,-0.000121,-0.000777,-0.000867,-0.001122,0.000176
2.010000,-0.459342,-1.984316,0.801214,1.333353,1.272016,0.321570,-1.689330,1.812196,-0.048912,-2.154673,0.047489,-0.635923,8.337335,-4.461269,-0.189032,1.000000,0.000319,-0.000127,-0.000776,-0.000865,-0.001123,0.000172
2.020000,-0.446094,-1.971505,0.804427,1.316354,1.290139,0.321049,-1.710463,1.812451,-0.055280,-2.071961,0.003698,-0.637596,8.285337,-4.364528,-0.155182,1.000000,0.000315,-0.000132,-0.000775,-0.000864,-0.001124,0.000169
2.030000,-0.433016,-1.958513,0.807634,1.299147,1.308263,0.320465,-1.730762,1.812265,-0.061664,-1.987278,-0.041222,-0.639225,8.652837,-4.621107,-0.170782,1.000000,0.000310,-0.000138,-0.000774,-0.000862,-0.001125,0.000165
2.040000,-0.420111,-1.945340,0.810836,1.281741,1.326383,0.319816,-1.750201,1.811622,-0.068065,-1.900571,-0.087335,-0.640819,8.605389,-4.532208,-0.138409,1.000000,0.000306,-0.000143,-0.000774,-0.000861,-0.001126,0.000161
2.050000,-0.407382,-1.931986,0.814030,1.264146,1.344494,0.319103,-1.768777,1.810523,-0.074479,-1.814497,-0.132437,-0.642073,8.689892,-4.555877,-0.121869,1.000000,0.000302,-0.000149,-0.000773,-0.000860,-0.001128,0.000157
2.060000,-0.394829,-1.918450,0.817218,1.246369,1.362592,0.318326,-1.786492,1.808976,-0.080905,-1.728534,-0.176839,-0.643109,8.735551,-4.545765,-0.102940,1.000000,0.000298,-0.000155,-0.000772,-0.000859,-0.001129,0.000153
2.070000,-0.382455,-1.904734,0.820397,1.228419,1.380672,0.317485,-1.803328,1.806969,-0.087342,-1.637657,-0.225371,-0.644308,9.211330,-4.945205,-0.118566,1.000000,0.000293,-0.000160,-0.000771,-0.000858,-0.001131,0.000149
2.080000,-0.370261,-1.890837,0.823567,1.210305,1.398730,0.316579,-1.819255,1.804479,-0.093790,-1.549101,-0.271223,-0.645095,8.491642,-4.217927,-0.038252,1.000000,0.000289,-0.000166,-0.000770,-0.000857,-0.001132,0.000145
2.090000,-0.358249,-1.876760,0.826728,1.192037,1.416760,0.315609,-1.834321,1.801556,-0.100243,-1.463251,-0.314061,-0.645442,8.906617,-4.565924,-0.049626,1.000000,0.000285,-0.000172,-0.000770,-0.000856,-0.001134,0.000141
2.100000,-0.346421,-1.862502,0.829879,1.173622,1.434759,0.314575,-1.848501,1.798182,-0.106700,-1.372937,-0.360687,-0.645929,8.926643,-4.543311,-0.029413,1.000000,0.000280,-0.000177,-0.000769,-0.000855,-0.001135,0.000136
2.110000,-0.334777,-1.848064,0.833019,1.155069,1.452722,0.313475,-1.861784,1.794347,-0.113160,-1.283507,-0.406226,-0.646135,8.956119,-4.535809,-0.010453,1.000000,0.000276,-0.000183,-0.000768,-0.000854,-0.001137,0.000132
2.120000,-0.323320,-1.833448,0.836148,1.136389,1.470645,0.312311,-1.874170,1.790060,-0.119622,-1.193852,-0.451135,-0.646126,8.976349,-4.473461,0.011043,1.000000,0.000272,-0.000189,-0.000768,-0.000852,-0.001138,0.000128
2.130000,-0.312050,-1.818652,0.839265,1.117589,1.488522,0.311083,-1.885660,1.785324,-0.126082,-1.103946,-0.496272,-0.645941,9.004290,-4.554627,0.025915,1.000000,0.000268,-0.000194,-0.000767,-0.000850,-0.001139,0.000123
2.140000,-0.300969,-1.803677,0.842370,1.098679,1.506350,0.309790,-1.896249,1.780133,-0.132540,-1.013826,-0.541666,-0.645582,9.016874,-4.496142,0.047163,1.000000,0.000263,-0.000200,-0.000767,-0.000848,-0.001141,0.000119
2.150000,-0.290077,-1.788525,0.845461,1.079667,1.524123,0.308432,-1.905936,1.774493,-0.138993,-0.923598,-0.586431,-0.645008,9.030268,-4.484635,0.066254,1.000000,0.000259,-0.000206,-0.000766,-0.000846,-0.001142,0.000114
2.160000,-0.279376,-1.773195,0.848538,1.060563,1.541838,0.307010,-1.914717,1.768401,-0.145440,-0.832536,-0.631921,-0.644269,9.054638,-4.485456,0.084948,1.000000,0.000255,-0.000211,-0.000765,-0.000844,-0.001144,0.000109
2.170000,-0.268866,-1.757688,0.851601,1.041376,1.559490,0.305523,-1.922596,1.761865,-0.151878,-0.743684,-0.674963,-0.643277,8.838607,-4.246913,0.110043,1.000000,0.000251,-0.000217,-0.000765,-0.000842,-0.001146,0.000104
2.180000,-0.258548,-1.742005,0.854649,1.022114,1.577074,0.303972,-1.929584,1.754896,-0.158305,-0.653185,-0.719465,-0.642139,9.264602,-4.657378,0.117388,1.000000,0.000246,-0.000223,-0.000764,-0.000841,-0.001148,0.000098
2.190000,-0.248424,-1.726147,0.857680,1.002787,1.594586,0.302357,-1.935653,1.747469,-0.164720,-0.560896,-0.765597,-0.640862,9.068087,-4.443524,0.141523,1.000000,0.000242,-0.000229,-0.000764,-0.000839,-0.001150,0.000093
2.200000,-0.238493,-1.710114,0.860695,0.983404,1.612022,0.300678,-1.940812,1.739594,-0.171121,-0.470776,-0.809397,-0.639338,9.079394,-4.441229,0.159796,1.000000,0.000238,-0.000234,-0.000763,-0.000837,-0.001152,0.000087
2.210000,-0.228756,-1.693907,0.863694,0.963974,1.629377,0.298935,-1.945067,1.731280,-0.177506,-0.380371,-0.853403,-0.637665,9.071566,-4.422775,0.177747,1.000000,0.000234,-0.000240,-0.000763,-0.000834,-0.001154,0.000081
2.220000,-0.219213,-1.677527,0.866674,0.944506,1.646646,0.297128,-1.948414,1.722522,-0.183873,-0.288708,-0.898427,-0.635755,9.192213,-4.520827,0.201279,1.000000,0.000230,-0.000246,-0.000763,-0.000832,-0.001157,0.000075
2.230000,-0.209866,-1.660974,0.869636,0.925009,1.663826,0.295258,-1.950845,1.713315,-0.190221,-0.197974,-0.942532,-0.633703,8.951898,-4.297862,0.209048,1.000000,0.000226,-0.000252,-0.000762,-0.000830,-0.001160,0.000069
2.240000,-0.200713,-1.644251,0.872579,0.905492,1.680911,0.293324,-1.952377,1.703675,-0.196547,-0.108296,-0.985618,-0.631514,9.052317,-4.380906,0.231689,1.000000,0.000221,-0.000258,-0.000762,-0.000827,-0.001162,0.000062
2.250000,-0.191756,-1.627356,0.875502,0.885964,1.697898,0.291327,-1.953006,1.693599,-0.202850,-0.017523,-1.029619,-0.629097,9.032955,-4.357971,0.248849,1.000000,0.000217,-0.000263,-0.000762,-0.000825,-0.001165,0.000055
2.260000,-0.182994,-1.610293,0.878405,0.866435,1.714781,0.289267,-1.952728,1.683088,-0.209129,0.073261,-1.072346,-0.626708,9.026216,-4.323125,0.262465,1.000000,0.000213,-0.000269,-0.000761,-0.000823,-0.001169,0.000048
2.270000,-0.174427,-1.593061,0.881287,0.846913,1.731558,0.287144,-1.951549,1.672142,-0.215381,0.162098,-1.117332,-0.623541,8.834975,-4.542220,0.338462,1.000000,0.000209,-0.000275,-0.000761,-0.000820,-0.001172,0.000040
2.280000,-0.166056,-1.575662,0.884148,0.827407,1.748223,0.284959,-1.949482,1.660749,-0.221601,0.251933,-1.160421,-0.620618,9.134481,-4.071594,0.245110,1.000000,0.000205,-0.000281,-0.000761,-0.000818,-0.001176,0.000032
2.290000,-0.157879,-1.558097,0.886986,0.807926,1.764772,0.282712,-1.946506,1.648941,-0.227795,0.342868,-1.201437,-0.617983,8.956665,-4.265145,0.314674,1.000000,0.000201,-0.000287,-0.000761,-0.000815,-0.001179,0.000025
2.300000,-0.149897,-1.540367,0.889802,0.788480,1.781200,0.280403,-1.942632,1.636711,-0.233958,0.431863,-1.244595,-0.614596,8.936860,-4.234466,0.329695,1.000000,0.000197,-0.000293,-0.000761,-0.000812,-0.001183,0.000019
2.310000,-0.142109,-1.522473,0.892594,0.769076,1.797504,0.278033,-1.937858,1.624064,-0.240082,0.523293,-1.284404,-0.609985,8.950751,-4.167159,0.371487,1.000000,0.000193,-0.000299,-0.000761,-0.000807,-0.001185,0.000020
2.320000,-0.134515,-1.504417,0.895362,0.749725,1.813680,0.275602,-1.932198,1.610989,-0.246174,0.607202,-1.331996,-0.609200,8.215481,-4.926396,-0.000186,1.000000,0.000189,-0.000305,-0.000761,-0.000802,-0.001188,0.000018
2.330000,-0.127115,-1.486200,0.898106,0.730435,1.829723,0.273110,-1.925696,1.597446,-0.252254,0.695672,-1.374016,-0.605489,9.489164,-3.466053,0.748979,1.000000,0.000185,-0.000311,-0.000761,-0.000800,-0.001193,0.000011
2.340000,-0.119906,-1.467823,0.900824,0.711215,1.845628,0.270557,-1.918265,1.583532,-0.258271,0.789148,-1.409973,-0.598566,8.814712,-4.157417,0.418506,1.000000,0.000181,-0.000317,-0.000761,-0.000800,-0.001200,-0.000003
2.350000,-0.112890,-1.449288,0.903517,0.692073,1.861392,0.267944,-1.909944,1.569213,-0.264242,0.875230,-1.453567,-0.595289,8.787245,-4.134951,0.452129,1.000000,0.000177,-0.000323,-0.000761,-0.000802,-0.001210,-0.000024
2.360000,-0.106065,-1.430596,0.906183,0.673019,1.877010,0.265272,-1.900783,1.554363,-0.270187,0.956065,-1.519527,-0.594273,8.586566,-4.642451,0.396809,1.000000,0.000172,-0.000329,-0.000761,-0.000815,-0.001230,-0.000073
2.370000,-0.099429,-1.411749,0.908822,0.654060,1.892478,0.262541,-1.890731,1.539165,-0.276076,1.058042,-1.505793,-0.581415,10.633803,3.105696,1.547442,1.000000,0.000168,-0.000335,-0.000762,-0.000825,-0.001248,-0.000115
2.380000,-0.092983,-1.392747,0.911434,0.635207,1.907794,0.259751,-1.879684,1.524032,-0.281847,1.144078,-1.547324,-0.576490,6.535400,-11.541724,-0.581899,1.000000,0.000164,-0.000341,-0.000762,-0.000829,-0.001259,-0.000135
2.390000,-0.086725,-1.373593,0.914017,0.616469,1.922955,0.256904,-1.867918,1.507981,-0.287640,1.212464,-1.649825,-0.580362,8.325623,-4.624789,0.441116,1.000000,0.000160,-0.000347,-0.000762,-0.000823,-0.001262,-0.000124
2.400000,-0.080653,-1.354288,0.916572,0.597852,1.937952,0.253999,-1.855348,1.491364,-0.293405,1.300528,-1.676364,-0.573029,8.106756,-4.983752,0.395473,1.000000,0.000156,-0.000353,-0.000762,-0.000804,-0.001253,-0.000074
2.410000,-0.074767,-1.334835,0.919097,0.579365,1.952782,0.251036,-1.841926,1.474553,-0.299097,1.384135,-1.679956,-0.564831,8.031122,-4.069523,0.482033,1.000000,0.000153,-0.000359,-0.000761,-0.000757,-0.001217,0.000065
2.420000,-0.069066,-1.315233,0.921592,0.561016,1.967441,0.248017,-1.827715,1.457118,-0.304761,1.455793,-1.834315,-0.570375,6.868425,-18.695378,-0.850156,1.000000,0.000149,-0.000365,-0.000760,-0.000702,-0.001175,0.000224
2.430000,-0.063547,-1.295486,0.924057,0.542813,1.981919,0.244941,-1.812786,1.438277,-0.310467,1.533430,-1.883684,-0.566288,8.677746,9.080748,1.691477,1.000000,0.000146,-0.000371,-0.000759,-0.000647,-0.001136,0.000380
2.440000,-0.058209,-1.275596,0.926491,0.524763,1.996209,0.241808,-1.797020,1.419897,-0.316045,1.617905,-1.816443,-0.551492,7.646316,-3.806048,0.521501,1.000000,0.000143,-0.000377,-0.000757,-0.000597,-0.001108,0.000510
2.450000,-0.053051,-1.255563,0.928893,0.506875,2.010316,0.238620,-1.780475,1.401335,-0.321553,1.691244,-1.890390,-0.549510,7.593589,-2.836734,0.619465,1.000000,0.000139,-0.000383,-0.000756,-0.000561,-0.001097,0.000592
2.460000,-0.048071,-1.235390,0.931263,0.489156,2.024234,0.235377,-1.763161,1.382224,-0.327016,1.772011,-1.933024,-0.542991,7.616857,-2.745428,0.671370,1.000000,0.000136,-0.000389,-0.000754,-0.000558,-0.001127,0.000553
2.470000,-0.043267,-1.215079,0.933600,0.471614,2.037959,0.232080,-1.745110,1.362916,-0.332412,1.834914,-1.918302,-0.536208,5.880279,2.817364,0.697307,1.000000,0.000133,-0.000395,-0.000752,-0.000570,-0.001173,0.000465
2.480000,-0.038638,-1.194631,0.935904,0.454256,2.051493,0.228729,-1.726419,1.343726,-0.337738,1.908854,-1.936995,-0.528794,8.936379,-6.655763,0.785037,1.000000,0.000130,-0.000401,-0.000750,-0.000589,-0.001229,0.000347
2.490000,-0.034181,-1.174050,0.938175,0.437089,2.064832,0.225325,-1.706885,1.324027,-0.342986,1.995104,-1.993703,-0.520777,7.388114,-1.806195,0.804781,1.000000,0.000127,-0.000407,-0.000748,-0.000609,-0.001286,0.000223
2.500000,-0.029895,-1.153335,0.940411,0.420121,2.077973,0.221869,-1.686590,1.304077,-0.348153,2.064447,-1.997916,-0.512616,7.400866,-1.931128,0.838889,1.000000,0.000125,-0.000413,-0.000747,-0.000625,-0.001336,0.000114
2.510000,-0.025778,-1.132491,0.942612,0.403359,2.090913,0.218362,-1.665602,1.283834,-0.353257,2.132167,-2.055660,-0.508616,7.224417,-2.710117,0.774268,1.000000,0.000122,-0.000420,-0.000746,-0.000616,-0.001356,0.000087
2.520000,-0.021828,-1.111518,0.944778,0.386811,2.103649,0.214805,-1.643864,1.263499,-0.358261,2.218865,-1.988652,-0.489659,9.062481,9.391908,2.225892,1.000000,0.000119,-0.000426,-0.000745,-0.000597,-0.001363,0.000095
2.530000,-0.018041,-1.090419,0.946908,0.370485,2.116185,0.211198,-1.621280,1.243720,-0.363089,2.291314,-2.008868,-0.480705,5.392936,-13.647820,-0.460291,1.000000,0.000116,-0.000433,-0.000744,-0.000570,-0.001359,0.000131
2.540000,-0.014417,-1.069195,0.949002,0.354387,2.128519,0.207543,-1.598099,1.222946,-0.367919,2.347959,-2.125818,-0.482885,6.995913,-2.963317,0.822057,1.000000,0.000113,-0.000440,-0.000743,-0.000537,-0.001347,0.000184
2.550000,-0.010953,-1.047849,0.951059,0.338525,2.140643,0.203840,-1.574244,1.201713,-0.372686,2.422200,-2.125592,-0.471035,6.793537,-3.740115,0.752967,1.000000,0.000110,-0.000446,-0.000742,-0.000504,-0.001332,0.000245
2.560000,-0.007646,-1.026383,0.953078,0.322905,2.152553,0.200089,-1.549679,1.180448,-0.377343,2.490614,-2.122434,-0.459843,6.677892,-3.193094,0.812781,1.000000,0.000108,-0.000453,-0.000741,-0.000479,-0.001327,0.000277
2.570000,-0.004494,-1.004799,0.955060,0.307534,2.164250,0.196293,-1.524453,1.158668,-0.381936,2.553809,-2.258950,-0.460961,6.165149,-16.751639,-0.382343,1.000000,0.000106,-0.000460,-0.000740,-0.000457,-0.001324,0.000303
2.580000,-0.001494,-0.983098,0.957004,0.292418,2.175722,0.192451,-1.498598,1.135632,-0.386529,2.618205,-2.302984,-0.453760,6.720145,8.182355,1.843506,1.000000,0.000103,-0.000466,-0.000738,-0.000438,-0.001323,0.000322
2.590000,0.001355,-0.961285,0.958909,0.277564,2.186965,0.188563,-1.472082,1.113010,-0.390975,2.684067,-2.243856,-0.437299,6.245653,-3.771306,0.789372,1.000000,0.000101,-0.000473,-0.000737,-0.000422,-0.001325,0.000335
2.600000,0.004058,-0.939360,0.960775,0.262978,2.197981,0.184631,-1.444937,1.090190,-0.395325,2.744867,-2.315315,-0.432365,6.120050,-3.120917,0.855086,1.000000,0.000099,-0.000480,-0.000735,-0.000409,-0.001327,0.000345
2.610000,0.006616,-0.917326,0.962602,0.248667,2.208767,0.180657,-1.417191,1.066841,-0.399608,2.803917,-2.355356,-0.424238,5.951712,-3.128323,0.868156,1.000000,0.000097,-0.000486,-0.000733,-0.000395,-0.001328,0.000362
2.620000,0.009032,-0.895185,0.964388,0.234637,2.219317,0.176640,-1.388843,1.043226,-0.403802,2.866313,-2.361699,-0.414102,6.273727,0.153421,1.063829,1.000000,0.000095,-0.000493,-0.000731,-0.000383,-0.001329,0.000377
2.630000,0.011310,-0.872940,0.966134,0.220892,2.229631,0.172581,-1.359882,1.019528,-0.407894,2.924066,-2.388121,-0.404961,5.269491,-5.491728,0.761215,1.000000,0.000093,-0.000500,-0.000729,-0.000372,-0.001330,0.000391
2.640000,0.013451,-0.850594,0.967840,0.207441,2.239706,0.168482,-1.330380,0.995375,-0.411905,2.976857,-2.437033,-0.396960,5.546115,-2.569142,0.934826,1.000000,0.000091,-0.000506,-0.000727,-0.000363,-0.001332,0.000404
2.650000,0.015459,-0.828147,0.969504,0.194287,2.249538,0.164343,-1.300330,0.970923,-0.415825,3.032832,-2.454155,-0.387085,5.394371,-2.573691,0.944060,1.000000,0.000089,-0.000513,-0.000725,-0.000355,-0.001334,0.000415
2.660000,0.017338,-0.805604,0.971126,0.181436,2.259124,0.160166,-1.269712,0.946236,-0.419654,3.091141,-2.483731,-0.378662,5.366511,-2.562162,0.935191,1.000000,0.000088,-0.000520,-0.000723,-0.000348,-0.001337,0.000421
2.670000,0.019089,-0.782965,0.972707,0.168894,2.268462,0.155950,-1.238581,0.921312,-0.423383,3.131882,-2.498236,-0.366606,3.658025,-1.097187,1.287672,1.000000,0.000086,-0.000526,-0.000721,-0.000342,-0.001339,0.000426
2.680000,0.020717,-0.760235,0.974245,0.156666,2.277550,0.151699,-1.207034,0.896236,-0.426995,3.182697,-2.521597,-0.356864,6.532812,-3.599408,0.654659,1.000000,0.000084,-0.000533,-0.000719,-0.000337,-0.001342,0.000431
2.690000,0.022224,-0.737415,0.975741,0.144756,2.286385,0.147411,-1.174883,0.870841,-0.430531,3.244832,-2.554911,-0.349708,5.010302,-2.299086,0.966527,1.000000,0.000082,-0.000540,-0.000717,-0.000332,-0.001345,0.000438
2.700000,0.023613,-0.714508,0.977193,0.133170,2.294966,0.143088,-1.142208,0.845198,-0.433974,3.290403,-2.574078,-0.339147,4.984370,-2.296763,0.956384,1.000000,0.000081,-0.000547,-0.000715,-0.000327,-0.001347,0.000447
2.710000,0.024888,-0.691517,0.978602,0.121913,2.303289,0.138732,-1.109061,0.819348,-0.437316,3.338708,-2.595742,-0.329061,4.874939,-2.224286,0.969215,1.000000,0.000079,-0.000553,-0.000712,-0.000322,-0.001349,0.000462
2.720000,0.026052,-0.668443,0.979968,0.110990,2.311352,0.134342,-1.075422,0.793270,-0.440563,3.389711,-2.620292,-0.320602,5.130674,-2.502496,0.811737,1.000000,0.000078,-0.000560,-0.000710,-0.000317,-0.001351,0.000479
2.730000,0.027109,-0.645291,0.981289,0.100406,2.319153,0.129921,-1.041280,0.766953,-0.443723,3.437228,-2.641941,-0.310955,4.365015,-1.821097,1.120738,1.000000,0.000076,-0.000567,-0.000708,-0.000312,-0.001353,0.000496
2.740000,0.028062,-0.622061,0.982566,0.090166,2.326690,0.125468,-1.006692,0.740444,-0.446777,3.480887,-2.660404,-0.299982,4.559942,-2.055513,0.984279,1.000000,0.000074,-0.000574,-0.000705,-0.000307,-0.001356,0.000513
2.750000,0.028913,-0.598758,0.983798,0.080274,2.333961,0.120986,-0.971652,0.713733,-0.449729,3.526725,-2.681470,-0.290501,4.410658,-1.972864,1.001572,1.000000,0.000073,-0.000580,-0.000703,-0.000303,-0.001358,0.000528
2.760000,0.029668,-0.575383,0.984986,0.070734,2.340964,0.116474,-0.936191,0.686831,-0.452580,3.564398,-2.698636,-0.279611,4.146598,-1.854119,1.030720,1.000000,0.000071,-0.000587,-0.000700,-0.000299,-0.001361,0.000538
2.770000,0.030329,-0.551939,0.986128,0.061552,2.347697,0.111934,-0.900290,0.659732,-0.455332,3.619045,-2.722170,-0.271226,5.786704,-2.469569,0.787924,1.000000,0.000070,-0.000594,-0.000697,-0.000295,-0.001364,0.000545
2.780000,0.030900,-0.528430,0.987224,0.052730,2.354158,0.107368,-0.863866,0.632409,-0.457997,3.659227,-2.739984,-0.260877,2.217448,-1.080903,1.286419,1.000000,0.000068,-0.000601,-0.000694,-0.000292,-0.001368,0.000549
2.790000,0.031385,-0.504857,0.988275,0.044275,2.360345,0.102775,-0.827166,0.604957,-0.460542,3.683490,-2.751529,-0.248364,3.638413,-1.614396,1.073093,1.000000,0.000067,-0.000608,-0.000692,-0.000289,-0.001371,0.000550
2.800000,0.031787,-0.481224,0.989280,0.036188,2.366257,0.098157,-0.790126,0.577352,-0.462975,3.723467,-2.768994,-0.238205,3.356312,-1.493586,1.101251,1.000000,0.000066,-0.000614,-0.000689,-0.000286,-0.001375,0.000550
2.810000,0.032110,-0.457533,0.990238,0.028474,2.371892,0.093516,-0.752710,0.549581,-0.465306,3.759856,-2.785273,-0.227974,3.218369,-1.435644,1.101482,1.000000,0.000064,-0.000621,-0.000686,-0.000284,-0.001378,0.000549
2.820000,0.032358,-0.433787,0.991150,0.021135,2.377248,0.088851,-0.714991,0.521675,-0.467522,3.781372,-2.794705,-0.214736,1.768340,-0.768464,1.393539,1.000000,0.000063,-0.000628,-0.000684,-0.000282,-0.001382,0.000548
2.830000,0.032534,-0.409989,0.992015,0.014175,2.382325,0.084166,-0.677056,0.493674,-0.469607,3.809574,-2.807315,-0.203306,3.894108,-1.763915,0.887584,1.000000,0.000061,-0.000635,-0.000681,-0.000280,-0.001385,0.000547
2.840000,0.032643,-0.386141,0.992833,0.007595,2.387121,0.079459,-0.638768,0.465514,-0.471596,3.845453,-2.823568,-0.193909,2.593073,-1.166544,1.145342,1.000000,0.000060,-0.000642,-0.000678,-0.000278,-0.001388,0.000545
2.850000,0.032687,-0.362247,0.993604,0.001400,2.391635,0.074734,-0.600205,0.437230,-0.473474,3.867302,-2.833372,-0.181707,2.464496,-1.114014,1.141424,1.000000,0.000058,-0.000649,-0.000675,-0.000276,-0.001392,0.000543
2.860000,0.032672,-0.338310,0.994328,-0.004408,2.395865,0.069990,-0.561409,0.408842,-0.475233,3.891750,-2.844082,-0.170068,2.308025,-1.040734,1.150384,1.000000,0.000057,-0.000656,-0.000673,-0.000275,-0.001395,0.000542
2.870000,0.032600,-0.314331,0.995004,-0.009827,2.399811,0.065230,-0.522385,0.380350,-0.476878,3.912390,-2.854305,-0.159032,1.934186,-0.991678,1.091532,1.000000,0.000056,-0.000663,-0.000670,-0.000273,-0.001399,0.000540
2.880000,0.032477,-0.290314,0.995632,-0.014855,2.403472,0.060453,-0.483161,0.351759,-0.478411,3.932831,-2.863660,-0.147509,2.157912,-0.878959,1.214027,1.000000,0.000054,-0.000670,-0.000667,-0.000272,-0.001403,0.000539
2.890000,0.032305,-0.266263,0.996213,-0.019490,2.406846,0.055662,-0.443728,0.323079,-0.479826,3.953245,-2.872133,-0.135458,1.809962,-0.827868,1.160875,1.000000,0.000053,-0.000677,-0.000665,-0.000271,-0.001406,0.000538
2.900000,0.032088,-0.242178,0.996746,-0.023729,2.409933,0.050857,-0.404110,0.294318,-0.481123,3.970008,-2.880112,-0.123996,1.657106,-0.755699,1.166464,1.000000,0.000052,-0.000684,-0.000662,-0.000270,-0.001410,0.000536
2.910000,0.031831,-0.218065,0.997230,-0.027571,2.412732,0.046040,-0.364334,0.265481,-0.482305,3.984888,-2.887007,-0.112462,1.478646,-0.677759,1.166481,1.000000,0.000050,-0.000691,-0.000659,-0.000269,-0.001414,0.000535
2.920000,0.031538,-0.193925,0.997666,-0.031015,2.415242,0.041211,-0.324406,0.236576,-0.483370,4.001050,-2.894164,-0.100420,1.598460,-0.700924,1.215832,1.000000,0.000049,-0.000698,-0.000657,-0.000268,-0.001417,0.000533
2.930000,0.031212,-0.169761,0.998054,-0.034059,2.417463,0.036373,-0.284326,0.207603,-0.484315,4.013596,-2.899919,-0.088694,0.905758,-0.448426,1.128437,1.000000,0.000048,-0.000705,-0.000654,-0.000267,-0.001421,0.000531
2.940000,0.030858,-0.145576,0.998394,-0.036701,2.419394,0.031525,-0.244148,0.178583,-0.485145,4.022302,-2.904195,-0.077325,0.992147,-0.459904,1.171625,1.000000,0.000046,-0.000712,-0.000651,-0.000266,-0.001425,0.000529
2.950000,0.030480,-0.121374,0.998685,-0.038942,2.421035,0.026670,-0.203874,0.149517,-0.485859,4.032106,-2.908664,-0.065490,0.812422,-0.380941,1.169661,1.000000,0.000045,-0.000720,-0.000649,-0.000266,-0.001428,0.000527
2.960000,0.030081,-0.097157,0.998927,-0.040779,2.422385,0.021809,-0.163515,0.120413,-0.486455,4.039405,-2.912067,-0.053636,0.642894,-0.304523,1.172587,1.000000,0.000044,-0.000727,-0.000646,-0.000266,-0.001432,0.000524
2.970000,0.029666,-0.072927,0.999121,-0.042212,2.423443,0.016942,-0.123092,0.091278,-0.486934,4.044924,-2.914800,-0.042300,0.465197,-0.237145,1.122253,1.000000,0.000042,-0.000734,-0.000643,-0.000265,-0.001435,0.000521
2.980000,0.029238,-0.048689,0.999266,-0.043240,2.424210,0.012070,-0.082622,0.062120,-0.487300,4.048796,-2.916708,-0.030612,0.309401,-0.144412,1.216235,1.000000,0.000041,-0.000741,-0.000641,-0.000265,-0.001439,0.000518
2.990000,0.028802,-0.024444,0.999362,-0.043864,2.424685,0.007196,-0.042121,0.032947,-0.487545,4.051028,-2.917785,-0.018534,0.132660,-0.075724,1.171487,1.000000,0.000040,-0.000748,-0.000638,-0.000265,-0.001442,0.000515
3.000000,0.028362,-0.000196,0.999410,-0.044083,2.424869,0.002320,-0.001607,0.003766,-0.487673,4.051486,-2.918181,-0.006947,-0.036727,0.001290,1.173807,1.000000,0.000038,-0.000755,-0.000636,-0.000265,-0.001446,0.000512
3.010000,0.027922,0.024052,0.999409,-0.043896,2.424761,-0.002557,0.038903,-0.025414,-0.487683,4.050305,-2.917792,0.004920,-0.205447,0.077876,1.176767,1.000000,0.000037,-0.000763,-0.000633,-0.000265,-0.001449,0.000508
3.020000,0.027485,0.048298,0.999359,-0.043305,2.424361,-0.007433,0.079393,-0.054587,-0.487576,4.047323,-2.916612,0.016378,-0.385018,0.156795,1.136880,1.000000,0.000036,-0.000770,-0.000631,-0.000266,-0.001453,0.000505
3.030000,0.027057,0.072539,0.999260,-0.042309,2.423669,-0.012308,0.119844,-0.083744,-0.487354,4.042728,-2.914682,0.028121,-0.533784,0.229251,1.212203,1.000000,0.000034,-0.000777,-0.000628,-0.000266,-0.001457,0.000502
3.040000,0.026641,0.096771,0.999113,-0.040908,2.422686,-0.017180,0.160242,-0.112878,-0.487012,4.036532,-2.912003,0.040173,-0.711267,0.307736,1.175933,0.999999,0.000033,-0.000785,-0.000626,-0.000267,-0.001462,0.000499
3.050000,0.026240,0.120991,0.998916,-0.039104,2.421412,-0.022048,0.200569,-0.141981,-0.486552,4.028554,-2.908538,0.051828,-0.878271,0.383983,1.176997,0.999999,0.000031,-0.000792,-0.000623,-0.000267,-0.001466,0.000495
3.060000,0.025860,0.145198,0.998672,-0.036897,2.419846,-0.026911,0.240807,-0.171046,-0.485976,4.018855,-2.904249,0.063419,-1.046670,0.461451,1.172322,0.999999,0.000030,-0.000799,-0.000621,-0.000268,-0.001471,0.000492
3.070000,0.025504,0.169387,0.998378,-0.034288,2.417991,-0.031767,0.280942,-0.200065,-0.485282,4.007759,-2.899423,0.075560,-1.186737,0.515596,1.225453,0.999999,0.000029,-0.000807,-0.000618,-0.000270,-0.001475,0.000488
3.080000,0.025175,0.193557,0.998036,-0.031279,2.415845,-0.036616,0.320956,-0.229031,-0.484466,3.994822,-2.893688,0.087287,-1.400879,0.631821,1.118783,0.999999,0.000027,-0.000814,-0.000616,-0.000271,-0.001480,0.000485
3.090000,0.024879,0.217703,0.997646,-0.027869,2.413410,-0.041456,0.360832,-0.257935,-0.483538,3.980035,-2.887030,0.098549,-1.542043,0.687514,1.164213,0.999999,0.000026,-0.000821,-0.000613,-0.000272,-0.001485,0.000481
3.100000,0.024619,0.241824,0.997207,-0.024062,2.410687,-0.046286,0.400553,-0.286770,-0.482493,3.963863,-2.879837,0.110306,-1.706586,0.763023,1.156688,0.999999,0.000025,-0.000829,-0.000611,-0.000274,-0.001490,0.000477
3.110000,0.024399,0.265916,0.996720,-0.019859,2.407675,-0.051106,0.440103,-0.315530,-0.481334,3.945919,-2.871912,0.121533,-1.870191,0.835518,1.144464,0.999999,0.000023,-0.000836,-0.000609,-0.000275,-0.001496,0.000474
3.120000,0.024223,0.289976,0.996185,-0.015261,2.404377,-0.055913,0.479467,-0.344205,-0.480059,3.926571,-2.863003,0.133707,-2.010458,0.932799,1.236248,0.999999,0.000022,-0.000844,-0.000606,-0.000277,-0.001502,0.000470
3.130000,0.024096,0.314003,0.995602,-0.010270,2.400791,-0.060706,0.518629,-0.372788,-0.478663,3.905478,-2.853538,0.145121,-2.208317,0.959786,1.044720,0.999999,0.000021,-0.000851,-0.000604,-0.000279,-0.001508,0.000466
3.140000,0.024019,0.337991,0.994971,-0.004889,2.396921,-0.065486,0.557570,-0.401274,-0.477159,3.882640,-2.843542,0.155698,-2.347336,1.052596,1.125511,0.999999,0.000019,-0.000859,-0.000602,-0.000281,-0.001515,0.000462
3.150000,0.023999,0.361940,0.994292,0.000880,2.392766,-0.070249,0.596277,-0.429655,-0.475545,3.858441,-2.832603,0.167168,-2.503658,1.121758,1.114150,0.999999,0.000018,-0.000866,-0.000599,-0.000283,-0.001522,0.000458
3.160000,0.024038,0.385846,0.993566,0.007036,2.388328,-0.074996,0.634739,-0.457926,-0.473815,3.833856,-2.821454,0.178838,-2.632795,1.182639,1.118646,0.999999,0.000016,-0.000874,-0.000597,-0.000285,-0.001529,0.000454
3.170000,0.024141,0.409706,0.992792,0.013574,2.383608,-0.079725,0.672932,-0.486076,-0.471976,3.803768,-2.808262,0.188619,-3.171422,1.383032,0.935537,0.999999,0.000015,-0.000882,-0.000595,-0.000287,-0.001536,0.000450
3.180000,0.024311,0.433517,0.991972,0.020493,2.378607,-0.084435,0.710820,-0.514093,-0.470038,3.774908,-2.795322,0.199602,-2.593810,1.202625,1.264199,0.999999,0.000013,-0.000889,-0.000592,-0.000289,-0.001544,0.000446
3.190000,0.024552,0.457277,0.991104,0.027790,2.373327,-0.089125,0.748437,-0.541984,-0.467979,3.747576,-2.782738,0.211929,-3.088025,1.387695,1.102479,0.999999,0.000012,-0.000897,-0.000590,-0.000291,-0.001552,0.000442
3.200000,0.024868,0.480983,0.990189,0.035461,2.367768,-0.093794,0.785750,-0.569739,-0.465807,3.714972,-2.768189,0.222492,-3.218485,1.448787,1.108372,0.999999,0.000010,-0.000905,-0.000588,-0.000294,-0.001560,0.000438
3.210000,0.025263,0.504631,0.989228,0.043504,2.361932,-0.098441,0.822731,-0.597346,-0.463525,3.680786,-2.753003,0.233847,-3.390186,1.522578,1.113373,0.999999,0.000009,-0.000913,-0.000586,-0.000296,-0.001569,0.000435
3.220000,0.025739,0.528220,0.988220,0.051914,2.355822,-0.103065,0.859379,-0.624802,-0.461134,3.649266,-2.738343,0.244304,-3.136210,1.473681,1.025666,0.999999,0.000007,-0.000921,-0.000584,-0.000298,-0.001578,0.000432
3.230000,0.026302,0.551747,0.987167,0.060690,2.349437,-0.107664,0.895700,-0.652108,-0.458637,3.613390,-2.722179,0.255363,-4.046437,1.761243,1.187560,0.999999,0.000006,-0.000929,-0.000582,-0.000300,-0.001586,0.000429
3.240000,0.026954,0.575208,0.986067,0.069827,2.342780,-0.112237,0.931629,-0.679240,-0.456024,3.572825,-2.704412,0.267082,-3.842608,1.727528,1.107621,0.999999,0.000004,-0.000937,-0.000579,-0.000303,-0.001595,0.000426
3.250000,0.027700,0.598601,0.984922,0.079321,2.335853,-0.116784,0.967168,-0.706198,-0.453299,3.534627,-2.687076,0.277917,-4.020707,1.804530,1.107545,0.999999,0.000003,-0.000945,-0.000577,-0.000305,-0.001603,0.000422
3.260000,0.028542,0.621924,0.983732,0.089169,2.328657,-0.121303,1.002308,-0.732976,-0.450468,3.492976,-2.668299,0.288173,-4.198081,1.885522,1.086521,0.999999,0.000001,-0.000953,-0.000575,-0.000307,-0.001611,0.000418
3.270000,0.029484,0.645174,0.982496,0.099366,2.321194,-0.125793,1.037031,-0.759567,-0.447525,3.451691,-2.649964,0.300956,-4.167256,1.844991,1.330905,0.999999,-0.000000,-0.000961,-0.000573,-0.000310,-0.001618,0.000414
3.280000,0.030530,0.668347,0.981216,0.109908,2.313466,-0.130253,1.071331,-0.785970,-0.444456,3.407359,-2.630068,0.311870,-4.702493,2.136291,0.847120,0.999999,-0.000002,-0.000969,-0.000571,-0.000312,-0.001625,0.000410
3.290000,0.031684,0.691442,0.979891,0.120791,2.305475,-0.134681,1.105167,-0.812162,-0.441295,3.359835,-2.608521,0.320702,-4.692541,2.109114,1.059294,0.999999,-0.000003,-0.000977,-0.000569,-0.000315,-0.001631,0.000405
3.300000,0.032947,0.714456,0.978522,0.132010,2.297223,-0.139078,1.138531,-0.838142,-0.438032,3.312586,-2.587343,0.331860,-4.865894,2.190085,1.032430,0.999999,-0.000005,-0.000985,-0.000567,-0.000317,-0.001635,0.000401
3.310000,0.034325,0.737386,0.977110,0.143560,2.288713,-0.143442,1.171415,-0.863907,-0.434662,3.264081,-2.565380,0.342122,-5.010089,2.259887,1.014208,0.999999,-0.000006,-0.000993,-0.000565,-0.000320,-0.001639,0.000397
3.320000,0.035820,0.760229,0.975654,0.155437,2.279946,-0.147771,1.203793,-0.889443,-0.431191,3.210780,-2.541618,0.352091,-5.479298,2.436523,0.985006,0.999999,-0.000008,-0.001001,-0.000563,-0.000322,-0.001642,0.000393
3.330000,0.037435,0.782984,0.974155,0.167634,2.270925,-0.152065,1.235634,-0.914739,-0.427621,3.158079,-2.517826,0.361933,-5.055062,2.319948,0.983561,0.999999,-0.000010,-0.001010,-0.000561,-0.000324,-0.001644,0.000389
3.340000,0.039173,0.805647,0.972613,0.180148,2.261652,-0.156323,1.266959,-0.939800,-0.423952,3.106245,-2.494092,0.371653,-5.483146,2.483195,0.954931,0.999999,-0.000011,-0.001018,-0.000559,-0.000326,-0.001646,0.000385
3.350000,0.041039,0.828216,0.971028,0.192972,2.252130,-0.160544,1.297740,-0.964614,-0.420189,3.049885,-2.468645,0.381082,-5.617035,2.549812,0.935943,0.999999,-0.000013,-0.001026,-0.000557,-0.000328,-0.001648,0.000382
3.360000,0.043034,0.850689,0.969402,0.206101,2.242361,-0.164727,1.327952,-0.989171,-0.416330,2.992087,-2.442490,0.390609,-5.777336,2.625199,0.922107,0.999999,-0.000015,-0.001034,-0.000555,-0.000330,-0.001651,0.000378
3.370000,0.045162,0.873062,0.967734,0.219529,2.232347,-0.168870,1.357590,-1.013466,-0.412381,2.935866,-2.416659,0.399089,-5.626227,2.594962,0.819990,0.999999,-0.000016,-0.001043,-0.000553,-0.000331,-0.001653,0.000375
3.380000,0.047425,0.895335,0.966025,0.233251,2.222092,-0.172974,1.386657,-1.037499,-0.408347,2.876218,-2.389458,0.407978,-6.307713,2.846598,0.959314,0.999999,-0.000018,-0.001051,-0.000552,-0.000333,-0.001656,0.000371
3.390000,0.049828,0.917504,0.964274,0.247260,2.211598,-0.177037,1.415101,-1.061250,-0.404219,2.812963,-2.360829,0.417345,-6.180985,2.824277,0.867768,0.999999,-0.000020,-0.001059,-0.000550,-0.000334,-0.001659,0.000367
3.400000,0.052372,0.939566,0.962484,0.261550,2.200868,-0.181058,1.442924,-1.084718,-0.400004,2.751245,-2.332515,0.425730,-6.322447,2.892719,0.855655,0.999999,-0.000021,-0.001067,-0.000548,-0.000335,-0.001662,0.000363
3.410000,0.055060,0.961520,0.960653,0.276116,2.189905,-0.185037,1.470125,-1.107899,-0.395703,2.688942,-2.303813,0.434386,-6.416564,2.943857,0.844369,0.999999,-0.000023,-0.001076,-0.000546,-0.000337,-0.001664,0.000359
3.420000,0.057895,0.983363,0.958783,0.290951,2.178711,-0.188972,1.496677,-1.130784,-0.391319,2.620362,-2.272769,0.442328,-7.027366,3.171787,0.774601,0.999999,-0.000025,-0.001084,-0.000544,-0.000338,-0.001667,0.000355
3.430000,0.060880,1.005094,0.956874,0.306047,2.167290,-0.192863,1.522542,-1.153358,-0.386856,2.554109,-2.242334,0.450521,-6.213931,2.912014,0.865051,0.999999,-0.000026,-0.001092,-0.000543,-0.000339,-0.001670,0.000352
3.440000,0.064017,1.026708,0.954926,0.321400,2.155645,-0.196709,1.547771,-1.175634,-0.382307,2.490612,-2.212659,0.459011,-6.758530,3.116226,0.801921,0.999999,-0.000028,-0.001101,-0.000541,-0.000340,-0.001673,0.000348
3.450000,0.067308,1.048206,0.952940,0.337001,2.143778,-0.200509,1.572330,-1.197602,-0.377678,2.421277,-2.180809,0.466820,-6.834855,3.159834,0.790939,0.999999,-0.000030,-0.001109,-0.000539,-0.000341,-0.001677,0.000344
3.460000,0.070757,1.069583,0.950916,0.352844,2.131694,-0.204262,1.596198,-1.219251,-0.372971,2.352119,-2.148901,0.474584,-6.932501,3.208980,0.776184,0.999999,-0.000031,-0.001118,-0.000537,-0.000342,-0.001681,0.000341
3.470000,0.074366,1.090839,0.948855,0.368922,2.119395,-0.207968,1.619374,-1.240579,-0.368186,2.283223,-2.116751,0.482476,-6.908246,3.232968,0.788236,0.999999,-0.000033,-0.001126,-0.000536,-0.000343,-0.001685,0.000337
3.480000,0.078137,1.111970,0.946757,0.385229,2.106883,-0.211625,1.641856,-1.261584,-0.363323,2.212662,-2.083989,0.490051,-7.205545,3.319535,0.726049,0.999999,-0.000035,-0.001134,-0.000534,-0.000343,-0.001689,0.000334
3.490000,0.082071,1.132976,0.944623,0.401757,2.094164,-0.215234,1.663621,-1.282257,-0.358386,2.140370,-2.050612,0.497281,-7.189976,3.343190,0.734222,0.999999,-0.000037,-0.001143,-0.000532,-0.000344,-0.001694,0.000331
3.500000,0.086172,1.153853,0.942453,0.418499,2.081239,-0.218793,1.684666,-1.302595,-0.353376,2.068337,-2.017021,0.504611,-7.278818,3.386837,0.717562,0.999999,-0.000038,-0.001151,-0.000531,-0.000345,-0.001699,0.000328
3.510000,0.090442,1.174600,0.940247,0.435448,2.068113,-0.222301,1.704984,-1.322597,-0.348296,1.995267,-1.983351,0.511482,-7.359746,3.420388,0.696738,0.999999,-0.000040,-0.001160,-0.000529,-0.000345,-0.001703,0.000325
3.520000,0.094882,1.195215,0.938007,0.452596,2.054789,-0.225759,1.724566,-1.342255,-0.343144,1.920916,-1.947941,0.518915,-7.486359,3.590460,0.750738,0.999999,-0.000042,-0.001168,-0.000527,-0.000346,-0.001708,0.000322
3.530000,0.099495,1.215695,0.935732,0.469937,2.041269,-0.229164,1.743401,-1.361558,-0.337920,1.846047,-1.913037,0.525673,-7.486589,3.387952,0.599614,0.999999,-0.000044,-0.001177,-0.000526,-0.000347,-0.001712,0.000319
3.540000,0.104281,1.236039,0.933424,0.487462,2.027559,-0.232517,1.761486,-1.380519,-0.332633,1.770696,-1.878740,0.531698,-7.608127,3.543422,0.644758,0.999999,-0.000045,-0.001185,-0.000524,-0.000347,-0.001717,0.000316
3.550000,0.109244,1.256246,0.931082,0.505164,2.013660,-0.235816,1.778810,-1.399126,-0.327284,1.694089,-1.842777,0.538233,-7.689089,3.577828,0.622760,0.999999,-0.000047,-0.001194,-0.000523,-0.000348,-0.001722,0.000314
3.560000,0.114385,1.276312,0.928707,0.523035,1.999577,-0.239062,1.795364,-1.417373,-0.321870,1.616420,-1.806464,0.544359,-7.779919,3.624792,0.603170,0.999999,-0.000049,-0.001203,-0.000521,-0.000349,-0.001727,0.000313
3.570000,0.119706,1.296237,0.926301,0.541069,1.985314,-0.242254,1.811141,-1.435259,-0.316397,1.539083,-1.770830,0.550303,-7.750725,3.560808,0.585054,0.999999,-0.000051,-0.001211,-0.000520,-0.000350,-0.001732,0.000311
3.580000,0.125207,1.316018,0.923863,0.559256,1.970873,-0.245390,1.826140,-1.452785,-0.310865,1.460078,-1.734015,0.556046,-8.052654,3.804178,0.563583,0.999999,-0.000052,-0.001220,-0.000518,-0.000350,-0.001737,0.000310
3.590000,0.130891,1.335653,0.921393,0.577589,1.956259,-0.248471,1.840336,-1.469935,-0.305277,1.379299,-1.695921,0.561590,-8.039738,3.756049,0.546017,0.999999,-0.000054,-0.001229,-0.000516,-0.000351,-0.001742,0.000309
3.600000,0.136759,1.355142,0.918893,0.596060,1.941476,-0.251495,1.853727,-1.486707,-0.299634,1.298736,-1.658386,0.566962,-8.136533,3.810152,0.527779,0.999999,-0.000056,-0.001237,-0.000515,-0.000352,-0.001747,0.000308
3.610000,0.142813,1.374482,0.916363,0.614661,1.926527,-0.254463,1.866295,-1.503091,-0.293937,1.214356,-1.618061,0.572419,-8.281486,3.901573,0.515586,0.999999,-0.000058,-0.001246,-0.000513,-0.000353,-0.001751,0.000307
3.620000,0.149053,1.393672,0.913804,0.633383,1.911415,-0.257374,1.878047,-1.519094,-0.288190,1.137323,-1.583604,0.576832,-7.569573,3.332851,0.413869,0.999999,-0.000059,-0.001255,-0.000512,-0.000354,-0.001755,0.000306
3.630000,0.155481,1.412710,0.911216,0.652219,1.896146,-0.260227,1.889016,-1.534744,-0.282398,1.053635,-1.544204,0.581680,-9.181304,4.557663,0.557327,0.999999,-0.000061,-0.001264,-0.000510,-0.000355,-0.001759,0.000304
3.640000,0.162098,1.431595,0.908600,0.671160,1.880722,-0.263022,1.899092,-1.549957,-0.276554,0.962706,-1.499397,0.587034,-8.554745,4.056727,0.466200,0.999999,-0.000063,-0.001273,-0.000509,-0.000357,-0.001762,0.000302
3.650000,0.168904,1.450324,0.905956,0.690198,1.865148,-0.265758,1.908301,-1.564756,-0.270662,0.878751,-1.460142,0.591406,-8.682457,4.138674,0.455438,0.999999,-0.000065,-0.001281,-0.000507,-0.000358,-0.001766,0.000300
3.660000,0.175902,1.468897,0.903285,0.709323,1.849428,-0.268435,1.916666,-1.579160,-0.264725,0.794494,-1.420819,0.595936,-8.712515,4.146653,0.442558,0.999999,-0.000067,-0.001290,-0.000506,-0.000359,-0.001770,0.000297
3.670000,0.183091,1.487312,0.900587,0.728528,1.833566,-0.271052,1.924146,-1.593138,-0.258744,0.699513,-1.373343,0.600182,-9.753017,4.937926,0.414523,0.999999,-0.000068,-0.001299,-0.000504,-0.000360,-0.001773,0.000294
3.680000,0.190473,1.505568,0.897864,0.747803,1.817567,-0.273610,1.930681,-1.606646,-0.252722,0.610575,-1.330681,0.604391,-8.016524,3.580695,0.427504,0.999999,-0.000070,-0.001308,-0.000503,-0.000361,-0.001778,0.000290
3.690000,0.198047,1.523663,0.895115,0.767139,1.801435,-0.276106,1.936385,-1.619773,-0.246656,0.528505,-1.293459,0.608572,-8.930460,4.276535,0.400575,0.999999,-0.000072,-0.001317,-0.000501,-0.000362,-0.001782,0.000287
3.700000,0.205816,1.541596,0.892342,0.786528,1.785173,-0.278543,1.941209,-1.632483,-0.240551,0.436529,-1.248671,0.612468,-8.930935,4.267295,0.386527,0.999999,-0.000074,-0.001326,-0.000500,-0.000364,-0.001788,0.000284
3.710000,0.213778,1.559366,0.889545,0.805960,1.768786,-0.280917,1.945129,-1.644758,-0.234408,0.347499,-1.206520,0.616079,-8.950420,4.268844,0.367796,0.999999,-0.000076,-0.001335,-0.000499,-0.000365,-0.001794,0.000281
3.720000,0.221935,1.576972,0.886724,0.825427,1.752279,-0.283231,1.948152,-1.656604,-0.228228,0.256838,-1.162323,0.620117,-9.107005,4.466912,0.408534,0.999999,-0.000077,-0.001344,-0.000497,-0.000365,-0.001801,0.000279
3.730000,0.230287,1.594411,0.883880,0.844920,1.735656,-0.285482,1.950268,-1.668010,-0.222008,0.166928,-1.119353,0.623592,-8.871949,4.123803,0.285232,0.999999,-0.000079,-0.001353,-0.000496,-0.000366,-0.001808,0.000277
3.740000,0.238834,1.611684,0.881015,0.864430,1.718920,-0.287671,1.951494,-1.678997,-0.215758,0.077913,-1.077760,0.626451,-9.005183,4.299183,0.318107,0.999999,-0.000081,-0.001362,-0.000494,-0.000367,-0.001816,0.000275
3.750000,0.247575,1.628789,0.878127,0.883947,1.702077,-0.289797,1.951821,-1.689557,-0.209477,-0.012532,-1.034257,0.629684,-9.009208,4.298345,0.296886,0.999999,-0.000083,-0.001371,-0.000493,-0.000368,-0.001824,0.000273
3.760000,0.256513,1.645726,0.875219,0.903463,1.685131,-0.291860,1.951237,-1.699676,-0.203166,-0.104441,-0.989331,0.632426,-9.051724,4.344125,0.274470,0.999999,-0.000085,-0.001380,-0.000492,-0.000368,-0.001831,0.000270
3.770000,0.265645,1.662492,0.872290,0.922969,1.668085,-0.293860,1.949756,-1.709370,-0.196828,-0.190612,-0.950525,0.635385,-8.493079,3.750185,0.294769,0.999999,-0.000087,-0.001389,-0.000490,-0.000368,-0.001839,0.000268
3.780000,0.274972,1.679087,0.869342,0.942456,1.650945,-0.295797,1.947409,-1.718669,-0.190461,-0.280824,-0.907335,0.637849,-9.558678,4.898315,0.197312,0.999999,-0.000089,-0.001398,-0.000489,-0.000369,-0.001847,0.000265
3.790000,0.284494,1.695510,0.866374,0.961914,1.633713,-0.297669,1.944123,-1.727497,-0.184073,-0.375484,-0.859290,0.639784,-9.058752,4.374691,0.212294,0.999999,-0.000090,-0.001408,-0.000488,-0.000369,-0.001854,0.000263
3.800000,0.294210,1.711761,0.863389,0.981335,1.616396,-0.299478,1.939923,-1.735880,-0.177664,-0.464653,-0.816990,0.641903,-9.087270,4.420310,0.188806,0.999999,-0.000092,-0.001417,-0.000486,-0.000370,-0.001862,0.000261
3.810000,0.304120,1.727838,0.860385,1.000709,1.598997,-0.301222,1.934826,-1.743831,-0.171235,-0.554665,-0.773226,0.643743,-9.073577,4.432308,0.167990,0.999999,-0.000094,-0.001426,-0.000485,-0.000370,-0.001869,0.000258
3.820000,0.314224,1.743741,0.857364,1.020028,1.581521,-0.302903,1.928817,-1.751336,-0.164791,-0.647573,-0.727428,0.645159,-9.352725,4.629773,0.126160,0.999999,-0.000096,-0.001436,-0.000484,-0.000371,-0.001876,0.000256
3.830000,0.324521,1.759468,0.854327,1.039283,1.563972,-0.304518,1.921882,-1.758384,-0.158332,-0.738461,-0.682676,0.646497,-8.819178,4.317361,0.141867,0.999999,-0.000098,-0.001445,-0.000483,-0.000372,-0.001883,0.000253
3.840000,0.335009,1.775020,0.851274,1.058463,1.546355,-0.306069,1.914057,-1.764994,-0.151861,-0.827066,-0.639124,0.647775,-9.057116,4.490701,0.102757,0.999999,-0.000100,-0.001454,-0.000481,-0.000373,-0.001889,0.000251
3.850000,0.345690,1.790395,0.848206,1.077561,1.528674,-0.307555,1.905330,-1.771158,-0.145378,-0.918263,-0.593698,0.648647,-9.026184,4.495880,0.082756,0.999999,-0.000102,-0.001464,-0.000480,-0.000374,-0.001896,0.000249
3.860000,0.356560,1.805593,0.845123,1.096567,1.510933,-0.308977,1.895695,-1.776872,-0.138888,-1.008610,-0.548987,0.649500,-9.005184,4.498997,0.064963,0.999999,-0.000103,-0.001473,-0.000479,-0.000375,-0.001902,0.000247
3.870000,0.367621,1.820613,0.842027,1.115472,1.493138,-0.310333,1.885161,-1.782134,-0.132391,-1.098009,-0.503239,0.649737,-8.910166,4.598799,0.004710,0.999999,-0.000105,-0.001483,-0.000478,-0.000375,-0.001908,0.000245
3.880000,0.378869,1.835456,0.838917,1.134267,1.475292,-0.311625,1.873734,-1.786939,-0.125892,-1.187562,-0.458096,0.650062,-9.000797,4.427925,0.061053,0.999999,-0.000107,-0.001492,-0.000476,-0.000376,-0.001914,0.000243
3.890000,0.390306,1.850119,0.835795,1.152943,1.457400,-0.312851,1.861409,-1.791298,-0.119389,-1.277277,-0.413649,0.650509,-8.904962,4.512844,0.005992,0.999999,-0.000109,-0.001502,-0.000475,-0.000377,-0.001920,0.000241
3.900000,0.401928,1.864604,0.832660,1.171492,1.439468,-0.314012,1.848193,-1.795208,-0.112885,-1.365958,-0.368286,0.650373,-8.866955,4.507752,-0.010889,0.999999,-0.000111,-0.001512,-0.000474,-0.000378,-0.001927,0.000239
3.910000,0.413735,1.878908,0.829514,1.189904,1.421498,-0.315109,1.834090,-1.798665,-0.106382,-1.454451,-0.323130,0.650114,-8.823268,4.506509,-0.030025,0.999999,-0.000113,-0.001521,-0.000473,-0.000379,-0.001933,0.000237
3.920000,0.425725,1.893033,0.826358,1.208171,1.403496,-0.316140,1.819106,-1.801672,-0.099882,-1.542339,-0.278305,0.649874,-8.760949,4.473508,-0.028701,0.999999,-0.000115,-0.001531,-0.000472,-0.000380,-0.001939,0.000235
3.930000,0.437898,1.906978,0.823192,1.226284,1.385466,-0.317106,1.803245,-1.804230,-0.093386,-1.629809,-0.233343,0.649319,-8.732700,4.519269,-0.082548,0.999999,-0.000117,-0.001541,-0.000470,-0.000381,-0.001946,0.000234
3.940000,0.450251,1.920743,0.820016,1.244233,1.367413,-0.318008,1.786511,-1.806338,-0.086897,-1.716828,-0.188237,0.648437,-8.662902,4.485988,-0.083028,0.999999,-0.000119,-0.001550,-0.000469,-0.000382,-0.001953,0.000232
3.950000,0.462782,1.934326,0.816832,1.262011,1.349341,-0.318844,1.768911,-1.807997,-0.080417,-1.803115,-0.143496,0.647567,-8.601079,4.477400,-0.101538,0.999999,-0.000121,-0.001560,-0.000468,-0.000383,-0.001959,0.000230
3.960000,0.475490,1.947729,0.813640,1.279608,1.331254,-0.319616,1.750451,-1.809208,-0.073946,-1.888749,-0.098728,0.646504,-8.533149,4.467072,-0.118287,0.999999,-0.000122,-0.001570,-0.000467,-0.000384,-0.001966,0.000228
3.970000,0.488373,1.960951,0.810440,1.297017,1.313158,-0.320323,1.731138,-1.809972,-0.067488,-1.973839,-0.054241,0.645134,-8.476072,4.438628,-0.148665,0.999999,-0.000124,-0.001580,-0.000466,-0.000384,-0.001973,0.000226
3.980000,0.501430,1.973993,0.807233,1.314228,1.295056,-0.320966,1.710977,-1.810293,-0.061044,-2.058084,-0.009783,0.643682,-8.371795,4.452983,-0.141377,0.999999,-0.000126,-0.001590,-0.000465,-0.000385,-0.001980,0.000224
3.990000,0.514657,1.986853,0.804021,1.331234,1.276954,-0.321544,1.689979,-1.810168,-0.054614,-2.141423,0.034641,0.642162,-8.303378,4.422782,-0.169963,0.999999,-0.000128,-0.001600,-0.000464,-0.000386,-0.001987,0.000221
4.000000,0.528054,1.999532,0.800803,1.348025,1.258854,-0.322058,1.668151,-1.809601,-0.048202,-2.224066,0.078740,0.640344,-8.216225,4.405366,-0.186219,0.999999,-0.000130,-0.001610,-0.000462,-0.000387,-0.001994,0.000219
4.010000,0.541617,2.012030,0.797580,1.364594,1.240763,-0.322508,1.645501,-1.808594,-0.041808,-2.305701,0.122648,0.638385,-8.123208,4.384630,-0.203128,0.999999,-0.000132,-0.001620,-0.000461,-0.000388,-0.002001,0.000217
4.020000,0.555345,2.024347,0.794353,1.380932,1.222684,-0.322894,1.622039,-1.807148,-0.035434,-2.386636,0.166506,0.636305,-8.050117,4.378252,-0.215184,0.999999,-0.000134,-0.001630,-0.000460,-0.000389,-0.002009,0.000215
4.030000,0.569235,2.036483,0.791122,1.397032,1.204621,-0.323217,1.597772,-1.805265,-0.029082,-2.466416,0.210031,0.634029,-7.904793,4.326151,-0.240262,0.999999,-0.000136,-0.001640,-0.000459,-0.000390,-0.002016,0.000213
4.040000,0.583285,2.048439,0.787889,1.412885,1.186580,-0.323476,1.572715,-1.802949,-0.022754,-2.544976,0.253193,0.631551,-7.819331,4.314355,-0.252843,0.999999,-0.000138,-0.001650,-0.000458,-0.000390,-0.002024,0.000211
4.050000,0.597492,2.060215,0.784653,1.428484,1.168564,-0.323672,1.546876,-1.800201,-0.016452,-2.622677,0.296242,0.628952,-7.707027,4.286621,-0.269576,0.999999,-0.000140,-0.001660,-0.000457,-0.000391,-0.002031,0.000208
4.060000,0.611854,2.071811,0.781415,1.443820,1.150577,-0.323805,1.520266,-1.797025,-0.010176,-2.699082,0.338978,0.626090,-7.589055,4.257842,-0.287857,0.999998,-0.000142,-0.001670,-0.000456,-0.000392,-0.002039,0.000206
4.070000,0.626367,2.083227,0.778177,1.458887,1.132625,-0.323876,1.492897,-1.793423,-0.003929,-2.774587,0.381371,0.623331,-7.495927,4.222864,-0.278285,0.999998,-0.000144,-0.001680,-0.000455,-0.000393,-0.002047,0.000204
4.080000,0.641030,2.094463,0.774938,1.473676,1.114710,-0.323884,1.464779,-1.789398,0.002289,-2.848664,0.423478,0.620222,-7.318207,4.198296,-0.344069,0.999998,-0.000146,-0.001691,-0.000454,-0.000394,-0.002055,0.000202
4.090000,0.655840,2.105521,0.771699,1.488180,1.096838,-0.323830,1.435928,-1.784954,0.008474,-2.921246,0.465285,0.616743,-7.213005,4.160411,-0.337118,0.999998,-0.000148,-0.001701,-0.000453,-0.000395,-0.002063,0.000199
4.100000,0.670793,2.116400,0.768462,1.502392,1.079013,-0.323715,1.406357,-1.780094,0.014624,-2.992779,0.506701,0.613357,-7.077417,4.124905,-0.354471,0.999998,-0.000150,-0.001711,-0.000452,-0.000396,-0.002070,0.000197
4.110000,0.685887,2.127102,0.765225,1.516305,1.061238,-0.323538,1.376078,-1.774822,0.020740,-3.062860,0.547725,0.609798,-6.938199,4.086426,-0.369820,0.999998,-0.000152,-0.001722,-0.000451,-0.000397,-0.002078,0.000195
4.120000,0.701118,2.137625,0.761991,1.529911,1.043518,-0.323300,1.345105,-1.769140,0.026819,-3.131520,0.588479,0.605832,-6.793891,4.058127,-0.410020,0.999998,-0.000154,-0.001732,-0.000450,-0.000398,-0.002086,0.000193
4.130000,0.716484,2.147972,0.758760,1.543204,1.025856,-0.323002,1.313452,-1.763054,0.032857,-3.198739,0.628755,0.601877,-6.649205,3.996654,-0.380483,0.999998,-0.000156,-0.001742,-0.000449,-0.000399,-0.002094,0.000191
4.140000,0.731981,2.158143,0.755531,1.556178,1.008258,-0.322643,1.281135,-1.756567,0.038856,-3.264478,0.668529,0.597954,-6.497236,3.963769,-0.417430,0.999998,-0.000158,-0.001753,-0.000448,-0.000400,-0.002102,0.000188
4.150000,0.747606,2.168137,0.752307,1.568825,0.990726,-0.322225,1.248168,-1.749684,0.044815,-3.328677,0.707976,0.593646,-6.342665,3.919218,-0.431166,0.999998,-0.000160,-0.001764,-0.000447,-0.000401,-0.002110,0.000186
4.160000,0.763356,2.177957,0.749087,1.581139,0.973266,-0.321747,1.214566,-1.742409,0.050729,-3.391337,0.746922,0.589298,-6.184864,3.873045,-0.444899,0.999998,-0.000162,-0.001774,-0.000446,-0.000402,-0.002119,0.000184
4.170000,0.779228,2.187603,0.745872,1.593114,0.955879,-0.321210,1.180347,-1.734747,0.056600,-3.452327,0.785464,0.584689,-6.016329,3.831789,-0.470549,0.999998,-0.000164,-0.001785,-0.000445,-0.000403,-0.002127,0.000182
4.180000,0.795218,2.197075,0.742663,1.604744,0.938572,-0.320615,1.145525,-1.726702,0.062423,-3.511730,0.823483,0.580019,-5.863842,3.771815,-0.463115,0.999998,-0.000166,-0.001795,-0.000445,-0.000404,-0.002136,0.000179
4.190000,0.811322,2.206375,0.739460,1.616023,0.921347,-0.319962,1.110118,-1.718279,0.068200,-3.569517,0.860963,0.575299,-5.689154,3.727196,-0.487216,0.999998,-0.000168,-0.001806,-0.000444,-0.000404,-0.002145,0.000177
4.200000,0.827537,2.215502,0.736264,1.626944,0.904208,-0.319251,1.074141,-1.709484,0.073928,-3.625538,0.897992,0.570331,-5.517901,3.675419,-0.500296,0.999998,-0.000170,-0.001817,-0.000443,-0.000405,-0.002153,0.000175
4.210000,0.843859,2.224459,0.733075,1.637504,0.887158,-0.318483,1.037613,-1.700321,0.079606,-3.679823,0.934525,0.565184,-5.342625,3.623538,-0.515353,0.999998,-0.000172,-0.001828,-0.000442,-0.000406,-0.002162,0.000172
4.220000,0.860286,2.233246,0.729894,1.647695,0.870202,-0.317659,1.000550,-1.690796,0.085232,-3.732416,0.970391,0.560152,-5.171650,3.556544,-0.504417,0.999998,-0.000174,-0.001838,-0.000441,-0.000407,-0.002171,0.000170
4.230000,0.876812,2.241864,0.726722,1.657513,0.853343,-0.316779,0.962970,-1.680915,0.090808,-3.783166,1.005804,0.554813,-4.977709,3.526108,-0.563765,0.999998,-0.000176,-0.001849,-0.000440,-0.000408,-0.002180,0.000168
4.240000,0.893435,2.250313,0.723559,1.666953,0.836585,-0.315843,0.924893,-1.670681,0.096327,-3.832038,1.040763,0.549149,-4.800132,3.458299,-0.555355,0.999998,-0.000178,-0.001860,-0.000439,-0.000409,-0.002188,0.000166
4.250000,0.910150,2.258596,0.720406,1.676009,0.819931,-0.314853,0.886335,-1.660102,0.101791,-3.879127,1.075026,0.543589,-4.613303,3.401520,-0.569996,0.999998,-0.000180,-0.001871,-0.000439,-0.000410,-0.002197,0.000163
4.260000,0.926954,2.266712,0.717262,1.684678,0.803384,-0.313808,0.847317,-1.649182,0.107199,-3.924323,1.108736,0.537850,-4.424212,3.342937,-0.582936,0.999998,-0.000182,-0.001882,-0.000438,-0.000411,-0.002206,0.000161
4.270000,0.943842,2.274664,0.714130,1.692954,0.786948,-0.312709,0.807855,-1.637929,0.112547,-3.967592,1.141905,0.531884,-4.230423,3.288041,-0.605187,0.999998,-0.000184,-0.001893,-0.000437,-0.000412,-0.002215,0.000159
4.280000,0.960811,2.282451,0.711008,1.700834,0.770627,-0.311557,0.767971,-1.626346,0.117836,-4.008947,1.174441,0.525850,-4.040186,3.218996,-0.601455,0.999998,-0.000186,-0.001904,-0.000436,-0.000413,-0.002224,0.000157
4.290000,0.977857,2.290077,0.707899,1.708312,0.754423,-0.310352,0.727683,-1.614442,0.123064,-4.048366,1.206331,0.519756,-3.841953,3.161378,-0.622329,0.999998,-0.000188,-0.001915,-0.000435,-0.000414,-0.002234,0.000154
4.300000,0.994976,2.297540,0.704801,1.715386,0.738339,-0.309096,0.687011,-1.602222,0.128230,-4.085788,1.237645,0.513448,-3.643383,3.098558,-0.634448,0.999998,-0.000190,-0.001927,-0.000435,-0.000416,-0.002243,0.000152
4.310000,1.012164,2.304844,0.701717,1.722051,0.722379,-0.307788,0.645974,-1.589691,0.133333,-4.121221,1.268312,0.507042,-3.442724,3.034834,-0.646727,0.999998,-0.000193,-0.001938,-0.000434,-0.000417,-0.002252,0.000150
4.320000,1.029416,2.311988,0.698646,1.728304,0.706546,-0.306429,0.604593,-1.576858,0.138371,-4.154634,1.298339,0.500513,-3.239729,2.970408,-0.659079,0.999998,-0.000195,-0.001949,-0.000433,-0.000418,-0.002261,0.000148
4.330000,1.046728,2.318975,0.695588,1.734142,0.690843,-0.305021,0.562888,-1.563727,0.143343,-4.186013,1.327714,0.493865,-3.035801,2.904317,-0.670470,0.999998,-0.000197,-0.001961,-0.000432,-0.000419,-0.002271,0.000146
4.340000,1.064097,2.325806,0.692546,1.739561,0.675273,-0.303563,0.520879,-1.550306,0.148248,-4.215340,1.356426,0.487101,-2.829192,2.838057,-0.682381,0.999998,-0.000199,-0.001972,-0.000432,-0.000420,-0.002280,0.000143
4.350000,1.081518,2.332481,0.689517,1.744559,0.659838,-0.302056,0.478588,-1.536600,0.153084,-4.242592,1.384471,0.480219,-2.621202,2.770645,-0.693830,0.999998,-0.000201,-0.001983,-0.000431,-0.000421,-0.002290,0.000141
4.360000,1.098987,2.339003,0.686505,1.749132,0.644542,-0.300501,0.436035,-1.522618,0.157852,-4.267758,1.411837,0.473224,-2.411638,2.702420,-0.705077,0.999998,-0.000203,-0.001995,-0.000430,-0.000422,-0.002299,0.000139
4.370000,1.116499,2.345372,0.683508,1.753278,0.629386,-0.298899,0.393240,-1.508366,0.162549,-4.290820,1.438516,0.466118,-2.200645,2.633346,-0.716112,0.999998,-0.000205,-0.002006,-0.000430,-0.000423,-0.002309,0.000137
4.380000,1.134051,2.351591,0.680527,1.756996,0.614375,-0.297250,0.350225,-1.493850,0.167174,-4.311766,1.464502,0.458903,-1.988186,2.563612,-0.726944,0.999998,-0.000207,-0.002018,-0.000429,-0.000424,-0.002318,0.000135
4.390000,1.151638,2.357660,0.677563,1.760282,0.599510,-0.295556,0.307012,-1.479078,0.171726,-4.330580,1.489785,0.451580,-1.774553,2.493006,-0.737603,0.999998,-0.000209,-0.002029,-0.000428,-0.000426,-0.002328,0.000133
4.400000,1.169255,2.363582,0.674616,1.763136,0.584794,-0.293816,0.263621,-1.464057,0.176205,-4.347253,1.514360,0.444153,-1.559787,2.421739,-0.747892,0.999998,-0.000212,-0.002041,-0.000428,-0.000427,-0.002338,0.000130
4.410000,1.186899,2.369357,0.671686,1.765554,0.570230,-0.292032,0.220074,-1.448794,0.180609,-4.361773,1.538218,0.436623,-1.343940,2.349787,-0.758043,0.999998,-0.000214,-0.002053,-0.000427,-0.000428,-0.002347,0.000128
4.420000,1.204565,2.374987,0.668775,1.767537,0.555819,-0.290204,0.176393,-1.433295,0.184937,-4.374130,1.561353,0.428993,-1.127251,2.277176,-0.767973,0.999998,-0.000216,-0.002065,-0.000426,-0.000429,-0.002357,0.000126
4.430000,1.222249,2.380474,0.665883,1.769082,0.541565,-0.288334,0.132598,-1.417569,0.189188,-4.384314,1.583760,0.421265,-0.909508,2.204056,-0.777665,0.999998,-0.000218,-0.002076,-0.000426,-0.000430,-0.002367,0.000124
4.440000,1.239945,2.385819,0.663009,1.770188,0.527469,-0.286421,0.088713,-1.401622,0.193362,-4.392318,1.605432,0.413440,-0.691320,2.130381,-0.787161,0.999998,-0.000220,-0.002088,-0.000425,-0.000431,-0.002377,0.000122
4.450000,1.257651,2.391024,0.660154,1.770856,0.513533,-0.284467,0.044759,-1.385463,0.197457,-4.398135,1.626360,0.405523,-0.472194,2.055762,-0.796369,0.999998,-0.000222,-0.002100,-0.000424,-0.000433,-0.002387,0.000120
4.460000,1.275361,2.396090,0.657320,1.771083,0.499760,-0.282472,0.000758,-1.369098,0.201472,-4.401759,1.646544,0.397514,-0.252679,1.980864,-0.805371,0.999998,-0.000225,-0.002112,-0.000424,-0.000434,-0.002397,0.000118
4.470000,1.293071,2.401019,0.654505,1.770871,0.486152,-0.280437,-0.043268,-1.352534,0.205407,-4.403188,1.665976,0.389416,-0.032866,1.905469,-0.814142,0.999998,-0.000227,-0.002124,-0.000423,-0.000435,-0.002407,0.000116
4.480000,1.310777,2.405813,0.651711,1.770218,0.472710,-0.278364,-0.087298,-1.335781,0.209260,-4.402414,1.684652,0.381232,0.187623,1.829674,-0.822648,0.999998,-0.000229,-0.002136,-0.000423,-0.000436,-0.002417,0.000113
4.490000,1.328474,2.410474,0.648938,1.769125,0.459437,-0.276252,-0.131309,-1.318844,0.213031,-4.399436,1.702568,0.372964,0.408053,1.753535,-0.830923,0.999998,-0.000231,-0.002148,-0.000422,-0.000438,-0.002427,0.000111
4.500000,1.346158,2.415003,0.646186,1.767592,0.446334,-0.274104,-0.175280,-1.301732,0.216719,-4.394255,1.719716,0.364614,0.628486,1.676628,-0.838997,0.999998,-0.000233,-0.002161,-0.000422,-0.000439,-0.002438,0.000109
4.510000,1.363824,2.419401,0.643456,1.765620,0.433403,-0.271918,-0.219187,-1.284452,0.220323,-4.386870,1.736095,0.356186,0.848988,1.599521,-0.846762,0.999998,-0.000236,-0.002173,-0.000421,-0.000440,-0.002448,0.000107
4.520000,1.381469,2.423671,0.640748,1.763208,0.420645,-0.269697,-0.263010,-1.267012,0.223843,-4.377271,1.751710,0.347676,1.070198,1.522843,-0.854886,0.999997,-0.000238,-0.002185,-0.000421,-0.000441,-0.002458,0.000105
4.530000,1.399087,2.427815,0.638062,1.760360,0.408063,-0.267442,-0.306725,-1.249421,0.227277,-4.365475,1.766543,0.339096,1.289009,1.443796,-0.861130,0.999997,-0.000240,-0.002197,-0.000420,-0.000443,-0.002469,0.000103
4.540000,1.416675,2.431833,0.635399,1.757074,0.395657,-0.265152,-0.350312,-1.231684,0.230624,-4.351484,1.780593,0.330448,1.509643,1.366541,-0.868709,0.999997,-0.000242,-0.002210,-0.000420,-0.000444,-0.002479,0.000101
4.550000,1.434227,2.435729,0.632759,1.753354,0.383430,-0.262830,-0.393748,-1.213811,0.233885,-4.335288,1.793868,0.321726,1.729060,1.288203,-0.875478,0.999997,-0.000244,-0.002222,-0.000419,-0.000445,-0.002490,0.000099
4.560000,1.451740,2.439502,0.630143,1.749200,0.371381,-0.260475,-0.437010,-1.195810,0.237059,-4.316906,1.806356,0.312940,1.947965,1.209730,-0.882002,0.999997,-0.000247,-0.002235,-0.000419,-0.000446,-0.002500,0.000097
4.570000,1.469210,2.443157,0.627550,1.744614,0.359514,-0.258089,-0.480078,-1.177687,0.240144,-4.296325,1.818066,0.304083,2.167499,1.131887,-0.888887,0.999997,-0.000249,-0.002247,-0.000418,-0.000448,-0.002511,0.000095
4.580000,1.486631,2.446693,0.624981,1.739599,0.347828,-0.255672,-0.522930,-1.159451,0.243140,-4.273572,1.828984,0.295169,2.382947,1.051733,-0.893910,0.999997,-0.000251,-0.002260,-0.000418,-0.000449,-0.002522,0.000093
4.590000,1.504000,2.450114,0.622436,1.734157,0.336325,-0.253226,-0.565543,-1.141110,0.246047,-4.248656,1.839108,0.286200,2.600810,0.973474,-0.900289,0.999997,-0.000253,-0.002272,-0.000417,-0.000450,-0.002532,0.000091
4.600000,1.521313,2.453420,0.619916,1.728289,0.325006,-0.250752,-0.607895,-1.122671,0.248864,-4.221565,1.848452,0.277169,2.816655,0.894668,-0.905766,0.999997,-0.000256,-0.002285,-0.000417,-0.000452,-0.002543,0.000089
4.610000,1.538565,2.456615,0.617421,1.722000,0.313872,-0.248249,-0.649967,-1.104143,0.251590,-4.192292,1.857027,0.268066,3.032134,0.816195,-0.911464,0.999997,-0.000258,-0.002298,-0.000416,-0.000453,-0.002554,0.000087
4.620000,1.555751,2.459699,0.614952,1.715291,0.302924,-0.245720,-0.691735,-1.085534,0.254225,-4.160976,1.864738,0.258971,3.236234,0.730040,-0.910685,0.999997,-0.000260,-0.002311,-0.000416,-0.000454,-0.002565,0.000085
4.630000,1.572869,2.462674,0.612507,1.708166,0.292162,-0.243165,-0.733179,-1.066851,0.256769,-4.127460,1.871711,0.249785,3.466890,0.664679,-0.926519,0.999997,-0.000262,-0.002323,-0.000415,-0.000456,-0.002576,0.000083
4.640000,1.589913,2.465542,0.610088,1.700628,0.281587,-0.240585,-0.774276,-1.048102,0.259221,-4.091750,1.877951,0.240507,3.669505,0.579290,-0.925816,0.999997,-0.000265,-0.002336,-0.000415,-0.000457,-0.002587,0.000081
4.650000,1.606880,2.468306,0.607695,1.692682,0.271200,-0.237981,-0.815007,-1.029295,0.261580,-4.054031,1.883335,0.231241,3.879538,0.500988,-0.930429,0.999997,-0.000267,-0.002349,-0.000415,-0.000459,-0.002598,0.000079
4.660000,1.623766,2.470967,0.605329,1.684330,0.261001,-0.235354,-0.855350,-1.010438,0.263845,-4.014221,1.887937,0.221939,4.087129,0.422056,-0.934006,0.999997,-0.000269,-0.002362,-0.000414,-0.000460,-0.002609,0.000077
4.670000,1.640565,2.473527,0.602988,1.675576,0.250991,-0.232704,-0.895284,-0.991538,0.266018,-3.972250,1.891799,0.212524,4.302113,0.347936,-0.945029,0.999997,-0.000272,-0.002375,-0.000414,-0.000462,-0.002620,0.000075
4.680000,1.657276,2.475987,0.600675,1.666425,0.241170,-0.230034,-0.934788,-0.972604,0.268096,-3.928285,1.894844,0.203125,4.490385,0.261021,-0.934627,0.999997,-0.000274,-0.002388,-0.000413,-0.000463,-0.002632,0.000073
4.690000,1.673893,2.478351,0.598388,1.656882,0.231539,-0.227343,-0.973843,-0.953644,0.270080,-3.882352,1.897070,0.193751,4.700566,0.186621,-0.944125,0.999997,-0.000276,-0.002402,-0.000413,-0.000465,-0.002643,0.000071
4.700000,1.690412,2.480619,0.596128,1.646950,0.222098,-0.224632,-1.012428,-0.934666,0.271971,-3.834321,1.898557,0.184275,4.900530,0.108182,-0.946602,0.999997,-0.000279,-0.002415,-0.000413,-0.000466,-0.002654,0.000069
4.710000,1.706830,2.482793,0.593895,1.636635,0.212846,-0.221904,-1.050523,-0.915676,0.273766,-3.784333,1.899214,0.174799,5.098453,0.029396,-0.948903,0.999997,-0.000281,-0.002428,-0.000412,-0.000468,-0.002666,0.000067
4.720000,1.723144,2.484876,0.591690,1.625941,0.203784,-0.219157,-1.088108,-0.896683,0.275467,-3.732344,1.899201,0.165295,5.297278,-0.037811,-0.951476,0.999997,-0.000283,-0.002442,-0.000412,-0.000469,-0.002677,0.000065
4.730000,1.739348,2.486870,0.589512,1.614874,0.194912,-0.216395,-1.125164,-0.877695,0.277072,-3.678430,1.898336,0.155776,5.485111,-0.135435,-0.952275,0.999997,-0.000286,-0.002455,-0.000412,-0.000471,-0.002689,0.000063
4.740000,1.755440,2.488775,0.587362,1.603440,0.186230,-0.213616,-1.161671,-0.858720,0.278582,-3.622617,1.896613,0.146245,5.678674,-0.203057,-0.954287,0.999997,-0.000288,-0.002468,-0.000411,-0.000472,-0.002700,0.000061
4.750000,1.771415,2.490595,0.585240,1.591643,0.177738,-0.210823,-1.197610,-0.839765,0.279997,-3.564875,1.894221,0.136695,5.867188,-0.280708,-0.955425,0.999997,-0.000290,-0.002482,-0.000411,-0.000473,-0.002712,0.000060
4.760000,1.787271,2.492331,0.583146,1.579490,0.169435,-0.208017,-1.232962,-0.820838,0.281316,-3.505239,1.891062,0.127112,6.053652,-0.356655,-0.956877,0.999997,-0.000293,-0.002496,-0.000411,-0.000475,-0.002724,0.000058
4.770000,1.803004,2.493984,0.581080,1.566986,0.161321,-0.205197,-1.267709,-0.801946,0.282539,-3.443867,1.887037,0.117599,6.226132,-0.442768,-0.949780,0.999997,-0.000295,-0.002509,-0.000411,-0.000476,-0.002736,0.000056
4.780000,1.818610,2.495558,0.579042,1.554137,0.153396,-0.202366,-1.301833,-0.783099,0.283668,-3.380603,1.882325,0.108027,6.426165,-0.499375,-0.964852,0.999997,-0.000298,-0.002523,-0.000410,-0.000478,-0.002748,0.000054
4.790000,1.834086,2.497053,0.577032,1.540951,0.145659,-0.199524,-1.335315,-0.764302,0.284700,-3.315471,1.876939,0.098390,6.593832,-0.583273,-0.958019,0.999997,-0.000300,-0.002537,-0.000410,-0.000479,-0.002760,0.000052
4.800000,1.849428,2.498472,0.575051,1.527433,0.138110,-0.196673,-1.368137,-0.745563,0.285636,-3.248688,1.870709,0.088831,6.768076,-0.657160,-0.958169,0.999997,-0.000302,-0.002551,-0.000410,-0.000481,-0.002772,0.000050
4.810000,1.864633,2.499816,0.573099,1.513591,0.130747,-0.193812,-1.400282,-0.726890,0.286476,-3.180158,1.863788,0.079267,6.939312,-0.730124,-0.957578,0.999997,-0.000305,-0.002564,-0.000410,-0.000483,-0.002784,0.000048
4.820000,1.879699,2.501087,0.571175,1.499430,0.123571,-0.190943,-1.431734,-0.708290,0.287221,-3.109874,1.856085,0.069647,7.113383,-0.807732,-0.963037,0.999997,-0.000307,-0.002578,-0.000409,-0.000484,-0.002796,0.000046
4.830000,1.894621,2.502288,0.569280,1.484958,0.116581,-0.188068,-1.462475,-0.689771,0.287869,-3.037977,1.847691,0.060079,7.265424,-0.870956,-0.950389,0.999997,-0.000310,-0.002592,-0.000409,-0.000486,-0.002808,0.000045
4.840000,1.909397,2.503419,0.567414,1.470183,0.109776,-0.185186,-1.492488,-0.671339,0.288423,-2.964507,1.838615,0.050571,7.431515,-0.946768,-0.954452,0.999996,-0.000312,-0.002606,-0.000409,-0.000487,-0.002820,0.000043
4.850000,1.924024,2.504484,0.565576,1.455111,0.103154,-0.182300,-1.521759,-0.653001,0.288880,-2.889384,1.828783,0.041019,7.588320,-1.017181,-0.952415,0.999996,-0.000315,-0.002621,-0.000409,-0.000489,-0.002832,0.000041
4.860000,1.938498,2.505483,0.563768,1.439750,0.096715,-0.179409,-1.550271,-0.634765,0.289243,-2.812729,1.818241,0.031507,7.741366,-1.087577,-0.950221,0.999996,-0.000317,-0.002635,-0.000408,-0.000491,-0.002845,0.000039
4.870000,1.952818,2.506419,0.561988,1.424108,0.090458,-0.176515,-1.578009,-0.616638,0.289511,-2.734574,1.807067,0.022014,7.889523,-1.150517,-0.948141,0.999996,-0.000319,-0.002649,-0.000408,-0.000492,-0.002857,0.000037
4.880000,1.966979,2.507293,0.560238,1.408193,0.084382,-0.173619,-1.604958,-0.598626,0.289683,-2.654941,1.795160,0.012550,8.036405,-1.230969,-0.944570,0.999996,-0.000322,-0.002663,-0.000408,-0.000494,-0.002870,0.000035
4.890000,1.980981,2.508107,0.558516,1.392012,0.078486,-0.170722,-1.631103,-0.580738,0.289762,-2.573870,1.782521,0.003119,8.176640,-1.293122,-0.941845,0.999996,-0.000324,-0.002678,-0.000408,-0.000496,-0.002882,0.000033
4.900000,1.994819,2.508863,0.556823,1.375573,0.072767,-0.167824,-1.656430,-0.562978,0.289746,-2.491421,1.769272,-0.006283,8.313315,-1.360257,-0.938344,0.999996,-0.000327,-0.002692,-0.000408,-0.000498,-0.002895,0.000031
4.910000,2.008491,2.509563,0.555159,1.358886,0.067226,-0.164927,-1.680927,-0.545354,0.289636,-2.407612,1.755337,-0.015655,8.445957,-1.426417,-0.934730,0.999996,-0.000329,-0.002707,-0.000408,-0.000499,-0.002908,0.000030
4.920000,2.021996,2.510208,0.553525,1.341958,0.061860,-0.162032,-1.704578,-0.527873,0.289433,-2.322534,1.740749,-0.024965,8.570708,-1.491218,-0.928482,0.999996,-0.000332,-0.002721,-0.000407,-0.000501,-0.002920,0.000028
4.930000,2.035330,2.510801,0.551919,1.324797,0.056668,-0.159139,-1.727373,-0.510542,0.289137,-2.236175,1.725511,-0.034249,8.700219,-1.556349,-0.928223,0.999996,-0.000334,-0.002736,-0.000407,-0.000503,-0.002933,0.000026
4.940000,2.048491,2.511342,0.550342,1.307413,0.051648,-0.156249,-1.749298,-0.493365,0.288748,-2.148581,1.709630,-0.043504,8.816032,-1.619437,-0.921570,0.999996,-0.000337,-0.002751,-0.000407,-0.000504,-0.002946,0.000024
4.950000,2.061477,2.511834,0.548794,1.289814,0.046800,-0.153364,-1.770341,-0.476351,0.288267,-2.059854,1.693128,-0.052690,8.930232,-1.681544,-0.916728,0.999996,-0.000339,-0.002765,-0.000407,-0.000506,-0.002959,0.000022
4.960000,2.074286,2.512279,0.547274,1.272009,0.042121,-0.150484,-1.790491,-0.459505,0.287695,-1.969999,1.676009,-0.061833,9.039383,-1.742704,-0.911481,0.999996,-0.000342,-0.002780,-0.000407,-0.000509,-0.002972,0.000020
4.970000,2.086917,2.512677,0.545784,1.254007,0.037609,-0.147611,-1.809737,-0.442833,0.287031,-1.879088,1.658270,-0.070916,9.142401,-1.804301,-0.905398,0.999996,-0.000345,-0.002795,-0.000407,-0.000511,-0.002985,0.000018
4.980000,2.099366,2.513031,0.544322,1.235818,0.033263,-0.144744,-1.828069,-0.426341,0.286276,-1.787156,1.639944,-0.079945,9.243186,-1.860639,-0.900361,0.999996,-0.000347,-0.002810,-0.000407,-0.000513,-0.002998,0.000017
4.990000,2.111632,2.513343,0.542889,1.217449,0.029082,-0.141885,-1.845477,-0.410036,0.285432,-1.694254,1.621045,-0.088917,9.335737,-1.919817,-0.893658,0.999996,-0.000350,-0.002825,-0.000407,-0.000514,-0.003011,0.000015
5.000000,2.123714,2.513614,0.541484,1.198911,0.025062,-0.139036,-1.861952,-0.393923,0.284498,-1.600451,1.601557,-0.097820,9.424131,-1.976511,-0.887089,0.999996,-0.000352,-0.002840,-0.000407,-0.000515,-0.003025,0.000013
5.010000,2.135610,2.513845,0.540108,1.180210,0.021203,-0.136195,-1.878848,-0.377870,0.283710,-1.817911,1.612858,-0.053103,3.336990,-1.412407,0.178473,0.999996,-0.000355,-0.002855,-0.000407,-0.000513,-0.003049,0.000011
5.020000,2.147318,2.514038,0.538761,1.161338,0.017504,-0.133362,-1.893940,-0.362106,0.282687,-1.015549,1.521274,-0.183159,102.639980,-11.431523,-16.839473,0.999996,-0.000357,-0.002870,-0.000407,-0.000512,-0.003070,0.000010
5.030000,2.158837,2.514195,0.537441,1.142358,0.013958,-0.130546,-1.901882,-0.347172,0.280515,-0.908955,1.499101,-0.193633,-82.917860,7.157390,15.018475,0.999996,-0.000360,-0.002886,-0.000407,-0.000514,-0.003084,0.000008
5.040000,2.170165,2.514318,0.536150,1.123280,0.010562,-0.127748,-1.915101,-0.331826,0.279327,-1.567463,1.553309,-0.072636,6.457700,-1.863454,-0.297443,0.999996,-0.000363,-0.002901,-0.000407,-0.000518,-0.003092,0.000006
5.050000,2.181302,2.514407,0.534886,1.104056,0.007321,-0.124959,-1.928997,-0.316533,0.278336,-1.243822,1.508434,-0.119968,3.575961,-1.618702,0.215479,0.999996,-0.000365,-0.002917,-0.000407,-0.000525,-0.003093,0.000004
5.060000,2.192246,2.514465,0.533650,1.084722,0.004229,-0.122185,-1.934476,-0.302212,0.275976,0.345233,1.335716,-0.386138,36.189302,-4.943727,-5.399958,0.999996,-0.000368,-0.002932,-0.000406,-0.000541,-0.003019,0.000002
5.070000,2.202996,2.514492,0.532442,1.065363,0.001276,-0.119438,-1.943599,-0.287655,0.274331,-3.077815,1.666976,0.214056,-450.864947,44.030387,78.791061,0.999996,-0.000371,-0.002948,-0.000407,-0.000555,-0.002970,-0.000000
5.080000,2.213552,2.514491,0.531262,1.045732,-0.001513,-0.116677,-1.982387,-0.270247,0.277900,-3.006040,1.646110,0.210529,473.485877,-49.035351,-80.924631,0.999995,-0.000374,-0.002963,-0.000407,-0.000561,-0.002970,-0.000003
5.090000,2.223910,2.514462,0.530109,1.025842,-0.004142,-0.113902,-1.988722,-0.256244,0.275950,0.925572,1.236395,-0.459779,39.944061,-5.444075,-5.977218,0.999995,-0.000376,-0.002979,-0.000407,-0.000555,-0.003035,-0.000004
5.100000,2.234069,2.514408,0.528983,1.005985,-0.006641,-0.111163,-1.984495,-0.243446,0.272268,0.097402,1.305305,-0.307264,65.490588,-8.053271,-10.363459,0.999995,-0.000379,-0.002995,-0.000407,-0.000534,-0.003162,-0.000005
5.110000,2.244030,2.514330,0.527885,0.986124,-0.009008,-0.108452,-1.992232,-0.229588,0.270759,-1.984759,1.500405,0.064455,14.817455,-2.983126,-1.531635,0.999995,-0.000381,-0.003012,-0.000407,-0.000486,-0.003557,-0.000008
5.120000,2.253791,2.514229,0.526814,0.966173,-0.011237,-0.105753,-1.985522,-0.217335,0.266845,4.958536,0.785650,-1.130390,890.807516,-91.292288,-153.578433,0.999995,-0.000383,-0.003031,-0.000407,-0.000422,-0.003881,-0.000007
5.130000,2.263354,2.514106,0.525770,0.946653,-0.013380,-0.103156,-1.917328,-0.211431,0.252365,5.691682,0.696344,-1.246770,-759.515070,74.976527,132.964555,0.999995,-0.000385,-0.003049,-0.000407,-0.000345,-0.004019,-0.000001
5.140000,2.272726,2.513961,0.524751,0.927629,-0.015446,-0.100671,-1.898488,-0.200709,0.246564,-0.471420,1.301630,-0.165594,14.100446,-3.014980,-1.313221,0.999995,-0.000386,-0.003065,-0.000406,-0.000260,-0.003867,0.000011
5.150000,2.281907,2.513797,0.523756,0.908663,-0.017392,-0.098221,-1.890013,-0.189102,0.242675,1.839243,1.052677,-0.555265,-37.351637,2.136564,7.645548,0.999995,-0.000387,-0.003076,-0.000406,-0.000173,-0.003351,0.000030
5.160000,2.290900,2.513614,0.522786,0.889865,-0.019232,-0.095823,-1.867115,-0.179112,0.236396,2.902741,0.928972,-0.728770,-24.848335,0.841797,5.485688,0.999995,-0.000388,-0.003082,-0.000406,-0.000091,-0.002051,0.000064
5.170000,2.299705,2.513413,0.521840,0.871297,-0.020973,-0.093488,-1.853869,-0.168315,0.231913,-1.181001,1.323949,-0.006509,-524.166291,51.156891,92.380502,0.999995,-0.000388,-0.003084,-0.000405,-0.000016,-0.000525,0.000101
5.180000,2.308325,2.513195,0.520917,0.852645,-0.022585,-0.091160,-1.877743,-0.153944,0.234006,-1.959331,1.385297,0.140731,377.405482,-39.785036,-64.482484,0.999995,-0.000388,-0.003083,-0.000405,0.000049,0.001033,0.000137
5.190000,2.316758,2.512962,0.520017,0.833837,-0.024062,-0.088824,-1.878579,-0.142069,0.232209,0.972446,1.072217,-0.357493,-60.266521,4.315522,11.681034,0.999995,-0.000388,-0.003080,-0.000404,0.000101,0.002417,0.000168
5.200000,2.325002,2.512714,0.519140,0.815068,-0.025426,-0.086514,-1.878891,-0.130424,0.230440,-0.863120,1.239537,-0.026126,-37.408810,1.979752,7.709664,0.999995,-0.000388,-0.003075,-0.000403,0.000139,0.003444,0.000191
5.210000,2.333059,2.512453,0.518286,0.796247,-0.026670,-0.084213,-1.882576,-0.118617,0.229378,0.332358,1.100916,-0.222115,1.483489,-1.972119,0.945816,0.999995,-0.000387,-0.003067,-0.000403,0.000159,0.003538,0.000194
5.220000,2.340927,2.512181,0.517456,0.777401,-0.027797,-0.081924,-1.893293,-0.106284,0.229660,-3.361589,1.455021,0.432679,-472.904143,45.833215,83.490327,0.999995,-0.000387,-0.003055,-0.000402,0.000166,0.003209,0.000187
5.230000,2.348606,2.511898,0.516648,0.758256,-0.028783,-0.079598,-1.936028,-0.090907,0.235634,-3.514198,1.451747,0.471275,450.680009,-47.324652,-77.215223,0.999995,-0.000386,-0.003042,-0.000401,0.000164,0.002580,0.000174
5.240000,2.356091,2.511606,0.515864,0.738800,-0.029628,-0.077231,-1.948434,-0.078777,0.236451,0.242765,1.053970,-0.170424,30.645260,-4.998507,-4.133227,0.999995,-0.000385,-0.003029,-0.000400,0.000156,0.001806,0.000157
5.250000,2.363382,2.511306,0.515103,0.719311,-0.030362,-0.074872,-1.951273,-0.067802,0.235723,-0.619198,1.121673,-0.008482,65.306093,-8.519917,-10.170879,0.999995,-0.000384,-0.003019,-0.000399,0.000146,0.001048,0.000140
5.260000,2.370477,2.510999,0.514366,0.699747,-0.030982,-0.072512,-1.966030,-0.055820,0.237183,-2.656654,1.307461,0.356838,23.919762,-4.376171,-3.000231,0.999995,-0.000384,-0.003012,-0.000399,0.000141,0.000757,0.000133
5.270000,2.377376,2.510687,0.513653,0.680026,-0.031483,-0.070134,-1.965433,-0.045581,0.236093,4.423040,0.574260,-0.860816,908.913393,-93.581589,-156.658536,0.999995,-0.000383,-0.003006,-0.000398,0.000138,0.000637,0.000129
5.280000,2.384079,2.510369,0.512963,0.660683,-0.031919,-0.067832,-1.901545,-0.041919,0.224129,5.380001,0.457795,-1.015649,-732.976027,71.846261,128.375121,0.999995,-0.000382,-0.003002,-0.000397,0.000136,0.000665,0.000128
5.290000,2.390591,2.510048,0.512296,0.641807,-0.032303,-0.065619,-1.884364,-0.033752,0.220385,-0.478956,1.027934,0.012688,48.225632,-6.896941,-7.262772,0.999995,-0.000381,-0.002998,-0.000397,0.000136,0.000797,0.000129
5.300000,2.396915,2.509724,0.511651,0.622987,-0.032594,-0.063422,-1.874146,-0.025087,0.217962,2.206282,0.736869,-0.442462,3.225652,-2.382588,0.537513,0.999995,-0.000381,-0.002994,-0.000396,0.000136,0.000975,0.000131
5.310000,2.403052,2.509397,0.511028,0.604374,-0.032810,-0.061268,-1.845389,-0.018496,0.212435,3.717652,0.564097,-0.692706,21.073626,-4.196739,-2.547449,0.999995,-0.000380,-0.002989,-0.000395,0.000135,0.001006,0.000130
5.320000,2.409004,2.509068,0.510425,0.586071,-0.032964,-0.059172,-1.821781,-0.011593,0.207908,0.072867,0.910025,-0.051888,-479.875223,46.197273,84.024192,0.999995,-0.000379,-0.002984,-0.000395,0.000133,0.001012,0.000129
5.330000,2.414773,2.508738,0.509844,0.567811,-0.033030,-0.057087,-1.830724,-0.001625,0.209115,-0.207932,0.917290,0.007583,432.346945,-45.612529,-73.621747,0.999995,-0.000379,-0.002979,-0.000394,0.000131,0.000993,0.000127
5.340000,2.420360,2.508407,0.509284,0.549569,-0.033008,-0.055009,-1.811305,0.005279,0.205531,3.262193,0.546971,-0.581165,-10.705388,-1.041630,2.944025,0.999995,-0.000378,-0.002975,-0.000393,0.000129,0.000954,0.000124
5.350000,2.425766,2.508078,0.508744,0.531595,-0.032926,-0.052978,-1.786361,0.011415,0.201100,1.894238,0.663377,-0.333826,8.843324,-3.020361,-0.435444,0.999995,-0.000377,-0.002970,-0.000393,0.000126,0.000904,0.000122
5.360000,2.430993,2.507749,0.508224,0.513824,-0.032779,-0.050983,-1.768302,0.018031,0.197968,1.682113,0.663294,-0.286635,4.960899,-2.641280,0.225529,0.999995,-0.000377,-0.002966,-0.000392,0.000125,0.000887,0.000120
5.370000,2.436043,2.507422,0.507724,0.496234,-0.032567,-0.049019,-1.748279,0.024235,0.194606,2.510628,0.558633,-0.418057,106.170204,-12.811827,-17.146559,0.999995,-0.000376,-0.002961,-0.000392,0.000123,0.000871,0.000118
5.380000,2.440918,2.507098,0.507244,0.478887,-0.032298,-0.047096,-1.720758,0.029471,0.190064,2.659643,0.522105,-0.432959,-78.088742,5.679271,14.461466,0.999995,-0.000376,-0.002957,-0.000391,0.000121,0.000857,0.000116
5.390000,2.445621,2.506777,0.506782,0.461799,-0.031976,-0.045214,-1.698038,0.034973,0.186453,2.052338,0.561435,-0.318171,11.696573,-3.341757,-0.952928,0.999995,-0.000375,-0.002953,-0.000390,0.000119,0.000845,0.000114
5.400000,2.450155,2.506459,0.506339,0.444928,-0.031599,-0.043366,-1.675482,0.040275,0.182975,2.425565,0.502265,-0.371716,8.027782,-2.978478,-0.333253,0.999996,-0.000374,-0.002948,-0.000390,0.000117,0.000835,0.000113
5.410000,2.454521,2.506145,0.505915,0.428295,-0.031172,-0.041555,-1.650828,0.045149,0.179241,2.504885,0.472548,-0.374935,7.836016,-2.963234,-0.311431,0.999996,-0.000374,-0.002944,-0.000389,0.000115,0.000821,0.000111
5.420000,2.458721,2.505835,0.505508,0.411914,-0.030697,-0.039782,-1.625390,0.049727,0.175477,2.582265,0.443021,-0.377953,7.637107,-2.943003,-0.291016,0.999996,-0.000373,-0.002940,-0.000389,0.000113,0.000807,0.000109
5.430000,2.462760,2.505531,0.505119,0.395790,-0.030178,-0.038046,-1.599190,0.054010,0.171683,2.657567,0.413668,-0.380734,7.421600,-2.927281,-0.265207,0.999996,-0.000373,-0.002936,-0.000388,0.000111,0.000793,0.000107
5.440000,2.466638,2.505232,0.504747,0.379932,-0.029618,-0.036348,-1.572246,0.058001,0.167863,2.730692,0.384511,-0.383275,7.203079,-2.902328,-0.243768,0.999996,-0.000372,-0.002932,-0.000388,0.000109,0.000779,0.000105
5.450000,2.470359,2.504939,0.504392,0.364348,-0.029019,-0.034689,-1.544583,0.061701,0.164018,2.801575,0.355616,-0.385600,6.971616,-2.877351,-0.220268,0.999996,-0.000372,-0.002928,-0.000387,0.000107,0.000765,0.000103
5.460000,2.473926,2.504652,0.504053,0.349043,-0.028385,-0.033068,-1.516223,0.065114,0.160152,2.870106,0.326996,-0.387688,6.730879,-2.849267,-0.196502,0.999996,-0.000371,-0.002925,-0.000387,0.000105,0.000752,0.000102
5.470000,2.477341,2.504371,0.503730,0.334025,-0.027718,-0.031486,-1.487189,0.068242,0.156265,2.936139,0.298610,-0.389522,6.476115,-2.824503,-0.171059,0.999996,-0.000371,-0.002921,-0.000386,0.000103,0.000738,0.000100
5.480000,2.480608,2.504097,0.503423,0.319301,-0.027021,-0.029943,-1.457508,0.071087,0.152362,2.999637,0.270579,-0.391121,6.221731,-2.781171,-0.148670,0.999996,-0.000370,-0.002917,-0.000386,0.000101,0.000724,0.000098
