time,x,y,z,vx,vy,vz,ax,ay,az,jx,jy,jz,sx,sy,sz,roll,pitch,yaw,p,q,r
0.000000,-3.020430,0.824959,-1.320450,-0.003016,-0.002195,-0.021747,0.105596,-0.006460,0.005331,4.921280,-0.287510,0.689545,-25.046320,3.831780,36.762377,-0.000659,-0.010770,0.000000,-0.029365,-0.502631,-0.000000
0.010000,-3.020460,0.824937,-1.320668,-0.001960,-0.002259,-0.021694,0.154808,-0.009335,0.012226,4.670817,-0.249193,1.057169,-150.545000,13.174549,32.815605,-0.000953,-0.015799,0.000000,-0.025526,-0.478307,-0.000000
0.020000,-3.020469,0.824914,-1.320884,0.000080,-0.002381,-0.021503,0.199012,-0.011444,0.026474,1.910380,-0.024019,1.345857,-244.834821,20.998175,1.155835,-0.001169,-0.020339,0.000000,-0.002611,-0.197981,0.000000
0.030000,-3.020459,0.824890,-1.321098,0.002020,-0.002488,-0.021164,0.193016,-0.009816,0.039143,-0.225880,0.170771,1.080286,-72.165221,10.378471,-30.348344,-0.001004,-0.019752,0.000000,0.017363,0.020925,0.000000
0.040000,-3.020429,0.824864,-1.321308,0.003940,-0.002578,-0.020720,0.194494,-0.008029,0.048080,0.467075,0.183550,0.738890,64.103367,0.985321,-31.145482,-0.000822,-0.019921,0.000000,0.018737,-0.049335,0.000000
0.050000,-3.020380,0.824838,-1.321512,0.005910,-0.002649,-0.020203,0.202357,-0.006145,0.053921,1.056188,0.190477,0.457376,54.216187,0.432222,-25.532684,-0.000630,-0.020739,0.000000,0.019492,-0.109185,0.000000
0.060000,-3.020311,0.824811,-1.321712,0.007987,-0.002701,-0.019641,0.215618,-0.004219,0.057227,1.551399,0.192195,0.228237,45.296944,-0.058463,-20.646353,-0.000432,-0.022105,0.000000,0.019693,-0.159512,0.000000
0.070000,-3.020220,0.824784,-1.321905,0.010222,-0.002733,-0.019058,0.233385,-0.002301,0.058486,1.962126,0.189308,0.044449,37.292921,-0.490222,-16.438263,-0.000236,-0.023929,0.000000,0.019408,-0.201206,0.000000
0.080000,-3.020106,0.824757,-1.322093,0.012655,-0.002747,-0.018472,0.254861,-0.000433,0.058116,2.297258,0.182390,-0.100529,30.151325,-0.866534,-12.860183,-0.000044,-0.026129,0.000000,0.018697,-0.235141,0.000000
0.090000,-3.019967,0.824729,-1.322275,0.015319,-0.002742,-0.017896,0.279331,0.001347,0.056475,2.565153,0.171977,-0.212755,23.819440,-1.190884,-9.863881,0.000138,-0.028631,0.000000,0.017621,-0.262158,0.000000
0.100000,-3.019800,0.824702,-1.322451,0.018242,-0.002720,-0.017342,0.306164,0.003007,0.053861,2.773646,0.158572,-0.297806,18.244569,-1.466761,-7.401123,0.000308,-0.031371,0.000000,0.016233,-0.283061,0.000000
0.110000,-3.019602,0.824675,-1.322621,0.021443,-0.002682,-0.016819,0.334804,0.004518,0.050519,2.930044,0.142642,-0.360777,13.373957,-1.697646,-5.423691,0.000463,-0.034292,0.000000,0.014585,-0.298606,-0.000000
0.120000,-3.019371,0.824648,-1.322787,0.024938,-0.002629,-0.016332,0.364765,0.005860,0.046646,3.041125,0.124619,-0.406280,9.154808,-1.887040,-3.883337,0.000600,-0.037343,0.000000,0.012723,-0.309497,0.000000
0.130000,-3.019103,0.824622,-1.322948,0.028738,-0.002565,-0.015886,0.395626,0.007011,0.042394,3.113140,0.104901,-0.438444,5.534419,-2.038425,-2.731829,0.000717,-0.040482,0.000000,0.010690,-0.316384,-0.000000
0.140000,-3.018796,0.824597,-1.323105,0.032850,-0.002489,-0.015484,0.427027,0.007958,0.037877,3.151814,0.083851,-0.460917,2.460222,-2.155234,-1.921011,0.000814,-0.043671,0.000000,0.008523,-0.319859,-0.000000
0.150000,-3.018446,0.824572,-1.323258,0.037279,-0.002405,-0.015128,0.458662,0.008688,0.033175,3.162345,0.061797,-0.476864,-0.120655,-2.240996,-1.402595,0.000888,-0.046879,0.000000,0.006257,-0.320460,0.000000
0.160000,-3.018051,0.824549,-1.323407,0.042024,-0.002315,-0.014820,0.490274,0.009193,0.028340,3.149401,0.039031,-0.488968,-2.261149,-2.299261,-1.128270,0.000939,-0.050080,0.000000,0.003923,-0.318664,-0.000000
0.170000,-3.017606,0.824526,-1.323554,0.047084,-0.002221,-0.014561,0.521650,0.009469,0.023396,3.117122,0.015812,-0.499430,-4.019599,-2.333971,-1.042314,0.000966,-0.053252,0.000000,0.001548,-0.314894,0.000000
0.180000,-3.017109,0.824504,-1.323699,0.052457,-0.002126,-0.014352,0.552617,0.009510,0.018351,3.069009,-0.007648,-0.509815,-5.550971,-2.357977,-0.963726,0.000970,-0.056378,0.000000,-0.000847,-0.309507,0.000000
0.190000,-3.016557,0.824484,-1.323841,0.058136,-0.002031,-0.014194,0.583031,0.009316,0.013200,3.006102,-0.031348,-0.518704,-6.872809,-2.371580,-0.890124,0.000949,-0.059442,0.000000,-0.003262,-0.302622,0.000000
0.200000,-3.015946,0.824464,-1.323983,0.064117,-0.001940,-0.014088,0.612739,0.008883,0.007977,2.931553,-0.055080,-0.527617,-7.282835,-2.308946,-1.753176,0.000904,-0.062430,0.000000,-0.005674,-0.294560,0.000000
0.210000,-3.015275,0.824445,-1.324123,0.070391,-0.001854,-0.014035,0.641662,0.008214,0.002647,2.860446,-0.077527,-0.553768,-6.914609,-2.180961,-3.399674,0.000836,-0.065333,0.000000,-0.007951,-0.286742,-0.000000
0.220000,-3.014539,0.824427,-1.324263,0.076950,-0.001775,-0.014035,0.669948,0.007332,-0.003098,2.793260,-0.098699,-0.595611,-7.986659,-2.189877,-2.971899,0.000745,-0.068165,0.000000,-0.010094,-0.279201,0.000000
0.230000,-3.013736,0.824409,-1.324404,0.083790,-0.001707,-0.014097,0.697527,0.006240,-0.009265,2.700713,-0.121324,-0.613206,-10.607075,-2.342828,-0.373575,0.000634,-0.070917,0.000000,-0.012376,-0.269247,-0.000000
0.240000,-3.012863,0.824392,-1.324545,0.090901,-0.001651,-0.014221,0.723962,0.004906,-0.015363,2.581119,-0.145556,-0.603082,-11.817513,-2.367344,0.543852,0.000498,-0.073550,0.000000,-0.014814,-0.256783,0.000000
0.250000,-3.011918,0.824376,-1.324688,0.098269,-0.001609,-0.014404,0.749149,0.003329,-0.021327,2.464362,-0.168671,-0.602328,-11.236001,-2.237628,-0.560135,0.000338,-0.076053,0.000000,-0.017134,-0.244576,0.000000
0.260000,-3.010897,0.824360,-1.324833,0.105884,-0.001584,-0.014647,0.773249,0.001532,-0.027409,2.356399,-0.190308,-0.614285,-10.923435,-2.140405,-1.049825,0.000155,-0.078442,0.000000,-0.019298,-0.233186,-0.000000
0.270000,-3.009800,0.824345,-1.324981,0.113734,-0.001578,-0.014952,0.796277,-0.000477,-0.033612,2.245894,-0.211479,-0.623325,-11.428508,-2.094108,-0.737085,-0.000048,-0.080717,0.000000,-0.021410,-0.221585,0.000000
0.280000,-3.008623,0.824329,-1.325132,0.121810,-0.001594,-0.015319,0.818167,-0.002697,-0.039876,2.127829,-0.232190,-0.629027,-12.080492,-2.033598,-0.535236,-0.000273,-0.082873,0.000000,-0.023470,-0.209277,0.000000
0.290000,-3.007364,0.824313,-1.325287,0.130098,-0.001632,-0.015750,0.838834,-0.005121,-0.046193,2.004284,-0.252151,-0.634030,-12.347137,-1.951553,-0.452332,-0.000518,-0.084903,0.000000,-0.025449,-0.196455,0.000000
0.300000,-3.006021,0.824296,-1.325447,0.138586,-0.001696,-0.016243,0.858253,-0.007740,-0.052556,1.880886,-0.271222,-0.638073,-12.219033,-1.862342,-0.347889,-0.000782,-0.086803,0.000000,-0.027333,-0.183689,-0.000000
0.310000,-3.004592,0.824279,-1.325612,0.147263,-0.001787,-0.016801,0.876451,-0.010546,-0.058954,1.759903,-0.289398,-0.640987,-12.055305,-1.768184,-0.250217,-0.001064,-0.088577,0.000000,-0.029124,-0.171209,0.000000
0.320000,-3.003075,0.824260,-1.325783,0.156115,-0.001907,-0.017422,0.893451,-0.013528,-0.065376,1.639780,-0.306585,-0.643078,-12.090311,-1.652191,-0.197021,-0.001364,-0.090227,0.000000,-0.030811,-0.158855,-0.000000
0.330000,-3.001470,0.824241,-1.325961,0.165132,-0.002058,-0.018108,0.909247,-0.016677,-0.071816,1.518097,-0.322442,-0.644928,-12.225353,-1.512477,-0.178290,-0.001681,-0.091754,0.000000,-0.032360,-0.146381,-0.000000
0.340000,-2.999773,0.824219,-1.326145,0.174300,-0.002240,-0.018859,0.923813,-0.019977,-0.078275,1.395273,-0.336835,-0.646643,-12.186823,-1.372835,-0.145310,-0.002012,-0.093155,0.000000,-0.033760,-0.133826,0.000000
0.350000,-2.997984,0.824196,-1.326338,0.183608,-0.002457,-0.019674,0.937152,-0.023414,-0.084749,1.274360,-0.349899,-0.647834,-11.929567,-1.241160,-0.088366,-0.002356,-0.094430,0.000000,-0.035023,-0.121500,0.000000
0.360000,-2.996101,0.824170,-1.326539,0.193043,-0.002709,-0.020554,0.949300,-0.026975,-0.091231,1.156681,-0.361658,-0.648411,-11.648709,-1.101171,-0.040265,-0.002712,-0.095585,0.000000,-0.036153,-0.109536,0.000000
0.370000,-2.994123,0.824142,-1.326749,0.202594,-0.002997,-0.021498,0.960286,-0.030647,-0.097717,1.041386,-0.371922,-0.648639,-11.484561,-0.936310,-0.022393,-0.003079,-0.096621,0.000000,-0.037132,-0.097844,0.000000
0.380000,-2.992049,0.824110,-1.326969,0.212249,-0.003322,-0.022508,0.970128,-0.034414,-0.104204,0.926990,-0.380384,-0.648859,-11.384146,-0.751656,-0.023793,-0.003455,-0.097542,0.000000,-0.037930,-0.086270,0.000000
0.390000,-2.989878,0.824075,-1.327199,0.221997,-0.003685,-0.023583,0.978826,-0.038255,-0.110694,0.813703,-0.386955,-0.649115,-11.182011,-0.569402,-0.016945,-0.003837,-0.098347,0.000000,-0.038536,-0.074836,0.000000
0.400000,-2.987609,0.824036,-1.327441,0.231825,-0.004087,-0.024722,0.986402,-0.042153,-0.117186,0.703350,-0.391772,-0.649197,-10.849781,-0.394407,0.001636,-0.004225,-0.099039,0.000000,-0.038967,-0.063723,0.000000
0.410000,-2.985241,0.823993,-1.327694,0.241725,-0.004528,-0.025926,0.992893,-0.046090,-0.123678,0.596708,-0.394843,-0.649083,-10.505633,-0.212332,0.014550,-0.004617,-0.099621,0.000000,-0.039224,-0.053008,0.000000
0.420000,-2.982774,0.823946,-1.327959,0.251683,-0.005009,-0.027196,0.998336,-0.050050,-0.130168,0.493237,-0.396019,-0.648906,-10.234740,-0.013468,0.015453,-0.005010,-0.100099,0.000000,-0.039291,-0.042634,-0.000000
0.430000,-2.980208,0.823893,-1.328238,0.261691,-0.005529,-0.028530,1.002758,-0.054011,-0.136656,0.392013,-0.395113,-0.648773,-10.004926,0.196901,0.011314,-0.005403,-0.100474,0.000000,-0.039152,-0.032505,-0.000000
0.440000,-2.977541,0.823835,-1.328530,0.271738,-0.006089,-0.029929,1.006176,-0.057952,-0.143143,0.293139,-0.392081,-0.648680,-9.715639,0.405395,0.010853,-0.005793,-0.100749,0.000000,-0.038801,-0.022632,0.000000
0.450000,-2.974773,0.823771,-1.328836,0.281815,-0.006688,-0.031393,1.008620,-0.061852,-0.149630,0.197700,-0.387005,-0.648556,-9.349957,0.610160,0.013103,-0.006179,-0.100927,0.000000,-0.038248,-0.013121,0.000000
0.460000,-2.971904,0.823702,-1.329158,0.291911,-0.007326,-0.032921,1.010130,-0.065692,-0.156115,0.106140,-0.379878,-0.648418,-8.979596,0.819066,0.013790,-0.006558,-0.101012,0.000000,-0.037492,-0.004014,0.000000
0.470000,-2.968935,0.823625,-1.329495,0.302017,-0.008002,-0.034515,1.010743,-0.069450,-0.162598,0.018108,-0.370624,-0.648281,-8.655169,1.034190,0.017969,-0.006928,-0.101007,0.000000,-0.036526,0.004724,0.000000
0.480000,-2.965864,0.823541,-1.329848,0.312126,-0.008715,-0.036173,1.010492,-0.073104,-0.169080,-0.066964,-0.359194,-0.648059,-8.357074,1.251809,0.028836,-0.007288,-0.100917,0.000000,-0.035346,0.013151,0.000000
0.490000,-2.962692,0.823451,-1.330218,0.322227,-0.009464,-0.037896,1.009404,-0.076634,-0.175559,-0.149033,-0.345587,-0.647704,-8.025681,1.468240,0.040659,-0.007635,-0.100744,0.000000,-0.033952,0.021264,0.000000
0.500000,-2.959419,0.823352,-1.330606,0.332314,-0.010248,-0.039684,1.007512,-0.080016,-0.182034,-0.227477,-0.329829,-0.647246,-7.650802,1.684030,0.049437,-0.007967,-0.100492,0.000000,-0.032348,0.029002,0.000000
0.510000,-2.956046,0.823246,-1.331012,0.342378,-0.011064,-0.041537,1.004854,-0.083230,-0.188504,-0.302049,-0.311907,-0.646715,-7.274979,1.900282,0.060652,-0.008282,-0.100164,0.000000,-0.030531,0.036342,0.000000
0.520000,-2.952572,0.823131,-1.331436,0.352411,-0.011912,-0.043454,1.001471,-0.086254,-0.194969,-0.372977,-0.291823,-0.646033,-6.928854,2.113156,0.086650,-0.008578,-0.099765,0.000000,-0.028504,0.043307,-0.000000
0.530000,-2.948998,0.823007,-1.331881,0.362407,-0.012789,-0.045436,0.997395,-0.089067,-0.201425,-0.440626,-0.269644,-0.644982,-6.600657,2.320880,0.127540,-0.008852,-0.099298,0.000000,-0.026273,0.049933,0.000000
0.540000,-2.945324,0.822875,-1.332345,0.372359,-0.013693,-0.047483,0.992658,-0.091647,-0.207868,-0.504990,-0.245406,-0.643482,-6.254213,2.527317,0.168135,-0.009104,-0.098766,0.000000,-0.023841,0.056219,0.000000
0.550000,-2.941550,0.822734,-1.332830,0.382260,-0.014622,-0.049594,0.987295,-0.093975,-0.214295,-0.565711,-0.219097,-0.641619,-5.884481,2.734655,0.202733,-0.009329,-0.098174,0.000000,-0.021209,0.062133,0.000000
0.560000,-2.937678,0.822583,-1.333337,0.392105,-0.015573,-0.051769,0.981344,-0.096029,-0.220701,-0.622680,-0.190713,-0.639427,-5.517144,2.938917,0.242953,-0.009528,-0.097524,0.000000,-0.018377,0.067663,0.000000
0.570000,-2.933708,0.822422,-1.333866,0.401887,-0.016543,-0.054008,0.974841,-0.097789,-0.227083,-0.676054,-0.160319,-0.636760,-5.167290,3.132370,0.304641,-0.009697,-0.096820,0.000000,-0.015350,0.072827,-0.000000
0.580000,-2.929641,0.822252,-1.334417,0.411602,-0.017529,-0.056311,0.967823,-0.099235,-0.233436,-0.726025,-0.128065,-0.633334,-4.827921,3.314865,0.385684,-0.009835,-0.096067,0.000000,-0.012145,0.077640,-0.000000
0.590000,-2.925476,0.822072,-1.334992,0.421243,-0.018528,-0.058677,0.960321,-0.100350,-0.239750,-0.772612,-0.094022,-0.629047,-4.481968,3.495350,0.466150,-0.009940,-0.095267,0.000000,-0.008768,0.082106,0.000000
0.600000,-2.921216,0.821881,-1.335591,0.430808,-0.019536,-0.061106,0.952371,-0.101116,-0.246017,-0.815665,-0.058158,-0.624011,-4.125163,3.676998,0.539491,-0.010010,-0.094425,0.000000,-0.005218,0.086211,-0.000000
0.610000,-2.916860,0.821681,-1.336214,0.440291,-0.020550,-0.063597,0.944008,-0.101514,-0.252230,-0.855115,-0.020482,-0.618257,-3.769793,3.852560,0.620120,-0.010044,-0.093543,0.000000,-0.001494,0.089951,-0.000000
0.620000,-2.912410,0.821470,-1.336863,0.449688,-0.021566,-0.066150,0.935268,-0.101526,-0.258382,-0.891061,0.018893,-0.611609,-3.429346,4.012256,0.725333,-0.010040,-0.092626,0.000000,0.002391,0.093334,0.000000
0.630000,-2.907866,0.821250,-1.337537,0.458996,-0.022580,-0.068765,0.926186,-0.101136,-0.264462,-0.923702,0.059763,-0.603750,-3.100788,4.157171,0.851602,-0.009996,-0.091676,0.000000,0.006417,0.096378,-0.000000
0.640000,-2.903230,0.821019,-1.338238,0.468212,-0.023589,-0.071439,0.916794,-0.100330,-0.270457,-0.953076,0.102036,-0.594577,-2.767718,4.299055,0.976709,-0.009912,-0.090698,0.000000,0.010575,0.099087,-0.000000
0.650000,-2.898502,0.820778,-1.338966,0.477332,-0.024587,-0.074174,0.907125,-0.099095,-0.276354,-0.979056,0.145744,-0.584216,-2.427599,4.441244,1.094914,-0.009785,-0.089695,0.000000,0.014868,0.101451,0.000000
0.660000,-2.893683,0.820527,-1.339721,0.486354,-0.025571,-0.076966,0.897213,-0.097415,-0.282141,-1.001628,0.190861,-0.572679,-2.091919,4.574865,1.221589,-0.009614,-0.088669,0.000000,0.019293,0.103470,0.000000
0.670000,-2.888775,0.820266,-1.340505,0.495276,-0.026535,-0.079816,0.887092,-0.095278,-0.287807,-1.020895,0.237242,-0.559784,-1.767206,4.690351,1.370655,-0.009399,-0.087625,0.000000,0.023836,0.105154,0.000000
0.680000,-2.883778,0.819996,-1.341318,0.504096,-0.027476,-0.082723,0.876795,-0.092671,-0.293337,-1.036973,0.284668,-0.545265,-1.450211,4.789548,1.537870,-0.009138,-0.086566,0.000000,0.028476,0.106514,0.000000
0.690000,-2.878693,0.819717,-1.342160,0.512812,-0.028389,-0.085683,0.866353,-0.089584,-0.298713,-1.049899,0.333033,-0.529027,-1.133366,4.884100,1.705158,-0.008829,-0.085495,0.000000,0.033203,0.107552,-0.000000
0.700000,-2.873522,0.819428,-1.343031,0.521423,-0.029268,-0.088697,0.855797,-0.086010,-0.303917,-1.059640,0.382350,-0.511162,-0.814948,4.977452,1.866488,-0.008474,-0.084415,0.000000,0.038018,0.108268,0.000000
0.710000,-2.868265,0.819131,-1.343934,0.529928,-0.030109,-0.091762,0.845160,-0.081937,-0.308936,-1.066198,0.432582,-0.491697,-0.500331,5.061073,2.034035,-0.008069,-0.083329,0.000000,0.042917,0.108664,0.000000
0.720000,-2.862923,0.818826,-1.344867,0.538326,-0.030907,-0.094876,0.834473,-0.077358,-0.313751,-1.069646,0.483572,-0.470482,-0.194962,5.125344,2.222769,-0.007615,-0.082241,0.000000,0.047887,0.108746,0.000000
0.730000,-2.857498,0.818513,-1.345831,0.546618,-0.031656,-0.098037,0.823767,-0.072266,-0.318345,-1.070097,0.535089,-0.447242,0.102485,5.172271,2.429066,-0.007111,-0.081154,0.000000,0.052906,0.108525,-0.000000
0.740000,-2.851991,0.818193,-1.346827,0.554802,-0.032352,-0.101242,0.813071,-0.066656,-0.322696,-1.067597,0.587017,-0.421900,0.398848,5.213923,2.632630,-0.006557,-0.080071,0.000000,0.057961,0.108005,0.000000
0.750000,-2.846402,0.817866,-1.347856,0.562879,-0.032989,-0.104491,0.802415,-0.060526,-0.326783,-1.062120,0.639367,-0.394589,0.695866,5.253256,2.828689,-0.005952,-0.078994,0.000000,0.063056,0.107187,0.000000
0.760000,-2.840733,0.817533,-1.348917,0.570850,-0.033562,-0.107778,0.791829,-0.053869,-0.330588,-1.053679,0.692082,-0.365326,0.988746,5.281742,3.030438,-0.005296,-0.077927,0.000000,0.068187,0.106072,-0.000000
0.770000,-2.834985,0.817195,-1.350012,0.578716,-0.034067,-0.111102,0.781342,-0.046684,-0.334090,-1.042345,0.745002,-0.333980,1.273054,5.291867,3.247369,-0.004588,-0.076873,0.000000,0.073338,0.104668,0.000000
0.780000,-2.829159,0.816852,-1.351139,0.586477,-0.034496,-0.114460,0.770982,-0.038969,-0.337268,-1.028218,0.797920,-0.300379,1.550350,5.286019,3.474792,-0.003829,-0.075834,0.000000,0.078490,0.102983,-0.000000
0.790000,-2.823256,0.816505,-1.352301,0.594135,-0.034846,-0.117848,0.760777,-0.030726,-0.340098,-1.011338,0.850722,-0.264485,1.826229,5.273645,3.699634,-0.003019,-0.074813,0.000000,0.083635,0.101023,0.000000
0.800000,-2.817276,0.816155,-1.353496,0.601693,-0.035111,-0.121262,0.750755,-0.021955,-0.342557,-0.991694,0.903392,-0.226386,2.100335,5.256779,3.919218,-0.002157,-0.073813,0.000000,0.088771,0.098788,0.000000
0.810000,-2.811222,0.815803,-1.354726,0.609150,-0.035285,-0.124699,0.740943,-0.012658,-0.344625,-0.969332,0.955858,-0.186100,2.368978,5.228964,4.141407,-0.001243,-0.072837,0.000000,0.093895,0.096282,0.000000
0.820000,-2.805093,0.815449,-1.355990,0.616511,-0.035364,-0.128154,0.731369,-0.002837,-0.346279,-0.944314,1.007972,-0.143558,2.633847,5.185163,4.370788,-0.000279,-0.071887,0.000000,0.098992,0.093511,-0.000000
0.830000,-2.798891,0.815096,-1.357289,0.623778,-0.035342,-0.131624,0.722057,0.007502,-0.347496,-0.916655,1.059561,-0.098684,2.896232,5.127314,4.604187,0.000737,-0.070967,0.000000,0.104048,0.090478,0.000000
0.840000,-2.792618,0.814743,-1.358623,0.630953,-0.035214,-0.135104,0.713036,0.018354,-0.348253,-0.886390,1.110518,-0.051475,3.153452,5.061852,4.834482,0.001802,-0.070078,0.000000,0.109055,0.087184,0.000000
0.850000,-2.786272,0.814391,-1.359991,0.638039,-0.034975,-0.138589,0.704329,0.029712,-0.348526,-0.853586,1.160798,-0.001995,3.405740,4.990318,5.059068,0.002918,-0.069223,0.000000,0.114010,0.083638,0.000000
0.860000,-2.779857,0.814043,-1.361394,0.645039,-0.034620,-0.142075,0.695964,0.041570,-0.348293,-0.818275,1.210324,0.049707,3.654986,4.908477,5.281665,0.004083,-0.068405,0.000000,0.118908,0.079842,0.000000
0.870000,-2.773372,0.813699,-1.362833,0.651958,-0.034143,-0.145555,0.687964,0.053919,-0.347532,-0.780486,1.258968,0.103638,3.899531,4.812737,5.506906,0.005296,-0.067626,0.000000,0.123739,0.075798,0.000000
0.880000,-2.766818,0.813360,-1.364306,0.658798,-0.033541,-0.149025,0.680354,0.066749,-0.346220,-0.740284,1.306579,0.159845,4.138879,4.704493,5.732766,0.006557,-0.066889,0.000000,0.128490,0.071513,-0.000000
0.890000,-2.760196,0.813028,-1.365813,0.665565,-0.032808,-0.152480,0.673158,0.080050,-0.344335,-0.697708,1.353058,0.218294,4.375357,4.588515,5.951509,0.007866,-0.066196,0.000000,0.133153,0.066989,-0.000000
0.900000,-2.753506,0.812704,-1.367355,0.672262,-0.031940,-0.155912,0.666400,0.093810,-0.341854,-0.652777,1.398349,0.278875,4.607544,4.465776,6.161720,0.009221,-0.065549,0.000000,0.137727,0.062227,-0.000000
0.910000,-2.746750,0.812389,-1.368931,0.678893,-0.030932,-0.159317,0.660103,0.108017,-0.338757,-0.605558,1.442373,0.341528,4.834026,4.333291,6.367353,0.010621,-0.064951,0.000000,0.142204,0.057234,0.000000
0.920000,-2.739928,0.812085,-1.370542,0.685464,-0.029780,-0.162687,0.654289,0.122658,-0.335024,-0.556097,1.485015,0.406222,5.059734,4.189159,6.568490,0.012065,-0.064404,0.000000,0.146577,0.052012,0.000000
0.930000,-2.733041,0.811794,-1.372185,0.691979,-0.028479,-0.166017,0.648981,0.137717,-0.330633,-0.504363,1.526156,0.472898,5.285775,4.034513,6.762530,0.013552,-0.063911,0.000000,0.150837,0.046557,0.000000
0.940000,-2.726089,0.811516,-1.373862,0.698443,-0.027025,-0.169300,0.644202,0.153181,-0.325566,-0.450381,1.565705,0.541473,5.505089,3.872067,6.947985,0.015082,-0.063473,0.000000,0.154975,0.040870,0.000000
0.950000,-2.719072,0.811253,-1.375571,0.704863,-0.025415,-0.172529,0.639973,0.169032,-0.319804,-0.394261,1.603598,0.611858,5.713845,3.702361,7.125603,0.016652,-0.063093,0.000000,0.158989,0.034960,-0.000000
0.960000,-2.711992,0.811008,-1.377312,0.711243,-0.023645,-0.175696,0.636316,0.185253,-0.313329,-0.336104,1.639753,0.683985,5.917042,3.523859,7.294907,0.018262,-0.062774,0.000000,0.162871,0.028835,0.000000
0.970000,-2.704847,0.810780,-1.379085,0.717589,-0.021710,-0.178795,0.633251,0.201827,-0.306124,-0.275920,1.674075,0.757756,6.123763,3.335800,7.451133,0.019909,-0.062517,0.000000,0.166616,0.022494,0.000000
0.980000,-2.697640,0.810573,-1.380888,0.723908,-0.019608,-0.181819,0.630798,0.218734,-0.298173,-0.213629,1.706469,0.833008,6.332991,3.138896,7.592990,0.021594,-0.062324,0.000000,0.170215,0.015926,0.000000
0.990000,-2.690369,0.810388,-1.382721,0.730205,-0.017336,-0.184759,0.628978,0.235956,-0.289464,-0.149260,1.736853,0.909616,6.532296,2.934487,7.725307,0.023314,-0.062198,0.000000,0.173661,0.009132,0.000000
1.000000,-2.683036,0.810227,-1.384584,0.736487,-0.014889,-0.187608,0.627813,0.253471,-0.279981,-0.082983,1.765158,0.987514,6.716636,2.722987,7.849739,0.025067,-0.062141,0.000000,0.176950,0.002126,0.000000
1.010000,-2.675640,0.810090,-1.386474,0.742761,-0.012266,-0.190358,0.627319,0.271259,-0.269713,-0.014928,1.791313,1.066610,6.894402,2.503806,7.961607,0.026853,-0.062156,0.000000,0.180075,-0.005083,0.000000
1.020000,-2.668181,0.809981,-1.388391,0.749034,-0.009464,-0.193002,0.627514,0.289298,-0.258649,0.054905,1.815235,1.146746,7.077471,2.276532,8.054512,0.028669,-0.062243,0.000000,0.183030,-0.012498,0.000000
1.030000,-2.660659,0.809901,-1.390334,0.755312,-0.006480,-0.195531,0.628417,0.307564,-0.246778,0.126622,1.836843,1.227701,7.263459,2.041651,8.128403,0.030514,-0.062406,0.000000,0.185806,-0.020131,0.000000
1.040000,-2.653074,0.809852,-1.392301,0.761602,-0.003313,-0.197938,0.630047,0.326034,-0.234095,0.200174,1.856068,1.309314,7.436041,1.800110,8.190204,0.032385,-0.062646,0.000000,0.188398,-0.027982,0.000000
1.050000,-2.645427,0.809835,-1.394292,0.767912,0.000040,-0.200213,0.632420,0.344685,-0.220592,0.275343,1.872845,1.391505,7.590438,1.551909,8.243547,0.034282,-0.062966,0.000000,0.190799,-0.036032,0.000000
1.060000,-2.637716,0.809853,-1.396306,0.774250,0.003581,-0.202349,0.635553,0.363491,-0.206265,0.351983,1.887106,1.474185,7.737288,1.296773,8.282361,0.036201,-0.063367,0.000000,0.193001,-0.044273,-0.000000
1.070000,-2.629942,0.809906,-1.398339,0.780624,0.007310,-0.204338,0.639460,0.382427,-0.191108,0.430088,1.898781,1.557152,7.886655,1.035524,8.294772,0.038142,-0.063852,0.000000,0.194999,-0.052705,0.000000
1.080000,-2.622104,0.809999,-1.400392,0.787040,0.011230,-0.206172,0.644155,0.401467,-0.175122,0.509716,1.907816,1.640080,8.035154,0.768506,8.280963,0.040102,-0.064422,0.000000,0.196784,-0.061339,-0.000000
1.090000,-2.614201,0.810131,-1.402463,0.793507,0.015340,-0.207841,0.649654,0.420584,-0.158307,0.590791,1.914151,1.722771,8.168720,0.495030,8.255600,0.042078,-0.065080,0.000000,0.198349,-0.070170,0.000000
1.100000,-2.606233,0.810306,-1.404549,0.800033,0.019641,-0.209338,0.655971,0.439750,-0.140666,0.673091,1.917717,1.805192,8.282034,0.215511,8.224752,0.044069,-0.065827,0.000000,0.199686,-0.079181,0.000000
1.110000,-2.598200,0.810524,-1.406650,0.806626,0.024135,-0.210654,0.663116,0.458938,-0.122203,0.756432,1.918461,1.887266,8.383922,-0.069270,8.177275,0.046072,-0.066665,0.000000,0.200788,-0.088358,-0.000000
1.120000,-2.590101,0.810788,-1.408762,0.813295,0.028820,-0.211782,0.671100,0.478119,-0.102921,0.840769,1.916331,1.968738,8.486212,-0.360023,8.096315,0.048085,-0.067596,0.000000,0.201647,-0.097699,-0.000000
1.130000,-2.581934,0.811100,-1.410885,0.820048,0.033697,-0.212713,0.679932,0.497265,-0.082828,0.926156,1.911261,2.049193,8.585861,-0.656908,7.984006,0.050105,-0.068622,0.000000,0.202251,-0.107214,0.000000
1.140000,-2.573700,0.811462,-1.413016,0.826894,0.038765,-0.213438,0.689623,0.516344,-0.061937,1.012486,1.903193,2.128418,8.665811,-0.958388,7.861870,0.052130,-0.069744,0.000000,0.202591,-0.116893,-0.000000
1.150000,-2.565397,0.811876,-1.415154,0.833840,0.044024,-0.213951,0.700181,0.535328,-0.040260,1.099473,1.892093,2.206430,8.721225,-1.263227,7.735838,0.054157,-0.070963,0.000000,0.202660,-0.126714,-0.000000
1.160000,-2.557023,0.812343,-1.417296,0.840897,0.049472,-0.214244,0.711612,0.554186,-0.017809,1.186911,1.877929,2.283135,8.762578,-1.572202,7.590654,0.056183,-0.072282,0.000000,0.202452,-0.136658,0.000000
1.170000,-2.548579,0.812865,-1.419439,0.848073,0.055108,-0.214308,0.723919,0.572887,0.005403,1.274724,1.860649,2.358243,8.798648,-1.887696,7.411525,0.058206,-0.073701,0.000000,0.201956,-0.146722,0.000000
1.180000,-2.540062,0.813445,-1.421582,0.855376,0.060930,-0.214136,0.737107,0.591399,0.029356,1.362884,1.840175,2.431365,8.824275,-2.209248,7.202345,0.060222,-0.075222,0.000000,0.201156,-0.156902,-0.000000
1.190000,-2.531471,0.814084,-1.423722,0.862815,0.066936,-0.213720,0.751177,0.609691,0.054030,1.451210,1.816464,2.502290,8.826609,-2.533094,6.982066,0.062229,-0.076845,0.000000,0.200042,-0.167182,0.000000
1.200000,-2.522805,0.814783,-1.425856,0.870399,0.073123,-0.213055,0.766131,0.627729,0.079402,1.539416,1.789513,2.571006,8.809848,-2.858651,6.756977,0.064223,-0.078572,0.000000,0.198608,-0.177537,0.000000
1.210000,-2.514063,0.815546,-1.427983,0.878137,0.079490,-0.212132,0.781965,0.645481,0.105450,1.627407,1.759291,2.637430,8.780706,-3.188094,6.513926,0.066201,-0.080403,0.000000,0.196846,-0.187958,-0.000000
1.220000,-2.505243,0.816373,-1.430099,0.886038,0.086033,-0.210946,0.798679,0.662914,0.132151,1.715030,1.725751,2.701285,8.722689,-3.521623,6.236680,0.068160,-0.082340,0.000000,0.194742,-0.198430,0.000000
1.230000,-2.496342,0.817267,-1.432202,0.894111,0.092748,-0.209489,0.816266,0.679996,0.159476,1.801860,1.688859,2.762163,8.632365,-3.858620,5.927734,0.070096,-0.084382,0.000000,0.192283,-0.208908,0.000000
1.240000,-2.487360,0.818228,-1.434289,0.902364,0.099633,-0.207756,0.834716,0.696692,0.187394,1.887677,1.648579,2.819840,8.530931,-4.198253,5.609066,0.072006,-0.086529,0.000000,0.189458,-0.219366,0.000000
1.250000,-2.478295,0.819259,-1.436357,0.910805,0.106682,-0.205741,0.854020,0.712967,0.215873,1.972479,1.604893,2.874344,8.415564,-4.536888,5.294492,0.073885,-0.088781,0.000000,0.186257,-0.229806,-0.000000
1.260000,-2.469144,0.820362,-1.438403,0.919444,0.113892,-0.203439,0.874166,0.728789,0.244881,2.055989,1.557841,2.925729,8.270937,-4.874916,4.968714,0.075731,-0.091138,0.000000,0.182677,-0.240198,0.000000
1.270000,-2.459906,0.821537,-1.440425,0.928289,0.121258,-0.200844,0.895139,0.744124,0.274387,2.137898,1.507395,2.973719,8.107801,-5.221814,4.595969,0.077539,-0.093599,0.000000,0.178707,-0.250507,-0.000000
1.280000,-2.450579,0.822787,-1.442420,0.937347,0.128775,-0.197951,0.916924,0.758937,0.304355,2.218145,1.453405,3.017649,7.924477,-5.574743,4.181581,0.079305,-0.096163,0.000000,0.174316,-0.260717,-0.000000
1.290000,-2.441159,0.824113,-1.444385,0.946627,0.136437,-0.194757,0.939502,0.773192,0.334740,2.296387,1.395900,3.057350,7.704756,-5.920673,3.774396,0.081025,-0.098830,0.000000,0.169498,-0.270787,-0.000000
1.300000,-2.431646,0.825516,-1.446315,0.956137,0.144239,-0.191256,0.962851,0.786855,0.365502,2.372240,1.334991,3.093137,7.493375,-6.277558,3.373953,0.082695,-0.101597,0.000000,0.164259,-0.280676,-0.000000
1.310000,-2.422037,0.826998,-1.448210,0.965884,0.152174,-0.187447,0.986947,0.799892,0.396603,2.446255,1.270349,3.124829,7.296556,-6.652130,2.948928,0.084310,-0.104463,0.000000,0.158554,-0.290434,0.000000
1.320000,-2.412328,0.828559,-1.450064,0.975876,0.160236,-0.183324,1.011777,0.812262,0.427999,2.518171,1.201949,3.152115,6.976861,-6.988771,2.512158,0.085866,-0.107427,0.000000,0.152369,-0.300025,0.000000
1.330000,-2.402519,0.830202,-1.451876,0.986120,0.168419,-0.178887,1.037310,0.823931,0.459645,2.585792,1.130574,3.175073,6.526422,-7.287351,2.077721,0.087357,-0.110486,0.000000,0.145781,-0.309212,-0.000000
1.340000,-2.392606,0.831928,-1.453642,0.996622,0.176715,-0.174131,1.063492,0.834874,0.491500,2.648699,1.056202,3.193670,6.135202,-7.623754,1.626438,0.088781,-0.113635,0.000000,0.138779,-0.317940,0.000000
1.350000,-2.382587,0.833737,-1.455359,1.007390,0.185117,-0.169057,1.090284,0.845055,0.523519,2.708496,0.978099,3.207601,5.824888,-7.972823,1.143890,0.090133,-0.116871,0.000000,0.131274,-0.326365,-0.000000
1.360000,-2.372458,0.835630,-1.457023,1.018428,0.193616,-0.163661,1.117662,0.854436,0.555652,2.765197,0.896745,3.216548,5.467624,-8.285887,0.645625,0.091407,-0.120189,0.000000,0.123306,-0.334475,0.000000
1.370000,-2.362218,0.837609,-1.458632,1.029743,0.202205,-0.157944,1.145588,0.862990,0.587850,2.817848,0.812381,3.220514,5.047193,-8.654246,0.167153,0.092599,-0.123588,0.000000,0.114893,-0.342157,0.000000
1.380000,-2.351863,0.839674,-1.460182,1.041340,0.210876,-0.151904,1.174019,0.870683,0.620063,2.866141,0.723660,3.219891,4.610061,-9.099562,-0.294630,0.093704,-0.127062,0.000000,0.105889,-0.349372,-0.000000
1.390000,-2.341391,0.841826,-1.461670,1.053223,0.219619,-0.145542,1.202911,0.877463,0.652247,2.910050,0.630390,3.214621,4.169786,-9.490986,-0.786185,0.094716,-0.130607,0.000000,0.096266,-0.356103,0.000000
1.400000,-2.330799,0.844067,-1.463093,1.065398,0.228425,-0.138859,1.232220,0.883291,0.684355,2.949537,0.533840,3.204167,3.719043,-9.804139,-1.313472,0.095629,-0.134217,0.000000,0.086145,-0.362325,-0.000000
1.410000,-2.320083,0.846395,-1.464447,1.077868,0.237285,-0.131855,1.261902,0.888140,0.716331,2.984431,0.434307,3.188352,3.253181,-10.128092,-1.844488,0.096439,-0.137887,0.000000,0.075553,-0.368004,0.000000
1.420000,-2.309242,0.848812,-1.465730,1.090636,0.246188,-0.124533,1.291909,0.891977,0.748122,3.014600,0.331279,3.167277,2.783929,-10.494672,-2.369450,0.097140,-0.141611,0.000000,0.064431,-0.373111,0.000000
1.430000,-2.298271,0.851319,-1.466938,1.103706,0.255124,-0.116893,1.322194,0.894766,0.779676,3.040109,0.224413,3.140963,2.312970,-10.871291,-2.899937,0.097727,-0.145384,0.000000,0.052736,-0.377638,0.000000
1.440000,-2.287167,0.853915,-1.468068,1.117080,0.264083,-0.108939,1.352711,0.896466,0.810941,3.060860,0.113853,3.109278,1.827893,-11.220020,-3.446036,0.098194,-0.149200,0.000000,0.040478,-0.381557,-0.000000
1.450000,-2.275929,0.856600,-1.469117,1.130760,0.273054,-0.100674,1.383411,0.897043,0.841862,3.076667,0.000013,3.072042,1.345765,-11.548338,-4.000713,0.098536,-0.153052,0.000000,0.027697,-0.384830,0.000000
1.460000,-2.264552,0.859376,-1.470081,1.144748,0.282024,-0.092102,1.414244,0.896466,0.872382,3.087775,-0.117114,3.029264,0.876377,-11.877921,-4.557975,0.098748,-0.156934,0.000000,0.014391,-0.387466,0.000000
1.470000,-2.253034,0.862241,-1.470959,1.159045,0.290983,-0.083226,1.445167,0.894700,0.902447,3.094195,-0.237545,2.980883,0.372981,-12.186587,-5.135888,0.098824,-0.160839,0.000000,0.000555,-0.389450,0.000000
1.480000,-2.241371,0.865195,-1.471746,1.173651,0.299918,-0.074053,1.476128,0.891715,0.932000,3.095235,-0.360846,2.926546,-0.161908,-12.469032,-5.738776,0.098758,-0.164761,0.000000,-0.013766,-0.390683,0.000000
1.490000,-2.229561,0.868239,-1.472440,1.188567,0.308817,-0.064586,1.507071,0.887483,0.960978,3.090956,-0.486926,2.866107,-0.660495,-12.753306,-6.340582,0.098548,-0.168691,0.000000,-0.028562,-0.391153,0.000000
1.500000,-2.217600,0.871372,-1.473038,1.203793,0.317668,-0.054833,1.537947,0.881976,0.989322,3.082025,-0.615912,2.799735,-1.154105,-13.006241,-6.926057,0.098187,-0.172622,0.000000,-0.043844,-0.390917,0.000000
1.510000,-2.205485,0.874593,-1.473536,1.219326,0.326457,-0.044800,1.568712,0.875165,1.016973,3.067874,-0.747051,2.727586,-1.682338,-13.209108,-7.513566,0.097671,-0.176547,0.000000,-0.059522,-0.389903,0.000000
1.520000,-2.193213,0.877901,-1.473934,1.235167,0.335171,-0.034494,1.599305,0.867035,1.043874,3.048378,-0.880094,2.649463,-2.131252,-13.462061,-8.139711,0.096996,-0.180457,0.000000,-0.075565,-0.388075,0.000000
1.530000,-2.180782,0.881296,-1.474226,1.251313,0.343798,-0.023923,1.629679,0.857563,1.069962,3.025249,-1.016292,2.564792,-2.479408,-13.772016,-8.799662,0.096159,-0.184344,0.000000,-0.092115,-0.385596,0.000000
1.540000,-2.168187,0.884777,-1.474412,1.267761,0.352322,-0.013095,1.659810,0.846710,1.095169,2.998790,-1.155534,2.473470,-2.884206,-13.995433,-9.443377,0.095153,-0.188204,0.000000,-0.109154,-0.382483,0.000000
1.550000,-2.155427,0.888342,-1.474488,1.284509,0.360732,-0.002019,1.689655,0.834453,1.119431,2.967565,-1.296201,2.375924,-3.370296,-14.123958,-10.060246,0.093976,-0.192028,0.000000,-0.126485,-0.378572,-0.000000
1.560000,-2.142497,0.891991,-1.474452,1.301554,0.369012,0.009294,1.719161,0.820786,1.142688,2.931384,-1.438013,2.272265,-3.828177,-14.250538,-10.683250,0.092624,-0.195809,0.000000,-0.144064,-0.373832,0.000000
1.570000,-2.129395,0.895723,-1.474302,1.318892,0.377147,0.020835,1.748283,0.805692,1.164877,2.891002,-1.581211,2.162259,-4.224449,-14.355897,-11.331977,0.091094,-0.199537,0.000000,-0.161907,-0.368329,0.000000
1.580000,-2.116119,0.899534,-1.474036,1.336519,0.385125,0.032592,1.776981,0.789161,1.185933,2.846895,-1.725131,2.045626,-4.594680,-14.401274,-11.997416,0.089385,-0.203205,0.000000,-0.179931,-0.362099,0.000000
1.590000,-2.102665,0.903425,-1.473650,1.354432,0.392931,0.044553,1.805221,0.771190,1.205789,2.799108,-1.869237,1.922311,-4.974353,-14.416232,-12.652595,0.087496,-0.206807,0.000000,-0.198057,-0.355136,0.000000
1.600000,-2.089031,0.907393,-1.473145,1.372624,0.400549,0.056707,1.832963,0.751777,1.224379,2.747408,-2.013456,1.792574,-5.369804,-14.420286,-13.273375,0.085424,-0.210335,0.000000,-0.216256,-0.347412,0.000000
1.610000,-2.075213,0.911436,-1.472516,1.391091,0.407966,0.069041,1.860169,0.730921,1.241641,2.691712,-2.157643,1.656843,-5.757640,-14.386656,-13.877459,0.083170,-0.213780,0.000000,-0.234489,-0.338920,0.000000
1.620000,-2.061209,0.915552,-1.471764,1.409827,0.415168,0.081540,1.886798,0.708624,1.257516,2.632255,-2.301189,1.515025,-6.112192,-14.269213,-14.529105,0.080734,-0.217136,0.000000,-0.252666,-0.329682,-0.000000
1.630000,-2.047016,0.919740,-1.470886,1.428827,0.422139,0.094191,1.912814,0.684897,1.271941,2.569468,-2.443027,1.366261,-6.441251,-14.068077,-15.225669,0.078117,-0.220395,0.000000,-0.270652,-0.319719,0.000000
1.640000,-2.032632,0.923995,-1.469880,1.448083,0.428866,0.106979,1.938187,0.659763,1.284841,2.503430,-2.582551,1.210511,-6.778473,-13.840239,-15.875818,0.075322,-0.223549,0.000000,-0.288355,-0.309036,0.000000
1.650000,-2.018054,0.928317,-1.468746,1.467591,0.435334,0.119888,1.962883,0.633246,1.296151,2.433899,-2.719832,1.048745,-7.123411,-13.621495,-16.447033,0.072351,-0.226592,0.000000,-0.305746,-0.297632,0.000000
1.660000,-2.003280,0.932702,-1.467482,1.487341,0.441530,0.132902,1.986865,0.605367,1.305816,2.360962,-2.854981,0.881571,-7.454405,-13.367535,-16.999474,0.069207,-0.229517,0.000000,-0.322810,-0.285534,-0.000000
1.670000,-1.988308,0.937147,-1.466088,1.507328,0.447441,0.146004,2.010102,0.576146,1.313783,2.284810,-2.987182,0.708755,-7.778616,-12.976837,-17.601685,0.065895,-0.232316,0.000000,-0.339429,-0.272763,0.000000
1.680000,-1.973134,0.941651,-1.464562,1.527543,0.453053,0.159178,2.032561,0.545623,1.319991,2.205389,-3.114517,0.529537,-8.106584,-12.453097,-18.230760,0.062419,-0.234984,0.000000,-0.355364,-0.259298,0.000000
1.690000,-1.957757,0.946208,-1.462904,1.547979,0.458354,0.172404,2.054210,0.513856,1.324374,2.122679,-3.236244,0.344140,-8.426890,-11.930861,-18.792075,0.058788,-0.237512,0.000000,-0.370501,-0.245152,-0.000000
1.700000,-1.942174,0.950818,-1.461114,1.568627,0.463330,0.185665,2.075015,0.480898,1.326874,2.036852,-3.353135,0.153695,-8.722290,-11.465973,-19.284413,0.055010,-0.239895,0.000000,-0.384895,-0.230384,-0.000000
1.710000,-1.926384,0.955475,-1.459191,1.589479,0.467972,0.198942,2.094947,0.446793,1.327448,1.948233,-3.465564,-0.041548,-9.002722,-10.963076,-19.765392,0.051091,-0.242126,0.000000,-0.398562,-0.215051,0.000000
1.720000,-1.910385,0.960177,-1.457135,1.610526,0.472266,0.212214,2.113979,0.411587,1.326043,1.856797,-3.572396,-0.241612,-9.313739,-10.282803,-20.214590,0.047039,-0.244201,0.000000,-0.411351,-0.199164,0.000000
1.730000,-1.894174,0.964920,-1.454947,1.631759,0.476203,0.225463,2.132083,0.375345,1.322615,1.761958,-3.671220,-0.445840,-9.652998,-9.448783,-20.603985,0.042865,-0.246113,0.000000,-0.422961,-0.182694,0.000000
1.740000,-1.877749,0.969701,-1.452626,1.653168,0.479773,0.238666,2.149219,0.338162,1.317126,1.663737,-3.761372,-0.653692,-9.959114,-8.646867,-20.960364,0.038581,-0.247858,0.000000,-0.433296,-0.165679,0.000000
1.750000,-1.861110,0.974516,-1.450173,1.674743,0.482967,0.251805,2.165357,0.300118,1.309541,1.562776,-3.844157,-0.865047,-10.232323,-7.928643,-21.307353,0.034200,-0.249429,0.000000,-0.442491,-0.148213,-0.000000
1.760000,-1.844255,0.979361,-1.447590,1.696475,0.485776,0.264857,2.180474,0.261279,1.299826,1.459091,-3.919945,-1.079839,-10.513515,-7.168760,-21.619037,0.029732,-0.250824,0.000000,-0.450574,-0.130324,0.000000
1.770000,-1.827181,0.984231,-1.444876,1.718353,0.488192,0.277802,2.194539,0.221719,1.287945,1.352506,-3.987532,-1.297428,-10.789254,-6.251998,-21.829893,0.025190,-0.252037,0.000000,-0.457397,-0.112035,0.000000
1.780000,-1.809888,0.989124,-1.442034,1.740366,0.490210,0.290616,2.207524,0.181529,1.273877,1.243306,-4.044985,-1.516437,-11.048173,-5.217416,-21.937119,0.020586,-0.253065,0.000000,-0.462733,-0.093440,0.000000
1.790000,-1.792373,0.994036,-1.439064,1.762503,0.491823,0.303279,2.219405,0.140819,1.257616,1.131542,-4.091881,-1.736170,-11.311043,-4.219219,-22.023823,0.015936,-0.253906,0.000000,-0.466535,-0.074593,0.000000
1.800000,-1.774637,0.998961,-1.435968,1.784754,0.493026,0.315768,2.230155,0.099691,1.239154,1.017085,-4.129369,-1.956913,-11.553908,-3.296759,-22.137429,0.011256,-0.254558,0.000000,-0.468940,-0.055497,-0.000000
1.810000,-1.756678,1.003896,-1.432749,1.807106,0.493817,0.328062,2.239747,0.058232,1.218478,0.900464,-4.157816,-2.178919,-11.763954,-2.350635,-22.214628,0.006559,-0.255017,0.000000,-0.469998,-0.036230,-0.000000
1.820000,-1.738495,1.008837,-1.429407,1.829549,0.494191,0.340138,2.248164,0.016535,1.195575,0.781806,-4.176382,-2.401206,-12.019735,-1.296875,-22.125430,0.001857,-0.255283,0.000000,-0.469625,-0.016862,0.000000
1.830000,-1.720087,1.013780,-1.425946,1.852070,0.494147,0.351974,2.255383,-0.025296,1.170454,0.660069,-4.183753,-2.621427,-12.325403,-0.174696,-21.882782,-0.002833,-0.255355,0.000000,-0.467692,0.002629,-0.000000
1.840000,-1.701454,1.018720,-1.422368,1.874657,0.493685,0.363547,2.261366,-0.067140,1.143147,0.535298,-4.179876,-2.838862,-12.570858,0.899930,-21.657439,-0.007496,-0.255231,0.000000,-0.464221,0.022191,0.000000
1.850000,-1.682594,1.023654,-1.418675,1.897297,0.492805,0.374837,2.266089,-0.108893,1.113676,0.408652,-4.165755,-3.054576,-12.763208,1.931449,-21.479739,-0.012117,-0.254911,0.000000,-0.459354,0.041702,0.000000
1.860000,-1.663508,1.028576,-1.414871,1.919978,0.491507,0.385821,2.269539,-0.150456,1.082055,0.280033,-4.141247,-3.268456,-12.974090,2.987796,-21.232305,-0.016682,-0.254397,0.000000,-0.453102,0.061149,0.000000
1.870000,-1.644195,1.033484,-1.410958,1.942688,0.489795,0.396478,2.271690,-0.191718,1.048307,0.149170,-4.105999,-3.479222,-13.152671,4.026462,-20.855185,-0.021178,-0.253689,0.000000,-0.445463,0.080501,0.000000
1.880000,-1.624654,1.038372,-1.406941,1.965412,0.487673,0.406787,2.272522,-0.232576,1.012471,0.016980,-4.060717,-3.685560,-13.268027,5.013988,-20.385656,-0.025591,-0.252788,0.000000,-0.436555,0.099605,0.000000
1.890000,-1.604886,1.043237,-1.402823,1.988138,0.485144,0.416727,2.272029,-0.272933,0.974596,-0.116190,-4.005719,-3.886935,-13.395082,6.004058,-19.896548,-0.029909,-0.251697,0.000000,-0.426454,0.118393,0.000000
1.900000,-1.584891,1.048075,-1.398607,2.010853,0.482214,0.426279,2.270198,-0.312690,0.934732,-0.250922,-3.940636,-4.083491,-13.562041,7.012011,-19.402715,-0.034119,-0.250420,0.000000,-0.415161,0.136917,-0.000000
1.910000,-1.564669,1.052882,-1.394297,2.033542,0.478890,0.435422,2.267011,-0.351745,0.892926,-0.387431,-3.865479,-4.274990,-13.714388,7.991471,-18.856368,-0.038212,-0.248958,0.000000,-0.402720,0.155181,0.000000
1.920000,-1.544221,1.057653,-1.389898,2.056193,0.475179,0.444137,2.262450,-0.390000,0.849232,-0.525209,-3.780807,-4.460618,-13.795139,8.902481,-18.216941,-0.042174,-0.247315,0.000000,-0.389237,0.173099,0.000000
1.930000,-1.523546,1.062385,-1.385414,2.078791,0.471090,0.452406,2.256507,-0.427361,0.803714,-0.663334,-3.687429,-4.639329,-13.823804,9.751157,-17.496601,-0.045996,-0.245494,0.000000,-0.374848,0.190539,0.000000
1.940000,-1.502645,1.067075,-1.380850,2.101323,0.466632,0.460212,2.249183,-0.463748,0.756446,-0.801685,-3.585784,-4.810550,-13.872373,10.578604,-16.750689,-0.049671,-0.243501,0.000000,-0.359642,0.207475,0.000000
1.950000,-1.481519,1.071718,-1.376210,2.123775,0.461815,0.467535,2.240473,-0.499077,0.707503,-0.940781,-3.475857,-4.974342,-13.923787,11.402803,-16.015816,-0.053189,-0.241341,0.000000,-0.343661,0.223959,0.000000
1.960000,-1.460169,1.076311,-1.371499,2.146133,0.456651,0.474362,2.230367,-0.533265,0.656959,-1.080161,-3.357728,-5.130867,-13.931673,12.187696,-15.254920,-0.056544,-0.239017,0.000000,-0.326951,0.239952,-0.000000
1.970000,-1.438596,1.080851,-1.366723,2.168382,0.451150,0.480675,2.218870,-0.566232,0.604885,-1.219415,-3.232103,-5.279441,-13.953822,12.868877,-14.373290,-0.059729,-0.236535,0.000000,-0.309627,0.255398,0.000000
1.980000,-1.416802,1.085334,-1.361886,2.190510,0.445326,0.486459,2.205979,-0.597907,0.551370,-1.359238,-3.100350,-5.418333,-14.005691,13.444997,-13.382375,-0.062737,-0.233901,0.000000,-0.291881,0.270334,0.000000
1.990000,-1.394786,1.089757,-1.356994,2.212502,0.439192,0.491702,2.191685,-0.628239,0.496519,-1.499529,-2.963203,-5.547088,-14.003982,13.994470,-12.414438,-0.065567,-0.231119,0.000000,-0.273824,0.284749,0.000000
2.000000,-1.372552,1.094118,-1.352052,2.234344,0.432761,0.496390,2.175989,-0.657171,0.440428,-1.639317,-2.820461,-5.666621,-13.959367,14.567691,-11.487617,-0.068215,-0.228195,0.000000,-0.255456,0.298581,0.000000
2.010000,-1.350099,1.098413,-1.347066,2.256022,0.426048,0.500510,2.158899,-0.684648,0.383186,-1.778716,-2.671850,-5.776841,-13.926749,15.102517,-10.516862,-0.070677,-0.225134,0.000000,-0.236777,0.311853,0.000000
2.020000,-1.327431,1.102639,-1.342042,2.277522,0.419068,0.504053,2.140414,-0.710608,0.324891,-1.917852,-2.518410,-5.876959,-13.848939,15.454220,-9.484229,-0.072951,-0.221943,0.000000,-0.217922,0.324577,0.000000
2.030000,-1.304549,1.106794,-1.336985,2.298830,0.411836,0.507008,2.120542,-0.735016,0.265647,-2.055695,-2.362765,-5.966525,-13.703682,15.631829,-8.423285,-0.075036,-0.218626,0.000000,-0.199181,0.336659,0.000000
2.040000,-1.281455,1.110875,-1.331902,2.319932,0.404368,0.509366,2.099300,-0.757864,0.205561,-2.191926,-2.205774,-6.045424,-13.574455,15.824680,-7.358184,-0.076936,-0.215192,0.000000,-0.180652,0.348089,0.000000
2.050000,-1.258150,1.114881,-1.326798,2.340816,0.396679,0.511120,2.076703,-0.779132,0.144739,-2.327184,-2.046272,-6.113689,-13.475402,16.076325,-6.288005,-0.078650,-0.211645,0.000000,-0.162227,0.358952,0.000000
2.060000,-1.234638,1.118809,-1.321679,2.361466,0.388785,0.512261,2.052757,-0.798789,0.083287,-2.461434,-1.884247,-6.171184,-13.349004,16.254343,-5.203373,-0.080181,-0.207991,0.000000,-0.143916,0.369267,0.000000
2.070000,-1.210921,1.122657,-1.316552,2.381871,0.380703,0.512785,2.027474,-0.816816,0.021315,-2.594164,-1.721185,-6.217756,-13.181117,16.261853,-4.112637,-0.081530,-0.204236,0.000000,-0.125872,0.379005,0.000000
2.080000,-1.187001,1.126423,-1.311423,2.402016,0.372449,0.512687,2.000873,-0.833213,-0.041068,-2.725056,-1.559010,-6.253437,-12.991395,16.136693,-3.025793,-0.082699,-0.200386,0.000000,-0.108287,0.388161,0.000000
2.090000,-1.162881,1.130106,-1.306299,2.421888,0.364039,0.511964,1.972973,-0.847997,-0.103754,-2.853992,-1.398451,-6.278272,-12.794967,16.000311,-1.937841,-0.083696,-0.196447,0.000000,-0.091226,0.396752,0.000000
2.100000,-1.138563,1.133704,-1.301184,2.441475,0.355489,0.510612,1.943794,-0.861182,-0.166633,-2.980956,-1.239004,-6.292194,-12.594259,15.889354,-0.836504,-0.084525,-0.192424,0.000000,-0.074632,0.404803,0.000000
2.110000,-1.114051,1.137216,-1.296086,2.460764,0.346815,0.508631,1.913354,-0.872777,-0.229598,-3.105877,-1.080664,-6.295002,-12.380273,15.721192,0.267805,-0.085190,-0.188322,0.000000,-0.058500,0.412329,0.000000
2.120000,-1.089348,1.140640,-1.291012,2.479743,0.338033,0.506020,1.881676,-0.882795,-0.292534,-3.228561,-0.924580,-6.286838,-12.143106,15.399900,1.329962,-0.085696,-0.184148,0.000000,-0.042930,0.419342,0.000000
2.130000,-1.064456,1.143976,-1.285966,2.498398,0.329159,0.502781,1.848783,-0.891268,-0.355334,-3.348739,-0.772666,-6.268403,-11.886271,14.949222,2.345317,-0.086049,-0.179905,0.000000,-0.028087,0.425857,-0.000000
2.140000,-1.039380,1.147223,-1.280956,2.516718,0.320208,0.498914,1.814701,-0.898248,-0.417902,-3.466287,-0.625596,-6.239932,-11.623938,14.497243,3.368490,-0.086258,-0.175599,0.000000,-0.014015,0.431892,0.000000
2.150000,-1.014122,1.150381,-1.275988,2.534692,0.311194,0.494423,1.779457,-0.903780,-0.480133,-3.581218,-0.482721,-6.201033,-11.357510,14.075420,4.419424,-0.086330,-0.171235,0.000000,-0.000638,0.437468,0.000000
2.160000,-0.988686,1.153447,-1.271067,2.552307,0.302132,0.489311,1.743077,-0.907903,-0.541922,-3.693437,-0.344087,-6.151543,-11.078606,13.599319,5.454901,-0.086272,-0.166817,0.000000,0.012057,0.442599,0.000000
2.170000,-0.963076,1.156423,-1.266201,2.569553,0.293036,0.483584,1.705588,-0.910662,-0.603164,-3.802790,-0.210734,-6.091935,-10.787474,13.001989,6.417962,-0.086090,-0.162350,0.000000,0.023993,0.447305,0.000000
2.180000,-0.937295,1.159308,-1.261396,2.586419,0.283919,0.477248,1.667021,-0.912118,-0.663761,-3.909186,-0.084048,-6.023184,-10.488180,12.312174,7.315662,-0.085792,-0.157838,0.000000,0.035069,0.451616,0.000000
2.190000,-0.911347,1.162102,-1.256657,2.602894,0.274794,0.470309,1.627405,-0.912343,-0.723628,-4.012554,0.035509,-5.945622,-10.181162,11.620681,8.217624,-0.085389,-0.153284,0.000000,0.045268,0.455553,-0.000000
2.200000,-0.885237,1.164804,-1.251990,2.618967,0.265672,0.462775,1.586770,-0.911407,-0.782673,-4.112809,0.148366,-5.858831,-9.865117,10.946147,9.146440,-0.084887,-0.148693,0.000000,0.054647,0.459124,0.000000
2.210000,-0.858968,1.167415,-1.247401,2.634629,0.256566,0.454655,1.545149,-0.909376,-0.840804,-4.209856,0.254432,-5.762693,-9.541170,10.232309,10.050374,-0.084296,-0.144068,0.000000,0.063219,0.462342,0.000000
2.220000,-0.832545,1.169935,-1.242897,2.649870,0.247485,0.445959,1.502573,-0.906319,-0.897927,-4.303633,0.353012,-5.657824,-9.214528,9.444927,10.866487,-0.083623,-0.139413,0.000000,0.070946,0.465230,0.000000
2.230000,-0.805971,1.172365,-1.238482,2.664681,0.238439,0.436697,1.459076,-0.902315,-0.953961,-4.394146,0.443330,-5.545363,-8.886185,8.606732,11.605465,-0.082877,-0.134731,0.000000,0.077785,0.467824,-0.000000
2.240000,-0.779251,1.174704,-1.234163,2.679052,0.229439,0.426880,1.414690,-0.897452,-1.008835,-4.481357,0.525147,-5.425715,-8.550562,7.767851,12.346566,-0.082068,-0.130024,0.000000,0.083740,0.470142,-0.000000
2.250000,-0.752390,1.176953,-1.229944,2.692974,0.220490,0.416520,1.369449,-0.891812,-1.062475,-4.565158,0.598688,-5.298432,-8.205561,6.935099,13.115682,-0.081203,-0.125296,0.000000,0.088848,0.472186,0.000000
2.260000,-0.725391,1.179114,-1.225832,2.706441,0.211602,0.405630,1.323387,-0.885478,-1.114803,-4.645468,0.663849,-5.163401,-7.856237,6.081469,13.856111,-0.080291,-0.120549,0.000000,0.093116,0.473965,-0.000000
2.270000,-0.698261,1.181186,-1.221832,2.719442,0.202781,0.394224,1.276539,-0.878535,-1.165743,-4.722282,0.720317,-5.021310,-7.509852,5.204180,14.499827,-0.079341,-0.115785,0.000000,0.096541,0.475503,0.000000
2.280000,-0.671003,1.183169,-1.217948,2.731971,0.194032,0.382316,1.228941,-0.871072,-1.215229,-4.795665,0.767933,-4.873404,-7.165842,4.318634,15.060878,-0.078360,-0.111008,0.000000,0.099134,0.476832,-0.000000
2.290000,-0.643621,1.185066,-1.214185,2.744021,0.185359,0.369920,1.180626,-0.863177,-1.263211,-4.865599,0.806690,-4.720092,-6.816011,3.435015,15.627260,-0.077358,-0.106219,0.000000,0.100912,0.477967,0.000000
2.300000,-0.616122,1.186877,-1.210549,2.755584,0.176768,0.357051,1.131629,-0.854938,-1.309631,-4.931985,0.836633,-4.560859,-6.459255,2.549816,16.222871,-0.076342,-0.101419,0.000000,0.101891,0.478907,0.000000
2.310000,-0.588510,1.188602,-1.207044,2.766654,0.168261,0.343727,1.081986,-0.846444,-1.354428,-4.994784,0.857686,-4.395635,-6.102087,1.663778,16.787199,-0.075320,-0.096612,0.000000,0.102077,0.479659,0.000000
2.320000,-0.560789,1.190242,-1.203675,2.777224,0.159839,0.329963,1.031734,-0.837784,-1.397544,-5.054027,0.869908,-4.225115,-5.748604,0.799817,17.263057,-0.074300,-0.091798,0.000000,0.101491,0.480243,0.000000
2.330000,-0.532965,1.191798,-1.200445,2.787288,0.151505,0.315776,0.980906,-0.829046,-1.438931,-5.109756,0.873682,-4.050374,-5.398169,-0.034558,17.669726,-0.073290,-0.086980,0.000000,0.100185,0.480683,0.000000
2.340000,-0.505043,1.193272,-1.197359,2.796842,0.143258,0.301184,0.929538,-0.820311,-1.478551,-5.161990,0.869217,-3.871721,-5.046697,-0.862306,18.081686,-0.072296,-0.082158,0.000000,0.098189,0.480989,-0.000000
2.350000,-0.477028,1.194663,-1.194421,2.805879,0.135099,0.286205,0.877666,-0.811662,-1.516365,-5.210690,0.856436,-3.688740,-4.688621,-1.695109,18.506406,-0.071326,-0.077334,0.000000,0.095499,0.481163,-0.000000
2.360000,-0.448926,1.195974,-1.191635,2.814395,0.127025,0.270857,0.825325,-0.803182,-1.552326,-5.255763,0.835315,-3.501593,-4.327909,-2.509946,18.895440,-0.070386,-0.072510,0.000000,0.092122,0.481206,-0.000000
2.370000,-0.420740,1.197204,-1.189004,2.822386,0.119035,0.255158,0.772551,-0.794955,-1.586397,-5.297249,0.806237,-3.310831,-3.982321,-3.264641,19.238824,-0.069483,-0.067685,0.000000,0.088099,0.481132,-0.000000
2.380000,-0.392478,1.198355,-1.186532,2.829846,0.111126,0.239129,0.719380,-0.787057,-1.618543,-5.335409,0.770022,-3.116816,-3.652328,-3.958790,19.556473,-0.068624,-0.062863,0.000000,0.083508,0.480971,0.000000
2.390000,-0.364144,1.199426,-1.184222,2.836773,0.103294,0.222788,0.665843,-0.779555,-1.648733,-5.370295,0.727061,-2.919702,-3.314501,-4.640916,19.859868,-0.067813,-0.058043,0.000000,0.078386,0.480735,0.000000
2.400000,-0.335743,1.200420,-1.182076,2.843163,0.095535,0.206154,0.611974,-0.772516,-1.676937,-5.401699,0.677204,-2.719619,-2.962013,-5.327997,20.135174,-0.067056,-0.053225,0.000000,0.072720,0.480412,0.000000
2.410000,-0.307280,1.201337,-1.180099,2.849013,0.087844,0.189249,0.557809,-0.766011,-1.703125,-5.429535,0.620501,-2.516998,-2.611543,-5.980574,20.378362,-0.066358,-0.048412,0.000000,0.066518,0.479999,-0.000000
2.420000,-0.278762,1.202177,-1.178291,2.854319,0.080215,0.172092,0.503383,-0.760106,-1.727277,-5.453930,0.557592,-2.312051,-2.278946,-6.545705,20.629623,-0.065725,-0.043603,0.000000,0.059835,0.479514,-0.000000
2.430000,-0.250194,1.202941,-1.176657,2.859080,0.072641,0.154703,0.448730,-0.754859,-1.749367,-5.475114,0.489587,-2.104406,-1.958850,-7.028901,20.894840,-0.065161,-0.038800,0.000000,0.052761,0.478977,0.000000
2.440000,-0.221581,1.203630,-1.175197,2.863294,0.065117,0.137104,0.393881,-0.750314,-1.769365,-5.493107,0.417014,-1.894155,-1.631292,-7.493662,21.120367,-0.064670,-0.034003,0.000000,0.045340,0.478395,-0.000000
2.450000,-0.192928,1.204244,-1.173915,2.866958,0.057635,0.119316,0.338868,-0.746519,-1.787250,-5.507740,0.339714,-1.681998,-1.297317,-7.960380,21.290200,-0.064254,-0.029211,0.000000,0.037557,0.477759,0.000000
2.460000,-0.164242,1.204783,-1.172811,2.870071,0.050187,0.101359,0.283726,-0.743520,-1.803005,-5.519053,0.257807,-1.468351,-0.970107,-8.380757,21.443087,-0.063918,-0.024427,0.000000,0.029418,0.477075,0.000000
2.470000,-0.135527,1.205248,-1.171887,2.872632,0.042765,0.083256,0.228487,-0.741363,-1.816617,-5.527142,0.172099,-1.253137,-0.644536,-8.695853,21.615523,-0.063666,-0.019650,0.000000,0.020987,0.476354,-0.000000
2.480000,-0.106789,1.205638,-1.171146,2.874641,0.035360,0.065027,0.173183,-0.740078,-1.828068,-5.531944,0.083890,-1.036040,-0.315811,-8.914882,21.796516,-0.063499,-0.014880,0.000000,0.012367,0.475591,0.000000
2.490000,-0.078034,1.205955,-1.170587,2.876096,0.027963,0.046695,0.117848,-0.739685,-1.837337,-5.533458,-0.006199,-0.817206,0.007845,-9.110722,21.940350,-0.063418,-0.010118,0.000000,0.003603,0.474788,0.000000
2.500000,-0.049267,1.206197,-1.170212,2.876998,0.020566,0.028280,0.062514,-0.740202,-1.844412,-5.531787,-0.098325,-0.597233,0.325197,-9.306959,22.040853,-0.063427,-0.005364,0.000000,-0.005322,0.473958,0.000000
2.510000,-0.020494,1.206366,-1.170021,2.877346,0.013159,0.009806,0.007212,-0.741651,-1.849282,-5.526955,-0.192338,-0.376389,0.641970,-9.450424,22.129292,-0.063525,-0.000619,0.000000,-0.014403,0.473103,0.000000
2.520000,0.008280,1.206461,-1.170016,2.877142,0.005733,-0.008705,-0.048025,-0.744049,-1.851940,-5.518948,-0.287333,-0.154647,0.958027,-9.476894,22.219543,-0.063715,0.004118,0.000000,-0.023572,0.472222,0.000000
2.530000,0.037049,1.206481,-1.170195,2.876386,-0.001722,-0.027232,-0.103167,-0.747398,-1.852375,-5.507794,-0.381876,0.068001,1.271073,-9.398089,22.302663,-0.063996,0.008846,0.000000,-0.032715,0.471318,0.000000
2.540000,0.065808,1.206426,-1.170560,2.875079,-0.009215,-0.045753,-0.158181,-0.751686,-1.850580,-5.493526,-0.475295,0.291406,1.581847,-9.295967,22.362147,-0.064369,0.013565,0.000000,-0.041782,0.470396,0.000000
2.550000,0.094551,1.206296,-1.171110,2.873222,-0.016756,-0.064244,-0.213037,-0.756904,-1.846547,-5.476157,-0.567795,0.515244,1.892481,-9.197128,22.387724,-0.064832,0.018274,0.000000,-0.050800,0.469455,0.000000
2.560000,0.123272,1.206091,-1.171845,2.870818,-0.024353,-0.082684,-0.267704,-0.763042,-1.840275,-5.455677,-0.659238,0.739160,2.202225,-9.043839,22.390874,-0.065385,0.022974,0.000000,-0.059762,0.468494,0.000000
2.570000,0.151967,1.205809,-1.172764,2.867868,-0.032016,-0.101050,-0.322151,-0.770089,-1.831764,-5.432113,-0.748672,0.963062,2.505829,-8.768092,22.401718,-0.066027,0.027665,0.000000,-0.068597,0.467515,0.000000
2.580000,0.180629,1.205451,-1.173866,2.864375,-0.039755,-0.119319,-0.376346,-0.778016,-1.821013,-5.405560,-0.834599,1.187195,2.803508,-8.384281,22.419356,-0.066757,0.032346,0.000000,-0.077186,0.466526,-0.000000
2.590000,0.209254,1.205014,-1.175151,2.860341,-0.047577,-0.137470,-0.430262,-0.786781,-1.808020,-5.376042,-0.916357,1.411449,3.102402,-7.981559,22.402063,-0.067571,0.037017,0.000000,-0.085481,0.465528,0.000000
2.600000,0.237836,1.204499,-1.176616,2.855770,-0.055490,-0.155479,-0.483867,-0.796343,-1.792784,-5.343512,-0.994231,1.635236,3.402191,-7.589069,22.328999,-0.068467,0.041679,0.000000,-0.093508,0.464514,-0.000000
2.610000,0.266370,1.203904,-1.178260,2.850664,-0.063504,-0.173325,-0.537132,-0.806665,-1.775315,-5.307999,-1.068139,1.858029,3.698179,-7.145994,22.228826,-0.069442,0.046330,0.000000,-0.101265,0.463483,0.000000
2.620000,0.294850,1.203229,-1.180082,2.845027,-0.071624,-0.190986,-0.590027,-0.817706,-1.755624,-5.269548,-1.137150,2.079813,3.992958,-6.581702,22.152107,-0.070493,0.050971,0.000000,-0.108680,0.462438,-0.000000
2.630000,0.323270,1.202472,-1.182080,2.838863,-0.079858,-0.208438,-0.642523,-0.829408,-1.733719,-5.228139,-1.199773,2.301071,4.288846,-5.913053,22.090602,-0.071616,0.055603,0.000000,-0.115630,0.461375,0.000000
2.640000,0.351627,1.201632,-1.184251,2.832177,-0.088212,-0.225660,-0.694590,-0.841701,-1.709602,-5.183771,-1.255411,2.521625,4.581792,-5.235052,21.975008,-0.072805,0.060223,0.000000,-0.122069,0.460294,0.000000
2.650000,0.379914,1.200708,-1.186593,2.824972,-0.096692,-0.242630,-0.746199,-0.854516,-1.683286,-5.136504,-1.304474,2.740571,4.867386,-4.577925,21.791596,-0.074057,0.064834,0.000000,-0.128029,0.459192,0.000000
2.660000,0.408126,1.199698,-1.189104,2.817253,-0.105302,-0.259326,-0.797320,-0.867791,-1.654791,-5.086424,-1.346970,2.957456,5.148790,-3.878884,21.585517,-0.075366,0.069433,0.000000,-0.133509,0.458070,0.000000
2.670000,0.436259,1.198602,-1.191780,2.809025,-0.114048,-0.275726,-0.847927,-0.881456,-1.624137,-5.033528,-1.382052,3.172282,5.437278,-3.069130,21.380316,-0.076728,0.074022,0.000000,-0.138438,0.456925,0.000000
2.680000,0.464307,1.197417,-1.194618,2.800294,-0.122931,-0.291809,-0.897991,-0.895432,-1.591345,-4.977678,-1.408353,3.385063,5.732442,-2.168189,21.157704,-0.078135,0.078600,0.000000,-0.142696,0.455741,0.000000
2.690000,0.492265,1.196143,-1.197616,2.791065,-0.131956,-0.307553,-0.947481,-0.909623,-1.556436,-4.918879,-1.425415,3.595436,6.018835,-1.270853,20.886282,-0.079582,0.083165,0.000000,-0.146238,0.454511,0.000000
2.700000,0.520128,1.194778,-1.200769,2.781345,-0.141124,-0.322937,-0.996368,-0.923940,-1.519437,-4.857301,-1.433770,3.802788,6.292594,-0.405235,20.573828,-0.081061,0.087719,0.000000,-0.149101,0.453242,0.000000
2.710000,0.547892,1.193321,-1.204074,2.771138,-0.150435,-0.337941,-1.044627,-0.938298,-1.480380,-4.793027,-1.433520,4.006912,6.564159,0.489129,20.237354,-0.082564,0.092261,0.000000,-0.151289,0.451933,-0.000000
2.720000,0.575551,1.191769,-1.207528,2.760452,-0.159890,-0.352545,-1.092229,-0.952610,-1.439298,-4.726018,-1.423987,4.207536,6.841213,1.471265,19.847542,-0.084087,0.096790,0.000000,-0.152732,0.450572,0.000000
2.730000,0.603101,1.190123,-1.211125,2.749293,-0.169487,-0.366727,-1.139147,-0.966778,-1.396229,-4.656203,-1.404095,4.403863,7.120126,2.519812,19.392270,-0.085619,0.101305,0.000000,-0.153320,0.449140,-0.000000
2.740000,0.630537,1.188380,-1.214862,2.737669,-0.179225,-0.380469,-1.185353,-0.980692,-1.351221,-4.583616,-1.373591,4.595381,7.390816,3.550922,18.910472,-0.087153,0.105806,0.000000,-0.153017,0.447626,0.000000
2.750000,0.657854,1.186538,-1.218735,2.725586,-0.189101,-0.393752,-1.230819,-0.994250,-1.304322,-4.508386,-1.333076,4.782073,7.652657,4.542795,18.426905,-0.088680,0.110292,0.000000,-0.151860,0.446034,0.000000
2.760000,0.685048,1.184598,-1.222738,2.713053,-0.199110,-0.406556,-1.275521,-1.007354,-1.255580,-4.430563,-1.282735,4.963919,7.911926,5.546275,17.910756,-0.090191,0.114763,0.000000,-0.149851,0.444358,-0.000000
2.770000,0.712115,1.182556,-1.226866,2.700076,-0.209248,-0.418863,-1.319431,-1.019905,-1.205043,-4.350148,-1.222151,5.140288,8.168706,6.600615,17.296370,-0.091677,0.119216,0.000000,-0.146931,0.442583,-0.000000
2.780000,0.739050,1.180413,-1.231115,2.686664,-0.219508,-0.430657,-1.362524,-1.031797,-1.152774,-4.267188,-1.150723,5.309846,8.420407,7.684544,16.587319,-0.093129,0.123652,0.000000,-0.143018,0.440687,-0.000000
2.790000,0.765848,1.178166,-1.235479,2.672825,-0.229884,-0.441919,-1.404774,-1.042919,-1.098847,-4.181740,-1.068460,5.472034,8.666846,8.738892,15.869774,-0.094537,0.128069,0.000000,-0.138084,0.438655,0.000000
2.800000,0.792506,1.175815,-1.239953,2.658569,-0.240367,-0.452634,-1.446158,-1.053166,-1.043333,-4.093852,-0.975945,5.627242,8.908238,9.752945,15.174868,-0.095891,0.132465,0.000000,-0.132161,0.436483,0.000000
2.810000,0.819020,1.173359,-1.244532,2.643902,-0.250947,-0.462786,-1.486651,-1.062438,-0.986302,-4.003575,-0.873401,5.775531,9.144112,10.758865,14.441593,-0.097181,0.136840,0.000000,-0.125247,0.434162,0.000000
2.820000,0.845385,1.170796,-1.249209,2.628836,-0.261615,-0.472360,-1.526230,-1.070634,-0.927823,-3.910969,-0.760768,5.916074,9.373675,11.765351,13.592961,-0.098396,0.141190,0.000000,-0.117303,0.431673,0.000000
2.830000,0.871597,1.168126,-1.253979,2.613378,-0.272360,-0.481342,-1.564871,-1.077653,-0.867980,-3.816102,-0.638094,6.047391,9.596754,12.754060,12.643911,-0.099526,0.145515,0.000000,-0.108290,0.428986,0.000000
2.840000,0.897652,1.165349,-1.258836,2.597538,-0.283169,-0.489719,-1.602552,-1.083396,-0.806875,-3.719034,-0.505686,6.168952,9.813709,13.705444,11.696012,-0.100561,0.149813,0.000000,-0.098204,0.426080,-0.000000
2.850000,0.923547,1.162463,-1.263773,2.581327,-0.294028,-0.497480,-1.639251,-1.087767,-0.744601,-3.619827,-0.363985,6.281311,10.023818,14.624175,10.782439,-0.101490,0.154081,0.000000,-0.087058,0.422949,0.000000
2.860000,0.949279,1.159468,-1.268785,2.564753,-0.304924,-0.504611,-1.674948,-1.090676,-0.681249,-3.518558,-0.213203,6.384601,10.226388,15.514218,9.834038,-0.102302,0.158316,0.000000,-0.074841,0.419583,0.000000
2.870000,0.974842,1.156364,-1.273865,2.547828,-0.315841,-0.511105,-1.709623,-1.092031,-0.616909,-3.415300,-0.053701,6.477992,10.422500,16.344974,8.771435,-0.102986,0.162516,0.000000,-0.061549,0.415955,0.000000
2.880000,1.000235,1.153151,-1.279007,2.530561,-0.326765,-0.516950,-1.743254,-1.091750,-0.551689,-3.310108,0.113697,6.560029,10.612013,17.104547,7.614111,-0.103532,0.166679,0.000000,-0.047210,0.412027,0.000000
2.890000,1.025454,1.149829,-1.284204,2.512963,-0.337676,-0.522138,-1.775825,-1.089757,-0.485709,-3.203059,0.288390,6.630274,10.792705,17.825436,6.469016,-0.103930,0.170801,0.000000,-0.031846,0.407773,0.000000
2.900000,1.050494,1.146398,-1.289450,2.495044,-0.348560,-0.526664,-1.807316,-1.085982,-0.419083,-3.094254,0.470205,6.689410,10.964362,18.530104,5.369402,-0.104168,0.174879,0.000000,-0.015446,0.403188,-0.000000
2.910000,1.075354,1.142858,-1.294738,2.476816,-0.359396,-0.530520,-1.837710,-1.080353,-0.351920,-2.983772,0.658992,6.737662,11.127976,19.186931,4.244787,-0.104238,0.178909,0.000000,0.002004,0.398258,0.000000
2.920000,1.100031,1.139210,-1.300061,2.458290,-0.370167,-0.533702,-1.866991,-1.072802,-0.284330,-2.871694,0.853944,6.774306,11.282489,19.722689,3.020176,-0.104127,0.182888,0.000000,0.020465,0.392953,-0.000000
2.930000,1.124520,1.135455,-1.305412,2.439476,-0.380852,-0.536207,-1.895144,-1.063274,-0.216434,-2.758122,1.053446,6.798065,11.426889,20.135481,1.718287,-0.103827,0.186811,0.000000,0.039824,0.387234,-0.000000
2.940000,1.148820,1.131593,-1.310785,2.420387,-0.391432,-0.538031,-1.922153,-1.051733,-0.148369,-2.643156,1.256654,6.808671,11.562079,20.515180,0.442616,-0.103330,0.190674,0.000000,0.060026,0.381073,0.000000
2.950000,1.172928,1.127626,-1.316172,2.401033,-0.401887,-0.539174,-1.948007,-1.038141,-0.080261,-2.526881,1.463750,6.806918,11.689620,20.900956,-0.779854,-0.102626,0.194473,0.000000,0.081105,0.374465,0.000000
2.960000,1.196841,1.123555,-1.321568,2.381427,-0.412195,-0.539636,-1.972691,-1.022458,-0.012230,-2.409364,1.674673,6.793074,11.808263,21.223343,-2.014587,-0.101706,0.198203,0.000000,0.103073,0.367393,0.000000
2.970000,1.220557,1.119382,-1.326965,2.361580,-0.422336,-0.539419,-1.996194,-1.004648,0.055601,-2.290716,1.888216,6.766626,11.912760,21.372153,-3.314842,-0.100563,0.201858,0.000000,0.125836,0.359829,0.000000
2.980000,1.244073,1.115108,-1.332357,2.341503,-0.432288,-0.538524,-2.018505,-0.984694,0.123102,-2.171109,2.102116,6.726777,12.002613,21.357901,-4.655489,-0.099188,0.205435,0.000000,0.149190,0.351743,0.000000
2.990000,1.267387,1.110736,-1.337736,2.321209,-0.442030,-0.536957,-2.039616,-0.962605,0.190136,-2.050663,2.315374,6.673516,12.084433,21.321220,-5.960503,-0.097577,0.208927,0.000000,0.173043,0.343116,-0.000000
3.000000,1.290497,1.106268,-1.343096,2.300711,-0.451540,-0.534721,-2.059519,-0.938386,0.256572,-1.929420,2.528540,6.607567,12.161357,21.313870,-7.217993,-0.095726,0.212330,0.000000,0.197443,0.333938,-0.000000
3.010000,1.313401,1.101706,-1.348430,2.280019,-0.460798,-0.531825,-2.078205,-0.912034,0.322288,-1.807436,2.741652,6.529156,12.228293,21.234450,-8.472092,-0.093627,0.215636,0.000000,0.222393,0.324192,0.000000
3.020000,1.336097,1.097052,-1.353732,2.259147,-0.469781,-0.528276,-2.095667,-0.883553,0.387156,-1.684854,2.953229,6.438125,12.276717,20.948139,-9.734504,-0.091276,0.218841,0.000000,0.247739,0.313860,0.000000
3.030000,1.358584,1.092310,-1.358996,2.238106,-0.478469,-0.524082,-2.111902,-0.852970,0.451050,-1.561902,3.160615,6.334466,12.307809,20.477992,-10.982897,-0.088671,0.221939,0.000000,0.273196,0.302939,0.000000
3.040000,1.380859,1.087483,-1.364214,2.216909,-0.486840,-0.519255,-2.126905,-0.820341,0.513845,-1.438698,3.362789,6.218467,12.332469,19.999932,-12.195541,-0.085811,0.224923,0.000000,0.298632,0.291422,0.000000
3.050000,1.402922,1.082573,-1.369381,2.195568,-0.494875,-0.513805,-2.140676,-0.785714,0.575419,-1.315252,3.560613,6.090555,12.351796,19.569993,-13.380375,-0.082697,0.227788,0.000000,0.324106,0.279297,0.000000
3.060000,1.424771,1.077585,-1.374490,2.174095,-0.502554,-0.507746,-2.153210,-0.749129,0.635656,-1.191662,3.754189,5.950860,12.358230,19.066622,-14.543011,-0.079328,0.230527,0.000000,0.349596,0.266556,-0.000000
3.070000,1.446404,1.072522,-1.379536,2.152503,-0.509858,-0.501092,-2.164509,-0.710630,0.694437,-1.068088,3.941946,5.799695,12.349812,18.353438,-15.645699,-0.075704,0.233134,0.000000,0.374901,0.253204,0.000000
3.080000,1.467821,1.067388,-1.384512,2.130805,-0.516767,-0.493857,-2.174572,-0.670290,0.751650,-0.944666,4.121258,5.637946,12.327110,17.464062,-16.676128,-0.071829,0.235604,0.000000,0.399689,0.239260,0.000000
3.090000,1.489020,1.062187,-1.389413,2.109012,-0.523264,-0.486059,-2.183402,-0.628205,0.807195,-0.821546,4.291227,5.466173,12.292455,16.579446,-17.677602,-0.067709,0.237931,0.000000,0.423808,0.224741,0.000000
3.100000,1.510001,1.056923,-1.394233,2.087137,-0.529331,-0.477714,-2.191003,-0.584465,0.860973,-0.698817,4.452847,5.284394,12.259682,15.751365,-18.674217,-0.063352,0.240108,0.000000,0.447308,0.209648,0.000000
3.110000,1.530763,1.051600,-1.398967,2.065192,-0.534953,-0.468839,-2.197379,-0.539148,0.912883,-0.576352,4.606254,5.092688,12.226147,14.859252,-19.627635,-0.058763,0.242131,0.000000,0.470144,0.193961,0.000000
3.120000,1.551305,1.046224,-1.403610,2.043189,-0.540114,-0.459456,-2.202530,-0.492340,0.962827,-0.454294,4.750032,4.891841,12.151424,13.785141,-20.463765,-0.053949,0.243993,0.000000,0.492095,0.177713,0.000000
3.130000,1.571626,1.040798,-1.408156,2.021141,-0.544800,-0.449583,-2.206465,-0.444148,1.010720,-0.333323,4.881957,4.683413,12.037842,12.567886,-21.181574,-0.048921,0.245689,0.000000,0.512843,0.161016,0.000000
3.140000,1.591728,1.035328,-1.412601,1.999060,-0.548997,-0.439241,-2.209197,-0.394701,1.056495,-0.213537,5.001389,4.468210,11.940588,11.367444,-21.873032,-0.043692,0.247216,0.000000,0.532243,0.143908,0.000000
3.150000,1.611608,1.029818,-1.416941,1.976957,-0.552694,-0.428453,-2.210735,-0.344120,1.100084,-0.094512,5.109306,4.245952,11.845158,10.219824,-22.592331,-0.038276,0.248569,0.000000,0.550333,0.126345,-0.000000
3.160000,1.631267,1.024274,-1.421170,1.954845,-0.555879,-0.417240,-2.211087,-0.292515,1.141414,0.023366,5.205786,4.016363,11.716360,9.023264,-23.268276,-0.032686,0.249744,0.000000,0.567052,0.108372,-0.000000
3.170000,1.650705,1.018700,-1.425286,1.932736,-0.558544,-0.405625,-2.210268,-0.240004,1.180412,0.139815,5.289771,3.780587,11.609379,7.707806,-23.748611,-0.026936,0.250737,0.000000,0.582209,0.090063,0.000000
3.180000,1.669921,1.013103,-1.429283,1.910640,-0.560680,-0.393632,-2.208291,-0.186719,1.217026,0.255554,5.359942,3.541391,11.538100,6.312560,-24.046100,-0.021042,0.251545,0.000000,0.595578,0.071437,0.000000
3.190000,1.688917,1.007487,-1.433158,1.888570,-0.562279,-0.381284,-2.205157,-0.132805,1.251239,0.370577,5.416022,3.299665,11.424089,4.936202,-24.360146,-0.015025,0.252165,0.000000,0.607065,0.052540,0.000000
3.200000,1.707693,1.001857,-1.436909,1.866537,-0.563336,-0.368607,-2.200879,-0.078399,1.283019,0.484035,5.458666,3.054188,11.264643,3.590440,-24.731468,-0.008902,0.252595,0.000000,0.616689,0.033454,0.000000
3.210000,1.726248,0.996220,-1.440530,1.844552,-0.563847,-0.355624,-2.195476,-0.023632,1.312323,0.595870,5.487831,2.805035,11.112847,2.218791,-25.021718,-0.002693,0.252833,0.000000,0.624389,0.014213,0.000000
3.220000,1.744584,0.990580,-1.444021,1.822627,-0.563808,-0.342360,-2.188962,0.031358,1.339120,0.706292,5.503042,2.553754,10.953833,0.815256,-25.144319,0.003584,0.252878,0.000000,0.630058,-0.005132,0.000000
3.230000,1.762701,0.984944,-1.447378,1.800773,-0.563219,-0.328841,-2.181350,0.086429,1.363398,0.814947,5.504136,2.302149,10.768428,-0.590512,-25.141249,0.009907,0.252730,0.000000,0.633639,-0.024462,-0.000000
3.240000,1.780599,0.979316,-1.450598,1.779000,-0.562080,-0.315092,-2.172663,0.141440,1.385163,0.921661,5.491232,2.050929,10.581602,-1.982622,-25.119606,0.016255,0.252389,0.000000,0.635114,-0.043705,0.000000
3.250000,1.798281,0.973702,-1.453680,1.757320,-0.560391,-0.301138,-2.162917,0.196254,1.404417,1.026579,5.464484,1.799757,10.396414,-3.375294,-25.105065,0.022608,0.251855,0.000000,0.634475,-0.062856,0.000000
3.260000,1.815746,0.968108,-1.456621,1.735742,-0.558155,-0.287004,-2.152131,0.250730,1.421158,1.129589,5.423726,1.548827,10.195181,-4.767060,-25.025909,0.028943,0.251131,0.000000,0.631684,-0.081863,0.000000
3.270000,1.832995,0.962539,-1.459420,1.714277,-0.555376,-0.272715,-2.140325,0.304728,1.435393,1.230483,5.369143,1.299239,9.981853,-6.099842,-24.814508,0.035239,0.250217,0.000000,0.626754,-0.100640,0.000000
3.280000,1.850031,0.957001,-1.462075,1.692935,-0.552060,-0.258296,-2.127521,0.358113,1.447143,1.329226,5.301729,1.052537,9.764164,-7.359208,-24.489418,0.041476,0.249117,0.000000,0.619806,-0.119108,0.000000
3.290000,1.866854,0.951498,-1.464586,1.671727,-0.548214,-0.243772,-2.113741,0.410763,1.456444,1.425766,5.221959,0.809450,9.534440,-8.613309,-24.141490,0.047634,0.247833,0.000000,0.610906,-0.137208,0.000000
3.300000,1.883466,0.946036,-1.466950,1.650661,-0.543845,-0.229167,-2.099006,0.462552,1.463332,1.519915,5.129463,0.569707,9.280546,-9.902502,-23.817389,0.053693,0.246370,0.000000,0.600027,-0.154900,-0.000000
3.310000,1.899867,0.940621,-1.469169,1.629747,-0.538963,-0.214505,-2.083343,0.513352,1.467838,1.611377,5.023909,0.333103,9.008563,-11.168449,-23.456174,0.059633,0.244731,0.000000,0.587148,-0.172128,-0.000000
3.320000,1.916061,0.935257,-1.471241,1.608994,-0.533578,-0.199810,-2.066779,0.563030,1.469994,1.700086,4.906094,0.100584,8.748713,-12.290745,-22.939899,0.065434,0.242921,0.000000,0.572394,-0.188832,0.000000
3.330000,1.932047,0.929949,-1.473165,1.588411,-0.527702,-0.185106,-2.049341,0.611474,1.469850,1.786351,4.778094,-0.125695,8.497379,-13.275480,-22.288502,0.071079,0.240946,0.000000,0.556056,-0.204965,0.000000
3.340000,1.947829,0.924703,-1.474943,1.568007,-0.521348,-0.170413,-2.031052,0.658592,1.467480,1.870034,4.640584,-0.345186,8.213435,-14.273749,-21.665004,0.076554,0.238812,0.000000,0.538259,-0.220476,0.000000
3.350000,1.963407,0.919522,-1.476573,1.547790,-0.514530,-0.155756,-2.011940,0.704285,1.462946,1.950620,4.492619,-0.558995,7.909384,-15.321379,-21.087029,0.081843,0.236524,0.000000,0.518926,-0.235323,0.000000
3.360000,1.978785,0.914412,-1.478058,1.527768,-0.507263,-0.141155,-1.992039,0.748445,1.456300,2.028222,4.334156,-0.766927,7.611003,-16.308004,-20.450328,0.086931,0.234090,0.000000,0.498101,-0.249499,0.000000
3.370000,1.993963,0.909377,-1.479396,1.507949,-0.499561,-0.126630,-1.971376,0.790969,1.447608,2.102840,4.166459,-0.968002,7.272241,-17.142656,-19.744479,0.091804,0.231516,0.000000,0.475985,-0.262965,0.000000
3.380000,2.008944,0.904421,-1.480590,1.488341,-0.491443,-0.112202,-1.949982,0.831774,1.436940,2.173666,3.991303,-1.161816,6.881251,-17.854174,-19.015443,0.096450,0.228809,0.000000,0.452836,-0.275612,-0.000000
3.390000,2.023730,0.899548,-1.481641,1.468950,-0.482926,-0.097891,-1.927902,0.870795,1.424371,2.240465,3.809375,-1.348311,6.503320,-18.551785,-18.275737,0.100860,0.225979,0.000000,0.428782,-0.287408,0.000000
3.400000,2.038323,0.894763,-1.482548,1.449783,-0.474027,-0.083715,-1.905173,0.907961,1.409974,2.303733,3.620268,-1.527331,6.150670,-19.256794,-17.489893,0.105025,0.223032,0.000000,0.403828,-0.298403,0.000000
3.410000,2.052725,0.890068,-1.483315,1.430846,-0.464767,-0.069692,-1.881828,0.943200,1.393825,2.363478,3.424239,-1.698109,5.778203,-19.891182,-16.660239,0.108936,0.219978,0.000000,0.378061,-0.308580,0.000000
3.420000,2.066940,0.885467,-1.483942,1.412146,-0.455163,-0.055838,-1.857904,0.976446,1.376012,2.419297,3.222444,-1.860536,5.368617,-20.394291,-15.891579,0.112586,0.216825,0.000000,0.351663,-0.317896,0.000000
3.430000,2.080968,0.880965,-1.484432,1.393688,-0.445238,-0.042171,-1.833442,1.007649,1.356614,2.470851,3.016353,-2.015940,4.934618,-20.782572,-15.194790,0.115969,0.213580,0.000000,0.324827,-0.326352,0.000000
3.440000,2.094813,0.876563,-1.484785,1.375477,-0.435010,-0.028706,-1.808486,1.036773,1.335693,2.517989,2.806793,-2.164432,4.497076,-21.130414,-14.433064,0.119083,0.210254,0.000000,0.297684,-0.333940,0.000000
3.450000,2.108478,0.872264,-1.485006,1.357518,-0.424502,-0.015458,-1.783082,1.063785,1.313325,2.560792,2.593745,-2.304602,4.076257,-21.486440,-13.572910,0.121923,0.206855,0.000000,0.270290,-0.340646,0.000000
3.460000,2.121964,0.868073,-1.485095,1.339816,-0.413735,-0.002440,-1.757271,1.088648,1.289601,2.599514,2.377064,-2.435890,3.657649,-21.795538,-12.713794,0.124489,0.203391,0.000000,0.242672,-0.346500,0.000000
3.470000,2.135274,0.863990,-1.485054,1.322373,-0.402729,0.010334,-1.731092,1.111326,1.264608,2.633945,2.157834,-2.558877,3.182432,-21.918996,-11.932023,0.126777,0.199871,0.000000,0.214977,-0.351505,0.000000
3.480000,2.148411,0.860018,-1.484888,1.305194,-0.391508,0.022852,-1.704592,1.131805,1.238424,2.663163,1.938684,-2.674530,2.653827,-21.864766,-11.196021,0.128789,0.196305,0.000000,0.187513,-0.355598,0.000000
3.490000,2.161378,0.856159,-1.484597,1.288281,-0.380093,0.035103,-1.677828,1.150100,1.211117,2.687022,1.720539,-2.782798,2.153463,-21.819962,-10.415335,0.130528,0.192700,0.000000,0.160406,-0.358776,-0.000000
3.500000,2.174177,0.852416,-1.484186,1.271637,-0.368506,0.047075,-1.650851,1.166215,1.182768,2.706232,1.502285,-2.882837,1.693281,-21.842257,-9.605863,0.131998,0.189068,0.000000,0.133565,-0.361119,0.000000
3.510000,2.186811,0.848789,-1.483656,1.255264,-0.356769,0.058758,-1.623704,1.180145,1.153460,2.720887,1.283694,-2.974915,1.219661,-21.803316,-8.829100,0.133200,0.185415,0.000000,0.106977,-0.362662,0.000000
3.520000,2.199282,0.845281,-1.483011,1.239163,-0.344903,0.070144,-1.596434,1.191889,1.123269,2.730625,1.066218,-3.059419,0.718525,-21.573724,-8.038486,0.134138,0.181750,0.000000,0.080814,-0.363392,0.000000
3.530000,2.211594,0.841891,-1.482253,1.223335,-0.332931,0.081224,-1.569091,1.201470,1.092272,2.735258,0.852219,-3.135685,0.209334,-21.195094,-7.212695,0.134817,0.178082,0.000000,0.055355,-0.363295,0.000000
3.540000,2.223749,0.838622,-1.481386,1.207781,-0.320874,0.091989,-1.541728,1.208934,1.060556,2.734812,0.642316,-3.203673,-0.290035,-20.838562,-6.425361,0.135246,0.174418,0.000000,0.030675,-0.362394,0.000000
3.550000,2.235750,0.835474,-1.480413,1.192501,-0.308752,0.102435,-1.514395,1.214316,1.028198,2.729457,0.435448,-3.264192,-0.774270,-20.522915,-5.689890,0.135431,0.170767,0.000000,0.006646,-0.360746,-0.000000
3.560000,2.247599,0.832447,-1.479338,1.177493,-0.296588,0.112553,-1.487139,1.217643,0.995272,2.719327,0.231858,-3.317471,-1.252550,-20.137916,-4.958601,0.135379,0.167137,0.000000,-0.016705,-0.358389,0.000000
3.570000,2.259299,0.829542,-1.478162,1.162758,-0.284400,0.122340,-1.460008,1.218953,0.961849,2.704406,0.032690,-3.363364,-1.738107,-19.659963,-4.224938,0.135098,0.163534,0.000000,-0.039255,-0.355338,0.000000
3.580000,2.270854,0.826759,-1.476891,1.148293,-0.272208,0.131790,-1.433051,1.218296,0.928004,2.684565,-0.161341,-3.401969,-2.224871,-19.132577,-3.514121,0.134595,0.159965,0.000000,-0.060930,-0.351600,0.000000
3.590000,2.282265,0.824098,-1.475526,1.134097,-0.260034,0.140900,-1.406317,1.215726,0.893810,2.659909,-0.349962,-3.433647,-2.691870,-18.585616,-2.834017,0.133880,0.156437,0.000000,-0.081714,-0.347213,-0.000000
3.600000,2.293536,0.821558,-1.474073,1.120167,-0.247894,0.149667,-1.379853,1.211297,0.859331,2.630727,-0.533053,-3.458650,-3.144576,-18.009113,-2.141181,0.132961,0.152958,0.000000,-0.101605,-0.342231,0.000000
3.610000,2.304669,0.819140,-1.472533,1.106500,-0.235808,0.158087,-1.353703,1.205065,0.824637,2.597017,-0.710144,-3.476470,-3.593384,-17.391217,-1.437917,0.131848,0.149532,0.000000,-0.120556,-0.336661,0.000000
3.620000,2.315666,0.816842,-1.470911,1.093093,-0.223793,0.166159,-1.327913,1.197094,0.789802,2.558860,-0.880878,-3.487408,-4.012785,-16.765079,-0.852264,0.130551,0.146166,0.000000,-0.138545,-0.330536,-0.000000
3.630000,2.326530,0.814664,-1.469210,1.079942,-0.211866,0.173883,-1.302525,1.187448,0.754889,2.516761,-1.045446,-3.493515,-4.394698,-16.143284,-0.393175,0.129078,0.142864,0.000000,-0.155633,-0.323957,-0.000000
3.640000,2.337265,0.812605,-1.467433,1.067042,-0.200044,0.181257,-1.277577,1.176185,0.719932,2.470966,-1.203743,-3.495272,-4.771582,-15.486623,0.112919,0.127439,0.139632,0.000000,-0.171828,-0.316970,-0.000000
3.650000,2.347871,0.810663,-1.465585,1.054390,-0.188342,0.188282,-1.253106,1.163373,0.684983,2.421330,-1.355178,-3.491257,-5.154795,-14.774982,0.703512,0.125642,0.136473,0.000000,-0.187061,-0.309549,0.000000
3.660000,2.358353,0.808838,-1.463668,1.041980,-0.176776,0.194957,-1.229151,1.149082,0.650107,2.367870,-1.499243,-3.481201,-5.518867,-14.042341,1.257995,0.123698,0.133392,0.000000,-0.201289,-0.301705,0.000000
3.670000,2.368711,0.807128,-1.461686,1.029807,-0.165360,0.201284,-1.205749,1.133388,0.615359,2.310953,-1.636025,-3.466097,-5.834191,-13.348349,1.704684,0.121617,0.130392,0.000000,-0.214551,-0.293502,-0.000000
3.680000,2.378949,0.805531,-1.459642,1.017865,-0.154108,0.207264,-1.182932,1.116361,0.580785,2.251186,-1.766210,-3.447108,-6.104293,-12.689288,2.085259,0.119407,0.127477,0.000000,-0.226949,-0.285032,0.000000
3.690000,2.389068,0.804046,-1.457540,1.006148,-0.143033,0.212899,-1.160725,1.098064,0.546417,2.188867,-1.889811,-3.424392,-6.365167,-11.992415,2.487111,0.117078,0.124650,0.000000,-0.238500,-0.276333,0.000000
3.700000,2.399072,0.802670,-1.455384,0.994651,-0.132147,0.218192,-1.139154,1.078565,0.512297,2.123883,-2.006058,-3.397365,-6.636615,-11.240063,2.898700,0.114638,0.121912,0.000000,-0.249130,-0.267392,0.000000
3.710000,2.408961,0.801403,-1.453176,0.983365,-0.121462,0.223145,-1.118247,1.057943,0.478470,2.056134,-2.114612,-3.366418,-6.891215,-10.486728,3.264509,0.112096,0.119267,0.000000,-0.258824,-0.258212,0.000000
3.720000,2.418739,0.800241,-1.450921,0.972286,-0.110988,0.227762,-1.098032,1.036273,0.444969,1.986058,-2.215793,-3.332075,-7.072305,-9.780982,3.622793,0.109461,0.116715,0.000000,-0.267637,-0.248849,-0.000000
3.730000,2.428407,0.799183,-1.448621,0.961405,-0.100736,0.232045,-1.078526,1.013627,0.411828,1.914688,-2.310231,-3.293962,-7.183927,-9.109458,3.995019,0.106743,0.114259,0.000000,-0.275644,-0.239410,0.000000
3.740000,2.437967,0.798226,-1.446280,0.950715,-0.090716,0.235998,-1.059738,0.990068,0.379089,1.842380,-2.397982,-3.252175,-7.300652,-8.414908,4.325056,0.103949,0.111899,0.000000,-0.282865,-0.229938,0.000000
3.750000,2.447421,0.797369,-1.443901,0.940210,-0.080935,0.239626,-1.041679,0.965667,0.346785,1.768675,-2.478530,-3.207461,-7.445868,-7.688691,4.606898,0.101086,0.109635,0.000000,-0.289269,-0.220394,-0.000000
3.760000,2.456771,0.796608,-1.441488,0.929882,-0.071402,0.242934,-1.024364,0.940498,0.314940,1.693462,-2.551756,-3.160037,-7.567354,-6.972631,4.880053,0.098163,0.107468,0.000000,-0.294860,-0.210772,-0.000000
3.770000,2.466019,0.795941,-1.439043,0.919723,-0.062125,0.245925,-1.007809,0.914632,0.283584,1.617328,-2.617982,-3.109860,-7.609413,-6.292903,5.143356,0.095189,0.105399,0.000000,-0.299683,-0.201132,0.000000
3.780000,2.475166,0.795365,-1.436569,0.909725,-0.053110,0.248606,-0.992018,0.888138,0.252743,1.541274,-2.677614,-3.057170,-7.588248,-5.639023,5.382797,0.092170,0.103427,0.000000,-0.303794,-0.191581,0.000000
3.790000,2.484213,0.794878,-1.434070,0.899882,-0.044362,0.250980,-0.976984,0.861080,0.222440,1.465563,-2.730763,-3.002204,-7.576223,-4.981969,5.604652,0.089113,0.101551,0.000000,-0.307217,-0.182145,0.000000
3.800000,2.493163,0.794478,-1.431550,0.890186,-0.035888,0.253054,-0.962707,0.833523,0.192699,1.389750,-2.777253,-2.945077,-7.579214,-4.314084,5.816236,0.086025,0.099769,0.000000,-0.309947,-0.172780,-0.000000
3.810000,2.502017,0.794161,-1.429009,0.880628,-0.027692,0.254834,-0.949189,0.805535,0.163539,1.313979,-2.817044,-2.885879,-7.549619,-3.657441,6.013086,0.082914,0.098082,0.000000,-0.311991,-0.163499,-0.000000
3.820000,2.510776,0.793924,-1.426453,0.871202,-0.019778,0.256325,-0.936427,0.777182,0.134981,1.238757,-2.850402,-2.824815,-7.481369,-3.038180,6.182288,0.079785,0.096488,0.000000,-0.313387,-0.154353,0.000000
3.830000,2.519441,0.793765,-1.423883,0.861900,-0.012148,0.257534,-0.924414,0.748527,0.107043,1.164352,-2.877808,-2.762234,-7.391632,-2.452066,6.325574,0.076646,0.094985,0.000000,-0.314196,-0.145370,-0.000000
3.840000,2.528014,0.793681,-1.421302,0.852714,-0.004807,0.258466,-0.913140,0.719626,0.079737,1.090925,-2.899443,-2.698304,-7.286250,-1.867403,6.461347,0.073501,0.093571,0.000000,-0.314447,-0.136565,0.000000
3.850000,2.536495,0.793669,-1.418714,0.843637,0.002244,0.259128,-0.902595,0.690538,0.053077,1.018627,-2.915156,-2.633007,-7.165809,-1.275790,6.591284,0.070357,0.092246,0.000000,-0.314130,-0.127950,0.000000
3.860000,2.544887,0.793726,-1.416120,0.834662,0.009004,0.259528,-0.892767,0.661323,0.027076,0.947608,-2.924959,-2.566478,-7.028236,-0.700623,6.703889,0.067219,0.091006,0.000000,-0.313254,-0.119536,0.000000
3.870000,2.553189,0.793849,-1.413523,0.825781,0.015471,0.259670,-0.883643,0.632039,0.001747,0.878062,-2.929169,-2.498929,-6.869645,-0.165440,6.799730,0.064092,0.089849,0.000000,-0.311860,-0.111342,0.000000
3.880000,2.561402,0.794035,-1.410926,0.816989,0.021645,0.259563,-0.875206,0.602739,-0.022902,0.810215,-2.928268,-2.430483,-6.691486,0.335288,6.884095,0.060981,0.088774,0.000000,-0.310004,-0.103386,0.000000
3.890000,2.569528,0.794282,-1.408332,0.808277,0.027525,0.259212,-0.867439,0.573473,-0.046863,0.744232,-2.922463,-2.361247,-6.500987,0.830360,6.956339,0.057891,0.087777,0.000000,-0.307710,-0.095683,-0.000000
3.900000,2.577568,0.794586,-1.405742,0.799640,0.033114,0.258625,-0.860322,0.544290,-0.070127,0.680196,-2.911661,-2.291357,-6.301697,1.326675,7.012765,0.054827,0.086857,0.000000,-0.304975,-0.088236,0.000000
3.910000,2.585521,0.794944,-1.403159,0.791071,0.038411,0.257809,-0.853835,0.515240,-0.092690,0.618198,-2.895929,-2.220992,-6.090221,1.803579,7.055234,0.051792,0.086010,0.000000,-0.301810,-0.081053,0.000000
3.920000,2.593389,0.795354,-1.400586,0.782563,0.043419,0.256771,-0.847958,0.486371,-0.114547,0.558391,-2.875589,-2.150252,-5.861126,2.242375,7.094749,0.048790,0.085233,0.000000,-0.298252,-0.074145,-0.000000
3.930000,2.601172,0.795812,-1.398024,0.774112,0.048139,0.255518,-0.842667,0.457728,-0.135695,0.500976,-2.851082,-2.079097,-5.617181,2.648391,7.131813,0.045826,0.084525,0.000000,-0.294346,-0.067527,0.000000
3.940000,2.608871,0.796317,-1.395475,0.765710,0.052573,0.254058,-0.837938,0.429350,-0.156129,0.446048,-2.822621,-2.007616,-5.367569,3.044748,7.152618,0.042903,0.083881,0.000000,-0.290118,-0.061204,0.000000
3.950000,2.616487,0.796864,-1.392943,0.757353,0.056726,0.252396,-0.833746,0.401276,-0.175847,0.393624,-2.790187,-1.936044,-5.110266,3.437230,7.155973,0.040024,0.083300,0.000000,-0.285567,-0.055177,-0.000000
3.960000,2.624019,0.797451,-1.390428,0.749035,0.060599,0.250541,-0.830066,0.373546,-0.194850,0.343842,-2.753877,-1.864496,-4.841154,3.809603,7.152049,0.037192,0.082777,0.000000,-0.280704,-0.049454,0.000000
3.970000,2.631467,0.798076,-1.387932,0.740752,0.064197,0.248499,-0.826869,0.346198,-0.213137,0.296801,-2.713995,-1.793003,-4.571206,4.146549,7.143054,0.034409,0.082310,0.000000,-0.275562,-0.044043,0.000000
3.980000,2.638834,0.798735,-1.385458,0.732498,0.067523,0.246278,-0.824130,0.319266,-0.230710,0.252418,-2.670946,-1.721635,-4.304001,4.452449,7.126062,0.031680,0.081895,0.000000,-0.270181,-0.038931,0.000000
3.990000,2.646117,0.799426,-1.383006,0.724269,0.070582,0.243885,-0.821821,0.292779,-0.247570,0.210721,-2.624946,-1.650482,-4.026219,4.746810,7.099928,0.029006,0.081531,0.000000,-0.264583,-0.034118,-0.000000
4.000000,2.653319,0.800147,-1.380580,0.716061,0.073378,0.241327,-0.819915,0.266767,-0.263719,0.171894,-2.576010,-1.579636,-3.734046,5.034712,7.065302,0.026388,0.081212,0.000000,-0.258768,-0.029620,0.000000
4.010000,2.660439,0.800894,-1.378180,0.707871,0.075917,0.238610,-0.818383,0.241259,-0.279163,0.136040,-2.524252,-1.509176,-3.438403,5.302797,7.023516,0.023830,0.080938,0.000000,-0.252748,-0.025443,-0.000000
4.020000,2.667476,0.801665,-1.375808,0.699694,0.078204,0.235743,-0.817194,0.216282,-0.293903,0.103126,-2.469954,-1.439166,-3.150011,5.538523,6.975298,0.021333,0.080703,0.000000,-0.246549,-0.021581,0.000000
4.030000,2.674432,0.802458,-1.373465,0.691527,0.080243,0.232732,-0.816320,0.191860,-0.307946,0.073040,-2.413481,-1.369670,-2.866548,5.745856,6.921089,0.018899,0.080506,0.000000,-0.240207,-0.018020,0.000000
4.040000,2.681307,0.803270,-1.371153,0.683367,0.082041,0.229584,-0.815734,0.168013,-0.321296,0.045795,-2.355037,-1.300744,-2.576191,5.941218,6.860816,0.016529,0.080343,0.000000,-0.233741,-0.014760,0.000000
4.050000,2.688100,0.804099,-1.368873,0.675212,0.083603,0.226306,-0.815405,0.144759,-0.333961,0.021516,-2.294657,-1.232454,-2.278986,6.128429,6.792125,0.014224,0.080211,0.000000,-0.227151,-0.011810,0.000000
4.060000,2.694811,0.804942,-1.366627,0.667059,0.084936,0.222905,-0.815303,0.122119,-0.345945,0.000215,-2.232468,-1.164902,-1.984111,6.296646,6.715900,0.011985,0.080107,0.000000,-0.220448,-0.009169,0.000000
4.070000,2.701441,0.805798,-1.364415,0.658906,0.086046,0.219387,-0.815400,0.100110,-0.357259,-0.018166,-2.168724,-1.098136,-1.693158,6.437414,6.640492,0.009814,0.080027,0.000000,-0.213656,-0.006831,0.000000
4.080000,2.707989,0.806663,-1.362239,0.650751,0.086938,0.215760,-0.815667,0.078745,-0.367908,-0.033648,-2.103720,-1.032092,-1.404424,6.554316,6.566380,0.007712,0.079970,0.000000,-0.206801,-0.004790,-0.000000
4.090000,2.714456,0.807536,-1.360100,0.642593,0.087620,0.212029,-0.816073,0.058036,-0.377901,-0.046255,-2.037637,-0.966808,-1.118075,6.658765,6.482913,0.005678,0.079932,0.000000,-0.199898,-0.003042,0.000000
4.100000,2.720841,0.808415,-1.357999,0.634430,0.088099,0.208202,-0.816592,0.037992,-0.387244,-0.056010,-1.970544,-0.902434,-0.831811,6.753660,6.389321,0.003714,0.079909,0.000000,-0.192952,-0.001584,0.000000
4.110000,2.727145,0.809298,-1.355936,0.626261,0.088380,0.204284,-0.817193,0.018625,-0.395949,-0.062891,-1.902564,-0.839022,-0.546919,6.831843,6.293298,0.001819,0.079900,0.000000,-0.185971,-0.000418,0.000000
4.120000,2.733366,0.810183,-1.353913,0.618086,0.088471,0.200283,-0.817850,-0.000059,-0.404025,-0.066948,-1.833908,-0.776568,-0.273965,6.887270,6.195785,-0.000006,0.079901,0.000000,-0.178975,0.000464,0.000000
4.130000,2.739506,0.811068,-1.351930,0.609904,0.088379,0.196204,-0.818532,-0.018053,-0.411481,-0.068370,-1.764819,-0.715106,-0.014232,6.922609,6.094575,-0.001761,0.079909,0.000000,-0.171983,0.001079,0.000000
4.140000,2.745564,0.811951,-1.349989,0.601715,0.088110,0.192053,-0.819217,-0.035355,-0.418327,-0.067233,-1.695455,-0.654676,0.245405,6.946570,5.989671,-0.003446,0.079922,0.000000,-0.165009,0.001437,0.000000
4.150000,2.751541,0.812830,-1.348089,0.593520,0.087672,0.187837,-0.819877,-0.051963,-0.424574,-0.063462,-1.625887,-0.595313,0.508707,6.961174,5.880886,-0.005061,0.079938,0.000000,-0.158056,0.001531,0.000000
4.160000,2.757435,0.813704,-1.346232,0.585318,0.087071,0.183562,-0.820486,-0.067873,-0.430233,-0.057058,-1.556232,-0.537059,0.765458,6.961305,5.768589,-0.006607,0.079953,0.000000,-0.151133,0.001361,0.000000
4.170000,2.763247,0.814571,-1.344418,0.577110,0.086315,0.179233,-0.821018,-0.083087,-0.435315,-0.048153,-1.486661,-0.479941,1.005608,6.943798,5.655291,-0.008084,0.079965,0.000000,-0.144254,0.000940,0.000000
4.180000,2.768977,0.815430,-1.342647,0.568897,0.085409,0.174856,-0.821449,-0.097606,-0.439832,-0.036946,-1.417356,-0.423953,1.231383,6.910949,5.541378,-0.009492,0.079972,0.000000,-0.137434,0.000288,0.000000
4.190000,2.774625,0.816280,-1.340921,0.560681,0.084362,0.170436,-0.821757,-0.111434,-0.443794,-0.023525,-1.348442,-0.369113,1.454555,6.867838,5.423921,-0.010832,0.079971,0.000000,-0.130682,-0.000587,-0.000000
4.200000,2.780191,0.817118,-1.339239,0.552462,0.083181,0.165980,-0.821920,-0.124575,-0.447214,-0.007855,-1.279999,-0.315474,1.677863,6.815577,5.302155,-0.012106,0.079960,0.000000,-0.124003,-0.001688,-0.000000
4.210000,2.785674,0.817943,-1.337601,0.544243,0.081871,0.161492,-0.821914,-0.137034,-0.450104,0.010032,-1.212131,-0.263070,1.892520,6.751673,5.178496,-0.013313,0.079937,0.000000,-0.117404,-0.003012,0.000000
4.220000,2.791076,0.818755,-1.336009,0.536024,0.080440,0.156978,-0.821719,-0.148818,-0.452476,0.029995,-1.144966,-0.211904,2.090156,6.675265,5.055300,-0.014454,0.079900,0.000000,-0.110896,-0.004547,-0.000000
4.230000,2.796395,0.819552,-1.334462,0.527808,0.078895,0.152442,-0.821314,-0.159934,-0.454342,0.051835,-1.078626,-0.161964,2.272700,6.587960,4.932095,-0.015531,0.079846,0.000000,-0.104487,-0.006272,0.000000
4.240000,2.801632,0.820333,-1.332960,0.519598,0.077241,0.147891,-0.820682,-0.170390,-0.455715,0.075449,-1.013207,-0.113262,2.450136,6.492005,4.806321,-0.016544,0.079774,0.000000,-0.098186,-0.008178,0.000000
4.250000,2.806787,0.821097,-1.331504,0.511395,0.075487,0.143328,-0.819805,-0.180198,-0.456607,0.100838,-0.948785,-0.065838,2.625086,6.387736,4.677743,-0.017494,0.079683,0.000000,-0.091995,-0.010267,0.000000
4.260000,2.811860,0.821843,-1.330093,0.503202,0.073637,0.138759,-0.818666,-0.189366,-0.457032,0.127951,-0.885452,-0.019708,2.790167,6.274650,4.548394,-0.018384,0.079569,0.000000,-0.085923,-0.012534,0.000000
4.270000,2.816851,0.822570,-1.328729,0.495021,0.071699,0.134187,-0.817246,-0.197907,-0.457001,0.156641,-0.823292,0.025130,2.937749,6.153986,4.419407,-0.019213,0.079432,0.000000,-0.079976,-0.014964,-0.000000
4.280000,2.821760,0.823277,-1.327410,0.486857,0.069679,0.129619,-0.815533,-0.205832,-0.456529,0.186706,-0.762372,0.068681,3.069504,6.026840,4.290436,-0.019983,0.079270,0.000000,-0.074157,-0.017540,0.000000
4.290000,2.826588,0.823963,-1.326136,0.478711,0.067583,0.125057,-0.813512,-0.213154,-0.455628,0.218031,-0.702756,0.110939,3.194778,5.892751,4.160471,-0.020696,0.079081,0.000000,-0.068471,-0.020251,0.000000
4.300000,2.831334,0.824628,-1.324909,0.470586,0.065416,0.120506,-0.811172,-0.219887,-0.454310,0.250602,-0.644517,0.151890,3.316231,5.751262,4.028989,-0.021353,0.078865,0.000000,-0.062923,-0.023096,0.000000
4.310000,2.835999,0.825271,-1.323726,0.462487,0.063185,0.115971,-0.808500,-0.226045,-0.452590,0.284356,-0.587730,0.191519,3.427135,5.603729,3.896980,-0.021955,0.078619,0.000000,-0.057519,-0.026070,0.000000
4.320000,2.840584,0.825892,-1.322589,0.454416,0.060895,0.111454,-0.805485,-0.231642,-0.450480,0.319144,-0.532443,0.229830,3.520144,5.453330,3.766593,-0.022503,0.078343,0.000000,-0.052263,-0.029159,0.000000
4.330000,2.845088,0.826489,-1.321497,0.446377,0.058552,0.106961,-0.802117,-0.236693,-0.447993,0.354759,-0.478664,0.266851,3.596902,5.300610,3.637863,-0.023000,0.078036,0.000000,-0.047152,-0.032343,-0.000000
4.340000,2.849511,0.827063,-1.320450,0.438374,0.056161,0.102494,-0.798390,-0.241215,-0.445143,0.391082,-0.426430,0.302587,3.666714,5.142544,3.508240,-0.023446,0.077696,0.000000,-0.042190,-0.035612,0.000000
4.350000,2.853855,0.827613,-1.319447,0.430410,0.053728,0.098058,-0.794296,-0.245222,-0.441942,0.428093,-0.375813,0.337015,3.731817,4.978125,3.376854,-0.023844,0.077323,0.000000,-0.037383,-0.038965,-0.000000
4.360000,2.858120,0.828138,-1.318489,0.422488,0.051257,0.093656,-0.789828,-0.248731,-0.438403,0.465719,-0.326868,0.370124,3.785705,4.810398,3.245711,-0.024194,0.076916,0.000000,-0.032734,-0.042395,0.000000
4.370000,2.862305,0.828638,-1.317574,0.414613,0.048753,0.089290,-0.784981,-0.251759,-0.434539,0.503807,-0.279605,0.401930,3.822865,4.643680,3.117394,-0.024498,0.076475,0.000000,-0.028244,-0.045889,0.000000
4.380000,2.866412,0.829113,-1.316703,0.406788,0.046222,0.084965,-0.779752,-0.254323,-0.430364,0.542176,-0.233994,0.432472,3.845140,4.477956,2.991527,-0.024759,0.075998,0.000000,-0.023909,-0.049427,0.000000
4.390000,2.870441,0.829562,-1.315875,0.399018,0.043667,0.080683,-0.774138,-0.256439,-0.425890,0.580710,-0.190046,0.461760,3.859520,4.308659,2.864983,-0.024976,0.075486,0.000000,-0.019729,-0.053001,0.000000
4.400000,2.874392,0.829986,-1.315089,0.391306,0.041093,0.076447,-0.768138,-0.258124,-0.421129,0.619366,-0.147821,0.489771,3.867934,4.134344,2.737055,-0.025153,0.074938,0.000000,-0.015709,-0.056606,0.000000
4.410000,2.878267,0.830384,-1.314346,0.383655,0.038504,0.072260,-0.761750,-0.259396,-0.416094,0.658069,-0.107359,0.516501,3.865646,3.959012,2.610041,-0.025291,0.074354,0.000000,-0.011853,-0.060236,0.000000
4.420000,2.882065,0.830756,-1.313644,0.376071,0.035905,0.068125,-0.754976,-0.260271,-0.410799,0.696679,-0.068641,0.541972,3.847774,3.787925,2.485942,-0.025390,0.073733,0.000000,-0.008159,-0.063877,0.000000
4.430000,2.885788,0.831102,-1.312983,0.368556,0.033299,0.064044,-0.747817,-0.260768,-0.405255,0.735024,-0.031601,0.566220,3.815714,3.620709,2.364253,-0.025454,0.073076,0.000000,-0.004619,-0.067512,0.000000
4.440000,2.889437,0.831422,-1.312363,0.361114,0.030690,0.060020,-0.740276,-0.260903,-0.399474,0.772993,0.003773,0.589257,3.775959,3.451425,2.242566,-0.025483,0.072382,0.000000,-0.001233,-0.071131,0.000000
4.450000,2.893011,0.831716,-1.311783,0.353750,0.028081,0.056055,-0.732357,-0.260693,-0.393470,0.810543,0.037428,0.611071,3.730093,3.278290,2.120063,-0.025478,0.071652,0.000000,0.001995,-0.074730,0.000000
4.460000,2.896512,0.831984,-1.311242,0.346467,0.025476,0.052151,-0.724065,-0.260155,-0.387253,0.847595,0.069339,0.631659,3.673851,3.106114,1.998513,-0.025443,0.070887,0.000000,0.005062,-0.078301,0.000000
4.470000,2.899940,0.832225,-1.310740,0.339269,0.022878,0.048310,-0.715405,-0.259306,-0.380837,0.884020,0.099550,0.651042,3.603836,2.940703,1.880285,-0.025377,0.070086,0.000000,0.007972,-0.081832,0.000000
4.480000,2.903297,0.832441,-1.310276,0.332159,0.020290,0.044534,-0.706385,-0.258164,-0.374232,0.919672,0.128153,0.669264,3.521512,2.781327,1.765018,-0.025283,0.069250,0.000000,0.010735,-0.085308,0.000000
4.490000,2.906583,0.832631,-1.309849,0.325141,0.017714,0.040825,-0.697012,-0.256743,-0.367451,0.954451,0.155177,0.686342,3.431507,2.621191,1.649685,-0.025162,0.068379,0.000000,0.013353,-0.088718,0.000000
4.500000,2.909800,0.832796,-1.309459,0.318219,0.015155,0.037185,-0.687295,-0.255060,-0.360505,0.988302,0.180577,0.702258,3.334762,2.458269,1.533384,-0.025016,0.067475,0.000000,0.015821,-0.092058,0.000000
4.510000,2.912948,0.832934,-1.309106,0.311395,0.012613,0.033615,-0.677246,-0.253132,-0.353406,1.021146,0.204342,0.717010,3.228430,2.297810,1.418266,-0.024846,0.066537,0.000000,0.018139,-0.095319,-0.000000
4.520000,2.916028,0.833048,-1.308787,0.304674,0.010092,0.030117,-0.666873,-0.250973,-0.346165,1.052871,0.226533,0.730623,3.110795,2.145943,1.306571,-0.024653,0.065568,0.000000,0.020311,-0.098490,-0.000000
4.530000,2.919041,0.833136,-1.308503,0.298058,0.007594,0.026692,-0.656188,-0.248601,-0.338794,1.083362,0.247261,0.743141,2.982829,2.001681,1.197689,-0.024440,0.064567,0.000000,0.022349,-0.101558,0.000000
4.540000,2.921989,0.833200,-1.308253,0.291550,0.005120,0.023341,-0.645205,-0.246028,-0.331302,1.112527,0.266567,0.754577,2.847126,1.857618,1.088750,-0.024206,0.063536,0.000000,0.024256,-0.104515,0.000000
4.550000,2.924872,0.833239,-1.308036,0.285154,0.002673,0.020066,-0.633938,-0.243270,-0.323702,1.140304,0.284413,0.764916,2.705333,1.711601,0.979177,-0.023955,0.062476,0.000000,0.026027,-0.107353,-0.000000
4.560000,2.927692,0.833253,-1.307852,0.278871,0.000255,0.016867,-0.622399,-0.240340,-0.316004,1.166634,0.300799,0.774161,2.555951,1.569126,0.870908,-0.023686,0.061388,0.000000,0.027663,-0.110066,-0.000000
4.570000,2.930449,0.833244,-1.307699,0.272706,-0.002134,0.013745,-0.610605,-0.237254,-0.308219,1.191423,0.315796,0.782334,2.395163,1.436298,0.765266,-0.023401,0.060274,0.000000,0.029169,-0.112643,0.000000
4.580000,2.933146,0.833210,-1.307577,0.266659,-0.004490,0.010702,-0.598571,-0.234024,-0.300357,1.214537,0.329525,0.789466,2.223523,1.311926,0.661669,-0.023102,0.059135,0.000000,0.030558,-0.115071,0.000000
4.590000,2.935783,0.833154,-1.307485,0.260734,-0.006814,0.007738,-0.586314,-0.230663,-0.292430,1.235894,0.342034,0.795568,2.046713,1.188435,0.558398,-0.022790,0.057972,0.000000,0.031833,-0.117340,0.000000
4.600000,2.938361,0.833074,-1.307422,0.254933,-0.009104,0.004854,-0.573853,-0.227183,-0.284446,1.255472,0.353294,0.800634,1.866331,1.063613,0.454869,-0.022466,0.056787,0.000000,0.032991,-0.119447,-0.000000
4.610000,2.940881,0.832972,-1.307388,0.249257,-0.011358,0.002049,-0.561205,-0.223597,-0.276417,1.273220,0.363307,0.804665,1.678909,0.942915,0.352213,-0.022130,0.055582,0.000000,0.034032,-0.121387,0.000000
4.620000,2.943346,0.832847,-1.307381,0.243709,-0.013575,-0.000675,-0.548388,-0.219917,-0.268353,1.289050,0.372152,0.807678,1.481820,0.832252,0.251888,-0.021785,0.054359,0.000000,0.034963,-0.123148,0.000000
4.630000,2.945755,0.832700,-1.307401,0.238290,-0.015756,-0.003318,-0.535424,-0.216154,-0.260263,1.302857,0.379952,0.809703,1.276468,0.730298,0.153618,-0.021431,0.053119,0.000000,0.035795,-0.124720,-0.000000
4.640000,2.948112,0.832532,-1.307448,0.233001,-0.017899,-0.005880,-0.522331,-0.212318,-0.252159,1.314579,0.386758,0.810750,1.066846,0.629540,0.055372,-0.021069,0.051864,0.000000,0.036533,-0.126095,0.000000
4.650000,2.950416,0.832342,-1.307519,0.227843,-0.020002,-0.008361,-0.509132,-0.208419,-0.244048,1.324194,0.392543,0.810810,0.853873,0.527707,-0.044011,-0.020700,0.050596,0.000000,0.037174,-0.127270,0.000000
4.660000,2.952668,0.832132,-1.307615,0.222818,-0.022067,-0.010761,-0.495847,-0.204467,-0.235942,1.331657,0.397312,0.809870,0.635333,0.430036,-0.143201,-0.020326,0.049318,0.000000,0.037718,-0.128239,-0.000000
4.670000,2.954872,0.831901,-1.307734,0.217926,-0.024092,-0.013080,-0.482499,-0.200473,-0.227851,1.336900,0.401143,0.807946,0.410192,0.342343,-0.239291,-0.019946,0.048031,0.000000,0.038172,-0.128993,0.000000
4.680000,2.957027,0.831650,-1.307876,0.213168,-0.026076,-0.015318,-0.469109,-0.196444,-0.219783,1.339860,0.404159,0.805084,0.179494,0.263274,-0.332649,-0.019562,0.046738,0.000000,0.038548,-0.129526,-0.000000
4.690000,2.959135,0.831379,-1.308041,0.208544,-0.028021,-0.017475,-0.455702,-0.192390,-0.211749,1.340490,0.406409,0.801293,-0.054782,0.185200,-0.427368,-0.019175,0.045440,0.000000,0.038850,-0.129830,0.000000
4.700000,2.961198,0.831090,-1.308226,0.204054,-0.029924,-0.019553,-0.442300,-0.188316,-0.203758,1.338765,0.407863,0.796537,-0.291275,0.105655,-0.524389,-0.018785,0.044141,0.000000,0.039075,-0.129903,-0.000000
4.710000,2.963216,0.830781,-1.308432,0.199698,-0.031787,-0.021550,-0.428927,-0.184232,-0.195818,1.334665,0.408522,0.790805,-0.530809,0.029814,-0.621067,-0.018394,0.042841,0.000000,0.039221,-0.129740,0.000000
4.720000,2.965192,0.830454,-1.308657,0.195475,-0.033609,-0.023469,-0.415606,-0.180146,-0.187941,1.328149,0.408459,0.784116,-0.776003,-0.036364,-0.715791,-0.018001,0.041545,0.000000,0.039298,-0.129338,-0.000000
4.730000,2.967126,0.830109,-1.308901,0.191386,-0.035390,-0.025309,-0.402364,-0.176063,-0.180136,1.319145,0.407795,0.776490,-1.026445,-0.094268,-0.809478,-0.017608,0.040254,0.000000,0.039314,-0.128686,-0.000000
4.740000,2.969020,0.829746,-1.309163,0.187428,-0.037130,-0.027072,-0.389223,-0.171990,-0.172412,1.307620,0.406574,0.767926,-1.277709,-0.151966,-0.904398,-0.017215,0.038971,0.000000,0.039276,-0.127780,0.000000
4.750000,2.970874,0.829366,-1.309443,0.183601,-0.038830,-0.028758,-0.376211,-0.167932,-0.164778,1.293591,0.404755,0.758402,-1.527403,-0.212485,-1.001468,-0.016822,0.037698,0.000000,0.039178,-0.126620,-0.000000
4.760000,2.972692,0.828969,-1.309738,0.179904,-0.040489,-0.030367,-0.363352,-0.163895,-0.157244,1.277072,0.402324,0.747897,-1.778027,-0.270479,-1.099337,-0.016431,0.036438,0.000000,0.039019,-0.125208,0.000000
4.770000,2.974472,0.828556,-1.310050,0.176334,-0.042108,-0.031902,-0.350670,-0.159885,-0.149820,1.258030,0.399346,0.736415,-2.034240,-0.318814,-1.195961,-0.016042,0.035194,0.000000,0.038805,-0.123538,0.000000
4.780000,2.976218,0.828127,-1.310376,0.172890,-0.043686,-0.033364,-0.338191,-0.155908,-0.142515,1.236387,0.395948,0.723978,-2.295129,-0.358777,-1.291642,-0.015655,0.033967,0.000000,0.038548,-0.121601,0.000000
4.790000,2.977930,0.827683,-1.310717,0.169570,-0.045226,-0.034753,-0.325942,-0.151966,-0.135340,1.212127,0.392170,0.710582,-2.553435,-0.400349,-1.389487,-0.015271,0.032762,0.000000,0.038252,-0.119395,0.000000
4.800000,2.979610,0.827223,-1.311071,0.166372,-0.046726,-0.036071,-0.313949,-0.148065,-0.128304,1.185318,0.387941,0.696188,-2.805685,-0.448714,-1.492007,-0.014890,0.031579,0.000000,0.037909,-0.116925,0.000000
4.810000,2.981258,0.826748,-1.311439,0.163291,-0.048187,-0.037319,-0.302236,-0.144208,-0.121416,1.156014,0.383196,0.680742,-3.056250,-0.497278,-1.597217,-0.014513,0.030423,0.000000,0.037513,-0.114196,0.000000
4.820000,2.982875,0.826259,-1.311818,0.160327,-0.049610,-0.038499,-0.290828,-0.140401,-0.114689,1.124193,0.377995,0.664244,-3.312347,-0.533517,-1.698950,-0.014140,0.029295,0.000000,0.037070,-0.111205,0.000000
4.830000,2.984464,0.825756,-1.312209,0.157475,-0.050995,-0.039613,-0.279752,-0.136648,-0.108131,1.089767,0.372526,0.646763,-3.572048,-0.559716,-1.797934,-0.013771,0.028199,0.000000,0.036598,-0.107941,-0.000000
4.840000,2.986025,0.825239,-1.312610,0.154732,-0.052343,-0.040662,-0.269033,-0.132950,-0.101754,1.052752,0.366801,0.628285,-3.824569,-0.593365,-1.902969,-0.013408,0.027136,0.000000,0.036099,-0.104406,0.000000
4.850000,2.987559,0.824709,-1.313022,0.152094,-0.053654,-0.041648,-0.258697,-0.129312,-0.095566,1.013275,0.360658,0.608704,-4.068583,-0.636222,-2.015027,-0.013049,0.026110,0.000000,0.035555,-0.100611,-0.000000
4.860000,2.989067,0.824166,-1.313443,0.149558,-0.054929,-0.042573,-0.248767,-0.125737,-0.089580,0.971381,0.354076,0.587984,-4.310426,-0.677239,-2.128571,-0.012697,0.025124,0.000000,0.034965,-0.096562,0.000000
4.870000,2.990550,0.823611,-1.313873,0.147119,-0.056169,-0.043439,-0.239269,-0.122230,-0.083806,0.927067,0.347113,0.566132,-4.550092,-0.715939,-2.243383,-0.012350,0.024179,0.000000,0.034334,-0.092257,-0.000000
4.880000,2.992009,0.823043,-1.314312,0.144773,-0.057374,-0.044249,-0.230226,-0.118795,-0.078257,0.880379,0.339758,0.543117,-4.784592,-0.756822,-2.361759,-0.012010,0.023279,0.000000,0.033661,-0.087700,0.000000
4.890000,2.993445,0.822463,-1.314758,0.142514,-0.058545,-0.045004,-0.221662,-0.115435,-0.072944,0.831375,0.331977,0.518897,-5.013158,-0.800652,-2.484104,-0.011677,0.022425,0.000000,0.032943,-0.082897,0.000000
4.900000,2.994860,0.821872,-1.315212,0.140339,-0.059682,-0.045708,-0.213599,-0.112155,-0.067879,0.780115,0.323745,0.493435,-5.235499,-0.847389,-2.610415,-0.011351,0.021621,0.000000,0.032177,-0.077854,-0.000000
4.910000,2.996252,0.821269,-1.315672,0.138242,-0.060788,-0.046362,-0.206059,-0.108960,-0.063075,0.726665,0.315029,0.466689,-5.451039,-0.897520,-2.740976,-0.011033,0.020868,0.000000,0.031359,-0.072578,0.000000
4.920000,2.997624,0.820656,-1.316139,0.136218,-0.061862,-0.046969,-0.199065,-0.105855,-0.058545,0.671095,0.305794,0.438615,-5.659177,-0.951557,-2.876072,-0.010724,0.020169,0.000000,0.030486,-0.067076,-0.000000
4.930000,2.998977,0.820032,-1.316612,0.134261,-0.062905,-0.047533,-0.192637,-0.102844,-0.054303,0.613482,0.295998,0.409167,-5.859320,-1.010009,-3.015950,-0.010424,0.019526,0.000000,0.029553,-0.061355,-0.000000
4.940000,3.000310,0.819398,-1.317090,0.132365,-0.063919,-0.048055,-0.186796,-0.099935,-0.050362,0.553908,0.285594,0.378296,-6.050848,-1.073386,-3.160911,-0.010133,0.018942,0.000000,0.028556,-0.055426,0.000000
4.950000,3.001624,0.818754,-1.317573,0.130525,-0.064904,-0.048540,-0.181559,-0.097132,-0.046737,0.492465,0.274530,0.345949,-6.233131,-1.142200,-3.311273,-0.009852,0.018418,0.000000,0.027490,-0.049297,0.000000
4.960000,3.002920,0.818100,-1.318061,0.128734,-0.065861,-0.048990,-0.176946,-0.094444,-0.043443,0.429246,0.262750,0.312071,-6.405604,-1.216963,-3.467281,-0.009583,0.017956,0.000000,0.026348,-0.042978,-0.000000
4.970000,3.004199,0.817437,-1.318553,0.126986,-0.066792,-0.049409,-0.172974,-0.091877,-0.040495,0.364352,0.250191,0.276603,96.485404,51.796414,17.492002,-0.009325,0.017558,0.000000,0.025125,-0.036482,-0.000000
4.980000,3.005460,0.816764,-1.319049,0.125275,-0.067699,-0.049800,-0.169659,-0.089440,-0.037911,2.358954,1.298678,0.661911,197.374544,102.210141,36.438704,-0.009081,0.017226,0.000000,0.131195,-0.238300,0.000000
4.990000,3.006704,0.816083,-1.319549,0.123593,-0.068581,-0.050167,-0.125795,-0.065904,-0.027257,4.311843,2.294394,1.005377,93.916281,46.823085,14.174408,-0.006699,0.012787,0.000000,0.232484,-0.436929,-0.000000
5.000000,3.007932,0.815392,-1.320052,0.122759,-0.069017,-0.050345,-0.083422,-0.043552,-0.017803,4.237279,2.235140,0.945399,-7.456396,-5.925388,-5.997865,-0.004431,0.008488,0.000000,0.226975,-0.430300,-0.000000
