time,x,y,z,vx,vy,vz,ax,ay,az,jx,jy,jz,sx,sy,sz,roll,pitch,yaw,p,q,r
0.000000,-3.341163,-0.299266,-1.474494,0.000365,-0.004295,-0.026812,0.078044,0.011399,0.048259,3.886593,0.317604,2.193369,3.659746,-22.630160,-20.833211,0.001168,-0.007995,0.000000,0.032793,-0.399916,0.000000
0.010000,-3.341159,-0.299309,-1.474762,0.001145,-0.004181,-0.026330,0.116910,0.014575,0.070193,3.923190,0.091302,1.985036,-86.680421,-39.491398,-85.100713,0.001496,-0.012003,0.000000,0.009671,-0.405187,-0.000000
0.020000,-3.341140,-0.299349,-1.475021,0.002703,-0.004003,-0.025408,0.156507,0.013225,0.087960,2.152984,-0.472224,0.491354,-169.299228,-40.648941,-137.250221,0.001360,-0.016097,0.000000,-0.048502,-0.222210,0.000000
0.030000,-3.341105,-0.299389,-1.475271,0.004275,-0.003916,-0.024570,0.159969,0.005131,0.080020,0.537206,-0.721676,-0.759968,-62.544519,-4.443902,-59.656268,0.000527,-0.016439,0.000000,-0.074202,-0.053913,0.000000
0.040000,-3.341055,-0.299428,-1.475512,0.005902,-0.003901,-0.023808,0.167252,-0.001208,0.072761,0.902094,-0.561102,-0.701771,34.809784,14.657381,4.906574,-0.000124,-0.017175,0.000000,-0.057607,-0.091379,0.000000
0.050000,-3.340987,-0.299467,-1.475747,0.007620,-0.003940,-0.023115,0.178011,-0.006091,0.065984,1.233401,-0.428529,-0.661836,31.525534,12.044912,3.221074,-0.000625,-0.018267,0.000000,-0.043927,-0.125298,0.000000
0.060000,-3.340902,-0.299506,-1.475975,0.009463,-0.004022,-0.022488,0.191920,-0.009779,0.059524,1.532605,-0.320204,-0.637350,28.388420,9.795260,1.807529,-0.001003,-0.019681,0.000000,-0.032765,-0.155835,-0.000000
0.070000,-3.340798,-0.299547,-1.476196,0.011459,-0.004136,-0.021925,0.208663,-0.012495,0.053237,1.801170,-0.232624,-0.625686,25.397331,7.883454,0.646945,-0.001280,-0.021383,0.000000,-0.023750,-0.183152,0.000000
0.080000,-3.340673,-0.299589,-1.476413,0.013636,-0.004272,-0.021423,0.227943,-0.014431,0.047010,2.040551,-0.162535,-0.624411,22.551151,6.284521,-0.279646,-0.001478,-0.023343,0.000000,-0.016542,-0.207402,-0.000000
0.090000,-3.340525,-0.299633,-1.476625,0.016018,-0.004425,-0.020984,0.249474,-0.015746,0.040749,2.252193,-0.106933,-0.631279,19.848748,4.973487,-0.991241,-0.001611,-0.025531,0.000000,-0.010829,-0.228739,0.000000
0.100000,-3.340353,-0.299678,-1.476833,0.018625,-0.004587,-0.020608,0.272987,-0.016570,0.034384,2.437526,-0.063065,-0.644236,17.288986,3.925378,-1.506838,-0.001694,-0.027918,0.000000,-0.006325,-0.247314,-0.000000
0.110000,-3.340153,-0.299724,-1.477037,0.021477,-0.004756,-0.020297,0.298225,-0.017007,0.027865,2.597972,-0.028426,-0.661416,14.870775,3.115222,-1.845413,-0.001738,-0.030477,0.000000,-0.002773,-0.263277,-0.000000
0.120000,-3.339923,-0.299773,-1.477239,0.024590,-0.004927,-0.020051,0.324946,-0.017138,0.021156,2.734942,-0.000761,-0.681144,12.592981,2.518044,-2.025960,-0.001750,-0.033183,0.000000,0.000060,-0.276778,-0.000000
0.130000,-3.339661,-0.299823,-1.477438,0.027976,-0.005099,-0.019874,0.352924,-0.017022,0.014242,2.849832,0.021935,-0.701935,10.454470,2.108871,-2.067471,-0.001737,-0.036013,0.000000,0.002380,-0.287969,-0.000000
0.140000,-3.339364,-0.299875,-1.477636,0.031648,-0.005268,-0.019766,0.381943,-0.016700,0.007117,2.944031,0.041417,-0.722493,8.454197,1.862733,-1.988906,-0.001702,-0.038943,0.000000,0.004367,-0.297000,-0.000000
0.150000,-3.339028,-0.299928,-1.477833,0.035615,-0.005433,-0.019731,0.411804,-0.016194,-0.000208,3.018916,0.059190,-0.741713,6.590990,1.754654,-1.809278,-0.001649,-0.041952,0.000000,0.006174,-0.304022,0.000000
0.160000,-3.338651,-0.299983,-1.478031,0.039884,-0.005592,-0.019770,0.442321,-0.015516,-0.007717,3.075851,0.076510,-0.758679,4.863641,1.759654,-1.547605,-0.001579,-0.045023,0.000000,0.007929,-0.309186,-0.000000
0.170000,-3.338230,-0.300040,-1.478229,0.044462,-0.005743,-0.019886,0.473321,-0.014664,-0.015382,3.116189,0.094383,-0.772665,3.272585,1.848812,-1.225770,-0.001491,-0.048136,0.000000,0.009735,-0.312643,0.000000
0.180000,-3.337762,-0.300098,-1.478428,0.049351,-0.005885,-0.020078,0.504645,-0.013628,-0.023170,3.141303,0.113486,-0.783194,1.842007,1.928069,-0.914145,-0.001384,-0.051276,0.000000,0.011659,-0.314543,0.000000
0.190000,-3.337243,-0.300158,-1.478630,0.054555,-0.006016,-0.020349,0.536147,-0.012394,-0.031046,3.153029,0.132944,-0.790948,0.561966,1.996336,-0.613974,-0.001258,-0.054427,0.000000,0.013612,-0.315082,0.000000
0.200000,-3.336671,-0.300219,-1.478835,0.060074,-0.006133,-0.020699,0.567706,-0.010969,-0.038989,3.152542,0.153413,-0.795474,-0.755111,2.538455,0.034926,-0.001112,-0.057577,0.000000,0.015661,-0.314388,0.000000
0.210000,-3.336042,-0.300280,-1.479044,0.065909,-0.006235,-0.021129,0.599198,-0.009326,-0.046955,3.137927,0.183714,-0.790249,-2.090356,3.474833,0.972941,-0.000944,-0.060715,0.000000,0.018697,-0.312319,0.000000
0.220000,-3.335353,-0.300343,-1.479258,0.072058,-0.006319,-0.021638,0.630464,-0.007295,-0.054794,3.110735,0.222910,-0.776015,-2.910791,3.318737,1.093910,-0.000738,-0.063824,0.000000,0.022623,-0.309047,0.000000
0.230000,-3.334601,-0.300407,-1.479477,0.078518,-0.006381,-0.022225,0.661413,-0.004868,-0.062475,3.079711,0.250088,-0.768371,-3.217774,2.019820,0.359287,-0.000492,-0.066896,0.000000,0.025324,-0.305364,0.000000
0.240000,-3.333782,-0.300471,-1.479703,0.085286,-0.006417,-0.022888,0.692058,-0.002293,-0.070161,3.046379,0.263306,-0.768829,-3.751301,1.582188,0.259378,-0.000232,-0.069931,0.000000,0.026608,-0.301404,0.000000
0.250000,-3.332895,-0.300535,-1.479935,0.092359,-0.006427,-0.023628,0.722340,0.000398,-0.077852,3.004685,0.281732,-0.763184,-4.517000,2.185890,0.932742,0.000040,-0.072924,0.000000,0.028413,-0.296655,-0.000000
0.260000,-3.331935,-0.300599,-1.480175,0.099733,-0.006409,-0.024445,0.752152,0.003341,-0.085425,2.956039,0.307024,-0.750174,-5.030983,2.459429,1.358410,0.000337,-0.075864,0.000000,0.030905,-0.291283,0.000000
0.270000,-3.330900,-0.300663,-1.480424,0.107402,-0.006360,-0.025336,0.781461,0.006539,-0.092855,2.904065,0.330921,-0.736015,-5.467469,2.297097,1.442796,0.000658,-0.078750,0.000000,0.033249,-0.285612,-0.000000
0.280000,-3.329787,-0.300727,-1.480682,0.115362,-0.006278,-0.026302,0.810233,0.009960,-0.100145,2.846690,0.352966,-0.721318,-6.020978,2.173802,1.537772,0.001002,-0.081577,0.000000,0.035402,-0.279431,0.000000
0.290000,-3.328593,-0.300789,-1.480950,0.123607,-0.006161,-0.027339,0.838395,0.013598,-0.107282,2.783646,0.374397,-0.705260,-6.424174,2.104943,1.674764,0.001366,-0.084338,0.000000,0.037489,-0.272725,0.000000
0.300000,-3.327315,-0.300850,-1.481229,0.132130,-0.006006,-0.028447,0.865906,0.017448,-0.114251,2.718206,0.395065,-0.687823,-6.581615,2.020572,1.808261,0.001751,-0.087031,0.000000,0.039495,-0.265824,0.000000
0.310000,-3.325950,-0.300909,-1.481519,0.140925,-0.005812,-0.029624,0.892759,0.021500,-0.121038,2.652013,0.414808,-0.669095,-6.698195,1.928045,1.929403,0.002156,-0.089655,0.000000,0.041405,-0.258893,0.000000
0.320000,-3.324497,-0.300966,-1.481821,0.149985,-0.005576,-0.030868,0.918947,0.025744,-0.127633,2.584243,0.433626,-0.649235,-6.949078,1.841178,2.033185,0.002580,-0.092209,0.000000,0.043220,-0.251850,0.000000
0.330000,-3.322951,-0.301020,-1.482136,0.159304,-0.005297,-0.032177,0.944444,0.030172,-0.134023,2.513032,0.451632,-0.628431,-7.281596,1.757147,2.121494,0.003021,-0.094692,0.000000,0.044952,-0.244509,0.000000
0.340000,-3.321310,-0.301072,-1.482465,0.168874,-0.004973,-0.033549,0.969207,0.034777,-0.140201,2.438611,0.468768,-0.606805,-7.486353,1.658634,2.201070,0.003479,-0.097099,0.000000,0.046597,-0.236892,-0.000000
0.350000,-3.319573,-0.301120,-1.482807,0.178688,-0.004601,-0.034981,0.993216,0.039547,-0.146159,2.363305,0.484804,-0.584410,-7.523213,1.543764,2.273992,0.003953,-0.099430,0.000000,0.048130,-0.229232,0.000000
0.360000,-3.317737,-0.301164,-1.483164,0.188738,-0.004182,-0.036472,1.016473,0.044473,-0.151889,2.288146,0.499644,-0.561325,-7.542901,1.424610,2.335920,0.004441,-0.101684,0.000000,0.049545,-0.221631,-0.000000
0.370000,-3.315799,-0.301204,-1.483537,0.199017,-0.003712,-0.038019,1.038979,0.049540,-0.157386,2.212447,0.513296,-0.537691,-7.660779,1.305035,2.382170,0.004943,-0.103863,0.000000,0.050842,-0.214017,0.000000
0.380000,-3.313756,-0.301238,-1.483925,0.209518,-0.003191,-0.039620,1.060722,0.054739,-0.162643,2.134931,0.525744,-0.513682,-7.836770,1.181126,2.414269,0.005458,-0.105965,0.000000,0.052021,-0.206263,-0.000000
0.390000,-3.311608,-0.301267,-1.484329,0.220232,-0.002617,-0.041272,1.081678,0.060055,-0.167659,2.055711,0.536919,-0.489406,-7.933689,1.049050,2.438796,0.005984,-0.107988,0.000000,0.053075,-0.198379,0.000000
0.400000,-3.309352,-0.301291,-1.484750,0.231151,-0.001990,-0.042973,1.101836,0.065477,-0.172431,1.976257,0.546725,-0.464906,-7.925974,0.909501,2.457132,0.006520,-0.109933,0.000000,0.053995,-0.190508,0.000000
0.410000,-3.306985,-0.301307,-1.485188,0.242269,-0.001308,-0.044720,1.121203,0.070990,-0.176957,1.897192,0.555109,-0.440263,-7.911722,0.765113,2.465236,0.007064,-0.111799,0.000000,0.054777,-0.182710,0.000000
0.420000,-3.304506,-0.301317,-1.485644,0.253576,-0.000570,-0.046512,1.139780,0.076579,-0.181237,1.818023,0.562028,-0.415601,-7.965422,0.615164,2.460889,0.007615,-0.113587,0.000000,0.055418,-0.174935,0.000000
0.430000,-3.301914,-0.301319,-1.486119,0.265064,0.000224,-0.048345,1.157563,0.082230,-0.185269,1.737883,0.567412,-0.391045,-8.060626,0.458778,2.445766,0.008172,-0.115297,0.000000,0.055910,-0.167093,-0.000000
0.440000,-3.299205,-0.301312,-1.486611,0.276727,0.001075,-0.050217,1.174538,0.087927,-0.189057,1.656810,0.571203,-0.366686,-8.108314,0.297486,2.423208,0.008733,-0.116929,0.000000,0.056248,-0.159186,0.000000
0.450000,-3.296379,-0.301297,-1.487123,0.288555,0.001983,-0.052126,1.190700,0.093654,-0.192603,1.575717,0.573362,-0.342581,-8.091517,0.132416,2.393799,0.009297,-0.118481,0.000000,0.056429,-0.151303,0.000000
0.460000,-3.293434,-0.301273,-1.487654,0.300541,0.002948,-0.054069,1.206052,0.099395,-0.195909,1.494980,0.573852,-0.318810,-8.073466,-0.037346,2.355824,0.009862,-0.119955,0.000000,0.056449,-0.143478,0.000000
0.470000,-3.290368,-0.301238,-1.488204,0.312676,0.003970,-0.056044,1.220599,0.105131,-0.198979,1.414248,0.572615,-0.295465,-8.102871,-0.213931,2.308847,0.010426,-0.121351,0.000000,0.056303,-0.135673,0.000000
0.480000,-3.287180,-0.301193,-1.488775,0.324953,0.005050,-0.058049,1.234337,0.110847,-0.201818,1.332922,0.569573,-0.272633,-8.162468,-0.397052,2.253869,0.010988,-0.122669,0.000000,0.055983,-0.127827,-0.000000
0.490000,-3.283869,-0.301137,-1.489365,0.337363,0.006187,-0.060081,1.247258,0.116523,-0.204432,1.250998,0.564674,-0.250387,-8.193341,-0.583498,2.192065,0.011546,-0.123908,0.000000,0.055485,-0.119937,-0.000000
0.500000,-3.280433,-0.301069,-1.489976,0.349898,0.007381,-0.062138,1.259357,0.122140,-0.206826,1.169055,0.557903,-0.228792,-8.183685,-0.771886,2.123594,0.012098,-0.125068,0.000000,0.054807,-0.112058,0.000000
0.510000,-3.276871,-0.300990,-1.490608,0.362550,0.008630,-0.064217,1.270639,0.127681,-0.209008,1.087325,0.549236,-0.207916,-8.174901,-0.964196,2.048227,0.012642,-0.126149,0.000000,0.053946,-0.104210,-0.000000
0.520000,-3.273182,-0.300897,-1.491261,0.375311,0.009934,-0.066318,1.281104,0.133125,-0.210984,1.005557,0.538619,-0.187827,-8.199701,-1.163280,1.966690,0.013177,-0.127152,0.000000,0.052897,-0.096366,0.000000
0.530000,-3.269365,-0.300791,-1.491934,0.388172,0.011293,-0.068437,1.290750,0.138453,-0.212764,0.923331,0.525971,-0.168582,-8.246344,-1.368471,1.879460,0.013700,-0.128077,0.000000,0.051652,-0.088481,-0.000000
0.540000,-3.265419,-0.300671,-1.492629,0.401126,0.012704,-0.070573,1.299570,0.143645,-0.214356,0.840631,0.511250,-0.150238,-8.274519,-1.575567,1.786255,0.014210,-0.128922,0.000000,0.050206,-0.080554,0.000000
0.550000,-3.261343,-0.300537,-1.493346,0.414163,0.014166,-0.072724,1.307562,0.148678,-0.215769,0.757840,0.494459,-0.132857,-8.277091,-1.782975,1.687787,0.014704,-0.129688,0.000000,0.048560,-0.072618,-0.000000
0.560000,-3.257135,-0.300388,-1.494084,0.427277,0.015677,-0.074888,1.314727,0.153534,-0.217013,0.675089,0.475590,-0.116482,-8.281814,-1.993264,1.584764,0.015181,-0.130375,0.000000,0.046712,-0.064684,0.000000
0.570000,-3.252797,-0.300223,-1.494844,0.440458,0.017236,-0.077064,1.321064,0.158190,-0.218099,0.592204,0.454594,-0.101161,-8.306974,-2.209671,1.476112,0.015638,-0.130982,0.000000,0.044658,-0.056734,0.000000
0.580000,-3.248326,-0.300043,-1.495625,0.453698,0.018841,-0.079250,1.326571,0.162626,-0.219036,0.508949,0.431397,-0.086960,-8.344266,-2.431330,1.361806,0.016074,-0.131510,0.000000,0.042389,-0.048741,0.000000
0.590000,-3.243723,-0.299846,-1.496429,0.466989,0.020489,-0.081445,1.331243,0.166818,-0.219838,0.425319,0.405968,-0.073925,-8.371073,-2.653425,1.244245,0.016486,-0.131957,0.000000,0.039903,-0.040704,0.000000
0.600000,-3.238987,-0.299633,-1.497254,0.480323,0.022177,-0.083647,1.335078,0.170745,-0.220515,0.341528,0.378328,-0.062075,-8.382255,-2.873840,1.125150,0.016872,-0.132324,0.000000,0.037200,-0.032642,0.000000
0.610000,-3.234117,-0.299403,-1.498102,0.493691,0.023904,-0.085855,1.338074,0.174385,-0.221079,0.257674,0.348491,-0.051422,-8.393014,-3.095506,1.003304,0.017230,-0.132610,0.000000,0.034281,-0.024563,0.000000
0.620000,-3.229113,-0.299155,-1.498971,0.507085,0.025665,-0.088069,1.340231,0.177715,-0.221543,0.173667,0.316418,-0.042009,-8.416727,-3.322922,0.875441,0.017558,-0.132815,0.000000,0.031143,-0.016456,-0.000000
0.630000,-3.223975,-0.298890,-1.499863,0.520496,0.027458,-0.090286,1.341547,0.180713,-0.221920,0.089339,0.282032,-0.033913,-8.448803,-3.554887,0.742098,0.017853,-0.132939,0.000000,0.027776,-0.008304,0.000000
0.640000,-3.218703,-0.298606,-1.500777,0.533916,0.029279,-0.092507,1.342018,0.183355,-0.222222,0.004691,0.245320,-0.027167,-8.471643,-3.784770,0.608661,0.018113,-0.132981,0.000000,0.024180,-0.000104,0.000000
0.650000,-3.213297,-0.298304,-1.501713,0.547336,0.031125,-0.094731,1.341641,0.185619,-0.222463,-0.080094,0.206337,-0.021740,-8.480878,-4.011546,0.477694,0.018337,-0.132941,0.000000,0.020359,0.008127,0.000000
0.660000,-3.207756,-0.297983,-1.502672,0.560748,0.032992,-0.096956,1.340416,0.187482,-0.222656,-0.164926,0.165089,-0.017613,-8.488034,-4.239157,0.346037,0.018520,-0.132819,0.000000,0.016313,0.016378,0.000000
0.670000,-3.202082,-0.297644,-1.503652,0.574144,0.034875,-0.099184,1.338342,0.188921,-0.222815,-0.249854,0.121554,-0.014819,-8.502719,-4.468320,0.208739,0.018663,-0.132614,0.000000,0.012039,0.024658,0.000000
0.680000,-3.196273,-0.297286,-1.504655,0.587515,0.036770,-0.101413,1.335419,0.189913,-0.222953,-0.334981,0.075723,-0.013438,-8.520605,-4.697510,0.066861,0.018761,-0.132325,0.000000,0.007536,0.032976,0.000000
0.690000,-3.190331,-0.296909,-1.505681,0.600853,0.038673,-0.103643,1.331643,0.190436,-0.223084,-0.420267,0.027604,-0.013482,-8.528665,-4.925231,-0.071974,0.018814,-0.131954,0.000000,0.002804,0.041331,0.000000
0.700000,-3.184256,-0.296512,-1.506728,0.614148,0.040579,-0.105874,1.327013,0.190465,-0.223223,-0.505554,-0.022782,-0.014878,-8.526665,-5.149119,-0.203729,0.018817,-0.131499,0.000000,-0.002154,0.049706,0.000000
0.710000,-3.178048,-0.296097,-1.507798,0.627393,0.042482,-0.108107,1.321532,0.189980,-0.223382,-0.590800,-0.075379,-0.017557,-8.522411,-5.369693,-0.332988,0.018770,-0.130960,0.000000,-0.007335,0.058096,0.000000
0.720000,-3.171708,-0.295663,-1.508890,0.640579,0.044378,-0.110342,1.315197,0.188958,-0.223574,-0.676002,-0.130175,-0.021538,-8.513713,-5.592718,-0.468467,0.018671,-0.130337,0.000000,-0.012737,0.066501,0.000000
0.730000,-3.165237,-0.295210,-1.510005,0.653697,0.046261,-0.112579,1.308012,0.187376,-0.223812,-0.761074,-0.187233,-0.026926,-8.497080,-5.817843,-0.608697,0.018516,-0.129629,0.000000,-0.018366,0.074915,-0.000000
0.740000,-3.158634,-0.294738,-1.511142,0.666739,0.048126,-0.114818,1.299976,0.185213,-0.224112,-0.845944,-0.246532,-0.033712,-8.475097,-6.036221,-0.740726,0.018303,-0.128838,0.000000,-0.024222,0.083329,0.000000
0.750000,-3.151902,-0.294247,-1.512301,0.679696,0.049966,-0.117061,1.291093,0.182446,-0.224487,-0.930576,-0.307958,-0.041741,-8.448596,-6.245735,-0.859295,0.018031,-0.127963,0.000000,-0.030291,0.091739,-0.000000
0.760000,-3.145040,-0.293738,-1.513483,0.692561,0.051775,-0.119308,1.281364,0.179054,-0.224947,-1.014916,-0.371447,-0.050897,-8.414883,-6.451716,-0.972408,0.017697,-0.127003,0.000000,-0.036569,0.100137,-0.000000
0.770000,-3.138051,-0.293212,-1.514687,0.705324,0.053547,-0.121560,1.270794,0.175017,-0.225504,-1.098874,-0.436992,-0.061189,-8.371363,-6.656805,-1.090856,0.017300,-0.125959,0.000000,-0.043054,0.108514,0.000000
0.780000,-3.130934,-0.292667,-1.515914,0.717977,0.055275,-0.123818,1.259387,0.170314,-0.226171,-1.182343,-0.504583,-0.072715,-8.318064,-6.858529,-1.211761,0.016836,-0.124832,0.000000,-0.049746,0.116860,-0.000000
0.790000,-3.123691,-0.292106,-1.517164,0.730511,0.056953,-0.126083,1.247148,0.164925,-0.226959,-1.265235,-0.574163,-0.085424,-8.257310,-7.052675,-1.319289,0.016305,-0.123622,0.000000,-0.056638,0.125166,0.000000
0.800000,-3.116324,-0.291528,-1.518436,0.742920,0.058574,-0.128357,1.234082,0.158831,-0.227879,-1.347489,-0.645637,-0.099100,-8.190218,-7.239254,-1.408499,0.015704,-0.122329,0.000000,-0.063721,0.133421,0.000000
0.810000,-3.108833,-0.290935,-1.519731,0.755193,0.060130,-0.130641,1.220198,0.152012,-0.228941,-1.429039,-0.718948,-0.113594,-8.114377,-7.420166,-1.488965,0.015031,-0.120953,0.000000,-0.070988,0.141617,0.000000
0.820000,-3.101220,-0.290326,-1.521049,0.767324,0.061614,-0.132936,1.205502,0.144452,-0.230151,-1.509777,-0.794040,-0.128880,-8.025080,-7.593442,-1.569785,0.014284,-0.119496,0.000000,-0.078433,0.149741,0.000000
0.830000,-3.093486,-0.289702,-1.522390,0.779303,0.063019,-0.135244,1.190002,0.136132,-0.231518,-1.589541,-0.870816,-0.144990,-7.922012,-7.757848,-1.647057,0.013462,-0.117958,0.000000,-0.086046,0.157778,0.000000
0.840000,-3.085634,-0.289065,-1.523754,0.791124,0.064336,-0.137566,1.173711,0.127036,-0.233051,-1.668217,-0.949197,-0.161821,-7.810594,-7.915079,-1.706997,0.012563,-0.116340,0.000000,-0.093818,0.165713,0.000000
0.850000,-3.077664,-0.288416,-1.525141,0.802777,0.065559,-0.139905,1.156638,0.117148,-0.234755,-1.745753,-1.029118,-0.179130,-7.693986,-8.063812,-1.746232,0.011586,-0.114644,0.000000,-0.101742,0.173538,-0.000000
0.860000,-3.069578,-0.287754,-1.526552,0.814256,0.066679,-0.142261,1.138796,0.106453,-0.236634,-1.822097,-1.110473,-0.196745,-7.567633,-8.202125,-1.772599,0.010528,-0.112869,0.000000,-0.109806,0.181245,0.000000
0.870000,-3.061379,-0.287082,-1.527986,0.825553,0.067688,-0.144638,1.120196,0.094938,-0.238690,-1.897106,-1.193161,-0.214582,-7.421888,-8.332720,-1.790853,0.009389,-0.111018,0.000000,-0.117999,0.188817,0.000000
0.880000,-3.053067,-0.286400,-1.529444,0.836660,0.068578,-0.147035,1.100854,0.082590,-0.240925,-1.970534,-1.277128,-0.232562,-7.257291,-8.455640,-1.797028,0.008168,-0.109093,0.000000,-0.126315,0.196229,-0.000000
0.890000,-3.044646,-0.285710,-1.530927,0.847570,0.069340,-0.149456,1.080785,0.069396,-0.243341,-2.042251,-1.362273,-0.250522,-7.086058,-8.565840,-1.782880,0.006863,-0.107094,0.000000,-0.134743,0.203464,0.000000
0.900000,-3.036116,-0.285014,-1.532434,0.858276,0.069966,-0.151902,1.060009,0.055345,-0.245936,-2.112255,-1.448444,-0.268220,-6.910780,-8.662804,-1.747837,0.005473,-0.105023,0.000000,-0.143265,0.210520,0.000000
0.910000,-3.027480,-0.284311,-1.533965,0.868770,0.070447,-0.154375,1.038540,0.040427,-0.248705,-2.180467,-1.535529,-0.285479,-6.722639,-8.749053,-1.695619,0.003998,-0.102883,0.000000,-0.151871,0.217385,0.000000
0.920000,-3.018740,-0.283605,-1.535521,0.879047,0.070775,-0.156876,1.016399,0.024634,-0.251645,-2.246708,-1.623425,-0.302132,-6.515332,-8.822817,-1.623251,0.002436,-0.100676,0.000000,-0.160548,0.224041,-0.000000
0.930000,-3.009899,-0.282896,-1.537102,0.889098,0.070940,-0.159408,0.993606,0.007958,-0.254748,-2.310774,-1.711986,-0.317944,-6.291160,-8.882421,-1.527201,0.000787,-0.098403,0.000000,-0.169281,0.230463,-0.000000
0.940000,-3.000958,-0.282186,-1.538709,0.898919,0.070934,-0.161971,0.970184,-0.009606,-0.258004,-2.372531,-1.801074,-0.332676,-6.057637,-8.929330,-1.409693,-0.000950,-0.096066,0.000000,-0.178056,0.236637,0.000000
0.950000,-2.991921,-0.281477,-1.540342,0.908502,0.070748,-0.164568,0.946155,-0.028063,-0.261402,-2.431926,-1.890572,-0.346138,-5.816796,-8.963547,-1.275542,-0.002774,-0.093670,0.000000,-0.186860,0.242556,-0.000000
0.960000,-2.982788,-0.280771,-1.542001,0.917842,0.070373,-0.167199,0.921545,-0.047417,-0.264927,-2.488867,-1.980345,-0.358187,-5.563217,-8.983138,-1.121021,-0.004687,-0.091215,0.000000,-0.195680,0.248208,0.000000
0.970000,-2.973564,-0.280070,-1.543686,0.926933,0.069799,-0.169866,0.896378,-0.067670,-0.268565,-2.543191,-2.070235,-0.368558,-5.291077,-8.986938,-0.929507,-0.006688,-0.088706,0.000000,-0.204499,0.253577,0.000000
0.980000,-2.964250,-0.279375,-1.545398,0.935770,0.069019,-0.172570,0.870681,-0.088822,-0.272298,-2.594689,-2.160083,-0.376777,-5.002000,-8.974851,-0.699512,-0.008777,-0.086144,0.000000,-0.213302,0.258639,-0.000000
0.990000,-2.954848,-0.278689,-1.547137,0.944347,0.068023,-0.175312,0.844484,-0.110872,-0.276101,-2.643231,-2.249732,-0.382549,-4.703250,-8.947136,-0.451666,-0.010954,-0.083533,0.000000,-0.222074,0.263380,-0.000000
1.000000,-2.945363,-0.278014,-1.548904,0.952659,0.066802,-0.178092,0.817817,-0.133817,-0.279949,-2.688754,-2.339026,-0.385811,-4.394645,-8.903677,-0.193617,-0.013218,-0.080876,0.000000,-0.230801,0.267795,-0.000000
1.010000,-2.935795,-0.277353,-1.550699,0.960703,0.065347,-0.180911,0.790709,-0.157652,-0.283817,-2.731124,-2.427806,-0.386421,-4.071253,-8.843426,0.090552,-0.015570,-0.078176,0.000000,-0.239467,0.271871,0.000000
1.020000,-2.926149,-0.276708,-1.552522,0.968473,0.063649,-0.183769,0.763194,-0.182373,-0.287677,-2.770179,-2.515895,-0.384000,-3.734285,-8.764708,0.421851,-0.018008,-0.075438,0.000000,-0.248057,0.275593,-0.000000
1.030000,-2.916426,-0.276080,-1.554374,0.975967,0.061699,-0.186665,0.735306,-0.207970,-0.291497,-2.805809,-2.603100,-0.377984,-3.385683,-8.667215,0.798708,-0.020531,-0.072664,0.000000,-0.256555,0.278948,-0.000000
1.040000,-2.906629,-0.275474,-1.556256,0.983180,0.059489,-0.189599,0.707078,-0.234435,-0.295237,-2.837893,-2.689239,-0.368026,-3.023148,-8.552001,1.194598,-0.023139,-0.069858,0.000000,-0.264946,0.281926,0.000000
1.050000,-2.896762,-0.274890,-1.558166,0.990108,0.057010,-0.192570,0.678548,-0.261755,-0.298858,-2.866272,-2.774140,-0.354092,-2.644463,-8.418286,1.591216,-0.025830,-0.067024,0.000000,-0.273217,0.284515,-0.000000
1.060000,-2.886827,-0.274333,-1.560107,0.996751,0.054254,-0.195576,0.649753,-0.289917,-0.302319,-2.890782,-2.857605,-0.336201,-2.251280,-8.264561,2.008580,-0.028603,-0.064165,0.000000,-0.281351,0.286702,-0.000000
1.070000,-2.876827,-0.273805,-1.562078,1.003103,0.051212,-0.198616,0.620732,-0.318907,-0.305582,-2.911298,-2.939431,-0.313920,-1.848631,-8.091420,2.497771,-0.031457,-0.061287,0.000000,-0.289333,0.288478,0.000000
1.080000,-2.866765,-0.273309,-1.564079,1.009165,0.047876,-0.201688,0.591527,-0.348706,-0.308597,-2.927755,-3.019433,-0.286246,-1.436417,-7.898788,3.057000,-0.034390,-0.058393,0.000000,-0.297154,0.289835,-0.000000
1.090000,-2.856644,-0.272848,-1.566112,1.014934,0.044238,-0.204788,0.562177,-0.379296,-0.311306,-2.940026,-3.097407,-0.252780,-1.007537,-7.684560,3.617325,-0.037400,-0.055487,0.000000,-0.304801,0.290765,0.000000
1.100000,-2.846466,-0.272424,-1.568175,1.020409,0.040290,-0.207914,0.532726,-0.410654,-0.313653,-2.947905,-3.173124,-0.213899,-0.558456,-7.447844,4.150816,-0.040486,-0.052573,0.000000,-0.312257,0.291256,-0.000000
1.110000,-2.836236,-0.272042,-1.570270,1.025589,0.036025,-0.211061,0.503219,-0.442758,-0.315584,-2.951195,-3.246364,-0.169764,-0.094002,-7.189250,4.705438,-0.043645,-0.049657,0.000000,-0.319506,0.291295,0.000000
1.120000,-2.825955,-0.271704,-1.572396,1.030473,0.031435,-0.214225,0.473702,-0.475582,-0.317048,-2.949785,-3.316909,-0.119791,0.377480,-6.908888,5.348600,-0.046876,-0.046742,0.000000,-0.326538,0.290874,-0.000000
1.130000,-2.815626,-0.271413,-1.574554,1.035063,0.026513,-0.217402,0.444223,-0.509096,-0.317980,-2.943646,-3.384541,-0.062792,0.857433,-6.605833,6.068060,-0.050176,-0.043833,0.000000,-0.333344,0.289993,0.000000
1.140000,-2.805253,-0.271174,-1.576744,1.039358,0.021253,-0.220585,0.414829,-0.543272,-0.318304,-2.932637,-3.449026,0.001571,1.357372,-6.278829,6.772923,-0.053543,-0.040935,0.000000,-0.339915,0.288643,0.000000
1.150000,-2.794839,-0.270988,-1.578966,1.043359,0.015648,-0.223768,0.385571,-0.578077,-0.317949,-2.916498,-3.510118,0.072666,1.879744,-5.927688,7.434546,-0.056974,-0.038052,0.000000,-0.346233,0.286810,0.000000
1.160000,-2.784386,-0.270861,-1.581220,1.047069,0.009691,-0.226944,0.356499,-0.613475,-0.316851,-2.895042,-3.567580,0.150262,2.417100,-5.552356,8.113654,-0.060468,-0.035189,0.000000,-0.352286,0.284481,0.000000
1.170000,-2.773898,-0.270794,-1.583505,1.050489,0.003378,-0.230105,0.327670,-0.649428,-0.314944,-2.868156,-3.621165,0.234940,2.965167,-5.151358,8.875062,-0.064020,-0.032351,0.000000,-0.358062,0.281652,-0.000000
1.180000,-2.763376,-0.270793,-1.585822,1.053622,-0.003297,-0.233243,0.299136,-0.685898,-0.312152,-2.835738,-3.670607,0.327763,3.527236,-4.723896,9.701241,-0.067629,-0.029544,0.000000,-0.363557,0.278313,-0.000000
1.190000,-2.752825,-0.270860,-1.588170,1.056472,-0.010340,-0.236348,0.270955,-0.722841,-0.308388,-2.797612,-3.715643,0.428964,4.109092,-4.270858,10.503387,-0.071292,-0.026772,0.000000,-0.368758,0.274456,0.000000
1.200000,-2.742247,-0.271000,-1.590549,1.059041,-0.017754,-0.239411,0.243184,-0.760211,-0.303573,-2.753557,-3.756024,0.537831,4.707819,-3.792534,11.247772,-0.075005,-0.024041,0.000000,-0.373653,0.270067,0.000000
1.210000,-2.731644,-0.271215,-1.592958,1.061336,-0.025544,-0.242420,0.215884,-0.797961,-0.297632,-2.703455,-3.791494,0.653920,5.320387,-3.287409,11.992119,-0.078765,-0.021355,0.000000,-0.378225,0.265139,0.000000
1.220000,-2.721020,-0.271511,-1.595397,1.063359,-0.033713,-0.245363,0.189115,-0.836041,-0.290494,-2.647149,-3.821772,0.777673,5.956669,-2.752944,12.814383,-0.082570,-0.018721,0.000000,-0.382465,0.259661,-0.000000
1.230000,-2.710377,-0.271890,-1.597865,1.065118,-0.042265,-0.248229,0.162941,-0.874397,-0.282078,-2.584322,-3.846553,0.910207,6.619800,-2.187102,13.697115,-0.086415,-0.016144,0.000000,-0.386366,0.253602,0.000000
1.240000,-2.699718,-0.272356,-1.600362,1.066618,-0.051201,-0.251005,0.137428,-0.912972,-0.272290,-2.514753,-3.865514,1.051615,7.296251,-1.592618,14.530457,-0.090297,-0.013630,0.000000,-0.389914,0.246945,0.000000
1.250000,-2.689045,-0.272914,-1.602885,1.067866,-0.060524,-0.253675,0.112646,-0.951707,-0.261046,-2.438397,-3.878405,1.200817,7.975024,-0.982702,15.277222,-0.094214,-0.011185,0.000000,-0.393092,0.239688,-0.000000
1.260000,-2.678361,-0.273566,-1.605435,1.068871,-0.070235,-0.256226,0.088661,-0.990540,-0.248274,-2.355252,-3.885168,1.357160,8.666453,-0.353686,16.007363,-0.098160,-0.008814,0.000000,-0.395901,0.231832,0.000000
1.270000,-2.667668,-0.274318,-1.608010,1.069640,-0.080335,-0.258641,0.065541,-1.029410,-0.233903,-2.265068,-3.885479,1.520964,9.399972,0.333772,16.799225,-0.102132,-0.006525,0.000000,-0.398327,0.223349,-0.000000
1.280000,-2.656968,-0.275173,-1.610608,1.070182,-0.090823,-0.260904,0.043359,-1.068249,-0.217854,-2.167253,-3.878493,1.693144,10.179093,1.081045,17.629238,-0.106127,-0.004324,0.000000,-0.400311,0.214177,0.000000
1.290000,-2.646264,-0.276135,-1.613228,1.070507,-0.101700,-0.262998,0.022196,-1.106980,-0.200040,-2.061486,-3.863858,1.873549,10.962679,1.834595,18.385228,-0.110139,-0.002217,0.000000,-0.401832,0.204280,0.000000
1.300000,-2.635558,-0.277207,-1.615868,1.070626,-0.112963,-0.264905,0.002129,-1.145527,-0.180383,-1.947999,-3.841801,2.060849,11.703383,2.583339,19.030431,-0.114164,-0.000213,0.000000,-0.402910,0.193674,0.000000
1.310000,-2.624851,-0.278394,-1.618526,1.070549,-0.124610,-0.266605,-0.016764,-1.183816,-0.158823,-1.827418,-3.812191,2.254157,12.432059,3.364036,19.633901,-0.118198,0.001682,0.000000,-0.403536,0.182411,0.000000
1.320000,-2.614147,-0.279699,-1.621200,1.070290,-0.136639,-0.268081,-0.034419,-1.221770,-0.135300,-1.699358,-3.774520,2.453527,13.276675,4.197278,20.268948,-0.122236,0.003461,0.000000,-0.403668,0.170441,-0.000000
1.330000,-2.603446,-0.281127,-1.623888,1.069861,-0.149046,-0.269311,-0.050751,-1.259306,-0.109752,-1.561885,-3.728245,2.659536,14.231081,5.073664,20.904838,-0.126272,0.005116,0.000000,-0.403269,0.157555,0.000000
1.340000,-2.592750,-0.282680,-1.626586,1.069275,-0.161825,-0.270276,-0.065657,-1.296335,-0.082110,-1.414737,-3.673047,2.871623,15.119174,5.966819,21.434772,-0.130302,0.006637,0.000000,-0.402309,0.143708,0.000000
1.350000,-2.582060,-0.284363,-1.629293,1.068548,-0.174973,-0.270954,-0.079046,-1.332767,-0.052320,-1.259501,-3.608909,3.088232,15.916256,6.853426,21.862272,-0.134319,0.008015,0.000000,-0.400773,0.129037,-0.000000
1.360000,-2.571379,-0.286180,-1.632005,1.067694,-0.188481,-0.271322,-0.090847,-1.368514,-0.020345,-1.096411,-3.535978,3.308869,16.738980,7.751916,22.247468,-0.138318,0.009241,0.000000,-0.398669,0.113539,0.000000
1.370000,-2.560706,-0.288133,-1.634720,1.066731,-0.202343,-0.271361,-0.100974,-1.403487,0.013857,-0.924722,-3.453871,3.533181,17.617269,8.727399,22.544287,-0.142294,0.010307,0.000000,-0.395955,0.097112,-0.000000
1.380000,-2.550044,-0.290227,-1.637433,1.065675,-0.216551,-0.271045,-0.109341,-1.437591,0.050319,-0.744066,-3.361431,3.759755,18.515986,9.778961,22.718458,-0.146238,0.011203,0.000000,-0.392492,0.079685,0.000000
1.390000,-2.539393,-0.292464,-1.640141,1.064544,-0.231095,-0.270354,-0.115856,-1.470716,0.089053,-0.554402,-3.258292,3.987550,19.396949,10.815480,22.825907,-0.150144,0.011918,0.000000,-0.388219,0.061215,0.000000
1.400000,-2.528753,-0.294848,-1.642840,1.063358,-0.245965,-0.269264,-0.120429,-1.502757,0.130070,-0.356127,-3.145121,4.216273,20.202696,11.797490,22.895249,-0.154003,0.012440,0.000000,-0.383186,0.041703,0.000000
1.410000,-2.518126,-0.297383,-1.645526,1.062136,-0.261150,-0.267753,-0.122978,-1.533618,0.173378,-0.150348,-3.022342,4.445455,20.957376,12.786755,22.875784,-0.157809,0.012761,0.000000,-0.377413,0.021218,-0.000000
1.420000,-2.507510,-0.300071,-1.648195,1.060898,-0.276637,-0.265797,-0.123436,-1.563204,0.218979,0.063020,-2.889386,4.673788,21.824649,13.874732,22.684739,-0.161552,0.012869,0.000000,-0.370805,-0.000295,0.000000
1.430000,-2.496908,-0.302916,-1.650842,1.059667,-0.292414,-0.263373,-0.121718,-1.591406,0.266854,0.286145,-2.744847,4.899150,22.802070,15.045163,22.321654,-0.165225,0.012754,0.000000,-0.363156,-0.023114,0.000000
1.440000,-2.486317,-0.305920,-1.653462,1.058464,-0.308465,-0.260460,-0.117713,-1.618101,0.316962,0.519062,-2.588483,5.120222,23.656297,16.171770,21.885851,-0.168816,0.012399,0.000000,-0.354386,-0.047301,0.000000
1.450000,-2.475738,-0.309085,-1.656051,1.057313,-0.324776,-0.257034,-0.111337,-1.643175,0.369258,0.759271,-2.421412,5.336867,24.327676,17.209676,21.439864,-0.172313,0.011793,0.000000,-0.344567,-0.072656,-0.000000
1.460000,-2.465171,-0.312415,-1.658603,1.056237,-0.341329,-0.253074,-0.102528,-1.666529,0.423699,1.005615,-2.244289,5.549019,24.968659,18.241835,20.904197,-0.175708,0.010923,0.000000,-0.333722,-0.099117,0.000000
1.470000,-2.454614,-0.315912,-1.661113,1.055262,-0.358106,-0.248560,-0.091224,-1.688061,0.480239,1.258644,-2.056575,5.754951,25.684488,19.368545,20.096216,-0.178988,0.009777,0.000000,-0.321719,-0.126804,-0.000000
1.480000,-2.444066,-0.319577,-1.663574,1.054413,-0.375090,-0.243470,-0.077355,-1.707660,0.538798,1.519305,-1.856918,5.950943,26.411112,20.563924,19.018765,-0.182142,0.008343,0.000000,-0.308290,-0.155885,-0.000000
1.490000,-2.433525,-0.323414,-1.665982,1.053715,-0.392260,-0.237784,-0.060838,-1.725200,0.599257,1.786866,-1.645297,6.135326,27.005347,21.688049,17.911742,-0.185154,0.006605,0.000000,-0.293329,-0.186350,0.000000
1.500000,-2.422991,-0.327423,-1.668330,1.053196,-0.409594,-0.231485,-0.041617,-1.740566,0.661505,2.059412,-1.423157,6.309178,27.504282,22.698440,16.890221,-0.188008,0.004549,0.000000,-0.276936,-0.218056,0.000000
1.510000,-2.412461,-0.331606,-1.670612,1.052883,-0.427071,-0.224554,-0.019650,-1.753663,0.725441,2.336952,-1.191328,6.473131,27.987776,23.683981,15.780889,-0.190692,0.002163,0.000000,-0.259135,-0.251067,0.000000
1.520000,-2.401934,-0.335964,-1.672821,1.052803,-0.444667,-0.216976,0.005122,-1.764393,0.790967,2.619168,-0.949478,6.624796,28.313626,24.731940,14.286312,-0.193190,-0.000568,0.000000,-0.239764,-0.285411,-0.000000
1.530000,-2.391405,-0.340499,-1.674951,1.052985,-0.462359,-0.208735,0.032733,-1.772652,0.857937,2.903225,-0.696689,6.758857,28.434480,25.807562,12.443788,-0.195486,-0.003656,0.000000,-0.218521,-0.320835,0.000000
1.540000,-2.380874,-0.345211,-1.676996,1.053458,-0.480120,-0.199817,0.063186,-1.778327,0.926144,3.187857,-0.433326,6.873672,28.540267,26.786920,10.650356,-0.197559,-0.007112,0.000000,-0.195308,-0.357235,0.000000
1.550000,-2.370336,-0.350101,-1.678948,1.054249,-0.497925,-0.190212,0.096490,-1.781319,0.995410,3.474030,-0.160951,6.971864,28.688955,27.659078,9.024998,-0.199390,-0.010946,0.000000,-0.170246,-0.394754,0.000000
1.560000,-2.359789,-0.355170,-1.680800,1.055387,-0.515747,-0.179909,0.132667,-1.781546,1.065582,3.761636,0.119855,7.054172,28.737835,28.497034,7.297023,-0.200962,-0.015170,0.000000,-0.143316,-0.433411,0.000000
1.570000,-2.349228,-0.360416,-1.682546,1.056902,-0.533556,-0.168900,0.171723,-1.778922,1.136494,4.048787,0.408990,7.117804,28.553010,29.296160,5.194933,-0.202254,-0.019796,0.000000,-0.114364,-0.473015,0.000000
1.580000,-2.338651,-0.365841,-1.684178,1.058822,-0.551325,-0.157179,0.213642,-1.773366,1.207938,4.332697,0.705778,7.158070,28.163576,30.020079,2.797577,-0.203247,-0.024831,0.000000,-0.083256,-0.513239,0.000000
1.590000,-2.328052,-0.371443,-1.685689,1.061175,-0.569024,-0.144741,0.258377,-1.764806,1.279655,4.612058,1.009392,7.173756,27.733222,30.668480,0.467658,-0.203917,-0.030280,0.000000,-0.049951,-0.553899,0.000000
1.600000,-2.317427,-0.377221,-1.687073,1.063989,-0.586621,-0.131586,0.305884,-1.753178,1.351413,4.887361,1.319148,7.167423,27.340777,31.258821,-1.683967,-0.204242,-0.036147,0.000000,-0.014488,-0.595017,-0.000000
1.610000,-2.306772,-0.383175,-1.688321,1.067293,-0.604087,-0.117713,0.356124,-1.738423,1.423004,5.158874,1.634568,7.140077,26.865294,31.778378,-3.895501,-0.204203,-0.042436,0.000000,0.023141,-0.636574,0.000000
1.620000,-2.296081,-0.389303,-1.689427,1.071112,-0.621390,-0.103126,0.409061,-1.720487,1.494214,5.424667,1.954716,7.089513,26.083450,32.164654,-6.419932,-0.203776,-0.049151,0.000000,0.062957,-0.678265,0.000000
1.630000,-2.285350,-0.395603,-1.690383,1.075474,-0.638497,-0.087829,0.464618,-1.699329,1.564794,5.680543,2.277861,7.011678,25.017705,32.404644,-9.176709,-0.202940,-0.056291,0.000000,0.104914,-0.719464,0.000000
1.640000,-2.274572,-0.402073,-1.691184,1.080404,-0.655376,-0.071830,0.522672,-1.674929,1.634448,5.925021,2.602808,6.905979,23.962766,32.571741,-11.817423,-0.201674,-0.063844,0.000000,0.148924,-0.759839,-0.000000
1.650000,-2.263742,-0.408711,-1.691820,1.085927,-0.671995,-0.055140,0.583118,-1.647273,1.702913,6.159798,2.929296,6.775329,23.005005,32.721950,-14.276862,-0.199957,-0.071803,0.000000,0.194906,-0.799443,0.000000
1.660000,-2.252853,-0.415513,-1.692286,1.092067,-0.688322,-0.037772,0.645868,-1.616343,1.769955,6.385121,3.257247,6.620442,21.940317,32.792091,-16.772972,-0.197772,-0.080159,0.000000,0.242828,-0.838134,-0.000000
1.670000,-2.241901,-0.422477,-1.692576,1.098845,-0.704322,-0.019741,0.710821,-1.582128,1.835322,6.598604,3.585138,6.439870,20.567361,32.615442,-19.410560,-0.195097,-0.088900,0.000000,0.292507,-0.875406,0.000000
1.680000,-2.230877,-0.429599,-1.692681,1.106283,-0.719964,-0.001065,0.777840,-1.544641,1.898752,6.796468,3.909556,6.232231,18.943812,32.190560,-22.097883,-0.191918,-0.098006,0.000000,0.343487,-0.910546,-0.000000
1.690000,-2.219775,-0.436876,-1.692597,1.114401,-0.735215,0.018234,0.846750,-1.503937,1.959967,6.977481,4.228949,5.997912,17.334011,31.734321,-24.683337,-0.188224,-0.107450,0.000000,0.395451,-0.943136,0.000000
1.700000,-2.208589,-0.444304,-1.692316,1.123218,-0.750043,0.038134,0.917390,-1.460062,2.018710,7.143148,4.544243,5.738564,15.814536,31.345255,-27.177463,-0.184006,-0.117206,0.000000,0.448329,-0.973104,0.000000
1.710000,-2.197311,-0.451877,-1.691834,1.132749,-0.764416,0.058609,0.989613,-1.413052,2.074738,7.293771,4.855854,5.454363,14.208961,30.864890,-29.656150,-0.179255,-0.127244,0.000000,0.501993,-1.000211,0.000000
1.720000,-2.185934,-0.459592,-1.691144,1.143010,-0.778304,0.079629,1.063265,-1.362945,2.127797,7.427328,5.161541,5.145441,12.337625,30.036918,-32.038585,-0.173964,-0.137532,0.000000,0.555947,-1.023919,-0.000000
1.730000,-2.174450,-0.467443,-1.690242,1.154014,-0.791675,0.101164,1.138159,-1.309821,2.177647,7.540524,5.456593,4.813591,10.257108,28.893843,-34.270659,-0.168135,-0.148032,0.000000,0.609297,-1.043554,0.000000
1.740000,-2.162853,-0.475425,-1.689121,1.165773,-0.804500,0.123182,1.214075,-1.253813,2.224069,7.632470,5.739417,4.460028,8.210744,27.774270,-36.442446,-0.161778,-0.158697,0.000000,0.661526,-1.058745,0.000000
1.750000,-2.151135,-0.483533,-1.687778,1.178296,-0.816752,0.145646,1.290809,-1.195033,2.266848,7.704739,6.012078,4.084743,6.249946,26.786952,-38.609095,-0.154905,-0.169482,0.000000,0.712591,-1.069431,-0.000000
1.760000,-2.139287,-0.491761,-1.686208,1.191590,-0.828401,0.168519,1.368170,-1.133571,2.305764,7.757469,6.275156,3.687846,4.219416,25.698295,-40.682689,-0.147528,-0.180339,0.000000,0.762246,-1.075395,0.000000
1.770000,-2.127303,-0.500101,-1.684408,1.205659,-0.839423,0.191761,1.445958,-1.069529,2.340604,7.789127,6.526044,3.271089,2.021849,24.249898,-42.489118,-0.139663,-0.191219,0.000000,0.809790,-1.076270,0.000000
1.780000,-2.115174,-0.508549,-1.682373,1.220509,-0.849792,0.215331,1.523953,-1.003050,2.371186,7.797906,6.760154,2.838064,-0.288175,22.509549,-44.021633,-0.131336,-0.202069,0.000000,0.854230,-1.071751,0.000000
1.790000,-2.102893,-0.517097,-1.680101,1.236138,-0.859484,0.239185,1.601916,-0.934326,2.397366,7.783363,6.976235,2.390656,-2.572965,20.820156,-45.489534,-0.122583,-0.212833,0.000000,0.895055,-1.061723,0.000000
1.800000,-2.090451,-0.525739,-1.677589,1.252547,-0.868478,0.263278,1.679620,-0.863526,2.418999,7.746447,7.176558,1.928273,-4.780616,19.262896,-47.014599,-0.113441,-0.223457,0.000000,0.932283,-1.046232,0.000000
1.810000,-2.077842,-0.534467,-1.674835,1.269731,-0.876754,0.287565,1.756845,-0.790795,2.435931,7.687751,7.361493,1.450364,-6.992168,17.611384,-48.429185,-0.103944,-0.233886,0.000000,0.965708,-1.025320,0.000000
1.820000,-2.065057,-0.543274,-1.671838,1.287684,-0.884294,0.311997,1.833375,-0.716296,2.448006,7.606603,7.528785,0.959689,-9.319547,15.691926,-49.379300,-0.094134,-0.244068,0.000000,0.994766,-0.999015,0.000000
1.830000,-2.052088,-0.552153,-1.668595,1.306398,-0.891080,0.336525,1.908977,-0.640219,2.455125,7.501360,7.675331,0.462778,-11.723614,13.580091,-49.885516,-0.084057,-0.253949,0.000000,1.018798,-0.967417,0.000000
1.840000,-2.038929,-0.561095,-1.665107,1.325863,-0.897099,0.361099,1.983402,-0.562789,2.457262,7.372131,7.800387,-0.038021,-14.037840,11.510655,-50.405567,-0.073766,-0.263479,0.000000,1.037592,-0.930791,0.000000
1.850000,-2.025571,-0.570094,-1.661373,1.346066,-0.902336,0.385670,2.056420,-0.484212,2.454365,7.220603,7.905544,-0.545333,-16.266511,9.540998,-51.072815,-0.063313,-0.272611,0.000000,1.051342,-0.889470,0.000000
1.860000,-2.012007,-0.579142,-1.657394,1.366992,-0.906783,0.410187,2.127814,-0.404678,2.446355,7.046801,7.991207,-1.059478,-18.503147,7.524743,-51.561077,-0.052747,-0.281300,0.000000,1.060101,-0.843677,0.000000
1.870000,-1.998231,-0.588230,-1.653170,1.388623,-0.910430,0.434597,2.197356,-0.324388,2.433175,6.850540,8.056039,-1.576555,-20.674325,5.345254,-51.544639,-0.042119,-0.289504,0.000000,1.063719,-0.793797,-0.000000
1.880000,-1.984235,-0.597351,-1.648702,1.410939,-0.913271,0.458850,2.264825,-0.243558,2.414824,6.633314,8.098112,-2.090370,-22.723677,3.063007,-51.108597,-0.031481,-0.297187,0.000000,1.062044,-0.740550,-0.000000
1.890000,-1.970012,-0.606496,-1.643993,1.433919,-0.915301,0.482894,2.330022,-0.162425,2.391368,6.396067,8.117299,-2.598727,-24.740532,0.845577,-50.668993,-0.020885,-0.304321,0.000000,1.055249,-0.684460,0.000000
1.900000,-1.955557,-0.615657,-1.639044,1.457539,-0.916519,0.506678,2.392746,-0.081212,2.362850,6.138503,8.115024,-3.103750,-26.788056,-1.303873,-50.344654,-0.010382,-0.310879,0.000000,1.043750,-0.625736,0.000000
1.910000,-1.940862,-0.624826,-1.633859,1.481774,-0.916925,0.530151,2.452792,-0.000125,2.329293,5.860306,8.091222,-3.605620,-28.783840,-3.479261,-49.849220,-0.000016,-0.316837,0.000000,1.027786,-0.564650,-0.000000
1.920000,-1.925921,-0.633995,-1.628441,1.506595,-0.916522,0.553263,2.509953,0.080613,2.290737,5.562827,8.045438,-4.100735,-30.545199,-5.636996,-48.885973,0.010169,-0.322173,0.000000,1.007573,-0.501822,0.000000
1.930000,-1.910730,-0.643156,-1.622794,1.531973,-0.915313,0.575966,2.564049,0.160784,2.247278,5.249402,7.978482,-4.583339,-32.077299,-7.722650,-47.533435,0.020132,-0.326876,0.000000,0.983521,-0.438178,0.000000
1.940000,-1.895282,-0.652301,-1.616922,1.557876,-0.913306,0.598209,2.614941,0.240183,2.199070,4.921281,7.890985,-5.051403,-33.606760,-9.783294,-46.183074,0.029836,-0.330941,0.000000,0.956038,-0.374213,0.000000
1.950000,-1.879572,-0.661422,-1.610830,1.584272,-0.910509,0.619947,2.662474,0.318604,2.146250,4.577267,7.782816,-5.507001,-35.188347,-11.867841,-44.959192,0.039250,-0.334367,0.000000,0.925416,-0.309944,-0.000000
1.960000,-1.863596,-0.670512,-1.604523,1.611126,-0.906934,0.641134,2.706486,0.395839,2.088930,4.217514,7.653629,-5.950587,-36.653875,-13.922415,-43.599746,0.048343,-0.337149,0.000000,0.891914,-0.245583,0.000000
1.970000,-1.847350,-0.679561,-1.598007,1.638402,-0.902592,0.661726,2.746825,0.471676,2.027238,3.844189,7.504368,-6.378996,-37.859131,-15.793904,-41.810137,0.057088,-0.339289,0.000000,0.855952,-0.181692,0.000000
1.980000,-1.830828,-0.688563,-1.591288,1.666062,-0.897500,0.681679,2.783370,0.545926,1.961350,3.460331,7.337750,-6.786790,-38.838598,-17.475784,-39.676296,0.065463,-0.340794,0.000000,0.818164,-0.118980,-0.000000
1.990000,-1.814028,-0.697511,-1.584373,1.694069,-0.891674,0.700953,2.816031,0.618431,1.891502,3.067417,7.154852,-7.172522,-39.765178,-19.155183,-37.597524,0.073453,-0.341679,0.000000,0.778944,-0.057767,-0.000000
2.000000,-1.796947,-0.706397,-1.577269,1.722383,-0.885132,0.719509,2.844718,0.689023,1.817900,2.665028,6.954647,-7.538740,-40.725870,-20.896558,-35.634641,0.081043,-0.341958,0.000000,0.738380,0.002028,0.000000
2.010000,-1.779581,-0.715214,-1.569983,1.750963,-0.877893,0.737311,2.869332,0.757524,1.740728,2.252900,6.736921,-7.885214,-41.591054,-22.555412,-33.533454,0.088222,-0.341644,0.000000,0.696655,0.060381,-0.000000
2.020000,-1.761928,-0.723955,-1.562523,1.779770,-0.869981,0.754323,2.889776,0.823762,1.660196,1.833207,6.503539,-8.209409,-42.108078,-23.951100,-31.204433,0.094979,-0.340751,0.000000,0.654186,0.116938,-0.000000
2.030000,-1.743985,-0.732613,-1.554897,1.808759,-0.861418,0.770514,2.905996,0.887595,1.576539,1.410738,6.257899,-8.509303,-42.299255,-25.108083,-28.747704,0.101309,-0.339300,0.000000,0.611513,0.171123,0.000000
2.040000,-1.725752,-0.741183,-1.547113,1.837889,-0.852229,0.785854,2.917991,0.948920,1.490010,0.987221,6.001377,-8.784363,-42.496773,-26.249411,-26.287898,0.107213,-0.337317,0.000000,0.568907,0.222790,0.000000
2.050000,-1.707228,-0.749658,-1.539180,1.867119,-0.842440,0.800315,2.925740,1.007622,1.400852,0.560803,5.732911,-9.035061,-42.794507,-27.461017,-23.830657,0.112691,-0.334824,0.000000,0.526340,0.272229,0.000000
2.060000,-1.688410,-0.758032,-1.531107,1.896404,-0.832077,0.813871,2.929207,1.063578,1.309308,0.131331,5.452157,-9.260977,-42.961206,-28.578164,-21.314666,0.117744,-0.331842,0.000000,0.483861,0.319522,0.000000
2.070000,-1.669299,-0.766300,-1.522902,1.925703,-0.821168,0.826501,2.928367,1.116666,1.215633,-0.298421,5.161347,-9.461354,-42.778326,-29.363401,-18.757734,0.122372,-0.328394,0.000000,0.441770,0.364450,0.000000
2.080000,-1.649896,-0.774455,-1.514576,1.954972,-0.809743,0.838184,2.923238,1.166805,1.120081,-0.724235,4.864889,-9.636131,-42.313079,-29.851587,-16.203878,0.126583,-0.324503,0.000000,0.400557,0.406692,0.000000
2.090000,-1.630200,-0.782494,-1.506139,1.984168,-0.797832,0.848902,2.913882,1.213963,1.022910,-1.144683,4.564316,-9.785432,-41.849050,-30.348963,-13.648536,0.130387,-0.320198,0.000000,0.360377,0.446242,0.000000
2.100000,-1.610213,-0.790412,-1.497598,2.013249,-0.785464,0.858642,2.900345,1.258091,0.924373,-1.561216,4.257909,-9.909102,-41.451571,-30.940711,-11.051526,0.133794,-0.315505,0.000000,0.321048,0.483382,0.000000
2.110000,-1.589935,-0.798204,-1.488966,2.042175,-0.772670,0.867390,2.882658,1.299122,0.824728,-1.973714,3.945501,-10.006462,-40.931529,-31.412639,-8.440607,0.136812,-0.310447,0.000000,0.282548,0.518214,0.000000
2.120000,-1.569369,-0.805865,-1.480251,2.070902,-0.759482,0.875137,2.860870,1.337001,0.724243,-2.379847,3.629656,-10.077914,-40.140473,-31.557782,-5.964519,0.139449,-0.305046,0.000000,0.245105,0.550661,-0.000000
2.130000,-1.548517,-0.813393,-1.471463,2.099392,-0.745930,0.881875,2.835061,1.371715,0.623170,-2.776524,3.314346,-10.125753,-39.141025,-31.436529,-3.642889,0.141717,-0.299328,0.000000,0.209042,0.580633,0.000000
2.140000,-1.527381,-0.820784,-1.462613,2.127604,-0.732047,0.887600,2.805340,1.403288,0.521728,-3.162667,3.000926,-10.150772,-38.130404,-31.316091,-1.296447,0.143633,-0.293318,0.000000,0.174425,0.608192,0.000000
2.150000,-1.505965,-0.828034,-1.453711,2.155499,-0.717865,0.892309,2.771808,1.431733,0.420154,-3.539132,2.688024,-10.151682,-37.144734,-31.260840,1.148677,0.145209,-0.287040,0.000000,0.141076,0.633523,0.000000
2.160000,-1.484271,-0.835141,-1.444767,2.183040,-0.703413,0.896003,2.734557,1.457049,0.318695,-3.905562,2.375709,-10.127798,-36.059498,-31.090849,3.548648,0.146457,-0.280515,0.000000,0.108956,0.656712,0.000000
2.170000,-1.462304,-0.842103,-1.435791,2.210190,-0.688724,0.898683,2.693697,1.479247,0.217598,-4.260322,2.066207,-10.080709,-34.806651,-30.655691,5.690308,0.147391,-0.273765,0.000000,0.078198,0.677782,0.000000
2.180000,-1.440068,-0.848916,-1.426793,2.236914,-0.673828,0.900355,2.649351,1.498373,0.117081,-4.601695,1.762595,-10.013992,-33.435310,-30.012974,7.594521,0.148024,-0.266812,0.000000,0.048980,0.696794,0.000000
2.190000,-1.417566,-0.855579,-1.417784,2.263177,-0.658756,0.901025,2.601663,1.514499,0.017318,-4.929028,1.465948,-9.928818,-32.041590,-29.361259,9.524694,0.148373,-0.259676,0.000000,0.021316,0.713832,0.000000
2.200000,-1.394804,-0.862091,-1.408773,2.288947,-0.643538,0.900701,2.550770,1.527692,-0.081496,-5.242527,1.175370,-9.823498,-30.631860,-28.739364,11.566294,0.148452,-0.252377,0.000000,-0.004926,0.728983,0.000000
2.210000,-1.371787,-0.868450,-1.399770,2.314192,-0.628202,0.899395,2.496812,1.538007,-0.179152,-5.541665,0.891160,-9.697493,-29.153817,-28.019796,13.524447,0.148276,-0.244934,0.000000,-0.029775,0.742297,0.000000
2.220000,-1.348520,-0.874655,-1.390785,2.338883,-0.612778,0.897118,2.439937,1.545515,-0.275446,-5.825603,0.614974,-9.553009,-27.616808,-27.124692,15.166010,0.147858,-0.237366,0.000000,-0.053172,0.753855,-0.000000
2.230000,-1.325009,-0.880705,-1.381828,2.362991,-0.597292,0.893886,2.380300,1.550306,-0.370212,-6.094001,0.348666,-9.394172,-26.051244,-26.101916,16.533809,0.147214,-0.229690,0.000000,-0.075064,0.763809,0.000000
2.240000,-1.301260,-0.886601,-1.372907,2.386489,-0.581772,0.889714,2.318057,1.552488,-0.463329,-6.346628,0.092936,-9.222333,-24.454351,-25.058804,17.921714,0.146358,-0.221922,0.000000,-0.095469,0.772245,0.000000
2.250000,-1.277279,-0.892341,-1.364033,2.409352,-0.566242,0.884619,2.253367,1.552165,-0.554658,-6.583088,-0.152510,-9.035738,-22.808306,-24.006791,19.414907,0.145306,-0.214077,0.000000,-0.114449,0.779162,0.000000
2.260000,-1.253073,-0.897926,-1.355215,2.431557,-0.550728,0.878621,2.186395,1.549438,-0.644044,-6.802794,-0.387200,-8.834035,-21.128894,-22.884097,20.804804,0.144070,-0.206172,0.000000,-0.132015,0.784576,0.000000
2.270000,-1.228648,-0.903355,-1.346461,2.453080,-0.535253,0.871739,2.117312,1.544421,-0.731339,-7.005666,-0.610192,-8.619642,-19.483917,-21.684322,21.871454,0.142666,-0.198220,0.000000,-0.148165,0.788596,0.000000
2.280000,-1.204012,-0.908631,-1.337780,2.473903,-0.519840,0.863994,2.046282,1.537234,-0.816437,-7.192472,-0.820886,-8.396606,-17.883085,-20.438726,22.668903,0.141107,-0.190237,0.000000,-0.162946,0.791418,0.000000
2.290000,-1.179170,-0.913752,-1.329181,2.494006,-0.504509,0.855410,1.973462,1.528003,-0.899271,-7.363328,-1.018966,-8.166264,-16.248229,-19.163787,23.479477,0.139408,-0.182232,0.000000,-0.176389,0.793118,0.000000
2.300000,-1.154132,-0.918721,-1.320672,2.513372,-0.489280,0.846009,1.899015,1.516855,-0.979762,-7.517437,-1.204162,-7.927017,-14.547341,-17.848408,24.380421,0.137580,-0.174217,0.000000,-0.188495,0.793635,0.000000
2.310000,-1.128903,-0.923538,-1.312261,2.531986,-0.474172,0.835815,1.823113,1.503920,-1.057812,-7.654275,-1.375934,-7.678655,-12.845980,-16.493787,25.177849,0.135638,-0.166206,0.000000,-0.199255,0.792961,-0.000000
2.320000,-1.103492,-0.928204,-1.303956,2.549834,-0.459201,0.824852,1.745930,1.489336,-1.133335,-7.774357,-1.534038,-7.423460,-11.242810,-15.148951,25.682934,0.133595,-0.158209,0.000000,-0.208710,0.791212,0.000000
2.330000,-1.077906,-0.932722,-1.295764,2.566905,-0.444385,0.813148,1.667626,1.473239,-1.206281,-7.879131,-1.678913,-7.164997,-9.730780,-13.826519,25.954997,0.131464,-0.150238,0.000000,-0.216971,0.788591,0.000000
2.340000,-1.052154,-0.937092,-1.287693,2.583187,-0.429737,0.800727,1.588347,1.455758,-1.276635,-7.968972,-1.810568,-6.904360,-8.190916,-12.471829,26.241186,0.129256,-0.142299,0.000000,-0.224077,0.785156,0.000000
2.350000,-1.026242,-0.941317,-1.279749,2.598672,-0.415270,0.787615,1.508247,1.437028,-1.344368,-8.042949,-1.928350,-6.640173,-6.581745,-11.059758,26.583298,0.126982,-0.134401,0.000000,-0.229983,0.780822,0.000000
2.360000,-1.000180,-0.945397,-1.271940,2.613352,-0.400996,0.773839,1.427488,1.417191,-1.409438,-8.100607,-2.031763,-6.372694,-4.994077,-9.638952,26.819221,0.124656,-0.126554,0.000000,-0.234673,0.775566,0.000000
2.370000,-0.973975,-0.949336,-1.264272,2.627221,-0.386926,0.759426,1.346235,1.396393,-1.471822,-8.142831,-2.121129,-6.103789,-3.546754,-8.289978,26.867649,0.122289,-0.118766,0.000000,-0.238214,0.769496,-0.000000
2.380000,-0.947636,-0.953136,-1.256752,2.640276,-0.373068,0.744403,1.264632,1.374768,-1.531514,-8.171542,-2.197563,-5.835341,-2.221995,-7.009286,26.788316,0.119891,-0.111046,0.000000,-0.240738,0.762801,-0.000000
2.390000,-0.921170,-0.956798,-1.249384,2.652514,-0.359431,0.728796,1.182804,1.352441,-1.588529,-8.187271,-2.261315,-5.568022,-0.871841,-5.701103,26.687679,0.117473,-0.103398,0.000000,-0.242285,0.755528,0.000000
2.400000,-0.894586,-0.960325,-1.242176,2.663933,-0.346019,0.712632,1.100886,1.329542,-1.642875,-8.188979,-2.311585,-5.301587,0.543759,-4.335565,26.566262,0.115045,-0.095829,0.000000,-0.242798,0.747583,0.000000
2.410000,-0.867891,-0.963718,-1.235132,2.674532,-0.332840,0.695939,1.019024,1.306210,-1.694560,-8.176396,-2.348026,-5.036697,1.917989,-2.986949,26.362407,0.112617,-0.088345,0.000000,-0.242264,0.738942,-0.000000
2.420000,-0.841095,-0.966981,-1.228257,2.684313,-0.319895,0.678741,0.937358,1.282582,-1.743609,-8.150619,-2.371324,-4.774339,3.145473,-1.742973,26.092840,0.110200,-0.080954,0.000000,-0.240758,0.729701,0.000000
2.430000,-0.814205,-0.970116,-1.221557,2.693279,-0.307188,0.661066,0.856012,1.258783,-1.790047,-8.113486,-2.382885,-4.514840,4.254271,-0.589283,25.786907,0.107802,-0.073660,0.000000,-0.238408,0.720009,0.000000
2.440000,-0.787229,-0.973125,-1.215036,2.701433,-0.294720,0.642940,0.775089,1.234924,-1.833905,-8.065534,-2.383110,-4.258601,5.375832,0.580094,25.427256,0.105431,-0.066468,0.000000,-0.235254,0.709901,0.000000
2.450000,-0.760176,-0.976011,-1.208698,2.708781,-0.282490,0.624388,0.694701,1.211121,-1.875219,-8.005970,-2.371283,-4.006295,6.535617,1.792089,25.008612,0.103096,-0.059381,0.000000,-0.231245,0.699302,0.000000
2.460000,-0.733054,-0.978775,-1.202548,2.715327,-0.270497,0.605436,0.614969,1.187498,-1.914031,-7.934822,-2.347268,-3.758429,7.642138,2.968335,24.552360,0.100806,-0.052406,0.000000,-0.226375,0.688200,0.000000
2.470000,-0.705870,-0.981420,-1.196589,2.721080,-0.258740,0.586108,0.536005,1.164176,-1.950388,-7.853127,-2.311917,-3.515248,8.632049,4.032895,24.078929,0.098568,-0.045546,0.000000,-0.220717,0.676671,-0.000000
2.480000,-0.678632,-0.983950,-1.190826,2.726047,-0.247214,0.566428,0.457907,1.141260,-1.984336,-7.762181,-2.266610,-3.276850,9.532396,5.004467,23.589027,0.096391,-0.038805,0.000000,-0.214385,0.664807,-0.000000
2.490000,-0.651349,-0.986365,-1.185261,2.730238,-0.235915,0.546421,0.380761,1.118843,-2.015925,-7.662479,-2.211827,-3.043467,10.421231,5.975161,23.067339,0.094280,-0.032186,0.000000,-0.207420,0.652634,0.000000
2.500000,-0.624027,-0.988668,-1.179897,2.733663,-0.224837,0.526110,0.304657,1.097023,-2.045206,-7.553756,-2.147107,-2.815503,11.314118,6.965518,22.509491,0.092242,-0.025693,0.000000,-0.199782,0.640113,-0.000000
2.510000,-0.596676,-0.990861,-1.174739,2.736331,-0.213974,0.505517,0.229686,1.075901,-2.072235,-7.436197,-2.072517,-2.593278,12.158067,7.909145,21.934268,0.090284,-0.019328,0.000000,-0.191476,0.627243,-0.000000
2.520000,-0.569301,-0.992947,-1.169787,2.738256,-0.203319,0.484665,0.155933,1.055573,-2.097071,-7.310595,-1.988924,-2.376818,12.912621,8.749164,21.370781,0.088412,-0.013095,0.000000,-0.182567,0.614071,-0.000000
2.530000,-0.541910,-0.994928,-1.165045,2.739450,-0.192863,0.463575,0.083474,1.036123,-2.119771,-7.177944,-1.897534,-2.165862,13.594270,9.503021,20.822493,0.086632,-0.006997,0.000000,-0.173150,0.600663,0.000000
2.540000,-0.514512,-0.996805,-1.160516,2.739926,-0.182596,0.442270,0.012374,1.017622,-2.140388,-7.038709,-1.798863,-1.960368,14.254901,10.239924,20.260684,0.084949,-0.001035,0.000000,-0.163261,0.587039,0.000000
2.550000,-0.487112,-0.998580,-1.156200,2.739698,-0.172510,0.420768,-0.057300,1.000145,-2.158979,-6.892846,-1.692735,-1.760648,14.903901,10.973704,19.665783,0.083367,0.004787,0.000000,-0.152880,0.573178,-0.000000
2.560000,-0.459718,-1.000255,-1.152100,2.738780,-0.162593,0.399090,-0.125483,0.983768,-2.175601,-6.740631,-1.579389,-1.567052,15.507290,11.655431,19.066127,0.081891,0.010469,0.000000,-0.142023,0.559084,0.000000
2.570000,-0.432336,-1.001832,-1.148218,2.737188,-0.152835,0.377256,-0.192113,0.968558,-2.190320,-6.582700,-1.459627,-1.379326,16.044522,12.247529,18.529996,0.080526,0.016008,0.000000,-0.130747,0.544792,0.000000
2.580000,-0.404974,-1.003312,-1.144555,2.734938,-0.143222,0.355284,-0.257137,0.954575,-2.203188,-6.419741,-1.334439,-1.196452,16.528078,12.763837,18.059810,0.079276,0.021401,0.000000,-0.119121,0.530345,-0.000000
2.590000,-0.377638,-1.004696,-1.141112,2.732045,-0.133743,0.333192,-0.320507,0.941869,-2.214249,-6.252139,-1.204350,-1.018130,16.985118,13.250190,17.571897,0.078144,0.026649,0.000000,-0.107177,0.515758,0.000000
2.600000,-0.350333,-1.005986,-1.137891,2.728527,-0.124385,0.310999,-0.382179,0.930488,-2.223550,-6.080038,-1.069435,-0.845014,17.415656,13.714291,17.029272,0.077132,0.031749,0.000000,-0.094920,0.501026,0.000000
2.610000,-0.323067,-1.007184,-1.134892,2.724402,-0.115134,0.288721,-0.442108,0.920480,-2.231149,-5.903826,-0.930064,-0.677544,17.803594,14.124380,16.496873,0.076245,0.036700,0.000000,-0.082374,0.486164,0.000000
2.620000,-0.295845,-1.008289,-1.132117,2.719685,-0.105975,0.266376,-0.500256,0.911887,-2.237101,-5.723966,-0.786947,-0.515077,18.154006,14.460087,16.079012,0.075485,0.041501,0.000000,-0.069586,0.471196,0.000000
2.630000,-0.268673,-1.009303,-1.129565,2.714396,-0.096896,0.243979,-0.556588,0.904741,-2.241451,-5.540745,-0.640862,-0.355964,18.475226,14.731013,15.764433,0.074853,0.046151,0.000000,-0.056602,0.456137,0.000000
2.640000,-0.241557,-1.010227,-1.127237,2.708553,-0.087880,0.221547,-0.611071,0.899069,-2.244221,-5.354462,-0.492327,-0.199788,18.760993,14.961886,15.420547,0.074352,0.050650,0.000000,-0.043454,0.441000,-0.000000
2.650000,-0.214502,-1.011061,-1.125134,2.702175,-0.078914,0.199094,-0.663677,0.894895,-2.245446,-5.165526,-0.341625,-0.047553,19.002830,15.156389,15.010957,0.073984,0.054997,0.000000,-0.030164,0.425801,0.000000
2.660000,-0.187514,-1.011805,-1.123255,2.695280,-0.069983,0.176638,-0.714381,0.892237,-2.245172,-4.974405,-0.189199,0.100431,19.207640,15.297780,14.630477,0.073749,0.059190,0.000000,-0.016762,0.410566,0.000000
2.670000,-0.160597,-1.012461,-1.121601,2.687887,-0.061070,0.154191,-0.763165,0.891111,-2.243438,-4.781373,-0.035669,0.245057,19.400069,15.376294,14.370529,0.073649,0.063231,0.000000,-0.003287,0.395305,0.000000
2.680000,-0.133756,-1.013027,-1.120172,2.680017,-0.052160,0.131769,-0.810009,0.891524,-2.240271,-4.586404,0.118327,0.387841,19.580953,15.397109,14.205621,0.073683,0.067118,0.000000,0.010227,0.380014,0.000000
2.690000,-0.106996,-1.013504,-1.118966,2.671687,-0.043239,0.109386,-0.854893,0.893477,-2.235681,-4.389754,0.272273,0.529169,19.718798,15.372329,14.020504,0.073853,0.070852,0.000000,0.023747,0.364704,0.000000
2.700000,-0.080322,-1.013892,-1.117984,2.662919,-0.034291,0.087055,-0.897804,0.896969,-2.229687,-4.192028,0.425773,0.668251,19.803485,15.304864,13.789949,0.074159,0.074433,0.000000,0.037243,0.349412,0.000000
2.710000,-0.053738,-1.014190,-1.117225,2.653731,-0.025300,0.064792,-0.938734,0.901993,-2.222316,-3.993684,0.578370,0.804968,19.858246,15.186719,13.593371,0.074598,0.077860,0.000000,0.050685,0.334161,0.000000
2.720000,-0.027248,-1.014398,-1.116688,2.644144,-0.016251,0.042609,-0.977678,0.908536,-2.213588,-3.794863,0.729507,0.940119,19.908904,15.010281,13.492856,0.075172,0.081135,0.000000,0.064040,0.318958,0.000000
2.730000,-0.000855,-1.014515,-1.116373,2.634178,-0.007129,0.020520,-1.014631,0.916583,-2.203513,-3.595506,0.878576,1.074825,19.949710,14.777731,13.465181,0.075879,0.084258,0.000000,0.077272,0.303795,0.000000
2.740000,0.025436,-1.014540,-1.116278,2.623851,0.002081,-0.001461,-1.049588,0.926108,-2.192091,-3.395869,1.025062,1.209422,19.948307,14.499424,13.431192,0.076718,0.087228,0.000000,0.090348,0.288686,0.000000
2.750000,0.051622,-1.014473,-1.116402,2.613186,0.011393,-0.023322,-1.082548,0.937084,-2.179325,-3.196540,1.168565,1.343449,19.898144,14.180374,13.370017,0.077687,0.090048,0.000000,0.103240,0.273667,0.000000
2.760000,0.077700,-1.014312,-1.116744,2.602201,0.020822,-0.045048,-1.113518,0.949479,-2.165222,-2.997906,1.308670,1.476823,19.821910,13.813760,13.334710,0.078783,0.092719,0.000000,0.115920,0.258760,-0.000000
2.770000,0.103666,-1.014057,-1.117303,2.590915,0.030383,-0.066626,-1.142506,0.963257,-2.149789,-2.800102,1.444840,1.610143,19.735803,13.387157,13.376770,0.080005,0.095240,0.000000,0.128355,0.243971,-0.000000
2.780000,0.129518,-1.013705,-1.118077,2.579350,0.040088,-0.088044,-1.169520,0.978376,-2.133020,-2.603190,1.576413,1.744358,19.633103,12.901888,13.480568,0.081350,0.097614,0.000000,0.140503,0.229303,0.000000
2.790000,0.155253,-1.013255,-1.119064,2.567525,0.049950,-0.109287,-1.194570,0.994786,-2.114901,-2.407440,1.702877,1.879754,19.493952,12.375529,13.576923,0.082816,0.099841,0.000000,0.152332,0.214773,0.000000
2.800000,0.180868,-1.012706,-1.120262,2.555459,0.059983,-0.130342,-1.217669,1.012434,-2.095424,-2.213311,1.823923,2.015897,19.315254,11.817451,13.643453,0.084397,0.101924,0.000000,0.163818,0.200406,-0.000000
2.810000,0.206362,-1.012055,-1.121670,2.543172,0.070199,-0.151195,-1.238836,1.031264,-2.074583,-2.021134,1.939227,2.152624,19.110529,11.215968,13.725304,0.086092,0.103864,0.000000,0.174940,0.186221,0.000000
2.820000,0.231732,-1.011302,-1.123286,2.530682,0.080609,-0.171833,-1.258092,1.051218,-2.052372,-1.831100,2.048243,2.290403,18.887698,10.548525,13.873806,0.087897,0.105662,0.000000,0.185662,0.172228,0.000000
2.830000,0.256976,-1.010443,-1.125107,2.518010,0.091223,-0.192242,-1.275458,1.072229,-2.028775,-1.643381,2.150197,2.430100,18.642248,9.817517,14.074506,0.089806,0.107322,0.000000,0.195930,0.158440,-0.000000
2.840000,0.282092,-1.009477,-1.127131,2.505173,0.102053,-0.212409,-1.290960,1.094222,-2.003770,-1.458255,2.244593,2.571893,18.364496,9.054791,14.255893,0.091816,0.108844,0.000000,0.205711,0.144876,0.000000
2.850000,0.307079,-1.008402,-1.129355,2.492191,0.113108,-0.232318,-1.304623,1.117121,-1.977338,-1.276091,2.331293,2.715218,18.054714,8.275427,14.397587,0.093921,0.110231,0.000000,0.214992,0.131554,0.000000
2.860000,0.331936,-1.007215,-1.131777,2.479081,0.124396,-0.251956,-1.316481,1.140848,-1.949466,-1.097161,2.410102,2.859845,17.719137,7.458337,14.544728,0.096116,0.111487,0.000000,0.223760,0.118485,0.000000
2.870000,0.356661,-1.005914,-1.134394,2.465861,0.135925,-0.271307,-1.326567,1.165323,-1.920141,-0.921708,2.480460,3.006112,17.356383,6.568212,14.738181,0.098396,0.112612,0.000000,0.231973,0.105686,0.000000
2.880000,0.381253,-1.004496,-1.137204,2.452549,0.147702,-0.290358,-1.334916,1.190457,-1.889343,-0.750033,2.541466,3.154608,16.963350,5.610292,14.960950,0.100756,0.113610,0.000000,0.239562,0.093181,-0.000000
2.890000,0.405712,-1.002960,-1.140202,2.439163,0.159734,-0.309094,-1.341567,1.216152,-1.857048,-0.582441,2.592665,3.305331,16.542522,4.634265,15.154424,0.103188,0.114485,0.000000,0.246491,0.080989,-0.000000
2.900000,0.430036,-1.001302,-1.143385,2.425718,0.172025,-0.327499,-1.346564,1.242310,-1.823237,-0.419183,2.634151,3.457697,16.099932,3.660965,15.306749,0.105686,0.115239,0.000000,0.252764,0.069118,0.000000
2.910000,0.454226,-0.999519,-1.146752,2.412231,0.184580,-0.345559,-1.349951,1.268835,-1.787895,-0.260442,2.665885,3.611466,15.633230,2.657920,15.452453,0.108244,0.115875,0.000000,0.258373,0.057577,0.000000
2.920000,0.478281,-0.997610,-1.150297,2.398719,0.197402,-0.363257,-1.351773,1.295628,-1.751007,-0.106518,2.687310,3.766746,15.126030,1.577798,15.608093,0.110854,0.116397,0.000000,0.263270,0.046385,0.000000
2.930000,0.502201,-0.995571,-1.154017,2.385196,0.210493,-0.380579,-1.352081,1.322581,-1.712560,0.042078,2.697441,3.923628,14.577008,0.429926,15.757361,0.113510,0.116808,0.000000,0.267371,0.035582,0.000000
2.940000,0.525985,-0.993400,-1.157908,2.371677,0.223853,-0.397508,-1.350932,1.349577,-1.672535,0.185022,2.695908,4.081893,14.008990,-0.718929,15.873221,0.116202,0.117113,0.000000,0.270635,0.025188,-0.000000
2.950000,0.549634,-0.991094,-1.161967,2.358177,0.237484,-0.414030,-1.348381,1.376500,-1.630922,0.322258,2.683062,4.241092,13.435487,-1.844168,15.955965,0.118923,0.117315,0.000000,0.273081,0.015201,0.000000
2.960000,0.573149,-0.988651,-1.166189,2.344710,0.251383,-0.430127,-1.344486,1.403238,-1.587713,0.453732,2.659025,4.401012,12.840350,-2.988621,16.017358,0.121664,0.117418,0.000000,0.274711,0.005619,0.000000
2.970000,0.596528,-0.986067,-1.170569,2.331288,0.265549,-0.445784,-1.339306,1.429680,-1.542902,0.579065,2.623290,4.561440,12.189798,-4.205660,16.043075,0.124418,0.117428,0.000000,0.275469,-0.003530,-0.000000
2.980000,0.619774,-0.983340,-1.175104,2.317924,0.279977,-0.460985,-1.332905,1.455704,-1.496484,0.697527,2.574911,4.721874,11.486616,-5.481506,16.022100,0.127174,0.117347,0.000000,0.275256,-0.012189,0.000000
2.990000,0.642887,-0.980467,-1.179789,2.304629,0.294663,-0.475714,-1.325356,1.481178,-1.448464,0.808798,2.513660,4.881882,10.777260,-6.740108,15.967851,0.129923,0.117182,0.000000,0.274031,-0.020336,-0.000000
3.000000,0.665867,-0.977446,-1.184619,2.291416,0.309601,-0.489954,-1.316729,1.505977,-1.398847,0.913073,2.440109,5.041231,10.081062,-7.955762,15.892879,0.132655,0.116936,0.000000,0.271825,-0.027989,0.000000
3.010000,0.688715,-0.974275,-1.189588,2.278295,0.324782,-0.503691,-1.307094,1.529981,-1.347639,1.010419,2.354544,5.199739,9.366540,-9.176012,15.781152,0.135360,0.116616,0.000000,0.268644,-0.035153,-0.000000
3.020000,0.711433,-0.970951,-1.194693,2.265275,0.340200,-0.516907,-1.296521,1.553068,-1.294852,1.100403,2.256589,5.356854,8.588187,-10.453625,15.588982,0.138028,0.116226,0.000000,0.264428,-0.041795,0.000000
3.030000,0.734021,-0.967471,-1.199926,2.252364,0.355844,-0.529588,-1.285086,1.575112,-1.240502,1.182183,2.145472,5.511519,7.754615,-11.771242,15.311851,0.140649,0.115772,0.000000,0.259070,-0.047848,0.000000
3.040000,0.756480,-0.963834,-1.205284,2.239573,0.371702,-0.541717,-1.272877,1.595978,-1.184621,1.255496,2.021164,5.663091,6.928395,-13.052239,15.002512,0.143210,0.115260,0.000000,0.252533,-0.053287,0.000000
3.050000,0.778812,-0.960037,-1.210761,2.226907,0.387763,-0.553280,-1.259976,1.615536,-1.127241,1.320750,1.884427,5.811569,6.129394,-14.275656,14.694951,0.145699,0.114695,0.000000,0.244854,-0.058142,0.000000
3.060000,0.801018,-0.956079,-1.216350,2.214373,0.404013,-0.564262,-1.246462,1.633666,-1.068390,1.378084,1.735651,5.956990,5.316641,-15.487430,14.346279,0.148107,0.114084,0.000000,0.236039,-0.062417,0.000000
3.070000,0.823100,-0.951957,-1.222046,2.201978,0.420437,-0.574648,-1.232415,1.650249,-1.008101,1.427083,1.574678,6.098495,4.446914,-16.723994,13.857922,0.150420,0.113433,0.000000,0.226027,-0.066073,0.000000
3.080000,0.845058,-0.947670,-1.227843,2.189725,0.437018,-0.584424,-1.217921,1.665160,-0.946420,1.467022,1.401171,6.234148,3.531721,-17.965836,13.233515,0.152627,0.112747,0.000000,0.214725,-0.069054,0.000000
3.090000,0.866894,-0.943216,-1.233734,2.177619,0.453740,-0.593576,-1.203074,1.678272,-0.883418,1.497718,1.215362,6.363165,2.631679,-19.157103,12.601276,0.154714,0.112035,0.000000,0.202099,-0.071336,0.000000
3.100000,0.888610,-0.938595,-1.239714,2.165664,0.470584,-0.602092,-1.187966,1.689467,-0.819157,1.519656,1.018029,6.486174,1.777299,-20.285745,12.005067,0.156668,0.111303,0.000000,0.188185,-0.072942,-0.000000
3.110000,0.910207,-0.933805,-1.245776,2.153860,0.487529,-0.609959,-1.172681,1.698633,-0.753694,1.533264,0.809647,6.603266,0.929469,-21.381828,11.353138,0.158477,0.110558,0.000000,0.172986,-0.073893,0.000000
3.120000,0.931687,-0.928845,-1.251914,2.142210,0.504556,-0.617166,-1.157301,1.705660,-0.687092,1.538245,0.590393,6.713237,0.015480,-22.457941,10.536385,0.160127,0.109806,0.000000,0.156452,-0.074158,0.000000
3.130000,0.953052,-0.923714,-1.258120,2.130714,0.521642,-0.623701,-1.141916,1.710440,-0.619430,1.533573,0.360488,6.813994,-0.948549,-23.496449,9.578598,0.161605,0.109055,0.000000,0.138522,-0.073642,0.000000
3.140000,0.974302,-0.918412,-1.264388,2.119372,0.538765,-0.629555,-1.126629,1.712870,-0.550812,1.519274,0.120464,6.904809,-1.860545,-24.472233,8.621310,0.162897,0.108314,0.000000,0.119180,-0.072332,0.000000
3.150000,0.995439,-0.912938,-1.270711,2.108181,0.555900,-0.634717,-1.111531,1.712850,-0.481333,1.496362,-0.128957,6.986420,-2.723371,-25.390359,7.698551,0.163988,0.107589,0.000000,0.098454,-0.070292,0.000000
3.160000,1.016465,-0.907294,-1.277082,2.097141,0.573022,-0.639181,-1.096702,1.710290,-0.411083,1.464807,-0.387344,7.058780,-3.599537,-26.258458,6.713744,0.164865,0.106889,0.000000,0.076328,-0.067496,0.000000
3.170000,1.037382,-0.901478,-1.283494,2.086247,0.590106,-0.642939,-1.082235,1.705103,-0.340158,1.424372,-0.654126,7.120695,-4.452460,-27.043113,5.587827,0.165513,0.106221,0.000000,0.052785,-0.063909,-0.000000
3.180000,1.058190,-0.895492,-1.289941,2.075496,0.607124,-0.645984,-1.068215,1.697208,-0.268669,1.375757,-0.928206,7.170536,-5.255315,-27.730612,4.343840,0.165919,0.105593,0.000000,0.027847,-0.059588,0.000000
3.190000,1.078892,-0.889335,-1.296414,2.064883,0.624050,-0.648312,-1.054719,1.686539,-0.196747,1.319265,-1.208738,7.207572,-6.056901,-28.357672,3.086614,0.166068,0.105013,0.000000,0.001533,-0.054545,-0.000000
3.200000,1.099488,-0.883011,-1.302907,2.054402,0.640855,-0.649919,-1.041829,1.673033,-0.124518,1.254619,-1.495359,7.232268,-6.857943,-28.950059,1.888946,0.165947,0.104488,0.000000,-0.026169,-0.048722,0.000000
3.210000,1.119980,-0.876518,-1.309412,2.044046,0.657510,-0.650803,-1.029627,1.656632,-0.052102,1.182106,-1.787739,7.245351,-7.619752,-29.472990,0.678490,0.165543,0.104026,0.000000,-0.055265,-0.042114,0.000000
3.220000,1.140369,-0.869860,-1.315923,2.033809,0.673987,-0.650961,-1.018187,1.637278,0.020389,1.102224,-2.084819,7.245838,-8.349204,-29.845047,-0.739054,0.164840,0.103634,0.000000,-0.085714,-0.034751,-0.000000
3.230000,1.160656,-0.863039,-1.322432,2.023683,0.690256,-0.650395,-1.007583,1.614935,0.092815,1.015122,-2.384640,7.230570,-9.054337,-30.064929,-2.348424,0.163826,0.103322,0.000000,-0.117418,-0.026658,0.000000
3.240000,1.180842,-0.856055,-1.328931,2.013658,0.706286,-0.649105,-0.997885,1.589586,0.165000,0.921137,-2.686118,7.198870,-9.715858,-30.233667,-3.879971,0.162489,0.103095,0.000000,-0.150316,-0.017850,0.000000
3.250000,1.200929,-0.848913,-1.335414,2.003725,0.722048,-0.647095,-0.989160,1.561213,0.236792,0.820805,-2.989314,7.152970,-10.342017,-30.393196,-5.260183,0.160817,0.102960,0.000000,-0.184404,-0.008337,0.000000
3.260000,1.220917,-0.841614,-1.341873,1.993874,0.737510,-0.644369,-0.981469,1.529799,0.308060,0.714297,-3.293982,7.093666,-10.940253,-30.466522,-6.667588,0.158798,0.102926,0.000000,-0.219670,0.001894,-0.000000
3.270000,1.240807,-0.834163,-1.348301,1.984096,0.752644,-0.640934,-0.974874,1.495333,0.378666,0.602000,-3.598644,7.019618,-11.466339,-30.337777,-8.248330,0.156421,0.103000,0.000000,-0.256003,0.012807,-0.000000
3.280000,1.260599,-0.826561,-1.354691,1.974377,0.767417,-0.636796,-0.969429,1.457826,0.448452,0.484970,-3.900737,6.928699,-11.908293,-30.018637,-9.935502,0.153675,0.103187,0.000000,-0.293178,0.024285,0.000000
3.290000,1.280294,-0.818814,-1.361037,1.964707,0.781800,-0.631965,-0.965174,1.417318,0.517240,0.363834,-4.199017,6.820908,-12.322483,-29.657591,-11.531492,0.150555,0.103492,0.000000,-0.331051,0.036273,-0.000000
3.300000,1.299893,-0.810925,-1.367331,1.955074,0.795763,-0.626451,-0.962152,1.373846,0.584870,0.238521,-4.493889,6.698070,-12.741804,-29.317611,-13.037916,0.147052,0.103921,0.000000,-0.369615,0.048802,0.000000
3.310000,1.319396,-0.802899,-1.373566,1.945464,0.809277,-0.620267,-0.960404,1.327441,0.651201,0.108998,-4.785369,6.560150,-13.121377,-28.891565,-14.573652,0.143160,0.104480,0.000000,-0.408843,0.061881,0.000000
3.320000,1.338802,-0.794740,-1.379736,1.935865,0.822312,-0.613427,-0.959972,1.278139,0.716073,-0.023907,-5.071720,6.406597,-13.371235,-28.213704,-16.090324,0.138872,0.105172,0.000000,-0.448516,0.075415,0.000000
3.330000,1.358113,-0.786453,-1.385835,1.926265,0.834840,-0.605946,-0.960882,1.226006,0.779333,-0.158427,-5.349643,6.238344,-13.499044,-27.307542,-17.533037,0.134187,0.106003,0.000000,-0.488201,0.089217,0.000000
3.340000,1.377328,-0.778043,-1.391855,1.916648,0.846832,-0.597840,-0.963141,1.171146,0.840840,-0.293888,-5.617871,6.055936,-13.620915,-26.392227,-18.963564,0.129106,0.106974,0.000000,-0.527671,0.103205,0.000000
3.350000,1.396446,-0.769516,-1.397791,1.907002,0.858263,-0.589129,-0.966760,1.113649,0.900452,-0.430845,-5.877488,5.859072,-13.760648,-25.534551,-20.403585,0.123632,0.108085,0.000000,-0.566956,0.117418,0.000000
3.360000,1.415468,-0.760878,-1.403638,1.897313,0.869105,-0.579831,-0.971758,1.053596,0.958022,-0.569101,-6.128562,5.647864,-13.836584,-24.584208,-21.796602,0.117766,0.109341,0.000000,-0.605958,0.131814,-0.000000
3.370000,1.434392,-0.752134,-1.409388,1.887567,0.879335,-0.569969,-0.978142,0.991078,1.013409,-0.707576,-6.369172,5.423140,-13.795058,-23.384717,-23.085831,0.111511,0.110741,0.000000,-0.644335,0.146256,0.000000
3.380000,1.453219,-0.743291,-1.415037,1.877750,0.888927,-0.559563,-0.985909,0.926213,1.066485,-0.845002,-6.596256,5.186148,-13.656182,-21.978686,-24.278197,0.104878,0.112285,0.000000,-0.681594,0.160585,0.000000
3.390000,1.471947,-0.734356,-1.420579,1.867848,0.897859,-0.548639,-0.995042,0.859153,1.117132,-0.980700,-6.808745,4.937576,-13.486274,-20.574343,-25.432252,0.097879,0.113970,0.000000,-0.717456,0.174694,0.000000
3.400000,1.490576,-0.725334,-1.426010,1.857849,0.906110,-0.537221,-1.005523,0.790038,1.165236,-1.114727,-7.007743,4.677502,-13.327803,-19.235727,-26.561630,0.090529,0.115796,0.000000,-0.751891,0.188548,-0.000000
3.410000,1.509104,-0.716233,-1.431324,1.847738,0.913660,-0.525334,-1.017337,0.718998,1.210682,-1.247256,-7.193460,4.406344,-13.133210,-17.824990,-27.615585,0.082842,0.117757,0.000000,-0.784758,0.202127,0.000000
3.420000,1.527531,-0.707061,-1.436516,1.837502,0.920490,-0.513007,-1.030468,0.646169,1.253363,-1.377391,-7.364243,4.125191,-12.782585,-16.194219,-28.537832,0.074835,0.119852,0.000000,-0.815691,0.215297,-0.000000
3.430000,1.545854,-0.697824,-1.441584,1.827129,0.926583,-0.500267,-1.044884,0.571713,1.293186,-1.502908,-7.517344,3.835587,-12.286845,-14.385606,-29.329041,0.066530,0.122075,0.000000,-0.844191,0.227774,0.000000
3.440000,1.564073,-0.688529,-1.446522,1.816605,0.931924,-0.487143,-1.060526,0.495822,1.330075,-1.623128,-7.651955,3.538610,-11.808667,-12.602395,-30.050855,0.057953,0.124417,0.000000,-0.869987,0.239442,0.000000
3.450000,1.582186,-0.679185,-1.451327,1.805918,0.936500,-0.473665,-1.077347,0.418674,1.363958,-1.739081,-7.769392,3.234570,-11.375915,-10.908184,-30.756131,0.049132,0.126871,0.000000,-0.893074,0.250374,0.000000
3.460000,1.600192,-0.669799,-1.455995,1.795058,0.940298,-0.459864,-1.095308,0.340434,1.394766,-1.850647,-7.870119,2.923487,-10.880040,-9.172739,-31.390428,0.040095,0.129430,0.000000,-0.913355,0.260507,-0.000000
3.470000,1.618087,-0.660379,-1.460524,1.784012,0.943308,-0.445770,-1.114360,0.261271,1.422428,-1.956682,-7.952847,2.606761,-10.275259,-7.259115,-31.788667,0.030869,0.132085,0.000000,-0.930534,0.269683,-0.000000
3.480000,1.635872,-0.650933,-1.464910,1.772770,0.945523,-0.431416,-1.134442,0.181377,1.446901,-2.056152,-8.015301,2.287714,-9.597264,-5.217347,-31.946488,0.021488,0.134826,0.000000,-0.944210,0.277790,-0.000000
3.490000,1.653543,-0.641469,-1.469152,1.761323,0.946936,-0.416832,-1.155483,0.100965,1.468182,-2.148627,-8.057194,1.967832,-8.904690,-3.239917,-32.079583,0.011988,0.137641,0.000000,-0.954253,0.284765,0.000000
3.500000,1.671098,-0.631994,-1.473247,1.749661,0.947542,-0.402052,-1.177414,0.020233,1.486258,-2.234246,-8.080100,1.646122,-8.223540,-1.340836,-32.287098,0.002407,0.140520,0.000000,-0.960778,0.290577,0.000000
3.510000,1.688536,-0.622518,-1.477193,1.737775,0.947340,-0.387107,-1.200168,-0.060637,1.501105,-2.313098,-8.084011,1.322090,-7.517684,0.595096,-32.411407,-0.007223,0.143452,0.000000,-0.963732,0.295205,0.000000
3.520000,1.705854,-0.613047,-1.480989,1.725657,0.946330,-0.372030,-1.223676,-0.141447,1.512700,-2.384599,-8.068198,0.997894,-6.718719,2.555017,-32.195721,-0.016863,0.146423,0.000000,-0.962995,0.298594,0.000000
3.530000,1.723049,-0.603591,-1.484634,1.713301,0.944512,-0.356853,-1.247860,-0.222001,1.521062,-2.447473,-8.032910,0.678175,-5.838401,4.483293,-31.672201,-0.026478,0.149423,0.000000,-0.958609,0.300665,-0.000000
3.540000,1.740120,-0.594157,-1.488126,1.700700,0.941890,-0.341609,-1.272626,-0.302105,1.526263,-2.501367,-7.978532,0.364450,-4.975109,6.390035,-31.180463,-0.036031,0.152438,0.000000,-0.950668,0.301406,0.000000
3.550000,1.757063,-0.584753,-1.491466,1.687849,0.938469,-0.326328,-1.297887,-0.381571,1.528351,-2.546975,-7.905110,0.054566,-4.155002,8.303087,-30.830507,-0.045487,0.155454,0.000000,-0.939228,0.300868,0.000000
3.560000,1.773877,-0.575388,-1.494653,1.674742,0.934258,-0.311042,-1.323565,-0.460208,1.527355,-2.584467,-7.812470,-0.252160,-3.316443,10.197628,-30.388110,-0.054812,0.158460,0.000000,-0.924337,0.299071,-0.000000
3.570000,1.790558,-0.566068,-1.497687,1.661377,0.929265,-0.295781,-1.349577,-0.537821,1.523308,-2.613304,-7.701157,-0.553196,-2.413460,11.981722,-29.592336,-0.063970,0.161443,0.000000,-0.906166,0.296015,0.000000
3.580000,1.807104,-0.556802,-1.500568,1.647751,0.923502,-0.280575,-1.375831,-0.614231,1.516291,-2.632737,-7.572836,-0.844007,-1.472443,13.645372,-28.516474,-0.072932,0.164391,0.000000,-0.885067,0.291729,0.000000
3.590000,1.823513,-0.547598,-1.503298,1.633861,0.916981,-0.265455,-1.402231,-0.689277,1.506428,-2.642752,-7.428250,-1.123526,-0.559871,15.296020,-27.505728,-0.081669,0.167293,0.000000,-0.861280,0.286269,-0.000000
3.600000,1.839782,-0.538463,-1.505878,1.619706,0.909716,-0.250447,-1.428686,-0.762796,1.493820,-2.643934,-7.266915,-1.394121,0.327115,16.971866,-26.603191,-0.090155,0.170135,0.000000,-0.834873,0.279698,0.000000
3.610000,1.855907,-0.529404,-1.508307,1.605287,0.901725,-0.235578,-1.455110,-0.834616,1.478546,-2.636210,-7.088812,-1.655590,1.224737,18.585013,-25.584054,-0.098364,0.172909,0.000000,-0.805992,0.272050,0.000000
3.620000,1.871887,-0.520428,-1.510589,1.590604,0.893024,-0.220876,-1.481410,-0.904572,1.460708,-2.619439,-6.895215,-1.905802,2.102843,20.019319,-24.385374,-0.106273,0.175602,0.000000,-0.774962,0.263398,0.000000
3.630000,1.887719,-0.511543,-1.512725,1.575659,0.883633,-0.206364,-1.507499,-0.972520,1.440430,-2.594153,-6.688426,-2.143297,2.937204,21.281776,-23.089971,-0.113862,0.178206,0.000000,-0.742226,0.253881,0.000000
3.640000,1.903400,-0.502756,-1.514716,1.560454,0.873574,-0.192067,-1.533293,-1.038341,1.417842,-2.560695,-6.469579,-2.367602,3.763918,22.512325,-21.777810,-0.121117,0.180712,0.000000,-0.708070,0.243595,0.000000
3.650000,1.918928,-0.494072,-1.516566,1.544993,0.862866,-0.178007,-1.558713,-1.101912,1.393078,-2.518875,-6.238179,-2.578853,4.619130,23.794481,-20.459521,-0.128023,0.183113,0.000000,-0.672581,0.232563,0.000000
3.660000,1.934300,-0.485498,-1.518277,1.529280,0.851535,-0.164206,-1.583671,-1.163104,1.366265,-2.468313,-5.993690,-2.776792,5.468088,25.018565,-19.094162,-0.134569,0.185402,0.000000,-0.635838,0.220793,-0.000000
3.670000,1.949514,-0.477041,-1.519850,1.513320,0.839604,-0.150682,-1.608079,-1.221785,1.337542,-2.409513,-5.737808,-2.960736,6.204742,25.942399,-17.660828,-0.140741,0.187570,0.000000,-0.598176,0.208403,-0.000000
3.680000,1.964567,-0.468706,-1.521290,1.497118,0.827100,-0.137455,-1.631861,-1.277860,1.307051,-2.344218,-5.474842,-3.130009,6.828445,26.579477,-16.180175,-0.146533,0.189612,0.000000,-0.560202,0.195645,-0.000000
3.690000,1.979456,-0.460499,-1.522599,1.480682,0.814047,-0.124541,-1.654963,-1.331282,1.274942,-2.272944,-5.206219,-3.284340,7.475036,27.247020,-14.693604,-0.151946,0.191525,0.000000,-0.522174,0.182618,0.000000
3.700000,1.994180,-0.452425,-1.523781,1.464019,0.800474,-0.111956,-1.677320,-1.381985,1.241364,-2.194717,-4.929901,-3.423881,8.183637,28.043700,-13.222372,-0.156978,0.193307,0.000000,-0.483947,0.169242,0.000000
3.710000,2.008737,-0.444490,-1.524839,1.447136,0.786407,-0.099714,-1.698858,-1.429880,1.206464,-2.109272,-4.645345,-3.548787,8.855280,28.745645,-11.750017,-0.161626,0.194952,0.000000,-0.445534,0.155517,-0.000000
3.720000,2.023123,-0.436697,-1.525775,1.430042,0.771876,-0.087827,-1.719506,-1.474892,1.170388,-2.017611,-4.354989,-3.658881,9.392496,29.115704,-10.244613,-0.165890,0.196459,0.000000,-0.407269,0.141586,0.000000
3.730000,2.037337,-0.429052,-1.526595,1.412746,0.756910,-0.076306,-1.739210,-1.516980,1.133286,-1.921422,-4.063030,-3.753680,9.820362,29.217799,-8.728384,-0.169773,0.197824,0.000000,-0.369661,0.127664,-0.000000
3.740000,2.051378,-0.421559,-1.527301,1.395258,0.741537,-0.065161,-1.757934,-1.556152,1.095314,-1.821204,-3.770633,-3.833449,10.260369,29.358815,-7.258819,-0.173285,0.199050,0.000000,-0.332857,0.113815,0.000000
3.750000,2.065243,-0.414221,-1.527898,1.377587,0.725787,-0.054400,-1.775634,-1.592393,1.056617,-1.716214,-3.475854,-3.898856,10.741560,29.594767,-5.789157,-0.176432,0.200136,0.000000,-0.296649,0.099957,0.000000
3.760000,2.078930,-0.407043,-1.528389,1.359745,0.709689,-0.044029,-1.792258,-1.625669,1.017337,-1.606373,-3.178737,-3.949232,11.178663,29.719688,-4.298099,-0.179220,0.201081,0.000000,-0.261068,0.086104,0.000000
3.770000,2.092438,-0.400028,-1.528779,1.341742,0.693273,-0.034053,-1.807761,-1.655967,0.977633,-1.492641,-2.881460,-3.984818,11.496672,29.614608,-2.958499,-0.181656,0.201886,0.000000,-0.226341,0.072363,0.000000
3.780000,2.105765,-0.393178,-1.529070,1.323590,0.676570,-0.024476,-1.822111,-1.683298,0.937641,-1.376440,-2.586445,-4.008402,11.718776,29.349209,-1.802196,-0.183749,0.202553,0.000000,-0.192658,0.058824,-0.000000
3.790000,2.118909,-0.386496,-1.529268,1.305300,0.659607,-0.015300,-1.835290,-1.707696,0.897465,-1.258265,-2.294476,-4.020862,11.939946,29.075442,-0.602509,-0.185511,0.203084,0.000000,-0.160060,0.045520,0.000000
3.800000,2.131871,-0.379986,-1.529377,1.286884,0.642416,-0.006527,-1.847276,-1.729188,0.857224,-1.137641,-2.004936,-4.020452,12.186770,28.811804,0.722290,-0.186952,0.203480,0.000000,-0.128493,0.032431,0.000000
3.810000,2.144647,-0.373648,-1.529399,1.268354,0.625024,0.001844,-1.858043,-1.747795,0.817056,-1.014530,-1.718240,-4.006416,12.394097,28.463311,2.003198,-0.188082,0.203744,0.000000,-0.097986,0.019566,0.000000
3.820000,2.157238,-0.367485,-1.529340,1.249723,0.607460,0.009814,-1.867567,-1.763553,0.777095,-0.889759,-1.435670,-3.980388,12.494557,27.995465,3.037595,-0.188913,0.203879,0.000000,-0.068608,0.006967,-0.000000
3.830000,2.169641,-0.361499,-1.529203,1.231003,0.589752,0.017386,-1.875838,-1.776508,0.737448,-0.764639,-1.158331,-3.945664,12.507888,27.447029,3.864940,-0.189456,0.203887,0.000000,-0.040365,-0.005312,0.000000
3.840000,2.181858,-0.355690,-1.528992,1.212206,0.571930,0.024563,-1.882860,-1.786719,0.698182,-0.639601,-0.886729,-3.903089,12.522598,26.866598,4.741032,-0.189722,0.203771,0.000000,-0.013254,-0.017255,0.000000
3.850000,2.193886,-0.350060,-1.528711,1.193346,0.554018,0.031350,-1.888630,-1.794243,0.659386,-0.514187,-0.620999,-3.850844,12.553674,26.249255,5.727680,-0.189722,0.203536,0.000000,0.012715,-0.028884,0.000000
3.860000,2.205725,-0.344610,-1.528365,1.174434,0.536045,0.037751,-1.893144,-1.799139,0.621165,-0.388527,-0.361744,-3.788536,12.542973,25.571887,6.644954,-0.189468,0.203184,0.000000,0.037511,-0.040192,-0.000000
3.870000,2.217374,-0.339339,-1.527956,1.155483,0.518035,0.043773,-1.896401,-1.801478,0.583615,-0.263327,-0.109561,-3.717944,12.461842,24.863112,7.338425,-0.188973,0.202718,0.000000,0.061154,-0.051158,0.000000
3.880000,2.228834,-0.334249,-1.527489,1.136506,0.500015,0.049423,-1.898410,-1.801331,0.546806,-0.139291,0.135518,-3.641767,12.331568,24.140822,7.859588,-0.188246,0.202142,0.000000,0.083732,-0.061782,0.000000
3.890000,2.240104,-0.329339,-1.526968,1.117515,0.482009,0.054709,-1.899186,-1.798768,0.510780,-0.016696,0.373255,-3.560753,12.189615,23.373561,8.402919,-0.187299,0.201460,0.000000,0.105275,-0.072064,0.000000
3.900000,2.251185,-0.324609,-1.526395,1.098522,0.464040,0.059639,-1.898744,-1.793865,0.475591,0.104502,0.602989,-3.473709,12.036985,22.541970,9.005948,-0.186141,0.200676,0.000000,0.125729,-0.082000,0.000000
3.910000,2.262075,-0.320058,-1.525775,1.079540,0.446131,0.064221,-1.897096,-1.786708,0.441306,0.224044,0.824095,-3.380634,11.851898,21.676904,9.536390,-0.184785,0.199792,0.000000,0.145066,-0.091576,0.000000
3.920000,2.272775,-0.315686,-1.525111,1.060580,0.428306,0.068465,-1.894263,-1.777384,0.407979,0.341540,1.036527,-3.282981,11.637682,20.840145,9.903756,-0.183240,0.198812,0.000000,0.163345,-0.100799,0.000000
3.930000,2.283286,-0.311492,-1.524406,1.041655,0.410584,0.072381,-1.890266,-1.765977,0.375646,0.456797,1.240898,-3.182559,11.404593,20.031540,10.149041,-0.181518,0.197742,0.000000,0.180693,-0.109698,0.000000
3.940000,2.293608,-0.307475,-1.523663,1.022775,0.392986,0.075978,-1.885127,-1.752566,0.344327,0.569632,1.437158,-3.080000,11.150122,19.177586,10.387697,-0.179626,0.196582,0.000000,0.197141,-0.118279,0.000000
3.950000,2.303742,-0.303632,-1.522886,1.003952,0.375532,0.079267,-1.878873,-1.737234,0.314046,0.679800,1.624449,-2.974805,10.872947,18.255090,10.646495,-0.177575,0.195337,0.000000,0.212623,-0.126519,0.000000
3.960000,2.313687,-0.299964,-1.522078,0.985197,0.358241,0.082259,-1.871531,-1.720077,0.284831,0.787090,1.802260,-2.867070,10.578165,17.321567,10.849652,-0.175374,0.194011,0.000000,0.227113,-0.134410,-0.000000
3.970000,2.323446,-0.296468,-1.521241,0.966521,0.341131,0.084964,-1.863131,-1.701189,0.256705,0.891363,1.970881,-2.757812,10.272379,16.445089,10.933045,-0.173033,0.192607,0.000000,0.240679,-0.141970,-0.000000
3.980000,2.333018,-0.293141,-1.520379,0.947935,0.324218,0.087393,-1.853704,-1.680659,0.229675,0.992538,2.131162,-2.648409,9.957070,15.614795,10.922890,-0.170560,0.191129,0.000000,0.253449,-0.149225,-0.000000
3.990000,2.342405,-0.289983,-1.519493,0.929447,0.307518,0.089557,-1.843280,-1.658566,0.203737,1.090504,2.283177,-2.539354,9.627422,14.748893,10.905827,-0.167964,0.189579,0.000000,0.265454,-0.156181,0.000000
4.000000,2.351607,-0.286991,-1.518587,0.911069,0.291046,0.091468,-1.831894,-1.634995,0.178888,1.185086,2.426140,-2.430293,9.279480,13.826885,10.893715,-0.165251,0.187961,0.000000,0.276623,-0.162823,-0.000000
4.010000,2.360626,-0.284162,-1.517664,0.892809,0.274818,0.093135,-1.819579,-1.610043,0.155131,1.276094,2.559714,-2.321480,8.919796,12.909624,10.832857,-0.162431,0.186277,0.000000,0.286939,-0.169142,0.000000
4.020000,2.369463,-0.281495,-1.516725,0.874677,0.258845,0.094570,-1.806372,-1.583801,0.132458,1.363482,2.684332,-2.213636,8.565454,12.055679,10.707570,-0.159512,0.184533,0.000000,0.296467,-0.175154,-0.000000
4.030000,2.378119,-0.278985,-1.515772,0.856682,0.243142,0.095784,-1.792309,-1.556356,0.110858,1.447403,2.800828,-2.107328,8.218161,11.250793,10.541647,-0.156501,0.182729,0.000000,0.305305,-0.180888,-0.000000
4.040000,2.386597,-0.276632,-1.514809,0.838831,0.227718,0.096788,-1.777424,-1.527785,0.090312,1.527846,2.909348,-2.002803,7.858381,10.424469,10.358214,-0.153406,0.180870,0.000000,0.313477,-0.186352,-0.000000
4.050000,2.394896,-0.274431,-1.513837,0.821133,0.212586,0.097591,-1.761752,-1.498169,0.070802,1.604571,3.009317,-1.900164,7.476539,9.560990,10.147213,-0.150232,0.178958,0.000000,0.320931,-0.191527,-0.000000
4.060000,2.403019,-0.272380,-1.512857,0.803596,0.197755,0.098204,-1.745332,-1.467598,0.052309,1.677376,3.100568,-1.799859,7.089035,8.711584,9.899952,-0.146987,0.176996,0.000000,0.327661,-0.196403,0.000000
4.070000,2.410968,-0.270476,-1.511873,0.786227,0.183234,0.098637,-1.728205,-1.436158,0.034805,1.746351,3.183549,-1.702165,6.725571,7.920696,9.654287,-0.143678,0.174987,0.000000,0.333716,-0.200996,-0.000000
4.080000,2.418744,-0.268715,-1.510885,0.769032,0.169032,0.098900,-1.710405,-1.403927,0.018265,1.811888,3.258982,-1.606773,6.384043,7.175175,9.420048,-0.140312,0.172934,0.000000,0.339160,-0.205341,0.000000
4.090000,2.426349,-0.267095,-1.509895,0.752019,0.155156,0.099002,-1.691967,-1.370978,0.002669,1.874032,3.327052,-1.513764,6.027632,6.421351,9.150919,-0.136895,0.170839,0.000000,0.344013,-0.209443,-0.000000
4.100000,2.433784,-0.265612,-1.508904,0.735193,0.141612,0.098953,-1.672925,-1.337386,-0.012010,1.932440,3.387409,-1.423754,5.649007,5.648725,8.834134,-0.133432,0.168705,0.000000,0.348246,-0.213280,-0.000000
4.110000,2.441053,-0.264263,-1.507916,0.718560,0.128408,0.098762,-1.653318,-1.303230,-0.025806,1.987012,3.440027,-1.337081,5.275402,4.895610,8.506743,-0.129929,0.166535,0.000000,0.351859,-0.216846,0.000000
4.120000,2.448155,-0.263044,-1.506929,0.702126,0.115548,0.098437,-1.633185,-1.268586,-0.038752,2.037948,3.485321,-1.253620,4.926122,4.191230,8.203875,-0.126394,0.164331,0.000000,0.354885,-0.220159,-0.000000
4.130000,2.455095,-0.261952,-1.505947,0.685897,0.103036,0.097987,-1.612559,-1.233524,-0.050878,2.085535,3.523851,-1.173004,4.594371,3.525075,7.919294,-0.122831,0.162096,0.000000,0.357370,-0.223239,-0.000000
4.140000,2.461873,-0.260983,-1.504969,0.669875,0.090877,0.097419,-1.591474,-1.198109,-0.062212,2.129836,3.555822,-1.095234,4.257677,2.861986,7.613333,-0.119246,0.159832,0.000000,0.359330,-0.226090,0.000000
4.150000,2.468493,-0.260135,-1.503998,0.654067,0.079074,0.096743,-1.569962,-1.162407,-0.072783,2.170688,3.581091,-1.020737,3.909970,2.195716,7.270638,-0.115645,0.157542,0.000000,0.360750,-0.228703,0.000000
4.160000,2.474955,-0.259402,-1.503035,0.638476,0.067629,0.095964,-1.548060,-1.126487,-0.082626,2.208035,3.599737,-0.949821,3.568027,1.551036,6.922673,-0.112031,0.155227,0.000000,0.361636,-0.231073,0.000000
4.170000,2.481262,-0.258782,-1.502079,0.623106,0.056544,0.095090,-1.525802,-1.090413,-0.091779,2.242049,3.612112,-0.882284,3.250676,0.945431,6.618142,-0.108412,0.152891,0.000000,0.362014,-0.233212,-0.000000
4.180000,2.487417,-0.258271,-1.501133,0.607960,0.045821,0.094128,-1.503219,-1.054245,-0.100272,2.273049,3.618645,-0.817458,2.954188,0.371895,6.352386,-0.104791,0.150535,0.000000,0.361912,-0.235138,0.000000
4.190000,2.493421,-0.257866,-1.500197,0.593041,0.035459,0.093085,-1.480341,-1.018040,-0.108128,2.301133,3.619550,-0.755236,2.655417,-0.190631,6.065023,-0.101173,0.148162,0.000000,0.361343,-0.236857,0.000000
4.200000,2.499278,-0.257562,-1.499271,0.578353,0.025460,0.091966,-1.457196,-0.981854,-0.115377,2.326157,3.614833,-0.696158,2.348614,-0.746131,5.738896,-0.097564,0.145774,0.000000,0.360310,-0.238361,-0.000000
4.210000,2.504988,-0.257356,-1.498357,0.563898,0.015822,0.090777,-1.433818,-0.945743,-0.122051,2.348105,3.604627,-0.640458,2.050424,-1.279921,5.418399,-0.093967,0.143372,0.000000,0.358820,-0.239648,0.000000
4.220000,2.510556,-0.257245,-1.497456,0.549677,0.006545,0.089525,-1.410234,-0.909761,-0.128186,2.367166,3.589234,-0.587790,1.776345,-1.780871,5.149460,-0.090387,0.140959,0.000000,0.356894,-0.240728,-0.000000
4.230000,2.515982,-0.257225,-1.496567,0.535693,-0.002373,0.088213,-1.386474,-0.873958,-0.133807,2.383632,3.569010,-0.537469,1.522154,-2.253169,4.921309,-0.086829,0.138538,0.000000,0.354554,-0.241618,0.000000
4.240000,2.521269,-0.257293,-1.495691,0.521947,-0.010934,0.086848,-1.362562,-0.838381,-0.138935,2.397609,3.544171,-0.489363,1.268605,-2.710573,4.677067,-0.083296,0.136109,0.000000,0.351815,-0.242324,0.000000
4.250000,2.526421,-0.257444,-1.494830,0.508442,-0.019141,0.085435,-1.338522,-0.803075,-0.143595,2.409004,3.514798,-0.443927,1.010934,-3.155989,4.403577,-0.079792,0.133674,0.000000,0.348685,-0.242840,-0.000000
4.260000,2.531438,-0.257676,-1.493983,0.495177,-0.026996,0.083977,-1.314382,-0.768085,-0.147814,2.417827,3.481051,-0.401292,0.762681,-3.579981,4.141182,-0.076322,0.131236,0.000000,0.345175,-0.243167,-0.000000
4.270000,2.536324,-0.257984,-1.493150,0.482154,-0.034502,0.082478,-1.290166,-0.733454,-0.151620,2.424258,3.443199,-0.361104,0.536314,-3.974997,3.924311,-0.072889,0.128797,0.000000,0.341304,-0.243315,0.000000
4.280000,2.541081,-0.258366,-1.492333,0.469374,-0.041665,0.080944,-1.265896,-0.699221,-0.155036,2.428554,3.401551,-0.322806,0.328122,-4.343798,3.741985,-0.069496,0.126357,0.000000,0.337092,-0.243298,-0.000000
4.290000,2.545712,-0.258817,-1.491531,0.456836,-0.048487,0.079378,-1.241594,-0.665423,-0.158077,2.430820,3.356323,-0.286264,0.122296,-4.696045,3.551375,-0.066147,0.123919,0.000000,0.332558,-0.243124,0.000000
4.300000,2.550218,-0.259335,-1.490746,0.444542,-0.054973,0.077783,-1.217280,-0.632095,-0.160761,2.431000,3.307630,-0.251778,-0.084993,-5.034207,3.342489,-0.062845,0.121484,0.000000,0.327710,-0.242790,0.000000
4.310000,2.554603,-0.259917,-1.489976,0.432490,-0.061129,0.076162,-1.192974,-0.599270,-0.163112,2.429120,3.255639,-0.219414,-0.282930,-5.351820,3.144998,-0.059593,0.119053,0.000000,0.322563,-0.242295,0.000000
4.320000,2.558868,-0.260558,-1.489222,0.420682,-0.066959,0.074520,-1.168698,-0.566982,-0.165150,2.425341,3.200594,-0.188878,-0.462111,-5.642881,2.984710,-0.056393,0.116629,0.000000,0.317134,-0.241650,-0.000000
4.330000,2.563016,-0.261256,-1.488485,0.409116,-0.072468,0.072859,-1.144468,-0.535258,-0.166890,2.419878,3.142781,-0.159720,-0.625784,-5.909314,2.852935,-0.053250,0.114213,0.000000,0.311447,-0.240869,0.000000
4.340000,2.567050,-0.262007,-1.487765,0.397793,-0.077664,0.071183,-1.120300,-0.504126,-0.168344,2.412825,3.082408,-0.131820,-0.786183,-6.159181,2.716715,-0.050164,0.111805,0.000000,0.305520,-0.239959,0.000000
4.350000,2.570972,-0.262809,-1.487062,0.386710,-0.082551,0.069493,-1.096211,-0.473610,-0.169526,2.404154,3.019597,-0.105386,-0.945984,-6.395143,2.569385,-0.047139,0.109407,0.000000,0.299363,-0.238917,-0.000000
4.360000,2.574784,-0.263658,-1.486375,0.375869,-0.087136,0.067792,-1.072217,-0.443734,-0.170452,2.393906,2.954505,-0.080432,-1.097107,-6.611952,2.433031,-0.044177,0.107021,0.000000,0.292989,-0.237746,0.000000
4.370000,2.578490,-0.264552,-1.485706,0.365266,-0.091425,0.066083,-1.048333,-0.414520,-0.171135,2.382212,2.887358,-0.056725,-1.233683,-6.803471,2.323049,-0.041280,0.104648,0.000000,0.286418,-0.236456,-0.000000
4.380000,2.582090,-0.265487,-1.485054,0.354902,-0.095426,0.064369,-1.024573,-0.385987,-0.171586,2.369232,2.818435,-0.033971,-1.358434,-6.971363,2.232011,-0.038449,0.102288,0.000000,0.279676,-0.235057,-0.000000
4.390000,2.585588,-0.266460,-1.484418,0.344775,-0.099145,0.062652,-1.000948,-0.358151,-0.171814,2.355043,2.747931,-0.012085,-1.479242,-7.124206,2.139912,-0.035686,0.099943,0.000000,0.272779,-0.233556,0.000000
4.400000,2.588985,-0.267470,-1.483801,0.334883,-0.102589,0.060933,-0.977472,-0.331028,-0.171828,2.339647,2.675951,0.008827,-1.597794,-7.264609,2.044615,-0.032993,0.097614,0.000000,0.265737,-0.231952,0.000000
4.410000,2.592285,-0.268512,-1.483200,0.325225,-0.105766,0.059215,-0.954155,-0.304632,-0.171638,2.323088,2.602639,0.028807,-1.709167,-7.387153,1.958729,-0.030371,0.095301,0.000000,0.258564,-0.230249,0.000000
4.420000,2.595490,-0.269585,-1.482616,0.315800,-0.108682,0.057500,-0.931010,-0.278976,-0.171252,2.305464,2.528208,0.048002,-1.810134,-7.486483,1.885376,-0.027822,0.093007,0.000000,0.251279,-0.228454,0.000000
4.430000,2.598601,-0.270686,-1.482050,0.306605,-0.111345,0.055790,-0.908046,-0.254068,-0.170677,2.286885,2.452909,0.066515,-1.902616,-7.564525,1.819512,-0.025346,0.090731,0.000000,0.243906,-0.226576,-0.000000
4.440000,2.601622,-0.271812,-1.481500,0.297639,-0.113763,0.054087,-0.885272,-0.229917,-0.169921,2.267411,2.376918,0.084392,-1.991294,-7.628981,1.756812,-0.022944,0.088474,0.000000,0.236462,-0.224620,0.000000
4.450000,2.604554,-0.272961,-1.480968,0.288900,-0.115944,0.052392,-0.862698,-0.206530,-0.168990,2.247059,2.300330,0.101651,-2.077335,-7.682087,1.697569,-0.020617,0.086237,0.000000,0.228956,-0.222587,0.000000
4.460000,2.607400,-0.274131,-1.480453,0.280385,-0.117894,0.050707,-0.840331,-0.183911,-0.167888,2.225865,2.223276,0.118344,-2.158129,-7.719204,1.643587,-0.018365,0.084021,0.000000,0.221401,-0.220480,0.000000
4.470000,2.610162,-0.275319,-1.479954,0.272093,-0.119622,0.049034,-0.818181,-0.162064,-0.166623,2.203896,2.145946,0.134523,-2.231789,-7.736177,1.592784,-0.016189,0.081827,0.000000,0.213813,-0.218303,0.000000
4.480000,2.612842,-0.276523,-1.479472,0.264021,-0.121135,0.047374,-0.796253,-0.140992,-0.165198,2.181229,2.068552,0.150199,-2.299592,-7.734852,1.543442,-0.014089,0.079654,0.000000,0.206216,-0.216065,0.000000
4.490000,2.615442,-0.277742,-1.479006,0.256168,-0.122442,0.045730,-0.774556,-0.120693,-0.163619,2.157905,1.991248,0.165392,-2.364714,-7.721531,1.497387,-0.012064,0.077505,0.000000,0.198623,-0.213768,0.000000
4.500000,2.617965,-0.278972,-1.478557,0.248530,-0.123549,0.044102,-0.753095,-0.101167,-0.161890,2.133935,1.914122,0.180147,-2.427779,-7.698192,1.456432,-0.010116,0.075379,0.000000,0.191043,-0.211414,0.000000
4.510000,2.620413,-0.280213,-1.478124,0.241106,-0.124465,0.042492,-0.731877,-0.082411,-0.160016,2.109349,1.837285,0.194520,-2.487271,-7.661290,1.418218,-0.008243,0.073276,0.000000,0.183487,-0.209004,0.000000
4.520000,2.622787,-0.281462,-1.477707,0.233893,-0.125197,0.040902,-0.710908,-0.064421,-0.158000,2.084189,1.760896,0.208511,-2.543047,-7.607471,1.376229,-0.006446,0.071199,0.000000,0.175970,-0.206541,0.000000
4.530000,2.625091,-0.282717,-1.477306,0.226888,-0.125753,0.039332,-0.690194,-0.047193,-0.155846,2.058488,1.685135,0.222045,-2.596295,-7.538404,1.329963,-0.004724,0.069145,0.000000,0.168511,-0.204030,0.000000
4.540000,2.627325,-0.283977,-1.476921,0.220089,-0.126141,0.037785,-0.669739,-0.030719,-0.153559,2.032263,1.610128,0.235111,-2.647882,-7.459521,1.287106,-0.003076,0.067118,0.000000,0.161122,-0.201472,-0.000000
4.550000,2.629492,-0.285240,-1.476551,0.213493,-0.126368,0.036261,-0.649548,-0.014990,-0.151143,2.005530,1.535945,0.247787,-2.697024,-7.372232,1.250943,-0.001502,0.065116,0.000000,0.153810,-0.198867,0.000000
4.560000,2.631595,-0.286504,-1.476196,0.207098,-0.126441,0.034762,-0.629628,0.000000,-0.148603,1.978323,1.462683,0.260129,-2.743908,-7.273719,1.215256,0.000000,0.063140,0.000000,0.146584,-0.196219,0.000000
4.570000,2.633634,-0.287768,-1.475855,0.200901,-0.126368,0.033289,-0.609982,0.014263,-0.145941,1.950652,1.390470,0.272092,-2.792060,-7.162464,1.170256,0.001430,0.061192,0.000000,0.139457,-0.193527,-0.000000
4.580000,2.635613,-0.289031,-1.475530,0.194898,-0.126156,0.031843,-0.590615,0.027810,-0.143161,1.922482,1.319434,0.283535,-2.842111,-7.040110,1.116753,0.002789,0.059270,0.000000,0.132442,-0.190790,0.000000
4.590000,2.637532,-0.290291,-1.475219,0.189088,-0.125812,0.030426,-0.571532,0.040652,-0.140270,1.893810,1.249668,0.294427,-2.890054,-6.909724,1.066883,0.004079,0.057376,0.000000,0.125547,-0.188006,0.000000
4.600000,2.639395,-0.291548,-1.474921,0.183468,-0.125343,0.029038,-0.552739,0.052803,-0.137273,1.864681,1.181239,0.304872,-2.935010,-6.771885,1.024572,0.005300,0.055510,0.000000,0.118781,-0.185179,0.000000
4.610000,2.641202,-0.292798,-1.474638,0.178033,-0.124756,0.027680,-0.534239,0.064277,-0.134173,1.835110,1.114230,0.314919,-2.980331,-6.625496,0.980834,0.006454,0.053672,0.000000,0.112150,-0.182310,0.000000
4.620000,2.642955,-0.294043,-1.474368,0.172783,-0.124057,0.026354,-0.516036,0.075088,-0.130974,1.805074,1.048730,0.324489,-3.028965,-6.471132,0.925035,0.007543,0.051863,0.000000,0.105664,-0.179396,0.000000
4.630000,2.644657,-0.295279,-1.474111,0.167713,-0.123254,0.025061,-0.498137,0.085251,-0.127683,1.774531,0.984808,0.333419,-3.080367,-6.310000,0.859456,0.008568,0.050084,0.000000,0.099330,-0.176434,0.000000
4.640000,2.646310,-0.296508,-1.473866,0.162820,-0.122352,0.023801,-0.480546,0.094784,-0.124306,1.743467,0.922530,0.341678,-3.131486,-6.142478,0.797402,0.009530,0.048335,0.000000,0.093154,-0.173422,-0.000000
4.650000,2.647914,-0.297726,-1.473635,0.158102,-0.121358,0.022575,-0.463268,0.103702,-0.120849,1.711901,0.861958,0.349367,-3.181779,-5.968539,0.740493,0.010431,0.046616,0.000000,0.087142,-0.170361,0.000000
4.660000,2.649472,-0.298935,-1.473415,0.153555,-0.120278,0.021384,-0.446308,0.112023,-0.117319,1.679831,0.803159,0.356488,-3.233830,-5.788930,0.679447,0.011272,0.044927,0.000000,0.081302,-0.167250,0.000000
4.670000,2.650985,-0.300132,-1.473207,0.149176,-0.119118,0.020228,-0.429671,0.119765,-0.113720,1.647224,0.746180,0.362956,-3.290065,-5.605660,0.610701,0.012057,0.043270,0.000000,0.075637,-0.164085,0.000000
4.680000,2.652455,-0.301317,-1.473010,0.144961,-0.117883,0.019109,-0.413363,0.126947,-0.110059,1.614030,0.691046,0.368702,-3.350198,-5.419469,0.536883,0.012785,0.041645,0.000000,0.070150,-0.160862,0.000000
4.690000,2.653884,-0.302490,-1.472825,0.140908,-0.116579,0.018027,-0.397391,0.133586,-0.106346,1.580220,0.637790,0.373694,-3.411717,-5.228872,0.461867,0.013460,0.040053,0.000000,0.064846,-0.157578,0.000000
4.700000,2.655273,-0.303649,-1.472650,0.137013,-0.115211,0.016982,-0.381759,0.139702,-0.102586,1.545795,0.586468,0.377939,-3.473665,-5.032812,0.387786,0.014082,0.038494,0.000000,0.059729,-0.154230,-0.000000
4.710000,2.656624,-0.304794,-1.472485,0.133273,-0.113785,0.015975,-0.366475,0.145315,-0.098787,1.510747,0.537134,0.381450,-3.538250,-4.833323,0.311787,0.014654,0.036968,0.000000,0.054805,-0.150819,0.000000
4.720000,2.657939,-0.305925,-1.472330,0.129684,-0.112305,0.015007,-0.351544,0.150445,-0.094957,1.475030,0.489802,0.384175,-3.608944,-4.635155,0.227019,0.015178,0.035477,0.000000,0.050076,-0.147339,-0.000000
4.730000,2.659218,-0.307040,-1.472185,0.126242,-0.110776,0.014076,-0.336974,0.155111,-0.091103,1.438568,0.444431,0.385990,-3.685563,-4.438923,0.134009,0.015656,0.034021,0.000000,0.045537,-0.143783,0.000000
4.740000,2.660464,-0.308140,-1.472049,0.122945,-0.109203,0.013185,-0.322773,0.159334,-0.087237,1.401319,0.401023,0.386855,-3.764040,-4.239326,0.041881,0.016089,0.032601,0.000000,0.041189,-0.140145,-0.000000
4.750000,2.661677,-0.309224,-1.471921,0.119787,-0.107589,0.012332,-0.308948,0.163132,-0.083366,1.363287,0.359644,0.386828,-3.843225,-4.032926,-0.047512,0.016479,0.031218,0.000000,0.037039,-0.136426,0.000000
4.760000,2.662859,-0.310292,-1.471802,0.116766,-0.105940,0.011517,-0.295507,0.166527,-0.079500,1.324455,0.320365,0.385905,-3.926293,-3.824384,-0.140411,0.016830,0.029872,0.000000,0.033094,-0.132622,0.000000
4.770000,2.664012,-0.311343,-1.471691,0.113877,-0.104259,0.010742,-0.282459,0.169539,-0.075648,1.284761,0.283157,0.384019,-4.016756,-3.624494,-0.240464,0.017141,0.028565,0.000000,0.029352,-0.128728,-0.000000
4.780000,2.665137,-0.312377,-1.471587,0.111116,-0.102549,0.010004,-0.269812,0.172190,-0.071820,1.244120,0.247875,0.381096,-4.113959,-3.433868,-0.345265,0.017417,0.027297,0.000000,0.025798,-0.124735,0.000000
4.790000,2.666235,-0.313394,-1.471491,0.108480,-0.100815,0.009305,-0.257576,0.174497,-0.068026,1.202482,0.214479,0.377114,-4.213701,-3.238663,-0.450342,0.017657,0.026070,0.000000,0.022428,-0.120637,0.000000
4.800000,2.667306,-0.314393,-1.471401,0.105965,-0.099059,0.008644,-0.245762,0.176479,-0.064278,1.159846,0.183102,0.372089,-4.315362,-3.028621,-0.557665,0.017865,0.024884,0.000000,0.019256,-0.116433,0.000000
4.810000,2.668354,-0.315375,-1.471318,0.103565,-0.097285,0.008020,-0.234379,0.178159,-0.060584,1.116175,0.153907,0.365961,-4.422127,-2.814390,-0.669891,0.018042,0.023741,0.000000,0.016300,-0.112119,0.000000
4.820000,2.669378,-0.316339,-1.471241,0.101277,-0.095496,0.007432,-0.223439,0.179557,-0.056958,1.071403,0.126814,0.358691,-4.535980,-2.624260,-0.780939,0.018191,0.022641,0.000000,0.013550,-0.107689,-0.000000
4.830000,2.670379,-0.317285,-1.471169,0.099096,-0.093694,0.006880,-0.212951,0.180695,-0.053411,1.025455,0.101422,0.350342,-4.656107,-2.455791,-0.889588,0.018313,0.021587,0.000000,0.010968,-0.103133,0.000000
4.840000,2.671360,-0.318213,-1.471103,0.097018,-0.091882,0.006364,-0.202929,0.181586,-0.049951,0.978281,0.077698,0.340899,-4.780254,-2.271308,-1.004346,0.018411,0.020578,0.000000,0.008549,-0.098448,0.000000
4.850000,2.672320,-0.319123,-1.471042,0.095038,-0.090062,0.005881,-0.193386,0.182249,-0.046593,0.929850,0.055996,0.330255,-4.908391,-2.067657,-1.126148,0.018484,0.019617,0.000000,0.006331,-0.093628,-0.000000
4.860000,2.673260,-0.320014,-1.470986,0.093151,-0.088237,0.005432,-0.184332,0.182706,-0.043346,0.880113,0.036345,0.318376,-5.042313,-1.870224,-1.249151,0.018537,0.018705,0.000000,0.004316,-0.088670,0.000000
4.870000,2.674183,-0.320887,-1.470934,0.091351,-0.086408,0.005015,-0.175783,0.182976,-0.040225,0.829004,0.018591,0.305272,-5.182307,-1.681013,-1.372869,0.018571,0.017844,0.000000,0.002490,-0.083567,0.000000
4.880000,2.675087,-0.321742,-1.470885,0.089635,-0.084578,0.004628,-0.167752,0.183078,-0.037241,0.776467,0.002725,0.290919,-5.327881,-1.491029,-1.499344,0.018587,0.017034,0.000000,0.000850,-0.078312,-0.000000
4.890000,2.675975,-0.322579,-1.470841,0.087996,-0.082747,0.004270,-0.160254,0.183030,-0.034407,0.722446,-0.011229,0.275285,-5.479124,-1.299528,-1.628717,0.018588,0.016277,0.000000,-0.000598,-0.072899,0.000000
4.900000,2.676847,-0.323397,-1.470800,0.086430,-0.080917,0.003939,-0.153303,0.182853,-0.031735,0.666884,-0.023266,0.258345,-5.636248,-1.107530,-1.760721,0.018575,0.015576,0.000000,-0.001856,-0.067324,0.000000
4.910000,2.677704,-0.324197,-1.470762,0.084930,-0.079090,0.003635,-0.146916,0.182565,-0.029240,0.609722,-0.033380,0.240071,-5.799360,-0.914926,-1.895363,0.018551,0.014931,0.000000,-0.002921,-0.061580,0.000000
4.920000,2.678546,-0.324979,-1.470727,0.083491,-0.077266,0.003355,-0.141109,0.182185,-0.026934,0.550897,-0.041565,0.220437,-5.968577,-0.721535,-2.032661,0.018517,0.014344,0.000000,-0.003794,-0.055660,0.000000
4.930000,2.679374,-0.325743,-1.470695,0.082108,-0.075446,0.003096,-0.135898,0.181734,-0.024831,0.490350,-0.047811,0.199418,-6.144043,-0.527175,-2.172616,0.018475,0.013817,0.000000,-0.004472,-0.049560,-0.000000
4.940000,2.680188,-0.326488,-1.470665,0.080774,-0.073631,0.002858,-0.131302,0.181229,-0.022945,0.428016,-0.052108,0.176985,-6.325860,-0.331666,-2.315249,0.018427,0.013352,0.000000,-0.004955,-0.043273,0.000000
4.950000,2.680989,-0.327215,-1.470638,0.079482,-0.071821,0.002637,-0.127338,0.180692,-0.021291,0.363833,-0.054444,0.153113,-6.514120,-0.134827,-2.460586,0.018376,0.012952,0.000000,-0.005241,-0.036794,0.000000
4.960000,2.681778,-0.327924,-1.470613,0.078227,-0.070017,0.002432,-0.124025,0.180140,-0.019883,0.297734,-0.054805,0.127773,-6.708976,0.063523,-2.608630,0.018322,0.012617,0.000000,-0.005328,-0.030115,0.000000
4.970000,2.682554,-0.328616,-1.470589,0.077001,-0.068219,0.002240,-0.121383,0.179595,-0.018736,0.229653,-0.053174,0.100940,66.525658,-111.097533,7.821913,0.018269,0.012349,0.000000,-0.005215,-0.023231,-0.000000
4.980000,2.683318,-0.329289,-1.470568,0.075799,-0.066425,0.002057,-0.119432,0.179077,-0.017864,1.628247,-2.276755,0.284212,139.585955,-221.798433,18.104671,0.018218,0.012152,0.000000,-0.231006,-0.165273,0.000000
4.990000,2.684070,-0.329944,-1.470548,0.074613,-0.064637,0.001882,-0.088818,0.134060,-0.013052,3.021372,-4.489142,0.463033,67.655606,-109.993845,8.028936,0.013646,0.009042,0.000000,-0.456216,-0.307100,0.000000
5.000000,2.684810,-0.330581,-1.470530,0.074023,-0.063744,0.001796,-0.059005,0.089294,-0.008604,2.981359,-4.476632,0.444790,-4.001306,1.251011,-1.824316,0.009094,0.006009,0.000000,-0.455459,-0.303348,-0.000000
