time,x,y,z,vx,vy,vz,ax,ay,az,jx,jy,jz,sx,sy,sz,roll,pitch,yaw,p,q,r
0.000000,-3.336142,0.303416,-1.477670,-0.001933,-0.004238,-0.024507,0.096882,0.010303,0.017737,4.560513,0.321505,1.114082,-20.065820,-16.157688,18.646889,0.001052,-0.009893,0.000000,0.032946,-0.466806,0.000000
0.010000,-3.336162,0.303373,-1.477915,-0.000964,-0.004135,-0.024329,0.142487,0.013518,0.028878,4.359854,0.159928,1.300551,-136.307402,-29.375190,-3.642138,0.001382,-0.014567,0.000000,0.016524,-0.447583,0.000000
0.020000,-3.336162,0.303333,-1.478156,0.000917,-0.003968,-0.023929,0.184079,0.013502,0.043748,1.834364,-0.265999,1.041240,-227.846943,-29.296183,-42.182118,0.001382,-0.018846,0.000000,-0.027089,-0.189769,0.000000
0.030000,-3.336143,0.303294,-1.478394,0.002717,-0.003865,-0.023454,0.179175,0.008198,0.049703,-0.197085,-0.425995,0.456909,-74.033804,1.343215,-41.951047,0.000840,-0.018355,0.000000,-0.043599,0.019327,0.000000
0.040000,-3.336107,0.303255,-1.478626,0.004500,-0.003804,-0.022935,0.180138,0.004982,0.052887,0.353688,-0.239134,0.202219,51.631677,16.634065,-23.356362,0.000510,-0.018460,0.000000,-0.024494,-0.036619,0.000000
0.050000,-3.336053,0.303218,-1.478852,0.006320,-0.003766,-0.022397,0.186248,0.003415,0.053747,0.835549,-0.093314,-0.010218,45.040159,12.786996,-19.379917,0.000350,-0.019088,0.000000,-0.009564,-0.085591,0.000000
0.060000,-3.335981,0.303180,-1.479073,0.008225,-0.003736,-0.021860,0.196849,0.003115,0.052682,1.254492,0.016606,-0.185380,39.033053,9.437863,-15.885591,0.000319,-0.020172,0.000000,0.001695,-0.128134,-0.000000
0.070000,-3.335889,0.303143,-1.479289,0.010257,-0.003703,-0.021343,0.211338,0.003747,0.050040,1.616210,0.095443,-0.327930,33.580264,6.554513,-12.842143,0.000384,-0.021650,0.000000,0.009762,-0.164791,0.000000
0.080000,-3.335776,0.303106,-1.479500,0.012452,-0.003661,-0.020859,0.229173,0.005024,0.046124,1.926097,0.147696,-0.442223,28.651664,4.104796,-10.218360,0.000514,-0.023467,0.000000,0.015097,-0.196097,0.000000
0.090000,-3.335640,0.303070,-1.479707,0.014841,-0.003603,-0.020420,0.249860,0.006701,0.041195,2.189243,0.177539,-0.532297,24.217165,2.056560,-7.982997,0.000686,-0.025572,0.000000,0.018127,-0.222566,0.000000
0.100000,-3.335479,0.303034,-1.479909,0.017449,-0.003527,-0.020035,0.272958,0.008575,0.035478,2.410440,0.188827,-0.601882,20.246688,0.377655,-6.104801,0.000877,-0.027918,0.000000,0.019251,-0.244694,0.000000
0.110000,-3.335291,0.302999,-1.480107,0.020300,-0.003431,-0.019711,0.298069,0.010478,0.029158,2.594177,0.185092,-0.654393,16.710113,-0.964070,-4.552557,0.001071,-0.030465,0.000000,0.018835,-0.262947,0.000000
0.120000,-3.335073,0.302965,-1.480303,0.023411,-0.003317,-0.019452,0.324841,0.012277,0.022390,2.744642,0.169546,-0.692934,13.577343,-2.000775,-3.295019,0.001254,-0.033177,0.000000,0.017213,-0.277764,0.000000
0.130000,-3.334823,0.302933,-1.480496,0.026797,-0.003186,-0.019263,0.352962,0.013869,0.015299,2.865724,0.145077,-0.720294,10.818286,-2.764607,-2.300939,0.001415,-0.036020,0.000000,0.014683,-0.289553,-0.000000
0.140000,-3.334537,0.302902,-1.480688,0.030470,-0.003040,-0.019146,0.382156,0.015178,0.007984,2.961008,0.114253,-0.738952,8.402817,-3.287696,-1.539141,0.001547,-0.038968,0.000000,0.011513,-0.298688,0.000000
0.150000,-3.334213,0.302872,-1.480879,0.034440,-0.002882,-0.019103,0.412182,0.016154,0.000520,3.033780,0.079323,-0.751077,6.300857,-3.602213,-0.978351,0.001645,-0.041994,0.000000,0.007932,-0.305513,-0.000000
0.160000,-3.333848,0.302844,-1.481070,0.038714,-0.002717,-0.019136,0.442831,0.016765,-0.007038,3.087025,0.042209,-0.758519,4.482345,-3.740335,-0.587260,0.001706,-0.045078,0.000000,0.004140,-0.310339,0.000000
0.170000,-3.333439,0.302818,-1.481262,0.043296,-0.002547,-0.019244,0.473922,0.016998,-0.014650,3.123427,0.004516,-0.762822,2.914190,-3.738894,-0.329919,0.001728,-0.048201,0.000000,0.000299,-0.313442,0.000000
0.180000,-3.332982,0.302793,-1.481455,0.048192,-0.002377,-0.019429,0.505300,0.016855,-0.022294,3.145309,-0.032569,-0.765118,1.514829,-3.712416,-0.091291,0.001712,-0.051347,0.000000,-0.003469,-0.315064,0.000000
0.190000,-3.332475,0.302770,-1.481651,0.053402,-0.002210,-0.019690,0.536829,0.016347,-0.029953,3.153724,-0.069732,-0.764648,0.271994,-3.664589,0.130935,0.001659,-0.054502,0.000000,-0.007234,-0.315324,-0.000000
0.200000,-3.331914,0.302749,-1.481849,0.058929,-0.002050,-0.020028,0.568374,0.015461,-0.037587,3.150749,-0.105860,-0.762499,-0.464831,-3.019654,-0.250581,0.001567,-0.057653,0.000000,-0.010882,-0.314434,0.000000
0.210000,-3.331297,0.302729,-1.482051,0.064770,-0.001901,-0.020442,0.599844,0.014230,-0.045203,3.144427,-0.130125,-0.769659,-0.766447,-1.874886,-1.138345,0.001441,-0.060791,0.000000,-0.013319,-0.313149,0.000000
0.220000,-3.330619,0.302711,-1.482258,0.070925,-0.001765,-0.020932,0.631263,0.012858,-0.052980,3.135420,-0.143358,-0.785266,-1.751944,-2.005702,-0.727484,0.001301,-0.063916,0.000000,-0.014635,-0.311526,0.000000
0.230000,-3.329878,0.302694,-1.482470,0.077395,-0.001644,-0.021501,0.662552,0.011362,-0.060908,3.109388,-0.170239,-0.784209,-3.482112,-3.478901,1.045077,0.001149,-0.067021,0.000000,-0.017323,-0.308284,0.000000
0.240000,-3.329071,0.302678,-1.482688,0.084176,-0.001538,-0.022150,0.693451,0.009453,-0.068664,3.065778,-0.212936,-0.764364,-4.472277,-3.905623,1.748300,0.000955,-0.070082,0.000000,-0.021596,-0.303417,0.000000
0.250000,-3.328195,0.302663,-1.482913,0.091264,-0.001455,-0.022875,0.723868,0.007104,-0.076195,3.019943,-0.248352,-0.749243,-4.512654,-3.041170,1.156901,0.000717,-0.073090,0.000000,-0.025124,-0.298322,0.000000
0.260000,-3.327246,0.302649,-1.483145,0.098654,-0.001396,-0.023674,0.753849,0.004486,-0.083649,2.975525,-0.273760,-0.741226,-4.645191,-2.526775,0.936703,0.000452,-0.076048,0.000000,-0.027634,-0.293339,0.000000
0.270000,-3.326221,0.302635,-1.483386,0.106341,-0.001365,-0.024548,0.783378,0.001628,-0.091020,2.927039,-0.298887,-0.730509,-5.210725,-2.583760,1.239200,0.000164,-0.078956,0.000000,-0.030109,-0.287990,0.000000
0.280000,-3.325119,0.302622,-1.483636,0.114321,-0.001363,-0.025494,0.812390,-0.001492,-0.098259,2.871310,-0.325435,-0.716442,-5.879252,-2.651161,1.490004,-0.000150,-0.081808,0.000000,-0.032721,-0.281965,0.000000
0.290000,-3.323935,0.302608,-1.483896,0.122589,-0.001395,-0.026513,0.840804,-0.004880,-0.105349,2.809454,-0.351911,-0.700709,-6.300822,-2.583676,1.640211,-0.000490,-0.084596,0.000000,-0.035318,-0.275371,-0.000000
0.300000,-3.322667,0.302594,-1.484167,0.131137,-0.001461,-0.027601,0.868579,-0.008530,-0.112273,2.745294,-0.377108,-0.683638,-6.447014,-2.444182,1.768792,-0.000856,-0.087316,0.000000,-0.037782,-0.268590,0.000000
0.310000,-3.321312,0.302579,-1.484448,0.139961,-0.001565,-0.028758,0.895710,-0.012422,-0.119021,2.680514,-0.400794,-0.665333,-6.560466,-2.312840,1.888783,-0.001246,-0.089968,0.000000,-0.040090,-0.261792,0.000000
0.320000,-3.319868,0.302562,-1.484742,0.149052,-0.001709,-0.029982,0.922190,-0.016546,-0.125580,2.614084,-0.423365,-0.645863,-6.819715,-2.209037,1.996327,-0.001658,-0.092552,0.000000,-0.042282,-0.254874,-0.000000
0.330000,-3.318331,0.302545,-1.485048,0.158404,-0.001896,-0.031270,0.947992,-0.020890,-0.131939,2.544119,-0.444975,-0.625406,-7.160562,-2.107541,2.088267,-0.002092,-0.095065,0.000000,-0.044374,-0.247647,0.000000
0.340000,-3.316700,0.302525,-1.485367,0.168011,-0.002127,-0.032621,0.973072,-0.025445,-0.138088,2.470873,-0.465516,-0.604097,-7.372183,-1.989377,2.170937,-0.002546,-0.097505,0.000000,-0.046358,-0.240139,0.000000
0.350000,-3.314971,0.302502,-1.485700,0.177866,-0.002405,-0.034032,0.997409,-0.030200,-0.144021,2.396676,-0.484762,-0.581988,-7.415945,-1.855969,2.246995,-0.003019,-0.099868,0.000000,-0.048210,-0.232580,0.000000
0.360000,-3.313143,0.302476,-1.486048,0.187960,-0.002731,-0.035501,1.021005,-0.035140,-0.149728,2.322554,-0.502635,-0.559157,-7.443140,-1.719569,2.312199,-0.003510,-0.102157,0.000000,-0.049925,-0.225073,-0.000000
0.370000,-3.311212,0.302447,-1.486410,0.198286,-0.003108,-0.037026,1.043860,-0.040253,-0.155204,2.247813,-0.519154,-0.535744,-7.569062,-1.582959,2.361971,-0.004017,-0.104370,0.000000,-0.051505,-0.217546,0.000000
0.380000,-3.309177,0.302414,-1.486788,0.208837,-0.003536,-0.038605,1.065962,-0.045523,-0.160443,2.171173,-0.534294,-0.511918,-7.753430,-1.442064,2.397779,-0.004540,-0.106508,0.000000,-0.052948,-0.209871,-0.000000
0.390000,-3.307035,0.302377,-1.487182,0.219605,-0.004018,-0.040235,1.087284,-0.050939,-0.165442,2.092744,-0.547995,-0.487788,-7.859204,-1.294389,2.425991,-0.005076,-0.108567,0.000000,-0.054250,-0.202057,-0.000000
0.400000,-3.304785,0.302334,-1.487593,0.230583,-0.004555,-0.041914,1.107817,-0.056483,-0.170199,2.013989,-0.560182,-0.463398,-7.860735,-1.140869,2.447965,-0.005625,-0.110549,0.000000,-0.055403,-0.194248,-0.000000
0.410000,-3.302423,0.302286,-1.488021,0.241761,-0.005148,-0.043639,1.127564,-0.062142,-0.174710,1.935530,-0.570813,-0.438829,-7.855973,-0.983110,2.459755,-0.006184,-0.112453,0.000000,-0.056403,-0.186504,0.000000
0.420000,-3.299949,0.302231,-1.488466,0.253134,-0.005798,-0.045408,1.146527,-0.067900,-0.178975,1.856870,-0.579844,-0.414203,-7.919832,-0.819760,2.459018,-0.006753,-0.114279,0.000000,-0.057249,-0.178773,0.000000
0.430000,-3.297361,0.302170,-1.488929,0.264692,-0.006506,-0.047219,1.164701,-0.073739,-0.182994,1.777133,-0.587208,-0.389648,-8.025967,-0.650159,2.447333,-0.007329,-0.116028,0.000000,-0.057932,-0.170966,-0.000000
0.440000,-3.294656,0.302101,-1.489410,0.276428,-0.007273,-0.049068,1.182070,-0.079644,-0.186768,1.696350,-0.592848,-0.365256,-8.084691,-0.476493,2.428156,-0.007912,-0.117699,0.000000,-0.058448,-0.163084,0.000000
0.450000,-3.291832,0.302024,-1.489910,0.288333,-0.008099,-0.050954,1.198628,-0.085596,-0.190299,1.615439,-0.596738,-0.341085,-8.078844,-0.300128,2.402081,-0.008498,-0.119290,0.000000,-0.058796,-0.155215,0.000000
0.460000,-3.288889,0.301939,-1.490429,0.300400,-0.008985,-0.052874,1.214379,-0.091579,-0.193590,1.534773,-0.598850,-0.317215,-8.072115,-0.119600,2.367252,-0.009088,-0.120803,0.000000,-0.058972,-0.147395,0.000000
0.470000,-3.285824,0.301844,-1.490968,0.312621,-0.009930,-0.054826,1.229323,-0.097573,-0.196644,1.453997,-0.599130,-0.293740,-8.113431,0.068078,2.323156,-0.009678,-0.122238,0.000000,-0.058971,-0.139584,-0.000000
0.480000,-3.282637,0.301740,-1.491526,0.324987,-0.010936,-0.056807,1.243459,-0.103561,-0.199465,1.372505,-0.597489,-0.270752,-8.185373,0.262548,2.270784,-0.010267,-0.123595,0.000000,-0.058785,-0.131721,0.000000
0.490000,-3.279324,0.301626,-1.492104,0.337490,-0.012002,-0.058815,1.256774,-0.109523,-0.202059,1.290289,-0.593879,-0.248325,-8.228727,0.459574,2.211330,-0.010853,-0.124873,0.000000,-0.058410,-0.123802,-0.000000
0.500000,-3.275887,0.301500,-1.492702,0.350122,-0.013127,-0.060848,1.269264,-0.115439,-0.204431,1.207930,-0.588297,-0.226525,-8.231522,0.657529,2.145026,-0.011435,-0.126071,0.000000,-0.057845,-0.115883,-0.000000
0.510000,-3.272322,0.301363,-1.493321,0.362875,-0.014310,-0.062904,1.280932,-0.121289,-0.206589,1.125659,-0.580728,-0.205424,-8.235358,0.859171,2.071566,-0.012010,-0.127191,0.000000,-0.057088,-0.107983,0.000000
0.520000,-3.268629,0.301214,-1.493960,0.375741,-0.015552,-0.064980,1.291778,-0.127053,-0.208540,1.043223,-0.571114,-0.185094,-8.273293,1.068053,1.991358,-0.012577,-0.128231,0.000000,-0.056134,-0.100075,0.000000
0.530000,-3.264807,0.301052,-1.494620,0.388711,-0.016851,-0.067074,1.301797,-0.132711,-0.210291,0.960193,-0.559367,-0.165597,-8.333494,1.283337,1.904815,-0.013133,-0.129192,0.000000,-0.054974,-0.092115,0.000000
0.540000,-3.260855,0.300877,-1.495302,0.401777,-0.018207,-0.069186,1.310981,-0.138241,-0.211852,0.876553,-0.545447,-0.146997,-8.375156,1.500002,1.812033,-0.013677,-0.130074,0.000000,-0.053605,-0.084098,0.000000
0.550000,-3.256772,0.300688,-1.496004,0.414931,-0.019616,-0.071312,1.319328,-0.143620,-0.213231,0.792690,-0.529367,-0.129356,-8.390990,1.716230,1.713945,-0.014205,-0.130875,0.000000,-0.052026,-0.076061,0.000000
0.560000,-3.252556,0.300485,-1.496728,0.428163,-0.021079,-0.073450,1.326835,-0.148828,-0.214439,0.708733,-0.511122,-0.112718,-8.409041,1.935208,1.610921,-0.014717,-0.131595,0.000000,-0.050238,-0.068013,0.000000
0.570000,-3.248208,0.300266,-1.497473,0.441467,-0.022593,-0.075600,1.333502,-0.153843,-0.215485,0.624509,-0.490663,-0.097138,-8.447906,2.160841,1.501281,-0.015210,-0.132235,0.000000,-0.048234,-0.059936,0.000000
0.580000,-3.243727,0.300033,-1.498240,0.454834,-0.024156,-0.077760,1.339325,-0.158641,-0.216382,0.539775,-0.467906,-0.082693,-8.499226,2.392034,1.385067,-0.015682,-0.132794,0.000000,-0.046007,-0.051803,0.000000
0.590000,-3.239112,0.299783,-1.499028,0.468254,-0.025766,-0.079928,1.344298,-0.163201,-0.217139,0.454525,-0.442822,-0.069436,-8.539885,2.623196,1.265408,-0.016130,-0.133271,0.000000,-0.043553,-0.043611,0.000000
0.600000,-3.234362,0.299517,-1.499838,0.481719,-0.027420,-0.082103,1.348416,-0.167498,-0.217770,0.368977,-0.415442,-0.057385,-8.564209,2.852711,1.144103,-0.016553,-0.133666,0.000000,-0.040875,-0.035381,0.000000
0.610000,-3.229477,0.299235,-1.500670,0.495222,-0.029116,-0.084283,1.351677,-0.171509,-0.218287,0.283240,-0.385768,-0.046554,-8.587748,3.084014,1.019417,-0.016948,-0.133979,0.000000,-0.037972,-0.027122,0.000000
0.620000,-3.224458,0.298935,-1.501524,0.508753,-0.030850,-0.086468,1.354081,-0.175213,-0.218701,0.197223,-0.353761,-0.036996,-8.625210,3.320136,0.887911,-0.017312,-0.134209,0.000000,-0.034839,-0.018822,0.000000
0.630000,-3.219302,0.298618,-1.502400,0.522304,-0.032620,-0.088657,1.355622,-0.178585,-0.219027,0.110736,-0.319365,-0.028796,-8.671689,3.559967,0.750155,-0.017644,-0.134356,0.000000,-0.031472,-0.010461,0.000000
0.640000,-3.214011,0.298283,-1.503297,0.535865,-0.034422,-0.090849,1.356295,-0.181600,-0.219277,0.023789,-0.282562,-0.021993,-8.707773,3.798952,0.611692,-0.017942,-0.134418,0.000000,-0.027866,-0.002038,-0.000000
0.650000,-3.208585,0.297929,-1.504217,0.549430,-0.036252,-0.093043,1.356098,-0.184236,-0.219467,-0.063419,-0.243386,-0.016562,-8.729865,4.034212,0.475959,-0.018202,-0.134396,0.000000,-0.024026,0.006428,0.000000
0.660000,-3.203023,0.297558,-1.505158,0.562987,-0.038106,-0.095238,1.355027,-0.186468,-0.219608,-0.150809,-0.201878,-0.012474,-8.750482,4.268482,0.339602,-0.018422,-0.134290,0.000000,-0.019954,0.014929,0.000000
0.670000,-3.197325,0.297167,-1.506121,0.576530,-0.039981,-0.097435,1.353081,-0.188273,-0.219716,-0.238429,-0.158016,-0.009770,-8.776725,4.508486,0.195061,-0.018601,-0.134098,0.000000,-0.015649,0.023472,0.000000
0.680000,-3.191492,0.296758,-1.507107,0.590049,-0.041872,-0.099633,1.350258,-0.189628,-0.219804,-0.326343,-0.111708,-0.008573,-8.803987,4.753121,0.043387,-0.018735,-0.133820,0.000000,-0.011099,0.032066,0.000000
0.690000,-3.185524,0.296330,-1.508114,0.603535,-0.043774,-0.101831,1.346555,-0.190508,-0.219888,-0.414509,-0.062954,-0.008903,-8.822579,4.992575,-0.104233,-0.018823,-0.133456,0.000000,-0.006305,0.040705,-0.000000
0.700000,-3.179422,0.295883,-1.509143,0.616980,-0.045682,-0.104030,1.341968,-0.190887,-0.219982,-0.502795,-0.011857,-0.010658,-8.831639,5.225415,-0.243519,-0.018861,-0.133006,0.000000,-0.001276,0.049378,0.000000
0.710000,-3.173185,0.295416,-1.510195,0.630375,-0.047592,-0.106231,1.336499,-0.190745,-0.220101,-0.591141,0.041554,-0.013773,-8.836787,5.457635,-0.381430,-0.018848,-0.132468,0.000000,0.003985,0.058078,0.000000
0.720000,-3.166814,0.294931,-1.511268,0.643710,-0.049497,-0.108432,1.330145,-0.190056,-0.220257,-0.679530,0.097296,-0.018286,-8.838220,5.690178,-0.526591,-0.018782,-0.131844,0.000000,0.009481,0.066803,-0.000000
0.730000,-3.160310,0.294426,-1.512363,0.656978,-0.051393,-0.110636,1.322908,-0.188799,-0.220466,-0.767906,0.155358,-0.024305,-8.833181,5.920561,-0.676734,-0.018659,-0.131132,0.000000,0.015210,0.075549,-0.000000
0.740000,-3.153675,0.293903,-1.513481,0.670168,-0.053273,-0.112842,1.314787,-0.186949,-0.220744,-0.856194,0.215707,-0.031821,-8.820768,6.147043,-0.819171,-0.018477,-0.130333,0.000000,0.021169,0.084310,-0.000000
0.750000,-3.146907,0.293361,-1.514620,0.683273,-0.055132,-0.115051,1.305784,-0.184485,-0.221103,-0.944321,0.278299,-0.040688,-8.801468,6.368405,-0.948307,-0.018235,-0.129446,0.000000,0.027355,0.093074,-0.000000
0.760000,-3.140009,0.292800,-1.515782,0.696284,-0.056963,-0.117264,1.295901,-0.181383,-0.221557,-1.032223,0.343075,-0.050787,-8.774874,6.585095,-1.071932,-0.017930,-0.128471,0.000000,0.033762,0.101836,-0.000000
0.770000,-3.132981,0.292222,-1.516965,0.709191,-0.058759,-0.119482,1.285140,-0.177623,-0.222119,-1.119819,0.410001,-0.062127,-8.738288,6.799554,-1.202104,-0.017560,-0.127409,0.000000,0.040385,0.110585,0.000000
0.780000,-3.125825,0.291625,-1.518171,0.721987,-0.060515,-0.121706,1.273505,-0.173183,-0.222800,-1.206989,0.479067,-0.074829,-8.690668,7.011367,-1.336148,-0.017123,-0.126259,0.000000,0.047224,0.119311,0.000000
0.790000,-3.118542,0.291011,-1.519400,0.734661,-0.062223,-0.123938,1.261000,-0.168042,-0.223615,-1.293632,0.550228,-0.088850,-8.634622,7.216101,-1.456358,-0.016616,-0.125022,0.000000,0.054275,0.128003,0.000000
0.800000,-3.111132,0.290381,-1.520650,0.747207,-0.063876,-0.126179,1.247632,-0.162179,-0.224577,-1.379682,0.623389,-0.103956,-8.572721,7.411214,-1.556639,-0.016037,-0.123698,0.000000,0.061527,0.136651,0.000000
0.810000,-3.103598,0.289734,-1.521923,0.759614,-0.065467,-0.128429,1.233406,-0.155574,-0.225694,-1.465086,0.698452,-0.119983,-8.502094,7.599036,-1.647835,-0.015385,-0.122289,0.000000,0.068970,0.145246,0.000000
0.820000,-3.095940,0.289071,-1.523219,0.771875,-0.066987,-0.130692,1.218330,-0.148210,-0.226976,-1.549723,0.775369,-0.136913,-8.414188,7.784290,-1.741770,-0.014658,-0.120793,0.000000,0.076598,0.153775,-0.000000
0.830000,-3.088160,0.288394,-1.524537,0.783981,-0.068431,-0.132969,1.202412,-0.140067,-0.228433,-1.633370,0.854138,-0.154818,-8.308788,7.965561,-1.834135,-0.013853,-0.119213,0.000000,0.084411,0.162216,-0.000000
0.840000,-3.080260,0.287703,-1.525878,0.795923,-0.069789,-0.135261,1.185663,-0.131127,-0.230073,-1.715899,0.934680,-0.173596,-8.196376,8.135410,-1.907470,-0.012969,-0.117549,0.000000,0.092400,0.170554,0.000000
0.850000,-3.072242,0.286998,-1.527242,0.807694,-0.071053,-0.137570,1.168094,-0.121373,-0.231904,-1.797298,1.016846,-0.192967,-8.079859,8.293548,-1.957923,-0.012005,-0.115802,0.000000,0.100549,0.178783,0.000000
0.860000,-3.064106,0.286282,-1.528629,0.819285,-0.072216,-0.139899,1.149717,-0.110790,-0.233932,-1.877496,1.100551,-0.212754,-7.951356,8.444009,-1.995577,-0.010959,-0.113973,0.000000,0.108847,0.186893,0.000000
0.870000,-3.055856,0.285554,-1.530040,0.830688,-0.073269,-0.142249,1.130544,-0.099362,-0.236160,-1.956325,1.185726,-0.232879,-7.803102,8.584355,-2.025444,-0.009828,-0.112063,0.000000,0.117288,0.194865,0.000000
0.880000,-3.047492,0.284816,-1.531474,0.841896,-0.074203,-0.144622,1.110590,-0.087075,-0.238590,-2.033558,1.272239,-0.253263,-7.636778,8.712382,-2.042685,-0.008613,-0.110075,0.000000,0.125857,0.202675,0.000000
0.890000,-3.039018,0.284070,-1.532933,0.852900,-0.075011,-0.147021,1.089873,-0.073917,-0.241225,-2.109060,1.359974,-0.273733,-7.461580,8.830547,-2.038906,-0.007311,-0.108010,0.000000,0.134541,0.210306,0.000000
0.900000,-3.030434,0.283316,-1.534415,0.863693,-0.075682,-0.149447,1.068409,-0.059876,-0.244064,-2.182790,1.448849,-0.294041,-7.280342,8.938590,-2.013278,-0.005922,-0.105869,0.000000,0.143330,0.217750,0.000000
0.910000,-3.021744,0.282556,-1.535922,0.874268,-0.076208,-0.151902,1.046217,-0.044940,-0.247106,-2.254667,1.538746,-0.313998,-7.086303,9.033883,-1.969364,-0.004445,-0.103655,0.000000,0.152211,0.224997,-0.000000
0.920000,-3.012949,0.281792,-1.537453,0.884618,-0.076581,-0.154389,1.023316,-0.029101,-0.250344,-2.324516,1.629527,-0.333428,-6.871162,9.116363,-1.905074,-0.002878,-0.101369,0.000000,0.161170,0.232027,-0.000000
0.930000,-3.004052,0.281025,-1.539009,0.894735,-0.076790,-0.156909,0.999727,-0.012350,-0.253774,-2.392091,1.721073,-0.352100,-6.636410,9.186195,-1.816831,-0.001221,-0.099014,0.000000,0.170193,0.238812,-0.000000
0.940000,-2.995054,0.280256,-1.540591,0.904612,-0.076828,-0.159464,0.975474,0.005320,-0.257386,-2.457244,1.813251,-0.369765,-6.392476,9.241994,-1.705377,0.000526,-0.096593,0.000000,0.179265,0.245335,0.000000
0.950000,-2.985959,0.279488,-1.542199,0.914244,-0.076684,-0.162057,0.950582,0.023915,-0.261170,-2.519940,1.905913,-0.386207,-6.141887,9.283362,-1.575414,0.002364,-0.094108,0.000000,0.188371,0.251591,0.000000
0.960000,-2.976770,0.278722,-1.543832,0.923624,-0.076349,-0.164688,0.925075,0.043439,-0.265110,-2.580082,1.998918,-0.401273,-5.877250,9.310329,-1.424014,0.004293,-0.091561,0.000000,0.197497,0.257568,-0.000000
0.970000,-2.967487,0.277961,-1.545492,0.932746,-0.075815,-0.167359,0.898980,0.063894,-0.269195,-2.637485,2.092119,-0.414687,-5.592123,9.321441,-1.234201,0.006314,-0.088956,0.000000,0.206628,0.263246,0.000000
0.980000,-2.958115,0.277206,-1.547179,0.941603,-0.075071,-0.170072,0.872325,0.085281,-0.273404,-2.691924,2.185347,-0.425957,-5.288716,9.315944,-1.003967,0.008426,-0.086296,0.000000,0.215745,0.268601,0.000000
0.990000,-2.948655,0.276460,-1.548894,0.950192,-0.074109,-0.172827,0.845142,0.107601,-0.277714,-2.743259,2.278438,-0.434767,-4.975042,9.294602,-0.754272,0.010629,-0.083584,0.000000,0.224834,0.273615,0.000000
1.000000,-2.939111,0.275724,-1.550636,0.958506,-0.072919,-0.175626,0.817460,0.130850,-0.282100,-2.791425,2.371239,-0.441043,-4.651388,9.256850,-0.493474,0.012923,-0.080824,0.000000,0.233880,0.278286,-0.000000
1.010000,-2.929485,0.275001,-1.552406,0.966541,-0.071492,-0.178469,0.789313,0.155025,-0.286535,-2.836287,2.463575,-0.444636,-4.312326,9.201277,-0.205200,0.015306,-0.078018,0.000000,0.242867,0.282599,0.000000
1.020000,-2.919780,0.274294,-1.554205,0.974293,-0.069819,-0.181357,0.760734,0.180121,-0.290992,-2.877672,2.555265,-0.445147,-3.957702,9.127803,0.133841,0.017780,-0.075171,0.000000,0.251778,0.286538,-0.000000
1.030000,-2.909999,0.273605,-1.556033,0.981756,-0.067890,-0.184289,0.731760,0.206131,-0.295438,-2.915441,2.646131,-0.441959,-3.589747,9.036224,0.522245,0.020342,-0.072286,0.000000,0.260598,0.290088,0.000000
1.040000,-2.900145,0.272936,-1.557891,0.988928,-0.065696,-0.187265,0.702426,0.233044,-0.299831,-2.949467,2.735989,-0.434702,-3.208013,8.925295,0.930555,0.022992,-0.069368,0.000000,0.269313,0.293236,0.000000
1.050000,-2.890220,0.272291,-1.559779,0.995804,-0.063229,-0.190286,0.672770,0.260850,-0.304132,-2.979601,2.824637,-0.423348,-2.809559,8.794316,1.339516,0.025728,-0.066420,0.000000,0.277906,0.295974,0.000000
1.060000,-2.880229,0.271672,-1.561697,1.002383,-0.060479,-0.193348,0.642834,0.289537,-0.308298,-3.005658,2.911875,-0.407911,-2.394934,8.643244,1.771327,0.028550,-0.063447,0.000000,0.286361,0.298287,0.000000
1.070000,-2.870173,0.271081,-1.563646,1.008661,-0.057438,-0.196452,0.612657,0.319088,-0.312290,-3.027500,2.997502,-0.387922,-1.971668,8.471733,2.279459,0.031455,-0.060452,0.000000,0.294662,0.300163,0.000000
1.080000,-2.860056,0.270523,-1.565626,1.014636,-0.054098,-0.199594,0.582284,0.349487,-0.316057,-3.045091,3.081310,-0.362322,-1.540183,8.279154,2.861738,0.034443,-0.057440,0.000000,0.302799,0.301599,0.000000
1.090000,-2.849880,0.269999,-1.567638,1.020307,-0.050449,-0.202773,0.551755,0.380714,-0.319537,-3.058304,3.163085,-0.330687,-1.089906,8.064729,3.446208,0.037511,-0.054416,0.000000,0.310758,0.302586,0.000000
1.100000,-2.839649,0.269514,-1.569681,1.025671,-0.046483,-0.205985,0.521118,0.412748,-0.322671,-3.066889,3.242605,-0.293398,-0.616724,7.827321,4.003270,0.040658,-0.051384,0.000000,0.318522,0.303109,0.000000
1.110000,-2.829367,0.269070,-1.571757,1.030729,-0.042194,-0.209226,0.490418,0.445566,-0.325405,-3.070638,3.319632,-0.250622,-0.127860,7.566591,4.583116,0.043882,-0.048349,0.000000,0.326076,0.303155,-0.000000
1.120000,-2.819035,0.268670,-1.573866,1.035480,-0.037572,-0.212493,0.459705,0.479141,-0.327683,-3.069447,3.393937,-0.201736,0.367518,7.283717,5.257701,0.047180,-0.045315,0.000000,0.333407,0.302718,0.000000
1.130000,-2.808657,0.268318,-1.576007,1.039923,-0.032611,-0.215780,0.429029,0.513445,-0.329439,-3.063288,3.465306,-0.145468,0.871688,6.978119,6.014500,0.050550,-0.042288,0.000000,0.340509,0.301796,0.000000
1.140000,-2.798236,0.268018,-1.578181,1.044060,-0.027303,-0.219082,0.398439,0.548447,-0.330592,-3.052013,3.533499,-0.081446,1.397078,6.646885,6.756502,0.053990,-0.039271,0.000000,0.347372,0.300383,-0.000000
1.150000,-2.787776,0.267772,-1.580389,1.047892,-0.021642,-0.222392,0.367988,0.584115,-0.331068,-3.035346,3.598244,-0.010338,1.945952,6.289375,7.452166,0.057498,-0.036271,0.000000,0.353979,0.298462,0.000000
1.160000,-2.777278,0.267585,-1.582629,1.051420,-0.015621,-0.225703,0.337732,0.620412,-0.330799,-3.013094,3.659286,0.067598,2.510306,5.906607,8.166479,0.061070,-0.033292,0.000000,0.360312,0.296022,-0.000000
1.170000,-2.766747,0.267460,-1.584903,1.054647,-0.009234,-0.229008,0.307727,0.657301,-0.329716,-2.985140,3.716376,0.152992,3.086278,5.497711,8.971511,0.064704,-0.030339,0.000000,0.366365,0.293058,0.000000
1.180000,-2.756186,0.267400,-1.587209,1.057575,-0.002475,-0.232297,0.278029,0.694740,-0.327739,-2.951368,3.769241,0.247028,3.677057,5.060970,9.848792,0.068397,-0.027418,0.000000,0.372131,0.289562,0.000000
1.190000,-2.745596,0.267410,-1.589549,1.060207,0.004661,-0.235562,0.248699,0.732685,-0.324776,-2.911599,3.817595,0.349968,4.287872,4.596526,10.699681,0.072147,-0.024534,0.000000,0.377600,0.285523,-0.000000
1.200000,-2.734981,0.267494,-1.591921,1.062549,0.012179,-0.238793,0.219797,0.771092,-0.320740,-2.865611,3.861171,0.461021,4.918097,4.108276,11.486820,0.075950,-0.021693,0.000000,0.382756,0.280931,0.000000
1.210000,-2.724345,0.267654,-1.594325,1.064603,0.020083,-0.241977,0.191387,0.809909,-0.315555,-2.813237,3.899761,0.579704,5.564972,3.594824,12.274493,0.079802,-0.018899,0.000000,0.387590,0.275774,0.000000
1.220000,-2.713689,0.267895,-1.596760,1.066376,0.028377,-0.245104,0.163533,0.849087,-0.309146,-2.754311,3.933068,0.706511,6.231793,3.043143,13.148937,0.083702,-0.016159,0.000000,0.392090,0.270040,0.000000
1.230000,-2.703017,0.268221,-1.599227,1.067874,0.037065,-0.248160,0.136301,0.888570,-0.301425,-2.688601,3.960624,0.842683,6.923207,2.452458,14.090284,0.087645,-0.013479,0.000000,0.396239,0.263710,0.000000
1.240000,-2.692332,0.268637,-1.601723,1.069102,0.046149,-0.251132,0.109761,0.928299,-0.292292,-2.615847,3.982117,0.988317,7.634308,1.839493,14.977544,0.091627,-0.010864,0.000000,0.400026,0.256761,0.000000
1.250000,-2.681635,0.269144,-1.604249,1.070069,0.055631,-0.254006,0.083984,0.968213,-0.281659,-2.535915,3.997414,1.142234,8.341741,1.206302,15.773889,0.095646,-0.008322,0.000000,0.403442,0.249185,0.000000
1.260000,-2.670930,0.269749,-1.606804,1.070782,0.065513,-0.256765,0.059042,1.008248,-0.269448,-2.449012,4.006243,1.303795,9.051169,0.540784,16.556164,0.099697,-0.005858,0.000000,0.406473,0.241002,0.000000
1.270000,-2.660220,0.270455,-1.609385,1.071250,0.075796,-0.259395,0.035004,1.048337,-0.255583,-2.354892,4.008229,1.473357,9.829612,-0.161056,17.399329,0.103776,-0.003478,0.000000,0.409101,0.232187,0.000000
1.280000,-2.649505,0.271265,-1.611991,1.071482,0.086480,-0.261877,0.011944,1.088412,-0.239980,-2.252420,4.003022,1.651781,10.680119,-0.898626,18.278097,0.107879,-0.001189,0.000000,0.411315,0.222624,-0.000000
1.290000,-2.638790,0.272184,-1.614622,1.071489,0.097564,-0.264194,-0.010045,1.128398,-0.222547,-2.141289,3.990257,1.838919,11.509985,-1.667528,19.084649,0.112003,0.001001,0.000000,0.413097,0.212279,0.000000
1.300000,-2.628076,0.273216,-1.617275,1.071281,0.109048,-0.266328,-0.030881,1.168217,-0.203202,-2.022221,3.969671,2.033474,12.291267,-2.445896,19.774180,0.116142,0.003084,0.000000,0.414421,0.201215,0.000000
1.310000,-2.617364,0.274365,-1.619949,1.070871,0.120928,-0.268259,-0.050489,1.207791,-0.181878,-1.895464,3.941339,2.234403,13.087417,-3.238798,20.412915,0.120292,0.005053,0.000000,0.415295,0.189447,0.000000
1.320000,-2.606658,0.275635,-1.622640,1.070271,0.133203,-0.269966,-0.068791,1.247044,-0.158514,-1.760472,3.904895,2.441733,13.957462,-4.111164,21.098287,0.124449,0.006901,0.000000,0.415696,0.176906,0.000000
1.330000,-2.595959,0.277029,-1.625348,1.069495,0.145869,-0.271429,-0.085699,1.285889,-0.133043,-1.616315,3.859115,2.656368,14.886032,-5.066847,21.799877,0.128607,0.008619,0.000000,0.415524,0.163486,0.000000
1.340000,-2.585268,0.278552,-1.628069,1.068557,0.158921,-0.272627,-0.101117,1.324226,-0.105387,-1.462752,3.803558,2.877730,15.793566,-6.015807,22.376785,0.132760,0.010198,0.000000,0.414739,0.149143,0.000000
1.350000,-2.574588,0.280208,-1.630801,1.067473,0.172354,-0.273537,-0.114954,1.361960,-0.075488,-1.300443,3.738799,3.103904,16.630041,-6.925578,22.836763,0.136903,0.011628,0.000000,0.413379,0.133919,-0.000000
1.360000,-2.563919,0.281999,-1.633540,1.066258,0.186160,-0.274136,-0.127126,1.399002,-0.043309,-1.130151,3.665047,3.334465,17.449479,-7.858208,23.261588,0.141029,0.012901,0.000000,0.411463,0.117862,0.000000
1.370000,-2.553263,0.283931,-1.636283,1.064931,0.200334,-0.274403,-0.137557,1.435261,-0.008799,-0.951454,3.581635,3.569136,18.382007,-8.886221,23.583071,0.145133,0.014009,0.000000,0.408922,0.100902,0.000000
1.380000,-2.542620,0.286006,-1.639028,1.063507,0.214866,-0.274312,-0.146155,1.470635,0.028074,-0.762511,3.487322,3.806127,19.416995,-9.993171,23.757178,0.149208,0.014940,0.000000,0.405604,0.082815,0.000000
1.390000,-2.531993,0.288228,-1.641770,1.062007,0.229746,-0.273841,-0.152807,1.505008,0.067323,-0.563114,3.381772,4.044279,20.372692,-11.081193,23.871348,0.153246,0.015683,0.000000,0.401450,0.063540,0.000000
1.400000,-2.521380,0.290601,-1.644505,1.060451,0.244966,-0.272966,-0.157417,1.538270,0.108960,-0.355057,3.265698,4.283554,21.183696,-12.113230,23.963093,0.157238,0.016225,0.000000,0.396517,0.043214,0.000000
1.410000,-2.510784,0.293128,-1.647229,1.058859,0.260512,-0.271662,-0.159908,1.570322,0.152994,-0.139440,3.139507,4.523541,21.970669,-13.154396,23.959033,0.161177,0.016557,0.000000,0.390825,0.021902,-0.000000
1.420000,-2.500203,0.295811,-1.649938,1.057253,0.276372,-0.269906,-0.160206,1.601061,0.199431,0.084357,3.002611,4.762734,22.876972,-14.292588,23.759500,0.165055,0.016668,0.000000,0.384272,-0.000509,0.000000
1.430000,-2.489638,0.298655,-1.652627,1.055655,0.292533,-0.267673,-0.158221,1.630374,0.248249,0.318099,2.853655,4.998731,23.860063,-15.509375,23.371249,0.168863,0.016546,0.000000,0.376653,-0.024260,0.000000
1.440000,-2.479090,0.301662,-1.655291,1.054089,0.308980,-0.264941,-0.153844,1.658134,0.299405,0.561558,2.692423,5.230159,24.722807,-16.683006,22.914247,0.172589,0.016175,0.000000,0.367887,-0.049392,-0.000000
1.450000,-2.468557,0.304835,-1.657926,1.052578,0.325696,-0.261685,-0.146990,1.684222,0.352852,0.812556,2.519995,5.457016,25.445382,-17.772227,22.450477,0.176221,0.015541,0.000000,0.358042,-0.075741,0.000000
1.460000,-2.458038,0.308176,-1.660525,1.051149,0.342664,-0.257884,-0.137593,1.708534,0.408546,1.070466,2.336978,5.679169,26.150639,-18.856067,21.886703,0.179750,0.014634,0.000000,0.347134,-0.103307,0.000000
1.470000,-2.447534,0.311688,-1.663084,1.049826,0.359866,-0.253514,-0.125581,1.730962,0.466436,1.335568,2.142874,5.894750,26.848210,-20.024641,21.043035,0.183164,0.013440,0.000000,0.335026,-0.132187,0.000000
1.480000,-2.437042,0.315373,-1.665595,1.048637,0.377283,-0.248555,-0.110881,1.751391,0.526441,1.607430,1.936486,6.100030,27.485043,-21.251568,19.925539,0.186451,0.011943,0.000000,0.321463,-0.162412,0.000000
1.490000,-2.426561,0.319234,-1.668055,1.047609,0.394894,-0.242986,-0.093432,1.769692,0.588436,1.885269,1.717843,6.293261,28.045530,-22.410302,18.769309,0.189593,0.010132,0.000000,0.306340,-0.193967,0.000000
1.500000,-2.416090,0.323271,-1.670455,1.046768,0.412677,-0.236786,-0.073176,1.785748,0.652306,2.168340,1.488280,6.475416,28.545592,-23.467683,17.700275,0.192577,0.007990,0.000000,0.289735,-0.226841,0.000000
1.510000,-2.405626,0.327487,-1.672790,1.046145,0.430609,-0.229939,-0.050065,1.799457,0.717945,2.456181,1.248489,6.647267,28.982069,-24.502592,16.547619,0.195387,0.005506,0.000000,0.271659,-0.261049,-0.000000
1.520000,-2.395167,0.331883,-1.675054,1.045767,0.448666,-0.222428,-0.024052,1.810718,0.785251,2.747982,0.998228,6.806368,29.299631,-25.577365,14.979330,0.198009,0.002665,0.000000,0.251948,-0.296571,0.000000
1.530000,-2.384710,0.336460,-1.677239,1.045664,0.466824,-0.214234,0.004895,1.819422,0.854072,3.042174,0.736942,6.946853,29.481090,-26.662049,13.030659,0.200425,-0.000547,0.000000,0.230322,-0.333298,0.000000
1.540000,-2.374253,0.341220,-1.679339,1.045865,0.485055,-0.205346,0.036791,1.825457,0.924188,3.337604,0.464987,7.066981,29.590345,-27.665503,11.146876,0.202614,-0.004140,0.000000,0.206668,-0.371146,0.000000
1.550000,-2.363793,0.346162,-1.681346,1.046400,0.503333,-0.195751,0.071647,1.828722,0.995412,3.633981,0.183632,7.169791,29.688283,-28.562764,9.451910,0.204557,-0.008128,0.000000,0.181079,-0.410120,0.000000
1.560000,-2.353325,0.351286,-1.683254,1.047298,0.521629,-0.185438,0.109471,1.829129,1.067584,3.931369,-0.106268,7.256020,29.717021,-29.406210,7.642893,0.206234,-0.012521,0.000000,0.153558,-0.450262,0.000000
1.570000,-2.342847,0.356594,-1.685055,1.048589,0.539915,-0.174399,0.150274,1.826596,1.140532,4.228321,-0.404493,7.322649,29.493830,-30.237998,5.446499,0.207626,-0.017332,0.000000,0.123950,-0.491430,0.000000
1.580000,-2.332354,0.362085,-1.686742,1.050303,0.558161,-0.162627,0.194037,1.821039,1.214037,4.521246,-0.711028,7.364950,29.016181,-31.029789,2.953196,0.208710,-0.022569,0.000000,0.092034,-0.533208,-0.000000
1.590000,-2.321841,0.367757,-1.688307,1.052470,0.576336,-0.150118,0.240699,1.812376,1.287831,4.808645,-1.025088,7.381712,28.522363,-31.715032,0.526395,0.209463,-0.028236,0.000000,0.057754,-0.575389,-0.000000
1.600000,-2.311304,0.373611,-1.689744,1.055117,0.594409,-0.136871,0.290210,1.800538,1.361671,5.091693,-1.345329,7.375477,28.100280,-32.310319,-1.722424,0.209862,-0.034338,0.000000,0.021215,-0.618065,0.000000
1.610000,-2.300739,0.379645,-1.691045,1.058274,0.612347,-0.122885,0.342533,1.785469,1.435341,5.370650,-1.671295,7.347264,27.577513,-32.847100,-4.030774,0.209884,-0.040878,0.000000,-0.017603,-0.661214,-0.000000
1.620000,-2.290139,0.385858,-1.692202,1.061968,0.630118,-0.108164,0.397623,1.767112,1.508616,5.643243,-2.002271,7.294862,26.733279,-33.246473,-6.655962,0.209506,-0.047862,0.000000,-0.058755,-0.704485,0.000000
1.630000,-2.279499,0.392248,-1.693208,1.066227,0.647689,-0.092713,0.455398,1.745424,1.581238,5.905316,-2.336224,7.214145,25.608509,-33.477844,-9.517028,0.208704,-0.055286,0.000000,-0.102171,-0.747247,-0.000000
1.640000,-2.268814,0.398812,-1.694056,1.071076,0.665026,-0.076539,0.515729,1.720387,1.652899,6.155413,-2.671828,7.104521,24.490070,-33.640667,-12.258292,0.207458,-0.063141,0.000000,-0.147754,-0.789158,0.000000
1.650000,-2.258078,0.405548,-1.694739,1.076541,0.682097,-0.059655,0.578506,1.691987,1.723328,6.395117,-3.009038,6.968979,23.461217,-33.802373,-14.814170,0.205745,-0.071417,0.000000,-0.195447,-0.830244,0.000000
1.660000,-2.247283,0.412454,-1.695249,1.082646,0.698866,-0.042072,0.643632,1.660206,1.792279,6.624638,-3.347875,6.808238,22.324188,-33.880462,-17.406479,0.203545,-0.080104,0.000000,-0.245231,-0.870343,0.000000
1.670000,-2.236425,0.419526,-1.695580,1.089414,0.715301,-0.023809,0.710999,1.625030,1.859493,6.841601,-3.686647,6.620849,20.878379,-33.686187,-20.137314,0.200836,-0.089191,0.000000,-0.296905,-0.908933,0.000000
1.680000,-2.225495,0.426760,-1.695725,1.096866,0.731367,-0.004883,0.780464,1.586473,1.924696,7.042205,-4.021599,6.405492,19.178914,-33.223890,-22.912103,0.197603,-0.098656,0.000000,-0.349966,-0.945278,0.000000
1.690000,-2.214487,0.434153,-1.695678,1.105023,0.747030,0.014685,0.851843,1.544598,1.987603,7.225179,-4.351125,6.162607,17.490264,-32.738695,-25.582100,0.193833,-0.108470,0.000000,-0.404079,-0.978932,0.000000
1.700000,-2.203395,0.441701,-1.695431,1.113903,0.762259,0.034869,0.924967,1.499451,2.047948,7.392011,-4.676373,5.893850,15.893722,-32.330884,-28.162210,0.189518,-0.118606,0.000000,-0.459189,-1.009800,0.000000
1.710000,-2.192209,0.449398,-1.694980,1.123523,0.777019,0.055644,0.999683,1.451070,2.105480,7.543054,-4.997742,5.599363,14.212772,-31.823076,-30.725049,0.184647,-0.129032,0.000000,-0.515154,-1.037627,-0.000000
1.720000,-2.180924,0.457241,-1.694319,1.133897,0.791280,0.076979,1.075828,1.399496,2.159935,7.676266,-5.312835,5.279349,12.255936,-30.957578,-33.176438,0.179213,-0.139714,0.000000,-0.571437,-1.061850,-0.000000
1.730000,-2.169531,0.465224,-1.693441,1.145039,0.805009,0.098843,1.153208,1.344813,2.211067,7.788172,-5.616894,4.935834,10.079795,-29.773345,-35.462044,0.173217,-0.150610,0.000000,-0.627112,-1.081751,0.000000
1.740000,-2.158023,0.473341,-1.692342,1.156961,0.818176,0.121200,1.231592,1.287158,2.258652,7.877862,-5.908301,4.570108,7.944417,-28.609430,-37.688895,0.166671,-0.161672,0.000000,-0.681629,-1.096942,0.000000
1.750000,-2.146392,0.481587,-1.691017,1.169671,0.830752,0.144016,1.310766,1.226647,2.302469,7.947061,-6.189082,4.182056,5.902515,-27.575467,-39.914835,0.159585,-0.172851,0.000000,-0.734919,-1.107360,0.000000
1.760000,-2.134630,0.489956,-1.689461,1.183176,0.842709,0.167250,1.390533,1.163377,2.342293,7.995912,-6.459811,3.771811,3.788080,-26.437869,-42.039694,0.151974,-0.184098,0.000000,-0.786710,-1.112773,0.000000
1.770000,-2.122729,0.498442,-1.687672,1.197482,0.854020,0.190862,1.470684,1.097451,2.377905,8.022822,-6.717840,3.341263,1.504932,-24.933488,-43.883301,0.143854,-0.195359,0.000000,-0.836263,-1.112802,0.000000
1.780000,-2.110680,0.507037,-1.685644,1.212590,0.864658,0.214808,1.550989,1.029020,2.409118,8.026011,-6.958481,2.894145,-0.888395,-23.128364,-45.441052,0.135253,-0.206579,0.000000,-0.882538,-1.107142,0.000000
1.790000,-2.098477,0.515735,-1.683376,1.228501,0.874600,0.239044,1.631204,0.958282,2.435788,8.005054,-7.180407,2.432441,-3.255796,-21.372761,-46.929102,0.126209,-0.217698,0.000000,-0.924990,-1.095685,-0.000000
1.800000,-2.086110,0.524529,-1.680863,1.245214,0.883824,0.263524,1.711090,0.885412,2.457767,7.960895,-7.385936,1.955563,-5.543304,-19.761589,-48.479634,0.116759,-0.228660,0.000000,-0.963622,-1.078480,0.000000
1.810000,-2.073573,0.533411,-1.678105,1.262723,0.892309,0.288199,1.790422,0.810563,2.474899,7.894188,-7.575639,1.462849,-7.830283,-18.062802,-49.919195,0.106943,-0.239408,0.000000,-0.998241,-1.055582,0.000000
1.820000,-2.060856,0.542375,-1.675099,1.281022,0.900035,0.313022,1.868974,0.733899,2.487024,7.804289,-7.747192,0.957179,-10.235101,-16.065637,-50.862660,0.096802,-0.249886,0.000000,-1.028256,-1.027042,-0.000000
1.830000,-2.047952,0.551412,-1.671845,1.300103,0.906987,0.337940,1.946508,0.655619,2.494043,7.689486,-7.896952,0.445596,-12.718160,-13.849796,-51.331306,0.086387,-0.260039,0.000000,-1.052919,-0.992989,0.000000
1.840000,-2.034854,0.560515,-1.668341,1.319953,0.913148,0.362902,2.022764,0.575960,2.495936,7.549926,-8.024188,-0.069447,-15.103140,-11.700761,-51.825015,0.075753,-0.269814,0.000000,-1.072020,-0.953724,-0.000000
1.850000,-2.021553,0.569675,-1.664587,1.340558,0.918506,0.387858,2.097506,0.495135,2.492654,7.387424,-8.130967,-0.590905,-17.398627,-9.658827,-52.480955,0.064955,-0.279163,0.000000,-1.085827,-0.909609,-0.000000
1.860000,-2.008043,0.578885,-1.660583,1.361903,0.923050,0.412756,2.170512,0.413341,2.484118,7.201954,-8.217364,-1.119066,-19.703612,-7.546063,-52.944563,0.054045,-0.288040,0.000000,-1.094358,-0.860886,0.000000
1.870000,-1.994315,0.588136,-1.656332,1.383968,0.926773,0.437541,2.241545,0.330788,2.470273,6.993351,-8.281888,-1.649796,-21.928207,-5.307782,-52.888142,0.043076,-0.296403,0.000000,-1.097456,-0.807982,-0.000000
1.880000,-1.980363,0.597420,-1.651833,1.406734,0.929666,0.462161,2.310379,0.247703,2.451122,6.763389,-8.323520,-2.176829,-24.012612,-3.017105,-52.406548,0.032104,-0.304213,0.000000,-1.095103,-0.751688,0.000000
1.890000,-1.966180,0.606729,-1.647088,1.430176,0.931727,0.486563,2.376813,0.164318,2.426736,6.513099,-8.342230,-2.697927,-26.068567,-0.754655,-51.916524,0.021182,-0.311443,0.000000,-1.087505,-0.692567,0.000000
1.900000,-1.951760,0.616055,-1.642101,1.454270,0.932952,0.510696,2.440641,0.080858,2.397164,6.242018,-8.338613,-3.215159,-28.164227,1.476459,-51.538803,0.010360,-0.318067,0.000000,-1.074996,-0.630831,0.000000
1.910000,-1.937095,0.625388,-1.636874,1.478989,0.933344,0.534507,2.501653,-0.002455,2.362433,5.949814,-8.312701,-3.728703,-30.201207,3.711358,-50.987120,-0.000312,-0.324061,0.000000,-1.057851,-0.566772,0.000000
1.920000,-1.922180,0.634722,-1.631411,1.504303,0.932903,0.557944,2.559638,-0.085396,2.322590,5.637994,-8.264386,-4.234902,-31.987183,5.930012,-49.956269,-0.010792,-0.329404,0.000000,-1.036354,-0.501051,0.000000
1.930000,-1.907009,0.644046,-1.625715,1.530181,0.931636,0.580958,2.614413,-0.167742,2.277735,5.310071,-8.194101,-4.727828,-33.532183,8.100950,-48.523974,-0.021035,-0.334085,0.000000,-1.010892,-0.434642,-0.000000
1.940000,-1.891576,0.653354,-1.619792,1.556591,0.929549,0.603499,2.665839,-0.249278,2.228033,4.967350,-8.102367,-5.205381,-35.074285,10.232975,-47.094273,-0.031006,-0.338102,0.000000,-0.981882,-0.368061,-0.000000
1.950000,-1.875877,0.662637,-1.613646,1.583498,0.926650,0.625519,2.713760,-0.329790,2.173627,4.608585,-7.989441,-5.669714,-36.669419,12.357980,-45.798969,-0.040671,-0.341453,0.000000,-0.949688,-0.301319,0.000000
1.960000,-1.859906,0.671887,-1.607282,1.610866,0.922953,0.646972,2.758011,-0.409067,2.114639,4.233962,-7.855207,-6.121361,-38.141546,14.449443,-44.367729,-0.049999,-0.344138,0.000000,-0.914611,-0.234634,0.000000
1.970000,-1.843660,0.681096,-1.600706,1.638658,0.918469,0.667812,2.798440,-0.486894,2.051200,3.845754,-7.700452,-6.557068,-39.342968,16.385993,-42.488690,-0.058963,-0.346157,0.000000,-0.877069,-0.168586,0.000000
1.980000,-1.827133,0.690257,-1.593925,1.666835,0.913215,0.687996,2.834926,-0.563076,1.983497,3.447103,-7.527487,-6.971134,-40.309620,18.149473,-40.251569,-0.067541,-0.347521,0.000000,-0.837663,-0.103905,0.000000
1.990000,-1.810323,0.699361,-1.586946,1.695357,0.907208,0.707482,2.867382,-0.637444,1.911777,3.039562,-7.337463,-7.362100,-41.218689,19.885698,-38.079458,-0.075718,-0.348245,0.000000,-0.796808,-0.040917,0.000000
2.000000,-1.793226,0.708401,-1.579776,1.724183,0.900466,0.726231,2.895717,-0.709825,1.836255,2.622729,-7.129773,-7.732724,-42.164988,21.676086,-36.028939,-0.083479,-0.348347,0.000000,-0.754648,0.020477,-0.000000
2.010000,-1.775839,0.717370,-1.572422,1.753271,0.893011,0.744207,2.919836,-0.780039,1.757123,2.196262,-6.903941,-8.082679,-43.015411,23.401334,-33.831372,-0.090813,-0.347840,0.000000,-0.711344,0.080267,0.000000
2.020000,-1.758161,0.726261,-1.564892,1.782579,0.884865,0.761374,2.939642,-0.847904,1.674602,1.762421,-6.661747,-8.409351,-43.494664,24.824544,-31.415658,-0.097709,-0.346741,0.000000,-0.667306,0.138093,0.000000
2.030000,-1.740188,0.735067,-1.557194,1.812064,0.876053,0.777699,2.955085,-0.913274,1.588936,1.326369,-6.407450,-8.710992,-43.625627,25.959354,-28.888442,-0.104163,-0.345071,0.000000,-0.623174,0.193363,0.000000
2.040000,-1.721919,0.743782,-1.549338,1.841681,0.866600,0.793152,2.966170,-0.976053,1.500382,0.889908,-6.142560,-8.987120,-43.771585,27.107684,-26.348995,-0.110176,-0.342858,0.000000,-0.579226,0.245938,0.000000
2.050000,-1.703354,0.752399,-1.541331,1.871387,0.856532,0.807706,2.972883,-1.036125,1.409193,0.450937,-5.865297,-9.237972,-44.029023,28.359667,-23.800000,-0.115751,-0.340128,0.000000,-0.535357,0.296137,0.000000
2.060000,-1.684492,0.760913,-1.533183,1.901139,0.845877,0.821336,2.975188,-1.093359,1.315622,0.009328,-5.575366,-9.463120,-44.146103,29.496960,-21.198294,-0.120887,-0.336901,0.000000,-0.491619,0.344053,-0.000000
2.070000,-1.665331,0.769317,-1.524904,1.930891,0.834665,0.834019,2.973069,-1.147633,1.219931,-0.431985,-5.275358,-9.661938,-43.904154,30.290982,-18.564104,-0.125588,-0.333201,0.000000,-0.448347,0.389466,0.000000
2.080000,-1.645874,0.777606,-1.516503,1.960600,0.822925,0.845735,2.966549,-1.198866,1.122384,-0.868755,-4.969547,-9.834402,-43.377908,30.795513,-15.936267,-0.129858,-0.329054,0.000000,-0.406011,0.432067,0.000000
2.090000,-1.626119,0.785775,-1.507990,1.990222,0.810687,0.856467,2.955694,-1.247024,1.023243,-1.299543,-4.659447,-9.980663,-42.850002,31.300000,-13.309421,-0.133712,-0.324491,0.000000,-0.364759,0.471862,0.000000
2.100000,-1.606069,0.793820,-1.499374,2.019714,0.797984,0.866200,2.940558,-1.292055,0.922770,-1.725756,-4.343547,-10.100590,-42.385974,31.888077,-10.640210,-0.137158,-0.319536,0.000000,-0.324424,0.509138,0.000000
2.110000,-1.585725,0.801735,-1.490666,2.049033,0.784846,0.874922,2.921179,-1.333894,0.821231,-2.147263,-4.021686,-10.193467,-41.798160,32.357564,-7.957603,-0.140204,-0.314215,0.000000,-0.284984,0.544005,0.000000
2.120000,-1.565089,0.809517,-1.481875,2.078138,0.771306,0.882624,2.897613,-1.372489,0.718901,-2.561719,-3.696395,-10.259742,-40.935644,32.495025,-5.423271,-0.142861,-0.308551,0.000000,-0.246656,0.576396,0.000000
2.130000,-1.544162,0.817161,-1.473013,2.106986,0.757397,0.889300,2.869945,-1.407822,0.616036,-2.965976,-3.371785,-10.301932,-39.861082,32.356326,-3.057807,-0.145141,-0.302571,0.000000,-0.209769,0.606232,0.000000
2.140000,-1.522949,0.824665,-1.464089,2.135537,0.743150,0.894945,2.838293,-1.439924,0.512862,-3.358940,-3.049269,-10.320899,-38.776043,32.218956,-0.664731,-0.147060,-0.296300,0.000000,-0.174385,0.633584,-0.000000
2.150000,-1.501452,0.832024,-1.455114,2.163751,0.728598,0.899557,2.802766,-1.468808,0.409618,-3.741496,-2.727406,-10.315227,-37.716208,32.150079,1.834619,-0.148632,-0.289763,0.000000,-0.140320,0.658640,0.000000
2.160000,-1.479674,0.839237,-1.446098,2.191592,0.713774,0.903137,2.763463,-1.494472,0.306558,-4.113265,-2.406267,-10.284206,-36.554844,31.962769,4.284111,-0.149869,-0.282982,0.000000,-0.107533,0.681490,-0.000000
2.170000,-1.457620,0.846300,-1.437051,2.219021,0.698709,0.905688,2.720501,-1.516933,0.203934,-4.472593,-2.088151,-10.229545,-35.227751,31.502998,6.459777,-0.150785,-0.275980,0.000000,-0.076155,0.702166,-0.000000
2.180000,-1.435294,0.853211,-1.427984,2.246002,0.683435,0.907216,2.674011,-1.536235,0.101967,-4.817820,-1.776207,-10.155011,-33.785762,30.830914,8.385891,-0.151395,-0.268778,0.000000,-0.046366,0.720742,-0.000000
2.190000,-1.412700,0.859968,-1.418907,2.272501,0.667984,0.907728,2.624144,-1.552457,0.000834,-5.148309,-1.471532,-10.061827,-32.320276,30.149791,10.339458,-0.151715,-0.261399,0.000000,-0.018175,0.737309,-0.000000
2.200000,-1.389844,0.866570,-1.409830,2.298485,0.652386,0.907233,2.571045,-1.565666,-0.099270,-5.464225,-1.173212,-9.948221,-30.835268,29.498734,12.409199,-0.151760,-0.253861,0.000000,0.008552,0.751952,0.000000
2.210000,-1.366730,0.873016,-1.400763,2.323922,0.636671,0.905742,2.514860,-1.575921,-0.198130,-5.765014,-0.881558,-9.813643,-29.282444,28.747476,14.390908,-0.151546,-0.246185,0.000000,0.033845,0.764719,0.000000
2.220000,-1.343365,0.879304,-1.391715,2.348782,0.620867,0.903270,2.455745,-1.583297,-0.295542,-6.049874,-0.598262,-9.660403,-27.677941,27.818125,16.043287,-0.151085,-0.238389,0.000000,0.057646,0.775700,-0.000000
2.230000,-1.319754,0.885433,-1.382697,2.373037,0.605005,0.899832,2.393862,-1.587887,-0.391338,-6.318573,-0.325195,-9.492777,-26.051764,26.759854,17.411987,-0.150394,-0.230491,0.000000,0.079907,0.785062,0.000000
2.240000,-1.295904,0.891404,-1.373718,2.396659,0.589110,0.895443,2.329373,-1.589801,-0.485398,-6.570909,-0.063065,-9.312164,-24.392779,25.680258,18.801419,-0.149488,-0.222508,0.000000,0.100647,0.792894,-0.000000
2.250000,-1.271821,0.897215,-1.364788,2.419624,0.573209,0.890124,2.262444,-1.589148,-0.577582,-6.806428,0.188410,-9.116749,-22.680258,24.590316,20.298853,-0.148382,-0.214454,0.000000,0.119927,0.799190,0.000000
2.260000,-1.247512,0.902868,-1.355916,2.441908,0.557327,0.883892,2.193245,-1.586033,-0.667733,-7.024514,0.428741,-8.906187,-20.936254,23.428504,21.688742,-0.147091,-0.206345,0.000000,0.137759,0.803963,0.000000
2.270000,-1.222983,0.908362,-1.347110,2.463489,0.541488,0.876769,2.121954,-1.580573,-0.755705,-7.225153,0.656980,-8.682974,-19.236588,22.190214,22.746570,-0.145628,-0.198197,0.000000,0.154144,0.807329,0.000000
2.280000,-1.198242,0.913698,-1.338381,2.484347,0.525715,0.868778,2.048742,-1.572893,-0.841392,-7.409246,0.872546,-8.451255,-17.589614,20.907114,23.528803,-0.144008,-0.190024,0.000000,0.169131,0.809498,0.000000
2.290000,-1.173296,0.918876,-1.329735,2.504464,0.510030,0.859941,1.973769,-1.563122,-0.924731,-7.576946,1.075122,-8.212398,-15.907076,19.593661,24.323810,-0.142246,-0.181837,0.000000,0.182755,0.810547,0.000000
2.300000,-1.148153,0.923898,-1.321182,2.523823,0.494453,0.850283,1.897203,-1.551391,-1.005640,-7.727388,1.264419,-7.964779,-14.154441,18.237673,25.209599,-0.140354,-0.173646,0.000000,0.195014,0.810409,0.000000
2.310000,-1.122820,0.928765,-1.312729,2.542408,0.479002,0.839828,1.819221,-1.537834,-1.084026,-7.860034,1.439876,-7.708206,-12.404425,16.842139,25.988583,-0.138346,-0.165466,0.000000,0.205898,0.809072,0.000000
2.320000,-1.097305,0.933478,-1.304385,2.560207,0.463696,0.828602,1.740002,-1.522593,-1.159804,-7.975476,1.601262,-7.445007,-10.762127,15.459472,26.470833,-0.136236,-0.157307,0.000000,0.215452,0.806661,-0.000000
2.330000,-1.071616,0.938039,-1.296157,2.577208,0.448550,0.816632,1.659712,-1.505809,-1.232926,-8.075277,1.749065,-7.178789,-9.218593,14.102175,26.717261,-0.134037,-0.149180,0.000000,0.223790,0.803384,0.000000
2.340000,-1.045761,0.942449,-1.288052,2.593401,0.433580,0.803944,1.578497,-1.487612,-1.303380,-8.159848,1.883305,-6.910662,-7.646759,12.711444,26.976701,-0.131760,-0.141092,0.000000,0.230955,0.799304,0.000000
2.350000,-1.019748,0.946711,-1.280078,2.608778,0.418798,0.790565,1.496515,-1.468143,-1.371140,-8.228212,2.003294,-6.639255,-6.003046,11.260868,27.290635,-0.129417,-0.133052,0.000000,0.236897,0.794327,0.000000
2.360000,-0.993585,0.950825,-1.272241,2.623332,0.404217,0.776521,1.413932,-1.447546,-1.436165,-8.279909,2.108523,-6.364849,-4.383864,9.802233,27.496268,-0.127022,-0.125070,0.000000,0.241599,0.788431,0.000000
2.370000,-0.967281,0.954795,-1.264548,2.637057,0.389847,0.761841,1.330916,-1.425972,-1.498437,-8.315889,2.199339,-6.089330,-2.913435,8.419654,27.513964,-0.124585,-0.117153,0.000000,0.245132,0.781726,0.000000
2.380000,-0.940844,0.958622,-1.257004,2.649950,0.375698,0.746552,1.247615,-1.403559,-1.557952,-8.338178,2.276916,-5.814570,-1.572331,7.108883,27.404214,-0.122119,-0.109311,0.000000,0.247633,0.774408,0.000000
2.390000,-0.914282,0.962309,-1.249617,2.662009,0.361776,0.730682,1.164153,-1.380434,-1.614728,-8.347336,2.341516,-5.541246,-0.205592,5.769835,27.271542,-0.119632,-0.101547,0.000000,0.249142,0.766526,0.000000
2.400000,-0.887604,0.965858,-1.242391,2.673233,0.348089,0.714258,1.080668,-1.356729,-1.668777,-8.342289,2.392312,-5.269139,1.228165,4.371696,27.115396,-0.117136,-0.093868,0.000000,0.249599,0.757979,-0.000000
2.410000,-0.860817,0.969271,-1.235332,2.683622,0.334641,0.697307,0.997307,-1.332588,-1.720111,-8.322773,2.428950,-4.998938,2.617422,2.991814,26.875934,-0.114640,-0.086281,0.000000,0.248992,0.748744,0.000000
2.420000,-0.833931,0.972551,-1.228445,2.693179,0.321437,0.679856,0.914212,-1.308150,-1.768756,-8.289941,2.452149,-4.731621,3.853872,1.720419,26.573312,-0.112155,-0.078793,0.000000,0.247397,0.738919,0.000000
2.430000,-0.806954,0.975700,-1.221735,2.701907,0.308478,0.661932,0.831508,-1.283545,-1.814743,-8.245695,2.463359,-4.467472,4.967227,0.542404,26.236797,-0.109691,-0.071408,0.000000,0.244946,0.728656,0.000000
2.440000,-0.779893,0.978720,-1.215206,2.709809,0.295766,0.643561,0.749299,-1.258883,-1.858105,-8.190596,2.462997,-4.206885,6.092815,-0.651180,25.844808,-0.107256,-0.064130,0.000000,0.241679,0.717990,-0.000000
2.450000,-0.752758,0.981615,-1.208863,2.716893,0.283301,0.624769,0.667696,-1.234285,-1.898881,-8.123839,2.450335,-3.950575,7.256262,-1.888277,25.390663,-0.104857,-0.056963,0.000000,0.237545,0.706844,0.000000
2.460000,-0.725555,0.984386,-1.202711,2.723163,0.271081,0.605583,0.586822,-1.209876,-1.937117,-8.045471,2.425231,-3.699071,8.363669,-3.088399,24.899009,-0.102505,-0.049913,0.000000,0.232536,0.695207,0.000000
2.470000,-0.698294,0.987037,-1.196752,2.728629,0.259103,0.586027,0.506787,-1.185780,-1.972862,-7.956566,2.388567,-3.452595,9.351867,-4.172690,24.394213,-0.100206,-0.042984,0.000000,0.226728,0.683154,0.000000
2.480000,-0.670983,0.989568,-1.190990,2.733299,0.247365,0.566126,0.427690,-1.162105,-2.006168,-7.858434,2.341777,-3.211187,10.248930,-5.160347,23.876318,-0.097970,-0.036180,0.000000,0.220239,0.670779,0.000000
2.490000,-0.643628,0.991984,-1.185429,2.737183,0.235861,0.545904,0.349618,-1.138944,-2.037086,-7.751587,2.285360,-2.975069,11.132702,-6.147264,23.325170,-0.095801,-0.029502,0.000000,0.213110,0.658107,-0.000000
2.500000,-0.616239,0.994286,-1.180072,2.740291,0.224586,0.525384,0.272659,-1.116398,-2.065670,-7.635780,2.218832,-2.744684,12.018629,-7.154823,22.735252,-0.093707,-0.022955,0.000000,0.205299,0.645099,0.000000
2.510000,-0.588822,0.996476,-1.174921,2.742636,0.213533,0.504590,0.196903,-1.094568,-2.091980,-7.511215,2.142264,-2.520364,12.854107,-8.114020,22.128876,-0.091695,-0.016542,0.000000,0.196810,0.631754,-0.000000
2.520000,-0.561386,0.998556,-1.169980,2.744229,0.202695,0.483545,0.122434,-1.073552,-2.116077,-7.378698,2.056552,-2.302106,13.599059,-8.966074,21.538169,-0.089771,-0.010266,0.000000,0.187713,0.618120,-0.000000
2.530000,-0.533938,1.000530,-1.165251,2.745085,0.192062,0.462269,0.049329,-1.053437,-2.138022,-7.239233,1.962942,-2.089600,14.270038,-9.729294,20.965692,-0.087940,-0.004129,0.000000,0.178103,0.604262,0.000000
2.540000,-0.506485,1.002398,-1.160735,2.745216,0.181626,0.440784,-0.022350,-1.034294,-2.157869,-7.093297,1.861966,-1.882792,14.918712,-10.475283,20.379064,-0.086208,0.001868,0.000000,0.168017,0.590199,0.000000
2.550000,-0.479034,1.004162,-1.156435,2.744638,0.171376,0.419111,-0.092537,-1.016197,-2.175678,-6.940859,1.753437,-1.682019,15.554353,-11.217911,19.757858,-0.084580,0.007720,0.000000,0.157435,0.575912,-0.000000
2.560000,-0.451592,1.005825,-1.152353,2.743365,0.161302,0.397271,-0.161167,-0.999225,-2.191510,-6.782210,1.637608,-1.487635,16.143337,-11.906694,19.133023,-0.083059,0.013428,0.000000,0.146372,0.561405,0.000000
2.570000,-0.424166,1.007388,-1.148489,2.741414,0.151392,0.375281,-0.228181,-0.983445,-2.205430,-6.617992,1.515303,-1.299359,16.665888,-12.504201,18.575191,-0.081652,0.018988,0.000000,0.134889,0.546712,0.000000
2.580000,-0.396764,1.008853,-1.144847,2.738802,0.141633,0.353162,-0.293527,-0.968919,-2.217497,-6.448892,1.387524,-1.116131,17.134621,-13.024835,18.086115,-0.080361,0.024400,0.000000,0.123052,0.531875,-0.000000
2.590000,-0.369390,1.010221,-1.141426,2.735544,0.132013,0.330931,-0.357159,-0.955695,-2.227753,-6.275300,1.254806,-0.937636,17.575906,-13.514150,17.579193,-0.079191,0.029661,0.000000,0.110897,0.516909,0.000000
2.600000,-0.342053,1.011493,-1.138228,2.731658,0.122519,0.308607,-0.419033,-0.943823,-2.236249,-6.097374,1.117241,-0.764547,17.989211,-13.979969,17.016634,-0.078143,0.034771,0.000000,0.098427,0.501811,0.000000
2.610000,-0.314757,1.012671,-1.135254,2.727163,0.113137,0.286206,-0.479107,-0.933350,-2.243044,-5.915516,0.975207,-0.597304,18.359194,-14.390775,16.465447,-0.077222,0.039729,0.000000,0.085668,0.486595,0.000000
2.620000,-0.287509,1.013756,-1.132504,2.722076,0.103852,0.263746,-0.537344,-0.924319,-2.248196,-5.730190,0.829425,-0.435239,18.692778,-14.725671,16.032021,-0.076430,0.044533,0.000000,0.072668,0.471284,0.000000
2.630000,-0.260316,1.014748,-1.129979,2.716416,0.094651,0.241242,-0.593711,-0.916762,-2.251749,-5.541660,0.680693,-0.276663,18.998326,-14.994142,15.704505,-0.075768,0.049183,0.000000,0.059473,0.455892,0.000000
2.640000,-0.233181,1.015649,-1.127679,2.710202,0.085517,0.218711,-0.648177,-0.910705,-2.253729,-5.350224,0.529542,-0.121148,19.267297,-15.221720,15.347627,-0.075240,0.053678,0.000000,0.046116,0.440432,0.000000
2.650000,-0.206111,1.016459,-1.125605,2.703453,0.076436,0.196168,-0.700715,-0.906171,-2.254172,-5.156314,0.376259,0.030289,19.490400,-15.412562,14.924423,-0.074846,0.058017,0.000000,0.032620,0.424923,0.000000
2.660000,-0.179112,1.017178,-1.123756,2.696188,0.067394,0.173628,-0.751303,-0.903179,-2.253123,-4.960416,0.221291,0.177340,19.676273,-15.549440,14.531549,-0.074588,0.062201,0.000000,0.019015,0.409387,0.000000
2.670000,-0.152188,1.017806,-1.122132,2.688427,0.058373,0.151105,-0.799923,-0.901745,-2.250625,-4.762789,0.065270,0.320920,19.851807,-15.621617,14.261796,-0.074466,0.066228,0.000000,0.005339,0.393837,-0.000000
2.680000,-0.125343,1.018345,-1.120734,2.680189,0.049359,0.128615,-0.846559,-0.901874,-2.246705,-4.563379,-0.091141,0.462576,20.017469,-15.634462,14.089100,-0.074481,0.070100,0.000000,-0.008370,0.378265,-0.000000
2.690000,-0.098584,1.018794,-1.119560,2.671495,0.040335,0.106171,-0.891191,-0.903568,-2.241373,-4.362439,-0.247419,0.602702,20.138969,-15.601410,13.896362,-0.074633,0.073815,0.000000,-0.022079,0.362684,0.000000
2.700000,-0.071914,1.019152,-1.118610,2.662365,0.031287,0.083788,-0.933808,-0.906822,-2.234651,-4.160600,-0.403170,0.740503,20.205579,-15.525492,13.657969,-0.074923,0.077374,0.000000,-0.035760,0.347129,-0.000000
2.710000,-0.045337,1.019419,-1.117884,2.652819,0.022199,0.061478,-0.974403,-0.911631,-2.226563,-3.958328,-0.557929,0.875862,20.242528,-15.397916,13.454566,-0.075349,0.080777,0.000000,-0.049381,0.331626,0.000000
2.720000,-0.018857,1.019596,-1.117381,2.642877,0.013055,0.039256,-1.012974,-0.917981,-2.217133,-3.755750,-0.711128,1.009595,20.277203,-15.211101,13.349003,-0.075910,0.084026,0.000000,-0.062908,0.316181,0.000000
2.730000,0.007521,1.019680,-1.117099,2.632560,0.003839,0.017136,-1.049518,-0.925854,-2.206371,-3.552784,-0.862151,1.142842,20.303307,-14.967568,13.317582,-0.076607,0.087120,0.000000,-0.076304,0.300783,0.000000
2.740000,0.033794,1.019673,-1.117038,2.621887,-0.005462,-0.004871,-1.084030,-0.935224,-2.194276,-3.349683,-1.010479,1.275946,20.286585,-14.677681,13.280142,-0.077437,0.090059,0.000000,-0.089538,0.285447,-0.000000
2.750000,0.059959,1.019571,-1.117197,2.610879,-0.014865,-0.026750,-1.116512,-0.946063,-2.180852,-3.147052,-1.155705,1.408444,20.220100,-14.346462,13.215681,-0.078398,0.092846,0.000000,-0.102579,0.270209,-0.000000
2.760000,0.086012,1.019375,-1.117573,2.599557,-0.024384,-0.048488,-1.146971,-0.958338,-2.166108,-2.945281,-1.297409,1.540260,20.127869,-13.967178,13.177837,-0.079489,0.095480,0.000000,-0.115400,0.255092,-0.000000
2.770000,0.111950,1.019084,-1.118166,2.587940,-0.034032,-0.070072,-1.175417,-0.972011,-2.150047,-2.744495,-1.435048,1.672001,20.027153,-13.527468,13.218294,-0.080706,0.097964,0.000000,-0.127967,0.240100,-0.000000
2.780000,0.137770,1.018695,-1.118975,2.576048,-0.043824,-0.091489,-1.201861,-0.987039,-2.132668,-2.544738,-1.567958,1.804626,19.910853,-13.028694,13.321149,-0.082048,0.100298,0.000000,-0.140238,0.225237,0.000000
2.790000,0.163471,1.018207,-1.119996,2.563903,-0.053773,-0.112725,-1.226312,-1.003371,-2.113955,-2.346278,-1.695622,1.938424,19.757795,-12.488465,13.416898,-0.083511,0.102484,0.000000,-0.152180,0.210518,-0.000000
2.800000,0.189048,1.017619,-1.121229,2.551522,-0.063891,-0.133768,-1.248786,-1.020952,-2.093899,-2.149582,-1.817727,2.072964,19.564635,-11.916251,13.483186,-0.085092,0.104523,0.000000,-0.163769,0.195970,-0.000000
2.810000,0.214501,1.016929,-1.122671,2.538927,-0.074192,-0.154603,-1.269304,-1.039725,-2.072495,-1.954985,-1.933947,2.208088,19.345797,-11.300427,13.565274,-0.086787,0.106418,0.000000,-0.174984,0.181610,-0.000000
2.820000,0.239827,1.016135,-1.124321,2.526136,-0.084686,-0.175218,-1.287886,-1.059631,-2.049737,-1.762667,-2.043736,2.344269,19.109826,-10.618343,13.714232,-0.088592,0.108169,0.000000,-0.185789,0.167450,-0.000000
2.830000,0.265024,1.015236,-1.126176,2.513169,-0.095384,-0.195598,-1.304557,-1.080600,-2.025610,-1.572788,-2.146314,2.482373,18.851922,-9.872445,13.915444,-0.090503,0.109780,0.000000,-0.196129,0.153501,0.000000
2.840000,0.290090,1.014228,-1.128233,2.500045,-0.106298,-0.215730,-1.319342,-1.102557,-2.000090,-1.385628,-2.241185,2.622578,18.561622,-9.094831,14.097662,-0.092515,0.111252,0.000000,-0.205970,0.139781,0.000000
2.850000,0.315025,1.013110,-1.130490,2.486782,-0.117435,-0.235600,-1.332270,-1.125424,-1.973159,-1.201556,-2.328211,2.764326,18.239120,-8.300657,14.240715,-0.094623,0.112587,0.000000,-0.215301,0.126308,0.000000
2.860000,0.339826,1.011879,-1.132945,2.473400,-0.128806,-0.255193,-1.343373,-1.149121,-1.944803,-1.020846,-2.407198,2.907392,17.891161,-7.468764,14.389437,-0.096822,0.113789,0.000000,-0.224107,0.113095,-0.000000
2.870000,0.364493,1.010533,-1.135594,2.459915,-0.140418,-0.274496,-1.352686,-1.173567,-1.915011,-0.843733,-2.477586,3.052114,17.516536,-6.563843,14.584041,-0.099106,0.114860,0.000000,-0.232347,0.100158,-0.000000
2.880000,0.389024,1.009071,-1.138435,2.446346,-0.152278,-0.293494,-1.360248,-1.198673,-1.883761,-0.670515,-2.538475,3.199073,17.111941,-5.591249,14.807521,-0.101469,0.115802,0.000000,-0.239951,0.087519,0.000000
2.890000,0.413420,1.007488,-1.141464,2.432710,-0.164391,-0.312171,-1.366097,-1.224337,-1.851029,-0.501494,-2.589411,3.348265,16.679632,-4.600811,15.002001,-0.103905,0.116619,0.000000,-0.246883,0.075198,0.000000
2.900000,0.437678,1.005783,-1.144678,2.419024,-0.176764,-0.330514,-1.370277,-1.250461,-1.816796,-0.336922,-2.630491,3.499113,16.225784,-3.613213,15.155943,-0.106407,0.117314,0.000000,-0.253146,0.063204,-0.000000
2.910000,0.461800,1.003953,-1.148074,2.405304,-0.189401,-0.348507,-1.372835,-1.276947,-1.781047,-0.176978,-2.661675,3.651384,15.748187,-2.595981,15.303299,-0.108969,0.117890,0.000000,-0.258733,0.051544,0.000000
2.920000,0.485785,1.001995,-1.151649,2.391567,-0.202303,-0.366135,-1.373817,-1.303694,-1.743768,-0.021959,-2.682410,3.805179,15.230083,-1.502396,15.459704,-0.111582,0.118351,0.000000,-0.263597,0.040238,0.000000
2.930000,0.509632,0.999907,-1.155397,2.377828,-0.215474,-0.383383,-1.373274,-1.330595,-1.704943,0.127623,-2.691723,3.960578,14.670068,-0.341828,15.608919,-0.114241,0.118700,0.000000,-0.267652,0.029324,-0.000000
2.940000,0.533341,0.997685,-1.159316,2.364102,-0.228915,-0.400234,-1.371265,-1.357529,-1.664557,0.271443,-2.689247,4.117357,14.091437,0.819632,15.725010,-0.116936,0.118941,0.000000,-0.270858,0.018825,-0.000000
2.950000,0.556914,0.995328,-1.163402,2.350403,-0.242625,-0.416674,-1.367846,-1.384380,-1.622596,0.409452,-2.675331,4.275078,13.507782,1.957076,15.808709,-0.119659,0.119078,0.000000,-0.273235,0.008736,0.000000
2.960000,0.580349,0.992833,-1.167650,2.336745,-0.256603,-0.432686,-1.363075,-1.411036,-1.579055,0.541598,-2.650106,4.433532,12.902639,3.112837,15.870979,-0.122401,0.119116,0.000000,-0.274783,-0.000943,0.000000
2.970000,0.603648,0.990196,-1.172056,2.323141,-0.270846,-0.448255,-1.357014,-1.437382,-1.533926,0.667505,-2.613074,4.592498,12.242064,4.341115,15.896231,-0.125155,0.119059,0.000000,-0.275448,-0.010186,0.000000
2.980000,0.626812,0.987416,-1.176615,2.309605,-0.285350,-0.463364,-1.349725,-1.463297,-1.487205,0.786440,-2.563283,4.751456,11.528898,5.628142,15.873578,-0.127911,0.118911,0.000000,-0.275128,-0.018936,-0.000000
2.990000,0.649841,0.984489,-1.181323,2.296147,-0.300112,-0.477999,-1.341285,-1.488648,-1.438896,0.898083,-2.500511,4.909969,10.809802,6.896607,15.818082,-0.130658,0.118677,0.000000,-0.273785,-0.027169,0.000000
3.000000,0.672735,0.981414,-1.186175,2.282779,-0.315123,-0.492142,-1.331764,-1.513307,-1.389006,1.002636,-2.425351,5.067818,10.104350,8.121435,15.742864,-0.133387,0.118362,0.000000,-0.271449,-0.034905,0.000000
3.010000,0.695496,0.978187,-1.191166,2.269511,-0.330378,-0.505779,-1.321232,-1.537155,-1.337540,1.100170,-2.338082,5.224826,9.380897,9.350864,15.630716,-0.136087,0.117972,0.000000,-0.268125,-0.042150,0.000000
3.020000,0.718125,0.974806,-1.196290,2.256354,-0.345866,-0.518893,-1.309760,-1.560069,-1.284509,1.190254,-2.238334,5.380432,8.593256,10.635334,15.436553,-0.138749,0.117511,0.000000,-0.263754,-0.048869,0.000000
3.030000,0.740623,0.971269,-1.201544,2.243316,-0.361579,-0.531469,-1.297427,-1.581921,-1.229931,1.272035,-2.125376,5.533558,7.750093,11.957171,15.156216,-0.141362,0.116985,0.000000,-0.258231,-0.054995,0.000000
3.040000,0.762991,0.967574,-1.206920,2.230406,-0.377505,-0.543492,-1.284320,-1.602576,-1.173838,1.345256,-1.999190,5.683557,6.914897,13.242892,14.844265,-0.143914,0.116400,0.000000,-0.251521,-0.060504,0.000000
3.050000,0.785231,0.963719,-1.212413,2.217630,-0.393631,-0.554946,-1.270522,-1.621905,-1.116260,1.410333,-1.860518,5.830443,6.107442,14.471278,14.534822,-0.146393,0.115762,0.000000,-0.243657,-0.065426,0.000000
3.060000,0.807344,0.959702,-1.218019,2.204995,-0.409943,-0.565817,-1.256113,-1.639787,-1.057229,1.467404,-1.709765,5.974253,5.286149,15.686112,14.183801,-0.148787,0.115077,0.000000,-0.234646,-0.069764,0.000000
3.070000,0.829331,0.955520,-1.223730,2.192508,-0.426426,-0.576090,-1.241174,-1.656101,-0.996775,1.516056,-1.546795,6.114119,4.408289,16.925225,13.692486,-0.151085,0.114350,0.000000,-0.224430,-0.073481,0.000000
3.080000,0.851194,0.951173,-1.229540,2.180172,-0.443065,-0.585752,-1.225792,-1.670723,-0.934947,1.555570,-1.371260,6.248103,3.485573,18.169517,13.064799,-0.153275,0.113590,0.000000,-0.212913,-0.076520,0.000000
3.090000,0.872935,0.946659,-1.235445,2.167992,-0.459841,-0.594789,-1.210062,-1.683526,-0.871813,1.585767,-1.183405,6.375415,2.577899,19.361027,12.429117,-0.155343,0.112802,0.000000,-0.200062,-0.078857,0.000000
3.100000,0.894554,0.941977,-1.241436,2.155970,-0.476735,-0.603189,-1.194076,-1.694391,-0.807438,1.607128,-0.984040,6.496685,1.715987,20.489959,11.830279,-0.157276,0.111993,0.000000,-0.185916,-0.080514,0.000000
3.110000,0.916054,0.937124,-1.247509,2.144110,-0.493729,-0.610938,-1.177920,-1.703207,-0.741880,1.620087,-0.773606,6.612020,0.861207,21.587571,11.176390,-0.159061,0.111171,0.000000,-0.170473,-0.081514,0.000000
3.120000,0.937436,0.932102,-1.253655,2.132412,-0.510800,-0.618026,-1.161675,-1.709863,-0.675198,1.624352,-0.552288,6.720213,-0.060016,22.659047,10.355470,-0.160685,0.110342,0.000000,-0.153686,-0.081824,0.000000
3.130000,0.958702,0.926908,-1.259869,2.120877,-0.527926,-0.624442,-1.145433,-1.714252,-0.607475,1.618887,-0.320425,6.819130,-1.031676,23.686240,9.391340,-0.162134,0.109513,0.000000,-0.135502,-0.081350,0.000000
3.140000,0.979854,0.921543,-1.266144,2.109503,-0.545085,-0.630176,-1.129297,-1.716271,-0.538815,1.603719,-0.078564,6.908040,-1.950430,24.654312,8.429533,-0.163394,0.108693,0.000000,-0.115906,-0.080077,0.000000
3.150000,1.000892,0.916007,-1.272473,2.098291,-0.562251,-0.635218,-1.113358,-1.715824,-0.469314,1.579878,0.172661,6.987720,-2.819594,25.567936,7.504175,-0.164451,0.107890,0.000000,-0.094919,-0.078071,0.000000
3.160000,1.021820,0.910298,-1.278848,2.087236,-0.579401,-0.639562,-1.097699,-1.712818,-0.399061,1.547327,0.432795,7.058123,-3.702524,26.427912,6.516090,-0.165291,0.107111,0.000000,-0.072528,-0.075305,0.000000
3.170000,1.042637,0.904419,-1.285264,2.076337,-0.596508,-0.643200,-1.082412,-1.707168,-0.328152,1.505828,0.701219,7.118042,-4.561017,27.204550,5.387008,-0.165900,0.106363,0.000000,-0.048719,-0.071742,0.000000
3.180000,1.063346,0.898368,-1.291712,2.065588,-0.613544,-0.646125,-1.067583,-1.698794,-0.256700,1.456107,0.976886,7.165863,-5.367834,27.886974,4.141028,-0.166264,0.105656,0.000000,-0.023510,-0.067443,0.000000
3.190000,1.083949,0.892148,-1.298186,2.054985,-0.630484,-0.648334,-1.053290,-1.687630,-0.184835,1.398471,1.258959,7.200863,-6.174004,28.506211,2.881756,-0.166368,0.104996,0.000000,0.003081,-0.062418,0.000000
3.200000,1.104446,0.885759,-1.304679,2.044522,-0.647297,-0.649822,-1.039613,-1.673615,-0.112683,1.332626,1.547010,7.223498,-6.980909,29.085410,1.681459,-0.166200,0.104391,0.000000,0.031059,-0.056609,0.000000
3.210000,1.124839,0.879202,-1.311183,2.034193,-0.663956,-0.650587,-1.026637,-1.656690,-0.040365,1.258853,1.840667,7.234492,-7.748343,29.593899,0.468775,-0.165745,0.103848,0.000000,0.060425,-0.050006,0.000000
3.220000,1.145130,0.872479,-1.317691,2.023989,-0.680431,-0.650629,-1.014436,-1.636801,0.032007,1.177660,2.138888,7.232874,-8.481873,29.955653,-0.949521,-0.164989,0.103377,0.000000,0.091140,-0.042645,0.000000
3.230000,1.165319,0.865593,-1.324195,2.013904,-0.696692,-0.649947,-1.003084,-1.613912,0.104293,1.089215,2.439780,7.215502,-9.190028,30.167345,-2.558490,-0.163920,0.102984,0.000000,0.123111,-0.034548,0.000000
3.240000,1.185408,0.858546,-1.330690,2.003928,-0.712709,-0.648543,-0.992652,-1.588006,0.176317,0.993859,2.742235,7.181704,-9.855230,30.323117,-4.089742,-0.162524,0.102677,0.000000,0.156273,-0.025731,0.000000
3.250000,1.205398,0.851339,-1.337166,1.994051,-0.728452,-0.646421,-0.983207,-1.559067,0.247927,0.892111,3.046243,7.133707,-10.485888,30.470094,-5.469328,-0.160792,0.102464,0.000000,0.190615,-0.016201,0.000000
3.260000,1.225289,0.843977,-1.343618,1.984264,-0.743890,-0.643585,-0.974810,-1.527081,0.318991,0.784141,3.351637,7.072318,-11.088334,30.535394,-6.874905,-0.158709,0.102350,0.000000,0.226131,-0.005946,0.000000
3.270000,1.245083,0.836461,-1.350038,1.974555,-0.758994,-0.640041,-0.967524,-1.492034,0.389373,0.670344,3.656950,6.996209,-11.618135,30.387079,-8.453862,-0.156266,0.102344,0.000000,0.262710,0.005000,0.000000
3.280000,1.264780,0.828797,-1.356419,1.964913,-0.773731,-0.635797,-0.961403,-1.453942,0.458915,0.551779,3.959379,6.903240,-12.063467,30.035612,-10.139609,-0.153453,0.102452,0.000000,0.300100,0.016519,0.000000
3.290000,1.284381,0.820987,-1.362754,1.955327,-0.788073,-0.630863,-0.956488,-1.412847,0.527438,0.429075,4.257663,6.793416,-12.481011,29.651848,-11.732633,-0.150262,0.102679,0.000000,0.338153,0.028555,-0.000000
3.300000,1.303887,0.813035,-1.369036,1.945783,-0.801988,-0.625249,-0.952822,-1.368789,0.594784,0.302158,4.552416,6.668588,-12.905731,29.295214,-13.234248,-0.146687,0.103030,0.000000,0.376881,0.041143,0.000000
3.310000,1.323297,0.804947,-1.375259,1.936270,-0.815448,-0.618967,-0.950445,-1.321799,0.660810,0.170960,4.843567,6.528732,-13.292466,28.844002,-14.764588,-0.142721,0.103512,0.000000,0.416247,0.054294,0.000000
3.320000,1.342612,0.796726,-1.381415,1.926775,-0.828424,-0.612032,-0.949402,-1.271917,0.725358,0.036309,5.129296,6.373296,-13.545302,28.148588,-16.275307,-0.138359,0.104128,0.000000,0.456019,0.067915,-0.000000
3.330000,1.361832,0.788378,-1.387499,1.917282,-0.840887,-0.604460,-0.949719,-1.219213,0.788276,-0.099946,5.406539,6.203225,-13.672226,27.236930,-17.710685,-0.133599,0.104884,0.000000,0.495788,0.081811,0.000000
3.340000,1.380958,0.779909,-1.393505,1.907780,-0.852808,-0.596267,-0.951401,-1.163786,0.849423,-0.237135,5.674034,6.019082,-13.797597,26.305167,-19.132549,-0.128442,0.105780,0.000000,0.535324,0.095899,0.000000
3.350000,1.399988,0.771322,-1.399425,1.898254,-0.864162,-0.587471,-0.954462,-1.105732,0.908657,-0.375898,5.932642,5.820574,-13.943350,25.427398,-20.564740,-0.122890,0.106819,0.000000,0.574630,0.110230,0.000000
3.360000,1.418923,0.762625,-1.405254,1.888691,-0.874923,-0.578094,-0.958919,-1.045134,0.965834,-0.516002,6.182582,5.607787,-14.022630,24.468336,-21.950445,-0.116947,0.108002,0.000000,0.613623,0.124757,0.000000
3.370000,1.437762,0.753824,-1.410987,1.879076,-0.885065,-0.568155,-0.964782,-0.982080,1.020813,-0.656350,6.422009,5.381565,-13.989378,23.243230,-23.226659,-0.110617,0.109331,0.000000,0.651968,0.139342,-0.000000
3.380000,1.456504,0.744924,-1.416617,1.869395,-0.894565,-0.557677,-0.972046,-0.916693,1.073466,-0.795790,6.647447,5.143254,-13.867177,21.788333,-24.399479,-0.103907,0.110806,0.000000,0.689121,0.153839,0.000000
3.390000,1.475150,0.735932,-1.422140,1.859635,-0.903399,-0.546685,-0.980698,-0.849131,1.123678,-0.933694,6.857775,4.893576,-13.711292,20.352545,-25.536118,-0.096834,0.112425,0.000000,0.724797,0.168150,0.000000
3.400000,1.493697,0.726856,-1.427551,1.849781,-0.911547,-0.535204,-0.990720,-0.779538,1.171337,-1.070016,7.054498,4.632532,-13.553712,19.005668,-26.656070,-0.089412,0.114186,0.000000,0.759006,0.182227,0.000000
3.410000,1.512145,0.717702,-1.432844,1.839821,-0.918990,-0.523259,-1.002098,-0.708041,1.216329,-1.204768,7.237889,4.360455,-13.355170,17.582397,-27.702370,-0.081655,0.116085,0.000000,0.791618,0.196030,-0.000000
3.420000,1.530493,0.708476,-1.438016,1.829739,-0.925708,-0.510877,-1.014815,-0.634780,1.258546,-1.337119,7.406146,4.078484,-13.022743,15.930524,-28.603881,-0.073580,0.118119,0.000000,0.822247,0.209435,0.000000
3.430000,1.548740,0.699187,-1.443062,1.819524,-0.931685,-0.498088,-1.028840,-0.559919,1.297898,-1.465223,7.556499,3.788377,-12.564662,14.106339,-29.363674,-0.065211,0.120284,0.000000,0.850389,0.222201,0.000000
3.440000,1.566884,0.689843,-1.447978,1.809163,-0.936906,-0.484919,-1.044120,-0.483650,1.334314,-1.588413,7.688273,3.491211,-12.107114,12.316347,-30.063392,-0.056575,0.122572,0.000000,0.875791,0.234216,0.000000
3.450000,1.584923,0.680449,-1.452760,1.798642,-0.941358,-0.471401,-1.060609,-0.406153,1.367723,-1.707365,7.802826,3.187109,-11.679180,10.593241,-30.753131,-0.047698,0.124976,0.000000,0.898454,0.245509,0.000000
3.460000,1.602857,0.671015,-1.457406,1.787950,-0.945029,-0.457565,-1.078267,-0.327594,1.398056,-1.821996,7.900137,2.876148,-11.196051,8.807925,-31.365694,-0.038609,0.127488,0.000000,0.918227,0.256023,-0.000000
3.470000,1.620682,0.661549,-1.461912,1.777077,-0.947910,-0.443440,-1.097049,-0.248150,1.425246,-1.931286,7.978985,2.559795,-10.600311,6.910738,-31.748348,-0.029337,0.130099,0.000000,0.934821,0.265614,-0.000000
3.480000,1.638398,0.652057,-1.466275,1.766009,-0.949992,-0.429060,-1.116893,-0.168014,1.449252,-2.034002,8.038352,2.241181,-9.917034,4.951401,-31.902479,-0.019916,0.132801,0.000000,0.947988,0.274142,0.000000
3.490000,1.656003,0.642549,-1.470493,1.754739,-0.951270,-0.414455,-1.137729,-0.087383,1.470069,-2.129627,8.078013,1.921746,-9.222646,3.002942,-32.025925,-0.010381,0.135582,0.000000,0.957609,0.281533,0.000000
3.500000,1.673493,0.633032,-1.474564,1.743255,-0.951740,-0.399659,-1.159485,-0.006454,1.487687,-2.218455,8.098411,1.600663,-8.556414,1.090876,-32.211541,-0.000768,0.138431,0.000000,0.963670,0.287778,0.000000
3.510000,1.690868,0.623514,-1.478486,1.731549,-0.951399,-0.384702,-1.182098,0.074585,1.502083,-2.300755,8.099830,1.277515,-7.868553,-0.821699,-32.314512,0.008888,0.141337,0.000000,0.966151,0.292874,0.000000
3.520000,1.708124,0.614004,-1.482258,1.719613,-0.950248,-0.369617,-1.205501,0.155543,1.513237,-2.375826,8.081977,0.954373,-7.058705,-2.783848,-32.090875,0.018550,0.144288,0.000000,0.964991,0.296752,-0.000000
3.530000,1.725260,0.604509,-1.485878,1.707439,-0.948289,-0.354437,-1.229614,0.236224,1.521170,-2.441929,8.044153,0.635697,-6.142436,-4.772860,-31.568234,0.028183,0.147272,0.000000,0.960123,0.299274,-0.000000
3.540000,1.742273,0.595038,-1.489347,1.695021,-0.945524,-0.339193,-1.254339,0.316426,1.525951,-2.498675,7.986520,0.323008,-5.260672,-6.706861,-31.069907,0.037749,0.150275,0.000000,0.951615,0.300422,0.000000
3.550000,1.759160,0.585599,-1.492662,1.682352,-0.941960,-0.323918,-1.279588,0.395955,1.527630,-2.547143,7.910016,0.014299,-4.440770,-8.583336,-30.709313,0.047211,0.153283,0.000000,0.939634,0.300294,0.000000
3.560000,1.775920,0.576199,-1.495825,1.669429,-0.937605,-0.308641,-1.305282,0.474626,1.526237,-2.587490,7.814853,-0.291178,-3.592810,-10.442599,-30.262702,0.056537,0.156286,0.000000,0.924276,0.298906,0.000000
3.570000,1.792549,0.566846,-1.498835,1.656247,-0.932468,-0.293393,-1.331337,0.552252,1.521807,-2.618999,7.701164,-0.590955,-2.675487,-12.249087,-29.457157,0.065693,0.159270,0.000000,0.905665,0.296238,-0.000000
3.580000,1.809045,0.557549,-1.501693,1.642802,-0.926560,-0.278205,-1.357662,0.628650,1.514418,-2.641000,7.569871,-0.880321,-1.725765,-13.967080,-28.361943,0.074647,0.162223,0.000000,0.884069,0.292327,0.000000
3.590000,1.825405,0.548315,-1.504399,1.629093,-0.919895,-0.263105,-1.384157,0.703649,1.504200,-2.653514,7.421822,-1.158194,-0.801548,-15.632805,-27.339620,0.083372,0.165132,0.000000,0.859745,0.287233,0.000000
3.600000,1.841627,0.539152,-1.506955,1.615119,-0.912487,-0.248121,-1.410732,0.777086,1.491254,-2.657031,7.257215,-1.427114,0.103509,-17.313835,-26.434307,0.091840,0.167987,0.000000,0.832841,0.281005,0.000000
3.610000,1.857707,0.530066,-1.509361,1.600879,-0.904353,-0.233280,-1.437298,0.848794,1.475658,-2.651444,7.075546,-1.686880,1.018961,-18.966006,-25.409404,0.100026,0.170775,0.000000,0.803447,0.273675,0.000000
3.620000,1.873644,0.521064,-1.511620,1.586373,-0.895511,-0.218608,-1.463761,0.918597,1.457516,-2.636652,6.877895,-1.935302,1.909702,-20.379248,-24.204523,0.107907,0.173487,0.000000,0.771870,0.265319,0.000000
3.630000,1.889435,0.512155,-1.513734,1.571603,-0.885981,-0.204129,-1.490031,0.986352,1.436952,-2.613250,6.667961,-2.170970,2.753149,-21.541802,-22.906996,0.115463,0.176112,0.000000,0.738714,0.256082,0.000000
3.640000,1.905076,0.503345,-1.515703,1.556572,-0.875784,-0.189869,-1.516026,1.051956,1.414097,-2.581589,6.447059,-2.393442,3.591310,-22.726047,-21.592187,0.122681,0.178642,0.000000,0.704285,0.246060,0.000000
3.650000,1.920566,0.494640,-1.517531,1.541283,-0.864942,-0.175847,-1.541663,1.115293,1.389083,-2.541424,6.213440,-2.602814,4.462628,-24.025984,-20.268290,0.129548,0.181070,0.000000,0.668522,0.235272,0.000000
3.660000,1.935902,0.486046,-1.519220,1.525739,-0.853478,-0.162087,-1.566855,1.176225,1.362041,-2.492336,5.966539,-2.798808,5.327990,-25.242103,-18.897873,0.136051,0.183388,0.000000,0.631505,0.223721,-0.000000
3.670000,1.951081,0.477570,-1.520773,1.509946,-0.841417,-0.148607,-1.591510,1.234624,1.333107,-2.434864,5.708598,-2.980772,6.074551,-26.138485,-17.464621,0.142179,0.185586,0.000000,0.593625,0.211529,0.000000
3.680000,1.966101,0.469218,-1.522192,1.493909,-0.828786,-0.135425,-1.615552,1.290397,1.302425,-2.370845,5.443770,-3.148100,6.702571,-26.762734,-15.988073,0.147925,0.187661,0.000000,0.555473,0.198956,0.000000
3.690000,1.980959,0.460994,-1.523481,1.477635,-0.815609,-0.122558,-1.638927,1.343499,1.270145,-2.300813,5.173343,-3.300533,7.356779,-27.415722,-14.503572,0.153289,0.189610,0.000000,0.517287,0.186104,0.000000
3.700000,1.995654,0.452905,-1.524643,1.461130,-0.801916,-0.110022,-1.661568,1.393864,1.236415,-2.223710,4.895455,-3.438171,8.078607,-28.177606,-13.032504,0.158272,0.191428,0.000000,0.478941,0.172886,0.000000
3.710000,2.010182,0.444956,-1.525682,1.444403,-0.787732,-0.097830,-1.683401,1.441408,1.201381,-2.139240,4.609791,-3.561183,8.762870,-28.838556,-11.562467,0.162870,0.193111,0.000000,0.440473,0.159297,0.000000
3.720000,2.024542,0.437151,-1.526600,1.427462,-0.773087,-0.085994,-1.704353,1.486060,1.165191,-2.048452,4.318684,-3.669421,9.306786,-29.200171,-10.060099,0.167083,0.194657,0.000000,0.402200,0.145483,-0.000000
3.730000,2.038731,0.429494,-1.527402,1.410316,-0.758011,-0.074526,-1.724370,1.527782,1.127993,-1.953105,4.025788,-3.762385,9.737691,-29.322444,-8.546178,0.170916,0.196063,0.000000,0.364571,0.131672,-0.000000
3.740000,2.052748,0.421991,-1.528090,1.392975,-0.742532,-0.063434,-1.743415,1.566575,1.089943,-1.853699,3.732235,-3.840344,10.183764,-29.460916,-7.080498,0.174376,0.197330,0.000000,0.327728,0.117926,-0.000000
3.750000,2.066591,0.414644,-1.528670,1.375448,-0.726679,-0.052727,-1.761444,1.602426,1.051186,-1.749430,3.436569,-3.903995,10.672570,-29.672712,-5.615879,0.177472,0.198458,0.000000,0.291515,0.104155,-0.000000
3.760000,2.080257,0.407457,-1.529145,1.357746,-0.710483,-0.042411,-1.778404,1.635307,1.011863,-1.640247,3.138781,-3.952662,11.114605,-29.786121,-4.129399,0.180209,0.199447,0.000000,0.255956,0.090379,0.000000
3.770000,2.093745,0.400434,-1.529518,1.339880,-0.693973,-0.032490,-1.794249,1.665202,0.972133,-1.527137,2.840847,-3.986583,11.439891,-29.669439,-2.796236,0.182593,0.200296,0.000000,0.221254,0.076706,0.000000
3.780000,2.107055,0.393578,-1.529795,1.321861,-0.677179,-0.022968,-1.808946,1.692124,0.932132,-1.411449,2.545392,-4.008587,11.673292,-29.379913,-1.648879,0.184636,0.201007,0.000000,0.187620,0.063219,-0.000000
3.790000,2.120183,0.386890,-1.529978,1.303701,-0.660131,-0.013847,-1.822478,1.716110,0.891961,-1.293672,2.253249,-4.019561,11.902562,-29.090014,-0.457197,0.186347,0.201583,0.000000,0.155097,0.049951,-0.000000
3.800000,2.133129,0.380375,-1.530072,1.285412,-0.642857,-0.005129,-1.834820,1.737189,0.851740,-1.173398,1.963592,-4.017731,12.153773,-28.820924,0.861081,0.187739,0.202025,0.000000,0.123610,0.036890,0.000000
3.810000,2.145891,0.374033,-1.530080,1.267005,-0.625387,0.003188,-1.845946,1.755382,0.811607,-1.050596,1.676830,-4.002339,12.366730,-28.463348,2.134662,0.188821,0.202335,0.000000,0.093186,0.024045,0.000000
3.820000,2.158469,0.367867,-1.530008,1.248493,-0.607749,0.011103,-1.855832,1.770725,0.771694,-0.926063,1.394325,-3.975037,12.473352,-27.984378,3.160545,0.189604,0.202515,0.000000,0.063901,0.011455,0.000000
3.830000,2.170861,0.361878,-1.529858,1.229888,-0.589973,0.018621,-1.864467,1.783268,0.732106,-0.801129,1.117143,-3.939128,12.491586,-27.428006,3.979105,0.190101,0.202568,0.000000,0.035757,-0.000821,0.000000
3.840000,2.183066,0.356068,-1.529635,1.211203,-0.572084,0.025745,-1.871854,1.793068,0.692911,-0.676232,0.845765,-3.895455,12.511394,-26.839329,4.846572,0.190321,0.202499,0.000000,0.008747,-0.012769,-0.000000
3.850000,2.195085,0.350437,-1.529343,1.192451,-0.554111,0.032480,-1.877992,1.800184,0.654197,-0.550901,0.580356,-3.842197,12.548188,-26.211757,5.824286,0.190277,0.202309,0.000000,-0.017116,-0.024411,-0.000000
3.860000,2.206915,0.344986,-1.528986,1.173643,-0.536080,0.038829,-1.882872,1.804675,0.616067,-0.425268,0.321530,-3.778969,12.542760,-25.524823,6.732179,0.189980,0.202002,0.000000,-0.041800,-0.035740,-0.000000
3.870000,2.218558,0.339715,-1.528567,1.154793,-0.518018,0.044801,-1.886497,1.806614,0.578617,-0.300046,0.069860,-3.707553,12.466291,-24.809241,7.417218,0.189442,0.201581,0.000000,-0.065327,-0.046733,0.000000
3.880000,2.230011,0.334625,-1.528090,1.135914,-0.499948,0.050402,-1.888873,1.806072,0.541916,-0.175942,-0.174655,-3.630625,12.340449,-24.082014,7.931088,0.188674,0.201051,0.000000,-0.087790,-0.057390,0.000000
3.890000,2.241276,0.329716,-1.527559,1.117016,-0.481896,0.055639,-1.890016,1.803121,0.506005,-0.053237,-0.411781,-3.548931,12.202812,-23.309063,8.466365,0.187686,0.200413,0.000000,-0.109218,-0.067710,0.000000
3.900000,2.252352,0.324987,-1.526977,1.098113,-0.463886,0.060522,-1.889938,1.797837,0.470937,0.068114,-0.640836,-3.461298,12.054353,-22.471131,9.060336,0.186490,0.199673,0.000000,-0.129555,-0.077688,0.000000
3.910000,2.263238,0.320438,-1.526348,1.079217,-0.445939,0.065058,-1.888654,1.790304,0.436779,0.187850,-0.861203,-3.367725,11.873255,-21.600796,9.582165,0.185096,0.198832,0.000000,-0.148775,-0.087313,-0.000000
3.920000,2.273936,0.316068,-1.525676,1.060340,-0.428080,0.069257,-1.886181,1.780613,0.403583,0.305579,-1.072852,-3.269655,11.662836,-20.759304,9.941930,0.183515,0.197896,0.000000,-0.166938,-0.096587,0.000000
3.930000,2.284445,0.311877,-1.524963,1.041494,-0.410327,0.073130,-1.882542,1.768847,0.371386,0.421107,-1.276389,-3.168886,11.433372,-19.945872,10.180242,0.181757,0.196868,0.000000,-0.184168,-0.105542,-0.000000
3.940000,2.294766,0.307862,-1.524213,1.022689,-0.392703,0.076685,-1.877759,1.755085,0.340205,0.534247,-1.471770,-3.066050,11.182350,-19.087839,10.411835,0.179832,0.195750,0.000000,-0.200499,-0.114182,0.000000
3.950000,2.304899,0.304023,-1.523429,1.003938,-0.375226,0.079934,-1.871857,1.739412,0.310065,0.644754,-1.658146,-2.960649,10.908415,-18.162127,10.663151,0.177747,0.194547,0.000000,-0.215865,-0.122484,0.000000
3.960000,2.314845,0.300357,-1.522615,0.985252,-0.357914,0.082886,-1.864864,1.721922,0.280992,0.752415,-1.835012,-2.852787,10.616696,-17.225639,10.859020,0.175514,0.193261,0.000000,-0.230239,-0.130441,0.000000
3.970000,2.324604,0.296864,-1.521772,0.966641,-0.340787,0.085554,-1.856809,1.702712,0.253009,0.857088,-2.002659,-2.743469,10.313877,-16.346508,10.936309,0.173142,0.191897,0.000000,-0.243692,-0.138068,0.000000
3.980000,2.334177,0.293542,-1.520904,0.948116,-0.323860,0.087947,-1.847722,1.681869,0.226123,0.958692,-2.161942,-2.634060,10.001426,-15.514132,10.921136,0.170640,0.190458,0.000000,-0.256349,-0.145393,-0.000000
3.990000,2.343566,0.290387,-1.520013,0.929687,-0.307150,0.090076,-1.837635,1.659473,0.200328,1.057116,-2.312942,-2.525046,9.674445,-14.646541,10.898896,0.168015,0.188947,0.000000,-0.268242,-0.152422,0.000000
4.000000,2.352771,0.287399,-1.519102,0.911363,-0.290671,0.091953,-1.826580,1.635610,0.175622,1.152181,-2.454873,-2.416083,9.328958,-13.722771,10.880948,0.165275,0.187366,0.000000,-0.279300,-0.159138,0.000000
4.010000,2.361793,0.284574,-1.518174,0.893155,-0.274437,0.093589,-1.814591,1.610375,0.152006,1.243695,-2.587397,-2.307427,8.971559,-12.803819,10.814508,0.162429,0.185720,0.000000,-0.289508,-0.165533,-0.000000
4.020000,2.370634,0.281910,-1.517230,0.875071,-0.258463,0.094993,-1.801706,1.583862,0.129473,1.331613,-2.710950,-2.199792,8.619430,-11.949419,10.685180,0.159485,0.184011,0.000000,-0.298927,-0.171621,0.000000
4.030000,2.379295,0.279405,-1.516274,0.857121,-0.242760,0.096178,-1.787959,1.556156,0.108010,1.416084,-2.826385,-2.093724,8.274327,-11.145233,10.516470,0.156450,0.182243,0.000000,-0.307660,-0.177434,0.000000
4.040000,2.387777,0.277055,-1.515307,0.839312,-0.227340,0.097153,-1.773384,1.527334,0.087599,1.497099,-2.933854,-1.989463,7.916551,-10.319141,10.329855,0.153331,0.180418,0.000000,-0.315728,-0.182977,-0.000000
4.050000,2.396081,0.274858,-1.514331,0.821653,-0.212214,0.097930,-1.758017,1.497479,0.068221,1.574415,-3.032768,-1.887127,7.536423,-9.455642,10.115188,0.150135,0.178540,0.000000,-0.323081,-0.188232,-0.000000
4.060000,2.404210,0.272810,-1.513348,0.804152,-0.197391,0.098518,-1.741896,1.466679,0.049856,1.647828,-3.122967,-1.787159,7.150516,-8.606988,9.864850,0.146870,0.176611,0.000000,-0.329711,-0.193189,0.000000
4.070000,2.412164,0.270910,-1.512360,0.786815,-0.182880,0.098927,-1.725060,1.435020,0.032478,1.717425,-3.204908,-1.689830,6.788631,-7.816577,9.616839,0.143541,0.174634,0.000000,-0.335667,-0.197863,-0.000000
4.080000,2.419946,0.269153,-1.511370,0.769651,-0.168690,0.099167,-1.707547,1.402581,0.016060,1.783600,-3.279299,-1.594822,6.448591,-7.070804,9.380619,0.140156,0.172612,0.000000,-0.341014,-0.202290,0.000000
4.090000,2.427557,0.267536,-1.510377,0.752664,-0.154828,0.099248,-1.689388,1.369434,0.000581,1.846397,-3.346324,-1.502217,6.093521,-6.317510,9.109620,0.136720,0.170548,0.000000,-0.345770,-0.206474,0.000000
4.100000,2.434999,0.266056,-1.509385,0.735863,-0.141301,0.099179,-1.670619,1.335654,-0.013985,1.905471,-3.405649,-1.412630,5.716000,-5.546498,8.791104,0.133240,0.168444,0.000000,-0.349909,-0.210394,-0.000000
4.110000,2.442274,0.264710,-1.508394,0.719252,-0.128115,0.098969,-1.651279,1.301321,-0.027671,1.960717,-3.457254,-1.326395,5.343268,-4.794992,8.462403,0.129722,0.166302,0.000000,-0.353429,-0.214043,0.000000
4.120000,2.449384,0.263494,-1.507405,0.702837,-0.115275,0.098626,-1.631405,1.266509,-0.040512,2.012336,-3.501549,-1.243382,4.994904,-4.091740,8.158859,0.126171,0.164126,0.000000,-0.356364,-0.217438,-0.000000
4.130000,2.456331,0.262405,-1.506421,0.686624,-0.102785,0.098158,-1.611032,1.231290,-0.052539,2.060615,-3.539089,-1.163218,4.664115,-3.426604,7.874107,0.122594,0.161919,0.000000,-0.358760,-0.220600,0.000000
4.140000,2.463117,0.261438,-1.505442,0.670617,-0.090649,0.097575,-1.590193,1.195728,-0.063777,2.105618,-3.570081,-1.085900,4.328090,-2.764969,7.567968,0.118996,0.159681,0.000000,-0.360631,-0.223534,0.000000
4.150000,2.469744,0.260592,-1.504470,0.654820,-0.078871,0.096883,-1.568920,1.159888,-0.074257,2.147177,-3.594388,-1.011859,3.980920,-2.100417,7.225058,0.115381,0.157416,0.000000,-0.361964,-0.226229,0.000000
4.160000,2.476213,0.259861,-1.503504,0.639238,-0.067451,0.096090,-1.547249,1.123840,-0.084014,2.185237,-3.612089,-0.941399,3.639585,-1.457353,6.877238,0.111756,0.155126,0.000000,-0.362765,-0.228681,-0.000000
4.170000,2.482528,0.259243,-1.502548,0.623875,-0.056394,0.095203,-1.525215,1.087647,-0.093085,2.219969,-3.623535,-0.874314,3.322340,-0.853711,6.573081,0.108126,0.152813,0.000000,-0.363058,-0.230901,0.000000
4.180000,2.488691,0.258733,-1.501600,0.608734,-0.045699,0.094228,-1.502850,1.051369,-0.101500,2.251683,-3.629163,-0.809937,3.025394,-0.282593,6.307758,0.104495,0.150481,0.000000,-0.362874,-0.232908,-0.000000
4.190000,2.494703,0.258329,-1.500663,0.593818,-0.035366,0.093173,-1.480182,1.015063,-0.109284,2.280477,-3.629187,-0.748159,2.726401,0.277732,6.021087,0.100868,0.148130,0.000000,-0.362226,-0.234706,0.000000
4.200000,2.500567,0.258026,-1.499737,0.579130,-0.025397,0.092042,-1.457240,0.978785,-0.116463,2.306211,-3.623609,-0.689515,2.419555,0.831125,5.695915,0.097250,0.145762,0.000000,-0.361114,-0.236289,0.000000
4.210000,2.506286,0.257821,-1.498822,0.564673,-0.015791,0.090843,-1.434057,0.942591,-0.123074,2.328868,-3.612565,-0.634240,2.121005,1.362476,5.376473,0.093646,0.143381,0.000000,-0.359547,-0.237653,0.000000
4.220000,2.511861,0.257710,-1.497920,0.550449,-0.006545,0.089581,-1.410663,0.906534,-0.129148,2.348632,-3.596359,-0.581986,1.846567,1.861253,5.108714,0.090059,0.140988,0.000000,-0.357546,-0.238810,-0.000000
4.230000,2.517295,0.257690,-1.497031,0.536460,0.002340,0.088260,-1.387085,0.870664,-0.134714,2.365799,-3.575340,-0.532066,1.592176,2.331836,4.881894,0.086495,0.138586,0.000000,-0.355133,-0.239776,0.000000
4.240000,2.522590,0.257757,-1.496155,0.522708,0.010868,0.086887,-1.363347,0.835027,-0.139790,2.380475,-3.549722,-0.484348,1.338149,2.787135,4.639055,0.082956,0.136175,0.000000,-0.352322,-0.240557,0.000000
4.250000,2.527749,0.257907,-1.495293,0.509193,0.019041,0.085465,-1.339475,0.799669,-0.144401,2.392562,-3.519597,-0.439285,1.079661,3.229940,4.367068,0.079448,0.133758,0.000000,-0.349123,-0.241147,-0.000000
4.260000,2.532774,0.258137,-1.494446,0.495918,0.026861,0.083999,-1.315496,0.764635,-0.148575,2.402068,-3.485124,-0.397007,0.830552,3.651404,4.106293,0.075974,0.131336,0.000000,-0.345545,-0.241546,-0.000000
4.270000,2.537667,0.258444,-1.493613,0.482883,0.034333,0.082493,-1.291434,0.729967,-0.152341,2.409173,-3.446569,-0.357159,0.603371,4.044088,3.891019,0.072537,0.128913,0.000000,-0.341607,-0.241765,-0.000000
4.280000,2.542431,0.258824,-1.492796,0.470089,0.041461,0.080952,-1.267312,0.695704,-0.155718,2.414136,-3.404242,-0.319186,0.394282,4.410534,3.710210,0.069142,0.126488,0.000000,-0.337332,-0.241818,0.000000
4.290000,2.547069,0.259274,-1.491994,0.457537,0.048247,0.079379,-1.243151,0.661882,-0.158724,2.417059,-3.358358,-0.282955,0.187399,4.760312,3.521206,0.065790,0.124065,0.000000,-0.332736,-0.241713,0.000000
4.300000,2.551582,0.259789,-1.491208,0.445226,0.054698,0.077777,-1.218971,0.628537,-0.161378,2.417884,-3.309036,-0.248762,-0.020912,5.096097,3.314173,0.062487,0.121643,0.000000,-0.327828,-0.241445,-0.000000
4.310000,2.555973,0.260367,-1.490438,0.433158,0.060818,0.076151,-1.194793,0.595701,-0.163700,2.416640,-3.256436,-0.216671,-0.219795,5.411473,3.118620,0.059234,0.119226,0.000000,-0.322623,-0.241016,-0.000000
4.320000,2.560245,0.261005,-1.489685,0.421331,0.066612,0.074503,-1.170638,0.563408,-0.165711,2.413488,-3.200806,-0.186390,-0.400371,5.699908,2.959933,0.056034,0.116815,0.000000,-0.317138,-0.240435,0.000000
4.330000,2.564400,0.261700,-1.488948,0.409745,0.072086,0.072837,-1.146524,0.531685,-0.167427,2.408633,-3.142438,-0.157473,-0.565927,5.963322,2.829441,0.052891,0.114410,0.000000,-0.311398,-0.239716,0.000000
4.340000,2.568440,0.262447,-1.488228,0.398400,0.077246,0.071155,-1.122466,0.500559,-0.168860,2.402169,-3.081540,-0.129801,-0.727948,6.210519,2.694729,0.049806,0.112014,0.000000,-0.305420,-0.238866,0.000000
4.350000,2.572368,0.263245,-1.487525,0.387296,0.082097,0.069460,-1.098480,0.470055,-0.170023,2.394074,-3.018228,-0.103578,-0.889121,6.444021,2.549195,0.046783,0.109627,0.000000,-0.299214,-0.237883,0.000000
4.360000,2.576186,0.264089,-1.486839,0.376430,0.086647,0.067754,-1.074584,0.440195,-0.170932,2.384387,-2.952659,-0.078817,-1.041884,6.658107,2.414538,0.043822,0.107251,0.000000,-0.292795,-0.236770,0.000000
4.370000,2.579897,0.264978,-1.486170,0.365804,0.090901,0.066041,-1.050793,0.411001,-0.171600,2.373236,-2.885066,-0.055287,-1.180034,6.847247,2.306062,0.040927,0.104887,0.000000,-0.286181,-0.235534,0.000000
4.380000,2.583502,0.265907,-1.485518,0.355415,0.094867,0.064322,-1.027119,0.382493,-0.172038,2.360786,-2.815714,-0.032696,-1.306088,7.013299,2.216439,0.038098,0.102536,0.000000,-0.279396,-0.234189,0.000000
4.390000,2.587005,0.266875,-1.484884,0.345261,0.098551,0.062600,-1.003577,0.354687,-0.172254,2.347115,-2.744800,-0.010959,-1.428428,7.163980,2.125747,0.035339,0.100199,0.000000,-0.272459,-0.232740,0.000000
4.400000,2.590407,0.267878,-1.484266,0.335343,0.101961,0.060877,-0.980177,0.327597,-0.172257,2.332218,-2.672435,0.009819,-1.548791,7.301798,2.031950,0.032649,0.097878,0.000000,-0.265380,-0.231186,0.000000
4.410000,2.593712,0.268914,-1.483666,0.325658,0.105103,0.059155,-0.956932,0.301238,-0.172057,2.316139,-2.598764,0.029680,-1.661921,7.421928,1.947571,0.030031,0.095573,0.000000,-0.258172,-0.229531,-0.000000
4.420000,2.596920,0.269980,-1.483083,0.316204,0.107986,0.057436,-0.933854,0.275622,-0.171663,2.298979,-2.523996,0.048771,-1.764577,7.519064,1.875434,0.027486,0.093285,0.000000,-0.250854,-0.227783,0.000000
4.430000,2.600036,0.271074,-1.482517,0.306981,0.110616,0.055722,-0.910953,0.250758,-0.171082,2.280847,-2.448382,0.067189,-1.858777,7.594911,1.810512,0.025014,0.091016,0.000000,-0.243450,-0.225949,0.000000
4.440000,2.603060,0.272193,-1.481969,0.297985,0.113001,0.054014,-0.888237,0.226654,-0.170320,2.261804,-2.372098,0.084981,-1.949204,7.657160,1.748862,0.022617,0.088765,0.000000,-0.235977,-0.224036,0.000000
4.450000,2.605996,0.273334,-1.481437,0.289216,0.115149,0.052316,-0.865717,0.203316,-0.169382,2.241863,-2.295239,0.102166,-2.036937,7.708240,1.690831,0.020295,0.086534,0.000000,-0.228445,-0.222044,0.000000
4.460000,2.608844,0.274496,-1.480922,0.280671,0.117067,0.050627,-0.843400,0.180750,-0.168276,2.221065,-2.217933,0.118797,-2.119361,7.743504,1.637944,0.018048,0.084323,0.000000,-0.220864,-0.219976,0.000000
4.470000,2.611609,0.275675,-1.480425,0.272348,0.118764,0.048950,-0.821296,0.158958,-0.167006,2.199476,-2.140369,0.134925,-2.194828,7.758309,1.588067,0.015877,0.082134,0.000000,-0.213254,-0.217837,0.000000
4.480000,2.614291,0.276871,-1.479943,0.264245,0.120246,0.047287,-0.799411,0.137942,-0.165578,2.177168,-2.062767,0.150559,-2.264607,7.754518,1.539561,0.013783,0.079966,0.000000,-0.205636,-0.215635,0.000000
4.490000,2.616894,0.278080,-1.479479,0.256360,0.121523,0.045638,-0.777752,0.117702,-0.163995,2.154184,-1.985279,0.165716,-2.331531,7.739106,1.494306,0.011765,0.077821,0.000000,-0.198024,-0.213372,0.000000
4.500000,2.619419,0.279301,-1.479031,0.248690,0.122600,0.044007,-0.756327,0.098237,-0.162263,2.130538,-1.907985,0.180445,-2.396299,7.713898,1.454168,0.009822,0.075698,0.000000,-0.190428,-0.211050,0.000000
4.510000,2.621868,0.280532,-1.478599,0.241233,0.123487,0.042393,-0.735141,0.079543,-0.160386,2.106258,-1.831001,0.194800,-2.457612,7.674917,1.416747,0.007956,0.073599,0.000000,-0.182857,-0.208670,0.000000
4.520000,2.624243,0.281771,-1.478183,0.233987,0.124191,0.040799,-0.714202,0.061617,-0.158367,2.081385,-1.754487,0.208780,-2.515003,7.619433,1.375364,0.006165,0.071525,0.000000,-0.175328,-0.206236,0.000000
4.530000,2.626547,0.283016,-1.477783,0.226949,0.124720,0.039226,-0.693514,0.044453,-0.156211,2.055958,-1.678612,0.222307,-2.569553,7.549298,1.329505,0.004450,0.069475,0.000000,-0.167858,-0.203752,0.000000
4.540000,2.628782,0.284265,-1.477398,0.220117,0.125080,0.037675,-0.673083,0.028044,-0.153921,2.029994,-1.603501,0.235370,-2.622587,7.469058,1.287093,0.002808,0.067450,0.000000,-0.160459,-0.201220,0.000000
4.550000,2.630950,0.285518,-1.477029,0.213488,0.125280,0.036147,-0.652914,0.012383,-0.151503,2.003506,-1.529231,0.248049,-2.673421,7.379968,1.251478,0.001240,0.065450,0.000000,-0.153138,-0.198639,0.000000
4.560000,2.633052,0.286771,-1.476675,0.207059,0.125328,0.034645,-0.633012,-0.002540,-0.148960,1.976526,-1.455901,0.260400,-2.721901,7.279821,1.216258,-0.000255,0.063477,0.000000,-0.145905,-0.196013,0.000000
4.570000,2.635091,0.288024,-1.476336,0.200827,0.125230,0.033168,-0.613383,-0.016735,-0.146295,1.949068,-1.383634,0.272374,-2.771426,7.167295,1.171573,-0.001678,0.061530,0.000000,-0.138773,-0.193343,0.000000
4.580000,2.637069,0.289276,-1.476012,0.194791,0.124993,0.031719,-0.594031,-0.030213,-0.143513,1.921097,-1.312555,0.283831,-2.822774,7.043798,1.118331,-0.003030,0.059610,0.000000,-0.131754,-0.190625,0.000000
4.590000,2.638987,0.290524,-1.475702,0.188947,0.124625,0.030298,-0.574961,-0.042986,-0.140619,1.892613,-1.242759,0.294741,-2.872054,6.912184,1.068724,-0.004313,0.057717,0.000000,-0.124857,-0.187860,0.000000
4.600000,2.640847,0.291768,-1.475406,0.183292,0.124133,0.028907,-0.556179,-0.055068,-0.137618,1.863656,-1.174312,0.305205,-2.918283,6.773218,1.026630,-0.005527,0.055853,0.000000,-0.118089,-0.185050,-0.000000
4.610000,2.642653,0.293007,-1.475124,0.177823,0.123524,0.027546,-0.537688,-0.066472,-0.134515,1.834247,-1.107294,0.315273,-2.964752,6.625915,0.983042,-0.006674,0.054016,0.000000,-0.111457,-0.182197,-0.000000
4.620000,2.644404,0.294239,-1.474855,0.172538,0.122804,0.026216,-0.519494,-0.077214,-0.131312,1.804361,-1.041793,0.324866,-3.014627,6.470349,0.927408,-0.007756,0.052209,0.000000,-0.104971,-0.179299,0.000000
4.630000,2.646103,0.295463,-1.474600,0.167433,0.121980,0.024919,-0.501601,-0.087308,-0.128017,1.773954,-0.977887,0.333821,-3.067389,6.307694,0.862040,-0.008774,0.050430,0.000000,-0.098639,-0.176350,0.000000
4.640000,2.647753,0.296678,-1.474357,0.162506,0.121058,0.023656,-0.484015,-0.096772,-0.124636,1.743014,-0.915639,0.342107,-3.119677,6.139014,0.800122,-0.009729,0.048681,0.000000,-0.092466,-0.173351,-0.000000
4.650000,2.649353,0.297884,-1.474126,0.157753,0.120044,0.022427,-0.466741,-0.105621,-0.121175,1.711561,-0.855107,0.349824,-3.170986,5.964178,0.743229,-0.010623,0.046963,0.000000,-0.086458,-0.170301,0.000000
4.660000,2.650908,0.299079,-1.473908,0.153171,0.118945,0.021232,-0.449784,-0.113874,-0.117640,1.679594,-0.796356,0.356972,-3.224118,5.783480,0.682186,-0.011458,0.045275,0.000000,-0.080622,-0.167200,0.000000
4.670000,2.652417,0.300263,-1.473702,0.148757,0.117767,0.020074,-0.433149,-0.121548,-0.114036,1.647078,-0.739437,0.363468,-3.281241,5.599404,0.613484,-0.012236,0.043619,0.000000,-0.074963,-0.164045,-0.000000
4.680000,2.653883,0.301434,-1.473507,0.144508,0.116514,0.018952,-0.416842,-0.128662,-0.110370,1.613969,-0.684368,0.369241,-3.341966,5.412879,0.539703,-0.012957,0.041994,0.000000,-0.069484,-0.160831,0.000000
4.690000,2.655307,0.302593,-1.473323,0.140420,0.115194,0.017866,-0.400869,-0.135235,-0.106651,1.580239,-0.631180,0.374262,-3.404165,5.221723,0.464667,-0.013625,0.040402,0.000000,-0.064186,-0.157554,0.000000
4.700000,2.656691,0.303738,-1.473149,0.136491,0.113810,0.016819,-0.385237,-0.141286,-0.102885,1.545886,-0.579933,0.378535,-3.466976,5.024676,0.390550,-0.014241,0.038843,0.000000,-0.059076,-0.154215,0.000000
4.710000,2.658037,0.304869,-1.472986,0.132716,0.112368,0.015809,-0.369952,-0.146834,-0.099080,1.510900,-0.530686,0.382073,-3.532361,4.824251,0.314532,-0.014807,0.037317,0.000000,-0.054161,-0.150810,0.000000
4.720000,2.659346,0.305986,-1.472833,0.129092,0.110873,0.014837,-0.355019,-0.151900,-0.095244,1.475239,-0.483448,0.384825,-3.603607,4.625566,0.229666,-0.015324,0.035826,0.000000,-0.049441,-0.147336,-0.000000
4.730000,2.660619,0.307087,-1.472690,0.125615,0.109330,0.013904,-0.340447,-0.156503,-0.091384,1.438828,-0.438175,0.386666,-3.680570,4.429066,0.136468,-0.015796,0.034370,0.000000,-0.044912,-0.143785,0.000000
4.740000,2.661858,0.308172,-1.472555,0.122283,0.107743,0.013009,-0.326243,-0.160663,-0.087510,1.401627,-0.394867,0.387555,-3.759454,4.228974,0.044206,-0.016222,0.032950,0.000000,-0.040573,-0.140153,-0.000000
4.750000,2.663064,0.309242,-1.472429,0.119091,0.106117,0.012154,-0.312414,-0.164400,-0.083633,1.363638,-0.353595,0.387550,-3.839148,4.021893,-0.045317,-0.016607,0.031567,0.000000,-0.036434,-0.136438,-0.000000
4.760000,2.664240,0.310295,-1.472312,0.116035,0.104455,0.011337,-0.298970,-0.167735,-0.079759,1.324844,-0.314429,0.386648,-3.922626,3.812784,-0.138432,-0.016951,0.030221,0.000000,-0.032500,-0.132639,-0.000000
4.770000,2.665385,0.311331,-1.472203,0.113111,0.102762,0.010558,-0.285918,-0.170689,-0.075900,1.285186,-0.277340,0.384781,-4.013404,3.612236,-0.238594,-0.017257,0.028914,0.000000,-0.028770,-0.128749,-0.000000
4.780000,2.666502,0.312350,-1.472101,0.110316,0.101041,0.009819,-0.273266,-0.173282,-0.072064,1.244576,-0.242184,0.381877,-4.110940,3.420741,-0.343370,-0.017527,0.027646,0.000000,-0.025228,-0.124760,0.000000
4.790000,2.667591,0.313352,-1.472006,0.107646,0.099296,0.009117,-0.261026,-0.175533,-0.068262,1.202967,-0.208925,0.377914,-4.211058,3.224742,-0.448524,-0.017762,0.026418,0.000000,-0.021872,-0.120665,0.000000
4.800000,2.668655,0.314336,-1.471919,0.105096,0.097531,0.008453,-0.249207,-0.177461,-0.064505,1.160355,-0.177690,0.372906,-4.312993,3.013995,-0.555958,-0.017964,0.025232,0.000000,-0.018714,-0.116464,0.000000
4.810000,2.669693,0.315302,-1.471837,0.102662,0.095747,0.007827,-0.237819,-0.179086,-0.060804,1.116707,-0.148645,0.366795,-4.419867,2.798934,-0.668208,-0.018136,0.024089,0.000000,-0.015773,-0.112154,0.000000
4.820000,2.670708,0.316251,-1.471762,0.100339,0.093949,0.007237,-0.226873,-0.180433,-0.057169,1.071958,-0.121711,0.359542,-4.533909,2.607895,-0.779507,-0.018279,0.022989,0.000000,-0.013039,-0.107726,0.000000
4.830000,2.671700,0.317181,-1.471693,0.098124,0.092138,0.006684,-0.216380,-0.181521,-0.053613,1.026029,-0.096487,0.351205,-4.654302,2.438503,-0.888691,-0.018397,0.021934,0.000000,-0.010473,-0.103173,0.000000
4.840000,2.672671,0.318093,-1.471628,0.096012,0.090318,0.006165,-0.206352,-0.182363,-0.050145,0.978872,-0.072941,0.341768,-4.778616,2.252985,-1.003758,-0.018489,0.020925,0.000000,-0.008072,-0.098490,-0.000000
4.850000,2.673620,0.318987,-1.471569,0.093997,0.088491,0.005681,-0.196802,-0.182980,-0.046778,0.930457,-0.051427,0.331130,-4.906884,2.048158,-1.125560,-0.018558,0.019964,0.000000,-0.005873,-0.093673,-0.000000
4.860000,2.674550,0.319863,-1.471515,0.092076,0.086659,0.005230,-0.187743,-0.183392,-0.043523,0.880734,-0.031978,0.319257,-5.040926,1.849468,-1.248631,-0.018606,0.019051,0.000000,-0.003878,-0.088718,0.000000
4.870000,2.675462,0.320721,-1.471465,0.090242,0.084823,0.004810,-0.179188,-0.183619,-0.040393,0.829638,-0.014438,0.306157,-5.181006,1.658912,-1.372519,-0.018636,0.018189,0.000000,-0.002072,-0.083616,0.000000
4.880000,2.676355,0.321560,-1.471419,0.088492,0.082986,0.004422,-0.171150,-0.183680,-0.037400,0.777114,0.001201,0.291806,-5.326681,1.467468,-1.499107,-0.018648,0.017378,0.000000,-0.000456,-0.078363,0.000000
4.890000,2.677232,0.322380,-1.471376,0.086819,0.081150,0.004062,-0.163645,-0.183595,-0.034556,0.723105,0.014911,0.276175,-5.478017,1.274381,-1.628531,-0.018645,0.016621,0.000000,0.000968,-0.072953,0.000000
4.900000,2.678092,0.323183,-1.471337,0.085219,0.079315,0.003731,-0.156688,-0.183382,-0.031876,0.667553,0.026688,0.259236,-5.635189,1.080663,-1.760556,-0.018628,0.015919,0.000000,0.002200,-0.067380,-0.000000
4.910000,2.678936,0.323967,-1.471302,0.083686,0.077482,0.003425,-0.150294,-0.183061,-0.029372,0.610401,0.036525,0.240964,-5.798343,0.886200,-1.895158,-0.018601,0.015274,0.000000,0.003237,-0.061637,0.000000
4.920000,2.679765,0.324732,-1.471269,0.082213,0.075653,0.003143,-0.144480,-0.182652,-0.027057,0.551587,0.044412,0.221333,-5.967611,0.690803,-2.032342,-0.018564,0.014686,0.000000,0.004080,-0.055720,-0.000000
4.930000,2.680580,0.325480,-1.471239,0.080796,0.073829,0.002884,-0.139263,-0.182173,-0.024945,0.491049,0.050341,0.200317,-6.143127,0.494279,-2.172138,-0.018519,0.014159,0.000000,0.004726,-0.049622,0.000000
4.940000,2.681381,0.326209,-1.471211,0.079428,0.072010,0.002644,-0.134659,-0.181645,-0.023050,0.428724,0.054298,0.177890,-6.324985,0.296439,-2.314544,-0.018469,0.013694,0.000000,0.005175,-0.043337,0.000000
4.950000,2.682169,0.326920,-1.471186,0.078103,0.070196,0.002423,-0.130688,-0.181087,-0.021387,0.364549,0.056269,0.154026,-6.513266,0.097099,-2.459550,-0.018416,0.013292,0.000000,0.005424,-0.036859,-0.000000
4.960000,2.682943,0.327613,-1.471163,0.076814,0.068388,0.002217,-0.127368,-0.180520,-0.019970,0.298459,0.056240,0.128699,-6.708153,-0.103935,-2.607183,-0.018361,0.012956,0.000000,0.005471,-0.030182,0.000000
4.970000,2.683705,0.328288,-1.471141,0.075555,0.066586,0.002023,-0.124719,-0.179962,-0.018813,0.230386,0.054191,0.101882,68.597242,111.276567,7.853942,-0.018306,0.012688,0.000000,0.005316,-0.023301,-0.000000
4.980000,2.684454,0.328945,-1.471122,0.074320,0.064789,0.001840,-0.122760,-0.179436,-0.017932,1.670403,2.281771,0.285778,143.718876,222.201898,18.154551,-0.018254,0.012490,0.000000,0.231507,-0.169547,0.000000
4.990000,2.685192,0.329583,-1.471105,0.073100,0.062997,0.001665,-0.091311,-0.134327,-0.013098,3.104763,4.498229,0.464973,69.708089,110.190159,8.035586,-0.013673,0.009295,0.000000,0.457131,-0.315571,0.000000
5.000000,2.685916,0.330205,-1.471089,0.072494,0.062102,0.001578,-0.060665,-0.089471,-0.008633,3.064565,4.485574,0.446489,-4.019814,-1.265442,-1.848385,-0.009112,0.006179,0.000000,0.456365,-0.311811,0.000000
