time,x,y,z,vx,vy,vz,ax,ay,az,jx,jy,jz,sx,sy,sz,roll,pitch,yaw,p,q,r
0.000000,-3.040397,-0.823184,-1.312871,0.001581,-0.002279,-0.026359,0.067918,-0.005291,0.066381,3.583085,-0.269760,2.843572,23.648165,-0.434687,-42.819888,-0.000543,-0.006970,0.000000,-0.027842,-0.369753,-0.000000
0.010000,-3.040381,-0.823207,-1.313135,0.002260,-0.002332,-0.025695,0.103749,-0.007989,0.094817,3.819567,-0.274107,2.415373,-49.412363,6.170917,-131.041742,-0.000822,-0.010679,0.000000,-0.028414,-0.395764,0.000000
0.020000,-3.040352,-0.823231,-1.313385,0.003656,-0.002438,-0.024462,0.144309,-0.010774,0.114689,2.594838,-0.146342,0.222737,-125.380152,13.143102,-190.147469,-0.001111,-0.014883,0.000000,-0.015113,-0.267921,-0.000000
0.030000,-3.040308,-0.823256,-1.313624,0.005146,-0.002547,-0.023401,0.155646,-0.010916,0.099272,1.311964,-0.011245,-1.387577,-47.232002,7.039250,-66.694717,-0.001124,-0.016027,0.000000,-0.000995,-0.132780,-0.000000
0.040000,-3.040249,-0.823282,-1.313853,0.006769,-0.002657,-0.022477,0.170549,-0.010998,0.086937,1.650198,-0.005557,-1.111157,32.009002,0.546872,24.664124,-0.001131,-0.017539,0.000000,-0.000439,-0.167664,0.000000
0.050000,-3.040173,-0.823309,-1.314074,0.008557,-0.002767,-0.021662,0.188650,-0.011027,0.077048,1.952144,-0.000308,-0.894294,28.440105,0.514790,19.105724,-0.001133,-0.019380,0.000000,0.000077,-0.198715,0.000000
0.060000,-3.040078,-0.823337,-1.314287,0.010542,-0.002877,-0.020936,0.209592,-0.011005,0.069051,2.219000,0.004739,-0.729043,24.992984,0.505203,14.315841,-0.001129,-0.021513,0.000000,0.000576,-0.226086,0.000000
0.070000,-3.039962,-0.823366,-1.314493,0.012749,-0.002987,-0.020281,0.233030,-0.010932,0.062468,2.452004,0.009797,-0.607977,21.671482,0.515880,10.242836,-0.001121,-0.023902,0.000000,0.001081,-0.249917,-0.000000
0.080000,-3.039823,-0.823397,-1.314692,0.015202,-0.003096,-0.019687,0.258632,-0.010809,0.056892,2.652430,0.015057,-0.524186,18.479401,0.544596,6.835076,-0.001108,-0.026512,0.000000,0.001611,-0.270342,0.000000
0.090000,-3.039658,-0.823428,-1.314886,0.017922,-0.003203,-0.019144,0.286078,-0.010631,0.051984,2.821592,0.020688,-0.471276,15.420599,0.589119,4.040924,-0.001089,-0.029309,0.000000,0.002181,-0.287493,0.000000
0.100000,-3.039465,-0.823461,-1.315075,0.020924,-0.003309,-0.018647,0.315064,-0.010395,0.047466,2.960842,0.026839,-0.443368,12.498951,0.647218,1.808746,-0.001064,-0.032262,0.000000,0.002806,-0.301506,0.000000
0.110000,-3.039240,-0.823494,-1.315259,0.024223,-0.003411,-0.018194,0.345295,-0.010094,0.043117,3.071571,0.033633,-0.435101,9.718245,0.716665,0.086899,-0.001033,-0.035339,0.000000,0.003499,-0.312523,0.000000
0.120000,-3.038980,-0.823529,-1.315439,0.027830,-0.003510,-0.017785,0.376495,-0.009722,0.038764,3.155207,0.041172,-0.441630,7.082359,0.795227,-1.176229,-0.000994,-0.038512,0.000000,0.004268,-0.320690,-0.000000
0.130000,-3.038683,-0.823565,-1.315615,0.031753,-0.003606,-0.017419,0.408399,-0.009271,0.034284,3.213218,0.049537,-0.458625,4.595156,0.880674,-2.032276,-0.000948,-0.041753,0.000000,0.005120,-0.326164,0.000000
0.140000,-3.038345,-0.823601,-1.315787,0.035998,-0.003696,-0.017099,0.440759,-0.008732,0.029592,3.247110,0.058786,-0.482275,2.260298,0.970781,-2.532962,-0.000892,-0.045035,0.000000,0.006062,-0.329111,0.000000
0.150000,-3.037963,-0.823639,-1.315957,0.040568,-0.003780,-0.016827,0.473341,-0.008095,0.024638,3.258424,0.068953,-0.509285,0.081748,1.063314,-2.729856,-0.000826,-0.048335,0.000000,0.007094,-0.329700,0.000000
0.160000,-3.037534,-0.823677,-1.316124,0.045465,-0.003858,-0.016606,0.505928,-0.007352,0.019406,3.248745,0.080052,-0.536872,-1.936447,1.156037,-2.674497,-0.000750,-0.051629,0.000000,0.008219,-0.328113,0.000000
0.170000,-3.037054,-0.823716,-1.316289,0.050686,-0.003927,-0.016439,0.538316,-0.006494,0.013901,3.219695,0.092074,-0.562775,-3.787858,1.246408,-2.426483,-0.000662,-0.054897,0.000000,0.009435,-0.324534,0.000000
0.180000,-3.036520,-0.823755,-1.316453,0.056231,-0.003988,-0.016328,0.570322,-0.005511,0.008150,3.172987,0.104980,-0.585402,-5.419141,1.326632,-2.174454,-0.000561,-0.058120,0.000000,0.010736,-0.319158,0.000000
0.190000,-3.035929,-0.823796,-1.316616,0.062093,-0.004038,-0.016276,0.601776,-0.004395,0.002193,3.111312,0.118606,-0.606264,-6.843418,1.396398,-1.922593,-0.000447,-0.061280,0.000000,0.012107,-0.312260,0.000000
0.200000,-3.035278,-0.823836,-1.316778,0.068266,-0.004076,-0.016284,0.632548,-0.003139,-0.003975,3.036119,0.132908,-0.623854,-8.422749,1.494563,-0.711846,-0.000319,-0.064365,0.000000,0.013541,-0.304007,0.000000
0.210000,-3.034564,-0.823877,-1.316941,0.074744,-0.004100,-0.016356,0.662498,-0.001736,-0.010284,2.942857,0.148498,-0.620501,-10.114132,1.614499,1.297837,-0.000176,-0.067360,0.000000,0.015102,-0.294070,-0.000000
0.220000,-3.033783,-0.823918,-1.317105,0.081516,-0.004110,-0.016490,0.691405,-0.000169,-0.016385,2.833836,0.165198,-0.597897,-10.865498,1.636144,1.156692,-0.000017,-0.070246,0.000000,0.016772,-0.282710,0.000000
0.230000,-3.032934,-0.823959,-1.317271,0.088572,-0.004104,-0.016683,0.719175,0.001568,-0.022242,2.725547,0.181221,-0.597367,-10.669006,1.554773,-1.241102,0.000159,-0.073015,0.000000,0.018369,-0.271310,0.000000
0.240000,-3.032012,-0.824000,-1.317439,0.095900,-0.004079,-0.016935,0.745916,0.003455,-0.028332,2.620456,0.196294,-0.622719,-10.972061,1.531845,-1.923219,0.000350,-0.075673,0.000000,0.019866,-0.260058,-0.000000
0.250000,-3.031016,-0.824041,-1.317610,0.103490,-0.004035,-0.017250,0.771584,0.005493,-0.034696,2.506106,0.211857,-0.635831,-11.813228,1.584899,-0.506161,0.000556,-0.078216,0.000000,0.021407,-0.247979,-0.000000
0.260000,-3.029942,-0.824081,-1.317784,0.111332,-0.003969,-0.017629,0.796038,0.007693,-0.041049,2.384192,0.227992,-0.632843,-12.233581,1.602823,0.285900,0.000778,-0.080632,0.000000,0.023004,-0.235296,-0.000000
0.270000,-3.028789,-0.824120,-1.317962,0.119411,-0.003881,-0.018071,0.819268,0.010053,-0.047353,2.261434,0.243914,-0.630113,-12.472108,1.567549,0.158894,0.001016,-0.082922,0.000000,0.024576,-0.222566,-0.000000
0.280000,-3.027554,-0.824159,-1.318145,0.127717,-0.003768,-0.018576,0.841267,0.012571,-0.053651,2.134750,0.259343,-0.629665,-12.898424,1.515979,0.048083,0.001270,-0.085084,0.000000,0.026094,-0.209457,0.000000
0.290000,-3.026235,-0.824196,-1.318334,0.136236,-0.003629,-0.019144,0.861963,0.015240,-0.059947,2.003466,0.274233,-0.629151,-13.117690,1.462340,0.096903,0.001538,-0.087111,0.000000,0.027555,-0.195925,0.000000
0.300000,-3.024829,-0.824231,-1.318528,0.144956,-0.003463,-0.019775,0.881336,0.018056,-0.066234,1.872396,0.288589,-0.627727,-12.981435,1.409507,0.195847,0.001821,-0.089002,0.000000,0.028959,-0.182461,-0.000000
0.310000,-3.023335,-0.824265,-1.318729,0.153863,-0.003268,-0.020469,0.899411,0.021012,-0.072501,1.743837,0.302424,-0.625235,-12.793018,1.348536,0.279572,0.002117,-0.090760,0.000000,0.030309,-0.169296,0.000000
0.320000,-3.021752,-0.824296,-1.318938,0.162944,-0.003043,-0.021225,0.916213,0.024104,-0.078739,1.616535,0.315560,-0.622135,-12.794716,1.258457,0.312158,0.002427,-0.092388,0.000000,0.031587,-0.156301,0.000000
0.330000,-3.020077,-0.824326,-1.319154,0.172187,-0.002786,-0.022043,0.931742,0.027323,-0.084944,1.487943,0.327593,-0.618991,-12.905528,1.140800,0.311926,0.002749,-0.093887,0.000000,0.032752,-0.143213,0.000000
0.340000,-3.018308,-0.824352,-1.319379,0.181579,-0.002497,-0.022924,0.945972,0.030656,-0.091119,1.358425,0.338376,-0.615897,-12.837300,1.024056,0.323531,0.003082,-0.095253,0.000000,0.033790,-0.130068,0.000000
0.350000,-3.016445,-0.824376,-1.319612,0.191107,-0.002173,-0.023866,0.958910,0.034091,-0.097262,1.231197,0.348074,-0.612521,-12.538823,0.916618,0.354425,0.003425,-0.096488,0.000000,0.034719,-0.117190,0.000000
0.360000,-3.014486,-0.824396,-1.319856,0.200757,-0.001815,-0.024869,0.970596,0.037617,-0.103369,1.107648,0.356708,-0.608808,-12.216394,0.799184,0.375339,0.003777,-0.097597,0.000000,0.035540,-0.104715,0.000000
0.370000,-3.012430,-0.824412,-1.320110,0.210519,-0.001421,-0.025933,0.981063,0.041225,-0.109438,0.986869,0.364058,-0.605014,-12.019201,0.653509,0.368185,0.004136,-0.098583,0.000000,0.036232,-0.092550,-0.000000
0.380000,-3.010276,-0.824424,-1.320375,0.220379,-0.000990,-0.027058,0.990333,0.044899,-0.115469,0.867264,0.369779,-0.601444,-11.891193,0.485750,0.343186,0.004501,-0.099448,0.000000,0.036762,-0.080529,-0.000000
0.390000,-3.008022,-0.824432,-1.320651,0.230325,-0.000523,-0.028242,0.998409,0.048620,-0.121467,0.749045,0.373773,-0.598150,-11.656214,0.320302,0.324119,0.004871,-0.100193,0.000000,0.037119,-0.068672,0.000000
0.400000,-3.005669,-0.824435,-1.320939,0.240347,-0.000018,-0.029487,1.005314,0.052374,-0.127432,0.634140,0.376185,-0.594962,-11.284318,0.162077,0.313441,0.005244,-0.100821,0.000000,0.037318,-0.057171,-0.000000
0.410000,-3.003215,-0.824432,-1.321241,0.250432,0.000525,-0.030791,1.011091,0.056144,-0.133366,0.523359,0.377014,-0.591881,-10.901231,-0.004575,0.296643,0.005617,-0.101337,0.000000,0.037360,-0.046104,0.000000
0.420000,-3.000660,-0.824424,-1.321555,0.260569,0.001105,-0.032154,1.015781,0.059914,-0.139270,0.416115,0.376093,-0.589029,-10.596424,-0.189167,0.270716,0.005991,-0.101744,0.000000,0.037228,-0.035410,0.000000
0.430000,-2.998004,-0.824410,-1.321884,0.270747,0.001723,-0.033576,1.019414,0.063666,-0.145147,0.311430,0.373231,-0.586467,-10.335551,-0.385802,0.242082,0.006362,-0.102045,0.000000,0.036904,-0.024988,-0.000000
0.440000,-2.995245,-0.824390,-1.322227,0.280957,0.002378,-0.035057,1.022010,0.067379,-0.150999,0.209404,0.368377,-0.584188,-10.013115,-0.581307,0.215468,0.006729,-0.102243,0.000000,0.036382,-0.014848,0.000000
0.450000,-2.992385,-0.824362,-1.322585,0.291187,0.003071,-0.036596,1.023602,0.071034,-0.156830,0.111168,0.361605,-0.582158,-9.611361,-0.774134,0.188933,0.007090,-0.102342,0.000000,0.035671,-0.005101,0.000000
0.460000,-2.989422,-0.824328,-1.322959,0.301429,0.003799,-0.038194,1.024233,0.074611,-0.162642,0.017177,0.352894,-0.580409,-9.205524,-0.971833,0.161181,0.007442,-0.102345,0.000000,0.034769,0.004210,-0.000000
0.470000,-2.986356,-0.824286,-1.323349,0.311672,0.004563,-0.039849,1.023945,0.078091,-0.168439,-0.072943,0.342168,-0.578934,-8.848878,-1.175517,0.140071,0.007785,-0.102258,0.000000,0.033668,0.013125,-0.000000
0.480000,-2.983188,-0.824237,-1.323756,0.321908,0.005361,-0.041563,1.022774,0.081454,-0.174221,-0.159800,0.329384,-0.577607,-8.520842,-1.381363,0.128140,0.008116,-0.102083,0.000000,0.032365,0.021703,0.000000
0.490000,-2.979918,-0.824179,-1.324180,0.332128,0.006192,-0.043334,1.020749,0.084679,-0.179991,-0.243360,0.314541,-0.576371,-8.158616,-1.586830,0.116289,0.008432,-0.101824,0.000000,0.030860,0.029942,0.000000
0.500000,-2.976546,-0.824113,-1.324622,0.342323,0.007054,-0.045162,1.017907,0.087745,-0.185749,-0.322973,0.297648,-0.575282,-7.751568,-1.792977,0.099585,0.008733,-0.101484,0.000000,0.029153,0.037779,0.000000
0.510000,-2.973072,-0.824038,-1.325083,0.352486,0.007947,-0.047049,1.014290,0.090632,-0.191496,-0.398391,0.278681,-0.574380,-7.344491,-1.999977,0.085994,0.009015,-0.101068,0.000000,0.027243,0.045191,0.000000
0.520000,-2.969496,-0.823954,-1.325563,0.362609,0.008867,-0.048992,1.009939,0.093319,-0.197236,-0.469862,0.257648,-0.573562,-6.969264,-2.202467,0.090521,0.009278,-0.100580,0.000000,0.025131,0.052203,0.000000
0.530000,-2.965819,-0.823861,-1.326063,0.372685,0.009813,-0.050993,1.004893,0.095785,-0.202968,-0.537776,0.234632,-0.572569,-6.613448,-2.398792,0.112696,0.009518,-0.100024,0.000000,0.022826,0.058851,-0.000000
0.540000,-2.962042,-0.823758,-1.326583,0.382707,0.010783,-0.053052,0.999184,0.098011,-0.208687,-0.602131,0.209672,-0.571308,-6.239474,-2.594700,0.134040,0.009734,-0.099403,0.000000,0.020331,0.065137,0.000000
0.550000,-2.958165,-0.823645,-1.327124,0.392668,0.011773,-0.055167,0.992850,0.099978,-0.214394,-0.662566,0.182738,-0.569888,-5.842106,-2.792979,0.147972,0.009925,-0.098721,0.000000,0.017644,0.071026,-0.000000
0.560000,-2.954189,-0.823522,-1.327686,0.402564,0.012782,-0.057340,0.985932,0.101666,-0.220085,-0.718974,0.153813,-0.568348,-5.447995,-2.988253,0.168449,0.010087,-0.097983,0.000000,0.014764,0.076508,-0.000000
0.570000,-2.950114,-0.823389,-1.328271,0.412387,0.013807,-0.059569,0.978470,0.103055,-0.225761,-0.771526,0.122973,-0.566519,-5.073027,-3.171182,0.213691,0.010220,-0.097191,0.000000,0.011699,0.081601,0.000000
0.580000,-2.945941,-0.823246,-1.328878,0.422133,0.014844,-0.061855,0.970502,0.104126,-0.231416,-0.820434,0.090389,-0.564075,-4.709824,-3.341944,0.280912,0.010321,-0.096351,0.000000,0.008465,0.086323,-0.000000
0.590000,-2.941671,-0.823093,-1.329508,0.431797,0.015889,-0.064197,0.962062,0.104862,-0.237042,-0.865722,0.056134,-0.560901,-4.340195,-3.511470,0.347191,0.010389,-0.095465,0.000000,0.005071,0.090676,0.000000
0.600000,-2.937305,-0.822928,-1.330162,0.441374,0.016941,-0.066596,0.953187,0.105248,-0.242634,-0.907238,0.020159,-0.557131,-3.960729,-3.683445,0.405748,0.010423,-0.094537,0.000000,0.001512,0.094648,0.000000
0.610000,-2.932844,-0.822754,-1.330840,0.450861,0.017994,-0.069050,0.943917,0.105266,-0.248185,-0.944937,-0.017535,-0.552786,-3.584612,-3.849227,0.473027,0.010420,-0.093572,0.000000,-0.002212,0.098234,0.000000
0.620000,-2.928288,-0.822569,-1.331543,0.460252,0.019046,-0.071559,0.934289,0.104898,-0.253689,-0.978930,-0.056825,-0.547670,-3.223191,-3.997757,0.566717,0.010378,-0.092572,0.000000,-0.006089,0.101446,0.000000
0.630000,-2.923639,-0.822373,-1.332271,0.469546,0.020092,-0.074124,0.924338,0.104129,-0.259138,-1.009400,-0.097490,-0.541452,-2.873353,-4.130450,0.682827,0.010298,-0.091543,0.000000,-0.010096,0.104299,-0.000000
0.640000,-2.918897,-0.822167,-1.333025,0.478739,0.021129,-0.076742,0.914101,0.102948,-0.264518,-1.036397,-0.139434,-0.534014,-2.521380,-4.260640,0.798717,0.010176,-0.090486,0.000000,-0.014223,0.106798,-0.000000
0.650000,-2.914064,-0.821950,-1.333806,0.487828,0.022151,-0.079414,0.903610,0.101340,-0.269818,-1.059828,-0.182703,-0.525478,-2.162987,-4.392413,0.907209,0.010013,-0.089407,0.000000,-0.018476,0.108936,0.000000
0.660000,-2.909141,-0.821724,-1.334614,0.496811,0.023155,-0.082139,0.892904,0.099294,-0.275028,-1.079657,-0.227282,-0.515870,-1.808167,-4.515800,1.024071,0.009807,-0.088307,0.000000,-0.022852,0.110711,-0.000000
0.670000,-2.904128,-0.821487,-1.335449,0.505686,0.024137,-0.084915,0.882017,0.096795,-0.280136,-1.095991,-0.273019,-0.504996,-1.469139,-4.619159,1.167477,0.009556,-0.087192,0.000000,-0.027337,0.112133,-0.000000
0.680000,-2.899027,-0.821241,-1.336312,0.514452,0.025091,-0.087741,0.870984,0.093833,-0.285128,-1.109040,-0.319666,-0.492520,-1.143216,-4.704666,1.333064,0.009260,-0.086065,0.000000,-0.031907,0.113221,-0.000000
0.690000,-2.893839,-0.820985,-1.337204,0.523106,0.026014,-0.090617,0.859837,0.090402,-0.289986,-1.118856,-0.367112,-0.478335,-0.814938,-4.786744,1.496914,0.008918,-0.084928,0.000000,-0.036550,0.113979,-0.000000
0.700000,-2.888565,-0.820721,-1.338124,0.531649,0.026899,-0.093541,0.848607,0.086491,-0.294695,-1.125339,-0.415400,-0.462582,-0.483337,-4.868945,1.653231,0.008529,-0.083785,0.000000,-0.041271,0.114401,0.000000
0.710000,-2.883206,-0.820447,-1.339074,0.540078,0.027744,-0.096511,0.837330,0.082094,-0.299238,-1.128522,-0.464491,-0.445270,-0.159056,-4.940914,1.818030,0.008093,-0.082640,0.000000,-0.046067,0.114492,0.000000
0.720000,-2.877763,-0.820166,-1.340054,0.548395,0.028541,-0.099526,0.826037,0.077201,-0.303600,-1.128520,-0.514219,-0.426221,0.156857,-4.993277,2.004118,0.007608,-0.081495,0.000000,-0.050922,0.114261,0.000000
0.730000,-2.872238,-0.819877,-1.341065,0.556599,0.029288,-0.102583,0.814759,0.071809,-0.307762,-1.125385,-0.564357,-0.405188,0.467789,-5.028713,2.206335,0.007074,-0.080354,0.000000,-0.055815,0.113713,-0.000000
0.740000,-2.866631,-0.819580,-1.342106,0.564690,0.029977,-0.105681,0.803529,0.065914,-0.311704,-1.119164,-0.614793,-0.382094,0.774029,-5.058850,2.407627,0.006492,-0.079221,0.000000,-0.060734,0.112854,0.000000
0.750000,-2.860944,-0.819277,-1.343178,0.572670,0.030606,-0.108817,0.792376,0.059513,-0.315404,-1.109905,-0.665534,-0.357035,1.076480,-5.086664,2.603736,0.005860,-0.078097,0.000000,-0.065682,0.111689,0.000000
0.760000,-2.855178,-0.818968,-1.344282,0.580538,0.031168,-0.111989,0.781331,0.052603,-0.318844,-1.097634,-0.716526,-0.330020,1.374834,-5.104000,2.805504,0.005178,-0.076987,0.000000,-0.070654,0.110223,0.000000
0.770000,-2.849333,-0.818654,-1.345418,0.588296,0.031658,-0.115194,0.770423,0.045183,-0.322005,-1.082408,-0.767614,-0.300925,1.664804,-5.103009,3.022160,0.004447,-0.075893,0.000000,-0.075637,0.108461,0.000000
0.780000,-2.843412,-0.818335,-1.346586,0.595946,0.032071,-0.118429,0.759683,0.037251,-0.324863,-1.064338,-0.818586,-0.269577,1.946036,-5.085919,3.249919,0.003665,-0.074817,0.000000,-0.080611,0.106413,0.000000
0.790000,-2.837414,-0.818012,-1.347787,0.603490,0.032403,-0.121691,0.749137,0.028811,-0.327396,-1.043487,-0.869332,-0.235927,2.224365,-5.062761,3.475724,0.002834,-0.073764,0.000000,-0.085565,0.104085,0.000000
0.800000,-2.831342,-0.817687,-1.349020,0.610929,0.032648,-0.124977,0.738813,0.019865,-0.329582,-1.019851,-0.919842,-0.200062,2.501976,-5.036008,3.695897,0.001954,-0.072736,0.000000,-0.090502,0.101480,0.000000
0.810000,-2.825196,-0.817359,-1.350286,0.618266,0.032800,-0.128283,0.728740,0.010414,-0.331397,-0.993448,-0.970052,-0.162009,2.774729,-4.998822,3.918335,0.001024,-0.071735,0.000000,-0.095416,0.098598,-0.000000
0.820000,-2.818977,-0.817031,-1.351586,0.625504,0.032856,-0.131605,0.718944,0.000464,-0.332822,-0.964356,-1.019818,-0.121695,3.037629,-4.945235,4.150024,0.000046,-0.070764,0.000000,-0.100294,0.095449,0.000000
0.830000,-2.812686,-0.816702,-1.352918,0.632645,0.032810,-0.134939,0.709452,-0.009982,-0.333831,-0.932695,-1.068957,-0.079008,3.292159,-4.877359,4.387666,-0.000982,-0.069826,0.000000,-0.105122,0.092042,0.000000
0.840000,-2.806324,-0.816375,-1.354285,0.639693,0.032656,-0.138282,0.700290,-0.020916,-0.334402,-0.898513,-1.117365,-0.033942,3.544679,-4.802960,4.620816,-0.002057,-0.068923,0.000000,-0.109890,0.088382,0.000000
0.850000,-2.799892,-0.816049,-1.355684,0.646651,0.032391,-0.141627,0.691482,-0.032329,-0.334510,-0.861802,-1.165016,0.013408,3.794311,-4.723569,4.847516,-0.003180,-0.068058,0.000000,-0.114598,0.084470,-0.000000
0.860000,-2.793391,-0.815727,-1.357117,0.653523,0.032010,-0.144972,0.683054,-0.044216,-0.334134,-0.822627,-1.211837,0.063008,4.037120,-4.634146,5.073529,-0.004349,-0.067233,0.000000,-0.119240,0.080311,0.000000
0.870000,-2.786821,-0.815409,-1.358584,0.660312,0.031507,-0.148310,0.675030,-0.056566,-0.333250,-0.781059,-1.257699,0.114878,4.276937,-4.531510,5.300599,-0.005564,-0.066452,0.000000,-0.123807,0.075912,0.000000
0.880000,-2.780185,-0.815097,-1.360083,0.667023,0.030878,-0.151637,0.667433,-0.069370,-0.331836,-0.737088,-1.302467,0.169020,4.515484,-4.417453,5.525786,-0.006825,-0.065715,0.000000,-0.128288,0.071271,-0.000000
0.890000,-2.773481,-0.814791,-1.361616,0.673661,0.030119,-0.154947,0.660288,-0.082616,-0.329870,-0.690750,-1.346048,0.225394,4.746944,-4.296197,5.745492,-0.008130,-0.065026,0.000000,-0.132675,0.066391,0.000000
0.900000,-2.766711,-0.814494,-1.363182,0.680229,0.029226,-0.158234,0.653618,-0.096291,-0.327328,-0.642149,-1.388391,0.283930,4.969693,-4.168426,5.958799,-0.009479,-0.064387,0.000000,-0.136965,0.061282,0.000000
0.910000,-2.759876,-0.814207,-1.364781,0.686733,0.028194,-0.161493,0.647445,-0.110383,-0.324191,-0.591356,-1.429417,0.344570,5.187973,-4.031632,6.166712,-0.010870,-0.063800,0.000000,-0.141154,0.055949,0.000000
0.920000,-2.752977,-0.813930,-1.366412,0.693178,0.027018,-0.164718,0.641791,-0.124879,-0.320437,-0.538390,-1.469023,0.407264,5.404510,-3.884665,6.369093,-0.012302,-0.063268,0.000000,-0.145233,0.050393,0.000000
0.930000,-2.746013,-0.813666,-1.368075,0.699569,0.025696,-0.167902,0.636677,-0.139764,-0.316046,-0.483266,-1.507110,0.471952,5.618283,-3.728609,6.564304,-0.013774,-0.062793,0.000000,-0.149194,0.044614,-0.000000
0.940000,-2.738985,-0.813416,-1.369770,0.705911,0.024223,-0.171039,0.632125,-0.155021,-0.310998,-0.426024,-1.543596,0.538550,5.825883,-3.565274,6.750822,-0.015286,-0.062376,0.000000,-0.153032,0.038615,0.000000
0.950000,-2.731895,-0.813182,-1.371496,0.712211,0.022596,-0.174122,0.628157,-0.170636,-0.305275,-0.366748,-1.578415,0.606968,6.024075,-3.394854,6.929585,-0.016835,-0.062020,0.000000,-0.156742,0.032401,0.000000
0.960000,-2.724741,-0.812964,-1.373253,0.718474,0.020810,-0.177144,0.624790,-0.186590,-0.298858,-0.305543,-1.611493,0.677142,6.215278,-3.216503,7.100109,-0.018421,-0.061728,0.000000,-0.160320,0.025981,-0.000000
0.970000,-2.717525,-0.812766,-1.375039,0.724707,0.018864,-0.180099,0.622046,-0.202866,-0.291732,-0.242442,-1.642746,0.748971,6.408694,-3.030448,7.256580,-0.020042,-0.061500,0.000000,-0.163757,0.019357,0.000000
0.980000,-2.710247,-0.812587,-1.376855,0.730915,0.016753,-0.182979,0.619942,-0.219445,-0.283879,-0.177369,-1.672102,0.822274,6.604218,-2.837305,7.397546,-0.021696,-0.061341,0.000000,-0.167049,0.012519,0.000000
0.990000,-2.702907,-0.812431,-1.378699,0.737106,0.014475,-0.185777,0.618498,-0.236308,-0.275286,-0.110358,-1.699492,0.896922,6.789027,-2.637154,7.529268,-0.023383,-0.061250,0.000000,-0.170191,0.005466,0.000000
1.000000,-2.695505,-0.812298,-1.380570,0.743285,0.012027,-0.188485,0.617734,-0.253434,-0.265941,-0.041588,-1.724845,0.972859,6.958682,-2.429852,7.654370,-0.025100,-0.061231,0.000000,-0.173176,-0.001785,0.000000
1.010000,-2.688041,-0.812190,-1.382468,0.749461,0.009406,-0.191096,0.617667,-0.270805,-0.255829,0.028816,-1.748089,1.050009,7.121911,-2.215731,7.767127,-0.026846,-0.061286,0.000000,-0.175999,-0.009226,-0.000000
1.020000,-2.680516,-0.812110,-1.384392,0.755639,0.006611,-0.193601,0.618311,-0.288396,-0.244940,0.100850,-1.769159,1.128202,7.288288,-1.995853,7.858623,-0.028620,-0.061416,0.000000,-0.178654,-0.016859,-0.000000
1.030000,-2.672928,-0.812058,-1.386340,0.761827,0.003638,-0.195994,0.619684,-0.306188,-0.233265,0.174581,-1.788006,1.207181,7.455429,-1.770395,7.929115,-0.030420,-0.061623,0.000000,-0.181136,-0.024694,0.000000
1.040000,-2.665279,-0.812037,-1.388312,0.768032,0.000487,-0.198267,0.621802,-0.324156,-0.220797,0.249958,-1.804567,1.286784,7.610280,-1.538398,7.988918,-0.032243,-0.061910,0.000000,-0.183439,-0.032728,0.000000
1.050000,-2.657568,-0.812048,-1.390306,0.774263,-0.002845,-0.200410,0.624683,-0.342279,-0.207529,0.326787,-1.818774,1.366960,7.747058,-1.300088,8.041789,-0.034089,-0.062278,0.000000,-0.185558,-0.040948,0.000000
1.060000,-2.649794,-0.812094,-1.392320,0.780526,-0.006359,-0.202417,0.628338,-0.360532,-0.193458,0.404900,-1.830569,1.447620,7.874372,-1.056441,8.079441,-0.035954,-0.062730,0.000000,-0.187485,-0.049339,0.000000
1.070000,-2.641957,-0.812175,-1.394354,0.786830,-0.010055,-0.204279,0.632781,-0.378890,-0.178577,0.484274,-1.839902,1.528549,8.006159,-0.807338,8.090311,-0.037838,-0.063266,0.000000,-0.189215,-0.057903,-0.000000
1.080000,-2.634057,-0.812295,-1.396406,0.793182,-0.013936,-0.205989,0.638024,-0.397330,-0.162887,0.565023,-1.846716,1.609426,8.139886,-0.552720,8.075375,-0.039739,-0.063889,0.000000,-0.190741,-0.066655,0.000000
1.090000,-2.626094,-0.812454,-1.398474,0.799590,-0.018002,-0.207537,0.644081,-0.415825,-0.146389,0.647072,-1.850957,1.690056,8.256064,-0.293288,8.048757,-0.041653,-0.064600,0.000000,-0.192056,-0.075589,-0.000000
1.100000,-2.618065,-0.812655,-1.400556,0.806063,-0.022253,-0.208917,0.650965,-0.434349,-0.129086,0.730144,-1.852582,1.770401,8.349162,-0.029156,8.016628,-0.043580,-0.065402,0.000000,-0.193153,-0.084684,0.000000
1.110000,-2.609972,-0.812899,-1.402652,0.812609,-0.026689,-0.210119,0.658684,-0.452876,-0.110981,0.814055,-1.851540,1.850389,8.431702,0.239806,7.968276,-0.045517,-0.066296,0.000000,-0.194027,-0.093925,0.000000
1.120000,-2.601813,-0.813189,-1.404759,0.819237,-0.031310,-0.211136,0.667246,-0.471380,-0.092078,0.898778,-1.847785,1.929767,8.514677,0.512937,7.886255,-0.047461,-0.067283,0.000000,-0.194670,-0.103313,-0.000000
1.130000,-2.593588,-0.813525,-1.406875,0.825954,-0.036117,-0.211960,0.676660,-0.489832,-0.072385,0.984349,-1.841281,2.008114,8.593570,0.789846,7.772448,-0.049410,-0.068365,0.000000,-0.195073,-0.112852,0.000000
1.140000,-2.585294,-0.813911,-1.408998,0.832770,-0.041107,-0.212584,0.686933,-0.508205,-0.051915,1.070649,-1.831988,2.085216,8.652870,1.071011,7.649344,-0.051362,-0.069543,0.000000,-0.195229,-0.122535,0.000000
1.150000,-2.576932,-0.814347,-1.411126,0.839693,-0.046281,-0.212999,0.698073,-0.526472,-0.030681,1.157406,-1.819861,2.161101,8.689273,1.356808,7.523943,-0.053315,-0.070819,0.000000,-0.195131,-0.132338,-0.000000
1.160000,-2.568500,-0.814837,-1.413258,0.846732,-0.051636,-0.213198,0.710081,-0.544603,-0.008693,1.244435,-1.804852,2.235694,8.712100,1.646546,7.380314,-0.055265,-0.072194,0.000000,-0.194770,-0.142246,0.000000
1.170000,-2.559998,-0.815380,-1.415390,0.853895,-0.057173,-0.213173,0.722961,-0.562569,0.014033,1.331648,-1.786930,2.308707,8.726590,1.938556,7.201050,-0.057210,-0.073668,0.000000,-0.194137,-0.152252,0.000000
1.180000,-2.551422,-0.815980,-1.417521,0.861191,-0.062888,-0.212917,0.736714,-0.580341,0.037481,1.418967,-1.766081,2.379715,8.728486,2.232762,6.990168,-0.059148,-0.075244,0.000000,-0.193224,-0.162348,0.000000
1.190000,-2.542774,-0.816638,-1.419649,0.868629,-0.068780,-0.212423,0.751341,-0.597891,0.061627,1.506218,-1.742275,2.448510,8.709653,2.530982,6.770227,-0.061075,-0.076921,0.000000,-0.192023,-0.172519,0.000000
1.200000,-2.534050,-0.817356,-1.421770,0.876218,-0.074846,-0.211684,0.766839,-0.615187,0.086451,1.593160,-1.715462,2.515120,8.670274,2.833254,6.548584,-0.062988,-0.078701,0.000000,-0.190523,-0.182743,-0.000000
1.210000,-2.525249,-0.818135,-1.423882,0.883966,-0.081083,-0.210694,0.783204,-0.632200,0.111930,1.679624,-1.685610,2.579482,8.614299,3.138052,6.309811,-0.064885,-0.080584,0.000000,-0.188716,-0.193003,-0.000000
1.220000,-2.516371,-0.818977,-1.425984,0.891882,-0.087490,-0.209446,0.800431,-0.648899,0.138041,1.765446,-1.652701,2.641316,8.537703,3.444919,6.035793,-0.066763,-0.082570,0.000000,-0.186591,-0.203283,-0.000000
1.230000,-2.507412,-0.819885,-1.428071,0.899974,-0.094061,-0.207933,0.818513,-0.665254,0.164756,1.850378,-1.616711,2.700198,8.435221,3.753527,5.730910,-0.068617,-0.084659,0.000000,-0.184139,-0.213555,0.000000
1.240000,-2.498371,-0.820859,-1.430142,0.908252,-0.100795,-0.206151,0.837439,-0.681233,0.192044,1.934150,-1.577630,2.755934,8.311505,4.064145,5.419312,-0.070446,-0.086851,0.000000,-0.181349,-0.223790,0.000000
1.250000,-2.489247,-0.821901,-1.432194,0.916723,-0.107686,-0.204092,0.857196,-0.696806,0.219875,2.016608,-1.535429,2.808584,8.185897,4.381139,5.107297,-0.072244,-0.089146,0.000000,-0.178213,-0.233970,-0.000000
1.260000,-2.480037,-0.823012,-1.434224,0.925396,-0.114731,-0.201753,0.877771,-0.711942,0.248216,2.097868,-1.490007,2.858080,8.052362,4.703715,4.778936,-0.074010,-0.091543,0.000000,-0.174713,-0.244108,0.000000
1.270000,-2.470739,-0.824195,-1.436229,0.934278,-0.121925,-0.199128,0.899153,-0.726607,0.277036,2.177655,-1.441354,2.904163,7.854020,5.018702,4.420492,-0.075738,-0.094042,0.000000,-0.170838,-0.254170,-0.000000
1.280000,-2.461351,-0.825451,-1.438207,0.943379,-0.129263,-0.196212,0.921324,-0.740769,0.306299,2.254949,-1.389633,2.946490,7.591626,5.328037,4.036463,-0.077427,-0.096642,0.000000,-0.166596,-0.264044,0.000000
1.290000,-2.451871,-0.826780,-1.440154,0.952705,-0.136740,-0.193002,0.944252,-0.754399,0.335966,2.329487,-1.334793,2.984892,7.341542,5.648975,3.645761,-0.079070,-0.099339,0.000000,-0.161974,-0.273697,-0.000000
1.300000,-2.442297,-0.828186,-1.442067,0.962264,-0.144351,-0.189493,0.967914,-0.767465,0.365997,2.401779,-1.276654,3.019405,7.100054,5.966395,3.258602,-0.080666,-0.102133,0.000000,-0.156944,-0.283178,-0.000000
1.310000,-2.432626,-0.829667,-1.443944,0.972063,-0.152089,-0.185682,0.992288,-0.779932,0.396354,2.471489,-1.215466,3.050064,6.815995,6.269856,2.862691,-0.082209,-0.105022,0.000000,-0.151525,-0.292445,0.000000
1.320000,-2.422856,-0.831227,-1.445781,0.982110,-0.159950,-0.181566,1.017343,-0.791774,0.426999,2.538099,-1.151257,3.076659,6.515355,6.606388,2.432931,-0.083696,-0.108002,0.000000,-0.145712,-0.301437,0.000000
1.330000,-2.412984,-0.832866,-1.447575,0.992410,-0.167925,-0.177142,1.043050,-0.802957,0.457887,2.601796,-1.083338,3.098723,6.207519,6.977884,1.977176,-0.085123,-0.111072,0.000000,-0.139420,-0.310159,-0.000000
1.340000,-2.403007,-0.834586,-1.449323,1.002971,-0.176009,-0.172408,1.069379,-0.813441,0.488973,2.662250,-1.011699,3.116203,5.854278,7.318892,1.529763,-0.086484,-0.114228,0.000000,-0.132640,-0.318569,-0.000000
1.350000,-2.392924,-0.836387,-1.451023,1.013798,-0.184194,-0.167363,1.096295,-0.823191,0.520211,2.718881,-0.936960,3.129318,5.518631,7.646096,1.068490,-0.087776,-0.117467,0.000000,-0.125432,-0.326599,-0.000000
1.360000,-2.382732,-0.838270,-1.452671,1.024897,-0.192473,-0.162004,1.123757,-0.832180,0.551559,2.772622,-0.858777,3.137573,5.221558,8.001361,0.573776,-0.088993,-0.120786,0.000000,-0.117746,-0.334329,-0.000000
1.370000,-2.372426,-0.840236,-1.454263,1.036273,-0.200837,-0.156331,1.151747,-0.840367,0.582963,2.823312,-0.776933,3.140793,4.765472,8.318890,0.118919,-0.090130,-0.124181,0.000000,-0.109551,-0.341732,0.000000
1.380000,-2.362006,-0.842286,-1.455797,1.047932,-0.209280,-0.150345,1.180223,-0.847719,0.614375,2.867932,-0.692399,3.139951,4.138737,8.584086,-0.285057,-0.091184,-0.127648,0.000000,-0.100955,-0.348487,0.000000
1.390000,-2.351468,-0.844422,-1.457270,1.059877,-0.217792,-0.144044,1.209106,-0.854215,0.645762,2.906087,-0.605251,3.135092,3.616982,8.889992,-0.739687,-0.092149,-0.131180,0.000000,-0.091965,-0.354539,0.000000
1.400000,-2.340809,-0.846642,-1.458678,1.072114,-0.226364,-0.137429,1.238345,-0.859824,0.677077,2.940271,-0.514599,3.125157,3.212996,9.225515,-1.259507,-0.093023,-0.134769,0.000000,-0.082465,-0.360126,0.000000
1.410000,-2.330025,-0.848949,-1.460019,1.084644,-0.234988,-0.130502,1.267911,-0.864507,0.708265,2.970347,-0.420741,3.109902,2.744135,9.528756,-1.774729,-0.093798,-0.138414,0.000000,-0.072479,-0.365216,0.000000
1.420000,-2.319116,-0.851342,-1.461288,1.097472,-0.243654,-0.123264,1.297752,-0.868238,0.739275,2.995154,-0.324024,3.089663,2.245951,9.858935,-2.268436,-0.094472,-0.142106,0.000000,-0.062046,-0.369676,0.000000
1.430000,-2.308076,-0.853822,-1.462484,1.110599,-0.252353,-0.115717,1.327814,-0.870987,0.770058,3.015266,-0.223562,3.064533,1.792666,10.246234,-2.767426,-0.095039,-0.145840,0.000000,-0.051065,-0.373553,0.000000
1.440000,-2.296904,-0.856389,-1.463603,1.124028,-0.261074,-0.107863,1.358057,-0.872710,0.800566,3.031007,-0.119100,3.034314,1.322759,10.601540,-3.288239,-0.095493,-0.149611,0.000000,-0.039503,-0.376866,-0.000000
1.450000,-2.285595,-0.859044,-1.464641,1.137760,-0.269807,-0.099706,1.388434,-0.873369,0.830745,3.041721,-0.011531,2.998769,0.783211,10.866998,-3.808874,-0.095828,-0.153412,0.000000,-0.027450,-0.379525,0.000000
1.460000,-2.274148,-0.861785,-1.465597,1.151797,-0.278541,-0.091248,1.418892,-0.872940,0.860541,3.046672,0.098240,2.958137,0.225403,11.106740,-4.321030,-0.096041,-0.157236,0.000000,-0.015009,-0.381438,0.000000
1.470000,-2.262560,-0.864614,-1.466466,1.166138,-0.287266,-0.082495,1.449368,-0.871405,0.889907,3.046229,0.210604,2.912348,-0.228711,11.457234,-4.883015,-0.096128,-0.161076,0.000000,-0.002135,-0.382628,0.000000
1.480000,-2.250826,-0.867531,-1.467247,1.180784,-0.295970,-0.073450,1.479816,-0.868728,0.918788,3.042097,0.327385,2.860476,-0.594292,11.897487,-5.499683,-0.096084,-0.164924,0.000000,0.011385,-0.383251,0.000000
1.490000,-2.238944,-0.870534,-1.467935,1.195735,-0.304641,-0.064119,1.510210,-0.864857,0.947117,3.034344,0.448553,2.802354,-1.029850,12.242725,-6.090154,-0.095900,-0.168776,0.000000,0.025550,-0.383293,0.000000
1.500000,-2.226911,-0.873623,-1.468529,1.210988,-0.313267,-0.054508,1.540503,-0.859757,0.974835,3.021500,0.572240,2.738673,-1.518857,12.490357,-6.647949,-0.095572,-0.172625,0.000000,0.040146,-0.382594,0.000000
1.510000,-2.214724,-0.876799,-1.469025,1.226545,-0.321836,-0.044622,1.570640,-0.853412,1.001890,3.003966,0.698360,2.669395,-1.954972,12.760080,-7.227351,-0.095097,-0.176463,0.000000,0.055158,-0.381181,0.000000
1.520000,-2.202380,-0.880060,-1.469421,1.242401,-0.330335,-0.034470,1.600582,-0.845790,1.028223,2.982401,0.827441,2.594126,-2.410643,13.018984,-7.826796,-0.094469,-0.180283,0.000000,0.070648,-0.379104,0.000000
1.530000,-2.189876,-0.883406,-1.469715,1.258556,-0.338752,-0.024058,1.630288,-0.836863,1.053773,2.955754,0.958740,2.512860,-2.918736,13.221299,-8.428280,-0.093684,-0.184078,0.000000,0.086525,-0.376235,0.000000
1.540000,-2.177209,-0.886835,-1.469903,1.275007,-0.347072,-0.013394,1.659698,-0.826615,1.078480,2.924026,1.091867,2.425561,-3.369105,13.417322,-9.037313,-0.092738,-0.187840,0.000000,0.102739,-0.372558,0.000000
1.550000,-2.164376,-0.890347,-1.469983,1.291750,-0.355284,-0.002488,1.688768,-0.815026,1.102284,2.888371,1.227087,2.332113,-3.788609,13.610207,-9.643759,-0.091629,-0.191561,0.000000,0.119314,-0.368186,0.000000
1.560000,-2.151374,-0.893941,-1.469952,1.308782,-0.363373,0.008651,1.717465,-0.802073,1.125123,2.848254,1.364071,2.232685,-4.247872,13.760523,-10.243238,-0.090352,-0.195235,0.000000,0.136201,-0.363051,0.000000
1.570000,-2.138200,-0.897615,-1.469810,1.326099,-0.371325,0.020014,1.745733,-0.787744,1.146938,2.803414,1.502297,2.127249,-4.625560,13.878309,-10.871964,-0.088905,-0.198851,0.000000,0.153330,-0.357113,0.000000
1.580000,-2.124852,-0.901367,-1.469552,1.343697,-0.379128,0.031590,1.773533,-0.772028,1.167668,2.755743,1.641638,2.015246,-4.890625,13.972800,-11.534758,-0.087285,-0.202405,0.000000,0.170682,-0.350559,0.000000
1.590000,-2.111326,-0.905197,-1.469178,1.361570,-0.386766,0.043368,1.800848,-0.754912,1.187243,2.705601,1.781753,1.896553,-5.215019,14.021416,-12.178806,-0.085491,-0.205889,0.000000,0.188207,-0.343417,-0.000000
1.600000,-2.097621,-0.909103,-1.468685,1.379714,-0.394226,0.055335,1.827645,-0.736392,1.205599,2.651442,1.922066,1.771670,-5.621999,14.031757,-12.777085,-0.083521,-0.209298,0.000000,0.205814,-0.335521,0.000000
1.610000,-2.083732,-0.913082,-1.468071,1.398123,-0.401494,0.067480,1.853877,-0.716470,1.222676,2.593161,2.062388,1.641012,-5.993453,14.014393,-13.365425,-0.081375,-0.212622,0.000000,0.223461,-0.326861,0.000000
1.620000,-2.069658,-0.917133,-1.467335,1.416792,-0.408555,0.079788,1.879508,-0.695145,1.238419,2.531573,2.202354,1.504362,-6.310326,13.927856,-14.005867,-0.079052,-0.215856,0.000000,0.241091,-0.317520,0.000000
1.630000,-2.055396,-0.921253,-1.466475,1.435713,-0.415397,0.092248,1.904509,-0.672423,1.252763,2.466955,2.340945,1.360894,-6.614332,13.759690,-14.689456,-0.076553,-0.218992,0.000000,0.258575,-0.307504,0.000000
1.640000,-2.040944,-0.925440,-1.465490,1.454882,-0.422004,0.104844,1.928848,-0.648326,1.265637,2.399287,2.477548,1.210572,-6.921574,13.563849,-15.329772,-0.073880,-0.222023,0.000000,0.275821,-0.296808,0.000000
1.650000,-2.026299,-0.929693,-1.464378,1.474290,-0.428363,0.117561,1.952494,-0.622872,1.276975,2.328523,2.612222,1.054299,-7.224549,13.374444,-15.895358,-0.071037,-0.224944,0.000000,0.292803,-0.285450,0.000000
1.660000,-2.011458,-0.934008,-1.463139,1.493932,-0.434461,0.130383,1.975418,-0.596081,1.286723,2.254796,2.745036,0.892665,-7.515101,13.148923,-16.442969,-0.068025,-0.227746,0.000000,0.309503,-0.273462,0.000000
1.670000,-1.996420,-0.938382,-1.461771,1.513799,-0.440285,0.143295,1.997590,-0.567972,1.294828,2.178221,2.875201,0.725439,-7.804126,12.795036,-17.042100,-0.064847,-0.230425,0.000000,0.325808,-0.260855,-0.000000
1.680000,-1.981182,-0.942813,-1.460273,1.533883,-0.445821,0.156280,2.018982,-0.538577,1.301232,2.098713,3.000937,0.551823,-8.097067,12.316207,-17.671769,-0.061509,-0.232974,0.000000,0.341495,-0.247605,0.000000
1.690000,-1.965742,-0.947299,-1.458645,1.554178,-0.451056,0.169320,2.039565,-0.507953,1.305865,2.016280,3.121525,0.372004,-8.379157,11.834040,-18.235744,-0.058018,-0.235386,0.000000,0.356456,-0.233725,0.000000
1.700000,-1.950098,-0.951835,-1.456887,1.574675,-0.455980,0.182397,2.059308,-0.476147,1.308672,1.931130,3.237618,0.187108,-8.638037,11.402317,-18.728503,-0.054381,-0.237656,0.000000,0.370731,-0.219277,-0.000000
1.710000,-1.934249,-0.956418,-1.454997,1.595364,-0.460579,0.195493,2.078187,-0.443201,1.309607,1.843519,3.349571,-0.002566,-8.885554,10.934247,-19.209284,-0.050604,-0.239778,0.000000,0.384338,-0.204311,0.000000
1.720000,-1.918191,-0.961046,-1.452977,1.616238,-0.464844,0.208589,2.096178,-0.409155,1.308620,1.753419,3.456303,-0.197077,-9.154720,10.293145,-19.669500,-0.046695,-0.241747,0.000000,0.397130,-0.188836,-0.000000
1.730000,-1.901924,-0.965715,-1.450825,1.637288,-0.468762,0.221666,2.113256,-0.374074,1.305665,1.660425,3.555434,-0.395956,-9.442950,9.498752,-20.080379,-0.042662,-0.243558,0.000000,0.408812,-0.172836,-0.000000
1.740000,-1.885445,-0.970421,-1.448543,1.658504,-0.472325,0.234702,2.129387,-0.338047,1.300701,1.564560,3.646278,-0.598685,-9.706618,8.733620,-20.452713,-0.038519,-0.245207,0.000000,0.419285,-0.156345,0.000000
1.750000,-1.868754,-0.975162,-1.446131,1.679876,-0.475523,0.247680,2.144547,-0.301149,1.293691,1.466293,3.730106,-0.805010,-9.942952,8.054463,-20.813359,-0.034277,-0.246688,0.000000,0.428678,-0.139442,0.000000
1.760000,-1.851848,-0.979932,-1.443590,1.701394,-0.478348,0.260576,2.158713,-0.263445,1.284601,1.365701,3.807367,-1.014952,-10.181515,7.337277,-21.146799,-0.029947,-0.247997,0.000000,0.437029,-0.122157,-0.000000
1.770000,-1.834726,-0.984728,-1.440920,1.723050,-0.480792,0.273372,2.171861,-0.225002,1.273392,1.262662,3.876852,-1.227946,-10.422736,6.451727,-21.374708,-0.025538,-0.249132,0.000000,0.444187,-0.104514,-0.000000
1.780000,-1.817387,-0.989548,-1.438122,1.744832,-0.482848,0.286044,2.183966,-0.185908,1.260042,1.157246,3.936402,-1.442446,-10.659514,5.437570,-21.491639,-0.021064,-0.250088,0.000000,0.449898,-0.086587,0.000000
1.790000,-1.799829,-0.994385,-1.435199,1.766729,-0.484510,0.298572,2.195006,-0.146274,1.244544,1.049472,3.985603,-1.657779,-10.893081,4.469070,-21.598847,-0.016541,-0.250864,0.000000,0.454114,-0.068423,0.000000
1.800000,-1.782052,-0.999238,-1.432151,1.788732,-0.485774,0.310935,2.204956,-0.106196,1.226886,0.939385,4.025783,-1.874423,-11.101106,3.572961,-21.734705,-0.011983,-0.251457,0.000000,0.456990,-0.050038,-0.000000
1.810000,-1.764055,-1.004101,-1.428980,1.810828,-0.486634,0.323110,2.213793,-0.065758,1.207055,0.827450,4.057063,-2.092473,-11.284126,2.637187,-21.824379,-0.007402,-0.251865,0.000000,0.458546,-0.031505,0.000000
1.820000,-1.745836,-1.008971,-1.425689,1.833008,-0.487089,0.335076,2.221505,-0.025054,1.185037,0.713702,4.078527,-2.310911,-11.510584,1.618251,-21.769570,-0.002813,-0.252088,0.000000,0.458688,-0.012883,0.000000
1.830000,-1.727395,-1.013843,-1.422279,1.855258,-0.487135,0.346811,2.228067,0.015813,1.160837,0.597238,4.089428,-2.527864,-11.780853,0.556942,-21.587107,0.001770,-0.252123,0.000000,0.457348,0.005850,-0.000000
1.840000,-1.708731,-1.018713,-1.418753,1.877569,-0.486773,0.358293,2.233449,0.056734,1.134480,0.478085,4.089666,-2.742653,-12.000055,-0.487227,-21.403111,0.006333,-0.251971,0.000000,0.454537,0.024646,0.000000
1.850000,-1.689843,-1.023578,-1.415113,1.899927,-0.486001,0.369501,2.237629,0.097606,1.105984,0.357237,4.079683,-2.955927,-12.169495,-1.495284,-21.252083,0.010860,-0.251631,0.000000,0.450332,0.043392,0.000000
1.860000,-1.670732,-1.028433,-1.411363,1.922322,-0.484820,0.380413,2.240594,0.138328,1.075361,0.234695,4.059760,-3.167695,-12.351255,-2.499807,-21.045882,0.015339,-0.251104,0.000000,0.444789,0.062067,0.000000
1.870000,-1.651397,-1.033275,-1.407505,1.944739,-0.483234,0.391008,2.242323,0.178801,1.042630,0.110212,4.029687,-3.376844,-12.517223,-3.541767,-20.700001,0.019755,-0.250390,0.000000,0.437917,0.080645,0.000000
1.880000,-1.631837,-1.038098,-1.403542,1.967168,-0.481244,0.401265,2.242798,0.218922,1.007824,-0.015649,3.988925,-3.581695,-12.640775,-4.601985,-20.240199,0.024097,-0.249492,0.000000,0.429695,0.099001,0.000000
1.890000,-1.612053,-1.042899,-1.399479,1.989595,-0.478856,0.411164,2.242010,0.258580,0.970996,-0.142603,3.937647,-3.781648,-12.764891,-5.616609,-19.775233,0.028349,-0.248411,0.000000,0.420184,0.117072,0.000000
1.900000,-1.592045,-1.047675,-1.395319,2.012008,-0.476073,0.420685,2.239946,0.297675,0.932191,-0.270947,3.876592,-3.977199,-12.914966,-6.598994,-19.324993,0.032500,-0.247150,0.000000,0.409502,0.134889,0.000000
1.910000,-1.571813,-1.052421,-1.391066,2.034394,-0.472902,0.429808,2.236591,0.336112,0.891452,-0.400903,3.805667,-4.168148,-13.058221,-7.581588,-18.816735,0.036539,-0.245712,0.000000,0.397680,0.152459,-0.000000
1.920000,-1.551357,-1.057133,-1.386723,2.056740,-0.469351,0.438514,2.231928,0.373788,0.848828,-0.532112,3.724961,-4.353534,-13.137044,-8.497596,-18.207038,0.040453,-0.244100,0.000000,0.384773,0.169707,0.000000
1.930000,-1.530678,-1.061808,-1.382295,2.079033,-0.465426,0.446785,2.225949,0.410611,0.804381,-0.663644,3.635715,-4.532289,-13.162400,-9.321497,-17.517930,0.044234,-0.242317,0.000000,0.370961,0.186500,0.000000
1.940000,-1.509777,-1.066442,-1.377787,2.101259,-0.461138,0.454602,2.218655,0.446502,0.758183,-0.795360,3.538531,-4.703893,-13.209180,-10.138252,-16.805987,0.047873,-0.240367,0.000000,0.356350,0.202809,0.000000
1.950000,-1.488653,-1.071031,-1.373203,2.123406,-0.456496,0.461948,2.210042,0.481381,0.710304,-0.927827,3.432950,-4.868409,-13.267063,-10.990919,-16.097508,0.051361,-0.238257,0.000000,0.340933,0.218694,0.000000
1.960000,-1.467309,-1.075572,-1.368548,2.145460,-0.451511,0.468808,2.200099,0.515161,0.660814,-1.060701,3.318712,-5.025843,-13.286800,-11.810742,-15.355665,0.054692,-0.235989,0.000000,0.324720,0.234120,0.000000
1.970000,-1.445744,-1.080061,-1.363827,2.167408,-0.446193,0.475165,2.188828,0.547756,0.609787,-1.193563,3.196736,-5.175522,-13.310132,-12.480890,-14.512232,0.057856,-0.233568,0.000000,0.307850,0.249031,0.000000
1.980000,-1.423961,-1.084495,-1.359045,2.189236,-0.440556,0.481004,2.176227,0.579096,0.557304,-1.326903,3.069095,-5.316087,-13.354143,-13.013011,-13.577797,0.060849,-0.231001,0.000000,0.290586,0.263450,0.000000
1.990000,-1.401959,-1.088872,-1.354207,2.210932,-0.434611,0.486311,2.162290,0.609138,0.503465,-1.460646,2.936475,-5.447078,-13.357078,-13.553939,-12.648233,0.063668,-0.228291,0.000000,0.273034,0.277370,-0.000000
2.000000,-1.379742,-1.093188,-1.349319,2.232482,-0.428373,0.491073,2.147015,0.637826,0.448362,-1.594045,2.798016,-5.569052,-13.322468,-14.134196,-11.749542,0.066310,-0.225443,0.000000,0.255126,0.290739,0.000000
2.010000,-1.357310,-1.097439,-1.344386,2.253873,-0.421855,0.495278,2.130409,0.665098,0.392084,-1.727095,2.653791,-5.682069,-13.291443,-14.648173,-10.819999,0.068772,-0.222464,0.000000,0.236897,0.303571,-0.000000
2.020000,-1.334664,-1.101625,-1.339413,2.275090,-0.415071,0.498915,2.112473,0.690901,0.334721,-1.859874,2.505052,-5.785452,-13.232104,-15.020354,-9.809893,0.071049,-0.219358,0.000000,0.218506,0.315875,-0.000000
2.030000,-1.311808,-1.105741,-1.334407,2.296122,-0.408037,0.501972,2.093211,0.715199,0.276375,-1.991738,2.353384,-5.878267,-13.127347,-15.276298,-8.743755,0.073142,-0.216131,0.000000,0.200139,0.327582,0.000000
2.040000,-1.288742,-1.109785,-1.329374,2.316955,-0.400767,0.504442,2.072638,0.737969,0.217156,-2.122421,2.199526,-5.960327,-13.024676,-15.506776,-7.691089,0.075053,-0.212790,0.000000,0.181886,0.338684,-0.000000
2.050000,-1.265469,-1.113756,-1.324318,2.337575,-0.393277,0.506315,2.050763,0.759189,0.157168,-2.252231,2.043249,-6.032088,-12.938712,-15.754961,-6.651861,0.076781,-0.209339,0.000000,0.163733,0.349243,0.000000
2.060000,-1.241991,-1.117651,-1.319247,2.357970,-0.385583,0.507585,2.027593,0.778834,0.096514,-2.381195,1.884427,-6.093364,-12.835917,-15.954615,-5.585850,0.078328,-0.205785,0.000000,0.145678,0.359280,0.000000
2.070000,-1.218309,-1.121468,-1.314167,2.378127,-0.377701,0.508246,2.003139,0.796878,0.035301,-2.508949,1.724157,-6.143805,-12.690261,-15.980972,-4.512024,0.079696,-0.202132,0.000000,0.127840,0.368775,-0.000000
2.080000,-1.194428,-1.125205,-1.309083,2.398033,-0.369646,0.508291,1.977414,0.813317,-0.026362,-2.635000,1.564808,-6.183605,-12.512485,-15.847373,-3.451300,0.080886,-0.198387,0.000000,0.110453,0.377708,0.000000
2.090000,-1.170349,-1.128861,-1.304001,2.417675,-0.361434,0.507718,1.950439,0.828174,-0.088371,-2.759199,1.407209,-6.212831,-12.335868,-15.719119,-2.381447,0.081906,-0.194554,0.000000,0.093595,0.386091,0.000000
2.100000,-1.146074,-1.132434,-1.298928,2.437041,-0.353082,0.506524,1.922230,0.841461,-0.150619,-2.881718,1.250425,-6.231234,-12.164383,-15.638679,-1.289433,0.082759,-0.190639,0.000000,0.077168,0.393963,-0.000000
2.110000,-1.121608,-1.135922,-1.293870,2.456120,-0.344605,0.504706,1.892805,0.853183,-0.212996,-3.002487,1.094435,-6.238620,-11.976313,-15.492597,-0.197473,0.083450,-0.186648,0.000000,0.061167,0.401339,0.000000
2.120000,-1.096952,-1.139326,-1.288834,2.474898,-0.336018,0.502264,1.862181,0.863350,-0.275391,-3.121244,0.940573,-6.235183,-11.764290,-15.186660,0.855269,0.083983,-0.182585,0.000000,0.045710,0.408224,-0.000000
2.130000,-1.072110,-1.142643,-1.283825,2.493363,-0.327338,0.499198,1.830380,0.871994,-0.337699,-3.237773,0.790702,-6.221515,-11.536202,-14.755324,1.868618,0.084365,-0.178455,0.000000,0.030961,0.414633,0.000000
2.140000,-1.047085,-1.145873,-1.278850,2.511505,-0.318579,0.495510,1.797425,0.879164,-0.399822,-3.351968,0.645467,-6.197811,-11.301364,-14.321257,2.887948,0.084603,-0.174263,0.000000,0.016962,0.420586,0.000000
2.150000,-1.021880,-1.149014,-1.273915,2.529312,-0.309755,0.491202,1.763340,0.884903,-0.461656,-3.463800,0.504277,-6.163756,-11.060596,-13.914481,3.931262,0.084705,-0.170013,0.000000,0.003642,0.426098,0.000000
2.160000,-0.996499,-1.152068,-1.269026,2.546772,-0.300881,0.486277,1.728149,0.889250,-0.523097,-3.573180,0.367177,-6.119186,-10.808765,-13.454436,4.961802,0.084677,-0.165710,0.000000,-0.009010,0.431186,0.000000
2.170000,-0.970944,-1.155032,-1.264189,2.563875,-0.291970,0.480740,1.691877,0.892247,-0.584039,-3.679975,0.235188,-6.064520,-10.544586,-12.872468,5.924463,0.084525,-0.161359,0.000000,-0.020919,0.435867,0.000000
2.180000,-0.945221,-1.157907,-1.259411,2.580609,-0.283036,0.474596,1.654550,0.893953,-0.644387,-3.784072,0.109728,-6.000696,-10.270709,-12.195666,6.824088,0.084259,-0.156962,0.000000,-0.031979,0.440170,-0.000000
2.190000,-0.919332,-1.160693,-1.254698,2.596966,-0.274091,0.467852,1.616195,0.894442,-0.704053,-3.885389,-0.008725,-5.928038,-9.989786,-11.517379,7.728256,0.083886,-0.152524,0.000000,-0.042170,0.444113,0.000000
2.200000,-0.893282,-1.163389,-1.250054,2.612933,-0.265147,0.460515,1.576842,0.893779,-0.762948,-3.983867,-0.120620,-5.846131,-9.701377,-10.857394,8.659395,0.083416,-0.148048,0.000000,-0.051552,0.447707,-0.000000
2.210000,-0.867074,-1.165996,-1.245487,2.628503,-0.256215,0.452593,1.536518,0.892029,-0.820976,-4.079417,-0.225873,-5.754850,-9.404870,-10.157491,9.567010,0.082855,-0.143538,0.000000,-0.060137,0.450963,0.000000
2.220000,-0.840712,-1.168513,-1.241002,2.643664,-0.247306,0.444096,1.495253,0.889261,-0.878045,-4.171965,-0.323769,-5.654791,-9.103603,-9.380947,10.388887,0.082213,-0.138997,0.000000,-0.067885,0.453905,-0.000000
2.230000,-0.814200,-1.170942,-1.236605,2.658408,-0.238430,0.435032,1.453079,0.885554,-0.934072,-4.261489,-0.413492,-5.547072,-8.798897,-8.550923,11.135229,0.081498,-0.134429,0.000000,-0.074750,0.456563,0.000000
2.240000,-0.787544,-1.173282,-1.232302,2.672725,-0.229595,0.425414,1.410024,0.880992,-0.988986,-4.347943,-0.494788,-5.432086,-8.487447,-7.720679,11.884266,0.080719,-0.129835,0.000000,-0.080732,0.458955,0.000000
2.250000,-0.760746,-1.175534,-1.228097,2.686608,-0.220810,0.415253,1.366120,0.875658,-1.042713,-4.431238,-0.567905,-5.309387,-8.168025,-6.897947,12.661866,0.079884,-0.125220,0.000000,-0.085871,0.461085,0.000000
2.260000,-0.733811,-1.177698,-1.223997,2.700048,-0.212082,0.404560,1.321399,0.869634,-1.095174,-4.511303,-0.632747,-5.178849,-7.843994,-6.053504,13.411902,0.079001,-0.120584,0.000000,-0.090177,0.462962,0.000000
2.270000,-0.706745,-1.179775,-1.220006,2.713036,-0.203417,0.393349,1.275894,0.863003,-1.146290,-4.588118,-0.688975,-5.041149,-7.520164,-5.182191,14.066086,0.078080,-0.115931,0.000000,-0.093642,0.464608,-0.000000
2.280000,-0.679551,-1.181766,-1.216130,2.725566,-0.194822,0.381634,1.229637,0.855854,-1.195997,-4.661706,-0.736391,-4.897527,-7.196393,-4.300031,14.638118,0.077128,-0.111263,0.000000,-0.096273,0.466052,0.000000
2.290000,-0.652234,-1.183672,-1.212373,2.737629,-0.186300,0.369429,1.182660,0.848275,-1.244241,-4.732046,-0.774976,-4.748387,-6.867614,-3.420256,15.216274,0.076155,-0.106582,0.000000,-0.098088,0.467309,0.000000
2.300000,-0.624798,-1.185492,-1.208741,2.749219,-0.177856,0.356749,1.134996,0.840354,-1.290965,-4.799059,-0.804796,-4.593202,-6.533049,-2.539838,15.824726,0.075167,-0.101889,0.000000,-0.099103,0.468378,0.000000
2.310000,-0.597249,-1.187229,-1.205238,2.760329,-0.169493,0.343610,1.086678,0.832179,-1.336105,-4.862707,-0.825773,-4.431892,-6.197054,-1.657464,16.402633,0.074172,-0.097187,0.000000,-0.099326,0.469268,-0.000000
2.320000,-0.569592,-1.188882,-1.201869,2.770952,-0.161213,0.330027,1.037742,0.823839,-1.379603,-4.923000,-0.837945,-4.265149,-5.863139,-0.795022,16.891929,0.073180,-0.092477,0.000000,-0.098775,0.469998,-0.000000
2.330000,-0.541830,-1.190453,-1.198638,2.781084,-0.153016,0.316018,0.988218,0.815420,-1.421408,-4.979969,-0.841673,-4.094053,-5.531305,0.039376,17.311833,0.072197,-0.087761,0.000000,-0.097501,0.470588,0.000000
2.340000,-0.513970,-1.191942,-1.195549,2.790717,-0.144904,0.301599,0.938142,0.807006,-1.461484,-5.033626,-0.837158,-3.918913,-5.198054,0.867398,17.737888,0.071230,-0.083040,0.000000,-0.095533,0.471050,0.000000
2.350000,-0.486016,-1.193351,-1.192606,2.799846,-0.136876,0.286788,0.887546,0.798677,-1.499786,-5.083930,-0.824325,-3.739296,-4.858337,1.700064,18.177991,0.070286,-0.078315,0.000000,-0.092868,0.471385,-0.000000
2.360000,-0.457973,-1.194680,-1.189813,2.808468,-0.128931,0.271603,0.836464,0.790519,-1.536270,-5.130793,-0.803156,-3.555353,-4.515688,2.515211,18.582847,0.069372,-0.073588,0.000000,-0.089513,0.471595,0.000000
2.370000,-0.429846,-1.195930,-1.187174,2.816576,-0.121066,0.256063,0.784930,0.782614,-1.570893,-5.174244,-0.774021,-3.367639,-4.186165,3.272491,18.941276,0.068495,-0.068860,0.000000,-0.085510,0.471694,0.000000
2.380000,-0.401641,-1.197101,-1.184692,2.824166,-0.113279,0.240185,0.732979,0.775039,-1.603622,-5.214516,-0.737707,-3.176527,-3.870276,3.971239,19.273330,0.067662,-0.064132,0.000000,-0.080932,0.471709,-0.000000
2.390000,-0.373363,-1.198195,-1.182370,2.831235,-0.105565,0.223990,0.680640,0.767860,-1.634424,-5.251650,-0.694596,-2.982172,-3.546919,4.657432,19.591963,0.066876,-0.059404,0.000000,-0.075815,0.471652,-0.000000
2.400000,-0.345017,-1.199213,-1.180212,2.837779,-0.097921,0.207497,0.627946,0.761147,-1.663266,-5.285454,-0.644558,-2.784688,-3.209804,5.347676,19.883830,0.066145,-0.054677,0.000000,-0.070152,0.471511,0.000000
2.410000,-0.316608,-1.200154,-1.178220,2.843794,-0.090342,0.190725,0.574931,0.754969,-1.690118,-5.315846,-0.587643,-2.584496,-2.874027,6.004180,20.143846,0.065473,-0.049952,0.000000,-0.063947,0.471286,0.000000
2.420000,-0.288141,-1.201019,-1.176397,2.849278,-0.082822,0.173695,0.521629,0.749394,-1.714956,-5.342935,-0.524474,-2.381811,-2.554409,6.574487,20.410893,0.064866,-0.045230,0.000000,-0.057256,0.470991,0.000000
2.430000,-0.259622,-1.201810,-1.174746,2.854227,-0.075354,0.156426,0.468072,0.744479,-1.737754,-5.366934,-0.456153,-2.176278,-2.246217,7.063451,20.691117,0.064328,-0.040511,0.000000,-0.050169,0.470649,-0.000000
2.440000,-0.231056,-1.202527,-1.173269,2.858639,-0.067932,0.138939,0.414290,0.740271,-1.758481,-5.387859,-0.383205,-1.967989,-1.930799,7.533876,20.932467,0.063862,-0.035797,0.000000,-0.042729,0.470263,-0.000000
2.450000,-0.202449,-1.203169,-1.171967,2.862513,-0.060549,0.121256,0.360315,0.736815,-1.777114,-5.405550,-0.305475,-1.757628,-1.608595,8.006326,21.119181,0.063473,-0.031086,0.000000,-0.034920,0.469828,0.000000
2.460000,-0.173806,-1.203738,-1.170844,2.865845,-0.053196,0.103397,0.306179,0.734161,-1.793634,-5.420031,-0.223079,-1.545605,-1.292020,8.432853,21.288911,0.063164,-0.026380,0.000000,-0.026751,0.469347,0.000000
2.470000,-0.145132,-1.204233,-1.169899,2.868636,-0.045866,0.085384,0.251914,0.732354,-1.808026,-5.431390,-0.136818,-1.331850,-0.977875,8.753823,21.477564,0.062938,-0.021680,0.000000,-0.018284,0.468832,0.000000
2.480000,-0.116433,-1.204655,-1.169136,2.870884,-0.038549,0.067237,0.197551,0.731425,-1.820271,-5.439589,-0.048002,-1.116054,-0.661738,8.978241,21.674500,0.062798,-0.016984,0.000000,-0.009622,0.468279,0.000000
2.490000,-0.087715,-1.205004,-1.168555,2.872587,-0.031237,0.048978,0.143122,0.731394,-1.830347,-5.444625,0.042746,-0.898360,-0.349164,9.179832,21.834682,0.062745,-0.012295,0.000000,-0.000812,0.467693,-0.000000
2.500000,-0.058982,-1.205280,-1.168156,2.873746,-0.023921,0.030630,0.088659,0.732280,-1.838238,-5.446572,0.135594,-0.679360,-0.041098,9.382088,21.951892,0.062782,-0.007611,0.000000,0.008166,0.467082,0.000000
2.510000,-0.030240,-1.205482,-1.167942,2.874360,-0.016592,0.012213,0.034191,0.734106,-1.843934,-5.445447,0.230388,-0.459322,0.266344,9.531177,22.056935,0.062909,-0.002934,0.000000,0.017304,0.466450,0.000000
2.520000,-0.001494,-1.205611,-1.167912,2.874430,-0.009239,-0.006249,-0.020250,0.736888,-1.847424,-5.441245,0.326218,-0.238221,0.572844,9.563165,22.163801,0.063128,0.001737,0.000000,0.026535,0.465796,0.000000
2.530000,0.027249,-1.205667,-1.168067,2.873955,-0.001854,-0.024735,-0.074634,0.740630,-1.848698,-5.433990,0.421651,-0.016046,0.876756,9.489901,22.263724,0.063439,0.006401,0.000000,0.035744,0.465123,0.000000
2.540000,0.055985,-1.205649,-1.168407,2.872937,0.005574,-0.043223,-0.128930,0.745321,-1.847745,-5.423710,0.516016,0.207053,1.178879,9.392765,22.339977,0.063843,0.011059,0.000000,0.044884,0.464437,0.000000
2.550000,0.084708,-1.205556,-1.168931,2.871377,0.013053,-0.061690,-0.183108,0.750950,-1.844557,-5.410413,0.609507,0.430753,1.481145,9.298512,22.382115,0.064337,0.015710,0.000000,0.053978,0.463736,-0.000000
2.560000,0.113412,-1.205387,-1.169641,2.869275,0.020593,-0.080114,-0.237138,0.757511,-1.839130,-5.394087,0.701986,0.654695,1.782785,9.149698,22.401778,0.064922,0.020354,0.000000,0.063022,0.463021,0.000000
2.570000,0.142093,-1.205144,-1.170534,2.866634,0.028203,-0.098473,-0.290990,0.764990,-1.831463,-5.374757,0.792501,0.878789,2.078885,8.877410,22.429431,0.065598,0.024991,0.000000,0.071942,0.462292,0.000000
2.580000,0.170745,-1.204823,-1.171610,2.863455,0.035892,-0.116743,-0.344633,0.773361,-1.821554,-5.352509,0.879534,1.103284,2.369621,8.495784,22.464138,0.066361,0.029621,0.000000,0.080620,0.461558,0.000000
2.590000,0.199362,-1.204426,-1.172869,2.859741,0.043670,-0.134904,-0.398040,0.782581,-1.809398,-5.327365,0.962416,1.328072,2.661681,8.095139,22.463693,0.067210,0.034243,0.000000,0.089005,0.460820,0.000000
2.600000,0.227940,-1.203950,-1.174308,2.855494,0.051544,-0.152931,-0.451181,0.792609,-1.794993,-5.299276,1.041437,1.552558,2.955026,7.705007,22.407015,0.068142,0.038859,0.000000,0.097127,0.460072,0.000000
2.610000,0.256472,-1.203395,-1.175927,2.850718,0.059522,-0.170804,-0.504026,0.803409,-1.778347,-5.268264,1.116517,1.776212,3.245236,7.263664,22.323081,0.069153,0.043467,0.000000,0.104983,0.459313,0.000000
2.620000,0.284954,-1.202760,-1.177724,2.845414,0.067612,-0.188498,-0.556546,0.814939,-1.759469,-5.234371,1.186710,1.999019,3.533953,6.699495,22.263045,0.070242,0.048068,0.000000,0.112498,0.458544,0.000000
2.630000,0.313380,-1.202043,-1.179697,2.839587,0.075821,-0.205993,-0.608713,0.827144,-1.738366,-5.197585,1.250506,2.221473,3.823300,6.029539,22.218587,0.071403,0.052661,0.000000,0.119551,0.457766,0.000000
2.640000,0.341746,-1.201243,-1.181844,2.833240,0.084155,-0.223266,-0.660498,0.839950,-1.715039,-5.157905,1.307301,2.443391,4.110584,5.349996,22.119550,0.072633,0.057247,0.000000,0.126093,0.456976,-0.000000
2.650000,0.370045,-1.200360,-1.184162,2.826377,0.092620,-0.240294,-0.711871,0.853290,-1.689498,-5.115373,1.357506,2.663864,4.391998,4.691475,21.951894,0.073926,0.061826,0.000000,0.132158,0.456172,0.000000
2.660000,0.398273,-1.199391,-1.186650,2.819002,0.101221,-0.257055,-0.762805,0.867100,-1.661762,-5.070065,1.401131,2.882429,4.669731,3.990296,21.761345,0.075277,0.066396,0.000000,0.137745,0.455356,-0.000000
2.670000,0.426425,-1.198335,-1.189304,2.811121,0.109962,-0.273529,-0.813272,0.881312,-1.631850,-5.021979,1.437312,3.099091,4.953653,3.176556,21.572182,0.076681,0.070959,0.000000,0.142781,0.454523,0.000000
2.680000,0.454496,-1.197192,-1.192120,2.802737,0.118847,-0.289692,-0.863245,0.895846,-1.599780,-4.970992,1.464662,3.313873,5.243656,2.269937,21.365963,0.078132,0.075514,0.000000,0.147145,0.453659,-0.000000
2.690000,0.482480,-1.195958,-1.195097,2.793856,0.127879,-0.305525,-0.912692,0.910605,-1.565572,-4.917105,1.482711,3.526410,5.526201,1.366655,21.110196,0.079624,0.080061,0.000000,0.150792,0.452760,0.000000
2.700000,0.510373,-1.194634,-1.198231,2.784483,0.137059,-0.321004,-0.961587,0.925500,-1.529252,-4.860468,1.491995,3.736077,5.797666,0.495404,20.812286,0.081149,0.084599,0.000000,0.153760,0.451830,0.000000
2.710000,0.538170,-1.193217,-1.201517,2.774624,0.146389,-0.336110,-1.009902,0.940445,-1.490851,-4.801152,1.492619,3.942656,6.067235,-0.405317,20.489989,0.082700,0.089128,0.000000,0.156051,0.450867,-0.000000
2.720000,0.565865,-1.191706,-1.204953,2.764285,0.155868,-0.350821,-1.057610,0.955353,-1.450399,-4.739123,1.483889,4.145876,6.342292,-1.396042,20.114658,0.084270,0.093648,0.000000,0.157596,0.449862,-0.000000
2.730000,0.593455,-1.190100,-1.208534,2.753472,0.165496,-0.365118,-1.104684,0.970123,-1.407933,-4.674306,1.464698,4.344949,6.619686,-2.455188,19.673882,0.085852,0.098158,0.000000,0.158283,0.448796,-0.000000
2.740000,0.620935,-1.188396,-1.212256,2.742191,0.175271,-0.378980,-1.151096,0.984647,-1.363500,-4.606729,1.434785,4.539354,6.889699,-3.496920,19.205661,0.087436,0.102658,0.000000,0.158073,0.447658,0.000000
2.750000,0.648299,-1.186594,-1.216113,2.730450,0.185189,-0.392388,-1.196819,0.998819,-1.317146,-4.536512,1.394760,4.729062,7.151631,-4.498752,18.734608,0.089014,0.107147,0.000000,0.157006,0.446450,0.000000
2.760000,0.675544,-1.184692,-1.220103,2.718255,0.195247,-0.405323,-1.241826,1.012542,-1.268919,-4.463697,1.344810,4.914046,7.411584,-5.512911,18.230478,0.090576,0.111623,0.000000,0.155084,0.445169,0.000000
2.770000,0.702664,-1.182689,-1.224220,2.705613,0.205440,-0.417766,-1.286093,1.025715,-1.218865,-4.388281,1.284502,5.093672,7.669915,-6.580280,17.627752,0.092115,0.116087,0.000000,0.152247,0.443797,-0.000000
2.780000,0.729656,-1.180584,-1.228459,2.692533,0.215761,-0.429700,-1.329592,1.038232,-1.167045,-4.310298,1.213204,5.266601,7.924178,-7.679211,16.929690,0.093621,0.120538,0.000000,0.148409,0.442315,0.000000
2.790000,0.756515,-1.178374,-1.232814,2.679022,0.226204,-0.441107,-1.372299,1.049979,-1.113533,-4.229797,1.130917,5.432265,8.173871,-8.748353,16.222252,0.095084,0.124973,0.000000,0.143541,0.440707,0.000000
2.800000,0.783237,-1.176060,-1.237281,2.665087,0.236761,-0.451970,-1.414188,1.060850,-1.058400,-4.146821,1.038237,5.591046,8.418981,-9.776321,15.536745,0.096492,0.129392,0.000000,0.137678,0.438967,-0.000000
2.810000,0.809817,-1.173639,-1.241853,2.650738,0.247421,-0.462275,-1.455235,1.070744,-1.001712,-4.061417,0.935391,5.743000,8.659330,-10.796731,14.812180,0.097837,0.133794,0.000000,0.130817,0.437089,0.000000
2.820000,0.836251,-1.171111,-1.246526,2.635982,0.258176,-0.472005,-1.495416,1.079558,-0.943540,-3.973634,0.822303,5.887290,8.894804,-11.819811,13.971003,0.099108,0.138177,0.000000,0.122916,0.435052,0.000000
2.830000,0.862536,-1.168475,-1.251293,2.620830,0.269013,-0.481146,-1.534708,1.087190,-0.883967,-3.883521,0.698995,6.022420,9.125238,-12.826760,13.028009,0.100295,0.142538,0.000000,0.113937,0.432825,-0.000000
2.840000,0.888668,-1.165731,-1.256149,2.605288,0.279919,-0.489684,-1.573087,1.093538,-0.823092,-3.791130,0.565767,6.147850,9.350138,-13.795946,12.085452,0.101387,0.146877,0.000000,0.103871,0.430388,0.000000
2.850000,0.914642,-1.162877,-1.261087,2.589368,0.290883,-0.497607,-1.610530,1.098505,-0.761010,-3.696519,0.423076,6.264129,9.568366,-14.731461,11.176935,0.102372,0.151191,0.000000,0.092733,0.427734,-0.000000
2.860000,0.940455,-1.159913,-1.266101,2.573078,0.301890,-0.504904,-1.647017,1.101999,-0.697809,-3.599762,0.271138,6.371389,9.779870,-15.638602,10.232718,0.103241,0.155477,0.000000,0.080515,0.424852,0.000000
2.870000,0.966104,-1.156839,-1.271185,2.556427,0.312923,-0.511564,-1.682525,1.103928,-0.633582,-3.500921,0.110304,6.468784,9.986888,-16.487984,9.172227,0.103982,0.159734,0.000000,0.067207,0.421717,0.000000
2.880000,0.991584,-1.153655,-1.276333,2.539427,0.323968,-0.517576,-1.717035,1.104205,-0.568433,-3.400025,-0.058622,6.554833,10.189198,-17.267248,8.014982,0.104584,0.163957,0.000000,0.052837,0.418285,-0.000000
2.890000,1.016892,-1.150360,-1.281537,2.522087,0.335007,-0.522932,-1.750526,1.102756,-0.502485,-3.297137,-0.235041,6.629083,10.383050,-18.007202,6.869457,0.105038,0.168145,0.000000,0.037424,0.414533,0.000000
2.900000,1.042026,-1.146955,-1.286791,2.504417,0.346023,-0.527626,-1.782978,1.099505,-0.435852,-3.192364,-0.418766,6.692222,10.567561,-18.729824,5.769620,0.105332,0.172294,0.000000,0.020960,0.410453,0.000000
2.910000,1.066981,-1.143439,-1.292089,2.486427,0.356997,-0.531649,-1.814373,1.094380,-0.368641,-3.085786,-0.609638,6.744476,10.744812,-19.404490,4.643882,0.105456,0.176400,0.000000,0.003430,0.406034,0.000000
2.920000,1.091754,-1.139815,-1.297424,2.468129,0.367911,-0.534998,-1.844694,1.087312,-0.300962,-2.977467,-0.806855,6.785100,10.915462,-19.958841,3.415329,0.105400,0.180460,0.000000,-0.015130,0.401242,0.000000
2.930000,1.116343,-1.136081,-1.302789,2.449533,0.378744,-0.537669,-1.873923,1.078243,-0.232939,-2.867477,-1.008814,6.812782,11.078213,-20.390502,2.106898,0.105152,0.184470,0.000000,-0.034607,0.396034,-0.000000
2.940000,1.140745,-1.132240,-1.308178,2.430651,0.389476,-0.539657,-1.902043,1.067136,-0.164707,-2.755903,-1.214665,6.827238,11.231679,-20.788108,0.824607,0.104706,0.188425,0.000000,-0.054949,0.390383,0.000000
2.950000,1.164956,-1.128292,-1.313582,2.411492,0.400086,-0.540963,-1.929041,1.053950,-0.096394,-2.642843,-1.424577,6.829274,11.376902,-21.191065,-0.403822,0.104052,0.192320,0.000000,-0.076187,0.384282,0.000000
2.960000,1.188975,-1.124238,-1.318997,2.392070,0.410555,-0.541585,-1.954900,1.038644,-0.028121,-2.528365,-1.638487,6.819162,11.514163,-21.530532,-1.645586,0.103181,0.196152,0.000000,-0.098336,0.377714,0.000000
2.970000,1.212798,-1.120081,-1.324414,2.372394,0.420859,-0.541525,-1.979608,1.021180,0.039989,-2.412560,-1.855187,6.796363,11.639316,-21.695191,-2.955681,0.102084,0.199914,0.000000,-0.121304,0.370649,0.000000
2.980000,1.236422,-1.115821,-1.329827,2.352478,0.430978,-0.540785,-2.003151,1.001540,0.107806,-2.295579,-2.072391,6.760048,11.751422,-21.695186,-4.308472,0.100754,0.203603,0.000000,-0.144885,0.363053,0.000000
2.990000,1.259847,-1.111461,-1.335230,2.332331,0.440890,-0.539369,-2.025520,0.979732,0.175190,-2.177532,-2.289091,6.710193,11.855619,-21.672549,-5.625653,0.099185,0.207212,0.000000,-0.168986,0.354906,-0.000000
3.000000,1.283069,-1.107003,-1.340615,2.311967,0.450573,-0.537281,-2.046702,0.955758,0.242010,-2.058466,-2.505842,6.647535,11.954310,-21.679114,-6.894718,0.097372,0.210735,0.000000,-0.193659,0.346195,0.000000
3.010000,1.306086,-1.102450,-1.345975,2.291397,0.460005,-0.534529,-2.066689,0.929615,0.308141,-1.938445,-2.722673,6.572299,12.043375,-21.612384,-8.161307,0.095310,0.214168,0.000000,-0.218906,0.336904,0.000000
3.020000,1.328897,-1.097803,-1.351305,2.270634,0.469165,-0.531119,-2.085471,0.901305,0.373456,-1.817599,-2.938089,6.484309,12.116134,-21.337419,-9.438555,0.092993,0.217503,0.000000,-0.244574,0.327012,0.000000
3.030000,1.351499,-1.093066,-1.356598,2.249688,0.478031,-0.527060,-2.103041,0.870854,0.437827,-1.696123,-3.149422,6.383528,12.173380,-20.877380,-10.703758,0.090417,0.220736,0.000000,-0.270376,0.316511,0.000000
3.040000,1.373891,-1.088242,-1.361846,2.228573,0.486582,-0.522362,-2.119393,0.838317,0.501127,-1.574131,-3.355637,6.270234,12.223458,-20.408124,-11.933204,0.087584,0.223859,0.000000,-0.296182,0.305390,0.000000
3.050000,1.396071,-1.083335,-1.367045,2.207300,0.494798,-0.517037,-2.134523,0.803741,0.563232,-1.451653,-3.557584,6.144864,12.267499,-19.986712,-13.133591,0.084492,0.226866,0.000000,-0.322048,0.293639,-0.000000
3.060000,1.418037,-1.078346,-1.372187,2.185882,0.502657,-0.511097,-2.148426,0.767165,0.624024,-1.328781,-3.755371,6.007562,12.299521,-19.491416,-14.311861,0.081142,0.229751,0.000000,-0.347956,0.281246,0.000000
3.070000,1.439788,-1.073281,-1.377267,2.164332,0.510141,-0.504557,-2.161099,0.728633,0.683383,-1.205663,-3.947412,5.858627,12.316858,-18.782490,-15.433382,0.077532,0.232508,0.000000,-0.373702,0.268214,-0.000000
3.080000,1.461323,-1.068144,-1.382278,2.142660,0.517230,-0.497430,-2.172540,0.688217,0.741196,-1.082444,-4.131021,5.698894,12.319504,-17.893527,-16.485181,0.073667,0.235131,0.000000,-0.398949,0.254560,0.000000
3.090000,1.482641,-1.062937,-1.387216,2.120881,0.523905,-0.489733,-2.182748,0.646013,0.797361,-0.959273,-4.305283,5.528923,12.310728,-17.009918,-17.506282,0.069552,0.237612,0.000000,-0.423544,0.240298,0.000000
3.100000,1.503741,-1.057665,-1.392073,2.099005,0.530150,-0.481483,-2.191725,0.602111,0.851775,-0.836230,-4.471219,5.348769,12.303787,-16.183077,-18.521779,0.065195,0.239947,0.000000,-0.447538,0.225427,0.000000
3.110000,1.524621,-1.052334,-1.396845,2.077046,0.535948,-0.472697,-2.199473,0.556589,0.904336,-0.713197,-4.628944,5.158487,12.295323,-15.289426,-19.495920,0.060601,0.242129,0.000000,-0.470886,0.209926,0.000000
3.120000,1.545282,-1.046947,-1.401527,2.055016,0.541282,-0.463396,-2.205989,0.509532,0.954945,-0.590323,-4.777008,4.958850,12.246751,-14.212814,-20.350731,0.055777,0.244152,0.000000,-0.493362,0.193824,0.000000
3.130000,1.565722,-1.041508,-1.406113,2.032926,0.546138,-0.453598,-2.211279,0.461049,1.003513,-0.468262,-4.913201,4.751473,12.160496,-12.992854,-21.084116,0.050733,0.246011,0.000000,-0.514649,0.177233,0.000000
3.140000,1.585940,-1.036024,-1.410599,2.010790,0.550503,-0.443326,-2.215354,0.411268,1.049974,-0.347113,-5.036865,4.537168,12.089046,-11.786709,-21.793384,0.045484,0.247700,0.000000,-0.534598,0.160187,0.000000
3.150000,1.605938,-1.030498,-1.414980,1.988619,0.554364,-0.432599,-2.218221,0.360311,1.094257,-0.226481,-5.148935,4.315605,12.018469,-10.632172,-22.532673,0.040042,0.249216,0.000000,-0.553242,0.142643,0.000000
3.160000,1.625713,-1.024936,-1.419251,1.966426,0.557709,-0.421440,-2.219884,0.308289,1.136286,-0.106744,-5.249508,4.086514,11.915162,-9.429183,-23.227083,0.034420,0.250554,0.000000,-0.570522,0.124643,0.000000
3.170000,1.645266,-1.019344,-1.423408,1.944222,0.560529,-0.409873,-2.220356,0.255321,1.175987,0.011822,-5.337519,3.851063,11.831576,-8.101462,-23.725838,0.028632,0.251710,0.000000,-0.586244,0.106261,0.000000
3.180000,1.664597,-1.013726,-1.427448,1.922019,0.562815,-0.397921,-2.219648,0.201539,1.213307,0.129888,-5.411538,3.611998,11.780718,-6.686843,-24.042968,0.022695,0.252679,0.000000,-0.600168,0.087517,0.000000
3.190000,1.683707,-1.008088,-1.431367,1.899829,0.564560,-0.385607,-2.217758,0.147090,1.248227,0.247436,-5.471255,3.370204,11.688007,-5.292907,-24.375347,0.016629,0.253460,0.000000,-0.612195,0.068459,0.000000
3.200000,1.702594,-1.002435,-1.435160,1.877664,0.565757,-0.372956,-2.214699,0.092114,1.280712,0.363648,-5.517396,3.124491,11.551881,-3.935316,-24.763215,0.010453,0.254048,0.000000,-0.622350,0.049166,-0.000000
3.210000,1.721260,-0.996773,-1.438826,1.855535,0.566402,-0.359993,-2.210485,0.036742,1.310717,0.478474,-5.549962,2.874940,11.422574,-2.551340,-25.069872,0.004184,0.254442,0.000000,-0.630574,0.029670,0.000000
3.220000,1.739705,-0.991107,-1.442360,1.833454,0.566492,-0.346742,-2.205129,-0.018885,1.338210,0.592099,-5.568422,2.623093,11.282918,-1.125908,-25.208797,-0.002157,0.254640,0.000000,-0.636754,0.010023,0.000000
3.230000,1.757929,-0.985443,-1.445761,1.811432,0.566025,-0.333229,-2.198643,-0.074626,1.363179,0.704132,-5.572480,2.370764,11.114668,0.308851,-25.221021,-0.008550,0.254642,0.000000,-0.640814,-0.009650,0.000000
3.240000,1.775933,-0.979786,-1.449025,1.789481,0.565000,-0.319478,-2.191047,-0.130335,1.385626,0.814393,-5.562245,2.118673,10.945563,1.725045,-25.213615,-0.014972,0.254447,0.000000,-0.642733,-0.029278,0.000000
3.250000,1.793718,-0.974143,-1.452150,1.767611,0.563418,-0.305516,-2.182356,-0.185871,1.405552,0.923044,-5.537979,1.866491,10.778573,3.139635,-25.214317,-0.021403,0.254056,0.000000,-0.642514,-0.048854,0.000000
3.260000,1.811285,-0.968518,-1.455135,1.745834,0.561282,-0.291367,-2.172586,-0.241095,1.422955,1.029964,-5.499453,1.614386,10.594169,4.558673,-25.151130,-0.027820,0.253469,0.000000,-0.640111,-0.068329,0.000000
3.270000,1.828635,-0.962917,-1.457978,1.724160,0.558596,-0.277057,-2.161756,-0.295860,1.437840,1.134927,-5.446806,1.363469,10.396587,5.913872,-24.950402,-0.034203,0.252689,0.000000,-0.635528,-0.087613,0.000000
3.280000,1.845769,-0.957346,-1.460676,1.702599,0.555365,-0.262610,-2.149887,-0.350031,1.450225,1.237896,-5.381175,1.115378,10.193649,7.188176,-24.630302,-0.040529,0.251716,0.000000,-0.628902,-0.106620,-0.000000
3.290000,1.862687,-0.951810,-1.463230,1.681162,0.551595,-0.248052,-2.136998,-0.403484,1.460147,1.338800,-5.303042,0.870863,9.977243,8.464055,-24.289913,-0.046779,0.250554,0.000000,-0.620301,-0.125292,0.000000
3.300000,1.879392,-0.946314,-1.465637,1.659859,0.547295,-0.233407,-2.123111,-0.456091,1.467642,1.437441,-5.211894,0.629580,9.738960,9.779396,-23.978132,-0.052933,0.249207,0.000000,-0.609677,-0.143586,0.000000
3.310000,1.895884,-0.940864,-1.467898,1.638700,0.542474,-0.218700,-2.108250,-0.507721,1.472739,1.533579,-5.107454,0.391300,9.484877,11.066240,-23.628314,-0.058971,0.247679,0.000000,-0.597016,-0.161452,0.000000
3.320000,1.912166,-0.935464,-1.470011,1.617694,0.537141,-0.203953,-2.092440,-0.558241,1.475468,1.627138,-4.990569,0.157014,9.234141,12.215236,-23.117898,-0.064872,0.245973,0.000000,-0.582448,-0.178827,0.000000
3.330000,1.928238,-0.930121,-1.471977,1.596851,0.531309,-0.189190,-2.075707,-0.607533,1.475879,1.718262,-4.863149,-0.071058,8.983375,13.235212,-22.468915,-0.070618,0.244095,0.000000,-0.566244,-0.195640,0.000000
3.340000,1.944103,-0.924838,-1.473795,1.576180,0.524990,-0.174435,-2.058074,-0.655504,1.474047,1.806806,-4.725865,-0.292364,8.706661,14.261158,-21.850265,-0.076196,0.242051,0.000000,-0.548529,-0.211841,0.000000
3.350000,1.959762,-0.919621,-1.475466,1.555689,0.518199,-0.159709,-2.039571,-0.702050,1.470032,1.892395,-4.577926,-0.508063,8.413610,15.333584,-21.278277,-0.081588,0.239846,0.000000,-0.529244,-0.227400,0.000000
3.360000,1.975217,-0.914474,-1.476989,1.535388,0.510949,-0.145034,-2.020227,-0.747062,1.463886,1.975078,-4.419193,-0.717930,8.120208,16.352386,-20.645019,-0.086779,0.237488,0.000000,-0.508420,-0.242302,0.000000
3.370000,1.990470,-0.909402,-1.478367,1.515285,0.503258,-0.130432,-2.000069,-0.790434,1.455673,2.054799,-4.250878,-0.920963,7.792619,17.207574,-19.944677,-0.091755,0.234982,0.000000,-0.486254,-0.256501,0.000000
3.380000,2.005522,-0.904409,-1.479598,1.495387,0.495141,-0.115921,-1.979131,-0.832080,1.445466,2.130930,-4.075042,-1.116824,7.424324,17.923441,-19.225185,-0.096504,0.232337,0.000000,-0.463038,-0.269907,0.000000
3.390000,2.020377,-0.899499,-1.480685,1.475702,0.486616,-0.101522,-1.957451,-0.871935,1.433337,2.203286,-3.892410,-1.305467,7.062731,18.636229,-18.492328,-0.101015,0.229560,0.000000,-0.438903,-0.282492,-0.000000
3.400000,2.035036,-0.894677,-1.481628,1.456238,0.477702,-0.087254,-1.935065,-0.909928,1.419357,2.272185,-3.702317,-1.486670,6.708116,19.371002,-17.706762,-0.105281,0.226659,0.000000,-0.413825,-0.294284,0.000000
3.410000,2.049502,-0.889945,-1.482430,1.437001,0.468417,-0.073135,-1.912007,-0.945981,1.403603,2.337448,-3.504990,-1.659602,6.328394,20.031212,-16.875810,-0.109291,0.223642,0.000000,-0.387890,-0.305241,-0.000000
3.420000,2.063776,-0.885309,-1.483091,1.417998,0.458782,-0.059182,-1.888316,-0.980028,1.386165,2.398753,-3.301693,-1.824186,5.935237,20.553029,-16.113631,-0.113039,0.220518,0.000000,-0.361292,-0.315328,0.000000
3.430000,2.077862,-0.880770,-1.483614,1.399235,0.448817,-0.045412,-1.864032,-1.012015,1.367120,2.456153,-3.093929,-1.981875,5.536251,20.962079,-15.428788,-0.116517,0.217296,0.000000,-0.334228,-0.324594,0.000000
3.440000,2.091761,-0.876332,-1.483999,1.380717,0.438542,-0.031840,-1.839193,-1.041906,1.346528,2.509478,-2.882452,-2.132762,5.113539,21.335003,-14.672063,-0.119723,0.213983,0.000000,-0.306822,-0.333027,0.000000
3.450000,2.105476,-0.871999,-1.484250,1.362451,0.427979,-0.018481,-1.813842,-1.069664,1.324465,2.558424,-2.667229,-2.275316,4.694037,21.700251,-13.815426,-0.122654,0.210588,0.000000,-0.279128,-0.340564,0.000000
3.460000,2.119010,-0.867773,-1.484369,1.344440,0.417149,-0.005351,-1.788024,-1.095251,1.301021,2.603359,-2.448447,-2.409071,4.287931,22.003110,-12.966120,-0.125306,0.207120,0.000000,-0.251213,-0.347249,0.000000
3.470000,2.132365,-0.863656,-1.484357,1.326690,0.406074,0.007539,-1.761775,-1.118633,1.276283,2.644182,-2.227167,-2.534639,3.809006,22.161229,-12.182242,-0.127678,0.203589,0.000000,-0.223221,-0.353099,0.000000
3.480000,2.145544,-0.859651,-1.484218,1.309205,0.394776,0.020175,-1.735141,-1.139794,1.250328,2.679539,-2.005222,-2.652715,3.249388,22.181871,-11.429141,-0.129771,0.200001,0.000000,-0.195373,-0.357993,-0.000000
3.490000,2.158549,-0.855760,-1.483954,1.291987,0.383278,0.032546,-1.708184,-1.158737,1.223229,2.709170,-1.783529,-2.763222,2.730215,22.174751,-10.642063,-0.131586,0.196369,0.000000,-0.167797,-0.361918,0.000000
3.500000,2.171384,-0.851986,-1.483567,1.275041,0.371601,0.044640,-1.680957,-1.175465,1.195064,2.734143,-1.561727,-2.865557,2.275697,22.207760,-9.836825,-0.133127,0.192700,0.000000,-0.140484,-0.364996,-0.000000
3.510000,2.184050,-0.848328,-1.483061,1.258368,0.359769,0.056447,-1.653501,-1.189972,1.165918,2.754684,-1.339374,-2.959958,1.804233,22.202812,-9.057729,-0.134397,0.189004,0.000000,-0.113400,-0.367277,-0.000000
3.520000,2.196551,-0.844790,-1.482438,1.241971,0.347802,0.067958,-1.625864,-1.202252,1.135865,2.770228,-1.117671,-3.046711,1.278059,21.981877,-8.265720,-0.135396,0.185288,0.000000,-0.086689,-0.368723,0.000000
3.530000,2.208889,-0.841372,-1.481702,1.225851,0.335723,0.079164,-1.598097,-1.212325,1.104983,2.780245,-0.899737,-3.125272,0.726218,21.564569,-7.446760,-0.136131,0.181562,0.000000,-0.060715,-0.369284,-0.000000
3.540000,2.221068,-0.838076,-1.480855,1.210009,0.323555,0.090058,-1.570259,-1.220247,1.073359,2.784752,-0.686379,-3.195646,0.196619,21.193160,-6.662560,-0.136611,0.177834,0.000000,-0.035572,-0.368984,0.000000
3.550000,2.233090,-0.834901,-1.479901,1.194446,0.311319,0.100631,-1.542402,-1.226053,1.041071,2.784178,-0.475873,-3.258524,-0.308251,20.909889,-5.918594,-0.136843,0.174113,0.000000,-0.011062,-0.367905,0.000000
3.560000,2.244957,-0.831849,-1.478843,1.179161,0.299034,0.110879,-1.514575,-1.229764,1.008189,2.778587,-0.268182,-3.314018,-0.816889,20.554196,-5.176067,-0.136833,0.170407,0.000000,0.012818,-0.366077,0.000000
3.570000,2.256673,-0.828921,-1.477683,1.164154,0.286723,0.120795,-1.486830,-1.231417,0.974790,2.767840,-0.064790,-3.362045,-1.330819,20.057425,-4.446360,-0.136588,0.166723,0.000000,0.035905,-0.363502,0.000000
3.580000,2.268240,-0.826115,-1.476427,1.149424,0.274406,0.130375,-1.459218,-1.231060,0.940948,2.751971,0.132967,-3.402946,-1.837197,19.482174,-3.751122,-0.136116,0.163068,0.000000,0.058062,-0.360212,0.000000
3.590000,2.279661,-0.823432,-1.475076,1.134970,0.262102,0.139614,-1.431791,-1.228757,0.906731,2.731096,0.324854,-3.437067,-2.332229,18.915542,-3.074467,-0.135427,0.159451,0.000000,0.079277,-0.356244,0.000000
3.600000,2.290939,-0.820873,-1.473634,1.120789,0.249831,0.148510,-1.404596,-1.224563,0.872207,2.705326,0.511278,-3.464435,-2.818576,18.330469,-2.378791,-0.134531,0.155878,0.000000,0.099602,-0.351629,0.000000
3.610000,2.302077,-0.818436,-1.472106,1.106878,0.237611,0.157058,-1.377684,-1.218532,0.837443,2.674724,0.691463,-3.484643,-3.294853,17.679397,-1.681527,-0.133436,0.152354,0.000000,0.118957,-0.346386,-0.000000
3.620000,2.313077,-0.816121,-1.470493,1.093235,0.225460,0.165258,-1.351102,-1.210734,0.802514,2.639429,0.864866,-3.498065,-3.749413,17.052426,-1.089187,-0.132152,0.148888,0.000000,0.137300,-0.340553,0.000000
3.630000,2.323942,-0.813927,-1.468800,1.079856,0.213396,0.173109,-1.324896,-1.201234,0.767481,2.599736,1.032512,-3.506427,-4.177881,16.477112,-0.604383,-0.130690,0.145483,0.000000,0.154781,-0.334206,0.000000
3.640000,2.334674,-0.811853,-1.467031,1.066737,0.201435,0.180608,-1.299107,-1.190084,0.732385,2.555871,1.194408,-3.510153,-4.592330,15.833433,-0.084327,-0.129057,0.142146,0.000000,0.171415,-0.327389,0.000000
3.650000,2.345277,-0.809898,-1.465188,1.053874,0.189594,0.187756,-1.273778,-1.177346,0.697278,2.507889,1.349180,-3.508113,-5.006235,15.093160,0.504313,-0.127263,0.138880,0.000000,0.187053,-0.320103,0.000000
3.660000,2.355752,-0.808061,-1.463276,1.041261,0.177889,0.194554,-1.248949,-1.163100,0.662223,2.455747,1.496271,-3.500067,-5.407106,14.345581,1.061986,-0.125317,0.135691,0.000000,0.201649,-0.312354,-0.000000
3.670000,2.366102,-0.806340,-1.461297,1.028895,0.166332,0.201001,-1.224663,-1.147421,0.627277,2.399747,1.636092,-3.486874,-5.751764,13.650778,1.519801,-0.123230,0.132584,0.000000,0.215273,-0.304198,0.000000
3.680000,2.376330,-0.804734,-1.459256,1.016768,0.154940,0.207099,-1.200955,-1.130378,0.592486,2.340711,1.769287,-3.469671,-6.037619,12.984386,1.911514,-0.121012,0.129561,0.000000,0.228022,-0.295750,-0.000000
3.690000,2.386437,-0.803241,-1.457155,1.004876,0.143725,0.212850,-1.177849,-1.112035,0.557883,2.278995,1.895780,-3.448643,-6.320356,12.278183,2.322634,-0.118670,0.126625,0.000000,0.239905,-0.287055,0.000000
3.700000,2.396427,-0.801860,-1.454999,0.993211,0.132699,0.218257,-1.155375,-1.092463,0.523513,2.214304,2.014850,-3.423218,-6.627235,11.525387,2.746025,-0.116214,0.123779,0.000000,0.250854,-0.278084,-0.000000
3.710000,2.406301,-0.800587,-1.452790,0.981768,0.121876,0.223321,-1.133563,-1.071738,0.489419,2.146450,2.126288,-3.393723,-6.916524,10.775806,3.126631,-0.113653,0.121025,0.000000,0.260866,-0.268827,0.000000
3.720000,2.416062,-0.799422,-1.450532,0.970540,0.111265,0.228045,-1.112446,-1.049937,0.455638,2.075974,2.230367,-3.360685,-7.115749,10.054861,3.492192,-0.110997,0.118367,0.000000,0.269991,-0.259354,-0.000000
3.730000,2.425712,-0.798362,-1.448229,0.959519,0.100877,0.232433,-1.092043,-1.027131,0.422205,2.004135,2.327385,-3.323879,-7.233704,9.350417,3.863693,-0.108254,0.115805,0.000000,0.278271,-0.249799,0.000000
3.740000,2.435253,-0.797405,-1.445884,0.948699,0.090722,0.236489,-1.072363,-1.003389,0.389161,1.931300,2.417375,-3.283412,-7.365190,8.636446,4.199282,-0.105432,0.113341,0.000000,0.285725,-0.240204,-0.000000
3.750000,2.444686,-0.796548,-1.443499,0.938072,0.080809,0.240217,-1.053417,-0.978783,0.356537,1.856831,2.500114,-3.239893,-7.531788,7.903711,4.493257,-0.102539,0.110974,0.000000,0.292352,-0.230514,-0.000000
3.760000,2.454014,-0.795788,-1.441079,0.927631,0.071146,0.243620,-1.035226,-0.953387,0.324363,1.780664,2.575449,-3.193547,-7.668022,7.173349,4.775497,-0.099585,0.108706,0.000000,0.298151,-0.220724,-0.000000
3.770000,2.463239,-0.795125,-1.438627,0.917368,0.061741,0.246704,-1.017804,-0.927274,0.292666,1.703471,2.643581,-3.144384,-7.726203,6.479892,5.047130,-0.096576,0.106537,0.000000,0.303156,-0.210907,0.000000
3.780000,2.472362,-0.794554,-1.436145,0.907275,0.052601,0.249473,-1.001157,-0.900515,0.261475,1.626140,2.705047,-3.092604,-7.727435,5.820670,5.297625,-0.093522,0.104468,0.000000,0.307437,-0.201158,0.000000
3.790000,2.481384,-0.794073,-1.433638,0.897344,0.043731,0.251933,-0.985281,-0.873173,0.230814,1.548922,2.759994,-3.038431,-7.731978,5.153528,5.529243,-0.090428,0.102496,0.000000,0.311023,-0.191502,-0.000000
3.800000,2.490308,-0.793679,-1.431107,0.887569,0.035137,0.254090,-0.970178,-0.845315,0.200706,1.471500,2.808117,-2.982019,-7.744895,4.468034,5.748160,-0.087301,0.100622,0.000000,0.313894,-0.181908,-0.000000
3.810000,2.499136,-0.793370,-1.428556,0.877941,0.026825,0.255948,-0.955851,-0.817011,0.171174,1.394024,2.849355,-2.923468,-7.726918,3.795654,5.952752,-0.084150,0.098844,0.000000,0.316057,-0.172390,0.000000
3.820000,2.507867,-0.793142,-1.425988,0.868452,0.018797,0.257513,-0.942298,-0.788328,0.142237,1.316962,2.884031,-2.862964,-7.669822,3.165029,6.131244,-0.080980,0.097161,0.000000,0.317556,-0.162996,0.000000
3.830000,2.516505,-0.792994,-1.423405,0.859095,0.011058,0.258792,-0.929512,-0.759330,0.113914,1.240628,2.912655,-2.800843,-7.587766,2.568779,6.284350,-0.077798,0.095573,0.000000,0.318455,-0.153759,0.000000
3.840000,2.525049,-0.792921,-1.420812,0.849862,0.003611,0.259791,-0.917485,-0.730075,0.086220,1.165207,2.935406,-2.737277,-7.490341,1.972761,6.429130,-0.074611,0.094076,0.000000,0.318782,-0.144696,0.000000
3.850000,2.533502,-0.792922,-1.418210,0.840745,-0.003543,0.260517,-0.906208,-0.700622,0.059169,1.090821,2.952111,-2.672260,-7.379046,1.368838,6.567645,-0.071423,0.092670,0.000000,0.318527,-0.135816,0.000000
3.860000,2.541864,-0.792992,-1.415602,0.831738,-0.010402,0.260975,-0.895669,-0.671033,0.032775,1.017626,2.962783,-2.605924,-7.249192,0.782006,6.689203,-0.068240,0.091353,0.000000,0.317700,-0.127131,0.000000
3.870000,2.550137,-0.793130,-1.412990,0.822832,-0.016964,0.261172,-0.885855,-0.641367,0.007050,0.945837,2.967751,-2.538476,-7.096224,0.235931,6.793254,-0.065068,0.090121,0.000000,0.316342,-0.118663,0.000000
3.880000,2.558321,-0.793331,-1.410378,0.814020,-0.023229,0.261116,-0.876752,-0.611678,-0.017995,0.875701,2.967502,-2.470059,-6.922516,-0.275354,6.884770,-0.061913,0.088974,0.000000,0.314509,-0.110431,0.000000
3.890000,2.566417,-0.793594,-1.407768,0.805297,-0.029198,0.260812,-0.868341,-0.582017,-0.042351,0.807387,2.962244,-2.400781,-6.736109,-0.780649,6.964681,-0.058778,0.087908,0.000000,0.312228,-0.102451,-0.000000
3.900000,2.574427,-0.793915,-1.405162,0.796654,-0.034870,0.260269,-0.860604,-0.552433,-0.066010,0.740979,2.951889,-2.330765,-6.540449,-1.287301,7.029249,-0.055668,0.086921,0.000000,0.309496,-0.094726,0.000000
3.910000,2.582350,-0.794292,-1.402562,0.788085,-0.040246,0.259492,-0.853522,-0.522979,-0.088966,0.676578,2.936498,-2.260196,-6.331614,-1.774597,7.079220,-0.052588,0.086011,0.000000,0.306323,-0.087265,-0.000000
3.920000,2.590188,-0.794720,-1.399972,0.779583,-0.045329,0.258489,-0.847073,-0.493703,-0.111214,0.614347,2.916397,-2.189181,-6.104287,-2.222238,7.126076,-0.049541,0.085173,0.000000,0.302747,-0.080079,-0.000000
3.930000,2.597942,-0.795198,-1.397393,0.771143,-0.050120,0.257268,-0.841235,-0.464651,-0.132750,0.554492,2.892053,-2.117674,-5.861488,-2.635476,7.170696,-0.046533,0.084407,0.000000,0.298816,-0.073185,-0.000000
3.940000,2.605611,-0.795723,-1.394827,0.762759,-0.054622,0.255834,-0.835983,-0.435862,-0.153568,0.497117,2.863687,-2.045767,-5.612363,-3.039611,7.198525,-0.043565,0.083708,0.000000,0.294557,-0.066589,0.000000
3.950000,2.613197,-0.796291,-1.392276,0.754424,-0.058837,0.254197,-0.831293,-0.407377,-0.173665,0.442245,2.831261,-1.973704,-5.354862,-3.440750,7.208334,-0.040641,0.083074,0.000000,0.289966,-0.060290,0.000000
3.960000,2.620700,-0.796900,-1.389743,0.746133,-0.062770,0.252361,-0.827138,-0.379237,-0.193042,0.390020,2.794872,-1.901600,-5.084935,-3.821161,7.210760,-0.037765,0.082501,0.000000,0.285058,-0.054299,0.000000
3.970000,2.628120,-0.797546,-1.387229,0.737881,-0.066422,0.250336,-0.823492,-0.351480,-0.211697,0.340546,2.754837,-1.829489,-4.813678,-4.165078,7.207763,-0.034940,0.081987,0.000000,0.279863,-0.048623,0.000000
3.980000,2.635457,-0.798228,-1.384736,0.729663,-0.069799,0.248127,-0.820327,-0.324140,-0.229631,0.293746,2.711571,-1.757445,-4.544683,-4.477446,7.196173,-0.032168,0.081528,0.000000,0.274425,-0.043251,0.000000
3.990000,2.642713,-0.798942,-1.382266,0.721474,-0.072905,0.245743,-0.817617,-0.297248,-0.246846,0.249653,2.665288,-1.685565,-4.264550,-4.778248,7.175193,-0.029451,0.081121,0.000000,0.268764,-0.038181,0.000000
4.000000,2.649887,-0.799686,-1.379821,0.713310,-0.075744,0.243190,-0.815334,-0.270834,-0.263343,0.208455,2.616006,-1.613941,-3.969468,-5.072189,7.145968,-0.026792,0.080764,0.000000,0.262882,-0.033431,0.000000
4.010000,2.656979,-0.800457,-1.377402,0.705168,-0.078322,0.240476,-0.813448,-0.244928,-0.279125,0.170263,2.563845,-1.542646,-3.670448,-5.345650,7.109529,-0.024193,0.080452,0.000000,0.256791,-0.029007,-0.000000
4.020000,2.663990,-0.801252,-1.375012,0.697042,-0.080643,0.237608,-0.811929,-0.219557,-0.294196,0.135046,2.509093,-1.471751,-3.378369,-5.587080,7.065243,-0.021656,0.080183,0.000000,0.250518,-0.024903,-0.000000
4.030000,2.670920,-0.802070,-1.372650,0.688929,-0.082713,0.234592,-0.810747,-0.194746,-0.308560,0.102696,2.452103,-1.401341,-3.090974,-5.800541,7.013635,-0.019183,0.079954,0.000000,0.244098,-0.021106,0.000000
4.040000,2.677769,-0.802907,-1.370320,0.680827,-0.084538,0.231437,-0.809875,-0.170515,-0.322222,0.073227,2.393082,-1.331478,-2.796270,-6.001079,6.956450,-0.016774,0.079761,0.000000,0.237548,-0.017616,0.000000
4.050000,2.684536,-0.803761,-1.368022,0.672731,-0.086123,0.228148,-0.809283,-0.146885,-0.335189,0.046770,2.332081,-1.262212,-2.494197,-6.192711,6.891265,-0.014431,0.079602,0.000000,0.230874,-0.014441,-0.000000
4.060000,2.691223,-0.804629,-1.365757,0.664641,-0.087475,0.224733,-0.808940,-0.123874,-0.347467,0.023343,2.269228,-1.193653,-2.194141,-6.365510,6.817764,-0.012156,0.079472,0.000000,0.224084,-0.011583,0.000000
4.070000,2.697829,-0.805510,-1.363527,0.656553,-0.088601,0.221199,-0.808816,-0.101500,-0.359062,0.002888,2.204771,-1.125857,-1.897958,-6.510082,6.744848,-0.009950,0.079370,0.000000,0.217202,-0.009032,0.000000
4.080000,2.704354,-0.806401,-1.361333,0.648465,-0.089505,0.217552,-0.808882,-0.079778,-0.369984,-0.014616,2.139026,-1.058756,-1.603943,-6.629653,6.673378,-0.007812,0.079291,0.000000,0.210256,-0.006785,0.000000
4.090000,2.710799,-0.807300,-1.359176,0.640375,-0.090196,0.213799,-0.809108,-0.058720,-0.380237,-0.029191,2.072178,-0.992389,-1.312010,-6.737009,6.591817,-0.005744,0.079234,0.000000,0.203262,-0.004837,0.000000
4.100000,2.717162,-0.808205,-1.357057,0.632282,-0.090680,0.209947,-0.809466,-0.038335,-0.389832,-0.040856,2.004286,-0.926919,-1.019594,-6.835193,6.499637,-0.003747,0.079195,0.000000,0.196223,-0.003186,-0.000000
4.110000,2.723444,-0.809114,-1.354977,0.624186,-0.090963,0.206002,-0.809925,-0.018634,-0.398776,-0.049583,1.935474,-0.862397,-0.728206,-6.916128,6.405173,-0.001820,0.079170,0.000000,0.189148,-0.001834,0.000000
4.120000,2.729646,-0.810024,-1.352937,0.616084,-0.091052,0.201971,-0.810457,0.000375,-0.407080,-0.055421,1.865963,-0.798816,-0.449222,-6.973835,6.308414,0.000037,0.079158,0.000000,0.182057,-0.000773,-0.000000
4.130000,2.735766,-0.810935,-1.350937,0.607977,-0.090955,0.197861,-0.811034,0.018685,-0.414752,-0.058568,1.795998,-0.736228,-0.183864,-7.011320,6.206916,0.001822,0.079155,0.000000,0.174970,0.000016,0.000000
4.140000,2.741805,-0.811844,-1.348980,0.599863,-0.090679,0.193676,-0.811629,0.036295,-0.421804,-0.059098,1.725737,-0.674678,0.081991,-7.037110,6.101961,0.003536,0.079158,0.000000,0.167900,0.000542,-0.000000
4.150000,2.747763,-0.812748,-1.347064,0.591744,-0.090229,0.189425,-0.812216,0.053200,-0.428246,-0.056928,1.655255,-0.614189,0.351899,-7.053219,5.993388,0.005180,0.079166,0.000000,0.160852,0.000796,0.000000
4.160000,2.753640,-0.813648,-1.345191,0.583619,-0.089615,0.185111,-0.812767,0.069400,-0.434088,-0.052060,1.584672,-0.554810,0.614974,-7.054695,5.880762,0.006753,0.079174,0.000000,0.153834,0.000780,0.000000
4.170000,2.759436,-0.814541,-1.343362,0.575489,-0.088842,0.180743,-0.813257,0.084894,-0.439342,-0.044628,1.514162,-0.496574,0.861853,-7.038203,5.766847,0.008257,0.079181,0.000000,0.146859,0.000507,0.000000
4.180000,2.765150,-0.815425,-1.341576,0.567354,-0.087917,0.176325,-0.813660,0.099683,-0.444019,-0.034823,1.443908,-0.439473,1.094946,-7.006003,5.652284,0.009691,0.079184,0.000000,0.139944,-0.000005,0.000000
4.190000,2.770783,-0.816299,-1.339835,0.559215,-0.086848,0.171862,-0.813953,0.113772,-0.448131,-0.022729,1.374042,-0.383528,1.324989,-6.963440,5.533789,0.011056,0.079181,0.000000,0.133098,-0.000746,-0.000000
4.200000,2.776334,-0.817162,-1.338139,0.551075,-0.085641,0.167362,-0.814114,0.127164,-0.451690,-0.008323,1.304639,-0.328797,1.554933,-6.911585,5.410674,0.012353,0.079169,0.000000,0.126325,-0.001720,-0.000000
4.210000,2.781804,-0.818012,-1.336488,0.542933,-0.084305,0.162829,-0.814120,0.139865,-0.454707,0.008369,1.235810,-0.275315,1.776635,-6.847795,5.285603,0.013582,0.079147,0.000000,0.119634,-0.002924,0.000000
4.220000,2.787193,-0.818848,-1.334882,0.534792,-0.082844,0.158268,-0.813947,0.151880,-0.457196,0.027210,1.167684,-0.223085,1.980703,-6.771419,5.160590,0.014745,0.079111,0.000000,0.113034,-0.004345,0.000000
4.230000,2.792500,-0.819669,-1.333323,0.526654,-0.081267,0.153685,-0.813576,0.163218,-0.459169,0.047983,1.100381,-0.172103,2.168762,-6.684147,5.035087,0.015843,0.079060,0.000000,0.106534,-0.005962,0.000000
4.240000,2.797726,-0.820473,-1.331809,0.518521,-0.079580,0.149084,-0.812987,0.173888,-0.460638,0.070585,1.034001,-0.122383,2.352220,-6.587946,4.907036,0.016876,0.078992,0.000000,0.100142,-0.007766,0.000000
4.250000,2.802870,-0.821260,-1.330341,0.510394,-0.077789,0.144472,-0.812164,0.183898,-0.461617,0.095028,0.968623,-0.073962,2.533988,-6.483048,4.776301,0.017846,0.078905,0.000000,0.093863,-0.009758,0.000000
4.260000,2.807934,-0.822029,-1.328919,0.502278,-0.075902,0.139852,-0.811087,0.193260,-0.462118,0.121265,0.904340,-0.026857,2.705688,-6.369176,4.644591,0.018753,0.078797,0.000000,0.087703,-0.011935,0.000000
4.270000,2.812916,-0.822778,-1.327544,0.494173,-0.073924,0.135230,-0.809739,0.201985,-0.462154,0.149142,0.841239,0.018930,2.859185,-6.247784,4.512929,0.019600,0.078666,0.000000,0.081669,-0.014282,0.000000
4.280000,2.817817,-0.823508,-1.326215,0.486083,-0.071862,0.130609,-0.808104,0.210085,-0.461739,0.178448,0.779384,0.063401,2.996484,-6.119889,4.381118,0.020387,0.078511,0.000000,0.075764,-0.016780,0.000000
4.290000,2.822638,-0.824216,-1.324932,0.478011,-0.069722,0.125995,-0.806170,0.217573,-0.460886,0.209071,0.718841,0.106552,3.127530,-5.984777,4.248299,0.021115,0.078330,0.000000,0.069994,-0.019417,0.000000
4.300000,2.827377,-0.824902,-1.323695,0.469959,-0.067511,0.121391,-0.803923,0.224462,-0.459608,0.240999,0.659688,0.148367,3.254729,-5.842079,4.113807,0.021787,0.078122,0.000000,0.064363,-0.022195,0.000000
4.310000,2.832037,-0.825566,-1.322504,0.461932,-0.065233,0.116803,-0.801350,0.230766,-0.457918,0.274166,0.602000,0.188828,3.370959,-5.693323,3.978574,0.022403,0.077886,0.000000,0.058878,-0.025107,-0.000000
4.320000,2.836616,-0.826207,-1.321359,0.453932,-0.062895,0.112233,-0.798439,0.236502,-0.455831,0.308418,0.545822,0.227939,3.469644,-5.541431,3.845195,0.022964,0.077620,0.000000,0.053541,-0.028139,0.000000
4.330000,2.841115,-0.826824,-1.320259,0.445963,-0.060503,0.107686,-0.795181,0.241683,-0.453360,0.343559,0.491171,0.265732,3.552539,-5.386892,3.713749,0.023473,0.077323,0.000000,0.048352,-0.031272,-0.000000
4.340000,2.845535,-0.827417,-1.319205,0.438029,-0.058062,0.103166,-0.791568,0.246325,-0.450517,0.379469,0.438084,0.302214,3.627845,-5.227059,3.581099,0.023931,0.076994,0.000000,0.043314,-0.034496,-0.000000
4.350000,2.849876,-0.827985,-1.318196,0.430132,-0.055577,0.098676,-0.787592,0.250445,-0.447315,0.416116,0.386630,0.337354,3.698004,-5.060947,3.446398,0.024340,0.076633,0.000000,0.038431,-0.037808,-0.000000
4.360000,2.854138,-0.828528,-1.317232,0.422277,-0.053053,0.094219,-0.783246,0.254058,-0.443770,0.453429,0.336865,0.371142,3.757204,-4.891354,3.312059,0.024700,0.076238,0.000000,0.033709,-0.041203,0.000000
4.370000,2.858322,-0.829046,-1.316312,0.414467,-0.050495,0.089800,-0.778523,0.257182,-0.439893,0.491260,0.288803,0.403595,3.799041,-4.722683,3.180510,0.025014,0.075809,0.000000,0.029147,-0.044666,0.000000
4.380000,2.862427,-0.829538,-1.315436,0.406706,-0.047909,0.085422,-0.773421,0.259834,-0.435698,0.529410,0.242412,0.434752,3.825060,-4.555017,3.051262,0.025283,0.075344,0.000000,0.024742,-0.048178,-0.000000
4.390000,2.866456,-0.830004,-1.314603,0.398999,-0.045299,0.081086,-0.767935,0.262030,-0.431198,0.567761,0.197702,0.464621,3.843527,-4.383671,2.921454,0.025509,0.074845,0.000000,0.020494,-0.051729,0.000000
4.400000,2.870407,-0.830444,-1.313814,0.391348,-0.042669,0.076798,-0.762065,0.263788,-0.426405,0.606280,0.154738,0.493181,3.856566,-4.207173,2.790304,0.025693,0.074309,0.000000,0.016408,-0.055316,-0.000000
4.410000,2.874283,-0.830858,-1.313067,0.383757,-0.040023,0.072558,-0.755810,0.265125,-0.421334,0.644892,0.113559,0.520427,3.858552,-4.029619,2.659958,0.025837,0.073738,0.000000,0.012488,-0.058932,0.000000
4.420000,2.878082,-0.831245,-1.312363,0.376232,-0.037366,0.068371,-0.749167,0.266059,-0.415997,0.683451,0.074146,0.546380,3.844434,-3.856330,2.532769,0.025943,0.073130,0.000000,0.008731,-0.062563,0.000000
4.430000,2.881807,-0.831605,-1.311700,0.368774,-0.034702,0.064238,-0.742141,0.266608,-0.410406,0.721781,0.036432,0.571082,3.815912,-3.686907,2.408304,0.026011,0.072486,0.000000,0.005131,-0.066193,0.000000
4.440000,2.885458,-0.831939,-1.311078,0.361389,-0.032034,0.060163,-0.734732,0.266788,-0.404575,0.759770,0.000408,0.594546,3.779642,-3.515362,2.283685,0.026045,0.071806,0.000000,0.001686,-0.069809,0.000000
4.450000,2.889035,-0.832246,-1.310496,0.354079,-0.029366,0.056147,-0.726945,0.266616,-0.398515,0.797374,-0.033875,0.616756,3.737053,-3.339888,2.158066,0.026045,0.071090,0.000000,-0.001599,-0.073409,-0.000000
4.460000,2.892539,-0.832526,-1.309955,0.346850,-0.026702,0.052192,-0.718784,0.266110,-0.392240,0.834511,-0.066390,0.637707,3.683776,-3.165336,2.033552,0.026013,0.070337,0.000000,-0.004721,-0.076985,0.000000
4.470000,2.895972,-0.832780,-1.309453,0.339704,-0.024044,0.048302,-0.710255,0.265288,-0.385761,0.871049,-0.097182,0.657427,3.616842,-2.997630,1.912493,0.025951,0.069549,0.000000,-0.007684,-0.080523,-0.000000
4.480000,2.899334,-0.833007,-1.308989,0.332645,-0.021396,0.044477,-0.701363,0.264167,-0.379091,0.906848,-0.126343,0.675957,3.537746,-2.836041,1.794424,0.025859,0.068726,0.000000,-0.010498,-0.084009,0.000000
4.490000,2.902625,-0.833208,-1.308563,0.325676,-0.018760,0.040720,-0.692118,0.262761,-0.372242,0.941804,-0.153902,0.693315,3.450505,-2.673624,1.676394,0.025741,0.067869,0.000000,-0.013165,-0.087433,-0.000000
4.500000,2.905847,-0.833382,-1.308174,0.318802,-0.016141,0.037032,-0.682527,0.261089,-0.365225,0.975858,-0.179815,0.709485,3.356232,-2.508354,1.557433,0.025596,0.066977,0.000000,-0.015681,-0.090790,0.000000
4.510000,2.909001,-0.833530,-1.307822,0.312026,-0.013539,0.033416,-0.672601,0.259165,-0.358052,1.008929,-0.204069,0.724464,3.252453,-2.345587,1.439647,0.025427,0.066052,0.000000,-0.018044,-0.094070,0.000000
4.520000,2.912088,-0.833653,-1.307506,0.305350,-0.010957,0.029871,-0.662349,0.257007,-0.350736,1.040907,-0.226727,0.738278,3.136821,-2.191443,1.325577,0.025235,0.065095,0.000000,-0.020260,-0.097263,0.000000
4.530000,2.915108,-0.833750,-1.307225,0.298779,-0.008399,0.026401,-0.651783,0.254630,-0.343287,1.071665,-0.247898,0.750975,3.010173,-2.044908,1.214671,0.025022,0.064106,0.000000,-0.022339,-0.100355,-0.000000
4.540000,2.918063,-0.833821,-1.306978,0.292315,-0.005865,0.023006,-0.640915,0.252049,-0.335716,1.101110,-0.267625,0.762572,2.875984,-1.898608,1.103634,0.024788,0.063087,0.000000,-0.024285,-0.103337,-0.000000
4.550000,2.920954,-0.833867,-1.306765,0.285961,-0.003358,0.019687,-0.629760,0.249278,-0.328035,1.129185,-0.285870,0.773048,2.736024,-1.750380,0.991778,0.024536,0.062039,0.000000,-0.026095,-0.106202,0.000000
4.560000,2.923782,-0.833888,-1.306584,0.279720,-0.000879,0.016445,-0.618332,0.246332,-0.320255,1.155831,-0.302633,0.782407,2.588211,-1.605711,0.881349,0.024267,0.060962,0.000000,-0.027766,-0.108945,-0.000000
4.570000,2.926549,-0.833884,-1.306436,0.273594,0.001569,0.013281,-0.606644,0.243225,-0.312387,1.180949,-0.317985,0.790675,2.428559,-1.470773,0.773861,0.023981,0.059859,0.000000,-0.029307,-0.111553,0.000000
4.580000,2.929254,-0.833857,-1.306319,0.267587,0.003985,0.010197,-0.594713,0.239972,-0.304442,1.204402,-0.332048,0.797884,2.257858,-1.344385,0.668626,0.023680,0.058731,0.000000,-0.030728,-0.114013,0.000000
4.590000,2.931900,-0.833805,-1.306232,0.261700,0.006369,0.007193,-0.582556,0.236584,-0.296430,1.226106,-0.344872,0.804048,2.081975,-1.218894,0.563701,0.023366,0.057578,0.000000,-0.032034,-0.116315,-0.000000
4.600000,2.934488,-0.833729,-1.306175,0.255936,0.008717,0.004269,-0.570191,0.233075,-0.288361,1.246041,-0.356426,0.809158,1.902301,-1.092038,0.458506,0.023040,0.056404,0.000000,-0.033221,-0.118457,0.000000
4.610000,2.937019,-0.833630,-1.306147,0.250296,0.011030,0.001425,-0.557635,0.229456,-0.280246,1.264152,-0.366713,0.813218,1.715296,-0.969319,0.354316,0.022702,0.055209,0.000000,-0.034289,-0.120432,0.000000
4.620000,2.939494,-0.833509,-1.306146,0.244783,0.013306,-0.001336,-0.544908,0.225740,-0.272097,1.280347,-0.375812,0.816245,1.518862,-0.856836,0.252567,0.022354,0.053995,0.000000,-0.035245,-0.122229,0.000000
4.630000,2.941915,-0.833364,-1.306173,0.239398,0.015545,-0.004017,-0.532028,0.221940,-0.263922,1.294530,-0.383850,0.818269,1.314429,-0.753275,0.152957,0.021997,0.052763,0.000000,-0.036102,-0.123838,0.000000
4.640000,2.944282,-0.833198,-1.306227,0.234142,0.017745,-0.006615,-0.519017,0.218063,-0.255731,1.306636,-0.390878,0.819304,1.105278,-0.650865,0.053478,0.021632,0.051517,0.000000,-0.036863,-0.125251,0.000000
4.650000,2.946598,-0.833009,-1.306306,0.229017,0.019906,-0.009131,-0.505895,0.214122,-0.247535,1.316635,-0.396867,0.819339,0.892409,-0.547275,-0.047084,0.021260,0.050258,0.000000,-0.037525,-0.126464,-0.000000
4.660000,2.948862,-0.832800,-1.306409,0.224024,0.022027,-0.011566,-0.492684,0.210126,-0.239344,1.324484,-0.401823,0.818362,0.674089,-0.447937,-0.147383,0.020881,0.048987,0.000000,-0.038089,-0.127471,-0.000000
4.670000,2.951078,-0.832569,-1.306537,0.219164,0.024109,-0.013918,-0.479406,0.206086,-0.231168,1.330117,-0.405826,0.816391,0.448871,-0.358741,-0.244417,0.020498,0.047708,0.000000,-0.038562,-0.128265,-0.000000
4.680000,2.953246,-0.832317,-1.306688,0.214436,0.026149,-0.016189,-0.466082,0.202010,-0.223017,1.333461,-0.408998,0.813474,0.217607,-0.278268,-0.338575,0.020110,0.046421,0.000000,-0.038954,-0.128837,-0.000000
4.690000,2.955367,-0.832046,-1.306861,0.209842,0.028149,-0.018378,-0.452736,0.197906,-0.214899,1.334469,-0.411391,0.809620,-0.017100,-0.198809,-0.434057,0.019719,0.045131,0.000000,-0.039272,-0.129180,0.000000
4.700000,2.957443,-0.831754,-1.307055,0.205382,0.030107,-0.020487,-0.439393,0.193782,-0.206824,1.333119,-0.412974,0.804793,-0.253730,-0.117886,-0.531916,0.019325,0.043837,0.000000,-0.039511,-0.129291,0.000000
4.710000,2.959474,-0.831444,-1.307271,0.201054,0.032024,-0.022515,-0.426074,0.189646,-0.198803,1.329394,-0.413749,0.798981,-0.493541,-0.040726,-0.629458,0.018929,0.042544,0.000000,-0.039672,-0.129167,-0.000000
4.720000,2.961464,-0.831114,-1.307506,0.196860,0.033900,-0.024463,-0.412805,0.185507,-0.190845,1.323249,-0.413789,0.792204,-0.739391,0.026656,-0.724679,0.018531,0.041254,0.000000,-0.039760,-0.128802,0.000000
4.730000,2.963412,-0.830766,-1.307760,0.192798,0.035735,-0.026332,-0.399609,0.181370,-0.182959,1.314607,-0.413216,0.784488,-0.990661,0.085654,-0.818496,0.018133,0.039968,0.000000,-0.039788,-0.128188,0.000000
4.740000,2.965320,-0.830399,-1.308032,0.188868,0.037528,-0.028122,-0.386513,0.177242,-0.175155,1.303435,-0.412076,0.775834,-1.242653,0.144412,-0.913742,0.017735,0.038689,0.000000,-0.039760,-0.127319,0.000000
4.750000,2.967189,-0.830015,-1.308322,0.185068,0.039279,-0.029835,-0.373540,0.173129,-0.167442,1.289754,-0.410328,0.766213,-1.493113,0.206056,-1.011325,0.017338,0.037421,0.000000,-0.039671,-0.126196,0.000000
4.760000,2.969021,-0.829614,-1.308629,0.181397,0.040990,-0.031471,-0.360717,0.169036,-0.159831,1.273573,-0.407955,0.755607,-1.744661,0.265187,-1.109527,0.016942,0.036165,0.000000,-0.039520,-0.124819,0.000000
4.770000,2.970817,-0.829195,-1.308952,0.177854,0.042660,-0.033031,-0.348069,0.164970,-0.152330,1.254860,-0.405024,0.744022,-2.001612,0.314379,-1.206496,0.016548,0.034924,0.000000,-0.039313,-0.123184,-0.000000
4.780000,2.972578,-0.828760,-1.309290,0.174436,0.044290,-0.034518,-0.335620,0.160935,-0.144950,1.233541,-0.401667,0.731477,-2.263026,0.354920,-1.302630,0.016156,0.033701,0.000000,-0.039062,-0.121281,0.000000
4.790000,2.974306,-0.828310,-1.309642,0.171141,0.045879,-0.035930,-0.323398,0.156936,-0.137700,1.209600,-0.397925,0.717970,-2.522165,0.397227,-1.400771,0.015767,0.032498,0.000000,-0.038772,-0.119109,0.000000
4.800000,2.976001,-0.827843,-1.310008,0.167968,0.047428,-0.037272,-0.311428,0.152977,-0.130591,1.183098,-0.393723,0.703462,-2.775523,0.446583,-1.503769,0.015380,0.031319,0.000000,-0.038434,-0.116671,0.000000
4.810000,2.977665,-0.827361,-1.310387,0.164913,0.048938,-0.038542,-0.299736,0.149062,-0.123631,1.154089,-0.388994,0.687894,-3.027024,0.496071,-1.609801,0.014998,0.030165,0.000000,-0.038043,-0.113974,-0.000000
4.820000,2.979299,-0.826864,-1.310779,0.161973,0.050410,-0.039744,-0.288346,0.145197,-0.116833,1.122557,-0.383801,0.671266,-3.283881,0.532938,-1.711624,0.014620,0.029039,0.000000,-0.037603,-0.111013,0.000000
4.830000,2.980904,-0.826353,-1.311182,0.159146,0.051842,-0.040879,-0.277285,0.141386,-0.110206,1.088412,-0.378335,0.653662,-3.544274,0.559590,-1.809882,0.014246,0.027944,0.000000,-0.037134,-0.107780,0.000000
4.840000,2.982482,-0.825827,-1.311597,0.156427,0.053237,-0.041948,-0.266578,0.137630,-0.103760,1.051672,-0.372609,0.635068,-3.797575,0.593863,-1.914913,0.013877,0.026883,0.000000,-0.036637,-0.104274,-0.000000
4.850000,2.984033,-0.825288,-1.312021,0.153814,0.054595,-0.042954,-0.256252,0.133934,-0.097505,1.012460,-0.366458,0.615364,-4.042549,0.637547,-2.027861,0.013513,0.025859,0.000000,-0.036094,-0.100508,0.000000
4.860000,2.985558,-0.824735,-1.312456,0.151302,0.055916,-0.043898,-0.246329,0.130301,-0.091452,0.970821,-0.359858,0.594511,-4.285301,0.679363,-2.142178,0.013155,0.024873,0.000000,-0.035505,-0.096486,0.000000
4.870000,2.987059,-0.824170,-1.312899,0.148888,0.057201,-0.044783,-0.236835,0.126737,-0.085614,0.926754,-0.352871,0.572520,-4.525771,0.718819,-2.257581,0.012803,0.023929,0.000000,-0.034874,-0.092208,0.000000
4.880000,2.988536,-0.823591,-1.313351,0.146566,0.058451,-0.045611,-0.227794,0.123244,-0.080002,0.880305,-0.345482,0.549359,-4.761110,0.760512,-2.376736,0.012457,0.023029,0.000000,-0.034201,-0.087677,0.000000
4.890000,2.989990,-0.823001,-1.313811,0.144332,0.059666,-0.046383,-0.219229,0.119827,-0.074627,0.831532,-0.337660,0.524985,-4.990527,0.805220,-2.500105,0.012119,0.022175,0.000000,-0.033481,-0.082899,-0.000000
4.900000,2.991423,-0.822398,-1.314279,0.142181,0.060847,-0.047103,-0.211163,0.116491,-0.069502,0.780495,-0.329378,0.499357,-5.213671,0.852908,-2.627684,0.011788,0.021371,0.000000,-0.032712,-0.077880,0.000000
4.910000,2.992834,-0.821784,-1.314754,0.140108,0.061996,-0.047773,-0.203619,0.113239,-0.064640,0.727259,-0.320602,0.472432,-5.430017,0.904068,-2.759746,0.011465,0.020617,0.000000,-0.031890,-0.072627,-0.000000
4.920000,2.994225,-0.821158,-1.315234,0.138109,0.063112,-0.048396,-0.196618,0.110078,-0.060054,0.671894,-0.311296,0.444162,-5.638979,0.959224,-2.896593,0.011150,0.019918,0.000000,-0.031013,-0.067147,-0.000000
4.930000,2.995596,-0.820522,-1.315721,0.136176,0.064197,-0.048974,-0.190181,0.107013,-0.055757,0.614479,-0.301418,0.414500,-5.839890,1.018898,-3.038549,0.010845,0.019275,0.000000,-0.030074,-0.061448,0.000000
4.940000,2.996948,-0.819874,-1.316214,0.134305,0.065252,-0.049511,-0.184329,0.104050,-0.051764,0.555097,-0.290918,0.383391,-6.032161,1.083611,-3.185914,0.010549,0.018689,0.000000,-0.029070,-0.055539,0.000000
4.950000,2.998282,-0.819216,-1.316712,0.132489,0.066278,-0.050010,-0.179079,0.101195,-0.048089,0.493836,-0.279745,0.350781,-6.215215,1.153880,-3.338982,0.010263,0.018164,0.000000,-0.027995,-0.049429,0.000000
4.960000,2.999598,-0.818549,-1.317214,0.130723,0.067276,-0.050473,-0.174452,0.098455,-0.044748,0.430792,-0.267841,0.316612,-6.388428,1.230231,-3.498070,0.009989,0.017700,0.000000,-0.026843,-0.043130,-0.000000
4.970000,3.000897,-0.817871,-1.317721,0.129000,0.068247,-0.050905,-0.170463,0.095838,-0.041757,0.366067,-0.255141,0.280820,94.896233,-54.168568,18.176811,0.009726,0.017301,0.000000,-0.025608,-0.036652,0.000000
4.980000,3.002178,-0.817184,-1.318232,0.127314,0.069193,-0.051308,-0.167130,0.093352,-0.039132,2.328717,-1.351212,0.680148,194.151775,-106.912344,37.800987,0.009477,0.016967,0.000000,-0.136467,-0.235189,0.000000
4.990000,3.003443,-0.816487,-1.318747,0.125658,0.070114,-0.051687,-0.123889,0.068814,-0.028154,4.249103,-2.393388,1.036840,92.267622,-49.086141,14.787343,0.006994,0.012592,0.000000,-0.242470,-0.430494,0.000000
5.000000,3.004691,-0.815781,-1.319266,0.124836,0.070569,-0.051871,-0.082148,0.045485,-0.018395,4.174069,-2.332935,0.975895,-7.503346,6.045276,-6.094506,0.004628,0.008358,0.000000,-0.236878,-0.423831,0.000000
