time,x,y,z,vx,vy,vz,ax,ay,az,jx,jy,jz,sx,sy,sz,roll,pitch,yaw,p,q,r
0.000000,-2.733100,-0.307424,-1.483800,-0.000307,0.000046,-0.024194,0.157981,-0.057369,0.122858,-0.638488,1.311446,-1.628309,44.892251,2.868361,29.625069,-0.005921,-0.016307,0.000000,0.136346,0.068633,0.000000
0.010000,-2.733096,-0.307426,-1.484036,0.001248,-0.000462,-0.023042,0.153770,-0.044101,0.107968,-0.210528,1.343049,-1.358507,40.734852,3.417574,24.434218,-0.004545,-0.015848,0.000000,0.139044,0.023912,0.000000
0.020000,-2.733076,-0.307432,-1.484261,0.002782,-0.000835,-0.022027,0.153635,-0.030493,0.095525,0.176904,1.379126,-1.137701,36.786119,3.765504,19.820634,-0.003138,-0.015814,0.000000,0.142315,-0.016354,0.000000
0.030000,-2.733040,-0.307442,-1.484477,0.004333,-0.001070,-0.021125,0.157180,-0.016510,0.085069,0.525876,1.417736,-0.960273,33.042069,3.926488,15.753361,-0.001697,-0.016161,0.000000,0.145933,-0.052465,0.000000
0.040000,-2.732989,-0.307453,-1.484684,0.005936,-0.001164,-0.020320,0.164031,-0.002135,0.076193,0.838415,1.457081,-0.820916,29.498739,3.914867,12.201435,-0.000219,-0.016850,0.000000,0.149690,-0.084689,-0.000000
0.050000,-2.732921,-0.307465,-1.484883,0.007623,-0.001112,-0.019597,0.173833,0.012629,0.068541,1.116505,1.495506,-0.714628,26.151959,3.744969,9.134089,0.001296,-0.017843,0.000000,0.153397,-0.113269,0.000000
0.060000,-2.732836,-0.307475,-1.485076,0.009422,-0.000910,-0.018946,0.186253,0.027767,0.061806,1.362096,1.531500,-0.636722,22.997939,3.431136,6.520153,0.002848,-0.019104,0.000000,0.156883,-0.138429,0.000000
0.070000,-2.732732,-0.307482,-1.485262,0.011356,-0.000555,-0.018359,0.200973,0.043246,0.055726,1.577093,1.563697,-0.582816,20.032607,2.987703,4.328772,0.004433,-0.020601,0.000000,0.159992,-0.160382,-0.000000
0.080000,-2.732608,-0.307486,-1.485443,0.013448,-0.000044,-0.017830,0.217699,0.059024,0.050083,1.763364,1.590870,-0.548841,17.251947,2.429009,2.529028,0.006046,-0.022302,0.000000,0.162590,-0.179327,0.000000
0.090000,-2.732463,-0.307483,-1.485619,0.015716,0.000626,-0.017356,0.236151,0.075043,0.044695,1.922734,1.611940,-0.531033,14.651908,1.769398,1.090047,0.007682,-0.024178,0.000000,0.164556,-0.195459,0.000000
0.100000,-2.732293,-0.307473,-1.485791,0.018176,0.001458,-0.016936,0.256070,0.091239,0.039420,2.056994,1.625969,-0.525945,12.228824,1.023175,-0.019562,0.009335,-0.026202,0.000000,0.165790,-0.208966,0.000000
0.110000,-2.732098,-0.307453,-1.485958,0.020841,0.002451,-0.016568,0.277213,0.107536,0.034145,2.167887,1.632163,-0.530430,9.978314,0.204709,-0.830206,0.010995,-0.028349,0.000000,0.166206,-0.220030,-0.000000
0.120000,-2.731876,-0.307423,-1.486122,0.023723,0.003608,-0.016253,0.299355,0.123854,0.028789,2.257122,1.629870,-0.541656,7.896514,-0.671674,-1.373026,0.012656,-0.030596,0.000000,0.165739,-0.228834,0.000000
0.130000,-2.731623,-0.307380,-1.486283,0.026831,0.004928,-0.015993,0.322289,0.140104,0.023297,2.326366,1.618584,-0.557101,5.979395,-1.591643,-1.678955,0.014307,-0.032919,0.000000,0.164337,-0.235553,0.000000
0.140000,-2.731338,-0.307324,-1.486442,0.030171,0.006410,-0.015788,0.345821,0.156194,0.017640,2.377246,1.597940,-0.574549,4.222860,-2.540867,-1.778887,0.015939,-0.035301,0.000000,0.161969,-0.240363,0.000000
0.150000,-2.731019,-0.307252,-1.486599,0.033749,0.008051,-0.015640,0.369778,0.172031,0.011806,2.411345,1.567717,-0.592095,2.622712,-3.505018,-1.703616,0.017543,-0.037721,0.000000,0.158617,-0.243436,-0.000000
0.160000,-2.730663,-0.307162,-1.486755,0.037567,0.009849,-0.015552,0.393998,0.187517,0.005803,2.430226,1.527839,-0.608149,1.176629,-4.469643,-1.484950,0.019108,-0.040165,0.000000,0.154280,-0.244943,-0.000000
0.170000,-2.730267,-0.307054,-1.486910,0.041629,0.011800,-0.015525,0.418337,0.202556,-0.000347,2.435380,1.478371,-0.621419,-0.121475,-5.420564,-1.152818,0.020625,-0.042617,0.000000,0.148973,-0.245047,0.000000
0.180000,-2.729829,-0.306926,-1.487066,0.045934,0.013899,-0.015560,0.442665,0.217053,-0.006613,2.428280,1.419522,-0.630931,-1.274723,-6.343394,-0.738524,0.022085,-0.045063,0.000000,0.142725,-0.243910,0.000000
0.190000,-2.729347,-0.306776,-1.487222,0.050482,0.016139,-0.015657,0.466866,0.230916,-0.012951,2.410355,1.351644,-0.636019,-2.286917,-7.223812,-0.273016,0.023477,-0.047492,0.000000,0.135581,-0.241690,-0.000000
0.200000,-2.728819,-0.306603,-1.487379,0.055271,0.018515,-0.015819,0.490840,0.244057,-0.019317,2.382985,1.275236,-0.636324,-3.163365,-8.047363,0.212734,0.024794,-0.049895,0.000000,0.127597,-0.238535,-0.000000
0.210000,-2.728241,-0.306405,-1.487538,0.060298,0.021018,-0.016044,0.514530,0.256483,-0.025800,2.354708,1.211326,-0.663449,-3.764509,-8.396763,0.062190,0.026035,-0.052264,0.000000,0.120828,-0.235150,-0.000000
0.220000,-2.727612,-0.306182,-1.487700,0.065560,0.023641,-0.016334,0.537811,0.267975,-0.032128,2.296201,1.073731,-0.582675,-6.661854,-15.546536,10.557353,0.027180,-0.054589,0.000000,0.106904,-0.229299,0.000000
0.230000,-2.726929,-0.305932,-1.487865,0.071052,0.026372,-0.016684,0.560499,0.278115,-0.037716,2.248204,0.975457,-0.568530,-2.880412,-3.986088,-7.904941,0.028189,-0.056855,0.000000,0.096829,-0.224195,-0.000000
0.240000,-2.726190,-0.305654,-1.488034,0.076769,0.029202,-0.017091,0.582830,0.287662,-0.043791,2.213538,0.922101,-0.628921,-5.304072,-10.274123,1.408520,0.029134,-0.059079,0.000000,0.091098,-0.220000,0.000000
0.250000,-2.725393,-0.305348,-1.488207,0.082707,0.032122,-0.017559,0.604662,0.296268,-0.049859,2.153188,0.800718,-0.587854,-5.488377,-10.406667,1.233410,0.029983,-0.061249,0.000000,0.078805,-0.213822,-0.000000
0.260000,-2.724535,-0.305011,-1.488386,0.088860,0.035123,-0.018087,0.625897,0.303741,-0.055676,2.093125,0.693225,-0.575383,-5.757179,-10.757400,1.383540,0.030716,-0.063357,0.000000,0.067865,-0.207529,0.000000
0.270000,-2.723615,-0.304645,-1.488569,0.095223,0.038194,-0.018672,0.646578,0.310148,-0.061352,2.045223,0.588720,-0.559081,-4.544144,-10.454395,1.753045,0.031342,-0.065407,0.000000,0.057264,-0.202509,0.000000
0.280000,-2.722630,-0.304247,-1.488759,0.101790,0.041323,-0.019314,0.666762,0.315491,-0.066859,1.987085,0.477598,-0.542921,-7.096334,-11.773784,1.472689,0.031859,-0.067405,0.000000,0.046024,-0.196479,-0.000000
0.290000,-2.721579,-0.303818,-1.488956,0.108556,0.044500,-0.020009,0.686278,0.319675,-0.072213,1.918295,0.359783,-0.527220,-5.913578,-11.463038,1.787497,0.032260,-0.069334,0.000000,0.034138,-0.189399,-0.000000
0.300000,-2.720458,-0.303357,-1.489160,0.115514,0.047713,-0.020757,0.705185,0.322705,-0.077391,1.862704,0.245720,-0.508262,-5.933603,-11.664116,1.879538,0.032544,-0.071201,0.000000,0.022665,-0.183693,0.000000
0.310000,-2.719268,-0.302864,-1.489371,0.122658,0.050950,-0.021556,0.723505,0.324570,-0.082380,1.801014,0.126710,-0.489553,-5.915050,-11.847624,1.954296,0.032711,-0.073008,0.000000,0.010719,-0.177397,-0.000000
0.320000,-2.718005,-0.302338,-1.489591,0.129982,0.054200,-0.022404,0.741246,0.325257,-0.087172,1.748983,0.011485,-0.468349,-4.953787,-11.470298,2.192063,0.032760,-0.074755,0.000000,-0.000815,-0.172113,0.000000
0.330000,-2.716668,-0.301780,-1.489819,0.137481,0.057451,-0.023299,0.758465,0.324782,-0.091750,1.692212,-0.108437,-0.447695,-6.409605,-12.518860,1.933445,0.032693,-0.076450,0.000000,-0.012801,-0.166371,0.000000
0.340000,-2.715255,-0.301189,-1.490057,0.145149,0.060691,-0.024239,0.775070,0.323070,-0.096129,1.630376,-0.233207,-0.427861,-5.479528,-12.151680,2.124252,0.032502,-0.078082,0.000000,-0.025255,-0.160138,0.000000
0.350000,-2.713764,-0.300566,-1.490304,0.152980,0.063909,-0.025221,0.791115,0.320136,-0.100299,1.578699,-0.353778,-0.406043,-5.324522,-12.238282,2.144094,0.032190,-0.079659,0.000000,-0.037264,-0.154960,0.000000
0.360000,-2.712194,-0.299911,-1.490561,0.160969,0.067090,-0.026244,0.806632,0.315981,-0.104253,1.524852,-0.477459,-0.384933,-5.149188,-12.308399,2.148970,0.031756,-0.081182,0.000000,-0.049570,-0.149579,0.000000
0.370000,-2.710544,-0.299224,-1.490829,0.169111,0.070224,-0.027305,0.821642,0.310600,-0.107991,1.478469,-0.598170,-0.362431,-4.407888,-12.011658,2.278561,0.031200,-0.082655,0.000000,-0.061561,-0.144976,0.000000
0.380000,-2.708812,-0.298507,-1.491108,0.177401,0.073298,-0.028403,0.836195,0.304008,-0.111506,1.430801,-0.721434,-0.340889,-5.131936,-12.644035,2.025790,0.030524,-0.084082,0.000000,-0.073799,-0.140254,0.000000
0.390000,-2.706996,-0.297759,-1.491397,0.185833,0.076300,-0.029535,0.850251,0.296161,-0.114814,1.381610,-0.847336,-0.320515,-4.417985,-12.351082,2.119113,0.029723,-0.085461,0.000000,-0.086293,-0.135387,0.000000
0.400000,-2.705095,-0.296981,-1.491699,0.194404,0.079217,-0.030698,0.863858,0.287075,-0.117912,1.340051,-0.969955,-0.299150,-4.177486,-12.352289,2.081149,0.028799,-0.086794,0.000000,-0.098448,-0.131307,0.000000
0.410000,-2.703107,-0.296175,-1.492011,0.203109,0.082037,-0.031892,0.877049,0.276756,-0.120801,1.298626,-1.093986,-0.278792,-3.929217,-12.339434,2.034155,0.027753,-0.088088,0.000000,-0.110740,-0.127246,0.000000
0.420000,-2.701032,-0.295341,-1.492336,0.211944,0.084748,-0.033114,0.889853,0.265205,-0.123485,1.263117,-1.215664,-0.258079,-3.343262,-12.102505,2.063537,0.026585,-0.089343,0.000000,-0.122791,-0.123793,0.000000
0.430000,-2.698868,-0.294480,-1.492674,0.220905,0.087337,-0.034361,0.902312,0.252439,-0.125966,1.228177,-1.338274,-0.238460,-3.649299,-12.420530,1.857876,0.025297,-0.090564,0.000000,-0.134935,-0.120398,0.000000
0.440000,-2.696613,-0.293594,-1.493024,0.229989,0.089793,-0.035632,0.914416,0.238436,-0.128259,1.193612,-1.461828,-0.220058,-3.090252,-12.178195,1.865786,0.023886,-0.091751,0.000000,-0.147175,-0.117041,-0.000000
0.450000,-2.694268,-0.292685,-1.493387,0.239192,0.092102,-0.036926,0.926207,0.223213,-0.130366,1.164913,-1.582725,-0.201533,-2.822635,-12.108506,1.794471,0.022355,-0.092908,0.000000,-0.159147,-0.114280,0.000000
0.460000,-2.691829,-0.291753,-1.493762,0.248512,0.094253,-0.038239,0.937717,0.206780,-0.132294,1.137470,-1.703717,-0.184057,-2.556322,-12.025365,1.720156,0.020703,-0.094038,0.000000,-0.171131,-0.111644,0.000000
0.470000,-2.689297,-0.290800,-1.494151,0.257946,0.096234,-0.039571,0.948974,0.189147,-0.134048,1.114791,-1.822615,-0.166954,-2.086214,-11.812428,1.680775,0.018933,-0.095143,0.000000,-0.182908,-0.109487,0.000000
0.480000,-2.686670,-0.289829,-1.494554,0.267491,0.098032,-0.040920,0.960017,0.170328,-0.135636,1.093503,-1.941190,-0.150853,-2.175309,-11.902227,1.538688,0.017045,-0.096228,0.000000,-0.194656,-0.107467,0.000000
0.490000,-2.683947,-0.288840,-1.494970,0.277146,0.099636,-0.042283,0.970848,0.150324,-0.137069,1.073425,-2.059392,-0.135789,-1.733550,-11.675031,1.493671,0.015040,-0.097293,0.000000,-0.206370,-0.105564,-0.000000
0.500000,-2.681127,-0.287837,-1.495400,0.286907,0.101035,-0.043660,0.981502,0.129150,-0.138353,1.057906,-2.175163,-0.121135,-1.478706,-11.537805,1.417111,0.012919,-0.098342,0.000000,-0.217843,-0.104116,0.000000
0.510000,-2.678208,-0.286820,-1.495843,0.296775,0.102215,-0.045050,0.992010,0.106823,-0.139495,1.043995,-2.289927,-0.107324,-1.231342,-11.386089,1.343828,0.010683,-0.099376,0.000000,-0.229218,-0.102826,-0.000000
0.520000,-2.675191,-0.285793,-1.496301,0.306747,0.103167,-0.046450,1.002396,0.083359,-0.140502,1.033931,-2.402596,-0.094262,-0.853780,-11.171156,1.270862,0.008335,-0.100400,0.000000,-0.240387,-0.101915,0.000000
0.530000,-2.672073,-0.284758,-1.496772,0.316823,0.103879,-0.047859,1.012693,0.058776,-0.141382,1.025398,-2.513843,-0.081859,-0.856449,-11.076747,1.210622,0.005876,-0.101415,0.000000,-0.251415,-0.101154,-0.000000
0.540000,-2.668854,-0.283716,-1.497258,0.327001,0.104339,-0.049277,1.022908,0.033087,-0.142141,1.018213,-2.623564,-0.070063,-0.510145,-10.839208,1.148168,0.003307,-0.102423,0.000000,-0.262291,-0.100525,-0.000000
0.550000,-2.665533,-0.282672,-1.497758,0.337281,0.104537,-0.050702,1.033070,0.006313,-0.142785,1.014553,-2.730800,-0.058862,-0.295237,-10.631379,1.094966,0.000631,-0.103427,0.000000,-0.272919,-0.100243,0.000000
0.560000,-2.662108,-0.281627,-1.498272,0.347662,0.104462,-0.052132,1.043204,-0.021523,-0.143319,1.012421,-2.836027,-0.048006,-0.090700,-10.407908,1.052453,-0.002151,-0.104428,0.000000,-0.283346,-0.100111,-0.000000
0.570000,-2.658579,-0.280584,-1.498800,0.358145,0.104103,-0.053568,1.053329,-0.050399,-0.143749,1.013091,-2.938874,-0.038016,0.181878,-10.162608,0.971520,-0.005035,-0.105430,0.000000,-0.293533,-0.100252,0.000000
0.580000,-2.654945,-0.279546,-1.499343,0.368729,0.103451,-0.055007,1.063470,-0.080292,-0.144079,1.015159,-3.039308,-0.028026,0.228498,-9.921990,1.028979,-0.008020,-0.106434,0.000000,-0.303477,-0.100533,0.000000
0.590000,-2.651204,-0.278516,-1.499900,0.379414,0.102494,-0.056449,1.073636,-0.111177,-0.144309,1.018449,-3.137188,-0.017897,0.468879,-9.647590,0.973935,-0.011104,-0.107441,0.000000,-0.313162,-0.100938,0.000000
0.600000,-2.647356,-0.277497,-1.500472,0.390202,0.101224,-0.057893,1.083848,-0.143026,-0.144440,1.024143,-3.232241,-0.008297,0.626432,-9.364345,0.972855,-0.014283,-0.108454,0.000000,-0.322560,-0.101578,0.000000
0.610000,-2.643400,-0.276492,-1.501058,0.401091,0.099630,-0.059338,1.094122,-0.175812,-0.144473,1.030903,-3.324340,0.001730,0.768002,-9.064173,0.988476,-0.017554,-0.109473,0.000000,-0.331659,-0.102329,0.000000
0.620000,-2.639334,-0.275505,-1.501659,0.412084,0.097704,-0.060782,1.104474,-0.209504,-0.144408,1.039864,-3.413577,0.011102,0.978930,-8.769611,0.932381,-0.020915,-0.110501,0.000000,-0.340464,-0.103292,-0.000000
0.630000,-2.635158,-0.274539,-1.502274,0.423181,0.095437,-0.062225,1.114921,-0.244072,-0.144247,1.049530,-3.499449,0.021355,0.950462,-8.401795,1.122064,-0.024362,-0.111540,0.000000,-0.348929,-0.104335,0.000000
0.640000,-2.630870,-0.273598,-1.502903,0.434383,0.092820,-0.063667,1.125466,-0.279481,-0.143977,1.059695,-3.581783,0.032700,1.123584,-8.073367,1.104966,-0.027892,-0.112589,0.000000,-0.357037,-0.105441,0.000000
0.650000,-2.626470,-0.272684,-1.503547,0.445691,0.089845,-0.065105,1.136122,-0.315697,-0.143595,1.071587,-3.660769,0.043885,1.208463,-7.710089,1.179413,-0.031502,-0.113650,0.000000,-0.364804,-0.106718,0.000000
0.660000,-2.621956,-0.271802,-1.504206,0.457106,0.086504,-0.066538,1.146898,-0.352684,-0.143094,1.083767,-3.735951,0.056517,1.275082,-7.330631,1.275975,-0.035187,-0.114724,0.000000,-0.372189,-0.108039,-0.000000
0.670000,-2.617327,-0.270955,-1.504878,0.468629,0.082789,-0.067966,1.157803,-0.390404,-0.142467,1.097500,-3.807391,0.068781,1.420168,-6.947845,1.251458,-0.038944,-0.115813,0.000000,-0.379192,-0.109512,0.000000
0.680000,-2.612583,-0.270147,-1.505565,0.480262,0.078693,-0.069387,1.168847,-0.428818,-0.141711,1.111095,-3.874713,0.083111,1.294739,-6.513656,1.619775,-0.042770,-0.116916,0.000000,-0.385786,-0.110995,-0.000000
0.690000,-2.607722,-0.269383,-1.506266,0.492007,0.074210,-0.070800,1.180023,-0.467883,-0.140796,1.124328,-3.937745,0.099785,1.398369,-6.096707,1.645602,-0.046659,-0.118035,0.000000,-0.391958,-0.112472,0.000000
0.700000,-2.602742,-0.268665,-1.506981,0.503863,0.069334,-0.072202,1.191338,-0.507559,-0.139715,1.138597,-3.996534,0.116700,1.403160,-5.651678,1.812575,-0.050607,-0.119169,0.000000,-0.397706,-0.114056,0.000000
0.710000,-2.597644,-0.267997,-1.507710,0.515834,0.064057,-0.073593,1.202793,-0.547798,-0.138452,1.152437,-4.050657,0.136264,1.391766,-5.188455,2.004405,-0.054611,-0.120319,0.000000,-0.403000,-0.115631,0.000000
0.720000,-2.592425,-0.267385,-1.508453,0.527920,0.058376,-0.074971,1.214388,-0.588557,-0.136991,1.166650,-4.100415,0.155940,1.419544,-4.742673,2.029746,-0.058666,-0.121485,0.000000,-0.407860,-0.117248,-0.000000
0.730000,-2.587085,-0.266831,-1.509209,0.540122,0.052285,-0.076333,1.226124,-0.629790,-0.135322,1.180176,-4.145083,0.178937,1.282139,-4.187622,2.575701,-0.062767,-0.122667,0.000000,-0.412235,-0.118840,-0.000000
0.740000,-2.581622,-0.266340,-1.509979,0.552443,0.045779,-0.077676,1.237989,-0.671441,-0.133400,1.192817,-4.184470,0.205572,1.272303,-3.704829,2.657564,-0.066909,-0.123866,0.000000,-0.416115,-0.120394,0.000000
0.750000,-2.576036,-0.265917,-1.510763,0.564882,0.038855,-0.079000,1.249980,-0.713463,-0.131210,1.205329,-4.218972,0.232972,1.198228,-3.175001,2.921917,-0.071088,-0.125081,0.000000,-0.419524,-0.121951,0.000000
0.760000,-2.570324,-0.265565,-1.511559,0.577443,0.031508,-0.080300,1.262091,-0.755802,-0.128726,1.216625,-4.247942,0.264244,1.104999,-2.628326,3.211543,-0.075298,-0.126311,0.000000,-0.422424,-0.123442,0.000000
0.770000,-2.564487,-0.265288,-1.512369,0.590124,0.023738,-0.081573,1.274313,-0.798404,-0.125925,1.227807,-4.271594,0.296121,1.083685,-2.087519,3.286694,-0.079534,-0.127557,0.000000,-0.424817,-0.124937,0.000000
0.780000,-2.558522,-0.265091,-1.513190,0.602929,0.015540,-0.082817,1.286641,-0.841214,-0.122788,1.237296,-4.289392,0.332556,0.810197,-1.469057,4.006865,-0.083792,-0.128817,0.000000,-0.426687,-0.126332,0.000000
0.790000,-2.552428,-0.264979,-1.514025,0.615858,0.006913,-0.084028,1.299052,-0.884172,-0.119256,1.244878,-4.301156,0.373878,0.749402,-0.892742,4.138629,-0.088066,-0.130092,0.000000,-0.428028,-0.127612,0.000000
0.800000,-2.546204,-0.264955,-1.514871,0.628910,-0.002144,-0.085201,1.311537,-0.927218,-0.115308,1.251851,-4.307092,0.416413,0.596842,-0.279963,4.491262,-0.092351,-0.131380,0.000000,-0.428834,-0.128860,0.000000
0.810000,-2.539849,-0.265023,-1.515729,0.642089,-0.011632,-0.086332,1.324082,-0.970293,-0.110910,1.256723,-4.306714,0.463916,0.427080,0.349424,4.865792,-0.096641,-0.132680,0.000000,-0.429100,-0.129980,0.000000
0.820000,-2.533362,-0.265189,-1.516597,0.655392,-0.021550,-0.087417,1.336670,-1.013332,-0.106029,1.260825,-4.300130,0.512430,0.340713,0.978620,4.980296,-0.100931,-0.133991,0.000000,-0.428805,-0.131052,-0.000000
0.830000,-2.526741,-0.265456,-1.517477,0.668822,-0.031898,-0.088451,1.349290,-1.056273,-0.100642,1.262436,-4.286908,0.566526,-0.022337,1.668767,5.844917,-0.105215,-0.135314,0.000000,-0.427958,-0.131971,0.000000
0.840000,-2.519985,-0.265828,-1.518366,0.682378,-0.042675,-0.089428,1.361910,-1.099047,-0.094678,1.261355,-4.266874,0.626500,-0.144971,2.332023,6.008687,-0.109489,-0.136645,0.000000,-0.426559,-0.132723,0.000000
0.850000,-2.513093,-0.266310,-1.519265,0.696060,-0.053878,-0.090343,1.374514,-1.141588,-0.088109,1.259063,-4.240141,0.687937,-0.366163,3.025915,6.422006,-0.113745,-0.137984,0.000000,-0.424576,-0.133397,0.000000
0.860000,-2.506063,-0.266907,-1.520173,0.709868,-0.065505,-0.091188,1.387081,-1.183826,-0.080898,1.254045,-4.206118,0.755026,-0.599070,3.739678,6.848561,-0.117978,-0.139330,0.000000,-0.422008,-0.133904,0.000000
0.870000,-2.498895,-0.267622,-1.521089,0.723802,-0.077553,-0.091958,1.399590,-1.225690,-0.073007,1.247433,-4.165679,0.823561,-0.765382,4.391079,7.002282,-0.122183,-0.140680,0.000000,-0.418898,-0.134299,0.000000
0.880000,-2.491587,-0.268460,-1.522012,0.737860,-0.090018,-0.092646,1.412020,-1.267113,-0.064406,1.237856,-4.117396,0.898088,-1.152836,5.269359,7.907671,-0.126354,-0.142035,0.000000,-0.415169,-0.134512,0.000000
0.890000,-2.484137,-0.269424,-1.522941,0.752042,-0.102894,-0.093244,1.424336,-1.308011,-0.055023,1.225163,-4.061061,0.978809,-1.346478,5.959336,8.091384,-0.130484,-0.143392,0.000000,-0.410813,-0.134536,0.000000
0.900000,-2.476546,-0.270519,-1.523876,0.766346,-0.116176,-0.093744,1.436517,-1.348312,-0.044827,1.210553,-3.997814,1.061135,-1.617522,6.733178,8.517294,-0.134568,-0.144748,0.000000,-0.405889,-0.134426,0.000000
0.910000,-2.468810,-0.271749,-1.524816,0.780771,-0.129858,-0.094138,1.448536,-1.387939,-0.033780,1.192722,-3.926225,1.149124,-1.899058,7.525412,8.943074,-0.138600,-0.146104,0.000000,-0.400319,-0.134112,0.000000
0.920000,-2.460930,-0.273117,-1.525759,0.795316,-0.143932,-0.094416,1.460366,-1.426815,-0.021842,1.173018,-3.847824,1.238713,-2.092108,8.216558,9.105221,-0.142573,-0.147456,0.000000,-0.394200,-0.133672,0.000000
0.930000,-2.452903,-0.274629,-1.526704,0.809978,-0.158391,-0.094571,1.471985,-1.464865,-0.008986,1.149827,-3.760601,1.333965,-2.548309,9.232143,9.947033,-0.146482,-0.148804,0.000000,-0.387398,-0.133008,-0.000000
0.940000,-2.444730,-0.276286,-1.527650,0.824755,-0.173227,-0.094593,1.483351,-1.501996,0.004858,1.123034,-3.664345,1.434930,-2.761330,9.960996,10.109744,-0.150319,-0.150144,0.000000,-0.379901,-0.132110,-0.000000
0.950000,-2.436408,-0.278094,-1.528595,0.839644,-0.188428,-0.094471,1.494439,-1.538129,0.019715,1.094166,-3.560832,1.537230,-3.062086,10.803432,10.480383,-0.154078,-0.151476,0.000000,-0.371819,-0.131066,0.000000
0.960000,-2.427937,-0.280056,-1.529539,0.854643,-0.203986,-0.094195,1.505222,-1.573180,0.035619,1.061841,-3.447930,1.644121,-3.365945,11.665497,10.828600,-0.157752,-0.152796,0.000000,-0.362994,-0.129790,0.000000
0.970000,-2.419315,-0.282175,-1.530478,0.869747,-0.219888,-0.093755,1.515669,-1.607068,0.052603,1.027186,-3.328530,1.753118,-3.601229,12.325751,11.029866,-0.161336,-0.154104,0.000000,-0.353672,-0.128355,0.000000
0.980000,-2.410541,-0.284455,-1.531413,0.884955,-0.236123,-0.093139,1.525754,-1.639717,0.070694,0.989060,-3.199080,1.865957,-4.025039,13.569119,11.534855,-0.164823,-0.155396,0.000000,-0.343530,-0.126676,0.000000
0.990000,-2.401615,-0.286899,-1.532341,0.900261,-0.252678,-0.092337,1.535438,-1.671014,0.089935,0.947421,-3.059345,1.982426,-4.265970,14.268091,11.689461,-0.168204,-0.156671,0.000000,-0.332540,-0.124745,0.000000
1.000000,-2.392536,-0.289509,-1.533259,0.915662,-0.269538,-0.091337,1.544695,-1.700883,0.110346,0.903436,-2.912756,2.100179,-4.566233,15.161134,11.918130,-0.171472,-0.157926,0.000000,-0.320995,-0.122641,0.000000
1.010000,-2.383302,-0.292290,-1.534167,0.931154,-0.286690,-0.090126,1.553495,-1.729233,0.131947,0.856119,-2.755791,2.220420,-4.863578,16.069786,12.105971,-0.174621,-0.159160,0.000000,-0.308561,-0.120283,0.000000
1.020000,-2.373912,-0.295244,-1.535061,0.946731,-0.304118,-0.088694,1.561810,-1.755981,0.154759,0.806484,-2.592849,2.341997,-5.094140,16.676850,12.219075,-0.177642,-0.160369,0.000000,-0.295642,-0.117751,0.000000
1.030000,-2.364367,-0.298374,-1.535940,0.962388,-0.321804,-0.087027,1.569614,-1.781053,0.178792,0.753590,-2.418936,2.465007,-5.484421,18.110738,12.375705,-0.180530,-0.161551,0.000000,-0.281738,-0.114953,0.000000
1.040000,-2.354664,-0.301681,-1.536801,0.978121,-0.339733,-0.085114,1.576871,-1.804322,0.204062,0.697467,-2.233834,2.589004,-5.706512,18.749760,12.397954,-0.183273,-0.162705,0.000000,-0.266804,-0.111880,-0.000000
1.050000,-2.344804,-0.305169,-1.537641,0.993924,-0.357884,-0.082942,1.583557,-1.825712,0.230572,0.639220,-2.042598,2.712935,-5.973317,19.655583,12.396565,-0.185865,-0.163827,0.000000,-0.251304,-0.108621,0.000000
1.060000,-2.334786,-0.308839,-1.538459,1.009790,-0.376240,-0.080498,1.589646,-1.845135,0.258317,0.578172,-1.840385,2.835792,-6.227734,20.569266,12.321074,-0.188296,-0.164914,0.000000,-0.234720,-0.105087,-0.000000
1.070000,-2.324608,-0.312694,-1.539250,1.025714,-0.394780,-0.077771,1.595112,-1.862507,0.287297,0.514769,-1.633235,2.960592,-6.457026,21.069094,12.477826,-0.190558,-0.165965,0.000000,-0.217689,-0.101369,0.000000
1.080000,-2.314271,-0.316736,-1.540013,1.041690,-0.413483,-0.074748,1.599933,-1.877760,0.317516,0.448942,-1.414631,3.081971,-6.706277,22.656039,11.782808,-0.192645,-0.166978,0.000000,-0.199436,-0.097364,-0.000000
1.090000,-2.303774,-0.320965,-1.540744,1.057711,-0.432328,-0.071417,1.604084,-1.890759,0.348921,0.380827,-1.184416,3.199090,-6.907354,23.171907,11.782440,-0.194542,-0.167948,0.000000,-0.179898,-0.093065,-0.000000
1.100000,-2.293117,-0.325383,-1.541440,1.073770,-0.451291,-0.067766,1.607543,-1.901436,0.381500,0.310796,-0.949453,3.316099,-7.102573,24.028796,11.456279,-0.196242,-0.168874,0.000000,-0.159811,-0.088571,-0.000000
1.110000,-2.282299,-0.329991,-1.542098,1.089859,-0.470349,-0.063783,1.610294,-1.909710,0.415220,0.239017,-0.703908,3.427003,-7.276077,24.872538,11.035016,-0.197734,-0.169753,0.000000,-0.138441,-0.083790,0.000000
1.120000,-2.271320,-0.334790,-1.542715,1.105973,-0.489477,-0.059458,1.612316,-1.915503,0.450051,0.165099,-0.453965,3.539527,-7.478817,25.309033,11.145288,-0.199009,-0.170583,0.000000,-0.116530,-0.078807,0.000000
1.130000,-2.260179,-0.339780,-1.543286,1.122103,-0.508650,-0.054778,1.613592,-1.918754,0.485978,0.090046,-0.193678,3.643106,-7.527404,26.749080,9.548773,-0.200060,-0.171360,0.000000,-0.093229,-0.073531,-0.000000
1.140000,-2.248878,-0.344963,-1.543809,1.138242,-0.527843,-0.049735,1.614114,-1.919341,0.522877,0.014111,0.076901,3.736582,-7.681319,27.161056,9.449640,-0.200869,-0.172082,0.000000,-0.068471,-0.067957,-0.000000
1.150000,-2.237414,-0.350337,-1.544280,1.154383,-0.547028,-0.044318,1.613869,-1.917207,0.560712,-0.063285,0.351106,3.829173,-7.768050,27.872071,8.741675,-0.201427,-0.172747,0.000000,-0.043084,-0.062179,0.000000
1.160000,-2.225790,-0.355903,-1.544694,1.170517,-0.566178,-0.038518,1.612849,-1.912288,0.599419,-0.140871,0.633806,3.910604,-7.822792,28.539917,7.935009,-0.201725,-0.173351,0.000000,-0.016313,-0.056134,-0.000000
1.170000,-2.214004,-0.361661,-1.545049,1.186637,-0.585264,-0.032327,1.611044,-1.904519,0.638929,-0.220369,0.920636,3.991332,-7.996877,28.934318,7.807522,-0.201751,-0.173892,0.000000,0.011214,-0.049822,0.000000
1.180000,-2.202057,-0.367608,-1.545339,1.202735,-0.604259,-0.025737,1.608444,-1.893850,0.679197,-0.299135,1.214763,4.058310,-7.749487,29.885250,5.563814,-0.201496,-0.174367,0.000000,0.040147,-0.043270,-0.000000
1.190000,-2.189950,-0.373745,-1.545562,1.218804,-0.623131,-0.018741,1.605065,-1.880200,0.720042,-0.376791,1.515786,4.110272,-7.853126,30.191603,5.211313,-0.200944,-0.174774,0.000000,0.070522,-0.036482,-0.000000
1.200000,-2.177681,-0.380070,-1.545713,1.234834,-0.641852,-0.011334,1.600904,-1.863528,0.761398,-0.455455,1.819383,4.158952,-7.798824,30.634062,4.119772,-0.200084,-0.175111,0.000000,0.101679,-0.029444,0.000000
1.210000,-2.165253,-0.386582,-1.545787,1.250819,-0.660392,-0.003512,1.595963,-1.843797,0.803162,-0.532345,2.127469,4.191547,-7.705691,30.997492,2.925516,-0.198905,-0.175374,0.000000,0.134136,-0.022200,0.000000
1.220000,-2.152665,-0.393278,-1.545782,1.266751,-0.678718,0.004730,1.590250,-1.820966,0.845232,-0.610689,2.439328,4.222194,-7.829866,31.336356,2.671431,-0.197398,-0.175563,0.000000,0.167551,-0.014664,0.000000
1.230000,-2.139918,-0.400155,-1.545691,1.282621,-0.696801,0.013394,1.583760,-1.795003,0.887539,-0.686145,2.753402,4.233815,-7.252229,31.464074,-0.373449,-0.195550,-0.175673,0.000000,0.202168,-0.006967,-0.000000
1.240000,-2.127013,-0.407213,-1.545512,1.298424,-0.714608,0.022481,1.576539,-1.765893,0.929836,-0.758231,3.068846,4.225088,-7.289416,31.636088,-0.854480,-0.193350,-0.175704,0.000000,0.237953,0.000871,-0.000000
1.250000,-2.113950,-0.414446,-1.545240,1.314150,-0.732108,0.031990,1.568592,-1.733621,0.972035,-0.830729,3.385614,4.212080,-7.076172,31.676791,-2.281501,-0.190789,-0.175654,0.000000,0.274579,0.008956,0.000000
1.260000,-2.100730,-0.421854,-1.544871,1.329793,-0.749270,0.041921,1.559938,-1.698193,1.014004,-0.899528,3.699686,4.178857,-6.824560,31.576338,-3.788236,-0.187857,-0.175521,0.000000,0.311972,0.017154,-0.000000
1.270000,-2.087354,-0.429431,-1.544401,1.345346,-0.766061,0.052269,1.550598,-1.659596,1.055609,-0.968464,4.021003,4.141532,-6.815816,32.229923,-4.248270,-0.184544,-0.175304,0.000000,0.350878,0.025575,0.000000
1.280000,-2.073824,-0.437174,-1.543824,1.360803,-0.782451,0.063031,1.540585,-1.617801,1.096756,-1.032771,4.334700,4.081909,-6.036296,30.479118,-7.699447,-0.180838,-0.175001,0.000000,0.390074,0.034052,0.000000
1.290000,-2.060139,-0.445078,-1.543139,1.376156,-0.798407,0.074202,1.529961,-1.572936,1.137165,-1.091959,4.639169,3.998880,-5.939475,30.842801,-8.339988,-0.176742,-0.174612,0.000000,0.429364,0.042549,-0.000000
1.300000,-2.046301,-0.453140,-1.542339,1.391400,-0.813899,0.085772,1.518747,-1.524998,1.176725,-1.150254,4.947431,3.910194,-5.571868,30.348680,-9.968851,-0.172246,-0.174136,0.000000,0.469795,0.051182,0.000000
1.310000,-2.032311,-0.461355,-1.541422,1.406529,-0.828897,0.097733,1.506980,-1.474020,1.215289,-1.202141,5.246948,3.799652,-5.147405,29.754054,-11.631082,-0.167346,-0.173574,0.000000,0.510278,0.059649,-0.000000
1.320000,-2.018171,-0.469716,-1.540383,1.421538,-0.843370,0.110074,1.494690,-1.420063,1.252704,-1.256302,5.544152,3.682250,-5.344802,29.458527,-12.343978,-0.162039,-0.172924,0.000000,0.551166,0.068618,-0.000000
1.330000,-2.003881,-0.478220,-1.539219,1.436421,-0.857288,0.122783,1.481885,-1.363172,1.288856,-1.301904,5.831341,3.542402,-3.761239,27.954496,-15.639376,-0.156324,-0.172185,0.000000,0.591853,0.077173,0.000000
1.340000,-1.989443,-0.486860,-1.537926,1.451174,-0.870624,0.135846,1.468686,-1.303475,1.323471,-1.338254,6.107136,3.379522,-3.844733,27.398615,-16.433777,-0.150204,-0.171364,0.000000,0.632083,0.085223,0.000000
1.350000,-1.974858,-0.495630,-1.536501,1.465794,-0.883349,0.149247,1.455110,-1.241045,1.356431,-1.375859,6.377142,3.209566,-3.334845,26.372281,-18.050147,-0.143683,-0.170459,0.000000,0.672085,0.093625,0.000000
1.360000,-1.960127,-0.504525,-1.534940,1.480275,-0.895436,0.162969,1.441189,-1.176005,1.387611,-1.407604,6.628095,3.024040,-2.848410,25.104852,-19.544961,-0.136769,-0.169473,0.000000,0.710398,0.101723,0.000000
1.370000,-1.945253,-0.513537,-1.533241,1.494616,-0.906860,0.176992,1.426988,-1.108421,1.416823,-1.431278,6.890885,2.814243,-2.042605,26.169943,-21.925117,-0.129466,-0.168407,0.000000,0.750576,0.109409,0.000000
1.380000,-1.930235,-0.522660,-1.531400,1.508814,-0.917596,0.191298,1.412573,-1.038293,1.443870,-1.451740,7.124578,2.595819,-2.052776,20.512447,-21.735634,-0.121769,-0.167267,0.000000,0.787515,0.116908,-0.000000
1.390000,-1.915077,-0.531887,-1.529414,1.522867,-0.927619,0.205863,1.397962,-0.966046,1.468718,-1.469093,7.326420,2.369977,-1.256107,21.118257,-23.908874,-0.113729,-0.166052,0.000000,0.820698,0.124186,0.000000
1.400000,-1.899779,-0.541210,-1.527282,1.536773,-0.936910,0.220664,1.383222,-0.891718,1.491188,-1.478192,7.535792,2.121991,-0.721313,19.467533,-25.192780,-0.105350,-0.164769,0.000000,0.854760,0.130909,-0.000000
1.410000,-1.884342,-0.550622,-1.525000,1.550531,-0.945447,0.235678,1.368418,-0.815425,1.511134,-1.481426,7.719690,1.865478,-0.144051,17.763393,-26.403124,-0.096646,-0.163422,0.000000,0.885500,0.137057,0.000000
1.420000,-1.868768,-0.560116,-1.522567,1.564142,-0.953212,0.250878,1.353595,-0.737344,1.528433,-1.483075,7.895082,1.591373,0.028063,16.852315,-28.108095,-0.087643,-0.162014,0.000000,0.914834,0.143279,0.000000
1.430000,-1.853060,-0.569684,-1.519982,1.577603,-0.960188,0.266237,1.338786,-0.657605,1.542939,-1.476379,8.047047,1.309818,1.317973,13.516072,-28.179485,-0.078361,-0.160548,0.000000,0.940733,0.148563,-0.000000
1.440000,-1.837217,-0.579317,-1.517242,1.590918,-0.966360,0.281727,1.324098,-0.576489,1.554611,-1.461026,8.174322,1.022078,1.537315,12.384734,-29.652769,-0.068842,-0.159037,0.000000,0.962876,0.152817,0.000000
1.450000,-1.821242,-0.589008,-1.514347,1.604086,-0.971714,0.297320,1.309568,-0.494147,1.563326,-1.443814,8.290706,0.719616,2.118857,10.430565,-30.525141,-0.059110,-0.157485,0.000000,0.982814,0.156981,0.000000
1.460000,-1.805136,-0.598749,-1.511296,1.617110,-0.976239,0.312984,1.295248,-0.410746,1.568988,-1.419197,8.386349,0.411628,2.693737,8.485110,-31.291445,-0.049197,-0.155896,0.000000,0.999172,0.160205,0.000000
1.470000,-1.788900,-0.608530,-1.508087,1.629992,-0.979926,0.328689,1.281194,-0.326502,1.571516,-1.390974,8.458395,0.091970,3.055384,6.118702,-32.394501,-0.039141,-0.154278,0.000000,1.011517,0.163032,-0.000000
1.480000,-1.772536,-0.618344,-1.504722,1.642735,-0.982767,0.344403,1.267452,-0.241635,1.570818,-1.355901,8.512825,-0.231114,3.960221,4.769423,-32.196841,-0.028978,-0.152636,0.000000,1.020420,0.164909,0.000000
1.490000,-1.756046,-0.628183,-1.501199,1.655342,-0.984757,0.360095,1.254100,-0.156302,1.566889,-1.313966,8.549667,-0.556209,4.316965,2.394206,-33.033522,-0.018744,-0.150981,0.000000,1.025822,0.165800,0.000000
1.500000,-1.739430,-0.638037,-1.497520,1.667818,-0.985892,0.375730,1.241182,-0.070726,1.559663,-1.268716,8.562374,-0.889438,4.836714,0.346545,-33.363425,-0.008477,-0.149320,0.000000,1.026901,0.166228,-0.000000
1.510000,-1.722690,-0.647898,-1.493685,1.680167,-0.986172,0.391277,1.228736,0.014868,1.549117,-1.219811,8.552560,-1.219448,5.289699,-1.779857,-33.492106,0.001780,-0.147659,0.000000,1.023820,0.165946,-0.000000
1.520000,-1.705827,-0.657757,-1.489695,1.692395,-0.985596,0.406701,1.216829,0.100298,1.535200,-1.159787,8.531659,-1.566916,6.372281,-2.913478,-35.133783,0.011991,-0.146006,0.000000,1.017944,0.164437,0.000000
1.530000,-1.688842,-0.667607,-1.485551,1.704506,-0.984167,0.421969,1.205539,0.185407,1.517820,-1.099565,8.483528,-1.903925,5.657177,-6.726297,-32.221391,0.022123,-0.144371,0.000000,1.007381,0.162508,0.000000
1.540000,-1.671737,-0.677438,-1.481256,1.716507,-0.981890,0.437047,1.194833,0.269872,1.497171,-1.039876,8.407608,-2.228090,6.618274,-7.934006,-33.447290,0.032123,-0.142756,0.000000,0.992216,0.160223,-0.000000
1.550000,-1.654512,-0.687242,-1.476811,1.728405,-0.978772,0.451901,1.184780,0.353531,1.473200,-0.970199,8.320539,-2.565208,6.971377,-9.991306,-33.103090,0.041960,-0.141169,0.000000,0.974421,0.156796,-0.000000
1.560000,-1.637169,-0.697011,-1.472219,1.740205,-0.974822,0.466500,1.175435,0.436214,1.445916,-0.898340,8.213212,-2.890471,7.324991,-11.924255,-32.618948,0.051600,-0.139619,0.000000,0.953127,0.152746,0.000000
1.570000,-1.619709,-0.706736,-1.467482,1.751916,-0.970052,0.480809,1.166819,0.517694,1.415353,-0.824449,8.078007,-3.223541,7.516239,-14.663907,-33.307800,0.061007,-0.138111,0.000000,0.927464,0.148436,0.000000
1.580000,-1.602131,-0.716409,-1.462604,1.763544,-0.964473,0.494796,1.158959,0.597733,1.381498,-0.746688,7.929445,-3.542224,8.032494,-15.024568,-30.389716,0.070142,-0.136648,0.000000,0.899441,0.143310,0.000000
1.590000,-1.584438,-0.726022,-1.457587,1.775098,-0.958102,0.508429,1.151898,0.676246,1.344568,-0.665296,7.768747,-3.844498,8.171143,-17.552073,-30.722130,0.078989,-0.135240,0.000000,0.869413,0.137403,0.000000
1.600000,-1.566630,-0.735568,-1.452437,1.786585,-0.950954,0.521677,1.145656,0.753015,1.304583,-0.582798,7.582447,-4.150592,8.390818,-19.248433,-29.807467,0.087517,-0.133891,0.000000,0.835812,0.131355,0.000000
1.610000,-1.548707,-0.745039,-1.447155,1.798014,-0.943048,0.534510,1.140246,0.827860,1.261618,-0.499005,7.384047,-4.440539,8.547701,-20.847900,-28.770806,0.095701,-0.132605,0.000000,0.800575,0.124858,0.000000
1.620000,-1.530669,-0.754427,-1.441748,1.809393,-0.934404,0.546900,1.135695,0.900609,1.215760,-0.410261,7.161815,-4.731266,9.013908,-23.167144,-28.773148,0.103518,-0.131385,0.000000,0.762350,0.117783,0.000000
1.630000,-1.512519,-0.763725,-1.436219,1.820731,-0.925044,0.558816,1.132035,0.971066,1.167059,-0.322654,6.929753,-5.003400,8.495119,-23.217102,-25.621741,0.110945,-0.130237,0.000000,0.723149,0.110562,0.000000
1.640000,-1.494255,-0.772925,-1.430573,1.832036,-0.914990,0.570232,1.129235,1.039180,1.115764,-0.236839,6.689354,-5.255312,8.843426,-25.267460,-25.340529,0.117979,-0.129160,0.000000,0.683346,0.103273,-0.000000
1.650000,-1.475878,-0.782022,-1.424816,1.843318,-0.904268,0.581123,1.127314,1.104777,1.061950,-0.147466,6.428308,-5.504949,8.841580,-26.505319,-23.985033,0.124604,-0.128158,0.000000,0.641474,0.095602,0.000000
1.660000,-1.457389,-0.791009,-1.418953,1.854585,-0.892904,0.591463,1.126276,1.167729,1.005725,-0.060329,6.160480,-5.737586,8.786239,-27.604559,-22.597388,0.130809,-0.127233,0.000000,0.599442,0.088007,0.000000
1.670000,-1.438786,-0.799878,-1.412989,1.865847,-0.880923,0.601230,1.126121,1.227906,0.947240,0.030027,5.871403,-5.957309,9.076731,-29.647906,-21.275839,0.136586,-0.126385,0.000000,0.555724,0.079965,0.000000
1.680000,-1.420072,-0.808625,-1.406930,1.877111,-0.868355,0.610401,1.126863,1.285151,0.886631,0.116842,5.579327,-6.161626,8.273131,-28.731835,-19.578405,0.141925,-0.125617,0.000000,0.512511,0.072208,0.000000
1.690000,-1.401244,-0.817243,-1.400783,1.888387,-0.855230,0.618956,1.128443,1.339493,0.824061,0.199421,5.286109,-6.350015,8.438885,-30.443332,-18.156731,0.146839,-0.124925,0.000000,0.470096,0.064811,0.000000
1.700000,-1.382304,-0.825728,-1.394553,1.899682,-0.841576,0.626876,1.130861,1.390806,0.759677,0.283758,4.975509,-6.524116,8.219081,-31.109269,-16.595525,0.151323,-0.124308,0.000000,0.426771,0.057158,0.000000
1.710000,-1.363250,-0.834073,-1.388247,1.911007,-0.827424,0.634144,1.134100,1.439009,0.693629,0.363472,4.664550,-6.683005,7.946820,-31.633118,-15.029087,0.155379,-0.123767,0.000000,0.384474,0.049935,0.000000
1.720000,-1.344084,-0.842275,-1.381872,1.922367,-0.812806,0.640744,1.138139,1.484035,0.626082,0.444692,4.337988,-6.823239,8.066740,-33.107861,-13.162311,0.159010,-0.123299,0.000000,0.341685,0.042449,0.000000
1.730000,-1.324803,-0.850328,-1.375435,1.933772,-0.797754,0.646661,1.142972,1.525783,0.557210,0.519975,4.014370,-6.949299,6.976713,-31.579603,-12.052951,0.162218,-0.122905,0.000000,0.300353,0.035556,-0.000000
1.740000,-1.305408,-0.858229,-1.368941,1.945229,-0.782301,0.651884,1.148515,1.564343,0.487142,0.588638,3.695594,-7.061312,6.976164,-32.714715,-10.201137,0.165023,-0.122576,0.000000,0.260669,0.029315,0.000000
1.750000,-1.285898,-0.865973,-1.362399,1.956745,-0.766478,0.656401,1.154750,1.599646,0.416049,0.657461,3.365185,-7.154589,6.557276,-32.792821,-8.603120,0.167430,-0.122311,0.000000,0.221001,0.022956,0.000000
1.760000,-1.266273,-0.873557,-1.355816,1.968326,-0.750319,0.660202,1.161644,1.631668,0.344097,0.720623,3.039431,-7.233170,6.114717,-32.751250,-7.015598,0.169449,-0.122108,0.000000,0.182976,0.017134,0.000000
1.770000,-1.246531,-0.880978,-1.349198,1.979980,-0.733856,0.663280,1.169150,1.660404,0.271446,0.780065,2.706732,-7.294037,5.724979,-33.371733,-5.257347,0.171091,-0.121963,0.000000,0.145444,0.011600,0.000000
1.780000,-1.226673,-0.888233,-1.342553,1.991711,-0.717122,0.665629,1.177227,1.685828,0.198264,0.834107,2.380724,-7.340414,5.077193,-31.800182,-4.025302,0.172364,-0.121871,0.000000,0.109716,0.006557,0.000000
1.790000,-1.206697,-0.895320,-1.335888,2.003526,-0.700150,0.667244,1.185813,1.708050,0.124684,0.882400,2.062991,-7.372683,4.620965,-32.132749,-2.336066,0.173292,-0.121828,0.000000,0.075892,0.002031,0.000000
1.800000,-1.186602,-0.902236,-1.329210,2.015429,-0.682972,0.668122,1.194860,1.727069,0.050868,0.926064,1.741817,-7.388080,4.063799,-31.684210,-0.846199,0.173884,-0.121829,0.000000,0.042810,-0.002138,0.000000
1.810000,-1.166388,-0.908979,-1.322528,2.027424,-0.665619,0.668261,1.204308,1.742921,-0.023040,0.962405,1.429657,-7.391519,3.457000,-31.123632,0.564664,0.174154,-0.121869,0.000000,0.011581,-0.005637,0.000000
1.820000,-1.146053,-0.915547,-1.315847,2.039516,-0.648124,0.667661,1.214108,1.755650,-0.096882,0.997492,1.116044,-7.373132,3.308248,-31.204824,2.703988,0.174118,-0.121944,0.000000,-0.018717,-0.009197,0.000000
1.830000,-1.125597,-0.921941,-1.309177,2.051708,-0.630517,0.666324,1.224225,1.765282,-0.170477,1.023284,0.813813,-7.346021,1.839597,-29.215785,2.697163,0.173787,-0.122052,0.000000,-0.047092,-0.011881,0.000000
1.840000,-1.105019,-0.928158,-1.302523,2.064001,-0.612828,0.664253,1.234539,1.771972,-0.243780,1.039265,0.524315,-7.311251,1.605581,-29.054247,4.652562,0.173183,-0.122182,0.000000,-0.073502,-0.013657,0.000000
1.850000,-1.084317,-0.934197,-1.295894,2.076399,-0.595087,0.661450,1.245008,1.775767,-0.316628,1.053225,0.236232,-7.256597,0.933782,-28.168440,5.865012,0.172320,-0.122330,0.000000,-0.098904,-0.015437,0.000000
1.860000,-1.063491,-0.940059,-1.289297,2.088902,-0.577322,0.657922,1.255580,1.776735,-0.388891,1.060055,-0.041089,-7.194199,0.284946,-27.242702,6.999644,0.171211,-0.122493,0.000000,-0.122655,-0.016597,-0.000000
1.870000,-1.042539,-0.945744,-1.282738,2.101511,-0.559561,0.653675,1.266176,1.774980,-0.460444,1.057559,-0.308022,-7.113176,-0.643409,-26.174391,8.810872,0.169872,-0.122664,0.000000,-0.144672,-0.017074,0.000000
1.880000,-1.021460,-0.951251,-1.276226,2.114225,-0.541831,0.648716,1.276715,1.770606,-0.531138,1.050150,-0.565237,-7.026248,-0.834391,-25.260527,8.551956,0.168322,-0.122838,0.000000,-0.165297,-0.017155,0.000000
1.890000,-1.000254,-0.956580,-1.269766,2.127045,-0.524157,0.643055,1.287164,1.763709,-0.600956,1.037998,-0.812227,-6.934602,-1.739204,-24.087635,10.153140,0.166571,-0.123011,0.000000,-0.184554,-0.016853,0.000000
1.900000,-0.978919,-0.961734,-1.263367,2.139968,-0.506565,0.636700,1.297442,1.754403,-0.669769,1.016586,-1.047172,-6.826699,-2.400546,-22.935145,11.029835,0.164636,-0.123178,0.000000,-0.202144,-0.015892,-0.000000
1.910000,-0.957454,-0.966712,-1.257034,2.152993,-0.489077,0.629663,1.307482,1.742805,-0.737483,0.990485,-1.270352,-6.715097,-3.043593,-21.731693,11.803690,0.162533,-0.123332,0.000000,-0.218353,-0.014565,0.000000
1.920000,-0.935859,-0.971516,-1.250776,2.166116,-0.471716,0.621955,1.317212,1.729033,-0.804003,0.953661,-1.482025,-6.586030,-4.102604,-20.559955,13.489146,0.160274,-0.123470,0.000000,-0.233041,-0.012487,-0.000000
1.930000,-0.914131,-0.976147,-1.244598,2.179336,-0.454503,0.613588,1.326544,1.713208,-0.869205,0.913029,-1.680664,-6.456230,-4.015969,-19.161460,12.443456,0.157876,-0.123584,0.000000,-0.246382,-0.010113,-0.000000
1.940000,-0.892272,-0.980607,-1.238506,2.192646,-0.437458,0.604575,1.335463,1.695465,-0.933134,0.868953,-1.865902,-6.327090,-5.018062,-17.918942,13.887280,0.155351,-0.123674,0.000000,-0.258402,-0.007466,0.000000
1.950000,-0.870278,-0.984897,-1.232508,2.206043,-0.420600,0.594930,1.343885,1.675931,-0.995688,0.814562,-2.038647,-6.183072,-5.639385,-16.589539,14.393052,0.152713,-0.123733,0.000000,-0.268998,-0.004106,0.000000
1.960000,-0.848150,-0.989019,-1.226610,2.219522,-0.403945,0.584666,1.351736,1.654737,-1.056799,0.754428,-2.197967,-6.038706,-6.277982,-15.246397,14.826478,0.149975,-0.123756,0.000000,-0.278340,-0.000293,0.000000
1.970000,-0.825888,-0.992976,-1.220817,2.233076,-0.387510,0.573799,1.358961,1.632019,-1.116420,0.690029,-2.343297,-5.883471,-6.704769,-13.842227,15.864005,0.147151,-0.123738,0.000000,-0.286275,0.003720,0.000000
1.980000,-0.803489,-0.996770,-1.215136,2.246699,-0.371309,0.562343,1.365511,1.607915,-1.174474,0.618175,-2.475298,-5.728895,-7.667057,-12.557724,15.030613,0.144254,-0.123678,0.000000,-0.293049,0.008340,0.000000
1.990000,-0.780953,-1.000403,-1.209572,2.260383,-0.355356,0.550314,1.371299,1.582557,-1.231006,0.538849,-2.593942,-5.576050,-8.090077,-11.146116,15.878434,0.141294,-0.123568,0.000000,-0.298697,0.013573,0.000000
2.000000,-0.758281,-1.003878,-1.204131,2.274122,-0.339662,0.537728,1.376276,1.556084,-1.285959,0.455526,-2.698433,-5.414476,-8.677051,-9.777570,16.078985,0.138284,-0.123404,0.000000,-0.303052,0.018993,0.000000
2.010000,-0.735471,-1.007197,-1.198819,2.287906,-0.324238,0.524600,1.380393,1.528625,-1.339298,0.366988,-2.791311,-5.252871,-9.219175,-8.451793,16.248199,0.135236,-0.123183,0.000000,-0.306471,0.024804,0.000000
2.020000,-0.712523,-1.010364,-1.193641,2.301727,-0.309092,0.510947,1.383583,1.500330,-1.391011,0.269439,-2.864304,-5.089541,-10.101653,-6.485850,16.395771,0.132161,-0.122900,0.000000,-0.308227,0.031314,0.000000
2.030000,-0.689436,-1.013380,-1.188602,2.315574,-0.294233,0.496786,1.385773,1.471367,-1.441086,0.168921,-2.928149,-4.925408,-9.992977,-6.296245,16.422919,0.129073,-0.122551,0.000000,-0.309300,0.038005,-0.000000
2.040000,-0.666211,-1.016250,-1.183707,2.329439,-0.279667,0.482131,1.386954,1.441793,-1.489518,0.065884,-2.983462,-4.760939,-10.798917,-4.428786,16.478113,0.125977,-0.122134,0.000000,-0.309758,0.044847,-0.000000
2.050000,-0.642847,-1.018975,-1.178961,2.343310,-0.265399,0.467001,1.387060,1.411767,-1.536303,-0.045396,-3.019679,-4.596102,-11.266461,-3.157494,16.468682,0.122884,-0.121644,0.000000,-0.308695,0.052335,-0.000000
2.060000,-0.619345,-1.021558,-1.174368,2.357176,-0.251433,0.451411,1.386037,1.381431,-1.581446,-0.159787,-3.045586,-4.432593,-11.714087,-1.900214,16.402396,0.119805,-0.121078,0.000000,-0.306909,0.060043,0.000000
2.070000,-0.595704,-1.024004,-1.169934,2.371027,-0.237771,0.435377,1.383841,1.350908,-1.624944,-0.280588,-3.056584,-4.266573,-12.339501,-0.428007,16.627644,0.116749,-0.120433,0.000000,-0.303970,0.068218,-0.000000
2.080000,-0.571924,-1.026315,-1.165662,2.384849,-0.224415,0.418917,1.380417,1.320334,-1.666789,-0.404341,-3.056846,-4.103684,-12.404405,0.367204,15.940009,0.113728,-0.119704,0.000000,-0.300308,0.076625,0.000000
2.090000,-0.548007,-1.028494,-1.161557,2.398631,-0.211364,0.402047,1.375746,1.289804,-1.707031,-0.530693,-3.046824,-3.944449,-12.966515,1.757531,16.073163,0.110745,-0.118890,0.000000,-0.295968,0.085241,0.000000
2.100000,-0.523952,-1.030543,-1.157623,2.412360,-0.198618,0.384782,1.369782,1.259446,-1.745670,-0.662716,-3.022868,-3.783742,-13.330800,2.903198,15.894746,0.107812,-0.117987,0.000000,-0.290591,0.094280,0.000000
2.110000,-0.499760,-1.032467,-1.153863,2.426022,-0.186174,0.367139,1.362483,1.229377,-1.782715,-0.797532,-2.989268,-3.625537,-13.675415,4.001821,15.711484,0.104936,-0.116993,0.000000,-0.284588,0.103542,0.000000
2.120000,-0.475432,-1.034268,-1.150281,2.439605,-0.174029,0.349133,1.353816,1.199712,-1.818190,-0.936580,-2.941196,-3.469857,-14.085624,5.421410,15.453113,0.102124,-0.115904,0.000000,-0.277548,0.113151,0.000000
2.130000,-0.450968,-1.035949,-1.146881,2.453094,-0.162178,0.330780,1.343744,1.170579,-1.852117,-1.078230,-2.884850,-3.315864,-14.239384,5.835574,15.344809,0.099386,-0.114717,0.000000,-0.269991,0.122966,0.000000
2.140000,-0.426370,-1.037512,-1.143667,2.466475,-0.150616,0.312096,1.332244,1.142039,-1.884512,-1.222209,-2.820869,-3.163615,-14.598333,7.140963,15.072697,0.096726,-0.113431,0.000000,-0.261968,0.132971,-0.000000
2.150000,-0.401639,-1.038962,-1.140640,2.479734,-0.139335,0.293095,1.319287,1.114209,-1.915400,-1.369741,-2.743751,-3.014162,-14.859401,8.089429,14.848712,0.094150,-0.112044,0.000000,-0.253022,0.143282,-0.000000
2.160000,-0.376776,-1.040300,-1.137806,2.492856,-0.128329,0.273793,1.304842,1.087188,-1.944800,-1.519522,-2.658927,-2.866218,-15.101793,8.994516,14.633327,0.091667,-0.110552,0.000000,-0.243598,0.153784,-0.000000
2.170000,-0.351783,-1.041529,-1.135166,2.505826,-0.117588,0.254204,1.288888,1.061070,-1.972740,-1.671786,-2.562843,-2.722472,-15.339458,10.092895,14.220127,0.089281,-0.108955,0.000000,-0.233414,0.164525,0.000000
2.180000,-0.326660,-1.042652,-1.132723,2.518628,-0.107104,0.234343,1.271400,1.035954,-1.999252,-1.826071,-2.459779,-2.579624,-15.513977,10.508827,14.353855,0.087000,-0.107248,0.000000,-0.222800,0.175441,-0.000000
2.190000,-0.301411,-1.043672,-1.130480,2.531248,-0.096866,0.214223,1.252361,1.011895,-2.024334,-1.982164,-2.350340,-2.437465,-15.709419,11.494961,13.974937,0.084826,-0.105432,0.000000,-0.211798,0.186519,0.000000
2.200000,-0.276036,-1.044591,-1.128439,2.543670,-0.086862,0.193861,1.231750,0.988982,-2.048016,-2.140122,-2.231076,-2.299200,-15.870824,12.227274,13.784263,0.082766,-0.103504,0.000000,-0.200139,0.197799,0.000000
2.210000,-0.250538,-1.045410,-1.126603,2.555878,-0.077082,0.173268,1.209553,0.967293,-2.070318,-2.299680,-2.105685,-2.161437,-16.015313,12.914301,13.617586,0.080825,-0.101462,0.000000,-0.188102,0.209232,0.000000
2.220000,-0.224919,-1.046133,-1.124974,2.567856,-0.067512,0.152459,1.185754,0.946896,-2.091262,-2.460160,-1.972290,-2.028204,-16.098784,13.688314,13.180547,0.079006,-0.099305,0.000000,-0.175549,0.220804,-0.000000
2.230000,-0.199182,-1.046761,-1.123555,2.579588,-0.058139,0.131447,1.160345,0.927864,-2.110880,-2.622039,-1.833520,-1.894644,-16.274375,14.055831,13.539457,0.077315,-0.097031,0.000000,-0.162662,0.232517,-0.000000
2.240000,-0.173328,-1.047296,-1.122346,2.591057,-0.048950,0.110246,1.133309,0.910241,-2.129151,-2.785149,-1.689935,-1.760354,-16.322816,14.722826,13.172079,0.075754,-0.094640,0.000000,-0.149476,0.244364,0.000000
2.250000,-0.147361,-1.047741,-1.121350,2.602249,-0.039930,0.088868,1.104641,0.894088,-2.146102,-2.948613,-1.539810,-1.629852,-16.388152,15.224913,13.081818,0.074327,-0.092130,0.000000,-0.135872,0.256311,-0.000000
2.260000,-0.121284,-1.048095,-1.120569,2.613145,-0.031063,0.067328,1.074334,0.879459,-2.161745,-3.112951,-1.385343,-1.498660,-16.436815,15.681767,13.022075,0.073037,-0.089499,0.000000,-0.121994,0.268374,0.000000
2.270000,-0.095100,-1.048362,-1.120004,2.623730,-0.022335,0.045638,1.042384,0.866398,-2.176088,-3.276920,-1.226140,-1.370600,-16.391908,16.130320,12.729067,0.071888,-0.086748,0.000000,-0.107827,0.280485,0.000000
2.280000,-0.068811,-1.048543,-1.119657,2.633987,-0.013730,0.023810,1.008793,0.854948,-2.189151,-3.441527,-1.063325,-1.241158,-16.527311,16.424085,13.168466,0.070881,-0.083875,0.000000,-0.093427,0.292699,0.000000
2.290000,-0.042421,-1.048637,-1.119528,2.643900,-0.005231,0.001859,0.973551,0.845141,-2.200904,-3.606625,-0.897406,-1.109859,-16.450259,16.772129,12.960351,0.070020,-0.080879,0.000000,-0.078827,0.305011,-0.000000
2.300000,-0.015934,-1.048647,-1.119620,2.653453,0.003178,-0.020203,0.936664,0.837011,-2.211358,-3.770792,-0.728215,-0.980691,-16.418434,17.036964,13.013672,0.069305,-0.077760,0.000000,-0.064028,0.317336,0.000000
2.310000,0.010647,-1.048574,-1.119933,2.662628,0.011515,-0.042364,0.898135,0.830585,-2.220508,-3.934947,-0.556680,-0.849122,-16.368157,17.254900,13.111612,0.068740,-0.074517,0.000000,-0.049072,0.329727,0.000000
2.320000,0.037317,-1.048417,-1.120468,2.671410,0.019796,-0.064609,0.857970,0.825883,-2.228352,-4.097710,-0.383346,-0.720135,-16.220666,17.410589,12.879561,0.068324,-0.071149,0.000000,-0.034025,0.342109,0.000000
2.330000,0.064074,-1.048178,-1.121225,2.679782,0.028038,-0.086926,0.816182,0.822923,-2.234897,-4.260121,-0.208490,-0.587470,-16.259241,17.552419,13.664853,0.068060,-0.067658,0.000000,-0.018865,0.354537,0.000000
2.340000,0.090912,-1.047857,-1.122206,2.687728,0.036260,-0.109302,0.772769,0.821717,-2.240086,-4.422021,-0.032601,-0.450532,-16.077123,17.610283,13.538381,0.067947,-0.064042,0.000000,-0.003622,0.367006,0.000000
2.350000,0.117827,-1.047453,-1.123411,2.695232,0.044479,-0.131724,0.727749,0.822272,-2.243916,-4.581930,0.143605,-0.314976,-15.940833,17.629564,13.767883,0.067987,-0.060301,0.000000,0.011622,0.379432,0.000000
2.360000,0.144815,-1.046967,-1.124841,2.702278,0.052712,-0.154176,0.681133,0.824590,-2.246367,-4.741010,0.319888,-0.174799,-15.788669,17.600033,14.044638,0.068180,-0.056436,0.000000,0.026890,0.391890,0.000000
2.370000,0.171871,-1.046399,-1.126495,2.708849,0.060976,-0.176646,0.632941,0.828666,-2.247420,-4.896866,0.495265,-0.036074,-15.458780,17.484885,13.927560,0.068525,-0.052446,0.000000,0.042075,0.404218,0.000000
2.380000,0.198990,-1.045747,-1.128374,2.714931,0.069291,-0.199120,0.583198,0.834492,-2.247068,-5.051790,0.669793,0.108519,-15.524427,17.412672,15.003473,0.069021,-0.048332,0.000000,0.057232,0.416583,0.000000
2.390000,0.226168,-1.045013,-1.130477,2.720508,0.077672,-0.221583,0.531908,0.842058,-2.245227,-5.205649,0.842982,0.259615,-15.162362,17.198172,14.997169,0.069669,-0.044094,0.000000,0.072333,0.428986,0.000000
2.400000,0.253398,-1.044194,-1.132805,2.725564,0.086138,-0.244019,0.479099,0.851343,-2.241880,-5.355639,1.013737,0.410468,-14.911944,16.962325,15.401663,0.070467,-0.039732,0.000000,0.087258,0.441231,0.000000
2.410000,0.280677,-1.043289,-1.135358,2.730085,0.094705,-0.266415,0.424801,0.862324,-2.236991,-5.503701,1.181929,0.568207,-14.636392,16.672219,15.855037,0.071414,-0.035247,0.000000,0.102048,0.453465,0.000000
2.420000,0.307998,-1.042299,-1.138134,2.734056,0.103390,-0.288754,0.369040,0.874972,-2.230524,-5.647727,1.347053,0.724947,-14.221986,16.338719,15.784113,0.072507,-0.030640,0.000000,0.116621,0.465550,-0.000000
2.430000,0.335356,-1.041221,-1.141132,2.737461,0.112209,-0.311020,0.311854,0.889253,-2.222462,-5.789257,1.508420,0.889992,-14.080806,15.925475,17.238011,0.073746,-0.025912,0.000000,0.130987,0.477596,0.000000
2.440000,0.362746,-1.040054,-1.144354,2.740288,0.121180,-0.333198,0.253263,0.905126,-2.212692,-5.928076,1.665485,1.063989,-13.619722,15.483713,17.275682,0.075126,-0.021062,0.000000,0.145115,0.489607,-0.000000
2.450000,0.390160,-1.038797,-1.147796,2.742522,0.130317,-0.355268,0.193310,0.922547,-2.201188,-6.062043,1.817868,1.238037,-13.226445,14.978909,17.825329,0.076647,-0.016093,0.000000,0.158928,0.501434,0.000000
2.460000,0.417594,-1.037447,-1.151459,2.744150,0.139636,-0.377215,0.132036,0.941464,-2.187900,-6.191987,1.964570,1.420642,-12.793272,14.413219,18.407010,0.078304,-0.011004,0.000000,0.172407,0.513147,-0.000000
2.470000,0.445041,-1.036004,-1.155340,2.745158,0.149151,-0.399020,0.069482,0.961824,-2.172779,-6.318132,2.106508,1.603546,-12.394885,13.906374,18.458761,0.080094,-0.005798,0.000000,0.185582,0.524786,0.000000
2.480000,0.472495,-1.034464,-1.159438,2.745535,0.158877,-0.420665,0.005691,0.983570,-2.155796,-6.439030,2.241277,1.795790,-11.777869,13.036270,20.000347,0.082014,-0.000476,0.000000,0.198324,0.536240,0.000000
2.490000,0.499950,-1.032825,-1.163753,2.745268,0.168827,-0.442130,-0.059280,1.006623,-2.136828,-6.554286,2.368243,1.997858,-11.302957,12.407469,20.128697,0.084059,0.004962,0.000000,0.210595,0.547498,0.000000
2.500000,0.527398,-1.031086,-1.168280,2.744346,0.179014,-0.463395,-0.125379,1.030914,-2.115840,-6.664667,2.488735,2.200803,-10.731662,11.622540,20.744577,0.086225,0.010513,0.000000,0.222453,0.558638,0.000000
2.510000,0.554834,-1.029244,-1.173020,2.742757,0.189449,-0.484439,-0.192551,1.056366,-2.092782,-6.768589,2.600099,2.411922,-10.117854,10.772061,21.354869,0.088506,0.016176,0.000000,0.233736,0.569546,-0.000000
2.520000,0.582251,-1.027297,-1.177968,2.740492,0.200145,-0.505243,-0.260736,1.082897,-2.067592,-6.867555,2.705198,2.626744,-9.599879,10.111766,21.728399,0.090898,0.021948,0.000000,0.244661,0.580362,0.000000
2.530000,0.609642,-1.025241,-1.183124,2.737539,0.211110,-0.525784,-0.329876,1.110433,-2.040222,-6.959006,2.799488,2.848978,-8.681704,8.733193,22.720202,0.093397,0.027830,0.000000,0.254884,0.590893,0.000000
2.540000,0.637000,-1.023073,-1.188483,2.733891,0.222356,-0.546040,-0.399889,1.138848,-2.010586,-7.042460,2.882253,3.078671,-8.072565,7.939248,23.094287,0.095993,0.033817,0.000000,0.264354,0.601119,0.000000
2.550000,0.664317,-1.020792,-1.194044,2.729539,0.233890,-0.565988,-0.470706,1.168053,-1.978639,-7.119733,2.957010,3.311831,-7.305663,6.875303,23.655048,0.098682,0.039908,0.000000,0.273342,0.611199,0.000000
2.560000,0.691588,-1.018395,-1.199802,2.724475,0.245719,-0.585605,-0.542253,1.197944,-1.944327,-7.188137,3.019049,3.551593,-6.490101,5.743338,24.195182,0.101457,0.046099,0.000000,0.281485,0.620932,0.000000
2.570000,0.718804,-1.015877,-1.205754,2.718692,0.257851,-0.604867,-0.614451,1.228414,-1.907597,-7.250519,3.073727,3.794741,-5.861869,4.971151,24.524110,0.104311,0.052390,0.000000,0.289211,0.630564,-0.000000
2.580000,0.745959,-1.013237,-1.211898,2.712184,0.270289,-0.623749,-0.687228,1.259368,-1.868411,-7.302768,3.113840,4.043952,-4.577433,3.036904,25.315079,0.107238,0.058778,0.000000,0.295943,0.639774,-0.000000
2.590000,0.773046,-1.010470,-1.218228,2.704945,0.283039,-0.642226,-0.760470,1.290638,-1.826698,-7.344320,3.138614,4.298997,-3.845417,2.125056,25.591297,0.110226,0.065258,0.000000,0.301616,0.648531,-0.000000
2.600000,0.800056,-1.007575,-1.224741,2.696973,0.296103,-0.660274,-0.834092,1.322114,-1.782425,-7.378533,3.154367,4.556444,-2.872078,0.803837,25.985851,0.113269,0.071828,0.000000,0.306734,0.657115,0.000000
2.610000,0.826983,-1.004547,-1.231432,2.688263,0.309482,-0.677866,-0.908000,1.353668,-1.735553,-7.401092,3.154039,4.818490,-1.843804,-0.579522,26.334328,0.116357,0.078483,0.000000,0.310721,0.665186,-0.000000
2.620000,0.853819,-1.001384,-1.238297,2.678812,0.323176,-0.694976,-0.982096,1.385172,-1.686051,-7.417218,3.145373,5.082207,-1.170747,-1.447952,26.477758,0.119482,0.085222,0.000000,0.314203,0.673182,-0.000000
2.630000,0.880556,-0.998083,-1.245330,2.668620,0.337185,-0.711578,-1.056298,1.416514,-1.633896,-7.420095,3.118911,5.349488,0.607848,-3.859456,26.970417,0.122637,0.092042,0.000000,0.316394,0.680544,-0.000000
2.640000,0.907189,-0.994639,-1.252526,2.657686,0.351505,-0.727645,-1.130450,1.447486,-1.579050,-7.409072,3.073898,5.619816,1.396449,-4.857600,27.004928,0.125805,0.098934,0.000000,0.317217,0.687222,-0.000000
2.650000,0.933708,-0.991051,-1.259881,2.646012,0.366133,-0.743150,-1.204458,1.477965,-1.521502,-7.390299,3.019190,5.890021,2.569527,-6.378686,27.102564,0.128979,0.105895,0.000000,0.317383,0.693727,0.000000
2.660000,0.960106,-0.987316,-1.267387,2.633598,0.381062,-0.758066,-1.278205,1.507805,-1.461248,-7.357085,2.945940,6.160626,3.793974,-7.944214,27.107428,0.132148,0.112922,0.000000,0.316133,0.699487,0.000000
2.670000,0.986377,-0.983429,-1.275040,2.620449,0.396286,-0.772366,-1.351581,1.536858,-1.398282,-7.316940,2.863275,6.432837,4.516435,-8.912819,27.221803,0.135300,0.120008,0.000000,0.314248,0.705172,0.000000
2.680000,1.012513,-0.979389,-1.282833,2.606568,0.411796,-0.786023,-1.424489,1.565002,-1.332600,-7.260853,2.760890,6.702695,6.714278,-11.576488,26.731938,0.138427,0.127152,0.000000,0.310784,0.709959,-0.000000
2.690000,1.038506,-0.975192,-1.290758,2.591961,0.427582,-0.799009,-1.496741,1.592006,-1.264240,-7.188166,2.638199,6.969174,7.547945,-12.639378,26.648121,0.141510,0.134341,0.000000,0.305650,0.713767,-0.000000
2.700000,1.064350,-0.970836,-1.298811,2.576636,0.443632,-0.811299,-1.568230,1.617738,-1.193219,-7.107446,2.505326,7.234489,8.877963,-14.258223,26.298672,0.144538,0.141571,0.000000,0.299723,0.717366,-0.000000
2.710000,1.090037,-0.966319,-1.306982,2.560600,0.459932,-0.822865,-1.638832,1.642044,-1.119576,-7.010445,2.353133,7.493144,10.241415,-15.889209,25.810979,0.147499,0.148836,0.000000,0.292118,0.719952,0.000000
2.720000,1.115559,-0.961637,-1.315265,2.543863,0.476468,-0.833682,-1.708417,1.664770,-1.043342,-6.905177,2.190236,7.754002,11.089901,-16.970848,25.958951,0.150378,0.156128,0.000000,0.283663,0.722337,0.000000
2.730000,1.140911,-0.956789,-1.323653,2.526435,0.493222,-0.843723,-1.776877,1.685782,-0.964535,-6.782823,2.007830,8.003903,13.391260,-19.516703,23.991266,0.153166,0.163443,0.000000,0.273390,0.723549,0.000000
2.740000,1.166086,-0.951772,-1.332137,2.508329,0.510177,-0.852964,-1.844012,1.704858,-0.883309,-6.642900,1.805673,8.241227,14.316143,-20.626031,23.842463,0.155839,0.170766,0.000000,0.261200,0.723469,0.000000
2.750000,1.191076,-0.946585,-1.340710,2.489560,0.527312,-0.861381,-1.909710,1.721865,-0.799708,-6.494126,1.592974,8.477086,15.715989,-22.193077,22.923664,0.158387,0.178089,0.000000,0.248010,0.723022,0.000000
2.760000,1.215875,-0.941225,-1.349362,2.470141,0.544607,-0.868951,-1.973837,1.736656,-0.713823,-6.328880,1.362519,8.697854,17.120400,-23.727849,21.844458,0.160793,0.185405,0.000000,0.232946,0.721272,-0.000000
2.770000,1.240477,-0.935692,-1.358086,2.450089,0.562038,-0.875651,-2.036258,1.749078,-0.625738,-6.153692,1.120059,8.919420,18.121728,-24.916210,21.834650,0.163042,0.192702,0.000000,0.216689,0.719039,0.000000
2.780000,1.264875,-0.929984,-1.366872,2.429421,0.579580,-0.881458,-2.096855,1.759001,-0.535505,-5.962160,0.861009,9.121255,20.188651,-26.890205,18.493993,0.165120,0.199974,0.000000,0.198480,0.715347,0.000000
2.790000,1.289063,-0.924100,-1.375712,2.408158,0.597209,-0.886354,-2.155445,1.766243,-0.443390,-5.754140,0.585657,9.301354,21.204225,-28.009813,18.127468,0.167005,0.207201,0.000000,0.178237,0.710053,0.000000
2.800000,1.313036,-0.918040,-1.384596,2.386320,0.614896,-0.890320,-2.211909,1.770681,-0.349478,-5.536386,0.299655,9.478153,22.549931,-29.339806,16.594661,0.168681,0.214373,0.000000,0.156673,0.704074,0.000000
2.810000,1.336788,-0.911802,-1.393515,2.363928,0.632613,-0.893339,-2.266121,1.772190,-0.253911,-5.303799,0.000200,9.632107,23.865431,-30.584808,14.908149,0.170132,0.221479,0.000000,0.133174,0.696489,-0.000000
2.820000,1.360313,-0.905387,-1.402460,2.341005,0.650329,-0.895393,-2.317950,1.770641,-0.156835,-5.060080,-0.312207,9.782674,24.966350,-31.838608,14.478595,0.171339,0.228504,0.000000,0.107997,0.687974,0.000000
2.830000,1.383606,-0.898796,-1.411420,2.317577,0.668015,-0.896470,-2.367276,1.765911,-0.058352,-4.802630,-0.635355,9.906445,26.519418,-32.774980,10.236360,0.172285,0.235437,0.000000,0.080910,0.677713,0.000000
2.840000,1.406663,-0.892027,-1.420386,2.293668,0.685637,-0.896557,-2.413957,1.757902,0.041193,-4.531743,-0.968302,10.001405,27.555249,-33.843586,9.454778,0.172950,0.242256,0.000000,0.051878,0.665556,0.000000
2.850000,1.429478,-0.885083,-1.429347,2.269307,0.703161,-0.895643,-2.457880,1.746510,0.141664,-4.250889,-1.311515,10.089144,28.700988,-34.737083,7.363890,0.173317,0.248946,0.000000,0.021107,0.652241,-0.000000
2.860000,1.452047,-0.877965,-1.438295,2.244520,0.720555,-0.893721,-2.498937,1.731652,0.242871,-3.958789,-1.661206,10.148198,29.776329,-35.493279,5.148695,0.173367,0.255492,0.000000,-0.011471,0.637037,0.000000
2.870000,1.474367,-0.870673,-1.447219,2.219338,0.737783,-0.890784,-2.537015,1.713237,0.344611,-3.654951,-2.023863,10.198430,30.915058,-36.717796,4.189466,0.173080,0.261875,0.000000,-0.046252,0.620281,0.000000
2.880000,1.496433,-0.863210,-1.456107,2.193790,0.754808,-0.886828,-2.572006,1.691169,0.446730,-3.342086,-2.388847,10.217142,31.644085,-36.249606,-0.480596,0.172436,0.268079,0.000000,-0.082673,0.601548,0.000000
2.890000,1.518242,-0.855577,-1.464952,2.167909,0.771594,-0.881850,-2.603830,1.665460,0.548838,-3.020993,-2.754535,10.202653,32.627716,-37.170881,-1.726189,0.171421,0.274080,0.000000,-0.120676,0.580713,0.000000
2.900000,1.539790,-0.847779,-1.473741,2.141725,0.788105,-0.875852,-2.632393,1.636043,0.650756,-2.690356,-3.129254,10.176463,33.420365,-37.447816,-4.220321,0.170015,0.279860,0.000000,-0.160819,0.558114,0.000000
2.910000,1.561075,-0.839816,-1.482465,2.115272,0.804302,-0.868836,-2.657620,1.602889,0.752254,-2.354011,-3.501474,10.118538,34.103928,-37.547128,-6.784948,0.168201,0.285399,0.000000,-0.202366,0.533443,-0.000000
2.920000,1.582095,-0.831694,-1.491114,2.088584,0.820150,-0.860809,-2.679430,1.565966,0.853088,-2.006075,-3.885020,10.046027,35.205103,-38.582088,-8.291921,0.165959,0.290674,0.000000,-0.246500,0.506480,-0.000000
2.930000,1.602846,-0.823415,-1.499678,2.061695,0.835609,-0.851777,-2.697735,1.525218,0.953061,-1.655740,-4.260958,9.940655,34.837918,-36.564530,-12.804121,0.163267,0.295662,0.000000,-0.291687,0.477472,-0.000000
2.940000,1.623328,-0.814983,-1.508147,2.034641,0.850642,-0.841752,-2.712543,1.480784,1.051784,-1.304320,-4.627098,9.801401,35.694928,-37.201711,-14.474028,0.160122,0.300345,0.000000,-0.337731,0.446373,0.000000
2.950000,1.643539,-0.806403,-1.516510,2.007456,0.865212,-0.830746,-2.723789,1.432644,1.149046,-0.944425,-4.999738,9.646277,36.001499,-36.741085,-17.123698,0.156504,0.304697,0.000000,-0.386066,0.412865,0.000000
2.960000,1.663477,-0.797680,-1.524758,1.980177,0.879283,-0.818777,-2.731440,1.380837,1.244602,-0.585799,-5.360161,9.460356,36.169165,-36.084771,-19.763200,0.152400,0.308698,0.000000,-0.435010,0.377354,0.000000
2.970000,1.683142,-0.788819,-1.532882,1.952839,0.892817,-0.805861,-2.735463,1.325403,1.338189,-0.217139,-5.727991,9.253791,37.095819,-36.714122,-21.831981,0.147794,0.312322,0.000000,-0.486479,0.338870,0.000000
2.980000,1.702534,-0.779826,-1.540872,1.925480,0.905778,-0.792020,-2.735803,1.266341,1.429577,0.146326,-6.078359,9.017808,35.564737,-33.311993,-25.367238,0.142671,0.315544,0.000000,-0.537969,0.298606,-0.000000
2.990000,1.721652,-0.770706,-1.548720,1.898135,0.918132,-0.777278,-2.732563,1.203908,1.518445,0.502876,-6.408784,8.752388,36.180316,-33.499315,-27.419181,0.137037,0.318351,0.000000,-0.589098,0.256659,-0.000000
3.000000,1.740496,-0.761465,-1.556415,1.870841,0.929846,-0.761660,-2.725717,1.138145,1.604564,0.865708,-6.741499,8.467155,35.915498,-32.272777,-29.904417,0.130881,0.320716,0.000000,-0.642083,0.211867,-0.000000
3.010000,1.759069,-0.752111,-1.563950,1.843633,0.940885,-0.745196,-2.715284,1.069157,1.687703,1.220017,-7.053217,8.156726,35.503667,-30.864510,-32.287721,0.124199,0.322620,0.000000,-0.694348,0.165578,0.000000
3.020000,1.777369,-0.742650,-1.571316,1.816547,0.951218,-0.727917,-2.701286,0.997063,1.767611,1.580707,-7.365855,7.820582,36.056977,-30.848719,-34.810913,0.116987,0.324042,0.000000,-0.748210,0.116085,-0.000000
3.030000,1.795400,-0.733089,-1.578506,1.789619,0.960816,-0.709856,-2.683715,0.921931,1.844045,1.929057,-7.653123,7.463249,33.577296,-26.559125,-36.635158,0.109240,0.324955,0.000000,-0.800502,0.065592,0.000000
3.040000,1.813162,-0.723436,-1.585511,1.762884,0.969648,-0.691048,-2.662756,0.844099,1.916810,2.263193,-7.912656,7.085899,33.795817,-26.127291,-38.932602,0.100985,0.325360,0.000000,-0.850667,0.014398,0.000000
3.050000,1.830659,-0.713699,-1.592324,1.736375,0.977689,-0.671533,-2.638433,0.763676,1.985686,2.599825,-8.168484,6.685990,32.950637,-24.221900,-40.912674,0.092224,0.325235,0.000000,-0.901281,-0.039451,0.000000
3.060000,1.847891,-0.703885,-1.598939,1.710126,0.984913,-0.651348,-2.610815,0.680829,2.050484,2.921768,-8.397100,6.270976,31.974980,-22.180011,-42.699600,0.082969,0.324568,0.000000,-0.949265,-0.093657,0.000000
3.070000,1.864862,-0.694004,-1.605349,1.684169,0.991298,-0.630537,-2.579986,0.595747,2.110997,3.244086,-8.618153,5.826651,31.934221,-21.338699,-45.527728,0.073239,0.323346,0.000000,-0.996776,-0.150413,0.000000
3.080000,1.881575,-0.684062,-1.611548,1.658537,0.996821,-0.609143,-2.545996,0.508571,2.166993,3.548837,-8.809376,5.373798,28.983407,-16.869955,-44.997892,0.063046,0.321554,0.000000,-1.040640,-0.206716,0.000000
3.090000,1.898034,-0.674070,-1.617530,1.633259,1.001464,-0.587212,-2.509078,0.419670,2.218457,3.834323,-8.968947,4.914815,28.641444,-15.713398,-47.390806,0.052441,0.319207,0.000000,-1.080248,-0.262076,0.000000
3.100000,1.914242,-0.664036,-1.623291,1.608365,1.005210,-0.564790,-2.469310,0.329216,2.265198,4.116762,-9.117606,4.431801,27.290728,-13.326769,-48.566302,0.041446,0.316298,0.000000,-1.117900,-0.318929,0.000000
3.110000,1.930203,-0.653969,-1.628825,1.583882,1.008044,-0.541925,-2.426814,0.237423,2.307092,4.379665,-9.236625,3.945807,25.830183,-10.875297,-49.506294,0.030099,0.312829,0.000000,-1.150801,-0.374281,-0.000000
3.120000,1.945921,-0.643878,-1.634128,1.559837,1.009954,-0.518665,-2.381722,0.144533,2.344013,4.638204,-9.338690,3.433966,25.328324,-9.134235,-51.954942,0.018441,0.308804,0.000000,-1.180246,-0.430614,0.000000
3.130000,1.961401,-0.633773,-1.639197,1.536256,1.010931,-0.495061,-2.334128,0.050752,2.375790,4.874721,-9.410869,2.925729,21.947227,-5.283525,-49.633892,0.006513,0.304225,0.000000,-1.204152,-0.484390,0.000000
3.140000,1.976648,-0.623663,-1.644028,1.513162,1.010968,-0.471166,-2.284310,-0.043579,2.402557,5.087809,-9.452266,2.424187,21.203063,-3.391449,-51.527400,-0.005622,0.299127,0.000000,-1.222114,-0.535039,0.000000
3.150000,1.991666,-0.613557,-1.648619,1.490577,1.010059,-0.447027,-2.232385,-0.138239,2.424194,5.293995,-9.475249,1.903340,19.485159,-0.805128,-51.727428,-0.017914,0.293523,0.000000,-1.235422,-0.585313,0.000000
3.160000,2.006461,-0.603465,-1.652968,1.468521,1.008203,-0.422699,-2.178500,-0.232988,2.440668,5.480040,-9.470316,1.392348,17.749713,1.763695,-51.655061,-0.030310,0.287431,0.000000,-1.242633,-0.632210,-0.000000
3.170000,2.021038,-0.593396,-1.657073,1.447013,1.005400,-0.398231,-2.122840,-0.327562,2.451947,5.649129,-9.440264,0.859666,16.032766,4.272343,-53.666326,-0.042747,0.280879,0.000000,-1.243791,-0.677018,0.000000
3.180000,2.035403,-0.583360,-1.660932,1.426069,1.001653,-0.373678,-2.065579,-0.421707,2.457929,5.799969,-9.384346,0.344495,14.129650,6.908023,-49.298868,-0.055165,0.273891,0.000000,-1.238809,-0.717879,-0.000000
3.190000,2.049561,-0.573366,-1.664546,1.405706,0.996968,-0.349089,-2.006903,-0.515163,2.458917,5.932238,-9.302768,-0.149601,12.350413,9.373486,-50.682885,-0.067503,0.266513,0.000000,-1.227787,-0.754461,0.000000
3.200000,2.063519,-0.563424,-1.667914,1.385936,0.991353,-0.324516,-1.946993,-0.607681,2.454867,6.046664,-9.196778,-0.658393,10.503385,11.844504,-49.854590,-0.079700,0.258777,0.000000,-1.210595,-0.787902,0.000000
3.210000,2.077282,-0.553542,-1.671037,1.366770,0.984818,-0.300009,-1.886033,-0.699025,2.445831,6.142184,-9.068262,-1.146592,8.644141,14.219079,-48.802949,-0.091697,0.250720,0.000000,-1.187856,-0.816699,0.000000
3.220000,2.090857,-0.543730,-1.673915,1.348218,0.977377,-0.275616,-1.824208,-0.788938,2.431888,6.219949,-8.909203,-1.643502,6.866114,17.222004,-49.533556,-0.103433,0.242385,0.000000,-1.158338,-0.841840,0.000000
3.230000,2.104249,-0.533997,-1.676550,1.330288,0.969045,-0.251387,-1.761698,-0.877150,2.413052,6.278622,-8.731614,-2.115351,4.868822,18.271304,-44.776668,-0.114849,0.233810,0.000000,-1.124206,-0.861987,-0.000000
3.240000,2.117464,-0.524352,-1.678943,1.312985,0.959840,-0.227370,-1.698699,-0.963516,2.389683,6.318242,-8.536787,-2.559064,3.101560,21.042017,-44.966194,-0.125905,0.225048,0.000000,-1.086017,-0.877098,0.000000
3.250000,2.130510,-0.514803,-1.681098,1.296315,0.949782,-0.203609,-1.635391,-1.047787,2.361843,6.340354,-8.314169,-3.005444,1.281848,23.103813,-43.261900,-0.136549,0.216140,0.000000,-1.042229,-0.888291,0.000000
3.260000,2.143393,-0.505359,-1.683016,1.280278,0.938892,-0.180147,-1.571947,-1.129758,2.329672,6.345556,-8.077239,-3.425410,-0.479238,25.004310,-41.402055,-0.146740,0.207130,0.000000,-0.995386,-0.894860,0.000000
3.270000,2.156118,-0.496028,-1.684702,1.264876,0.927195,-0.157029,-1.508558,-1.209210,2.293343,6.328652,-7.807642,-3.839424,-2.659074,28.178455,-40.706240,-0.156437,0.198064,0.000000,-0.943117,-0.896808,0.000000
3.280000,2.168692,-0.486818,-1.686158,1.250106,0.914717,-0.134294,-1.445420,-1.285886,2.252983,6.297467,-7.529128,-4.224991,-3.562979,27.481957,-36.366726,-0.165598,0.188986,0.000000,-0.889289,-0.894669,0.000000
3.290000,2.181122,-0.477736,-1.687389,1.235966,0.901486,-0.111981,-1.382652,-1.359776,2.208950,6.252784,-7.243887,-4.580010,-5.603064,30.270061,-35.299254,-0.174221,0.179935,0.000000,-0.834609,-0.888708,-0.000000
3.300000,2.193414,-0.468791,-1.688399,1.222451,0.887532,-0.090127,-1.320437,-1.430657,2.161405,6.187611,-6.930306,-4.924874,-7.184468,31.701960,-32.980580,-0.182276,0.170953,0.000000,-0.776257,-0.878714,0.000000
3.310000,2.205573,-0.459988,-1.689193,1.209555,0.872884,-0.068764,-1.258935,-1.498373,2.110556,6.110660,-6.611338,-5.240605,-8.667759,32.950260,-30.572444,-0.189747,0.162076,0.000000,-0.717898,-0.865559,0.000000
3.320000,2.217607,-0.451335,-1.689776,1.197270,0.857575,-0.047926,-1.198311,-1.562773,2.056640,6.010125,-6.263645,-5.539944,-10.969330,35.710954,-28.876669,-0.196622,0.153340,0.000000,-0.656627,-0.848270,0.000000
3.330000,2.229521,-0.442839,-1.690154,1.185585,0.841640,-0.027641,-1.138757,-1.623651,1.999860,5.901136,-5.915520,-5.809385,-10.802197,33.864544,-24.990028,-0.202885,0.144785,0.000000,-0.596603,-0.828688,0.000000
3.340000,2.241321,-0.434504,-1.690331,1.174491,0.825113,-0.007937,-1.080308,-1.681097,1.940559,5.785049,-5.569523,-6.047836,-12.865702,36.174680,-23.105237,-0.208561,0.136426,0.000000,-0.538373,-0.807201,0.000000
3.350000,2.253013,-0.426338,-1.690315,1.163975,0.808030,0.011162,-1.023134,-1.734948,1.878958,5.648011,-5.199816,-6.267892,-14.066843,36.883269,-20.491522,-0.213645,0.128295,0.000000,-0.478661,-0.782559,0.000000
3.360000,2.264602,-0.418346,-1.690110,1.154023,0.790427,0.029635,-0.967365,-1.785109,1.815295,5.504138,-4.832016,-6.460328,-15.164709,37.422956,-17.897103,-0.218142,0.120415,0.000000,-0.420998,-0.756541,-0.000000
3.370000,2.276095,-0.410531,-1.689724,1.144622,0.772340,0.047462,-0.913125,-1.831510,1.749846,5.340663,-4.444736,-6.624929,-17.059754,39.264118,-15.117519,-0.222062,0.112808,0.000000,-0.362942,-0.727819,0.000000
3.380000,2.287496,-0.402900,-1.689163,1.135755,0.753810,0.064627,-0.860563,-1.874027,1.682879,5.172811,-4.062853,-6.764685,-16.482315,37.066936,-12.839334,-0.225410,0.105495,0.000000,-0.307498,-0.698462,-0.000000
3.390000,2.298812,-0.395456,-1.688434,1.127405,0.734872,0.081116,-0.809674,-1.912799,1.614633,5.002066,-3.688737,-6.879889,-18.113043,38.488050,-10.111368,-0.228222,0.098477,0.000000,-0.254935,-0.668786,-0.000000
3.400000,2.310046,-0.388204,-1.687543,1.119556,0.715566,0.096916,-0.760585,-1.947740,1.545374,4.814754,-3.299919,-6.967839,-18.875271,38.503103,-7.580404,-0.230509,0.091770,0.000000,-0.202719,-0.637304,0.000000
3.410000,2.321204,-0.381146,-1.686498,1.112187,0.695930,0.112020,-0.713380,-1.978825,1.475341,4.625410,-2.917428,-7.034917,-19.519067,38.394765,-5.167087,-0.232286,0.085384,0.000000,-0.153132,-0.605921,0.000000
3.420000,2.332291,-0.374286,-1.685305,1.105282,0.676003,0.126421,-0.668141,-2.006060,1.404810,4.419704,-2.528562,-7.065149,-21.084476,38.951259,-1.547139,-0.233576,0.079325,0.000000,-0.105090,-0.572935,0.000000
3.430000,2.343311,-0.367627,-1.683972,1.098818,0.655822,0.140116,-0.624979,-2.029425,1.334085,4.214994,-2.147341,-7.079887,-19.826971,37.261474,-1.433281,-0.234397,0.073603,0.000000,-0.059593,-0.540660,0.000000
3.440000,2.354269,-0.361171,-1.682505,1.092775,0.635427,0.153103,-0.583828,-2.049041,1.263253,4.012860,-1.775460,-7.080788,-21.114182,37.508066,1.902212,-0.234777,0.068204,0.000000,-0.016692,-0.509302,0.000000
3.450000,2.365168,-0.354919,-1.680912,1.087134,0.614854,0.165382,-0.544775,-2.064918,1.192594,3.797477,-1.401023,-7.047774,-21.422450,36.952134,4.024094,-0.234736,0.063134,0.000000,0.024512,-0.476969,0.000000
3.460000,2.376013,-0.348874,-1.679200,1.081873,0.594141,0.176956,-0.507871,-2.077096,1.122330,3.582949,-1.035786,-7.002332,-21.662329,36.298405,5.987072,-0.234295,0.058392,0.000000,0.063356,-0.445458,-0.000000
3.470000,2.386807,-0.343037,-1.677375,1.076969,0.573324,0.187830,-0.473138,-2.085639,1.052688,3.362722,-0.673350,-6.919734,-22.183447,35.961002,9.603198,-0.233476,0.053975,0.000000,0.100011,-0.413896,-0.000000
3.480000,2.397554,-0.337408,-1.675445,1.072403,0.552440,0.198013,-0.440612,-2.090599,0.983953,3.143456,-0.321326,-6.829769,-21.651460,34.422948,8.342868,-0.232302,0.049880,0.000000,0.134523,-0.383228,0.000000
3.490000,2.408256,-0.331988,-1.673417,1.068150,0.531524,0.207512,-0.410261,-2.092106,0.916102,2.926162,0.019142,-6.734816,-21.983790,33.872556,11.548530,-0.230793,0.046096,0.000000,0.166932,-0.353536,-0.000000
3.500000,2.418918,-0.326777,-1.671297,1.064190,0.510609,0.216339,-0.382103,-2.090231,0.849382,2.705616,0.354049,-6.606997,-21.925389,32.882722,13.076879,-0.228970,0.042617,0.000000,0.197294,-0.324097,-0.000000
3.510000,2.429541,-0.321776,-1.669093,1.060501,0.489730,0.224504,-0.356132,-2.085069,0.783972,2.489156,0.676466,-6.473042,-21.765126,31.813245,14.457557,-0.226853,0.039436,0.000000,0.225639,-0.295820,-0.000000
3.520000,2.440128,-0.316982,-1.666809,1.057060,0.468918,0.232023,-0.332347,-2.076721,0.720027,2.266760,0.992164,-6.311230,-22.306199,31.099907,17.143243,-0.224463,0.036546,0.000000,0.252159,-0.267504,0.000000
3.530000,2.450683,-0.312397,-1.664454,1.053846,0.448206,0.238911,-0.310770,-2.065275,0.657753,2.051575,1.293733,-6.146149,-20.708783,29.198598,15.828911,-0.221817,0.033943,0.000000,0.276762,-0.240635,0.000000
3.540000,2.461206,-0.308018,-1.662033,1.050838,0.427623,0.245183,-0.291285,-2.050897,0.597102,1.844731,1.580364,-5.980077,-21.052400,28.339363,18.112878,-0.218934,0.031607,0.000000,0.299499,-0.215271,0.000000
3.550000,2.471700,-0.303844,-1.659553,1.048014,0.407197,0.250859,-0.273895,-2.033692,0.538242,1.634101,1.858530,-5.790666,-20.665314,27.069710,19.002871,-0.215832,0.029532,0.000000,0.320622,-0.190012,0.000000
3.560000,2.482167,-0.299873,-1.657018,1.045353,0.386958,0.255955,-0.258580,-2.013770,0.481282,1.429609,2.123728,-5.600563,-20.254723,25.800161,19.734276,-0.212526,0.027712,0.000000,0.340257,-0.165940,0.000000
3.570000,2.492608,-0.296104,-1.654435,1.042835,0.366930,0.260491,-0.245290,-1.991273,0.426313,1.228877,2.372933,-5.389609,-19.857269,24.197190,21.721139,-0.209035,0.026134,0.000000,0.357726,-0.142698,0.000000
3.580000,2.503024,-0.292534,-1.651810,1.040441,0.347140,0.264488,-0.233985,-1.966348,0.373475,1.033173,2.610968,-5.181554,-19.277020,23.412236,19.847674,-0.205375,0.024791,0.000000,0.374116,-0.120441,-0.000000
3.590000,2.513417,-0.289160,-1.649147,1.038149,0.327611,0.267967,-0.224609,-1.939090,0.322660,0.842874,2.837902,-4.978578,-18.806341,21.811598,21.450423,-0.201555,0.023670,0.000000,0.389513,-0.099160,-0.000000
3.600000,2.523787,-0.285981,-1.646452,1.035942,0.308366,0.270948,-0.217112,-1.909647,0.273971,0.657379,3.048553,-4.759052,-18.260741,20.479121,21.716144,-0.197592,0.022764,0.000000,0.403000,-0.078696,-0.000000
3.610000,2.534136,-0.282992,-1.643730,1.033801,0.289425,0.273454,-0.211449,-1.878148,0.227460,0.475887,3.249320,-4.543166,-17.728822,19.190311,21.871189,-0.193498,0.022063,0.000000,0.415686,-0.058973,-0.000000
3.620000,2.544463,-0.280191,-1.640985,1.031707,0.270809,0.275505,-0.207551,-1.844743,0.183146,0.305676,3.427918,-4.318038,-16.606963,17.000629,22.722232,-0.189287,0.021556,0.000000,0.426117,-0.040664,0.000000
3.630000,2.554770,-0.277575,-1.638221,1.029644,0.252536,0.277124,-0.205331,-1.809610,0.141080,0.137571,3.599234,-4.097769,-17.021193,17.279083,21.302518,-0.184976,0.021233,0.000000,0.436104,-0.022822,0.000000
3.640000,2.565056,-0.275139,-1.635444,1.027595,0.234623,0.278334,-0.204796,-1.772776,0.101166,-0.028708,3.764034,-3.883900,-15.933565,15.208855,21.875465,-0.180565,0.021091,0.000000,0.445757,-0.005390,-0.000000
3.650000,2.575322,-0.272881,-1.632656,1.025543,0.217086,0.279155,-0.205862,-1.734409,0.063429,-0.183614,3.907498,-3.664113,-15.344875,13.960254,21.649797,-0.176069,0.021118,0.000000,0.453394,0.010725,0.000000
3.660000,2.585567,-0.270796,-1.629862,1.023473,0.199939,0.279609,-0.208462,-1.694648,0.027861,-0.335661,4.042846,-3.450022,-14.763202,12.742740,21.347604,-0.171498,0.021307,0.000000,0.460563,0.026393,0.000000
3.670000,2.595791,-0.268881,-1.627065,1.021369,0.183197,0.279719,-0.212531,-1.653623,-0.005567,-0.476079,4.159025,-3.235645,-13.613033,10.856033,21.329204,-0.166864,0.021649,0.000000,0.466069,0.040771,0.000000
3.680000,2.605994,-0.267131,-1.624269,1.019217,0.166870,0.279505,-0.217978,-1.611490,-0.036874,-0.614066,4.267588,-3.027585,-13.993196,10.872196,20.265846,-0.162178,0.022133,0.000000,0.471183,0.054799,0.000000
3.690000,2.616175,-0.265542,-1.621476,1.017005,0.150971,0.278988,-0.224808,-1.568291,-0.066145,-0.750010,4.369295,-2.826763,-12.899590,9.111397,20.076985,-0.157441,0.022759,0.000000,0.475988,0.068532,-0.000000
3.700000,2.626334,-0.264110,-1.618690,1.014717,0.135508,0.278189,-0.232935,-1.524171,-0.093412,-0.874581,4.452990,-2.627837,-12.308708,7.993945,19.512165,-0.152664,0.023516,0.000000,0.479295,0.081071,0.000000
3.710000,2.636470,-0.262830,-1.615913,1.012342,0.120490,0.277127,-0.242291,-1.479255,-0.118723,-0.995586,4.528582,-2.435247,-11.719342,6.908205,18.918583,-0.147856,0.024398,0.000000,0.482152,0.093204,0.000000
3.720000,2.646581,-0.261699,-1.613148,1.009867,0.105925,0.275821,-0.252813,-1.433653,-0.142144,-1.107383,4.589224,-2.250341,-10.808552,5.440238,18.132937,-0.143025,0.025397,0.000000,0.483894,0.104382,0.000000
3.730000,2.656667,-0.260710,-1.610397,1.007282,0.091819,0.274290,-0.264427,-1.387495,-0.163748,-1.215295,4.642001,-2.071095,-10.779832,5.127235,17.713133,-0.138180,0.026506,0.000000,0.485182,0.115154,-0.000000
3.740000,2.666726,-0.259861,-1.607663,1.004575,0.078177,0.272552,-0.277109,-1.340835,-0.183585,-1.319592,4.687537,-1.897743,-9.910562,3.769005,16.874663,-0.133322,0.027722,0.000000,0.486071,0.125557,0.000000
3.750000,2.676758,-0.259145,-1.604947,1.001736,0.065003,0.270624,-0.290786,-1.293794,-0.201733,-1.414962,4.719334,-1.733026,-9.333325,2.812060,16.142740,-0.128462,0.029036,0.000000,0.485944,0.135066,-0.000000
3.760000,2.686760,-0.258559,-1.602251,0.998756,0.052302,0.268522,-0.305394,-1.246472,-0.218261,-1.505714,4.743507,-1.573616,-8.756799,1.890938,15.421182,-0.123605,0.030444,0.000000,0.485348,0.144126,0.000000
3.770000,2.696732,-0.258098,-1.599577,0.995626,0.040074,0.266264,-0.320876,-1.198965,-0.233255,-1.589554,4.756005,-1.427551,-8.071215,0.747600,14.095595,-0.118758,0.031939,0.000000,0.483966,0.152491,0.000000
3.780000,2.706672,-0.257756,-1.596926,0.992336,0.028323,0.263862,-0.337169,-1.151375,-0.246823,-1.668401,4.761374,-1.285317,-7.700965,0.336370,14.359348,-0.113927,0.033514,0.000000,0.482112,0.160385,0.000000
3.790000,2.716578,-0.257530,-1.594300,0.988880,0.017047,0.261332,-0.354228,-1.103758,-0.258971,-1.742393,4.760152,-1.146570,-7.038603,-0.709680,13.080862,-0.109117,0.035166,0.000000,0.479829,0.167827,0.000000
3.800000,2.726449,-0.257414,-1.591700,0.985249,0.006247,0.258687,-0.371993,-1.056209,-0.269804,-1.809710,4.748440,-1.021081,-6.484433,-1.492639,12.324498,-0.104333,0.036888,0.000000,0.476822,0.174606,-0.000000
3.810000,2.736283,-0.257403,-1.589127,0.981438,-0.004078,0.255940,-0.390407,-1.008810,-0.279405,-1.872081,4.730100,-0.900293,-5.938167,-2.241297,11.579033,-0.099582,0.038675,0.000000,0.473361,0.180923,0.000000
3.820000,2.746077,-0.257494,-1.586581,0.977439,-0.013930,0.253103,-0.409412,-0.961637,-0.287855,-1.928010,4.703070,-0.791825,-5.299917,-3.089355,10.362915,-0.094868,0.040522,0.000000,0.469303,0.186602,0.000000
3.830000,2.755831,-0.257680,-1.584065,0.973248,-0.023311,0.250186,-0.428951,-0.914769,-0.295255,-1.979172,4.669888,-0.687813,-4.935101,-3.539049,10.449072,-0.090197,0.042423,0.000000,0.464802,0.191836,0.000000
3.840000,2.765542,-0.257958,-1.581578,0.968858,-0.032226,0.247201,-0.448981,-0.868258,-0.301623,-2.025701,4.630995,-0.587805,-4.320287,-4.304199,9.305065,-0.085573,0.044373,0.000000,0.459891,0.196641,0.000000
3.850000,2.775207,-0.258323,-1.579121,0.964267,-0.040678,0.244157,-0.469444,-0.822175,-0.307054,-2.066038,4.584514,-0.499543,-3.799397,-4.916374,8.599111,-0.081001,0.046368,0.000000,0.454433,0.200828,0.000000
3.860000,2.784826,-0.258770,-1.576695,0.959468,-0.048671,0.241063,-0.490285,-0.776585,-0.311626,-2.101314,4.532570,-0.415782,-3.279209,-5.496334,7.921025,-0.076486,0.048402,0.000000,0.448561,0.204535,0.000000
3.870000,2.794396,-0.259295,-1.574300,0.954460,-0.056212,0.237927,-0.511455,-0.731545,-0.315411,-2.131850,4.474427,-0.343222,-2.807471,-6.098268,6.822764,-0.072032,0.050469,0.000000,0.442241,0.207761,0.000000
3.880000,2.803915,-0.259893,-1.571937,0.949238,-0.063304,0.234757,-0.532904,-0.687113,-0.318501,-2.157030,4.411313,-0.274462,-2.229032,-6.518275,6.940120,-0.067643,0.052566,0.000000,0.435522,0.210474,0.000000
3.890000,2.813380,-0.260560,-1.569605,0.943801,-0.069956,0.231559,-0.554577,-0.643334,-0.320910,-2.176894,4.343591,-0.208960,-1.766788,-7.049559,5.933830,-0.063322,0.054687,0.000000,0.428430,0.212682,0.000000
3.900000,2.822790,-0.261291,-1.567305,0.938146,-0.076173,0.228341,-0.576427,-0.600259,-0.322719,-2.192205,4.270672,-0.153745,-1.274976,-7.500293,5.342976,-0.059075,0.056826,0.000000,0.420941,0.214416,-0.000000
3.910000,2.832142,-0.262082,-1.565038,0.932272,-0.081964,0.225107,-0.598403,-0.557934,-0.323993,-2.202198,4.193640,-0.102015,-0.783290,-7.919528,4.789685,-0.054905,0.058981,0.000000,0.413106,0.215635,0.000000
3.920000,2.841435,-0.262929,-1.562803,0.926178,-0.087335,0.221862,-0.620459,-0.516401,-0.324794,-2.208378,4.112213,-0.059830,-0.401662,-8.342770,3.860659,-0.050814,0.061144,0.000000,0.404921,0.216447,0.000000
3.930000,2.850665,-0.263827,-1.560601,0.919863,-0.092294,0.218612,-0.642552,-0.475701,-0.325197,-2.209158,4.027263,-0.020325,0.245930,-8.641761,4.051679,-0.046807,0.063313,0.000000,0.396426,0.216732,0.000000
3.940000,2.859831,-0.264773,-1.558431,0.913327,-0.096852,0.215360,-0.664624,-0.435867,-0.325206,-2.204547,3.939113,0.017079,0.622096,-9.001519,3.223165,-0.042887,0.065482,0.000000,0.387647,0.216493,0.000000
3.950000,2.868931,-0.265763,-1.556294,0.906570,-0.101015,0.212109,-0.686632,-0.396931,-0.324888,-2.196301,3.847484,0.046021,1.078713,-9.301410,2.781029,-0.039055,0.067646,0.000000,0.378576,0.215858,0.000000
3.960000,2.877962,-0.266792,-1.554189,0.899594,-0.104793,0.208863,-0.708534,-0.358926,-0.324291,-2.183284,3.753168,0.072707,1.522832,-9.572299,2.376090,-0.035316,0.069801,0.000000,0.369258,0.214753,0.000000
3.970000,2.886922,-0.267857,-1.552116,0.892400,-0.108197,0.205624,-0.730283,-0.321878,-0.323462,-2.165878,3.655992,0.091940,1.956835,-9.843598,1.654995,-0.031671,0.071942,0.000000,0.359689,0.213174,0.000000
3.980000,2.895809,-0.268955,-1.550076,0.884989,-0.111234,0.202394,-0.751837,-0.285813,-0.322456,-2.144177,3.556695,0.109675,2.381617,-10.010831,1.902451,-0.028123,0.074065,0.000000,0.349917,0.211171,0.000000
3.990000,2.904621,-0.270081,-1.548069,0.877364,-0.113916,0.199176,-0.773153,-0.250750,-0.321270,-2.118285,3.455567,0.126455,2.794935,-10.225183,1.277119,-0.024673,0.076166,0.000000,0.339969,0.208757,-0.000000
4.000000,2.913356,-0.271232,-1.546093,0.869527,-0.116253,0.195969,-0.794189,-0.216708,-0.319951,-2.088320,3.352404,0.136856,3.197049,-10.388404,0.988202,-0.021324,0.078240,0.000000,0.329834,0.205900,0.000000
4.010000,2.922011,-0.272405,-1.544149,0.861482,-0.118254,0.192777,-0.814906,-0.183706,-0.318535,-2.054432,3.247885,0.145937,3.586984,-10.525609,0.727537,-0.018077,0.080284,0.000000,0.319564,0.202650,0.000000
4.020000,2.930585,-0.273596,-1.542237,0.853230,-0.119930,0.189599,-0.835264,-0.151756,-0.317049,-2.016544,3.141841,0.150532,3.980544,-10.665025,0.297930,-0.014933,0.082292,0.000000,0.309147,0.198975,0.000000
4.030000,2.939075,-0.274802,-1.540357,0.844778,-0.121292,0.186436,-0.855225,-0.120872,-0.315527,-1.975031,3.034957,0.154126,4.319714,-10.707457,0.428395,-0.011894,0.084262,0.000000,0.298642,0.194936,0.000000
4.040000,2.947480,-0.276021,-1.538508,0.836127,-0.122351,0.183289,-0.874753,-0.091059,-0.313968,-1.930028,2.927488,0.157123,4.686783,-10.796706,0.072438,-0.008961,0.086190,0.000000,0.288076,0.190550,-0.000000
4.050000,2.955797,-0.277248,-1.536691,0.827284,-0.123117,0.180157,-0.893813,-0.062325,-0.312399,-1.881414,2.819217,0.156530,5.026521,-10.839534,-0.084206,-0.006133,0.088072,0.000000,0.277429,0.185780,0.000000
4.060000,2.964025,-0.278482,-1.534905,0.818253,-0.123601,0.177041,-0.912370,-0.034675,-0.310839,-1.829468,2.710788,0.155242,5.354245,-10.859536,-0.218025,-0.003412,0.089905,0.000000,0.266761,0.180676,-0.000000
4.070000,2.972161,-0.279720,-1.533150,0.809039,-0.123814,0.173940,-0.930392,-0.008111,-0.309302,-1.774430,2.601943,0.151799,5.656835,-10.889668,-0.419843,-0.000798,0.091685,0.000000,0.256048,0.175249,0.000000
4.080000,2.980205,-0.280958,-1.531426,0.799647,-0.123767,0.170854,-0.947848,0.017365,-0.307804,-1.716256,2.493402,0.147908,5.975717,-10.814775,-0.353365,0.001709,0.093409,0.000000,0.245360,0.169509,0.000000
4.090000,2.988154,-0.282194,-1.529733,0.790084,-0.123471,0.167784,-0.964707,0.041759,-0.306344,-1.655083,2.385385,0.143847,6.250629,-10.801765,-0.503055,0.004109,0.095074,0.000000,0.234721,0.163473,-0.000000
4.100000,2.996006,-0.283426,-1.528071,0.780355,-0.122936,0.164727,-0.980941,0.065073,-0.304933,-1.591243,2.277568,0.138316,6.520791,-10.742347,-0.552499,0.006403,0.096677,0.000000,0.224098,0.157161,-0.000000
4.110000,3.003760,-0.284652,-1.526439,0.770467,-0.122173,0.161685,-0.996525,0.087313,-0.303577,-1.524981,2.170563,0.132722,6.769520,-10.664932,-0.584953,0.008591,0.098216,0.000000,0.213554,0.150611,0.000000
4.120000,3.011415,-0.285869,-1.524837,0.760427,-0.121193,0.158656,-1.011430,0.108487,-0.302281,-1.455555,2.064243,0.126457,7.075440,-10.587599,-0.642926,0.010675,0.099688,0.000000,0.203076,0.143744,0.000000
4.130000,3.018968,-0.287075,-1.523265,0.750241,-0.120007,0.155639,-1.025630,0.128602,-0.301047,-1.384313,1.959052,0.120384,7.169018,-10.447630,-0.568570,0.012653,0.101091,0.000000,0.192709,0.136701,0.000000
4.140000,3.026419,-0.288269,-1.521724,0.739916,-0.118624,0.152634,-1.039111,0.147672,-0.299872,-1.311470,1.855162,0.114683,7.434625,-10.336819,-0.591799,0.014529,0.102422,0.000000,0.182471,0.129506,0.000000
4.150000,3.033766,-0.289447,-1.520213,0.729461,-0.117057,0.149641,-1.051850,0.165709,-0.298755,-1.235990,1.752440,0.108784,7.620151,-10.196253,-0.563580,0.016303,0.103680,0.000000,0.172350,0.122051,-0.000000
4.160000,3.041008,-0.290609,-1.518731,0.718882,-0.115314,0.146659,-1.063827,0.182726,-0.297695,-1.159122,1.651255,0.103233,7.787082,-10.042141,-0.526882,0.017977,0.104863,0.000000,0.162383,0.114465,-0.000000
4.170000,3.048143,-0.291753,-1.517280,0.708187,-0.113405,0.143687,-1.075024,0.198739,-0.296687,-1.079969,1.551606,0.098446,8.005465,-9.882012,-0.446120,0.019551,0.105969,0.000000,0.152572,0.106665,-0.000000
4.180000,3.055171,-0.292877,-1.515857,0.697384,-0.111342,0.140725,-1.085423,0.213764,-0.295725,-0.999812,1.453730,0.093979,8.021920,-9.691298,-0.446325,0.021029,0.106997,0.000000,0.142939,0.098772,0.000000
4.190000,3.062091,-0.293979,-1.514465,0.686481,-0.109133,0.137773,-1.095018,0.227820,-0.294807,-0.918872,1.357746,0.089897,8.198961,-9.507279,-0.351337,0.022411,0.107945,0.000000,0.133496,0.090809,0.000000
4.200000,3.068901,-0.295059,-1.513102,0.675486,-0.106789,0.134829,-1.103794,0.240925,-0.293924,-0.836176,1.263649,0.086831,8.299970,-9.306899,-0.278463,0.023699,0.108813,0.000000,0.124245,0.082686,-0.000000
4.210000,3.075600,-0.296114,-1.511768,0.664408,-0.104318,0.131894,-1.111740,0.253100,-0.293069,-0.752933,1.171570,0.084214,8.381789,-9.098311,-0.203069,0.024896,0.109599,0.000000,0.115198,0.074517,0.000000
4.220000,3.082189,-0.297145,-1.510464,0.653254,-0.101730,0.128968,-1.118847,0.264365,-0.292233,-0.668265,1.081795,0.083164,8.514124,-8.864160,-0.045976,0.026004,0.110303,0.000000,0.106385,0.066227,0.000000
4.230000,3.088665,-0.298149,-1.509189,0.642034,-0.099034,0.126049,-1.125105,0.274743,-0.291405,-0.583437,0.994128,0.082473,8.447689,-8.668226,-0.092811,0.027025,0.110924,0.000000,0.097785,0.057927,-0.000000
4.240000,3.095029,-0.299125,-1.507943,0.630755,-0.096238,0.123139,-1.130516,0.284254,-0.290583,-0.498662,0.908631,0.082122,8.539905,-8.421101,0.063174,0.027960,0.111462,0.000000,0.089402,0.049638,0.000000
4.250000,3.101280,-0.300073,-1.506726,0.619426,-0.093351,0.120238,-1.135075,0.292924,-0.289756,-0.412987,0.825651,0.083408,8.556698,-8.182877,0.153737,0.028814,0.111917,0.000000,0.081275,0.041280,0.000000
4.260000,3.107417,-0.300992,-1.505538,0.608057,-0.090382,0.117344,-1.138777,0.300775,-0.288914,-0.327547,0.744946,0.085154,8.556532,-7.940545,0.242715,0.029587,0.112288,0.000000,0.073376,0.032951,0.000000
4.270000,3.113441,-0.301881,-1.504379,0.596654,-0.087338,0.114460,-1.141624,0.307832,-0.288046,-0.241653,0.667010,0.088699,8.592792,-7.662194,0.420618,0.030282,0.112576,0.000000,0.065757,0.024598,-0.000000
4.280000,3.119350,-0.302738,-1.503249,0.585227,-0.084228,0.111584,-1.143612,0.314122,-0.287139,-0.156309,0.591373,0.092603,8.472483,-7.465098,0.358492,0.030903,0.112780,0.000000,0.058367,0.016302,0.000000
4.290000,3.125145,-0.303565,-1.502148,0.573784,-0.081058,0.108717,-1.144752,0.319667,-0.286193,-0.071706,0.518048,0.096794,8.472950,-7.183013,0.525778,0.031450,0.112902,0.000000,0.051207,0.008081,0.000000
4.300000,3.130826,-0.304359,-1.501075,0.562335,-0.077837,0.105860,-1.145046,0.324493,-0.285196,0.012864,0.447582,0.102724,8.412108,-6.926297,0.613359,0.031928,0.112942,0.000000,0.044334,-0.000119,0.000000
4.310000,3.136392,-0.305122,-1.500030,0.550886,-0.074571,0.103013,-1.144498,0.328627,-0.284138,0.096532,0.379501,0.109039,8.336912,-6.669050,0.696317,0.032338,0.112900,0.000000,0.037697,-0.008228,-0.000000
4.320000,3.141844,-0.305851,-1.499014,0.539447,-0.071267,0.100177,-1.143117,0.332094,-0.283009,0.179719,0.314395,0.117074,8.280940,-6.372053,0.864631,0.032683,0.112778,0.000000,0.031358,-0.016275,0.000000
4.330000,3.147181,-0.306547,-1.498027,0.528027,-0.067931,0.097353,-1.140908,0.334922,-0.281796,0.261744,0.251641,0.125362,8.121370,-6.179332,0.790831,0.032966,0.112575,0.000000,0.025250,-0.024209,-0.000000
4.340000,3.152404,-0.307209,-1.497067,0.516632,-0.064570,0.094542,-1.137886,0.337134,-0.280502,0.342451,0.191213,0.133804,8.035266,-5.886048,0.943052,0.033188,0.112294,0.000000,0.019369,-0.032018,0.000000
4.350000,3.157514,-0.307838,-1.496136,0.505272,-0.061190,0.091744,-1.134062,0.338757,-0.279114,0.422256,0.133746,0.143814,7.906621,-5.627732,1.012738,0.033354,0.111935,0.000000,0.013783,-0.039726,0.000000
4.360000,3.162510,-0.308433,-1.495232,0.493953,-0.057797,0.088960,-1.129446,0.339816,-0.277625,0.500579,0.078610,0.154039,7.765862,-5.372434,1.076126,0.033465,0.111499,0.000000,0.008423,-0.047294,0.000000
4.370000,3.167393,-0.308994,-1.494357,0.482685,-0.054396,0.086191,-1.124054,0.340340,-0.276028,0.577624,0.026543,0.165733,7.631695,-5.067840,1.218435,0.033523,0.110989,0.000000,0.003367,-0.054728,0.000000
4.380000,3.172164,-0.309521,-1.493509,0.471475,-0.050992,0.083440,-1.117900,0.340354,-0.274311,0.652974,-0.023311,0.177480,7.435993,-4.904131,1.128820,0.033533,0.110405,0.000000,-0.001475,-0.062003,-0.000000
4.390000,3.176823,-0.310014,-1.492688,0.460330,-0.047590,0.080706,-1.111001,0.339880,-0.272479,0.726501,-0.071013,0.189170,7.277310,-4.609985,1.252151,0.033495,0.109748,0.000000,-0.006110,-0.069110,0.000000
4.400000,3.181371,-0.310473,-1.491894,0.449257,-0.044196,0.077990,-1.103375,0.338944,-0.270522,0.798407,-0.115749,0.202130,7.092163,-4.364397,1.295617,0.033412,0.109022,0.000000,-0.010454,-0.076054,-0.000000
4.410000,3.185808,-0.310898,-1.491128,0.438265,-0.040813,0.075296,-1.095039,0.337572,-0.268436,0.868355,-0.158320,0.215138,6.897242,-4.123685,1.333324,0.033286,0.108227,0.000000,-0.014590,-0.082816,0.000000
4.420000,3.190136,-0.311289,-1.490388,0.427359,-0.037446,0.072622,-1.086014,0.335788,-0.266216,0.936333,-0.197988,0.229039,6.695384,-3.836681,1.418457,0.033121,0.107366,0.000000,-0.018443,-0.089387,-0.000000
4.430000,3.194356,-0.311647,-1.489675,0.416547,-0.034099,0.069972,-1.076320,0.333619,-0.263856,1.002205,-0.235616,0.242910,6.477434,-3.690417,1.353833,0.032918,0.106439,0.000000,-0.022101,-0.095764,-0.000000
4.440000,3.198468,-0.311971,-1.488989,0.405835,-0.030775,0.067346,-1.065977,0.331082,-0.261359,1.065880,-0.271285,0.256653,6.257704,-3.417753,1.421661,0.032679,0.105450,0.000000,-0.025573,-0.101939,-0.000000
4.450000,3.202473,-0.312262,-1.488328,0.395229,-0.027478,0.064745,-1.055010,0.328203,-0.258720,1.127316,-0.304211,0.271092,6.027260,-3.194644,1.436894,0.032407,0.104400,0.000000,-0.028779,-0.107899,-0.000000
4.460000,3.206373,-0.312521,-1.487694,0.384736,-0.024212,0.062172,-1.043439,0.325004,-0.255938,1.186448,-0.335194,0.285384,5.790230,-2.977887,1.445118,0.032104,0.103291,0.000000,-0.031800,-0.113648,0.000000
4.470000,3.210168,-0.312747,-1.487085,0.374362,-0.020979,0.059627,-1.031289,0.321508,-0.253010,1.243027,-0.363556,0.300201,5.531702,-2.719780,1.493538,0.031772,0.102127,0.000000,-0.034568,-0.119155,-0.000000
4.480000,3.213860,-0.312941,-1.486501,0.364112,-0.017782,0.057112,-1.018586,0.317739,-0.249935,1.297215,-0.390119,0.314734,5.305148,-2.594388,1.411284,0.031414,0.100908,0.000000,-0.037166,-0.124443,-0.000000
4.490000,3.217451,-0.313103,-1.485943,0.353992,-0.014625,0.054629,-1.005353,0.313711,-0.246717,1.348959,-0.414972,0.328891,5.035188,-2.352809,1.443210,0.031030,0.099637,0.000000,-0.039603,-0.129509,-0.000000
4.500000,3.220941,-0.313233,-1.485409,0.344007,-0.011509,0.052178,-0.991616,0.309448,-0.243355,1.397956,-0.437404,0.343377,4.771415,-2.158872,1.428861,0.030622,0.098317,0.000000,-0.041807,-0.134314,0.000000
4.510000,3.224331,-0.313333,-1.484899,0.334162,-0.008437,0.049762,-0.977402,0.304969,-0.239851,1.444390,-0.458174,0.357504,4.503169,-1.972212,1.408919,0.030194,0.096951,0.000000,-0.043853,-0.138885,-0.000000
4.520000,3.227624,-0.313402,-1.484413,0.324461,-0.005410,0.047381,-0.962738,0.300293,-0.236205,1.487899,-0.476648,0.371660,4.208751,-1.746972,1.408494,0.029746,0.095539,0.000000,-0.045680,-0.143181,-0.000000
4.530000,3.230821,-0.313441,-1.483951,0.314908,-0.002432,0.045038,-0.947653,0.295440,-0.232419,1.528778,-0.493623,0.385384,3.966566,-1.649911,1.335108,0.029281,0.094086,0.000000,-0.047365,-0.147236,0.000000
4.540000,3.233923,-0.313451,-1.483512,0.305509,0.000498,0.042734,-0.932172,0.290425,-0.228499,1.566995,-0.509197,0.398607,3.665159,-1.442300,1.321524,0.028799,0.092594,0.000000,-0.048918,-0.151046,0.000000
4.550000,3.236932,-0.313431,-1.483096,0.296266,0.003376,0.040469,-0.916324,0.285264,-0.224447,1.602163,-0.522690,0.411689,3.378485,-1.280998,1.280929,0.028303,0.091065,0.000000,-0.050272,-0.154568,-0.000000
4.560000,3.239849,-0.313383,-1.482703,0.287183,0.006203,0.038245,-0.900138,0.279975,-0.220267,1.634523,-0.534828,0.424241,3.087916,-1.127034,1.235484,0.027794,0.089502,0.000000,-0.051498,-0.157831,-0.000000
4.570000,3.242676,-0.313308,-1.482331,0.278264,0.008976,0.036064,-0.883643,0.274574,-0.215963,1.663862,-0.545063,0.436445,2.784324,-0.940994,1.198002,0.027274,0.087908,0.000000,-0.052542,-0.160809,-0.000000
4.580000,3.245415,-0.313204,-1.481981,0.269512,0.011694,0.033926,-0.866870,0.269078,-0.211540,1.690305,-0.554090,0.448048,2.503856,-0.866139,1.121624,0.026744,0.086286,0.000000,-0.053471,-0.163517,0.000000
4.590000,3.248067,-0.313074,-1.481653,0.260928,0.014357,0.031833,-0.849847,0.263496,-0.207005,1.713828,-0.562002,0.458996,2.195326,-0.697107,1.073781,0.026205,0.084638,0.000000,-0.054296,-0.165952,0.000000
4.600000,3.250634,-0.312917,-1.481345,0.252515,0.016964,0.029786,-0.832604,0.257844,-0.202362,1.734256,-0.568226,0.469457,1.893820,-0.568796,1.010814,0.025658,0.082967,0.000000,-0.054959,-0.168094,0.000000
4.610000,3.253118,-0.312735,-1.481057,0.244276,0.019514,0.027786,-0.815171,0.252135,-0.197618,1.751733,-0.573389,0.479252,1.590715,-0.447405,0.944442,0.025106,0.081276,0.000000,-0.055521,-0.169958,-0.000000
4.620000,3.255520,-0.312527,-1.480789,0.236212,0.022006,0.025834,-0.797580,0.246381,-0.192779,1.765968,-0.577033,0.488305,1.266250,-0.299368,0.868550,0.024548,0.079568,0.000000,-0.055937,-0.171513,-0.000000
4.630000,3.257842,-0.312295,-1.480540,0.228325,0.024441,0.023931,-0.779862,0.240597,-0.187854,1.777268,-0.579755,0.496672,0.993802,-0.246534,0.804396,0.023987,0.077845,0.000000,-0.056265,-0.172789,0.000000
4.640000,3.260087,-0.312038,-1.480310,0.220615,0.026818,0.022078,-0.762045,0.234789,-0.182848,1.785634,-0.581639,0.504322,0.669072,-0.114026,0.721929,0.023423,0.076112,0.000000,-0.056513,-0.173784,0.000000
4.650000,3.262255,-0.311759,-1.480098,0.213084,0.029137,0.020274,-0.744160,0.228969,-0.177770,1.790730,-0.582200,0.511124,0.360612,-0.016412,0.641071,0.022858,0.074370,0.000000,-0.056633,-0.174465,-0.000000
4.660000,3.264349,-0.311456,-1.479904,0.205732,0.031397,0.018522,-0.726240,0.223147,-0.172628,1.792858,-0.581992,0.517110,0.052517,0.074687,0.556716,0.022291,0.072622,0.000000,-0.056680,-0.174860,-0.000000
4.670000,3.266371,-0.311131,-1.479728,0.198560,0.033600,0.016822,-0.708314,0.217333,-0.167431,1.791664,-0.580561,0.522258,-0.279288,0.193447,0.471386,0.021724,0.070873,0.000000,-0.056607,-0.174933,0.000000
4.680000,3.268321,-0.310784,-1.479568,0.191566,0.035744,0.015174,-0.690416,0.211538,-0.162186,1.787527,-0.578501,0.526505,-0.547637,0.217259,0.377459,0.021159,0.069124,0.000000,-0.056474,-0.174719,-0.000000
4.690000,3.270202,-0.310416,-1.479424,0.184751,0.037831,0.013578,-0.672573,0.205765,-0.156904,1.780466,-0.575886,0.529820,-0.876726,0.322355,0.286136,0.020595,0.067379,0.000000,-0.056288,-0.174220,-0.000000
4.700000,3.272017,-0.310028,-1.479296,0.178114,0.039860,0.012036,-0.654818,0.200024,-0.151593,1.770090,-0.572218,0.532214,-1.185282,0.393281,0.190704,0.020034,0.065640,0.000000,-0.055997,-0.173395,-0.000000
4.710000,3.273765,-0.309619,-1.479183,0.171654,0.041831,0.010547,-0.637181,0.194322,-0.146263,1.756740,-0.568048,0.533703,-1.492839,0.458795,0.094133,0.019475,0.063911,0.000000,-0.055658,-0.172277,-0.000000
4.720000,3.275450,-0.309191,-1.479085,0.165370,0.043746,0.009111,-0.619694,0.188667,-0.140923,1.740160,-0.562882,0.533973,-1.815081,0.555495,-0.028320,0.018921,0.062195,0.000000,-0.055220,-0.170839,-0.000000
4.730000,3.277073,-0.308744,-1.479001,0.159260,0.045605,0.007728,-0.602388,0.183066,-0.135586,1.720610,-0.557336,0.533386,-2.094574,0.552425,-0.088938,0.018371,0.060494,0.000000,-0.054744,-0.169105,0.000000
4.740000,3.278636,-0.308279,-1.478930,0.153322,0.047408,0.006399,-0.585292,0.177521,-0.130258,1.698111,-0.551474,0.531940,-2.412932,0.637991,-0.213026,0.017826,0.058813,0.000000,-0.054236,-0.167075,-0.000000
4.750000,3.280140,-0.307797,-1.478872,0.147553,0.049155,0.005123,-0.568437,0.172039,-0.124952,1.672417,-0.544744,0.529219,-2.716979,0.688996,-0.318570,0.017287,0.057154,0.000000,-0.053642,-0.164725,-0.000000
4.760000,3.281588,-0.307296,-1.478827,0.141952,0.050849,0.003900,-0.551853,0.166627,-0.119677,1.643770,-0.537754,0.525540,-3.019029,0.735404,-0.425738,0.016753,0.055519,0.000000,-0.053020,-0.162076,0.000000
4.770000,3.282980,-0.306780,-1.478794,0.136515,0.052488,0.002729,-0.535572,0.161288,-0.114445,1.611977,-0.529797,0.520625,-3.332585,0.829666,-0.549782,0.016227,0.053913,0.000000,-0.052301,-0.159110,-0.000000
4.780000,3.284319,-0.306247,-1.478773,0.131240,0.054075,0.001611,-0.519623,0.156031,-0.109268,1.577267,-0.521715,0.514701,-3.608944,0.785697,-0.634913,0.015707,0.052337,0.000000,-0.051568,-0.155845,-0.000000
4.790000,3.285605,-0.305698,-1.478762,0.126122,0.055609,0.000544,-0.504036,0.150854,-0.104154,1.539667,-0.513561,0.507763,-3.917461,0.871216,-0.760817,0.015195,0.050796,0.000000,-0.050826,-0.152285,-0.000000
4.800000,3.286841,-0.305135,-1.478762,0.121157,0.057092,-0.000473,-0.488840,0.145763,-0.099117,1.498983,-0.504517,0.499547,-4.212171,0.911136,-0.874797,0.014691,0.049292,0.000000,-0.049994,-0.148409,0.000000
4.810000,3.288029,-0.304557,-1.478771,0.116343,0.058525,-0.001439,-0.474066,0.140763,-0.094167,1.455442,-0.495510,0.490261,-4.504941,0.946230,-0.990946,0.014195,0.047829,0.000000,-0.049163,-0.144238,0.000000
4.820000,3.289169,-0.303965,-1.478790,0.111675,0.059908,-0.002356,-0.459742,0.135859,-0.089316,1.408788,-0.485073,0.479629,-4.815038,1.086683,-1.126327,0.013708,0.046408,0.000000,-0.048186,-0.139747,0.000000
4.830000,3.290263,-0.303359,-1.478818,0.107147,0.061242,-0.003226,-0.445899,0.131060,-0.084578,1.359367,-0.474919,0.467927,-5.068375,0.942699,-1.214079,0.013231,0.045035,0.000000,-0.047235,-0.134968,-0.000000
4.840000,3.291312,-0.302740,-1.478855,0.102755,0.062529,-0.004048,-0.432564,0.126359,-0.079961,1.307218,-0.465110,0.455151,-5.371602,1.074686,-1.350887,0.012764,0.043710,0.000000,-0.046316,-0.129904,-0.000000
4.850000,3.292318,-0.302108,-1.478899,0.098494,0.063770,-0.004825,-0.419765,0.121763,-0.075480,1.252030,-0.453885,0.440986,-5.654801,1.115842,-1.473075,0.012306,0.042437,0.000000,-0.045252,-0.124525,-0.000000
4.860000,3.293283,-0.301465,-1.478951,0.094358,0.064965,-0.005558,-0.407532,0.117281,-0.071145,1.194074,-0.442489,0.425634,-5.936030,1.163881,-1.597627,0.011859,0.041220,0.000000,-0.044168,-0.118857,-0.000000
4.870000,3.294206,-0.300809,-1.479010,0.090341,0.066116,-0.006249,-0.395893,0.112915,-0.066971,1.133318,-0.430593,0.409028,-6.214683,1.216090,-1.723856,0.011423,0.040061,0.000000,-0.043030,-0.112895,0.000000
4.880000,3.295090,-0.300142,-1.479076,0.086438,0.067223,-0.006898,-0.384875,0.108671,-0.062969,1.069789,-0.418151,0.391151,-6.490664,1.273236,-1.851783,0.010998,0.038963,0.000000,-0.041834,-0.106642,-0.000000
4.890000,3.295935,-0.299465,-1.479148,0.082641,0.068289,-0.007509,-0.374507,0.104554,-0.059152,1.003514,-0.405109,0.371987,-6.763776,1.336089,-1.981454,0.010586,0.037929,0.000000,-0.040575,-0.100102,-0.000000
4.900000,3.296743,-0.298777,-1.479226,0.078945,0.069315,-0.008082,-0.364814,0.100571,-0.055534,0.934521,-0.391407,0.351520,-7.034251,1.405452,-2.112536,0.010187,0.036962,0.000000,-0.039245,-0.093276,0.000000
4.910000,3.297514,-0.298079,-1.479309,0.075343,0.070301,-0.008620,-0.355825,0.096729,-0.052126,0.862839,-0.376976,0.329732,-7.301728,1.482053,-2.245434,0.009801,0.036064,0.000000,-0.037838,-0.086168,0.000000
4.920000,3.298250,-0.297371,-1.479398,0.071827,0.071250,-0.009125,-0.347566,0.093034,-0.048944,0.788497,-0.361739,0.306606,-7.566205,1.566679,-2.380007,0.009430,0.035239,0.000000,-0.036346,-0.078780,0.000000
4.930000,3.298951,-0.296654,-1.479492,0.068389,0.072163,-0.009600,-0.340064,0.089497,-0.045999,0.711525,-0.345613,0.282126,-7.827619,1.660099,-2.516274,0.009075,0.034490,0.000000,-0.034761,-0.071117,0.000000
4.940000,3.299618,-0.295928,-1.479590,0.065023,0.073041,-0.010046,-0.333344,0.086125,-0.043306,0.631955,-0.328506,0.256275,-8.086011,1.763079,-2.654279,0.008736,0.033818,0.000000,-0.033072,-0.063182,-0.000000
4.950000,3.300252,-0.295193,-1.479693,0.061719,0.073886,-0.010467,-0.327433,0.082930,-0.040878,0.549818,-0.310317,0.229038,-8.340892,1.876420,-2.793678,0.008414,0.033227,0.000000,-0.031271,-0.054979,0.000000
4.960000,3.300853,-0.294450,-1.479799,0.058471,0.074700,-0.010865,-0.322356,0.079923,-0.038729,0.465148,-0.290940,0.200397,-8.592588,2.000857,-2.934899,0.008111,0.032719,0.000000,-0.029346,-0.046512,0.000000
4.970000,3.301421,-0.293699,-1.479910,0.055269,0.075485,-0.011242,-0.318139,0.077116,-0.036875,0.377978,-0.270260,0.170335,-8.840883,2.137175,-3.077786,0.007827,0.032297,0.000000,-0.027285,-0.037786,0.000000
4.980000,3.301958,-0.292941,-1.480024,0.052105,0.076243,-0.011603,-0.314805,0.074522,-0.035328,0.288342,-0.248154,0.138835,-9.085693,2.286140,-3.222354,0.007565,0.031964,0.000000,-0.025077,-0.028806,-0.000000
4.990000,3.302463,-0.292174,-1.480142,0.048970,0.076976,-0.011950,-0.312380,0.072158,-0.034103,0.196276,-0.224493,0.105882,-9.326971,2.448511,-3.368633,0.007326,0.031722,0.000000,-0.022709,-0.019577,0.000000
5.000000,3.302938,-0.291401,-1.480263,0.045855,0.077687,-0.012286,-0.310888,0.070038,-0.033215,0.101814,-0.199137,0.071457,-9.564792,2.625023,-3.516657,0.007112,0.031573,0.000000,-0.020166,-0.010104,-0.000000
