time,x,y,z,vx,vy,vz,ax,ay,az,jx,jy,jz,sx,sy,sz,roll,pitch,yaw,p,q,r
0.000000,-2.167185,-2.164953,-1.461608,-0.009444,0.001748,-0.001325,0.212136,-0.383316,-0.050624,-8.144050,9.579533,1.793294,231.470075,-122.940940,-42.833959,-0.038845,-0.021510,0.000000,0.962061,0.821004,-0.000000
0.010000,-2.167270,-2.164953,-1.461623,-0.007693,-0.001626,-0.001748,0.141654,-0.293315,-0.034719,-6.012091,8.455266,1.398696,195.563648,-102.291994,-36.201244,-0.029782,-0.014388,0.000000,0.853523,0.608252,-0.000000
0.020000,-2.167341,-2.164982,-1.461642,-0.006546,-0.004152,-0.002031,0.090761,-0.213560,-0.022440,-4.220273,7.526292,1.067016,163.408632,-83.863271,-30.244544,-0.021716,-0.009230,0.000000,0.762620,0.428080,-0.000000
0.030000,-2.167403,-2.165033,-1.461664,-0.005823,-0.005925,-0.002207,0.056237,-0.142210,-0.013191,-2.732075,6.770978,0.791669,134.806449,-67.541124,-24.928564,-0.014476,-0.005725,0.000000,0.687940,0.277625,-0.000000
0.040000,-2.167458,-2.165098,-1.461686,-0.005376,-0.007019,-0.002303,0.035222,-0.077630,-0.006440,-1.512963,6.168826,0.566426,109.558514,-53.211948,-20.217999,-0.007908,-0.003588,0.000000,0.627914,0.153912,-0.000000
0.050000,-2.167511,-2.165172,-1.461709,-0.005082,-0.007495,-0.002343,0.025190,-0.018388,-0.001715,-0.530386,5.700476,0.385407,87.466250,-40.761922,-16.077763,-0.001874,-0.002567,0.000000,0.580909,0.053955,0.000000
0.060000,-2.167560,-2.165246,-1.461733,-0.004843,-0.007400,-0.002343,0.023928,0.036764,0.001397,0.246219,5.347703,0.243087,68.331081,-30.077550,-12.472322,0.003748,-0.002440,0.000000,0.545289,-0.025162,-0.000000
0.070000,-2.167607,-2.165318,-1.461756,-0.004581,-0.006770,-0.002319,0.029523,0.088895,0.003258,0.845430,5.093419,0.134295,51.954419,-21.045125,-9.366497,0.009064,-0.003010,0.000000,0.519456,-0.086246,0.000000
0.080000,-2.167652,-2.165380,-1.461779,-0.004235,-0.005630,-0.002281,0.040334,0.138908,0.004179,1.293840,4.921672,0.054210,38.137667,-13.551006,-6.725015,0.014165,-0.004113,0.000000,0.501879,-0.131953,0.000000
0.090000,-2.167692,-2.165429,-1.461802,-0.003761,-0.003996,-0.002238,0.054979,0.187554,0.004423,1.616055,4.817649,-0.001636,26.682197,-7.481581,-4.512593,0.019125,-0.005607,0.000000,0.491109,-0.164774,-0.000000
0.100000,-2.167726,-2.165459,-1.461824,-0.003126,-0.001881,-0.002194,0.072311,0.235441,0.004213,1.834697,4.767673,-0.037353,17.389755,-2.722986,-2.693774,0.024005,-0.007374,0.000000,0.485792,-0.187011,0.000000
0.110000,-2.167754,-2.165465,-1.461846,-0.002309,0.000712,-0.002154,0.091397,0.283045,0.003731,1.970398,4.759199,-0.056705,10.061364,0.838205,-1.233526,0.028854,-0.009320,0.000000,0.484676,-0.200778,-0.000000
0.120000,-2.167772,-2.165443,-1.461867,-0.001295,0.003780,-0.002120,0.111504,0.330725,0.003122,2.041809,4.780824,-0.063100,4.498596,3.315740,-0.096473,0.033709,-0.011370,0.000000,0.486615,-0.207984,-0.000000
0.130000,-2.167779,-2.165388,-1.461888,-0.000077,0.007327,-0.002092,0.132075,0.378728,0.002502,2.065594,4.822281,-0.059594,0.502880,4.823299,0.752647,0.038593,-0.013466,0.000000,0.490573,-0.210337,0.000000
0.140000,-2.167773,-2.165295,-1.461909,0.001347,0.011356,-0.002070,0.152707,0.427206,0.001954,2.056429,4.874436,-0.048890,-2.124383,5.474581,1.349070,0.043524,-0.015568,0.000000,0.495624,-0.209341,-0.000000
0.150000,-2.167751,-2.165159,-1.461930,0.002976,0.015873,-0.002052,0.173136,0.476225,0.001540,2.027005,4.929297,-0.033338,-3.581883,5.383315,1.727995,0.048507,-0.017650,0.000000,0.500955,-0.206292,-0.000000
0.160000,-2.167712,-2.164975,-1.461950,0.004808,0.020883,-0.002038,0.193215,0.525778,0.001297,1.988029,4.979994,-0.014927,-4.067917,4.662230,1.925543,0.053542,-0.019696,0.000000,0.505865,-0.202281,0.000000
0.170000,-2.167654,-2.164739,-1.461970,0.006839,0.026390,-0.002026,0.212894,0.575792,0.001246,1.948222,5.020819,0.004687,-3.781296,3.426236,1.975906,0.058621,-0.021701,0.000000,0.509770,-0.198197,0.000000
0.180000,-2.167575,-2.164446,-1.461990,0.009065,0.032400,-0.002013,0.232199,0.626146,0.001391,1.914317,5.047180,0.024219,-2.920555,1.788479,1.914768,0.063732,-0.023669,0.000000,0.512199,-0.194720,-0.000000
0.190000,-2.167472,-2.164090,-1.462011,0.011482,0.038914,-0.001997,0.251216,0.676676,0.001727,1.891063,5.055628,0.042729,-1.684320,-0.137439,1.777341,0.068859,-0.025607,0.000000,0.512797,-0.192331,-0.000000
0.200000,-2.167345,-2.163666,-1.462030,0.014088,0.045933,-0.001978,0.270066,0.727191,0.002240,1.881223,5.043853,0.059631,-0.270885,-2.237514,1.599181,0.073981,-0.027529,0.000000,0.511327,-0.191307,0.000000
0.210000,-2.167190,-2.163169,-1.462050,0.016881,0.053458,-0.001951,0.287969,0.777890,0.003081,1.675275,5.103962,0.113142,-3.036248,-2.554476,2.175308,0.079121,-0.029355,0.000000,0.517484,-0.170482,-0.000000
0.220000,-2.167006,-2.162595,-1.462069,0.019849,0.061489,-0.001916,0.306557,0.827893,0.003959,2.168903,4.838066,0.039404,64.991478,-34.319196,-10.202082,0.084186,-0.031252,0.000000,0.489406,-0.220307,-0.000000
0.230000,-2.166792,-2.161938,-1.462088,0.023029,0.070006,-0.001875,0.329543,0.875397,0.004201,2.203026,4.759999,0.050218,-59.328337,19.220019,12.575204,0.088987,-0.033594,0.000000,0.481107,-0.223695,0.000000
0.240000,-2.166545,-2.161193,-1.462107,0.026424,0.079002,-0.001828,0.348623,0.923925,0.005329,1.725788,4.892701,0.154943,0.982337,-9.134281,1.584251,0.093897,-0.035542,0.000000,0.495208,-0.175579,-0.000000
0.250000,-2.166263,-2.160356,-1.462125,0.030000,0.088482,-0.001767,0.366902,0.971937,0.006781,1.907318,4.717305,0.139518,-1.679828,-9.522863,2.093159,0.098753,-0.037409,0.000000,0.476870,-0.193871,-0.000000
0.260000,-2.165945,-2.159422,-1.462142,0.033764,0.098436,-0.001692,0.385868,1.018709,0.008280,1.884630,4.637535,0.160363,-2.088336,-10.448982,2.151142,0.103480,-0.039347,0.000000,0.468626,-0.191591,-0.000000
0.270000,-2.165587,-2.158386,-1.462159,0.037717,0.108853,-0.001601,0.404644,1.064331,0.009996,1.872625,4.471489,0.183208,-1.061087,-18.839324,2.340335,0.108090,-0.041267,0.000000,0.451737,-0.190412,-0.000000
0.280000,-2.165190,-2.157244,-1.462174,0.041857,0.119717,-0.001492,0.423271,1.108293,0.011942,1.847702,4.343074,0.205542,-3.946407,-6.708585,2.121562,0.112531,-0.043173,0.000000,0.438691,-0.187935,0.000000
0.290000,-2.164750,-2.155990,-1.462188,0.046181,0.131016,-0.001362,0.441546,1.151369,0.014104,1.808850,4.258497,0.227108,-3.067354,-14.140154,2.264863,0.116881,-0.045044,0.000000,0.430093,-0.184058,-0.000000
0.300000,-2.164265,-2.154622,-1.462201,0.050686,0.142740,-0.001209,0.459495,1.193128,0.016490,1.779983,4.094053,0.250139,-3.456082,-14.800911,2.262879,0.121099,-0.046884,0.000000,0.413520,-0.181211,-0.000000
0.310000,-2.163735,-2.153134,-1.462213,0.055370,0.154874,-0.001031,0.477141,1.233338,0.019101,1.749398,3.947426,0.271866,-3.667055,-15.521816,2.231222,0.125161,-0.048695,0.000000,0.398775,-0.178198,0.000000
0.320000,-2.163157,-2.151523,-1.462222,0.060228,0.167402,-0.000826,0.494394,1.271971,0.021938,1.697419,3.774576,0.296095,-5.745346,-18.054588,2.464762,0.129064,-0.050467,0.000000,0.381496,-0.173049,0.000000
0.330000,-2.162530,-2.149785,-1.462229,0.065256,0.180307,-0.000591,0.511129,1.308855,0.025014,1.655142,3.607180,0.318018,-2.675556,-15.381391,1.912306,0.132793,-0.052189,0.000000,0.364786,-0.168884,0.000000
0.340000,-2.161852,-2.147916,-1.462234,0.070449,0.193573,-0.000325,0.527542,1.344148,0.028289,1.624160,3.447356,0.337249,-4.506222,-17.561167,2.079076,0.136363,-0.053879,0.000000,0.348841,-0.165859,-0.000000
0.350000,-2.161121,-2.145912,-1.462235,0.075805,0.207184,-0.000025,0.543529,1.377709,0.031768,1.573499,3.264605,0.358279,-4.635902,-17.990302,1.976067,0.139761,-0.055528,0.000000,0.330690,-0.160869,-0.000000
0.360000,-2.160335,-2.143771,-1.462234,0.081318,0.221122,0.000311,0.559037,1.409451,0.035443,1.528049,3.083161,0.376562,-4.769793,-18.400748,1.845508,0.142978,-0.057131,0.000000,0.312677,-0.156403,0.000000
0.370000,-2.159494,-2.141489,-1.462229,0.086984,0.235367,0.000685,0.574060,1.439350,0.039308,1.475239,2.895767,0.396675,-5.478440,-18.957141,2.011118,0.146013,-0.058686,0.000000,0.294151,-0.151217,-0.000000
0.380000,-2.158595,-2.139063,-1.462220,0.092798,0.249902,0.001098,0.588553,1.467361,0.043364,1.425063,2.706545,0.413304,-4.543322,-18.873351,1.306830,0.148861,-0.060189,0.000000,0.275434,-0.146288,0.000000
0.390000,-2.157637,-2.136490,-1.462207,0.098754,0.264708,0.001552,0.602575,1.493479,0.047560,1.378171,2.516275,0.426053,-5.144756,-19.281974,1.404866,0.151521,-0.061646,0.000000,0.256592,-0.141676,0.000000
0.400000,-2.156619,-2.133768,-1.462189,0.104848,0.279765,0.002049,0.616090,1.517671,0.051892,1.324890,2.322043,0.439951,-5.195704,-19.443650,1.207991,0.153991,-0.063052,0.000000,0.237413,-0.136436,-0.000000
0.410000,-2.155540,-2.130894,-1.462166,0.111074,0.295055,0.002591,0.629079,1.539916,0.056345,1.272963,2.126718,0.450283,-5.241382,-19.562019,0.991664,0.156269,-0.064408,0.000000,0.218100,-0.131316,0.000000
0.420000,-2.154397,-2.127866,-1.462137,0.117428,0.310557,0.003177,0.641543,1.560207,0.060901,1.219617,1.931443,0.460986,-5.371840,-19.533048,1.015316,0.158354,-0.065711,0.000000,0.198827,-0.126062,0.000000
0.430000,-2.153191,-2.124682,-1.462102,0.123903,0.326253,0.003809,0.653473,1.578541,0.065551,1.166699,1.735202,0.467784,-5.207407,-19.708225,0.338110,0.160245,-0.066961,0.000000,0.179417,-0.120830,-0.000000
0.440000,-2.151919,-2.121340,-1.462061,0.130495,0.342121,0.004488,0.664880,1.594908,0.070242,1.114444,1.538427,0.470375,-5.294748,-19.589773,0.311330,0.161941,-0.068159,0.000000,0.159902,-0.115640,0.000000
0.450000,-2.150581,-2.117839,-1.462012,0.137199,0.358144,0.005214,0.675758,1.609316,0.074960,1.061304,1.343143,0.472851,-5.277178,-19.508579,0.049806,0.163444,-0.069304,0.000000,0.140546,-0.110361,-0.000000
0.460000,-2.149175,-2.114177,-1.461956,0.144009,0.374301,0.005987,0.686108,1.621772,0.079685,1.008583,1.148372,0.471648,-5.251349,-19.386093,-0.219164,0.164752,-0.070396,0.000000,0.121188,-0.105099,-0.000000
0.470000,-2.147700,-2.110353,-1.461892,0.150919,0.390573,0.006807,0.695932,1.632292,0.084390,0.956439,0.956042,0.469113,-5.188614,-19.123844,-0.358938,0.165868,-0.071435,0.000000,0.102052,-0.099885,-0.000000
0.480000,-2.146156,-2.106365,-1.461820,0.157926,0.406941,0.007675,0.705237,1.640897,0.089055,0.904573,0.764960,0.462980,-5.183305,-19.087844,-0.870517,0.166794,-0.072421,0.000000,0.082979,-0.094672,-0.000000
0.490000,-2.144541,-2.102214,-1.461739,0.165022,0.423385,0.008588,0.714025,1.647596,0.093637,0.853069,0.575439,0.453115,-5.103015,-18.758735,-1.031864,0.167528,-0.073355,0.000000,0.063993,-0.089464,0.000000
0.500000,-2.142855,-2.097897,-1.461648,0.172204,0.439886,0.009547,0.722302,1.652419,0.098113,0.802431,0.389464,0.441741,-5.036454,-18.481410,-1.313930,0.168075,-0.074236,0.000000,0.045325,-0.084328,0.000000
0.510000,-2.141097,-2.093416,-1.461548,0.179467,0.456427,0.010550,0.730075,1.655393,0.102460,0.752246,0.206016,0.427224,-4.965488,-18.170745,-1.590402,0.168435,-0.075066,0.000000,0.026843,-0.079209,-0.000000
0.520000,-2.139266,-2.088769,-1.461437,0.186804,0.472988,0.011596,0.737352,1.656552,0.106649,0.703455,0.026449,0.409931,-4.824638,-17.768718,-1.866355,0.168613,-0.075844,0.000000,0.008684,-0.074204,-0.000000
0.530000,-2.137361,-2.083956,-1.461315,0.194212,0.489552,0.012682,0.744145,1.655933,0.110650,0.655080,-0.149911,0.389938,-4.850613,-17.499563,-2.131169,0.168610,-0.076571,0.000000,-0.009217,-0.069214,-0.000000
0.540000,-2.135381,-2.078978,-1.461183,0.201685,0.506101,0.013808,0.750455,1.653565,0.114439,0.607124,-0.322822,0.367303,-4.706484,-17.046747,-2.395828,0.168429,-0.077248,0.000000,-0.026836,-0.064239,-0.000000
0.550000,-2.133327,-2.073834,-1.461039,0.209220,0.522618,0.014970,0.756293,1.649493,0.117987,0.560675,-0.491026,0.342066,-4.615518,-16.621296,-2.649595,0.168074,-0.077875,0.000000,-0.044050,-0.059388,0.000000
0.560000,-2.131197,-2.068525,-1.460884,0.216810,0.539085,0.016167,0.761669,1.643758,0.121273,0.514749,-0.655112,0.314716,-4.524494,-16.172209,-2.886189,0.167549,-0.078453,0.000000,-0.060907,-0.054565,0.000000
0.570000,-2.128990,-2.063053,-1.460716,0.224451,0.555488,0.017395,0.766595,1.636407,0.124269,0.470604,-0.814215,0.283759,-4.347668,-15.664017,-3.237626,0.166858,-0.078982,0.000000,-0.077347,-0.049887,-0.000000
0.580000,-2.126707,-2.057416,-1.460536,0.232140,0.571808,0.018651,0.771083,1.627489,0.126944,0.426886,-0.968729,0.251384,-4.397245,-15.236280,-3.232834,0.166004,-0.079464,0.000000,-0.093369,-0.045232,-0.000000
0.590000,-2.124347,-2.051617,-1.460343,0.239872,0.588032,0.019933,0.775133,1.617049,0.129293,0.383542,-1.118490,0.217823,-4.227603,-14.693504,-3.543139,0.164992,-0.079899,0.000000,-0.108951,-0.040598,0.000000
0.600000,-2.121910,-2.045656,-1.460137,0.247641,0.604144,0.021236,0.778760,1.605138,0.131289,0.341961,-1.262709,0.181138,-4.132481,-14.167161,-3.725101,0.163826,-0.080288,0.000000,-0.124046,-0.036110,0.000000
0.610000,-2.119394,-2.039534,-1.459918,0.255446,0.620130,0.022557,0.781973,1.591811,0.132914,0.300828,-1.401797,0.143659,-4.041637,-13.627009,-3.881679,0.162512,-0.080632,0.000000,-0.138650,-0.031654,0.000000
0.620000,-2.116801,-2.033254,-1.459686,0.263280,0.635976,0.023893,0.784784,1.577122,0.134148,0.261595,-1.535013,0.102515,-3.855287,-13.034527,-4.233360,0.161055,-0.080930,0.000000,-0.152737,-0.027354,0.000000
0.630000,-2.114129,-2.026815,-1.459440,0.271140,0.651668,0.025239,0.787206,1.561129,0.134965,0.222666,-1.662878,0.061381,-3.932593,-12.537433,-3.986610,0.159459,-0.081186,0.000000,-0.166291,-0.023079,0.000000
0.640000,-2.111378,-2.020221,-1.459181,0.279022,0.667194,0.026591,0.789237,1.543883,0.135378,0.183949,-1.785316,0.020608,-3.760562,-11.928090,-4.276414,0.157731,-0.081398,0.000000,-0.179298,-0.018824,0.000000
0.650000,-2.108548,-2.013472,-1.458908,0.286923,0.682542,0.027945,0.790892,1.525443,0.135366,0.147019,-1.901592,-0.023127,-3.676646,-11.346062,-4.355778,0.155875,-0.081568,0.000000,-0.191733,-0.014721,0.000000
0.660000,-2.105639,-2.006571,-1.458622,0.294839,0.697700,0.029297,0.792178,1.505869,0.134919,0.110378,-2.012291,-0.066281,-3.598483,-10.759910,-4.406045,0.153898,-0.081696,0.000000,-0.203594,-0.010648,-0.000000
0.670000,-2.102651,-1.999519,-1.458322,0.302766,0.712656,0.030642,0.793106,1.485220,0.134028,0.075531,-2.116473,-0.112414,-3.423383,-10.107724,-4.686264,0.151806,-0.081784,0.000000,-0.214838,-0.006730,0.000000
0.680000,-2.099584,-1.992318,-1.458009,0.310700,0.727401,0.031976,0.793689,1.463558,0.132676,0.040809,-2.215104,-0.157192,-3.523189,-9.618989,-4.261523,0.149604,-0.081832,0.000000,-0.225491,-0.002834,0.000000
0.690000,-2.096437,-1.984971,-1.457683,0.318638,0.741924,0.033294,0.793922,1.440936,0.130891,0.006107,-2.308204,-0.200212,-3.365370,-8.968847,-4.470763,0.147298,-0.081841,0.000000,-0.235545,0.001047,-0.000000
0.700000,-2.093211,-1.977480,-1.457343,0.326577,0.756216,0.034592,0.793817,1.417416,0.128662,-0.026963,-2.394747,-0.245417,-3.300618,-8.372621,-4.434689,0.144895,-0.081812,0.000000,-0.244955,0.004780,-0.000000
0.710000,-2.089906,-1.969848,-1.456991,0.334514,0.770269,0.035866,0.793383,1.393059,0.125990,-0.059919,-2.475760,-0.288818,-3.241369,-7.781416,-4.370591,0.142401,-0.081745,0.000000,-0.253760,0.008486,-0.000000
0.720000,-2.086521,-1.962076,-1.456626,0.342444,0.784075,0.037110,0.792625,1.367925,0.122878,-0.091344,-2.549935,-0.333941,-3.092573,-7.101619,-4.525557,0.139822,-0.081641,0.000000,-0.261877,0.012050,0.000000
0.730000,-2.083057,-1.954167,-1.456249,0.350365,0.797625,0.038322,0.791555,1.342077,0.119320,-0.122797,-2.618801,-0.376636,-3.200176,-6.673733,-4.006101,0.137165,-0.081501,0.000000,-0.269397,0.015593,0.000000
0.740000,-2.079514,-1.946124,-1.455860,0.358274,0.810914,0.039495,0.790168,1.315566,0.115355,-0.154381,-2.682469,-0.416521,-3.068360,-6.013119,-4.093524,0.134436,-0.081326,0.000000,-0.276325,0.019124,-0.000000
0.750000,-2.075892,-1.937950,-1.455459,0.366167,0.823935,0.040627,0.788473,1.288451,0.110984,-0.184586,-2.739489,-0.457371,-3.022291,-5.439993,-3.947364,0.131641,-0.081116,0.000000,-0.282567,0.022518,-0.000000
0.760000,-2.072191,-1.929646,-1.455047,0.374042,0.836681,0.041714,0.786476,1.260792,0.106218,-0.214802,-2.791385,-0.495510,-2.980820,-4.878530,-3.778690,0.128787,-0.080872,0.000000,-0.288224,0.025887,-0.000000
0.770000,-2.068411,-1.921217,-1.454625,0.381896,0.849149,0.042751,0.784182,1.232647,0.101072,-0.243838,-2.836518,-0.533817,-2.866250,-4.209773,-3.781319,0.125879,-0.080594,0.000000,-0.293170,0.029132,-0.000000
0.780000,-2.064553,-1.912664,-1.454193,0.389725,0.861333,0.043734,0.781599,1.204077,0.095553,-0.272962,-2.876878,-0.569014,-2.960056,-3.865787,-3.252283,0.122925,-0.080284,0.000000,-0.297561,0.032354,0.000000
0.790000,-2.060616,-1.903991,-1.453751,0.397527,0.873229,0.044661,0.778722,1.175124,0.089704,-0.302250,-2.912651,-0.600799,-2.858099,-3.229835,-3.201510,0.119929,-0.079942,0.000000,-0.301415,0.035559,0.000000
0.800000,-2.056602,-1.895201,-1.453300,0.405299,0.884834,0.045527,0.775558,1.145847,0.083537,-0.330471,-2.942031,-0.632144,-2.825628,-2.708747,-2.966794,0.116899,-0.079569,0.000000,-0.304587,0.038646,0.000000
0.810000,-2.052511,-1.886296,-1.452840,0.413037,0.896145,0.046330,0.772112,1.116298,0.077072,-0.358686,-2.966920,-0.660277,-2.794406,-2.203628,-2.718248,0.113839,-0.079164,0.000000,-0.307238,0.041699,-0.000000
0.820000,-2.048342,-1.877279,-1.452373,0.420740,0.907160,0.047068,0.768387,1.086530,0.070335,-0.386150,-2.985527,-0.687025,-2.720967,-1.585522,-2.570548,0.110757,-0.078729,0.000000,-0.309210,0.044657,-0.000000
0.830000,-2.044096,-1.868153,-1.451899,0.428404,0.917875,0.047736,0.764389,1.056600,0.063343,-0.413577,-3.000050,-0.710417,-2.765221,-1.323502,-2.104345,0.107657,-0.078266,0.000000,-0.310704,0.047578,-0.000000
0.840000,-2.039774,-1.858922,-1.451419,0.436027,0.928291,0.048334,0.760115,1.026542,0.056139,-0.441001,-3.010721,-0.730269,-2.696911,-0.746960,-1.923821,0.104544,-0.077772,0.000000,-0.311745,0.050462,-0.000000
0.850000,-2.035376,-1.849589,-1.450933,0.443605,0.938406,0.048858,0.755572,0.996406,0.048743,-0.467706,-3.015600,-0.748362,-2.666457,-0.297256,-1.634447,0.101424,-0.077251,0.000000,-0.312162,0.053253,-0.000000
0.860000,-2.030902,-1.840155,-1.450442,0.451137,0.948219,0.049308,0.750761,0.966241,0.041183,-0.494310,-3.016715,-0.763166,-2.636110,0.134025,-1.340609,0.098302,-0.076702,0.000000,-0.312145,0.056001,-0.000000
0.870000,-2.026353,-1.830625,-1.449947,0.458620,0.957731,0.049681,0.745688,0.936091,0.033488,-0.520274,-3.012407,-0.775300,-2.572658,0.665143,-1.070423,0.095183,-0.076126,0.000000,-0.311537,0.058656,-0.000000
0.880000,-2.021730,-1.821002,-1.449448,0.466050,0.966941,0.049977,0.740356,0.906004,0.025688,-0.546097,-3.004722,-0.784247,-2.592263,0.867130,-0.717840,0.092073,-0.075524,0.000000,-0.310544,0.061266,0.000000
0.890000,-2.017032,-1.811287,-1.448947,0.473426,0.975851,0.050195,0.734766,0.876007,0.017814,-0.571782,-2.993908,-0.789954,-2.527719,1.353500,-0.438597,0.088973,-0.074896,0.000000,-0.309194,0.063831,0.000000
0.900000,-2.012261,-1.801486,-1.448445,0.480745,0.984462,0.050334,0.728923,0.846143,0.009897,-0.596782,-2.978219,-0.792886,-2.488022,1.721032,-0.132824,0.085891,-0.074242,0.000000,-0.307321,0.066300,0.000000
0.910000,-2.007417,-1.791599,-1.447941,0.488004,0.992775,0.050393,0.722832,0.816452,0.001966,-0.621375,-2.959494,-0.792837,-2.442268,2.070180,0.168326,0.082828,-0.073565,0.000000,-0.305112,0.068700,-0.000000
0.920000,-2.002501,-1.781631,-1.447437,0.495200,1.000792,0.050373,0.716496,0.786969,-0.005947,-0.645728,-2.936420,-0.789289,-2.415660,2.494328,0.515665,0.079790,-0.072864,0.000000,-0.302434,0.071046,-0.000000
0.930000,-1.997514,-1.771584,-1.446934,0.502333,1.008515,0.050274,0.709919,0.757732,-0.013811,-0.669420,-2.910664,-0.783062,-2.321464,2.652599,0.728226,0.076780,-0.072140,0.000000,-0.299467,0.073302,-0.000000
0.940000,-1.992455,-1.761462,-1.446432,0.509398,1.015947,0.050097,0.703110,0.728763,-0.021600,-0.692385,-2.882460,-0.774233,-2.282950,3.033379,1.061986,0.073801,-0.071394,0.000000,-0.296239,0.075463,0.000000
0.950000,-1.987326,-1.751266,-1.445932,0.516394,1.023091,0.049842,0.696073,0.700096,-0.029284,-0.714951,-2.850462,-0.762060,-2.217745,3.315693,1.346408,0.070857,-0.070627,0.000000,-0.292613,0.077558,-0.000000
0.960000,-1.982127,-1.741001,-1.445435,0.523319,1.029950,0.049512,0.688814,0.671761,-0.036834,-0.736619,-2.816121,-0.747516,-2.144357,3.580991,1.618596,0.067950,-0.069839,0.000000,-0.288745,0.079544,0.000000
0.970000,-1.976860,-1.730668,-1.444942,0.530170,1.036528,0.049106,0.681341,0.643785,-0.044220,-0.758088,-2.778611,-0.729188,-2.119777,3.887931,1.989642,0.065083,-0.069032,0.000000,-0.284546,0.081483,0.000000
0.980000,-1.971524,-1.720271,-1.444453,0.536945,1.042827,0.048628,0.673657,0.616196,-0.051411,-0.778391,-2.739051,-0.708927,-1.938763,4.020355,2.058995,0.062260,-0.068206,0.000000,-0.280146,0.083293,0.000000
0.990000,-1.966121,-1.709813,-1.443970,0.543642,1.048853,0.048079,0.665777,0.589010,-0.058394,-0.797419,-2.697647,-0.686915,-1.894532,4.288355,2.398001,0.059481,-0.067364,0.000000,-0.275568,0.084964,-0.000000
1.000000,-1.960652,-1.699295,-1.443492,0.550260,1.054609,0.047461,0.657709,0.562252,-0.065137,-0.816013,-2.653598,-0.661489,-1.794085,4.488427,2.629313,0.056749,-0.066504,0.000000,-0.270725,0.086570,0.000000
1.010000,-1.955116,-1.688721,-1.443021,0.556796,1.060099,0.046777,0.649462,0.535943,-0.071619,-0.833263,-2.607842,-0.634498,-1.684489,4.673153,2.843064,0.054067,-0.065630,0.000000,-0.265723,0.088035,-0.000000
1.020000,-1.949516,-1.678094,-1.442557,0.563248,1.065329,0.046029,0.641045,0.510102,-0.077814,-0.849953,-2.560069,-0.603969,-1.623039,4.866280,3.186246,0.051435,-0.064741,0.000000,-0.260524,0.089425,-0.000000
1.030000,-1.943852,-1.667416,-1.442101,0.569616,1.070303,0.045222,0.632468,0.484747,-0.083695,-0.865087,-2.510830,-0.572380,-1.401671,4.978580,3.126848,0.048857,-0.063840,0.000000,-0.255199,0.090657,0.000000
1.040000,-1.938124,-1.656689,-1.441653,0.575897,1.075026,0.044357,0.623749,0.459890,-0.089260,-0.878546,-2.460295,-0.539981,-1.318027,5.138547,3.425317,0.046332,-0.062927,0.000000,-0.249765,0.091723,0.000000
1.050000,-1.932334,-1.645916,-1.441214,0.582091,1.079503,0.043438,0.614900,0.435546,-0.094484,-0.891173,-2.408220,-0.504557,-1.176499,5.261825,3.581549,0.043862,-0.062003,0.000000,-0.244190,0.092693,0.000000
1.060000,-1.926482,-1.635100,-1.440784,0.588195,1.083738,0.042468,0.605933,0.411729,-0.099350,-0.901941,-2.355050,-0.468463,-1.023081,5.371165,3.717078,0.041448,-0.061072,0.000000,-0.238529,0.093480,0.000000
1.070000,-1.920570,-1.624242,-1.440364,0.594209,1.087739,0.041452,0.596862,0.388449,-0.103842,-0.912043,-2.300832,-0.429510,-0.949965,5.468580,3.990698,0.039092,-0.060132,0.000000,-0.232780,0.094192,0.000000
1.080000,-1.914599,-1.613346,-1.439955,0.600132,1.091509,0.040393,0.587699,0.365715,-0.107940,-0.919946,-2.245754,-0.390389,-0.627764,5.544662,3.828155,0.036793,-0.059187,0.000000,-0.226972,0.094691,-0.000000
1.090000,-1.908568,-1.602413,-1.439557,0.605963,1.095055,0.039294,0.578471,0.343536,-0.111651,-0.925502,-2.189959,-0.351381,-0.528612,5.613328,4.051502,0.034552,-0.058238,0.000000,-0.221120,0.094966,0.000000
1.100000,-1.902480,-1.591445,-1.439169,0.611701,1.098382,0.038161,0.569192,0.321918,-0.114958,-0.930095,-2.133541,-0.310099,-0.342370,5.666260,4.120826,0.032371,-0.057287,0.000000,-0.215224,0.095142,-0.000000
1.110000,-1.896334,-1.580446,-1.438794,0.617347,1.101495,0.036997,0.559878,0.300867,-0.117854,-0.932310,-2.076651,-0.269021,-0.146021,5.705929,4.169357,0.030248,-0.056335,0.000000,-0.209308,0.095091,0.000000
1.120000,-1.890133,-1.569416,-1.438429,0.622899,1.104401,0.035805,0.550548,0.280386,-0.120331,-0.933418,-2.019500,-0.226057,-0.029029,5.725550,4.345579,0.028185,-0.055384,0.000000,-0.203387,0.094929,-0.000000
1.130000,-1.883877,-1.558358,-1.438077,0.628358,1.107105,0.034591,0.541219,0.260478,-0.122378,-0.931917,-1.962110,-0.183744,0.331714,5.750340,4.111870,0.026180,-0.054437,0.000000,-0.197468,0.094521,0.000000
1.140000,-1.877566,-1.547275,-1.437738,0.633723,1.109613,0.033359,0.531920,0.241144,-0.124010,-0.927674,-1.904606,-0.142355,0.472463,5.744752,4.238901,0.024235,-0.053494,0.000000,-0.191565,0.093854,0.000000
1.150000,-1.871202,-1.536167,-1.437410,0.638996,1.111930,0.032113,0.522669,0.222385,-0.125219,-0.922056,-1.847230,-0.099665,0.697486,5.732305,4.220819,0.022349,-0.052559,0.000000,-0.185693,0.093054,-0.000000
1.160000,-1.864786,-1.525037,-1.437095,0.644177,1.114062,0.030856,0.513488,0.204199,-0.126007,-0.913710,-1.790015,-0.057944,0.930494,5.707419,4.184285,0.020521,-0.051634,0.000000,-0.179861,0.091996,0.000000
1.170000,-1.858319,-1.513886,-1.436793,0.649266,1.116016,0.029594,0.504399,0.186584,-0.126375,-0.903814,-1.733133,-0.015446,1.090558,5.668146,4.251038,0.018751,-0.050719,0.000000,-0.174080,0.090789,0.000000
1.180000,-1.851801,-1.502717,-1.436504,0.654265,1.117796,0.028330,0.495422,0.169535,-0.126321,-0.891023,-1.676669,0.025728,1.469717,5.622708,3.979319,0.017039,-0.049818,0.000000,-0.168363,0.089309,-0.000000
1.190000,-1.845234,-1.491531,-1.436227,0.659175,1.119408,0.027069,0.486589,0.153049,-0.125866,-0.875231,-1.620741,0.065341,1.648146,5.559833,4.003196,0.015384,-0.048934,0.000000,-0.162719,0.087546,0.000000
1.200000,-1.838618,-1.480329,-1.435962,0.663997,1.120859,0.025814,0.477922,0.137118,-0.125012,-0.857697,-1.565501,0.105215,1.900461,5.487265,3.906945,0.013785,-0.048068,0.000000,-0.157160,0.085615,-0.000000
1.210000,-1.831955,-1.469114,-1.435710,0.668734,1.122152,0.024570,0.469445,0.121736,-0.123767,-0.837238,-1.511076,0.143529,2.158238,5.402605,3.796924,0.012240,-0.047222,0.000000,-0.151698,0.083407,0.000000
1.220000,-1.825244,-1.457887,-1.435471,0.673387,1.123295,0.023340,0.461184,0.106894,-0.122142,-0.814813,-1.457422,0.181524,2.358302,5.319679,3.756816,0.010750,-0.046400,0.000000,-0.146326,0.081010,0.000000
1.230000,-1.818487,-1.446649,-1.435243,0.677959,1.124292,0.022128,0.453159,0.092584,-0.120143,-0.789411,-1.404859,0.217718,2.723480,5.190831,3.478727,0.009314,-0.045603,0.000000,-0.141077,0.078329,0.000000
1.240000,-1.811685,-1.435401,-1.435028,0.682451,1.125148,0.020938,0.445406,0.078793,-0.117794,-0.760969,-1.353505,0.251935,2.933638,5.085027,3.406378,0.007928,-0.044834,0.000000,-0.135961,0.075358,-0.000000
1.250000,-1.804838,-1.424146,-1.434825,0.686868,1.125870,0.019773,0.437946,0.065510,-0.115106,-0.730470,-1.303252,0.285436,3.197722,4.957320,3.249204,0.006594,-0.044096,0.000000,-0.130965,0.072187,0.000000
1.260000,-1.797948,-1.412884,-1.434633,0.691211,1.126460,0.018637,0.430806,0.052723,-0.112092,-0.697087,-1.254460,0.316988,3.461708,4.817947,3.082700,0.005309,-0.043392,0.000000,-0.126123,0.068738,0.000000
1.270000,-1.791014,-1.401617,-1.434452,0.695485,1.126926,0.017533,0.424012,0.040417,-0.108770,-0.661396,-1.206756,0.347272,3.692900,4.703358,2.950348,0.004071,-0.042722,0.000000,-0.121397,0.065065,-0.000000
1.280000,-1.784038,-1.390346,-1.434282,0.699693,1.127270,0.016463,0.417588,0.028582,-0.105154,-0.622886,-1.160801,0.375500,4.009149,4.485517,2.693163,0.002880,-0.042091,0.000000,-0.116852,0.061118,-0.000000
1.290000,-1.777021,-1.379072,-1.434122,0.703838,1.127499,0.015430,0.411564,0.017195,-0.101267,-0.581557,-1.116713,0.401563,4.239590,4.348619,2.540999,0.001733,-0.041501,0.000000,-0.112499,0.056896,0.000000
1.300000,-1.769962,-1.367797,-1.433973,0.707925,1.127616,0.014438,0.405964,0.006243,-0.097127,-0.537962,-1.074010,0.426109,4.495215,4.172449,2.344566,0.000630,-0.040954,0.000000,-0.108288,0.052450,-0.000000
1.310000,-1.762862,-1.356520,-1.433833,0.711959,1.127625,0.013489,0.400813,-0.004292,-0.092752,-0.491750,-1.033328,0.448545,4.745706,3.986362,2.143920,-0.000433,-0.040453,0.000000,-0.104283,0.047746,-0.000000
1.320000,-1.755723,-1.345244,-1.433703,0.715943,1.127531,0.012584,0.396137,-0.014428,-0.088163,-0.443073,-0.994089,0.468993,4.989606,3.837035,1.942906,-0.001456,-0.040000,0.000000,-0.100423,0.042798,0.000000
1.330000,-1.748544,-1.333970,-1.433582,0.719883,1.127338,0.011726,0.391960,-0.024182,-0.083380,-0.391959,-0.957099,0.487348,5.232285,3.559081,1.727466,-0.002442,-0.039598,0.000000,-0.096789,0.037608,0.000000
1.340000,-1.741325,-1.322698,-1.433468,0.723784,1.127049,0.010917,0.388306,-0.033578,-0.078423,-0.338466,-0.922462,0.503576,5.464202,3.390659,1.520055,-0.003393,-0.039249,0.000000,-0.093391,0.032179,0.000000
1.350000,-1.734068,-1.311429,-1.433363,0.727651,1.126667,0.010158,0.385198,-0.042636,-0.073315,-0.282698,-0.889510,0.517721,5.689722,3.175804,1.307001,-0.004311,-0.038955,0.000000,-0.090161,0.026521,0.000000
1.360000,-1.726772,-1.300165,-1.433265,0.731490,1.126197,0.009451,0.382659,-0.051377,-0.068076,-0.224780,-0.858995,0.529813,5.905762,2.953600,1.095238,-0.005197,-0.038719,0.000000,-0.087175,0.020646,-0.000000
1.370000,-1.719438,-1.288906,-1.433174,0.735306,1.125641,0.008797,0.380711,-0.059821,-0.062727,-0.164489,-0.830203,0.539478,6.137772,2.777399,0.853489,-0.006055,-0.038543,0.000000,-0.084359,0.014532,-0.000000
1.380000,-1.712066,-1.277652,-1.433089,0.739106,1.125001,0.008197,0.379375,-0.067990,-0.057292,-0.102329,-0.804023,0.547212,6.292301,2.456937,0.694012,-0.006885,-0.038429,0.000000,-0.081804,0.008226,0.000000
1.390000,-1.704656,-1.266406,-1.433010,0.742896,1.124282,0.007651,0.378670,-0.075911,-0.051789,-0.038416,-0.780539,0.553049,6.501411,2.266289,0.457892,-0.007692,-0.038379,0.000000,-0.079517,0.001740,-0.000000
1.400000,-1.697208,-1.255167,-1.432936,0.746682,1.123484,0.007161,0.378614,-0.083606,-0.046240,0.027551,-0.758938,0.556515,6.677088,2.026484,0.251157,-0.008476,-0.038395,0.000000,-0.077415,-0.004957,-0.000000
1.410000,-1.689723,-1.243937,-1.432866,0.750470,1.122610,0.006727,0.379225,-0.091099,-0.040665,0.094969,-0.740022,0.558166,6.837959,1.782601,0.049827,-0.009241,-0.038478,0.000000,-0.075581,-0.011804,-0.000000
1.420000,-1.682199,-1.232715,-1.432801,0.754269,1.121663,0.006348,0.380521,-0.098413,-0.035085,0.164576,-0.723050,0.557251,7.048838,1.585987,-0.203225,-0.009988,-0.038632,0.000000,-0.073939,-0.018875,0.000000
1.430000,-1.674637,-1.221504,-1.432739,0.758083,1.120643,0.006025,0.382520,-0.105569,-0.029525,0.235220,-0.708846,0.554723,7.076645,1.253876,-0.300543,-0.010721,-0.038856,0.000000,-0.072571,-0.026056,0.000000
1.440000,-1.667037,-1.210302,-1.432680,0.761921,1.119552,0.005757,0.385228,-0.112599,-0.023996,0.306720,-0.697456,0.550673,7.253769,1.049928,-0.537819,-0.011441,-0.039153,0.000000,-0.071485,-0.033330,-0.000000
1.450000,-1.659399,-1.199113,-1.432624,0.765790,1.118391,0.005545,0.388661,-0.119525,-0.018520,0.379968,-0.688067,0.544234,7.360699,0.802203,-0.719912,-0.012151,-0.039524,0.000000,-0.070595,-0.040783,0.000000
1.460000,-1.651721,-1.187935,-1.432569,0.769697,1.117161,0.005387,0.392829,-0.126370,-0.013115,0.453810,-0.681349,0.536362,7.450776,0.555627,-0.892328,-0.012854,-0.039969,0.000000,-0.069972,-0.048300,0.000000
1.470000,-1.644005,-1.176770,-1.432516,0.773649,1.115864,0.005282,0.397744,-0.133159,-0.007801,0.529373,-0.676816,0.526067,7.613420,0.337431,-1.128850,-0.013551,-0.040490,0.000000,-0.069564,-0.055993,0.000000
1.480000,-1.636248,-1.165618,-1.432463,0.777654,1.114498,0.005230,0.403417,-0.139915,-0.002598,0.605063,-0.674883,0.514580,7.520602,0.049335,-1.166008,-0.014246,-0.041089,0.000000,-0.069415,-0.063704,0.000000
1.490000,-1.628451,-1.154480,-1.432411,0.781720,1.113065,0.005230,0.409844,-0.146665,0.002487,0.680660,-0.675538,0.502031,7.642462,-0.165667,-1.379484,-0.014940,-0.041765,0.000000,-0.069524,-0.071408,0.000000
1.500000,-1.620613,-1.143357,-1.432359,0.785854,1.111565,0.005280,0.417035,-0.153432,0.007435,0.757462,-0.678302,0.487335,7.669367,-0.400257,-1.521587,-0.015637,-0.042518,0.000000,-0.069842,-0.079234,-0.000000
1.510000,-1.612734,-1.132249,-1.432305,0.790063,1.109997,0.005378,0.424992,-0.160239,0.012231,0.834024,-0.683443,0.471656,7.678702,-0.628596,-1.652868,-0.016338,-0.043349,0.000000,-0.070396,-0.087037,0.000000
1.520000,-1.604812,-1.121157,-1.432251,0.794356,1.108360,0.005524,0.433718,-0.167109,0.016861,0.911333,-0.690869,0.453940,7.743078,-0.853933,-1.849927,-0.017045,-0.044259,0.000000,-0.071175,-0.094911,-0.000000
1.530000,-1.596846,-1.110082,-1.432195,0.798740,1.106654,0.005715,0.443217,-0.174064,0.021308,0.988049,-0.700467,0.435505,7.596193,-1.064485,-1.834208,-0.017762,-0.045248,0.000000,-0.072170,-0.102725,0.000000
1.540000,-1.588837,-1.099024,-1.432137,0.803223,1.104878,0.005949,0.453476,-0.181125,0.025569,1.063952,-0.712164,0.416501,7.619077,-1.275095,-2.004094,-0.018490,-0.046314,0.000000,-0.073375,-0.110456,-0.000000
1.550000,-1.580782,-1.087985,-1.432076,0.807812,1.103031,0.006225,0.464497,-0.188314,0.029631,1.140061,-0.725930,0.395787,7.561857,-1.474774,-2.097767,-0.019230,-0.047457,0.000000,-0.074782,-0.118200,-0.000000
1.560000,-1.572680,-1.076964,-1.432012,0.812516,1.101112,0.006541,0.476274,-0.195650,0.033484,1.215081,-0.741534,0.374579,7.484697,-1.663166,-2.179595,-0.019986,-0.048678,0.000000,-0.076371,-0.125828,-0.000000
1.570000,-1.564531,-1.065963,-1.431945,0.817340,1.099118,0.006894,0.488800,-0.203152,0.037117,1.290117,-0.759332,0.351883,7.475571,-1.876543,-2.321409,-0.020758,-0.049974,0.000000,-0.078176,-0.133448,0.000000
1.580000,-1.556333,-1.054982,-1.431874,0.822294,1.097048,0.007283,0.502070,-0.210841,0.040521,1.363610,-0.778648,0.328949,7.218871,-1.984246,-2.262650,-0.021550,-0.051347,0.000000,-0.080129,-0.140904,0.000000
1.590000,-1.548085,-1.044022,-1.431799,0.827384,1.094900,0.007704,0.516065,-0.218730,0.043696,1.435330,-0.799346,0.305928,7.166989,-2.171730,-2.376618,-0.022361,-0.052792,0.000000,-0.082218,-0.148172,-0.000000
1.600000,-1.539785,-1.033084,-1.431720,0.832618,1.092673,0.008156,0.530776,-0.226835,0.046635,1.506517,-0.821884,0.281769,7.023091,-2.315781,-2.417500,-0.023195,-0.054311,0.000000,-0.084484,-0.155371,0.000000
1.610000,-1.531432,-1.022169,-1.431636,0.838002,1.090363,0.008636,0.546189,-0.235171,0.049332,1.575726,-0.845518,0.257594,6.860620,-2.444282,-2.447201,-0.024051,-0.055900,0.000000,-0.086856,-0.162358,-0.000000
1.620000,-1.523024,-1.011277,-1.431547,0.843544,1.087968,0.009142,0.562288,-0.243752,0.051784,1.644087,-0.871052,0.232570,6.765620,-2.625754,-2.525425,-0.024933,-0.057558,0.000000,-0.089411,-0.169241,-0.000000
1.630000,-1.514560,-1.000410,-1.431453,0.849250,1.085487,0.009671,0.579062,-0.252594,0.053984,1.710075,-0.897262,0.207759,6.427981,-2.612818,-2.434025,-0.025840,-0.059285,0.000000,-0.092028,-0.175870,0.000000
1.640000,-1.506039,-0.989568,-1.431353,0.855127,1.082916,0.010221,0.596481,-0.261699,0.055940,1.773473,-0.923957,0.183306,6.292824,-2.758508,-2.485743,-0.026773,-0.061076,0.000000,-0.094686,-0.182221,0.000000
1.650000,-1.497457,-0.978752,-1.431248,0.861182,1.080252,0.010789,0.614528,-0.271078,0.057648,1.835508,-0.952088,0.158337,6.068313,-2.830215,-2.475534,-0.027734,-0.062930,0.000000,-0.097479,-0.188414,-0.000000
1.660000,-1.488814,-0.967963,-1.431138,0.867420,1.077493,0.011373,0.633182,-0.280740,0.059109,1.894885,-0.980415,0.133795,5.829264,-2.882896,-2.454876,-0.028723,-0.064845,0.000000,-0.100284,-0.194320,0.000000
1.670000,-1.480108,-0.957202,-1.431021,0.873847,1.074636,0.011970,0.652419,-0.290692,0.060323,1.952273,-1.010156,0.109055,5.622113,-3.013897,-2.468779,-0.029740,-0.066817,0.000000,-0.103221,-0.200004,0.000000
1.680000,-1.471337,-0.946470,-1.430898,0.880470,1.071678,0.012578,0.672218,-0.300942,0.061292,2.006779,-1.039612,0.084931,5.276180,-2.872880,-2.353816,-0.030787,-0.068846,0.000000,-0.106120,-0.205377,0.000000
1.690000,-1.462498,-0.935769,-1.430769,0.887293,1.068616,0.013195,0.692545,-0.311482,0.062024,2.058236,-1.068549,0.061546,5.037144,-2.961109,-2.344752,-0.031862,-0.070926,0.000000,-0.108956,-0.210424,0.000000
1.700000,-1.453590,-0.925098,-1.430634,0.894323,1.065448,0.013818,0.713375,-0.322317,0.062523,2.107274,-1.098359,0.038261,4.744383,-2.948947,-2.287872,-0.032967,-0.073055,0.000000,-0.111869,-0.215204,-0.000000
1.710000,-1.444611,-0.914460,-1.430493,0.901563,1.062169,0.014445,0.734679,-0.333446,0.062792,2.153129,-1.127400,0.015790,4.439479,-2.916108,-2.221726,-0.034099,-0.075231,0.000000,-0.114693,-0.219643,-0.000000
1.720000,-1.435558,-0.903855,-1.430345,0.909018,1.058778,0.015073,0.756428,-0.344868,0.062840,2.196165,-1.157167,-0.006294,4.151078,-2.977117,-2.177975,-0.035261,-0.077450,0.000000,-0.117580,-0.223775,-0.000000
1.730000,-1.426430,-0.893285,-1.430192,0.916692,1.055271,0.015701,0.778591,-0.356585,0.062670,2.235806,-1.185680,-0.027412,3.774886,-2.720814,-2.044008,-0.036451,-0.079708,0.000000,-0.120329,-0.227548,-0.000000
1.740000,-1.417224,-0.882750,-1.430031,0.924591,1.051645,0.016326,0.801132,-0.368577,0.062295,2.271924,-1.212689,-0.047467,3.461864,-2.736015,-1.981599,-0.037667,-0.082002,0.000000,-0.122916,-0.230947,-0.000000
1.750000,-1.407937,-0.872253,-1.429865,0.932716,1.047898,0.016946,0.824019,-0.380840,0.061722,2.304883,-1.239853,-0.066885,3.113728,-2.636116,-1.885021,-0.038909,-0.084329,0.000000,-0.125507,-0.234009,-0.000000
1.760000,-1.398569,-0.861793,-1.429692,0.941072,1.044027,0.017560,0.847218,-0.393367,0.060961,2.334232,-1.265318,-0.085169,2.756939,-2.516254,-1.781395,-0.040176,-0.086685,0.000000,-0.127916,-0.236693,0.000000
1.770000,-1.389115,-0.851373,-1.429514,0.949662,1.040030,0.018165,0.870692,-0.406147,0.060022,2.360015,-1.290693,-0.102592,2.395805,-2.495863,-1.691566,-0.041467,-0.089066,0.000000,-0.130307,-0.239000,0.000000
1.780000,-1.379575,-0.840993,-1.429329,0.958487,1.035904,0.018760,0.894406,-0.419174,0.058914,2.382073,-1.313919,-0.118759,2.014391,-2.144662,-1.540569,-0.042782,-0.091468,0.000000,-0.132472,-0.240921,-0.000000
1.790000,-1.369945,-0.830655,-1.429139,0.967550,1.031646,0.019342,0.918321,-0.432417,0.057651,2.400323,-1.334751,-0.133597,1.636891,-2.080045,-1.436709,-0.044116,-0.093887,0.000000,-0.134386,-0.242450,-0.000000
1.800000,-1.360223,-0.820360,-1.428942,0.976854,1.027255,0.019912,0.942400,-0.445867,0.056245,2.414768,-1.354950,-0.147386,1.248511,-1.896845,-1.309573,-0.045469,-0.096320,0.000000,-0.136230,-0.243585,0.000000
1.810000,-1.350407,-0.810110,-1.428740,0.986399,1.022728,0.020467,0.966603,-0.459507,0.054708,2.425327,-1.372636,-0.159782,0.854600,-1.696247,-1.177231,-0.046840,-0.098763,0.000000,-0.137815,-0.244324,0.000000
1.820000,-1.340494,-0.799906,-1.428533,0.996186,1.018064,0.021006,0.990892,-0.473318,0.053053,2.431770,-1.389364,-0.170992,0.440430,-1.590502,-1.055900,-0.048225,-0.101211,0.000000,-0.139298,-0.244644,0.000000
1.830000,-1.330482,-0.789749,-1.428320,1.006217,1.013261,0.021528,1.015226,-0.487284,0.051293,2.434274,-1.403210,-0.180717,0.059802,-1.174746,-0.888358,-0.049624,-0.103660,0.000000,-0.140487,-0.244568,0.000000
1.840000,-1.320369,-0.779641,-1.428103,1.016491,1.008318,0.022031,1.039565,-0.501371,0.049444,2.432799,-1.413962,-0.188910,-0.363085,-1.030647,-0.757678,-0.051034,-0.106107,0.000000,-0.141363,-0.244096,0.000000
1.850000,-1.310151,-0.769584,-1.427880,1.027008,1.003233,0.022516,1.063867,-0.515560,0.047519,2.427063,-1.423297,-0.195791,-0.777415,-0.777243,-0.609945,-0.052451,-0.108547,0.000000,-0.142097,-0.243199,0.000000
1.860000,-1.299828,-0.759577,-1.427652,1.037768,0.998006,0.022982,1.088092,-0.529826,0.045534,2.417270,-1.429488,-0.201096,-1.194626,-0.510286,-0.459044,-0.053875,-0.110976,0.000000,-0.142516,-0.241903,-0.000000
1.870000,-1.289395,-0.749624,-1.427420,1.048769,0.992637,0.023427,1.112198,-0.544145,0.043502,2.403041,-1.433937,-0.205042,-1.639204,-0.328274,-0.321651,-0.055301,-0.113390,0.000000,-0.142763,-0.240171,-0.000000
1.880000,-1.278852,-0.739725,-1.427184,1.060011,0.987123,0.023852,1.136140,-0.558493,0.041438,2.384739,-1.434979,-0.207350,-2.021199,0.122937,-0.139527,-0.056729,-0.115786,0.000000,-0.142674,-0.238046,-0.000000
1.890000,-1.268194,-0.729882,-1.426943,1.071491,0.981467,0.024256,1.159879,-0.572832,0.039360,2.362357,-1.432453,-0.207994,-2.468333,0.333583,0.002690,-0.058153,-0.118158,0.000000,-0.142234,-0.235530,0.000000
1.900000,-1.257421,-0.720096,-1.426699,1.083208,0.975667,0.024639,1.183372,-0.587136,0.037283,2.335474,-1.427852,-0.207221,-2.895910,0.637333,0.159984,-0.059573,-0.120503,0.000000,-0.141595,-0.232582,0.000000
1.910000,-1.246529,-0.710369,-1.426451,1.095158,0.969724,0.025001,1.206575,-0.601377,0.035222,2.304438,-1.419748,-0.204780,-3.324275,0.948508,0.318166,-0.060984,-0.122816,0.000000,-0.140617,-0.229241,0.000000
1.920000,-1.235517,-0.700702,-1.426199,1.107338,0.963640,0.025343,1.229445,-0.615524,0.033192,2.268866,-1.409195,-0.200951,-3.777729,1.197962,0.457365,-0.062385,-0.125095,0.000000,-0.139408,-0.225470,-0.000000
1.930000,-1.224382,-0.691097,-1.425944,1.119746,0.957414,0.025665,1.251938,-0.629549,0.031208,2.229145,-1.395038,-0.195430,-4.166271,1.635116,0.647058,-0.063771,-0.127333,0.000000,-0.137853,-0.221313,-0.000000
1.940000,-1.213121,-0.681554,-1.425686,1.132376,0.951049,0.025968,1.274014,-0.643412,0.029289,2.185287,-1.377189,-0.188212,-4.617806,1.899912,0.786365,-0.065140,-0.129529,0.000000,-0.135947,-0.216775,0.000000
1.950000,-1.201734,-0.672076,-1.425425,1.145224,0.944547,0.026251,1.295629,-0.657084,0.027448,2.136897,-1.356732,-0.179625,-5.047610,2.227017,0.940579,-0.066489,-0.131676,0.000000,-0.133800,-0.211815,0.000000
1.960000,-1.190216,-0.662664,-1.425161,1.158287,0.937908,0.026517,1.316738,-0.670534,0.025702,2.084296,-1.332751,-0.169391,-5.477417,2.554392,1.093684,-0.067815,-0.133773,0.000000,-0.131323,-0.206471,0.000000
1.970000,-1.178567,-0.653318,-1.424894,1.171557,0.931137,0.026766,1.337300,-0.683730,0.024065,2.027292,-1.305787,-0.157861,-5.917352,2.853241,1.222624,-0.069115,-0.135814,0.000000,-0.128570,-0.200722,-0.000000
1.980000,-1.166784,-0.644042,-1.424625,1.185031,0.924235,0.026999,1.357270,-0.696639,0.022550,1.966079,-1.275378,-0.144721,-6.324836,3.228588,1.405135,-0.070386,-0.137796,0.000000,-0.125499,-0.194593,-0.000000
1.990000,-1.154866,-0.634834,-1.424354,1.198701,0.917205,0.027217,1.376608,-0.709226,0.021176,1.900681,-1.241524,-0.129992,-6.760451,3.526684,1.528836,-0.071624,-0.139714,0.000000,-0.122111,-0.188088,-0.000000
2.000000,-1.142810,-0.625698,-1.424081,1.212561,0.910051,0.027423,1.395269,-0.721460,0.019954,1.830928,-1.204728,-0.114064,-7.183741,3.846649,1.666779,-0.072827,-0.141566,0.000000,-0.118456,-0.181187,-0.000000
2.010000,-1.130614,-0.616634,-1.423806,1.226604,0.902777,0.027617,1.413212,-0.733309,0.018900,1.756937,-1.164696,-0.096679,-7.605852,4.160459,1.799766,-0.073992,-0.143346,0.000000,-0.114508,-0.173907,0.000000
2.020000,-1.118277,-0.607643,-1.423529,1.240822,0.895387,0.027801,1.430394,-0.744743,0.018024,1.678896,-1.121524,-0.078175,-8.009677,4.471193,1.909135,-0.075116,-0.145052,0.000000,-0.110274,-0.166262,-0.000000
2.030000,-1.105797,-0.598726,-1.423250,1.255209,0.887884,0.027978,1.446776,-0.755730,0.017341,1.596586,-1.075331,-0.058324,-8.451990,4.766157,2.060289,-0.076197,-0.146680,0.000000,-0.105770,-0.158235,0.000000
2.040000,-1.093172,-0.589885,-1.422969,1.269755,0.880273,0.028149,1.462312,-0.766240,0.016862,1.510031,-1.026197,-0.037180,-8.850442,5.060579,2.157911,-0.077231,-0.148225,0.000000,-0.101003,-0.149827,-0.000000
2.050000,-1.080401,-0.581121,-1.422687,1.284452,0.872561,0.028316,1.476963,-0.776244,0.016600,1.419523,-0.974165,-0.015113,-9.258406,5.342468,2.263469,-0.078216,-0.149684,0.000000,-0.095976,-0.141063,-0.000000
2.060000,-1.067483,-0.572434,-1.422403,1.299291,0.864750,0.028481,1.490688,-0.785714,0.016564,1.324818,-0.919447,0.008033,-9.663401,5.612096,2.360860,-0.079149,-0.151054,0.000000,-0.090712,-0.131921,-0.000000
2.070000,-1.054415,-0.563826,-1.422117,1.314263,0.856848,0.028648,1.503448,-0.794623,0.016763,1.226439,-0.861844,0.032056,-10.029254,5.893824,2.444575,-0.080029,-0.152330,0.000000,-0.085187,-0.122447,-0.000000
2.080000,-1.041197,-0.555298,-1.421830,1.329357,0.848860,0.028818,1.515203,-0.802943,0.017208,1.123881,-0.801880,0.056939,-10.481888,6.096276,2.530305,-0.080852,-0.153509,0.000000,-0.079455,-0.112592,-0.000000
2.090000,-1.027828,-0.546849,-1.421541,1.344563,0.840791,0.028993,1.525911,-0.810653,0.017905,1.017178,-0.739711,0.082583,-10.839752,6.347639,2.594591,-0.081618,-0.154588,0.000000,-0.073530,-0.102356,-0.000000
2.100000,-1.014306,-0.538482,-1.421250,1.359871,0.832649,0.029177,1.535535,-0.817729,0.018861,0.906955,-0.675087,0.108808,-11.221318,6.561842,2.651325,-0.082322,-0.155562,0.000000,-0.067383,-0.091796,0.000000
2.110000,-1.000630,-0.530197,-1.420957,1.375270,0.824439,0.029371,1.544039,-0.824153,0.020082,0.793173,-0.609467,0.135501,-11.588584,6.740285,2.695374,-0.082965,-0.156429,0.000000,-0.061158,-0.080904,0.000000
2.120000,-0.986800,-0.521994,-1.420663,1.390748,0.816168,0.029579,1.551382,-0.829898,0.021573,0.674704,-0.538674,0.162768,-12.050905,7.239945,2.746155,-0.083543,-0.157184,0.000000,-0.054437,-0.069567,0.000000
2.130000,-0.972815,-0.513874,-1.420366,1.406294,0.807843,0.029803,1.557523,-0.834930,0.023338,0.553297,-0.468411,0.190174,-12.227635,6.804204,2.732500,-0.084054,-0.157824,0.000000,-0.047786,-0.057950,0.000000
2.140000,-0.958674,-0.505837,-1.420067,1.421895,0.799472,0.030047,1.562439,-0.839271,0.025377,0.429102,-0.399097,0.217573,-12.663646,7.232846,2.754821,-0.084500,-0.158346,0.000000,-0.041240,-0.046062,0.000000
2.150000,-0.944377,-0.497884,-1.419765,1.437538,0.791060,0.030312,1.566090,-0.842893,0.027690,0.300510,-0.325319,0.245143,-13.000304,7.343367,2.746513,-0.084877,-0.158747,0.000000,-0.034261,-0.033742,-0.000000
2.160000,-0.929923,-0.490016,-1.419460,1.453212,0.782616,0.030601,1.568434,-0.845773,0.030278,0.167625,-0.250176,0.272320,-13.356352,7.470710,2.720322,-0.085184,-0.159022,0.000000,-0.027150,-0.020988,0.000000
2.170000,-0.915312,-0.482232,-1.419153,1.468903,0.774147,0.030918,1.569448,-0.847910,0.033138,0.035429,-0.177912,0.299810,-13.293512,7.183927,2.742292,-0.085422,-0.159169,0.000000,-0.020330,-0.008301,-0.000000
2.180000,-0.900545,-0.474533,-1.418842,1.484597,0.765661,0.031265,1.569121,-0.849318,0.036271,-0.102671,-0.102256,0.326425,-14.331299,7.950257,2.577070,-0.085590,-0.159186,0.000000,-0.013168,0.004995,-0.000000
2.190000,-0.885621,-0.466919,-1.418527,1.500280,0.757164,0.031645,1.567373,-0.849942,0.039663,-0.246858,-0.023128,0.351962,-14.289449,7.664566,2.560789,-0.085684,-0.159066,0.000000,-0.005652,0.018928,0.000000
2.200000,-0.870539,-0.459390,-1.418209,1.515939,0.748664,0.032059,1.564191,-0.849795,0.043310,-0.390239,0.052719,0.377306,-14.597948,7.707401,2.472075,-0.085704,-0.158807,0.000000,0.001546,0.032804,0.000000
2.210000,-0.855302,-0.451945,-1.417886,1.531559,0.740170,0.032512,1.559554,-0.848886,0.047204,-0.537439,0.128988,0.401209,-14.873845,7.696106,2.362456,-0.085652,-0.158406,0.000000,0.008805,0.047105,-0.000000
2.220000,-0.839908,-0.444586,-1.417558,1.547125,0.731689,0.033004,1.553430,-0.847204,0.051335,-0.687978,0.207972,0.425021,-15.197793,7.947456,2.341966,-0.085527,-0.157860,0.000000,0.016346,0.061769,-0.000000
2.230000,-0.824360,-0.437312,-1.417226,1.562623,0.723229,0.033539,1.545788,-0.844735,0.055697,-0.840635,0.284721,0.446837,-15.329405,7.393399,2.016638,-0.085326,-0.157165,0.000000,0.023694,0.076708,0.000000
2.240000,-0.808656,-0.430122,-1.416887,1.578036,0.714797,0.034119,1.536611,-0.841519,0.060264,-0.995180,0.358771,0.466409,-15.610226,7.562815,1.950548,-0.085054,-0.156320,0.000000,0.030807,0.091908,0.000000
2.250000,-0.792799,-0.423016,-1.416543,1.593350,0.706401,0.034745,1.525875,-0.837551,0.065024,-1.152484,0.434611,0.485321,-15.813658,7.450712,1.773184,-0.084709,-0.155319,0.000000,0.038124,0.107436,0.000000
2.260000,-0.776790,-0.415993,-1.416192,1.608548,0.698048,0.035420,1.513559,-0.832842,0.069961,-1.310890,0.506743,0.501665,-15.984976,7.286905,1.573105,-0.084293,-0.154163,0.000000,0.045113,0.123161,0.000000
2.270000,-0.760629,-0.409054,-1.415835,1.623616,0.689747,0.036145,1.499642,-0.827397,0.075057,-1.473222,0.583168,0.517465,-16.360494,7.687628,1.506206,-0.083805,-0.152846,0.000000,0.052561,0.139336,0.000000
2.280000,-0.744318,-0.402198,-1.415469,1.638536,0.681503,0.036921,1.484095,-0.821200,0.080299,-1.635563,0.653983,0.530096,-16.100282,6.461790,1.014674,-0.083243,-0.151366,0.000000,0.059499,0.155616,-0.000000
2.290000,-0.727859,-0.395424,-1.415096,1.653292,0.673325,0.037751,1.466933,-0.814340,0.085647,-1.797524,0.718521,0.539281,-16.406260,6.751168,0.898391,-0.082617,-0.149723,0.000000,0.065863,0.171967,-0.000000
2.300000,-0.711253,-0.388732,-1.414714,1.667869,0.665218,0.038635,1.448132,-0.806813,0.091082,-1.962605,0.786307,0.547341,-16.488062,6.494239,0.632462,-0.081924,-0.147913,0.000000,0.072591,0.188707,-0.000000
2.310000,-0.694502,-0.382120,-1.414323,1.682249,0.657191,0.039573,1.427676,-0.798624,0.096580,-2.128863,0.851235,0.551719,-16.573797,6.261038,0.344354,-0.081166,-0.145935,0.000000,0.079092,0.205681,-0.000000
2.320000,-0.677608,-0.375587,-1.413922,1.696417,0.649248,0.040566,1.405568,-0.789815,0.102115,-2.292290,0.909373,0.555133,-16.287279,5.583206,0.235339,-0.080345,-0.143787,0.000000,0.084950,0.222449,0.000000
2.330000,-0.660574,-0.369134,-1.413512,1.710355,0.641396,0.041615,1.381820,-0.780435,0.107668,-2.458299,0.967452,0.554263,-16.915656,6.036064,-0.414747,-0.079467,-0.141470,0.000000,0.090866,0.239602,-0.000000
2.340000,-0.643402,-0.362759,-1.413090,1.724048,0.633641,0.042720,1.356392,-0.770464,0.113185,-2.626866,1.025574,0.548831,-16.611173,5.362821,-0.572215,-0.078527,-0.138978,0.000000,0.096852,0.257141,-0.000000
2.350000,-0.626094,-0.356461,-1.412657,1.737477,0.625989,0.043879,1.329298,-0.759952,0.118642,-2.791969,1.076525,0.541917,-16.585129,5.045575,-0.914250,-0.077532,-0.136313,0.000000,0.102157,0.274414,0.000000
2.360000,-0.608653,-0.350239,-1.412212,1.750628,0.618444,0.045092,1.300553,-0.748946,0.124007,-2.956764,1.123793,0.530453,-16.501286,4.664997,-1.273263,-0.076485,-0.133473,0.000000,0.107153,0.291777,-0.000000
2.370000,-0.591083,-0.344092,-1.411755,1.763483,0.611011,0.046359,1.270155,-0.737468,0.129247,-3.123107,1.172155,0.517404,-16.633054,4.751644,-1.442140,-0.075388,-0.130459,0.000000,0.112300,0.309375,-0.000000
2.380000,-0.573385,-0.338018,-1.411285,1.776026,0.603696,0.047677,1.238101,-0.725528,0.134337,-3.286610,1.213460,0.499399,-16.057747,3.498472,-2.163497,-0.074242,-0.127269,0.000000,0.116795,0.326805,0.000000
2.390000,-0.555563,-0.332018,-1.410801,1.788240,0.596502,0.049045,1.204435,-0.713226,0.139217,-3.446753,1.247178,0.476212,-16.095159,3.497547,-2.370098,-0.073055,-0.123906,0.000000,0.120581,0.344006,0.000000
2.400000,-0.537621,-0.326088,-1.410304,1.800109,0.589433,0.050460,1.169163,-0.700579,0.143857,-3.607292,1.281193,0.451085,-15.877034,3.048604,-2.760688,-0.071829,-0.120370,0.000000,0.124431,0.361310,-0.000000
2.410000,-0.519562,-0.320228,-1.409792,1.811618,0.582492,0.051921,1.132303,-0.687628,0.148221,-3.764173,1.308199,0.421033,-15.617717,2.576941,-3.158424,-0.070569,-0.116662,0.000000,0.127619,0.378334,-0.000000
2.420000,-0.501390,-0.314438,-1.409265,1.822750,0.575681,0.053424,1.093878,-0.674413,0.152272,-3.920674,1.334775,0.388772,-15.555346,2.516942,-3.384585,-0.069277,-0.112784,0.000000,0.130792,0.395368,0.000000
2.430000,-0.483109,-0.308714,-1.408723,1.833490,0.569004,0.054965,1.053906,-0.660959,0.155979,-4.072620,1.353896,0.351437,-14.824004,1.299024,-4.085277,-0.067955,-0.108737,0.000000,0.133250,0.412009,0.000000
2.440000,-0.464722,-0.303057,-1.408166,1.843823,0.562462,0.056542,1.012444,-0.647363,0.159283,-4.219479,1.365176,0.308904,-14.663848,1.177936,-4.329412,-0.066614,-0.104526,0.000000,0.134947,0.428186,0.000000
2.450000,-0.446233,-0.297465,-1.407592,1.853734,0.556057,0.058149,0.969519,-0.633655,0.162151,-4.364738,1.375558,0.264078,-14.260018,0.676947,-4.725741,-0.065256,-0.100154,0.000000,0.136567,0.444212,0.000000
2.460000,-0.427648,-0.291936,-1.407003,1.863209,0.549790,0.059783,0.925168,-0.619875,0.164548,-4.504603,1.379559,0.214581,-13.815319,0.182337,-5.116967,-0.063885,-0.095625,0.000000,0.137561,0.459707,0.000000
2.470000,-0.408971,-0.286468,-1.406397,1.872233,0.543660,0.061439,0.879434,-0.606075,0.166434,-4.641920,1.379753,0.162275,-13.536849,-0.200394,-5.396837,-0.062506,-0.090942,0.000000,0.138173,0.474928,0.000000
2.480000,-0.390205,-0.281062,-1.405774,1.880793,0.537668,0.063110,0.832352,-0.592299,0.167778,-4.773012,1.374365,0.105544,-12.672346,-0.877883,-5.949303,-0.061124,-0.086110,0.000000,0.138230,0.489496,-0.000000
2.490000,-0.371357,-0.275715,-1.405134,1.888876,0.531814,0.064792,0.783997,-0.578607,0.168530,-4.897375,1.363377,0.044420,-12.300422,-1.260590,-6.218891,-0.059744,-0.081137,0.000000,0.137721,0.503341,-0.000000
2.500000,-0.352429,-0.270425,-1.404478,1.896469,0.526095,0.066479,0.734415,-0.565042,0.168659,-5.018003,1.348696,-0.019251,-11.713443,-1.731038,-6.566909,-0.058371,-0.076027,0.000000,0.136828,0.516735,0.000000
2.510000,-0.333429,-0.265192,-1.403805,1.903560,0.520512,0.068163,0.683659,-0.551632,0.168133,-5.132060,1.333165,-0.086542,-11.097754,-2.104392,-6.894460,-0.057007,-0.070787,0.000000,0.135846,0.529378,-0.000000
2.520000,-0.314360,-0.260014,-1.403115,1.910138,0.515062,0.069839,0.631794,-0.538451,0.166917,-5.239896,1.299922,-0.157135,-10.458285,-3.832568,-7.214993,-0.055661,-0.065424,0.000000,0.133031,0.541285,0.000000
2.530000,-0.295228,-0.254891,-1.402408,1.916192,0.509742,0.071499,0.578884,-0.525612,0.164980,-5.340998,1.271454,-0.230648,-9.756368,-1.836812,-7.483784,-0.054344,-0.059947,0.000000,0.130696,0.552383,-0.000000
2.540000,-0.276038,-0.249819,-1.401685,1.921713,0.504549,0.073136,0.524998,-0.512996,0.162295,-5.435022,1.248867,-0.306855,-9.048435,-3.395336,-7.759635,-0.053045,-0.054363,0.000000,0.128953,0.562619,-0.000000
2.550000,-0.256795,-0.244799,-1.400946,1.926689,0.499481,0.074742,0.470207,-0.500703,0.158834,-5.521810,1.209665,-0.385705,-8.298147,-3.729361,-8.000195,-0.051772,-0.048682,0.000000,0.125478,0.571959,-0.000000
2.560000,-0.237506,-0.239829,-1.400190,1.931114,0.494534,0.076310,0.414596,-0.488813,0.154576,-5.598994,1.167202,-0.466340,-7.477791,-4.165947,-8.204908,-0.050536,-0.042913,0.000000,0.121644,0.580142,-0.000000
2.570000,-0.218175,-0.234908,-1.399419,1.934979,0.489703,0.077831,0.358227,-0.477325,0.149494,-5.674434,1.131860,-0.550469,-7.271027,-3.478699,-8.535528,-0.049336,-0.037065,0.000000,0.118530,0.587972,0.000000
2.580000,-0.198808,-0.230035,-1.398634,1.938276,0.484986,0.079297,0.301151,-0.466217,0.143565,-5.737300,1.085529,-0.635260,-5.287189,-5.803401,-8.414948,-0.048170,-0.031144,0.000000,0.114253,0.594308,0.000000
2.590000,-0.179411,-0.225208,-1.397834,1.941000,0.480377,0.080700,0.243528,-0.455658,0.136789,-5.786853,1.027532,-0.720286,-4.956597,-5.209925,-8.665745,-0.047055,-0.025170,0.000000,0.108745,0.599066,-0.000000
2.600000,-0.159990,-0.220427,-1.397020,1.943145,0.475871,0.082030,0.185418,-0.445633,0.129149,-5.833487,0.976428,-0.807769,-4.029919,-5.589762,-8.744514,-0.045992,-0.019151,0.000000,0.103931,0.603318,0.000000
2.610000,-0.140550,-0.215690,-1.396193,1.944707,0.471463,0.083280,0.126903,-0.436159,0.120637,-5.867904,0.917674,-0.894650,-3.078216,-5.937838,-8.776110,-0.044980,-0.013096,0.000000,0.098300,0.606094,-0.000000
2.620000,-0.121098,-0.210997,-1.395355,1.945682,0.467146,0.084440,0.068074,-0.427273,0.111244,-5.897088,0.859766,-0.984554,-2.534720,-5.852956,-9.052319,-0.044025,-0.007019,0.000000,0.092749,0.608118,0.000000
2.630000,-0.101639,-0.206347,-1.394505,1.946068,0.462915,0.085502,0.009004,-0.418984,0.100954,-5.913905,0.796222,-1.072501,-0.819487,-6.858098,-8.526250,-0.043127,-0.000927,0.000000,0.086590,0.608648,-0.000000
2.640000,-0.082179,-0.201739,-1.393645,1.945862,0.458764,0.086456,-0.050160,-0.411369,0.089803,-5.917915,0.727013,-1.157905,-0.204348,-6.763391,-8.695352,-0.042295,0.005160,0.000000,0.079824,0.607652,0.000000
2.650000,-0.062723,-0.197172,-1.392776,1.945064,0.454686,0.087295,-0.109339,-0.404436,0.077787,-5.916069,0.659232,-1.245023,0.797147,-7.001699,-8.574504,-0.041530,0.011234,0.000000,0.073205,0.605849,0.000000
2.660000,-0.043279,-0.192645,-1.391900,1.943675,0.450673,0.088009,-0.168447,-0.398175,0.064916,-5.903889,0.593102,-1.328922,1.773814,-7.094733,-8.400357,-0.040830,0.017284,0.000000,0.066738,0.602792,-0.000000
2.670000,-0.023852,-0.188158,-1.391016,1.941696,0.446720,0.088590,-0.227373,-0.392647,0.051199,-5.879353,0.509393,-1.414754,3.003037,-8.791282,-8.563229,-0.040203,0.023295,0.000000,0.058482,0.598280,0.000000
2.680000,-0.004447,-0.183710,-1.390128,1.939129,0.442817,0.089030,-0.286007,-0.387949,0.036637,-5.846572,0.435240,-1.495936,3.548483,-6.006993,-7.660110,-0.039657,0.029256,0.000000,0.051196,0.592761,-0.000000
2.690000,0.014929,-0.179301,-1.389236,1.935977,0.438959,0.089320,-0.344279,-0.383899,0.021299,-5.805759,0.372163,-1.571788,4.744834,-7.461466,-7.701483,-0.039174,0.035157,0.000000,0.045029,0.586285,0.000000
2.700000,0.034270,-0.174931,-1.388342,1.932245,0.435137,0.089454,-0.402080,-0.380573,0.005196,-5.752818,0.293404,-1.648147,5.710884,-7.429705,-7.366715,-0.038763,0.040985,0.000000,0.037283,0.578433,0.000000
2.710000,0.053572,-0.170599,-1.387448,1.927937,0.431344,0.089422,-0.459309,-0.378028,-0.011642,-5.691485,0.215204,-1.718756,6.663581,-7.500695,-6.979309,-0.038428,0.046731,0.000000,0.029597,0.569633,-0.000000
2.720000,0.072827,-0.166304,-1.386554,1.923061,0.427574,0.089218,-0.515869,-0.376214,-0.029184,-5.618577,0.149973,-1.789727,7.809493,-6.223747,-6.984565,-0.038165,0.052382,0.000000,0.023254,0.559557,-0.000000
2.730000,0.092031,-0.162047,-1.385664,1.917623,0.423818,0.088836,-0.571654,-0.375061,-0.047411,-5.537577,0.076487,-1.853621,8.384500,-8.489218,-5.781088,-0.037967,0.057927,0.000000,0.016075,0.548621,-0.000000
2.740000,0.111178,-0.157828,-1.384778,1.911631,0.420070,0.088268,-0.626595,-0.374719,-0.066229,-5.448788,-0.005866,-1.909757,9.477999,-7.285362,-5.666408,-0.037847,0.063360,0.000000,0.008008,0.536892,-0.000000
2.750000,0.130262,-0.153646,-1.383899,1.905094,0.416321,0.087510,-0.680591,-0.375122,-0.085607,-5.348992,-0.074955,-1.964909,10.370867,-7.213677,-5.133309,-0.037801,0.068669,0.000000,0.001315,0.524030,-0.000000
2.760000,0.149278,-0.149501,-1.383029,1.898022,0.412565,0.086554,-0.733544,-0.376208,-0.105499,-5.240064,-0.141306,-2.012401,11.265977,-6.957773,-4.559522,-0.037820,0.073845,0.000000,-0.005096,0.510297,0.000000
2.770000,0.168221,-0.145394,-1.382169,1.890427,0.408795,0.085398,-0.785375,-0.378013,-0.125852,-5.125085,-0.222332,-2.057834,11.866485,-8.360197,-4.328261,-0.037909,0.078881,0.000000,-0.012945,0.495988,0.000000
2.780000,0.187085,-0.141325,-1.381322,1.882319,0.405002,0.084036,-0.836011,-0.380603,-0.146626,-4.999865,-0.289890,-2.094801,13.177191,-5.117850,-3.054420,-0.038074,0.083769,0.000000,-0.019432,0.480758,-0.000000
2.790000,0.205865,-0.137294,-1.380489,1.873711,0.401181,0.082464,-0.885337,-0.383753,-0.167716,-4.864486,-0.342393,-2.122756,13.751493,-6.266339,-2.728114,-0.038292,0.088500,0.000000,-0.024414,0.464656,-0.000000
2.800000,0.224557,-0.133302,-1.379673,1.864617,0.397325,0.080681,-0.933285,-0.387509,-0.189074,-4.723736,-0.407557,-2.147622,14.534638,-5.874887,-2.046220,-0.038568,0.093068,0.000000,-0.030635,0.448130,0.000000
2.810000,0.243156,-0.129348,-1.378876,1.855050,0.393429,0.078682,-0.979788,-0.391870,-0.210638,-4.575689,-0.464121,-2.163869,15.253410,-5.503153,-1.340093,-0.038901,0.097467,0.000000,-0.035996,0.431062,-0.000000
2.820000,0.261657,-0.125433,-1.378100,1.845026,0.389486,0.076468,-1.024761,-0.396784,-0.232339,-4.417094,-0.518177,-2.175651,16.280146,-5.236037,-0.877673,-0.039287,0.101692,0.000000,-0.041095,0.413115,-0.000000
2.830000,0.280055,-0.121559,-1.377347,1.834560,0.385491,0.074035,-1.068116,-0.402217,-0.254120,-4.253978,-0.567338,-2.178519,16.330605,-4.590453,0.310740,-0.039721,0.105735,0.000000,-0.045715,0.394950,-0.000000
2.840000,0.298347,-0.117724,-1.376620,1.823669,0.381440,0.071385,-1.109829,-0.408113,-0.275877,-4.086995,-0.611290,-2.172146,17.239849,-4.265210,0.828254,-0.040199,0.109597,0.000000,-0.049834,0.376652,-0.000000
2.850000,0.316527,-0.113930,-1.375920,1.812369,0.377328,0.068518,-1.149822,-0.414433,-0.297549,-3.910862,-0.652001,-2.160758,17.799217,-3.805913,1.587315,-0.040717,0.113272,0.000000,-0.053636,0.357677,-0.000000
2.860000,0.334593,-0.110177,-1.375250,1.800679,0.373150,0.065435,-1.188042,-0.421151,-0.319063,-3.732475,-0.691167,-2.140776,18.280247,-3.404017,2.349709,-0.041272,0.116757,0.000000,-0.057304,0.338749,-0.000000
2.870000,0.352539,-0.106467,-1.374612,1.788615,0.368903,0.062138,-1.224423,-0.428192,-0.340344,-3.541641,-0.714320,-2.114309,19.481784,-1.826394,3.001982,-0.041857,0.120049,0.000000,-0.059427,0.318868,-0.000000
2.880000,0.370364,-0.102800,-1.374008,1.776197,0.364585,0.058629,-1.258879,-0.435451,-0.361321,-3.351330,-0.740290,-2.079518,18.560461,-3.383771,3.957489,-0.042462,0.123141,0.000000,-0.061857,0.299325,-0.000000
2.890000,0.388062,-0.099176,-1.373441,1.763443,0.360193,0.054912,-1.291458,-0.443015,-0.381906,-3.162545,-0.769759,-2.036353,19.590185,-1.899393,4.615648,-0.043096,0.126042,0.000000,-0.064659,0.280218,-0.000000
2.900000,0.405632,-0.095596,-1.372911,1.750374,0.355724,0.050992,-1.322088,-0.450783,-0.402027,-2.963080,-0.783387,-1.986733,19.895495,-1.429433,5.365221,-0.043749,0.128748,0.000000,-0.065957,0.260352,-0.000000
2.910000,0.423069,-0.092061,-1.372421,1.737008,0.351177,0.046874,-1.350718,-0.458666,-0.421615,-2.762572,-0.792040,-1.929627,20.183896,-0.843506,6.094601,-0.044414,0.131255,0.000000,-0.066818,0.240670,-0.000000
2.920000,0.440371,-0.088573,-1.371974,1.723366,0.346551,0.042562,-1.377331,-0.466648,-0.440593,-2.559691,-0.805217,-1.864520,20.399943,-1.260825,6.884756,-0.045088,0.133566,0.000000,-0.068167,0.221051,0.000000
2.930000,0.457535,-0.085131,-1.371571,1.709468,0.341844,0.038064,-1.401904,-0.474726,-0.458884,-2.354405,-0.806110,-1.792819,20.650363,1.100908,7.450961,-0.045773,0.135681,0.000000,-0.068377,0.201471,0.000000
2.940000,0.474559,-0.081736,-1.371213,1.695335,0.337057,0.033387,-1.424413,-0.482722,-0.476428,-2.147130,-0.793858,-1.714778,20.782439,0.817486,8.192987,-0.046451,0.137600,0.000000,-0.067379,0.181961,0.000000
2.950000,0.491441,-0.078390,-1.370904,1.680987,0.332190,0.028538,-1.444843,-0.490624,-0.493154,-1.938773,-0.785198,-1.629379,20.896715,1.447730,8.842912,-0.047122,0.139325,0.000000,-0.066788,0.162614,0.000000
2.960000,0.508178,-0.075093,-1.370643,1.666445,0.327245,0.023527,-1.463188,-0.498395,-0.508998,-1.730248,-0.768065,-1.538505,20.950467,2.043005,9.453389,-0.047784,0.140857,0.000000,-0.065441,0.143483,0.000000
2.970000,0.524769,-0.071845,-1.370434,1.651730,0.322223,0.018361,-1.479435,-0.505960,-0.523894,-1.518533,-0.743744,-1.439250,21.240769,2.760203,10.269601,-0.048429,0.142197,0.000000,-0.063482,0.124311,-0.000000
2.980000,0.541213,-0.068648,-1.370276,1.636863,0.317126,0.013052,-1.493566,-0.513253,-0.537770,-1.308610,-0.714143,-1.335801,20.732389,3.158099,10.410554,-0.049052,0.143347,0.000000,-0.061073,0.105503,0.000000
2.990000,0.557506,-0.065503,-1.370173,1.621866,0.311959,0.007610,-1.505616,-0.520226,-0.550599,-1.101092,-0.679342,-1.228676,20.910631,3.863839,11.132122,-0.049649,0.144311,0.000000,-0.058222,0.087094,0.000000
3.000000,0.573650,-0.062409,-1.370125,1.606758,0.306723,0.002044,-1.515579,-0.526815,-0.562318,-0.891771,-0.637401,-1.114340,20.801434,4.462116,11.605015,-0.050215,0.145091,0.000000,-0.054764,0.068722,-0.000000
3.010000,0.589641,-0.059369,-1.370132,1.591561,0.301424,-0.003633,-1.523461,-0.532957,-0.572878,-0.684824,-0.589935,-0.997128,20.654874,5.056979,12.023638,-0.050743,0.145689,0.000000,-0.050829,0.050707,0.000000
3.020000,0.605481,-0.056381,-1.370198,1.576296,0.296066,-0.009410,-1.529275,-0.538592,-0.582231,-0.478125,-0.536036,-0.872232,20.607802,5.695562,12.760866,-0.051229,0.146107,0.000000,-0.046357,0.032900,0.000000
3.030000,0.621167,-0.053448,-1.370321,1.560983,0.290654,-0.015273,-1.533034,-0.543659,-0.590319,-0.274279,-0.476596,-0.745995,20.153266,6.190103,12.473179,-0.051668,0.146349,0.000000,-0.041397,0.015443,-0.000000
3.040000,0.636700,-0.050568,-1.370503,1.545642,0.285194,-0.021212,-1.534773,-0.548106,-0.597150,-0.073739,-0.411743,-0.619129,20.020707,6.804988,13.081572,-0.052056,0.146418,0.000000,-0.035956,-0.001650,-0.000000
3.050000,0.652080,-0.047744,-1.370745,1.530294,0.279694,-0.027212,-1.534512,-0.551873,-0.602678,0.125415,-0.340759,-0.486131,19.733169,7.363397,13.321471,-0.052386,0.146316,0.000000,-0.029988,-0.018497,-0.000000
3.060000,0.667306,-0.044975,-1.371048,1.514958,0.274159,-0.033261,-1.532276,-0.554904,-0.606876,0.321098,-0.264552,-0.353138,19.416170,7.906257,13.499431,-0.052654,0.146048,0.000000,-0.023546,-0.035004,-0.000000
3.070000,0.682379,-0.042261,-1.371411,1.499655,0.268599,-0.039345,-1.528099,-0.557144,-0.609717,0.513800,-0.182405,-0.214187,19.101930,8.490593,14.058945,-0.052855,0.145617,0.000000,-0.016584,-0.051152,-0.000000
3.080000,0.697299,-0.039603,-1.371835,1.484403,0.263019,-0.045451,-1.522013,-0.558536,-0.611166,0.702675,-0.095420,-0.076819,18.667741,8.902559,13.399396,-0.052984,0.145025,0.000000,-0.009163,-0.066979,0.000000
3.090000,0.712067,-0.037000,-1.372320,1.469221,0.257431,-0.051564,-1.514060,-0.559037,-0.611263,0.887413,-0.003818,0.058157,18.292836,9.444293,13.813070,-0.053037,0.144276,0.000000,-0.001292,-0.082484,-0.000000
3.100000,0.726684,-0.034454,-1.372866,1.454127,0.251842,-0.057671,-1.504278,-0.558594,-0.609985,1.068294,0.093143,0.197355,17.861679,9.914481,13.793514,-0.053008,0.143374,0.000000,0.007074,-0.097615,-0.000000
3.110000,0.741150,-0.031963,-1.373473,1.439141,0.246262,-0.063759,-1.492709,-0.557161,-0.607328,1.244743,0.194279,0.333755,17.408398,10.358575,13.712249,-0.052894,0.142322,0.000000,0.015866,-0.112428,0.000000
3.120000,0.755467,-0.029529,-1.374141,1.424279,0.240702,-0.069813,-1.479400,-0.554690,-0.603295,1.416238,0.300691,0.473588,16.902068,10.871605,14.019012,-0.052689,0.141124,0.000000,0.025169,-0.126803,-0.000000
3.130000,0.769636,-0.027149,-1.374869,1.409559,0.235172,-0.075820,-1.464399,-0.551135,-0.597872,1.583029,0.410613,0.609203,16.453040,11.106747,13.088699,-0.052389,0.139784,0.000000,0.034861,-0.140877,-0.000000
3.140000,0.783659,-0.024825,-1.375657,1.394997,0.229683,-0.081766,-1.447755,-0.546468,-0.591129,1.744921,0.523712,0.739797,15.906447,11.557284,13.251621,-0.051991,0.138304,0.000000,0.044926,-0.154653,-0.000000
3.150000,0.797537,-0.022556,-1.376504,1.380609,0.224247,-0.087638,-1.429520,-0.540646,-0.583067,1.901223,0.641250,0.872130,15.366223,11.896780,12.978666,-0.051489,0.136688,0.000000,0.055460,-0.167985,0.000000
3.160000,0.811272,-0.020340,-1.377410,1.366411,0.218874,-0.093423,-1.409748,-0.533635,-0.573706,2.052257,0.761397,0.999292,14.809587,12.201402,12.651692,-0.050880,0.134940,0.000000,0.066334,-0.181001,0.000000
3.170000,0.824866,-0.018178,-1.378372,1.352419,0.213578,-0.099108,-1.388496,-0.525402,-0.563076,2.197097,0.885854,1.126904,14.182973,12.613143,12.664401,-0.050161,0.133065,0.000000,0.077692,-0.193550,0.000000
3.180000,0.838321,-0.016068,-1.379391,1.338646,0.208370,-0.104681,-1.365824,-0.515912,-0.551190,2.336439,1.012047,1.248259,13.683645,12.617822,11.593380,-0.049326,0.131065,0.000000,0.089333,-0.205787,0.000000
3.190000,0.851639,-0.014010,-1.380466,1.325107,0.203264,-0.110128,-1.341786,-0.505157,-0.538135,2.470166,1.139550,1.362666,13.031714,12.949447,11.482510,-0.048373,0.128945,0.000000,0.101227,-0.217712,-0.000000
3.200000,0.864824,-0.012002,-1.381594,1.311815,0.198271,-0.115440,-1.316443,-0.493109,-0.523937,2.597263,1.270308,1.476076,12.413074,13.124121,10.992749,-0.047300,0.126708,0.000000,0.113541,-0.229158,0.000000
3.210000,0.877877,-0.010044,-1.382774,1.298782,0.193406,-0.120603,-1.289860,-0.479750,-0.508639,2.718374,1.401736,1.582642,11.782726,13.256991,10.463353,-0.046102,0.124358,0.000000,0.126065,-0.240257,-0.000000
3.220000,0.890800,-0.008134,-1.384005,1.286021,0.188681,-0.125609,-1.262099,-0.465062,-0.492290,2.832656,1.536261,1.686600,11.095485,13.543614,10.178627,-0.044777,0.121899,0.000000,0.139019,-0.250878,-0.000000
3.230000,0.903598,-0.006270,-1.385286,1.273544,0.184109,-0.130446,-1.233227,-0.449027,-0.474933,2.940743,1.670420,1.783083,10.520970,13.279068,9.108684,-0.043321,0.119336,0.000000,0.152100,-0.261136,-0.000000
3.240000,0.916272,-0.004451,-1.386613,1.261360,0.179705,-0.135104,-1.203305,-0.431658,-0.456656,3.042568,1.803709,1.871599,9.818701,13.471904,8.735607,-0.041735,0.116673,0.000000,0.165263,-0.271025,-0.000000
3.250000,0.928826,-0.002675,-1.387987,1.249481,0.175481,-0.139576,-1.172400,-0.412944,-0.437510,3.137291,1.938890,1.956479,9.148398,13.458790,8.090884,-0.040015,0.113913,0.000000,0.178764,-0.280410,-0.000000
3.260000,0.941263,-0.000941,-1.389404,1.237915,0.171450,-0.143852,-1.140581,-0.392886,-0.417553,3.225478,2.072520,2.033712,8.471068,13.398886,7.425105,-0.038159,0.111061,0.000000,0.192288,-0.289384,-0.000000
3.270000,0.953586,0.000754,-1.390863,1.226672,0.167627,-0.147925,-1.107915,-0.371485,-0.396852,3.306536,2.208009,2.105588,7.755858,13.558787,6.876611,-0.036167,0.108123,0.000000,0.206158,-0.297854,0.000000
3.280000,0.965797,0.002412,-1.392362,1.215760,0.164025,-0.151787,-1.074472,-0.348736,-0.375468,3.380920,2.340763,2.169706,7.120692,12.981526,5.942379,-0.034037,0.105102,0.000000,0.219938,-0.305881,0.000000
3.290000,0.977902,0.004036,-1.393898,1.205185,0.160657,-0.155432,-1.040318,-0.324682,-0.353486,3.448605,2.470219,2.225824,6.398966,13.038507,5.350764,-0.031769,0.102003,0.000000,0.233569,-0.313452,-0.000000
3.300000,0.989902,0.005626,-1.395470,1.194956,0.157536,-0.158855,-1.005525,-0.299328,-0.330970,3.509028,2.600262,2.276082,5.701637,12.829278,4.628468,-0.029364,0.098832,0.000000,0.247421,-0.320480,-0.000000
3.310000,1.001802,0.007187,-1.397075,1.185077,0.154675,-0.162050,-0.970162,-0.272688,-0.307989,3.562268,2.727316,2.318812,4.995310,12.589984,3.905698,-0.026821,0.095593,0.000000,0.261143,-0.326973,0.000000
3.320000,1.013605,0.008721,-1.398710,1.175554,0.152086,-0.165013,-0.934299,-0.244789,-0.284619,3.609381,2.852074,2.354083,4.379442,12.341245,3.158906,-0.024142,0.092291,0.000000,0.274796,-0.333021,-0.000000
3.330000,1.025314,0.010230,-1.400374,1.166392,0.149783,-0.167741,-0.898000,-0.215657,-0.260931,3.648855,2.973722,2.382217,3.513992,11.981886,2.468642,-0.021326,0.088932,0.000000,0.288291,-0.338455,-0.000000
3.340000,1.036934,0.011717,-1.402064,1.157595,0.147777,-0.170231,-0.861348,-0.185326,-0.236998,3.680629,3.091877,2.403247,2.889036,11.657499,1.727062,-0.018376,0.085523,0.000000,0.301578,-0.343253,0.000000
3.350000,1.048468,0.013186,-1.403778,1.149166,0.146080,-0.172480,-0.824407,-0.153830,-0.212891,3.706234,3.206630,2.416872,2.184694,11.272900,1.010119,-0.015295,0.082068,0.000000,0.314654,-0.347551,0.000000
3.360000,1.059919,0.014640,-1.405513,1.141108,0.144704,-0.174488,-0.787248,-0.121211,-0.188682,3.724407,3.316386,2.423922,1.483282,10.835630,0.311621,-0.012085,0.078573,0.000000,0.327347,-0.351199,-0.000000
3.370000,1.071291,0.016082,-1.407267,1.133422,0.143660,-0.176254,-0.749940,-0.087504,-0.164443,3.736218,3.424728,2.422315,0.848106,10.668759,-0.543472,-0.008748,0.075045,0.000000,0.340000,-0.354304,-0.000000
3.380000,1.082588,0.017514,-1.409037,1.126109,0.142958,-0.177777,-0.712549,-0.052740,-0.140254,3.740721,3.526326,2.414938,0.052492,9.640239,-0.926472,-0.005287,0.071489,0.000000,0.352062,-0.356728,0.000000
3.390000,1.093814,0.018942,-1.410822,1.119171,0.142608,-0.179059,-0.675150,-0.017004,-0.116162,3.737938,3.620627,2.402074,-0.575486,9.374583,-1.731492,-0.001709,0.067913,0.000000,0.363459,-0.358456,-0.000000
3.400000,1.104973,0.020368,-1.412618,1.112606,0.142621,-0.180101,-0.637810,0.019667,-0.092241,3.728967,3.712356,2.381125,-1.249089,8.806651,-2.366675,0.001982,0.064322,0.000000,0.374646,-0.359597,-0.000000
3.410000,1.116068,0.021796,-1.414423,1.106414,0.143004,-0.180905,-0.600591,0.057212,-0.068555,3.713864,3.795431,2.355169,-1.896137,8.177783,-2.969801,0.005781,0.060723,0.000000,0.384993,-0.360120,-0.000000
3.420000,1.127102,0.023229,-1.416235,1.100594,0.143768,-0.181473,-0.563564,0.095584,-0.045170,3.689925,3.879262,2.320410,-2.767511,8.221085,-3.830939,0.009683,0.057122,0.000000,0.395427,-0.359758,0.000000
3.430000,1.138081,0.024672,-1.418052,1.095142,0.144919,-0.181810,-0.526807,0.134758,-0.022159,3.661118,3.952152,2.281723,-2.987943,6.341862,-3.897350,0.013685,0.053529,0.000000,0.404750,-0.358863,0.000000
3.440000,1.149007,0.026129,-1.419870,1.090056,0.146465,-0.181918,-0.490356,0.174585,0.000454,3.627737,4.013370,2.239584,-3.809363,6.264824,-4.673771,0.017773,0.049946,0.000000,0.412864,-0.357455,0.000000
3.450000,1.159883,0.027603,-1.421689,1.085334,0.148413,-0.181802,-0.454283,0.215030,0.022604,3.586023,4.074277,2.189602,-4.408266,5.548666,-5.169276,0.021943,0.046382,0.000000,0.420899,-0.355157,-0.000000
3.460000,1.170714,0.029098,-1.423506,1.080969,0.150768,-0.181467,-0.418655,0.256046,0.044238,3.538394,4.127792,2.136558,-5.012239,4.871962,-5.621867,0.026189,0.042843,0.000000,0.428125,-0.352179,0.000000
3.470000,1.181504,0.030620,-1.425318,1.076959,0.153535,-0.180919,-0.383526,0.297541,0.065305,3.486775,4.169099,2.075545,-5.408724,3.659140,-6.393136,0.030501,0.039337,0.000000,0.434015,-0.348727,0.000000
3.480000,1.192255,0.032171,-1.427123,1.073297,0.156720,-0.180163,-0.348944,0.339417,0.085744,3.428179,4.206642,2.012633,-6.310685,3.856388,-6.177920,0.034868,0.035868,0.000000,0.439431,-0.344459,0.000000
3.490000,1.202971,0.033755,-1.428920,1.069978,0.160325,-0.179206,-0.314987,0.381664,0.105555,3.362639,4.240700,1.948415,-6.693694,2.679574,-6.843939,0.039288,0.032447,0.000000,0.444394,-0.339368,-0.000000
3.500000,1.213655,0.035378,-1.430707,1.066995,0.164354,-0.178055,-0.281701,0.424186,0.124686,3.293513,4.262537,1.877432,-7.228458,1.960077,-7.163182,0.043750,0.029077,0.000000,0.447970,-0.333812,0.000000
3.510000,1.224312,0.037044,-1.432481,1.064341,0.168809,-0.176715,-0.249136,0.466897,0.143102,3.218680,4.278536,1.805356,-7.736331,1.219065,-7.437388,0.048245,0.025766,0.000000,0.450824,-0.327547,0.000000
3.520000,1.234943,0.038756,-1.434241,1.062010,0.173692,-0.175195,-0.217344,0.509730,0.160770,3.138843,4.286721,1.727043,-8.225731,0.436415,-8.033602,0.052764,0.022521,0.000000,0.452714,-0.320653,-0.000000
3.530000,1.245553,0.040519,-1.435984,1.059992,0.179004,-0.173502,-0.186375,0.552608,0.177644,3.054276,4.287655,1.648698,-8.683702,-0.249415,-7.623655,0.057296,0.019346,0.000000,0.453720,-0.313141,-0.000000
3.540000,1.256144,0.042338,-1.437710,1.058279,0.184744,-0.171645,-0.156274,0.595459,0.193747,2.965217,4.281340,1.570934,-9.125687,-1.033071,-8.110675,0.061835,0.016250,0.000000,0.453843,-0.305035,0.000000
3.550000,1.266720,0.044216,-1.439417,1.056863,0.190913,-0.169630,-0.127085,0.638208,0.209043,2.871857,4.267157,1.488192,-9.539793,-1.784176,-8.245069,0.066370,0.013236,0.000000,0.452975,-0.296364,0.000000
3.560000,1.277282,0.046157,-1.441102,1.055734,0.197508,-0.167467,-0.098845,0.680772,0.223515,2.775606,4.244353,1.406044,-9.905330,-2.559023,-8.338972,0.070891,0.010311,0.000000,0.451071,-0.287267,-0.000000
3.570000,1.287835,0.048167,-1.442765,1.054883,0.204527,-0.165163,-0.071601,0.723087,0.237148,2.672007,4.217988,1.320051,-10.616531,-2.923989,-8.698564,0.075390,0.007479,0.000000,0.448621,-0.277287,0.000000
3.580000,1.298381,0.050249,-1.444405,1.054299,0.211969,-0.162727,-0.045407,0.765097,0.249922,2.567426,4.181471,1.235445,-10.289033,-4.384722,-8.212359,0.079859,0.004750,0.000000,0.444978,-0.267083,0.000000
3.590000,1.308922,0.052408,-1.446020,1.053971,0.219828,-0.160167,-0.020252,0.806680,0.261865,2.462406,4.134586,1.152766,-10.905674,-4.777739,-8.475202,0.084285,0.002121,0.000000,0.440129,-0.256722,0.000000
3.600000,1.319461,0.054647,-1.447608,1.053890,0.228101,-0.157492,0.003817,0.847780,0.272965,2.351066,4.084148,1.067377,-11.163406,-5.519627,-8.441217,0.088660,-0.000400,0.000000,0.434746,-0.245596,-0.000000
3.610000,1.330001,0.056971,-1.449169,1.054044,0.236782,-0.154710,0.026766,0.888339,0.283220,2.238435,4.026617,0.983784,-11.401301,-6.208721,-8.376244,0.092977,-0.002810,0.000000,0.428503,-0.234235,-0.000000
3.620000,1.340543,0.059384,-1.450702,1.054422,0.245865,-0.151830,0.048575,0.928272,0.292635,2.122736,3.957962,0.898992,-11.692089,-7.301391,-8.477074,0.097226,-0.005104,0.000000,0.420959,-0.222459,-0.000000
3.630000,1.351090,0.061890,-1.452205,1.055012,0.255345,-0.148861,0.069216,0.967487,0.301208,2.005563,3.885224,0.816443,-11.736647,-7.236352,-8.025118,0.101395,-0.007279,0.000000,0.412887,-0.210444,0.000000
3.640000,1.361644,0.064492,-1.453679,1.055802,0.265213,-0.145809,0.088682,1.005966,0.308973,1.887250,3.808892,0.736537,-11.963574,-8.246675,-8.053598,0.105482,-0.009334,0.000000,0.404353,-0.198235,-0.000000
3.650000,1.372206,0.067195,-1.455121,1.056781,0.275461,-0.142684,0.106953,1.043626,0.315936,1.766741,3.722228,0.656312,-12.091421,-8.863173,-7.886401,0.109478,-0.011265,0.000000,0.394633,-0.185726,-0.000000
3.660000,1.382780,0.070003,-1.456532,1.057937,0.286082,-0.139493,0.124017,1.080397,0.322109,1.645782,3.631014,0.578548,-12.184644,-9.462046,-7.700336,0.113373,-0.013070,0.000000,0.384368,-0.173110,0.000000
3.670000,1.393366,0.072918,-1.457911,1.059258,0.297066,-0.136244,0.139859,1.116220,0.327510,1.522322,3.532272,0.502017,-12.416752,-10.198745,-7.565512,0.117162,-0.014748,0.000000,0.373245,-0.160180,-0.000000
3.680000,1.403966,0.075945,-1.459257,1.060730,0.308403,-0.132945,0.154465,1.151028,0.332158,1.399344,3.428874,0.428077,-12.171805,-10.474053,-7.218465,0.120836,-0.016296,0.000000,0.361589,-0.147259,-0.000000
3.690000,1.414581,0.079087,-1.460570,1.062343,0.320083,-0.129603,0.167850,1.184784,0.336082,1.277232,3.321185,0.356952,-12.333253,-11.143914,-7.041466,0.124392,-0.017715,0.000000,0.349453,-0.134394,-0.000000
3.700000,1.425213,0.082348,-1.461849,1.064083,0.332095,-0.126226,0.180003,1.217428,0.339302,1.153498,3.206800,0.287614,-12.322089,-11.644420,-6.786396,0.127823,-0.019004,0.000000,0.336586,-0.121332,-0.000000
3.710000,1.435863,0.085730,-1.463094,1.065939,0.344428,-0.122820,0.190924,1.248908,0.341843,1.030760,3.088497,0.220967,-12.284286,-12.111996,-6.522934,0.131123,-0.020162,0.000000,0.323296,-0.108354,0.000000
3.720000,1.446532,0.089238,-1.464305,1.067898,0.357069,-0.119391,0.200615,1.279174,0.343732,0.907314,2.963730,0.157360,-12.339946,-12.739366,-6.214400,0.134286,-0.021189,0.000000,0.309337,-0.095290,-0.000000
3.730000,1.457221,0.092873,-1.465482,1.069947,0.370007,-0.115947,0.209075,1.308173,0.344999,0.785322,2.835849,0.096339,-12.052644,-12.829080,-5.988880,0.137308,-0.022086,0.000000,0.295060,-0.082373,0.000000
3.740000,1.467931,0.096639,-1.466624,1.072075,0.383228,-0.112493,0.216327,1.335883,0.345667,0.665101,2.705275,0.037965,-12.049489,-13.379092,-5.667017,0.140187,-0.022853,0.000000,0.280518,-0.069639,0.000000
3.750000,1.478663,0.100538,-1.467732,1.074270,0.396720,-0.109036,0.222376,1.362258,0.345769,0.544923,2.569199,-0.017131,-11.920460,-13.733094,-5.369231,0.142917,-0.023492,0.000000,0.265438,-0.056917,-0.000000
3.760000,1.489417,0.104574,-1.468805,1.076519,0.410469,-0.105580,0.227233,1.387260,0.345333,0.426631,2.430706,-0.069629,-11.770302,-14.053386,-5.072382,0.145495,-0.024004,0.000000,0.250138,-0.044400,0.000000
3.770000,1.500193,0.108748,-1.469843,1.078810,0.424461,-0.102131,0.230911,1.410854,0.344391,0.309255,2.287377,-0.118041,-11.667067,-14.517402,-4.665398,0.147918,-0.024390,0.000000,0.234399,-0.031995,-0.000000
3.780000,1.510993,0.113064,-1.470848,1.081133,0.438681,-0.098693,0.233425,1.433003,0.342980,0.194080,2.142349,-0.164100,-11.363685,-14.480474,-4.548018,0.150182,-0.024652,0.000000,0.218526,-0.019835,-0.000000
3.790000,1.521816,0.117523,-1.471817,1.083475,0.453116,-0.095273,0.234801,1.453698,0.341116,0.081339,1.996046,-0.207875,-11.216694,-14.866130,-4.150974,0.152288,-0.024792,0.000000,0.202564,-0.007948,-0.000000
3.800000,1.532663,0.122127,-1.472753,1.085825,0.467750,-0.091872,0.235057,1.472909,0.338837,-0.029898,1.845898,-0.247600,-10.993303,-15.067779,-3.850360,0.154233,-0.024813,0.000000,0.186284,0.003758,0.000000
3.810000,1.543533,0.126878,-1.473655,1.088172,0.482569,-0.088497,0.234212,1.490613,0.336171,-0.138584,1.694707,-0.285022,-10.755005,-15.237490,-3.557304,0.156014,-0.024717,0.000000,0.169951,0.015176,-0.000000
3.820000,1.554426,0.131779,-1.474523,1.090506,0.497557,-0.085150,0.232292,1.506792,0.333152,-0.245074,1.540583,-0.318048,-10.527384,-15.512438,-3.123483,0.157631,-0.024507,0.000000,0.153408,0.026336,-0.000000
3.830000,1.565343,0.136830,-1.475358,1.092815,0.512700,-0.081835,0.229320,1.521424,0.329816,-0.348810,1.386023,-0.349080,-10.217278,-15.392657,-3.086227,0.159082,-0.024185,0.000000,0.136875,0.037187,-0.000000
3.840000,1.576282,0.142033,-1.476160,1.095089,0.527981,-0.078555,0.225326,1.534513,0.326176,-0.449644,1.231412,-0.378275,-9.960706,-15.595320,-2.678140,0.160368,-0.023754,0.000000,0.120391,0.047712,0.000000
3.850000,1.587244,0.147390,-1.476929,1.097318,0.543385,-0.075312,0.220336,1.546044,0.322266,-0.547877,1.074811,-0.403306,-9.670499,-15.649955,-2.404798,0.161489,-0.023219,0.000000,0.103796,0.057938,0.000000
3.860000,1.598228,0.152901,-1.477666,1.099492,0.558896,-0.072110,0.214378,1.556011,0.318115,-0.643140,0.918443,-0.426436,-9.371619,-15.675015,-2.142894,0.162445,-0.022582,0.000000,0.087283,0.067832,-0.000000
3.870000,1.609234,0.158568,-1.478372,1.101602,0.574500,-0.068951,0.207484,1.564408,0.313753,-0.735197,0.760885,-0.445460,-9.046860,-15.777631,-1.740403,0.163235,-0.021846,0.000000,0.070743,0.077365,-0.000000
3.880000,1.620260,0.164392,-1.479045,1.103639,0.590179,-0.065836,0.199684,1.571231,0.309211,-0.824231,0.604122,-0.462892,-8.759009,-15.569065,-1.750093,0.163860,-0.021015,0.000000,0.054336,0.086564,0.000000
3.890000,1.631306,0.170372,-1.479688,1.105593,0.605919,-0.062767,0.191009,1.576495,0.304499,-0.910179,0.448490,-0.478932,-8.420665,-15.607861,-1.381446,0.164322,-0.020092,0.000000,0.038093,0.095423,0.000000
3.900000,1.642372,0.176510,-1.480301,1.107456,0.621704,-0.059746,0.181492,1.580199,0.299646,-0.992698,0.292515,-0.491215,-8.090956,-15.528280,-1.154645,0.164622,-0.019081,0.000000,0.021901,0.103904,-0.000000
3.910000,1.653455,0.182806,-1.480884,1.109220,0.637518,-0.056775,0.171165,1.582350,0.294678,-1.072205,0.137927,-0.502027,-7.760939,-15.423414,-0.940510,0.164761,-0.017986,0.000000,0.005897,0.112056,0.000000
3.920000,1.664556,0.189261,-1.481437,1.110877,0.653346,-0.053853,0.160063,1.582959,0.289618,-1.147454,-0.016224,-0.509421,-7.335589,-15.365963,-0.607275,0.164740,-0.016811,0.000000,-0.009984,0.119748,-0.000000
3.930000,1.675672,0.195873,-1.481961,1.112419,0.669172,-0.050983,0.148225,1.582032,0.284494,-1.219897,-0.168542,-0.515622,-7.153982,-15.092685,-0.636765,0.164562,-0.015560,0.000000,-0.025641,0.127136,-0.000000
3.940000,1.686804,0.202644,-1.482456,1.113839,0.684981,-0.048163,0.135674,1.579595,0.279309,-1.289569,-0.318751,-0.520831,-6.732276,-14.982793,-0.338878,0.164228,-0.014235,0.000000,-0.041049,0.134227,-0.000000
3.950000,1.697949,0.209573,-1.482924,1.115130,0.700759,-0.045396,0.122449,1.575661,0.274088,-1.354942,-0.467811,-0.523015,-6.389576,-14.788668,-0.167422,0.163742,-0.012840,0.000000,-0.056277,0.140859,0.000000
3.960000,1.709106,0.216659,-1.483365,1.116286,0.716490,-0.042682,0.108585,1.570247,0.268851,-1.417158,-0.614626,-0.524147,-6.043746,-14.576149,-0.008464,0.163104,-0.011380,0.000000,-0.071246,0.147158,0.000000
3.970000,1.720274,0.223902,-1.483778,1.117300,0.732159,-0.040019,0.094118,1.563375,0.263615,-1.475727,-0.759317,-0.522739,-5.679446,-14.353933,0.237408,0.162318,-0.009859,0.000000,-0.085948,0.153071,-0.000000
3.980000,1.731451,0.231302,-1.484165,1.118166,0.747752,-0.037409,0.079082,1.555068,0.258399,-1.530945,-0.901539,-0.520504,-5.364507,-14.087292,0.206182,0.161386,-0.008279,0.000000,-0.100378,0.158633,-0.000000
3.990000,1.742637,0.238857,-1.484526,1.118880,0.763256,-0.034851,0.063510,1.545353,0.253206,-1.582831,-1.041105,-0.517623,-5.003550,-13.828150,0.419453,0.160311,-0.006645,0.000000,-0.114522,0.163848,0.000000
4.000000,1.753828,0.246567,-1.484862,1.119435,0.778655,-0.032345,0.047437,1.534255,0.248054,-1.631101,-1.178005,-0.512583,-4.660369,-13.543975,0.535153,0.159096,-0.004961,0.000000,-0.128356,0.168687,0.000000
4.010000,1.765025,0.254430,-1.485173,1.119827,0.793936,-0.029890,0.030898,1.521803,0.242956,-1.676164,-1.311877,-0.506866,-4.322468,-13.242764,0.639606,0.157745,-0.003230,0.000000,-0.141872,0.173194,-0.000000
4.020000,1.776224,0.262445,-1.485460,1.120052,0.809087,-0.027486,0.013928,1.508027,0.237923,-1.717282,-1.442948,-0.499522,-3.931058,-12.954645,0.795495,0.156260,-0.001455,0.000000,-0.155077,0.177294,0.000000
4.030000,1.787425,0.270611,-1.485723,1.120104,0.824093,-0.025131,-0.003438,1.492956,0.232967,-1.755415,-1.570621,-0.491665,-3.697041,-12.577312,0.773202,0.154644,0.000359,0.000000,-0.167931,0.181089,0.000000
4.040000,1.798626,0.278926,-1.485963,1.119982,0.838941,-0.022826,-0.021171,1.476626,0.228091,-1.790643,-1.694744,-0.483441,-3.319683,-12.259712,0.902261,0.152902,0.002209,0.000000,-0.180423,0.184586,-0.000000
4.050000,1.809824,0.287389,-1.486180,1.119680,0.853621,-0.020569,-0.039237,1.459071,0.223303,-1.822077,-1.815653,-0.473925,-2.997502,-11.905657,0.966904,0.151037,0.004093,0.000000,-0.192573,0.187696,0.000000
4.060000,1.821019,0.295998,-1.486375,1.119196,0.868119,-0.018360,-0.057604,1.440326,0.218613,-1.850788,-1.932885,-0.464049,-2.685406,-11.541461,1.022409,0.149052,0.006006,0.000000,-0.204350,0.190530,-0.000000
4.070000,1.832208,0.304751,-1.486547,1.118527,0.882424,-0.016197,-0.076238,1.420426,0.214025,-1.875251,-2.046471,-0.453361,-2.266627,-11.171991,1.098382,0.146951,0.007945,0.000000,-0.215752,0.192931,0.000000
4.080000,1.843389,0.313646,-1.486699,1.117670,0.896524,-0.014079,-0.095102,1.399409,0.209547,-1.897365,-2.156246,-0.442431,-2.158909,-10.781446,1.085716,0.144738,0.009906,0.000000,-0.226771,0.195095,0.000000
4.090000,1.854561,0.322681,-1.486829,1.116624,0.910408,-0.012005,-0.114178,1.377314,0.205177,-1.917271,-2.262122,-0.431365,-1.764484,-10.394874,1.141582,0.142417,0.011887,0.000000,-0.237401,0.197038,-0.000000
4.100000,1.865721,0.331853,-1.486939,1.115386,0.924067,-0.009975,-0.133433,1.354179,0.200921,-1.933176,-2.364101,-0.419758,-1.476445,-9.997447,1.163264,0.139992,0.013885,0.000000,-0.247635,0.198575,0.000000
4.110000,1.876868,0.341161,-1.487029,1.113955,0.937488,-0.007987,-0.152834,1.330044,0.196782,-1.946591,-2.462218,-0.408063,-1.192609,-9.597451,1.177939,0.137466,0.015897,0.000000,-0.257484,0.199862,-0.000000
4.120000,1.887999,0.350602,-1.487099,1.112329,0.950664,-0.006039,-0.172354,1.304951,0.192761,-1.956900,-2.555779,-0.396196,-0.885851,-9.140722,1.191168,0.134844,0.017919,0.000000,-0.266877,0.200835,-0.000000
4.130000,1.899114,0.360174,-1.487150,1.110508,0.963584,-0.004131,-0.191963,1.278941,0.188858,-1.964660,-2.645583,-0.384324,-0.667889,-8.820314,1.182038,0.132130,0.019950,0.000000,-0.275896,0.201552,-0.000000
4.140000,1.910209,0.369873,-1.487182,1.108490,0.976240,-0.002261,-0.211639,1.252051,0.185074,-1.969966,-2.731631,-0.372517,-0.378655,-8.361774,1.181360,0.129327,0.021985,0.000000,-0.284543,0.202022,-0.000000
4.150000,1.921283,0.379698,-1.487195,1.106275,0.988623,-0.000429,-0.231353,1.224325,0.181408,-1.972390,-2.813041,-0.360745,-0.123423,-7.946786,1.169330,0.126440,0.024023,0.000000,-0.292726,0.202202,0.000000
4.160000,1.932333,0.389645,-1.487190,1.103862,1.000724,0.001367,-0.251079,1.195803,0.177859,-1.972509,-2.890538,-0.349109,0.122558,-7.530842,1.152325,0.123474,0.026061,0.000000,-0.300519,0.202150,0.000000
4.170000,1.943359,0.399711,-1.487168,1.101253,1.012536,0.003128,-0.270793,1.166529,0.174425,-1.969743,-2.963456,-0.337759,0.406025,-7.073715,1.121244,0.120431,0.028096,0.000000,-0.307857,0.201806,-0.000000
4.180000,1.954358,0.409894,-1.487128,1.098447,1.024052,0.004856,-0.290467,1.136547,0.171103,-1.964905,-3.032451,-0.326606,0.559461,-6.725975,1.108568,0.117318,0.030126,0.000000,-0.314803,0.201254,0.000000
4.190000,1.965328,0.420191,-1.487071,1.095444,1.035265,0.006551,-0.310085,1.105893,0.167892,-1.958106,-3.097555,-0.315695,0.822726,-6.273735,1.068464,0.114137,0.032148,0.000000,-0.321361,0.200504,-0.000000
4.200000,1.976266,0.430599,-1.486997,1.092245,1.046168,0.008214,-0.329620,1.074611,0.164788,-1.948676,-3.158109,-0.305209,1.038291,-5.858563,1.032055,0.110892,0.034161,0.000000,-0.327464,0.199487,-0.000000
4.210000,1.987172,0.441113,-1.486907,1.088852,1.056755,0.009847,-0.349052,1.042744,0.161787,-1.937334,-3.214766,-0.295046,1.245712,-5.447048,0.991971,0.107589,0.036162,0.000000,-0.333176,0.198277,0.000000
4.220000,1.998043,0.451733,-1.486800,1.085265,1.067021,0.011450,-0.368359,1.010332,0.158885,-1.923633,-3.266817,-0.285455,1.476862,-4.989207,0.933327,0.104230,0.038149,0.000000,-0.338426,0.196826,0.000000
4.230000,2.008876,0.462453,-1.486678,1.081485,1.076960,0.013025,-0.387519,0.977420,0.156076,-1.908165,-3.315095,-0.276229,1.614956,-4.667655,0.911492,0.100821,0.040120,0.000000,-0.343295,0.195196,-0.000000
4.240000,2.019672,0.473271,-1.486540,1.077515,1.086568,0.014572,-0.406517,0.944042,0.153359,-1.891029,-3.359669,-0.267391,1.827389,-4.222263,0.847846,0.097366,0.042072,0.000000,-0.347791,0.193396,0.000000
4.250000,2.030426,0.484183,-1.486386,1.073355,1.095840,0.016092,-0.425332,0.910242,0.150726,-1.871781,-3.399772,-0.259215,2.004390,-3.824735,0.794585,0.093867,0.044005,0.000000,-0.351834,0.191380,-0.000000
4.260000,2.041138,0.495186,-1.486218,1.069009,1.104771,0.017587,-0.443947,0.876059,0.148173,-1.850934,-3.436198,-0.251505,2.173768,-3.433700,0.739136,0.090330,0.045916,0.000000,-0.355504,0.189200,0.000000
4.270000,2.051806,0.506277,-1.486035,1.064477,1.113360,0.019056,-0.462345,0.841533,0.145694,-1.828239,-3.468210,-0.244512,2.354344,-2.996445,0.666704,0.086759,0.047804,0.000000,-0.358725,0.186829,-0.000000
4.280000,2.062427,0.517452,-1.485837,1.059763,1.121601,0.020501,-0.480507,0.806706,0.143281,-1.804074,-3.496710,-0.238017,2.477042,-2.705496,0.632255,0.083157,0.049666,0.000000,-0.361587,0.184307,0.000000
4.290000,2.073000,0.528708,-1.485625,1.054868,1.129493,0.021922,-0.498422,0.771610,0.140932,-1.778526,-3.521798,-0.232027,2.641125,-2.286143,0.557784,0.079528,0.051502,0.000000,-0.364099,0.181643,0.000000
4.300000,2.083524,0.540041,-1.485398,1.049795,1.137033,0.023320,-0.516072,0.736285,0.138638,-1.751361,-3.542685,-0.226806,2.781320,-1.919518,0.494510,0.075876,0.053310,0.000000,-0.366180,0.178809,0.000000
4.310000,2.093996,0.551448,-1.485158,1.044547,1.144218,0.024695,-0.533445,0.700767,0.136394,-1.722899,-3.560221,-0.222150,2.914706,-1.561455,0.430394,0.072206,0.055089,0.000000,-0.367916,0.175841,0.000000
4.320000,2.104414,0.562924,-1.484905,1.039127,1.151047,0.026048,-0.550525,0.665094,0.134192,-1.693047,-3.573687,-0.218257,3.049982,-1.159696,0.353917,0.068519,0.056836,0.000000,-0.369231,0.172727,-0.000000
4.330000,2.114778,0.574467,-1.484637,1.033538,1.157519,0.027379,-0.567302,0.629304,0.132027,-1.662017,-3.584000,-0.214951,3.154657,-0.904993,0.307456,0.064822,0.058551,0.000000,-0.370219,0.169490,0.000000
4.340000,2.125084,0.586073,-1.484357,1.027782,1.163633,0.028688,-0.583762,0.593424,0.129891,-1.629883,-3.591276,-0.212229,3.275653,-0.524824,0.230859,0.061116,0.060232,0.000000,-0.370890,0.166136,-0.000000
4.350000,2.135333,0.597739,-1.484064,1.021864,1.169388,0.029977,-0.599895,0.557491,0.127779,-1.596570,-3.594752,-0.210284,3.381949,-0.198637,0.164017,0.057406,0.061879,0.000000,-0.371165,0.162658,0.000000
4.360000,2.145521,0.609460,-1.483758,1.015786,1.174783,0.031244,-0.615690,0.521539,0.125684,-1.562249,-3.595282,-0.208958,3.482232,0.117589,0.097120,0.053694,0.063491,0.000000,-0.371132,0.159072,-0.000000
4.370000,2.155648,0.621233,-1.483439,1.009551,1.179819,0.032490,-0.631137,0.485598,0.123598,-1.526937,-3.592188,-0.208378,3.578042,0.474048,0.022877,0.049984,0.065065,0.000000,-0.370719,0.155381,-0.000000
4.380000,2.165712,0.633055,-1.483108,1.003164,1.184495,0.033716,-0.646226,0.449704,0.121514,-1.490728,-3.586367,-0.208419,3.662831,0.687901,-0.030880,0.046280,0.066602,0.000000,-0.370019,0.151593,-0.000000
4.390000,2.175711,0.644922,-1.482765,0.996628,1.188813,0.034921,-0.660949,0.413879,0.119427,-1.453682,-3.577945,-0.209072,3.746391,1.020621,-0.103611,0.042585,0.068100,0.000000,-0.369042,0.147717,-0.000000
4.400000,2.185644,0.656830,-1.482410,0.989946,1.192773,0.036105,-0.675297,0.378156,0.117330,-1.415832,-3.566203,-0.210453,3.822085,1.300432,-0.168758,0.038901,0.069558,0.000000,-0.367716,0.143753,-0.000000
4.410000,2.195509,0.668776,-1.482043,0.983123,1.196376,0.037267,-0.689263,0.342563,0.115216,-1.377249,-3.551966,-0.212449,3.892419,1.569537,-0.233078,0.035231,0.070977,0.000000,-0.366124,0.139709,-0.000000
4.420000,2.205306,0.680757,-1.481664,0.976162,1.199625,0.038409,-0.702840,0.307128,0.113079,-1.338014,-3.534620,-0.215135,3.954727,1.874443,-0.301345,0.031579,0.072354,0.000000,-0.364204,0.135595,0.000000
4.430000,2.215032,0.692768,-1.481275,0.969068,1.202520,0.039529,-0.716021,0.271878,0.110911,-1.298147,-3.515004,-0.218417,4.017975,2.046416,-0.354576,0.027948,0.073690,0.000000,-0.362040,0.131412,-0.000000
4.440000,2.224687,0.704806,-1.480874,0.961843,1.205063,0.040627,-0.728801,0.236835,0.108709,-1.257698,-3.493248,-0.222275,4.069600,2.327069,-0.419496,0.024339,0.074983,0.000000,-0.359646,0.127166,0.000000
4.450000,2.234268,0.716868,-1.480462,0.954493,1.207257,0.041703,-0.741173,0.202023,0.106464,-1.216763,-3.468697,-0.226778,4.118011,2.557721,-0.478221,0.020756,0.076234,0.000000,-0.356955,0.122865,-0.000000
4.460000,2.243776,0.728950,-1.480040,0.947021,1.209104,0.042756,-0.753134,0.167467,0.104171,-1.175350,-3.442118,-0.231831,4.161450,2.777782,-0.534934,0.017201,0.077441,0.000000,-0.354046,0.118513,-0.000000
4.470000,2.253208,0.741049,-1.479607,0.939432,1.210607,0.043786,-0.764679,0.133190,0.101825,-1.133570,-3.412977,-0.237496,4.195760,3.028129,-0.594896,0.013676,0.078604,0.000000,-0.350863,0.114119,-0.000000
4.480000,2.262564,0.753161,-1.479164,0.931729,1.211769,0.044792,-0.775804,0.099214,0.099420,-1.091407,-3.382023,-0.243664,4.236173,3.160430,-0.638256,0.010184,0.079723,0.000000,-0.347485,0.109683,-0.000000
4.490000,2.271843,0.765283,-1.478711,0.923917,1.212593,0.045774,-0.786506,0.065555,0.096950,-1.048906,-3.349381,-0.250309,4.261105,3.387337,-0.693046,0.006727,0.080798,0.000000,-0.343923,0.105210,-0.000000
4.500000,2.281042,0.777412,-1.478249,0.916000,1.213081,0.046731,-0.796782,0.032234,0.094412,-1.006182,-3.314484,-0.257491,4.285016,3.569440,-0.740416,0.003307,0.081828,0.000000,-0.340121,0.100712,0.000000
4.510000,2.290162,0.789543,-1.477777,0.907983,1.213238,0.047662,-0.806629,-0.000730,0.091799,-0.963221,-3.278010,-0.265097,4.304350,3.741553,-0.784792,-0.000075,0.082812,0.000000,-0.336148,0.096188,0.000000
4.520000,2.299202,0.801675,-1.477296,0.899869,1.213068,0.048567,-0.816046,-0.033319,0.089108,-0.920128,-3.239522,-0.273218,4.315388,3.937376,-0.834527,-0.003416,0.083751,0.000000,-0.331959,0.091649,-0.000000
4.530000,2.308159,0.813804,-1.476806,0.891663,1.212573,0.049444,-0.825031,-0.065516,0.086334,-0.876887,-3.199650,-0.281687,4.332253,4.034931,-0.858679,-0.006714,0.084645,0.000000,-0.327621,0.087094,0.000000
4.540000,2.317035,0.825926,-1.476307,0.883370,1.211759,0.050293,-0.833583,-0.097308,0.083473,-0.833537,-3.158508,-0.290467,4.334892,4.209295,-0.901135,-0.009968,0.085493,0.000000,-0.323145,0.082528,-0.000000
4.550000,2.325827,0.838038,-1.475800,0.874993,1.210629,0.051113,-0.841702,-0.128680,0.080523,-0.790184,-3.115637,-0.299665,4.336835,4.346038,-0.933103,-0.013176,0.086296,0.000000,-0.318485,0.077961,-0.000000
4.560000,2.334534,0.850137,-1.475285,0.866537,1.209187,0.051903,-0.849387,-0.159617,0.077479,-0.746818,-3.071596,-0.309102,4.334569,4.473858,-0.960894,-0.016337,0.087052,0.000000,-0.313699,0.073394,0.000000
4.570000,2.343157,0.862221,-1.474762,0.858007,1.207438,0.052663,-0.856638,-0.190107,0.074339,-0.703517,-3.026068,-0.318936,4.326141,4.617774,-0.998329,-0.019449,0.087764,0.000000,-0.308755,0.068833,-0.000000
4.580000,2.351694,0.874285,-1.474232,0.849406,1.205386,0.053390,-0.863457,-0.220135,0.071100,-0.660285,-2.979532,-0.328912,4.319606,4.687710,-0.995935,-0.022512,0.088429,0.000000,-0.303703,0.064283,0.000000
4.590000,2.360145,0.886327,-1.473694,0.840739,1.203037,0.054084,-0.869844,-0.249695,0.067761,-0.617160,-2.932084,-0.338981,4.303693,4.813347,-1.024315,-0.025523,0.089050,0.000000,-0.298555,0.059746,0.000000
4.600000,2.368509,0.898345,-1.473150,0.832011,1.200394,0.054745,-0.875801,-0.278773,0.064319,-0.574216,-2.883400,-0.349325,4.285783,4.909693,-1.036852,-0.028482,0.089625,0.000000,-0.293276,0.055230,-0.000000
4.610000,2.376785,0.910334,-1.472599,0.823225,1.197463,0.055370,-0.881329,-0.307360,0.060774,-0.531445,-2.833891,-0.359685,4.264600,4.998843,-1.044639,-0.031388,0.090155,0.000000,-0.287912,0.050736,-0.000000
4.620000,2.384973,0.922293,-1.472043,0.814385,1.194248,0.055960,-0.886431,-0.335447,0.057125,-0.488966,-2.783374,-0.370297,4.233711,5.095786,-1.067250,-0.034240,0.090640,0.000000,-0.282442,0.046275,0.000000
4.630000,2.393072,0.934218,-1.471480,0.805497,1.190756,0.056512,-0.891109,-0.363025,0.053369,-0.446715,-2.732159,-0.380809,4.215943,5.145937,-1.034058,-0.037037,0.091081,0.000000,-0.276902,0.041843,-0.000000
4.640000,2.401083,0.946107,-1.470913,0.796565,1.186990,0.057027,-0.895366,-0.390088,0.049509,-0.404723,-2.680322,-0.391163,4.178694,5.228102,-1.046054,-0.039778,0.091478,0.000000,-0.271300,0.037444,-0.000000
4.650000,2.409004,0.957957,-1.470340,0.787591,1.182956,0.057502,-0.899205,-0.416629,0.045545,-0.363123,-2.627680,-0.401632,4.143749,5.291250,-1.036898,-0.042463,0.091831,0.000000,-0.265616,0.033090,0.000000
4.660000,2.416835,0.969765,-1.469763,0.778582,1.178659,0.057937,-0.902630,-0.442640,0.041477,-0.321918,-2.574488,-0.411867,4.104390,5.348671,-1.022490,-0.045090,0.092140,0.000000,-0.259880,0.028783,0.000000
4.670000,2.424575,0.981529,-1.469181,0.769540,1.174105,0.058331,-0.905644,-0.468116,0.037307,-0.280976,-2.520703,-0.422187,4.075994,5.405145,-1.028039,-0.047660,0.092407,0.000000,-0.254086,0.024509,-0.000000
4.680000,2.432225,0.993247,-1.468596,0.760470,1.169298,0.058683,-0.908251,-0.493053,0.033035,-0.240561,-2.466453,-0.432148,4.006333,5.443920,-0.963026,-0.050172,0.092631,0.000000,-0.248250,0.020298,-0.000000
4.690000,2.439784,1.004915,-1.468008,0.751376,1.164245,0.058992,-0.910458,-0.517444,0.028666,-0.200711,-2.411793,-0.441688,3.970722,5.489669,-0.957102,-0.052625,0.092814,0.000000,-0.242379,0.016154,-0.000000
4.700000,2.447253,1.016531,-1.467416,0.742263,1.158951,0.059256,-0.912267,-0.541287,0.024201,-0.161228,-2.356694,-0.451168,3.919023,5.526817,-0.925220,-0.055019,0.092955,0.000000,-0.236470,0.012055,-0.000000
4.710000,2.454630,1.028093,-1.466823,0.733132,1.153421,0.059475,-0.913684,-0.564577,0.019644,-0.122288,-2.301245,-0.460166,3.865842,5.559972,-0.888152,-0.057354,0.093055,0.000000,-0.230533,0.008021,-0.000000
4.720000,2.461915,1.039598,-1.466227,0.723990,1.147662,0.059649,-0.914715,-0.587311,0.014998,-0.083947,-2.245530,-0.469049,3.804704,5.584667,-0.873693,-0.059630,0.093116,0.000000,-0.224578,0.004056,-0.000000
4.730000,2.469109,1.051045,-1.465630,0.714839,1.141677,0.059775,-0.915365,-0.609486,0.010265,-0.046144,-2.189516,-0.477332,3.755566,5.617581,-0.781925,-0.061846,0.093137,0.000000,-0.218602,0.000157,-0.000000
4.740000,2.476212,1.062431,-1.465032,0.705684,1.135474,0.059854,-0.915639,-0.631100,0.005453,-0.008900,-2.133236,-0.484956,3.690036,5.635607,-0.756107,-0.064002,0.093119,0.000000,-0.212612,-0.003672,-0.000000
4.750000,2.483223,1.073754,-1.464433,0.696528,1.129057,0.059884,-0.915545,-0.652151,0.000567,0.027677,-2.076798,-0.492325,3.627232,5.654059,-0.702592,-0.066098,0.093064,0.000000,-0.206617,-0.007425,-0.000000
4.760000,2.490143,1.085012,-1.463834,0.687374,1.122433,0.059865,-0.915088,-0.672636,-0.004391,0.063640,-2.020131,-0.498990,3.562205,5.670538,-0.644272,-0.068134,0.092971,0.000000,-0.200612,-0.011102,-0.000000
4.770000,2.496971,1.096202,-1.463236,0.678227,1.115606,0.059796,-0.914275,-0.692554,-0.009412,0.098888,-1.963475,-0.505331,3.489821,5.668503,-0.609247,-0.070110,0.092841,0.000000,-0.194620,-0.014698,0.000000
4.780000,2.503707,1.107323,-1.462639,0.669090,1.108583,0.059676,-0.913112,-0.711904,-0.014494,0.133487,-1.906596,-0.510867,3.429662,5.706989,-0.497023,-0.072026,0.092676,0.000000,-0.188622,-0.018215,0.000000
4.790000,2.510352,1.118373,-1.462043,0.659966,1.101370,0.059506,-0.911607,-0.730685,-0.019627,0.167420,-1.849509,-0.515544,3.353802,5.701924,-0.451972,-0.073883,0.092476,0.000000,-0.182619,-0.021650,0.000000
4.800000,2.516907,1.129350,-1.461449,0.650859,1.093972,0.059284,-0.909766,-0.748895,-0.024804,0.200579,-1.792495,-0.519775,3.280540,5.708798,-0.379534,-0.075679,0.092242,0.000000,-0.176638,-0.024998,-0.000000
4.810000,2.523370,1.140252,-1.460857,0.641772,1.086394,0.059010,-0.907598,-0.766534,-0.030019,0.232977,-1.735324,-0.523126,3.205245,5.715106,-0.303308,-0.077415,0.091975,0.000000,-0.170660,-0.028254,0.000000
4.820000,2.529742,1.151077,-1.460269,0.632708,1.078643,0.058683,-0.905109,-0.783602,-0.035265,0.264750,-1.678276,-0.525949,3.141896,5.702860,-0.248305,-0.079092,0.091676,0.000000,-0.164710,-0.031437,-0.000000
4.830000,2.536024,1.161824,-1.459684,0.623671,1.070724,0.058304,-0.902306,-0.800099,-0.040535,0.295658,-1.621090,-0.527821,3.039137,5.734345,-0.125263,-0.080710,0.091345,0.000000,-0.158766,-0.034519,0.000000
4.840000,2.542216,1.172491,-1.459103,0.614663,1.062643,0.057873,-0.899199,-0.816023,-0.045818,0.325676,-1.563767,-0.528699,2.971651,5.721348,-0.062633,-0.082268,0.090983,0.000000,-0.152829,-0.037498,0.000000
4.850000,2.548317,1.183077,-1.458526,0.605688,1.054405,0.057388,-0.895795,-0.831375,-0.051107,0.355016,-1.506590,-0.528955,2.889776,5.722316,0.023970,-0.083766,0.090593,0.000000,-0.146924,-0.040398,0.000000
4.860000,2.554330,1.193579,-1.457955,0.596748,1.046017,0.056850,-0.892101,-0.846154,-0.056394,0.383515,-1.449301,-0.528228,2.807861,5.723233,0.112614,-0.085206,0.090173,0.000000,-0.141029,-0.043200,0.000000
4.870000,2.560252,1.203996,-1.457389,0.587847,1.037484,0.056260,-0.888127,-0.860362,-0.061669,0.411150,-1.392240,-0.526782,2.720985,5.700672,0.185787,-0.086587,0.089726,0.000000,-0.135176,-0.045905,-0.000000
4.880000,2.566087,1.214328,-1.456830,0.578987,1.028812,0.055617,-0.883881,-0.873999,-0.066926,0.437975,-1.335040,-0.524320,2.643797,5.739708,0.307126,-0.087910,0.089252,0.000000,-0.129330,-0.048516,-0.000000
4.890000,2.571832,1.224572,-1.456277,0.570170,1.020006,0.054922,-0.879370,-0.887062,-0.072152,0.463982,-1.277687,-0.520816,2.555421,5.718809,0.384742,-0.089174,0.088752,0.000000,-0.123492,-0.051032,-0.000000
4.900000,2.577490,1.234728,-1.455732,0.561400,1.011072,0.054174,-0.874604,-0.899553,-0.077340,0.489106,-1.220565,-0.516543,2.470433,5.717800,0.478703,-0.090380,0.088227,0.000000,-0.117696,-0.053450,-0.000000
4.910000,2.583060,1.244793,-1.455194,0.552679,1.002017,0.053375,-0.869591,-0.911473,-0.082480,0.513381,-1.163315,-0.511263,2.384427,5.717639,0.573109,-0.091528,0.087679,0.000000,-0.111910,-0.055772,-0.000000
4.920000,2.588544,1.254768,-1.454664,0.544009,0.992845,0.052525,-0.864339,-0.922821,-0.087562,0.536792,-1.106348,-0.505120,2.297764,5.689976,0.659720,-0.092618,0.087108,0.000000,-0.106172,-0.057998,0.000000
4.930000,2.593941,1.264650,-1.454144,0.535393,0.983562,0.051624,-0.858858,-0.933599,-0.092579,0.559337,-1.049216,-0.497980,2.211398,5.736772,0.768374,-0.093651,0.086514,0.000000,-0.100440,-0.060127,-0.000000
4.940000,2.599252,1.274439,-1.453632,0.526833,0.974175,0.050673,-0.853156,-0.943804,-0.097518,0.581017,-0.991901,-0.489839,2.124365,5.712022,0.855551,-0.094627,0.085900,0.000000,-0.094711,-0.062159,-0.000000
4.950000,2.604478,1.284133,-1.453130,0.518330,0.964688,0.049674,-0.847241,-0.953438,-0.102373,0.601820,-0.934851,-0.480832,2.036991,5.711935,0.949545,-0.095545,0.085266,0.000000,-0.089030,-0.064096,-0.000000
4.960000,2.609619,1.293732,-1.452639,0.509888,0.955108,0.048626,-0.841122,-0.962501,-0.107132,0.621764,-0.877671,-0.470882,1.950057,5.712269,1.042107,-0.096407,0.084613,0.000000,-0.083356,-0.065939,0.000000
4.970000,2.614676,1.303235,-1.452158,0.501509,0.945440,0.047532,-0.834808,-0.970993,-0.111787,0.640805,-0.820715,-0.459979,1.859848,5.690405,1.136559,-0.097213,0.083941,0.000000,-0.077725,-0.067684,0.000000
4.980000,2.619649,1.312641,-1.451688,0.493193,0.935690,0.046391,-0.828309,-0.978915,-0.116329,0.658999,-0.763619,-0.448189,1.778995,5.729291,1.221241,-0.097962,0.083253,0.000000,-0.072100,-0.069337,0.000000
4.990000,2.624540,1.321948,-1.451230,0.484943,0.925864,0.045205,-0.821631,-0.986264,-0.120748,0.676350,-0.706363,-0.435528,1.689643,5.710099,1.312174,-0.098655,0.082548,0.000000,-0.066478,-0.070901,0.000000
5.000000,2.629348,1.331158,-1.450784,0.476761,0.915967,0.043976,-0.814785,-0.993043,-0.125036,0.692810,-0.649319,-0.421966,1.603847,5.710697,1.398302,-0.099292,0.081828,0.000000,-0.060897,-0.072370,-0.000000
5.010000,2.634075,1.340267,-1.450351,0.468648,0.906005,0.042705,-0.807778,-0.999250,-0.129185,0.708430,-0.592141,-0.407603,1.518560,5.712101,1.481394,-0.099873,0.081094,0.000000,-0.055319,-0.073750,0.000000
5.020000,2.638721,1.349277,-1.449930,0.460606,0.895984,0.041393,-0.800619,-1.004887,-0.133185,0.723168,-0.535194,-0.392278,1.430763,5.689710,1.575905,-0.100398,0.080346,0.000000,-0.049784,-0.075038,0.000000
5.030000,2.643288,1.358187,-1.449523,0.452636,0.885909,0.040042,-0.793317,-1.009953,-0.137028,0.737082,-0.478088,-0.376247,1.352224,5.731852,1.629502,-0.100868,0.079586,0.000000,-0.044248,-0.076240,-0.000000
5.040000,2.647774,1.366995,-1.449130,0.444740,0.875786,0.038653,-0.785880,-1.014448,-0.140708,0.750182,-0.420807,-0.359551,1.266382,5.711847,1.716461,-0.101283,0.078814,0.000000,-0.038710,-0.077360,0.000000
5.050000,2.652183,1.375703,-1.448750,0.436919,0.865622,0.037228,-0.778316,-1.018371,-0.144216,0.762427,-0.363746,-0.341992,1.184311,5.712832,1.787463,-0.101643,0.078031,0.000000,-0.033209,-0.078391,-0.000000
5.060000,2.656513,1.384308,-1.448385,0.429174,0.855421,0.035770,-0.770634,-1.021722,-0.147545,0.773871,-0.306570,-0.323834,1.102955,5.713305,1.854656,-0.101947,0.077238,0.000000,-0.027710,-0.079342,0.000000
5.070000,2.660766,1.392811,-1.448035,0.421506,0.845189,0.034278,-0.762842,-1.024503,-0.150689,0.784461,-0.249574,-0.304794,1.017863,5.695331,1.940743,-0.102197,0.076436,0.000000,-0.022244,-0.080206,-0.000000
5.080000,2.664943,1.401211,-1.447700,0.413917,0.834933,0.032756,-0.754948,-1.026713,-0.153640,0.794288,-0.192466,-0.285285,0.947877,5.726373,1.960107,-0.102392,0.075626,0.000000,-0.016776,-0.080994,-0.000000
5.090000,2.669045,1.409509,-1.447380,0.406408,0.824657,0.031206,-0.746959,-1.028352,-0.156394,0.803369,-0.135241,-0.265364,0.865825,5.709038,2.035423,-0.102533,0.074808,0.000000,-0.011306,-0.081711,0.000000
5.100000,2.673072,1.417705,-1.447076,0.398979,0.814368,0.029629,-0.738883,-1.029419,-0.158944,0.811630,-0.078207,-0.244689,0.789477,5.707099,2.086229,-0.102618,0.073983,0.000000,-0.005866,-0.082345,-0.000000
5.110000,2.677025,1.425797,-1.446787,0.391630,0.804070,0.028028,-0.730728,-1.029915,-0.161287,0.819169,-0.021116,-0.223675,0.714871,5.704275,2.131360,-0.102650,0.073152,0.000000,-0.000426,-0.082910,0.000000
5.120000,2.680905,1.433786,-1.446515,0.384364,0.793771,0.026404,-0.722502,-1.029842,-0.163415,0.825898,0.035814,-0.201934,0.634759,5.687975,2.200927,-0.102627,0.072317,0.000000,0.004988,-0.083396,0.000000
5.130000,2.684712,1.441672,-1.446259,0.377181,0.783476,0.024760,-0.714213,-1.029199,-0.165325,0.831945,0.092773,-0.179989,0.575070,5.703848,2.186794,-0.102550,0.071476,0.000000,0.010402,-0.083818,-0.000000
5.140000,2.688449,1.449456,-1.446020,0.370080,0.773189,0.023098,-0.705866,-1.027986,-0.167015,0.837331,0.149757,-0.157910,0.498771,5.686252,2.243539,-0.102419,0.070631,0.000000,0.015817,-0.084179,-0.000000
5.150000,2.692114,1.457136,-1.445797,0.363063,0.762918,0.021421,-0.697469,-1.026205,-0.168481,0.841959,0.206542,-0.135262,0.430471,5.677486,2.269707,-0.102234,0.069784,0.000000,0.021207,-0.084467,-0.000000
5.160000,2.695710,1.464714,-1.445592,0.356131,0.752667,0.019730,-0.689029,-1.023855,-0.169720,0.845952,0.263283,-0.112544,0.364030,5.667098,2.289843,-0.101995,0.068933,0.000000,0.026593,-0.084697,0.000000
5.170000,2.699237,1.472189,-1.445403,0.349283,0.742442,0.018027,-0.680552,-1.020940,-0.170730,0.849206,0.319847,-0.089328,0.291248,5.648577,2.336166,-0.101702,0.068081,0.000000,0.031959,-0.084857,0.000000
5.180000,2.702696,1.479563,-1.445231,0.342520,0.732250,0.016316,-0.672046,-1.017459,-0.171507,0.851871,0.376314,-0.066178,0.242313,5.644463,2.292575,-0.101356,0.067228,0.000000,0.037319,-0.084966,-0.000000
5.190000,2.706088,1.486835,-1.445077,0.335842,0.722095,0.014598,-0.663517,-1.013414,-0.172054,0.853974,0.432665,-0.043165,0.174280,5.622050,2.325461,-0.100956,0.066373,0.000000,0.042674,-0.085026,-0.000000
5.200000,2.709413,1.494005,-1.444939,0.329250,0.711984,0.012875,-0.654969,-1.008806,-0.172369,0.855392,0.488773,-0.019828,0.114671,5.602454,2.325159,-0.100502,0.065519,0.000000,0.048005,-0.085021,-0.000000
5.210000,2.712673,1.501074,-1.444819,0.322743,0.701921,0.011151,-0.646410,-1.003639,-0.172451,0.856276,0.544690,0.003318,0.057605,5.579975,2.319189,-0.099996,0.064664,0.000000,0.053326,-0.084972,0.000000
5.220000,2.715868,1.508044,-1.444716,0.316321,0.691913,0.009427,-0.637846,-0.997913,-0.172301,0.856504,0.600359,0.026685,-0.006929,5.553712,2.337923,-0.099436,0.063811,0.000000,0.058626,-0.084862,-0.000000
5.230000,2.719000,1.514913,-1.444631,0.309986,0.681964,0.007706,-0.629282,-0.991633,-0.171919,0.856246,0.655763,0.049735,-0.044152,5.526567,2.270831,-0.098823,0.062959,0.000000,0.063911,-0.084712,-0.000000
5.240000,2.722068,1.521683,-1.444562,0.303736,0.672082,0.005990,-0.620723,-0.984799,-0.171308,0.855528,0.710870,0.072398,-0.104018,5.493795,2.276386,-0.098158,0.062109,0.000000,0.069178,-0.084525,0.000000
5.250000,2.725075,1.528355,-1.444511,0.297571,0.662270,0.004280,-0.612173,-0.977416,-0.170470,0.854220,0.765635,0.095116,-0.153095,5.458638,2.250722,-0.097440,0.061260,0.000000,0.074419,-0.084284,-0.000000
5.260000,2.728020,1.534929,-1.444476,0.291492,0.652535,0.002581,-0.603640,-0.969488,-0.169407,0.852481,0.820012,0.117403,-0.200195,5.419227,2.219718,-0.096669,0.060415,0.000000,0.079636,-0.084010,0.000000
5.270000,2.730905,1.541406,-1.444459,0.285498,0.642882,0.000893,-0.595126,-0.961017,-0.168122,0.850170,0.874035,0.139620,-0.256110,5.381630,2.209564,-0.095847,0.059572,0.000000,0.084828,-0.083684,0.000000
5.280000,2.733730,1.547787,-1.444459,0.279590,0.633317,-0.000781,-0.586637,-0.952009,-0.166617,0.847482,0.927570,0.161302,-0.280990,5.324565,2.125645,-0.094973,0.058734,0.000000,0.089988,-0.083330,-0.000000
5.290000,2.736497,1.554072,-1.444475,0.273766,0.623844,-0.002439,-0.578177,-0.942468,-0.164898,0.844444,0.980572,0.182386,-0.332070,5.278069,2.103763,-0.094047,0.057898,0.000000,0.095113,-0.082949,-0.000000
5.300000,2.739206,1.560264,-1.444507,0.268026,0.614469,-0.004078,-0.569750,-0.932399,-0.162970,0.840894,1.033091,0.203249,-0.371870,5.222066,2.054791,-0.093071,0.057067,0.000000,0.100203,-0.082524,0.000000
5.310000,2.741858,1.566362,-1.444556,0.262371,0.605198,-0.005697,-0.561360,-0.921808,-0.160835,0.837021,1.085021,0.223491,-0.408783,5.162144,2.002205,-0.092043,0.056241,0.000000,0.105253,-0.082075,0.000000
5.320000,2.744454,1.572368,-1.444621,0.256799,0.596035,-0.007294,-0.553011,-0.910700,-0.158501,0.832688,1.136317,0.243379,-0.453105,5.096521,1.964696,-0.090966,0.055419,0.000000,0.110257,-0.081587,-0.000000
5.330000,2.746994,1.578283,-1.444702,0.251310,0.586985,-0.008867,-0.544708,-0.899084,-0.155970,0.828060,1.186943,0.262561,-0.472079,5.027996,1.870853,-0.089838,0.054602,0.000000,0.115213,-0.081077,0.000000
5.340000,2.749480,1.584108,-1.444798,0.245904,0.578055,-0.010413,-0.536451,-0.886964,-0.153252,0.823161,1.236852,0.280988,-0.511849,4.952373,1.824149,-0.088662,0.053791,0.000000,0.120118,-0.080549,0.000000
5.350000,2.751912,1.589845,-1.444910,0.240581,0.569248,-0.011931,-0.528246,-0.874349,-0.150352,0.817864,1.285981,0.298944,-0.542466,4.872499,1.756677,-0.087436,0.052985,0.000000,0.124964,-0.079988,0.000000
5.360000,2.754292,1.595494,-1.445037,0.235339,0.560569,-0.013419,-0.520095,-0.861247,-0.147276,0.812324,1.334274,0.316128,-0.570964,4.786844,1.686173,-0.086163,0.052185,0.000000,0.129748,-0.079410,-0.000000
5.370000,2.756619,1.601057,-1.445178,0.230179,0.552024,-0.014876,-0.512001,-0.847667,-0.144031,0.806398,1.381713,0.332718,-0.608551,4.698558,1.624995,-0.084842,0.051391,0.000000,0.134465,-0.078799,0.000000
5.380000,2.758896,1.606535,-1.445334,0.225099,0.543618,-0.016299,-0.503967,-0.833616,-0.140624,0.800275,1.428194,0.348486,-0.615678,4.596643,1.528034,-0.083474,0.050604,0.000000,0.139108,-0.078176,0.000000
5.390000,2.761122,1.611929,-1.445504,0.220099,0.535354,-0.017688,-0.495996,-0.819106,-0.137064,0.793977,1.473658,0.363398,-0.649208,4.496642,1.460388,-0.082060,0.049822,0.000000,0.143671,-0.077543,-0.000000
5.400000,2.763298,1.617242,-1.445688,0.215179,0.527237,-0.019040,-0.488089,-0.804146,-0.133359,0.787342,1.518087,0.377635,-0.671883,4.387399,1.379958,-0.080600,0.049048,0.000000,0.148150,-0.076882,0.000000
5.410000,2.765426,1.622475,-1.445885,0.210337,0.519272,-0.020355,-0.480249,-0.788748,-0.129515,0.780543,1.561376,0.391013,-0.693074,4.272063,1.297602,-0.079097,0.048280,0.000000,0.152536,-0.076211,-0.000000
5.420000,2.767505,1.627628,-1.446095,0.205574,0.511464,-0.021630,-0.472479,-0.772923,-0.125541,0.773437,1.603531,0.403603,-0.722798,4.155322,1.217874,-0.077550,0.047519,0.000000,0.156828,-0.075515,0.000000
5.430000,2.769537,1.632704,-1.446317,0.200887,0.503815,-0.022865,-0.464781,-0.756682,-0.121445,0.766196,1.644407,0.415318,-0.724990,4.018534,1.124933,-0.075961,0.046765,0.000000,0.161012,-0.074811,-0.000000
5.440000,2.771523,1.637705,-1.446552,0.196278,0.496331,-0.024059,-0.457156,-0.740039,-0.117237,0.758839,1.683932,0.426143,-0.751347,3.888005,1.042082,-0.074330,0.046018,0.000000,0.165081,-0.074101,0.000000
5.450000,2.773463,1.642632,-1.446798,0.191744,0.489016,-0.025210,-0.449605,-0.723008,-0.112925,0.751208,1.722123,0.436136,-0.768833,3.746321,0.954350,-0.072660,0.045279,0.000000,0.169035,-0.073368,0.000000
5.460000,2.775358,1.647486,-1.447056,0.187286,0.481872,-0.026317,-0.442132,-0.705601,-0.108518,0.743449,1.758862,0.445249,-0.785238,3.598021,0.866264,-0.070950,0.044547,0.000000,0.172861,-0.072627,0.000000
5.470000,2.777209,1.652270,-1.447325,0.182901,0.474905,-0.027380,-0.434737,-0.687836,-0.104023,0.735483,1.794038,0.453443,-0.805622,3.438288,0.774244,-0.069203,0.043823,0.000000,0.176549,-0.071869,0.000000
5.480000,2.779016,1.656985,-1.447604,0.178590,0.468117,-0.028397,-0.427423,-0.669726,-0.099452,0.727389,1.827650,0.460771,-0.812911,3.282852,0.691288,-0.067419,0.043106,0.000000,0.180095,-0.071103,0.000000
5.490000,2.780781,1.661633,-1.447892,0.174353,0.461511,-0.029368,-0.420190,-0.651288,-0.094811,0.719177,1.859625,0.467233,-0.831938,3.108596,0.599331,-0.065601,0.042397,0.000000,0.183494,-0.070329,-0.000000
5.500000,2.782504,1.666215,-1.448191,0.170186,0.455092,-0.030293,-0.413040,-0.632539,-0.090110,0.710775,1.889821,0.472773,-0.846274,2.931009,0.510650,-0.063750,0.041697,0.000000,0.186728,-0.069539,-0.000000
5.510000,2.784185,1.670735,-1.448498,0.166091,0.448862,-0.031170,-0.405974,-0.613498,-0.085358,0.702256,1.918210,0.477468,-0.860405,2.745242,0.422869,-0.061867,0.041004,0.000000,0.189794,-0.068741,-0.000000
5.520000,2.785826,1.675193,-1.448814,0.162067,0.442823,-0.032000,-0.398995,-0.594181,-0.080564,0.693541,1.944697,0.481183,-0.879728,2.551133,0.325651,-0.059955,0.040319,0.000000,0.192682,-0.067926,0.000000
5.530000,2.787427,1.679592,-1.449138,0.158111,0.436979,-0.032782,-0.392104,-0.574610,-0.075737,0.684718,1.969210,0.484093,-0.884883,2.349918,0.256639,-0.058014,0.039643,0.000000,0.195383,-0.067102,-0.000000
5.540000,2.788988,1.683934,-1.449470,0.154224,0.431332,-0.033515,-0.385301,-0.554804,-0.070885,0.675788,1.991664,0.486214,-0.903909,2.139416,0.162330,-0.056048,0.038975,0.000000,0.197885,-0.066269,0.000000
5.550000,2.790511,1.688219,-1.449808,0.150405,0.425883,-0.034199,-0.378589,-0.534784,-0.066016,0.666663,2.011971,0.487388,-0.918419,1.920819,0.078012,-0.054057,0.038315,0.000000,0.200181,-0.065419,-0.000000
5.560000,2.791997,1.692452,-1.450153,0.146652,0.420637,-0.034835,-0.371968,-0.514572,-0.061140,0.657420,2.030053,0.487803,-0.933415,1.693715,-0.003644,-0.052045,0.037665,0.000000,0.202260,-0.064559,0.000000
5.570000,2.793445,1.696633,-1.450505,0.142965,0.415593,-0.035422,-0.365441,-0.494191,-0.056263,0.647967,2.045818,0.487248,-0.954365,1.457734,-0.099212,-0.050013,0.037023,0.000000,0.204111,-0.063679,-0.000000
5.580000,2.794856,1.700764,-1.450862,0.139343,0.410753,-0.035960,-0.359009,-0.473664,-0.051397,0.638389,2.059178,0.485990,-0.961246,1.212784,-0.151811,-0.047963,0.036389,0.000000,0.205724,-0.062786,-0.000000
5.590000,2.796232,1.704849,-1.451224,0.135785,0.406120,-0.036450,-0.352674,-0.453015,-0.046546,0.628683,2.070043,0.484059,-0.983009,0.958606,-0.241987,-0.045899,0.035765,0.000000,0.207088,-0.061882,0.000000
5.600000,2.797572,1.708887,-1.451590,0.132289,0.401693,-0.036891,-0.346437,-0.432271,-0.041719,0.618742,2.078324,0.481225,-1.001559,0.695550,-0.316627,-0.043823,0.035151,0.000000,0.208194,-0.060954,-0.000000
5.610000,2.798878,1.712883,-1.451961,0.128856,0.397475,-0.037285,-0.340300,-0.411458,-0.036923,0.608643,2.083929,0.477746,-1.020853,0.422957,-0.388419,-0.041736,0.034545,0.000000,0.209029,-0.060010,-0.000000
5.620000,2.800149,1.716838,-1.452336,0.125483,0.393464,-0.037630,-0.334265,-0.390602,-0.032167,0.598299,2.086742,0.473375,-1.045888,0.138921,-0.475988,-0.039643,0.033949,0.000000,0.209581,-0.059041,-0.000000
5.630000,2.801388,1.720753,-1.452714,0.122170,0.389663,-0.037928,-0.328334,-0.369733,-0.027458,0.587769,2.086696,0.468432,-1.060271,-0.149810,-0.511782,-0.037546,0.033364,0.000000,0.209842,-0.058053,0.000000
5.640000,2.802593,1.724632,-1.453094,0.118916,0.386069,-0.038179,-0.322510,-0.348878,-0.022800,0.577043,2.083694,0.462957,-1.087541,-0.453239,-0.592315,-0.035447,0.032788,0.000000,0.209799,-0.057044,-0.000000
5.650000,2.803766,1.728475,-1.453477,0.115719,0.382685,-0.038384,-0.316794,-0.328069,-0.018201,0.566020,2.077602,0.456676,-1.113686,-0.765421,-0.653991,-0.033351,0.032222,0.000000,0.209438,-0.056004,0.000000
5.660000,2.804908,1.732286,-1.453862,0.112580,0.379508,-0.038543,-0.311190,-0.307337,-0.013668,0.554789,2.068369,0.449892,-1.140504,-1.087275,-0.712366,-0.031259,0.031667,0.000000,0.208753,-0.054942,0.000000
5.670000,2.806018,1.736066,-1.454248,0.109495,0.376538,-0.038658,-0.305700,-0.286713,-0.009206,0.543131,2.055781,0.442346,-1.184014,-1.427829,-0.786604,-0.029177,0.031123,0.000000,0.207721,-0.053835,-0.000000
5.680000,2.807098,1.739817,-1.454635,0.106465,0.373773,-0.038728,-0.300328,-0.266232,-0.004823,0.531260,2.039867,0.434374,-1.190410,-1.756637,-0.807040,-0.027106,0.030590,0.000000,0.206343,-0.052705,0.000000
5.690000,2.808147,1.743542,-1.455022,0.103488,0.371212,-0.038755,-0.295076,-0.245927,-0.000520,0.519162,2.020525,0.426019,-1.237205,-2.117698,-0.873360,-0.025051,0.030068,0.000000,0.204606,-0.051550,0.000000
5.700000,2.809168,1.747242,-1.455410,0.100563,0.368854,-0.038739,-0.289947,-0.225834,0.003695,0.506571,1.997509,0.417001,-1.273902,-2.482739,-0.919930,-0.023015,0.029559,0.000000,0.202487,-0.050343,-0.000000
5.710000,2.810159,1.750920,-1.455797,0.097689,0.366695,-0.038681,-0.284945,-0.205989,0.007819,0.493678,1.970767,0.407629,-1.313119,-2.859963,-0.963046,-0.021003,0.029061,0.000000,0.199977,-0.049103,-0.000000
5.720000,2.811121,1.754577,-1.456183,0.094864,0.364733,-0.038583,-0.280075,-0.186431,0.011846,0.480224,1.940341,0.397666,-1.370560,-3.234505,-1.020184,-0.019017,0.028577,0.000000,0.197081,-0.047804,-0.000000
