time,x,y,z,vx,vy,vz,ax,ay,az,jx,jy,jz,sx,sy,sz,roll,pitch,yaw,p,q,r
0.000000,-2.478431,-1.631692,-1.469993,-0.009593,0.001671,-0.004789,0.247076,-0.363205,0.078541,-9.239099,8.951786,-2.221086,257.396649,-108.530834,61.662620,-0.037293,-0.025384,0.000000,0.925907,0.953921,-0.000000
0.010000,-2.478516,-1.631692,-1.470038,-0.007543,-0.001531,-0.004105,0.166871,-0.278799,0.059260,-6.868667,7.959989,-1.650107,217.403797,-90.167971,52.684371,-0.028581,-0.017112,0.000000,0.820049,0.706826,-0.000000
0.020000,-2.478584,-1.631720,-1.470076,-0.006183,-0.003935,-0.003587,0.108440,-0.203427,0.045255,-4.877108,7.141807,-1.164451,181.585384,-73.790883,44.590337,-0.020828,-0.011105,0.000000,0.733392,0.500615,0.000000
0.030000,-2.478641,-1.631768,-1.470110,-0.005313,-0.005624,-0.003185,0.068202,-0.135449,0.035716,-3.223781,6.477890,-0.755503,149.720685,-59.298071,37.335370,-0.013856,-0.006978,0.000000,0.663644,0.330314,0.000000
0.040000,-2.478692,-1.631830,-1.470140,-0.004769,-0.006664,-0.002860,0.042966,-0.073416,0.029916,-1.870251,5.949903,-0.415097,121.588904,-46.588029,30.874325,-0.007506,-0.004393,0.000000,0.608641,0.191408,-0.000000
0.050000,-2.478737,-1.631899,-1.470167,-0.004413,-0.007108,-0.002577,0.029918,-0.016056,0.027211,-0.780282,5.540524,-0.135521,96.970597,-35.559389,25.162026,-0.001641,-0.003058,0.000000,0.566372,0.079802,-0.000000
0.060000,-2.478780,-1.631970,-1.470192,-0.004138,-0.006997,-0.002307,0.026595,0.037736,0.027028,0.080138,5.233449,0.090489,75.643612,-26.110515,20.153344,0.003857,-0.002719,0.000000,0.534981,-0.008217,0.000000
0.070000,-2.478820,-1.632038,-1.470213,-0.003856,-0.006362,-0.002029,0.030862,0.088903,0.028865,0.742828,5.013386,0.269741,57.387850,-18.139976,15.803114,0.009089,-0.003155,0.000000,0.512760,-0.076028,-0.000000
0.080000,-2.478857,-1.632096,-1.470232,-0.003502,-0.005225,-0.001725,0.040892,0.138246,0.032288,1.237397,4.866060,0.408595,41.982631,-11.546309,12.066171,0.014138,-0.004182,0.000000,0.498148,-0.126713,0.000000
0.090000,-2.478890,-1.632140,-1.470248,-0.003024,-0.003601,-0.001380,0.055141,0.186423,0.036922,1.591246,4.778209,0.512958,29.207231,-6.228086,8.897347,0.019073,-0.005642,0.000000,0.489713,-0.163081,-0.000000
0.100000,-2.478917,-1.632166,-1.470259,-0.002389,-0.001499,-0.000983,0.072332,0.233967,0.042450,1.829577,4.737589,0.588288,18.841523,-2.083412,6.251696,0.023948,-0.007405,0.000000,0.486151,-0.187694,0.000000
0.110000,-2.478937,-1.632169,-1.470267,-0.001571,0.001078,-0.000528,0.091425,0.281294,0.048608,1.975374,4.732967,0.639586,10.664228,0.988711,4.083795,0.028808,-0.009366,0.000000,0.486274,-0.202878,0.000000
0.120000,-2.478948,-1.632143,-1.470270,-0.000557,0.004127,-0.000010,0.111600,0.328712,0.055177,2.049422,4.754127,0.671406,4.454922,3.089950,2.348599,0.033682,-0.011440,0.000000,0.489013,-0.210733,0.000000
0.130000,-2.478947,-1.632085,-1.470267,0.000662,0.007653,0.000576,0.132236,0.376432,0.061985,2.070297,4.791868,0.687850,-0.007068,4.321788,1.000967,0.038594,-0.013565,0.000000,0.493406,-0.213140,-0.000000
0.140000,-2.478934,-1.631989,-1.470258,0.002088,0.011658,0.001230,0.152884,0.424578,0.068895,2.054369,4.838003,0.692567,-2.942416,4.785723,-0.004233,0.043553,-0.015693,0.000000,0.498604,-0.211760,0.000000
0.150000,-2.478905,-1.631850,-1.470242,0.003719,0.016146,0.001954,0.173248,0.473196,0.075807,2.015802,4.885361,0.688756,-4.571775,4.583326,-0.712133,0.048566,-0.017796,0.000000,0.503865,-0.208032,0.000000
0.160000,-2.478859,-1.631664,-1.470219,0.005551,0.021123,0.002746,0.193165,0.522268,0.082651,1.966560,4.927786,0.679160,-5.115218,3.815886,-1.168226,0.053629,-0.019855,0.000000,0.508557,-0.203182,-0.000000
0.170000,-2.478793,-1.631426,-1.470187,0.007580,0.026593,0.003606,0.212577,0.571718,0.089379,1.916384,4.960135,0.666080,-4.794245,2.585064,-1.417195,0.058733,-0.021865,0.000000,0.512150,-0.198207,-0.000000
0.180000,-2.478707,-1.631130,-1.470146,0.009801,0.032558,0.004533,0.231515,0.621423,0.095967,1.872822,4.978281,0.651356,-3.829210,0.992306,-1.504376,0.063867,-0.023828,0.000000,0.514227,-0.193887,-0.000000
0.190000,-2.478597,-1.630773,-1.470096,0.012209,0.039021,0.005525,0.250073,0.671226,0.102405,1.841210,4.979113,0.636381,-2.440862,-0.860882,-1.474910,0.069012,-0.025755,0.000000,0.514472,-0.190774,-0.000000
0.200000,-2.478462,-1.630348,-1.470036,0.014802,0.045982,0.006581,0.268389,0.720941,0.108697,1.824687,4.960532,0.622096,-0.849161,-2.873138,-1.373956,0.074149,-0.027658,0.000000,0.512675,-0.189194,-0.000000
0.210000,-2.478300,-1.629852,-1.469964,0.017574,0.053440,0.007698,0.285602,0.770718,0.114656,1.591141,5.001536,0.564376,-3.881999,-3.359861,-2.128563,0.079293,-0.029449,0.000000,0.516622,-0.165164,0.000000
0.220000,-2.478110,-1.629278,-1.469882,0.020515,0.061395,0.008874,0.303522,0.819783,0.120613,2.133128,4.760535,0.653529,71.535568,-30.843278,12.162995,0.084364,-0.031315,0.000000,0.492666,-0.221256,0.000000
0.230000,-2.477889,-1.628622,-1.469787,0.023664,0.069827,0.010114,0.326267,0.866563,0.127340,2.166338,4.678619,0.643928,-66.179824,14.902221,-14.325816,0.089208,-0.033683,0.000000,0.484315,-0.224821,-0.000000
0.240000,-2.477636,-1.627880,-1.469679,0.027023,0.078729,0.011417,0.344640,0.914061,0.133065,1.633355,4.775525,0.524804,0.695740,-9.644619,-1.624694,0.094119,-0.035600,0.000000,0.493333,-0.169749,-0.000000
0.250000,-2.477348,-1.627046,-1.469558,0.030555,0.088106,0.012774,0.362087,0.960938,0.138437,1.830827,4.605932,0.544597,-2.204285,-10.174814,-2.263927,0.098963,-0.037421,0.000000,0.476088,-0.190205,0.000000
0.260000,-2.477024,-1.626116,-1.469423,0.034267,0.097944,0.014185,0.380260,1.006565,0.143764,1.802892,4.519901,0.520624,-2.596685,-11.085493,-2.404940,0.103678,-0.039319,0.000000,0.467012,-0.187330,-0.000000
0.270000,-2.476662,-1.625086,-1.469274,0.038159,0.108233,0.015648,0.398195,1.050977,0.148855,1.786121,4.347066,0.497674,-1.521505,-19.523681,-2.303358,0.108267,-0.041193,0.000000,0.449030,-0.185590,0.000000
0.280000,-2.476260,-1.623950,-1.469110,0.042230,0.118958,0.017161,0.415934,1.093663,0.153708,1.756430,4.212524,0.472069,-4.439779,-7.247490,-2.820007,0.112675,-0.043047,0.000000,0.434911,-0.182495,-0.000000
0.290000,-2.475817,-1.622705,-1.468931,0.046476,0.130104,0.018722,0.433271,1.135407,0.158286,1.712799,4.122592,0.443726,-3.513858,-14.707396,-2.726449,0.116983,-0.044860,0.000000,0.425290,-0.177939,0.000000
0.300000,-2.475330,-1.621347,-1.468736,0.050894,0.141661,0.020326,0.450239,1.175778,0.162588,1.679649,3.952486,0.416529,-3.882055,-15.328945,-2.832910,0.121146,-0.046636,0.000000,0.407467,-0.174448,0.000000
0.310000,-2.474798,-1.619871,-1.468524,0.055480,0.153614,0.021972,0.466859,1.214549,0.166606,1.644726,3.801131,0.386688,-4.074545,-15.998969,-2.947914,0.125141,-0.048375,0.000000,0.391509,-0.170747,-0.000000
0.320000,-2.474220,-1.618273,-1.468296,0.060230,0.165947,0.023657,0.483048,1.251692,0.170334,1.589252,3.622943,0.359309,-6.069880,-18.586180,-2.709674,0.128966,-0.050069,0.000000,0.372848,-0.164935,0.000000
0.330000,-2.473593,-1.616550,-1.468051,0.065139,0.178642,0.025378,0.498683,1.287038,0.173780,1.543277,3.451490,0.328676,-3.091723,-15.658242,-3.422394,0.132601,-0.051705,0.000000,0.354822,-0.160069,0.000000
0.340000,-2.472917,-1.614699,-1.467788,0.070202,0.191682,0.027132,0.513958,1.320760,0.176894,1.508347,3.289037,0.294548,-4.846021,-17.867516,-3.219430,0.136066,-0.053303,0.000000,0.337650,-0.156304,-0.000000
0.350000,-2.472189,-1.612716,-1.467508,0.075416,0.205051,0.028915,0.528771,1.352723,0.179682,1.454545,3.103310,0.262725,-4.957131,-18.220435,-3.328420,0.139345,-0.054852,0.000000,0.318156,-0.150603,0.000000
0.360000,-2.471408,-1.610597,-1.467210,0.080776,0.218730,0.030724,0.543073,1.382843,0.182136,1.405808,2.920309,0.227863,-5.073719,-18.545196,-3.448206,0.142430,-0.056347,0.000000,0.298896,-0.145395,0.000000
0.370000,-2.470573,-1.608340,-1.466894,0.086276,0.232702,0.032557,0.556860,1.411105,0.184251,1.350502,2.731010,0.195561,-5.705064,-19.130202,-3.202621,0.145320,-0.057787,0.000000,0.279048,-0.139518,0.000000
0.380000,-2.469682,-1.605942,-1.466559,0.091911,0.246946,0.034408,0.570093,1.437464,0.186035,1.297635,2.541559,0.159816,-4.856019,-18.743318,-3.952429,0.148011,-0.059168,0.000000,0.259144,-0.133863,0.000000
0.390000,-2.468734,-1.603400,-1.466205,0.097676,0.261445,0.036276,0.582825,1.461940,0.187433,1.247811,2.352874,0.120355,-5.386867,-19.157226,-3.747885,0.150504,-0.060495,0.000000,0.239269,-0.128487,0.000000
0.400000,-2.467728,-1.600712,-1.465833,0.103566,0.276179,0.038156,0.595025,1.484505,0.188453,1.192354,2.160109,0.083222,-5.420357,-19.212273,-3.869793,0.152795,-0.061764,0.000000,0.219036,-0.122542,-0.000000
0.410000,-2.466662,-1.597876,-1.465442,0.109575,0.291128,0.040044,0.606678,1.505145,0.189086,1.138158,1.967899,0.043150,-5.448988,-19.218702,-3.996140,0.154884,-0.062975,0.000000,0.198829,-0.116700,0.000000
0.420000,-2.465536,-1.594889,-1.465032,0.115698,0.306275,0.041936,0.617785,1.523864,0.189324,1.083129,1.775935,0.004667,-5.521816,-19.166073,-3.844425,0.156772,-0.064126,0.000000,0.178690,-0.110777,-0.000000
0.430000,-2.464348,-1.591750,-1.464604,0.121929,0.321599,0.043829,0.628342,1.540666,0.189168,1.028456,1.584734,-0.036761,-5.408890,-19.065402,-4.445429,0.158458,-0.065218,0.000000,0.158600,-0.104866,0.000000
0.440000,-2.463097,-1.588457,-1.464156,0.128263,0.337082,0.045718,0.638356,1.555563,0.188577,0.974351,1.394819,-0.081319,-5.442282,-18.908237,-4.320282,0.159944,-0.066250,0.000000,0.138608,-0.098987,-0.000000
0.450000,-2.461783,-1.585008,-1.463689,0.134694,0.352704,0.047599,0.647827,1.568569,0.187550,0.919944,1.206717,-0.124395,-5.404915,-18.705426,-4.439037,0.161231,-0.067223,0.000000,0.118844,-0.093083,-0.000000
0.460000,-2.460403,-1.581402,-1.463204,0.141218,0.368447,0.049468,0.656757,1.579704,0.186080,0.866019,1.020696,-0.169704,-5.358169,-18.461038,-4.552178,0.162322,-0.068137,0.000000,0.099274,-0.087210,-0.000000
0.470000,-2.458958,-1.577639,-1.462700,0.147828,0.384292,0.051319,0.665151,1.588994,0.184157,0.813004,0.837915,-0.214779,-5.261758,-18.117990,-4.529651,0.163218,-0.068991,0.000000,0.080057,-0.081428,-0.000000
0.480000,-2.457446,-1.573716,-1.462178,0.154519,0.400221,0.053149,0.673018,1.596471,0.181778,0.760425,0.657847,-0.261697,-5.252806,-17.890354,-4.854897,0.163924,-0.069787,0.000000,0.061104,-0.075676,0.000000
0.490000,-2.455867,-1.569634,-1.461637,0.161286,0.416216,0.054953,0.680361,1.602161,0.178917,0.708371,0.480824,-0.310481,-5.137003,-17.478559,-4.832190,0.164441,-0.070525,0.000000,0.042450,-0.069963,0.000000
0.500000,-2.454220,-1.565392,-1.461079,0.168124,0.432258,0.056726,0.687190,1.606102,0.175571,0.657552,0.308136,-0.358895,-5.043806,-17.083838,-4.916746,0.164774,-0.071206,0.000000,0.024263,-0.064377,0.000000
0.510000,-2.452505,-1.560989,-1.460503,0.175028,0.448332,0.058463,0.693515,1.608335,0.171735,0.607489,0.139179,-0.408340,-4.942619,-16.661595,-4.984969,0.164928,-0.071831,0.000000,0.006458,-0.058862,-0.000000
0.520000,-2.450719,-1.556425,-1.459910,0.181993,0.464420,0.060159,0.699346,1.608904,0.167401,0.558957,-0.024625,-0.458691,-4.786408,-16.134818,-5.069080,0.164905,-0.072400,0.000000,-0.010818,-0.053496,-0.000000
0.530000,-2.448865,-1.551700,-1.459300,0.189014,0.480505,0.061809,0.704696,1.607856,0.162560,0.511280,-0.184272,-0.509381,-4.748573,-15.791918,-5.066408,0.164713,-0.072915,0.000000,-0.027656,-0.048217,0.000000
0.540000,-2.446939,-1.546815,-1.458673,0.196085,0.496571,0.063408,0.709574,1.605232,0.157213,0.464497,-0.339581,-0.560260,-4.582580,-15.226098,-5.121171,0.164354,-0.073378,0.000000,-0.044032,-0.043030,0.000000
0.550000,-2.444943,-1.541769,-1.458032,0.203204,0.512604,0.064952,0.713993,1.601085,0.151353,0.419441,-0.489074,-0.611633,-4.451791,-14.709282,-5.136692,0.163834,-0.073788,0.000000,-0.059803,-0.038019,0.000000
0.560000,-2.442875,-1.536563,-1.457375,0.210364,0.528588,0.066434,0.717966,1.595466,0.144982,0.375473,-0.633813,-0.662551,-4.316607,-14.179040,-5.127807,0.163159,-0.074149,0.000000,-0.075059,-0.033125,0.000000
0.570000,-2.440735,-1.531197,-1.456703,0.217562,0.544509,0.067850,0.721509,1.588431,0.138096,0.333347,-0.772084,-0.714903,-4.131353,-13.527971,-5.258394,0.162335,-0.074460,0.000000,-0.089659,-0.028413,0.000000
0.580000,-2.438523,-1.525673,-1.456018,0.224793,0.560352,0.069194,0.724637,1.580040,0.130689,0.292366,-0.905490,-0.765956,-4.064912,-13.153173,-4.946772,0.161368,-0.074725,0.000000,-0.103715,-0.023832,-0.000000
0.590000,-2.436239,-1.519991,-1.455320,0.232053,0.576105,0.070462,0.727360,1.570337,0.122783,0.252536,-1.033999,-0.815419,-3.876889,-12.491526,-5.024526,0.160263,-0.074944,0.000000,-0.117221,-0.019386,-0.000000
0.600000,-2.433882,-1.514151,-1.454609,0.239338,0.591755,0.071648,0.729694,1.559384,0.114376,0.214637,-1.155768,-0.865687,-3.726291,-11.916816,-4.944354,0.159026,-0.075119,0.000000,-0.130029,-0.015137,-0.000000
0.610000,-2.431452,-1.508156,-1.453887,0.246646,0.607289,0.072748,0.731656,1.547238,0.105477,0.177998,-1.272451,-0.913977,-3.575115,-11.341936,-4.835351,0.157664,-0.075251,0.000000,-0.142260,-0.011039,0.000000
0.620000,-2.428949,-1.502006,-1.453154,0.253970,0.622696,0.073756,0.733261,1.533960,0.096091,0.143368,-1.381888,-0.963468,-3.375060,-10.619848,-4.939058,0.156183,-0.075343,0.000000,-0.153747,-0.007143,0.000000
0.630000,-2.426373,-1.495702,-1.452412,0.261310,0.637965,0.074668,0.734527,1.519616,0.086218,0.109988,-1.486414,-1.010159,-3.301541,-10.287670,-4.391981,0.154591,-0.075396,0.000000,-0.164660,-0.003403,-0.000000
0.640000,-2.423723,-1.489247,-1.451661,0.268660,0.653085,0.075479,0.735465,1.504247,0.075899,0.077832,-1.586132,-1.053680,-3.104863,-9.580836,-4.430439,0.152892,-0.075412,0.000000,-0.175005,0.000180,0.000000
0.650000,-2.421000,-1.482641,-1.450903,0.276018,0.668046,0.076184,0.736091,1.487919,0.065140,0.047683,-1.678679,-1.097667,-2.949817,-9.004486,-4.242356,0.151093,-0.075393,0.000000,-0.184603,0.003554,-0.000000
0.660000,-2.418203,-1.475887,-1.450138,0.283381,0.682840,0.076780,0.736423,1.470689,0.053958,0.018815,-1.766369,-1.138371,-2.796674,-8.438656,-4.027231,0.149202,-0.075341,0.000000,-0.193627,0.006764,-0.000000
0.670000,-2.415332,-1.468985,-1.449368,0.290745,0.697457,0.077262,0.736475,1.452618,0.042370,-0.008003,-1.846590,-1.179364,-2.593513,-7.699790,-4.039798,0.147224,-0.075257,0.000000,-0.201873,0.009760,0.000000
0.680000,-2.412388,-1.461938,-1.448593,0.298109,0.711890,0.077626,0.736266,1.433771,0.030385,-0.033613,-1.922343,-1.216408,-2.529490,-7.455035,-3.361869,0.145166,-0.075144,0.000000,-0.209576,0.012595,-0.000000
0.690000,-2.409370,-1.454748,-1.447816,0.305470,0.726130,0.077869,0.735806,1.414184,0.018057,-0.058065,-1.993840,-1.249136,-2.334446,-6.752230,-3.310422,0.143034,-0.075003,0.000000,-0.216757,0.015271,0.000000
0.700000,-2.406278,-1.447416,-1.447036,0.312825,0.740171,0.077986,0.735112,1.393920,0.005401,-0.080540,-2.058219,-1.281454,-2.186928,-6.219012,-3.021221,0.140834,-0.074836,0.000000,-0.223189,0.017736,-0.000000
0.710000,-2.403114,-1.439945,-1.446256,0.320171,0.754007,0.077976,0.734199,1.373033,-0.007557,-0.101830,-2.118354,-1.309572,-2.042915,-5.703521,-2.711048,0.138572,-0.074645,0.000000,-0.229107,0.020041,0.000000
0.720000,-2.399875,-1.432337,-1.445477,0.327508,0.767630,0.077834,0.733083,1.351579,-0.020789,-0.121145,-2.171351,-1.336646,-1.848191,-5.001615,-2.593183,0.136254,-0.074432,0.000000,-0.234270,0.022131,-0.000000
0.730000,-2.396563,-1.424593,-1.444700,0.334832,0.781037,0.077559,0.731780,1.329618,-0.034273,-0.139383,-2.220604,-1.359117,-1.800829,-4.854444,-1.895273,0.133888,-0.074199,0.000000,-0.238970,0.024070,0.000000
0.740000,-2.393178,-1.416717,-1.443926,0.342143,0.794221,0.077148,0.730298,1.307177,-0.047954,-0.156612,-2.266397,-1.376692,-1.617551,-4.202428,-1.726692,0.131476,-0.073947,0.000000,-0.243236,0.025864,-0.000000
0.750000,-2.389721,-1.408710,-1.443157,0.349438,0.807179,0.076599,0.728654,1.284314,-0.061804,-0.171985,-2.305590,-1.392684,-1.485058,-3.742893,-1.360872,0.129025,-0.073678,0.000000,-0.246804,0.027454,-0.000000
0.760000,-2.386190,-1.400574,-1.442395,0.356716,0.819906,0.075912,0.726861,1.261076,-0.075791,-0.186330,-2.341336,-1.404060,-1.357113,-3.304593,-0.983181,0.126541,-0.073394,0.000000,-0.249952,0.028901,-0.000000
0.770000,-2.382586,-1.392312,-1.441640,0.363975,0.832399,0.075083,0.724934,1.237510,-0.089878,-0.198887,-2.370776,-1.412965,-1.181528,-2.687591,-0.727887,0.124029,-0.073096,0.000000,-0.252429,0.030145,0.000000
0.780000,-2.378910,-1.383927,-1.440894,0.371214,0.844655,0.074114,0.722886,1.213669,-0.104034,-0.210530,-2.397274,-1.417154,-1.148523,-2.618204,-0.106750,0.121494,-0.072787,0.000000,-0.254544,0.031259,0.000000
0.790000,-2.375162,-1.375420,-1.440158,0.378432,0.856672,0.073003,0.720726,1.189572,-0.118204,-0.221333,-2.421146,-1.416463,-0.985854,-2.056673,0.176843,0.118939,-0.072467,0.000000,-0.256333,0.032250,-0.000000
0.800000,-2.371342,-1.366794,-1.439434,0.385628,0.868446,0.071750,0.718466,1.165267,-0.132355,-0.230486,-2.439338,-1.413013,-0.872279,-1.686634,0.582498,0.116369,-0.072138,0.000000,-0.257523,0.033053,-0.000000
0.810000,-2.367450,-1.358052,-1.438723,0.392801,0.879976,0.070356,0.716119,1.140793,-0.146449,-0.238757,-2.454890,-1.405052,-0.763071,-1.337785,0.989050,0.113789,-0.071801,0.000000,-0.258401,0.033735,-0.000000
0.820000,-2.363486,-1.349195,-1.438027,0.399950,0.891261,0.068821,0.713696,1.116188,-0.160444,-0.245581,-2.465336,-1.393421,-0.621375,-0.840718,1.357709,0.111203,-0.071459,0.000000,-0.258737,0.034245,-0.000000
0.830000,-2.359451,-1.340227,-1.437347,0.407075,0.902300,0.067147,0.711210,1.091493,-0.174303,-0.251593,-2.473574,-1.377471,-0.582196,-0.812450,1.832733,0.108615,-0.071113,0.000000,-0.258816,0.034644,0.000000
0.840000,-2.355344,-1.331150,-1.436685,0.414174,0.913091,0.065336,0.708666,1.066722,-0.187979,-0.256857,-2.479900,-1.357185,-0.452263,-0.368768,2.203365,0.106028,-0.070763,0.000000,-0.258671,0.034939,-0.000000
0.850000,-2.351167,-1.321966,-1.436041,0.421248,0.923634,0.063388,0.706077,1.041912,-0.201435,-0.260814,-2.481747,-1.333241,-0.358819,-0.090294,2.605277,0.103444,-0.070410,0.000000,-0.258063,0.035080,-0.000000
0.860000,-2.346920,-1.312678,-1.435418,0.428296,0.933929,0.061308,0.703452,1.017093,-0.214631,-0.264045,-2.481635,-1.305359,-0.268621,0.170128,2.997186,0.100867,-0.070058,0.000000,-0.257240,0.035124,0.000000
0.870000,-2.342601,-1.303289,-1.434815,0.435317,0.943976,0.059097,0.700801,0.992292,-0.227527,-0.265985,-2.477839,-1.273077,-0.141522,0.527255,3.432117,0.098300,-0.069705,0.000000,-0.256034,0.035013,-0.000000
0.880000,-2.338213,-1.293800,-1.434236,0.442312,0.953775,0.056758,0.698134,0.967541,-0.240081,-0.267340,-2.472385,-1.237288,-0.130632,0.558900,3.723342,0.095747,-0.069354,0.000000,-0.254657,0.034824,0.000000
0.890000,-2.333755,-1.284214,-1.433681,0.449280,0.963327,0.054296,0.695456,0.942849,-0.252262,-0.268173,-2.465519,-1.198121,-0.014635,0.871324,4.134262,0.093208,-0.069006,0.000000,-0.253137,0.034564,0.000000
0.900000,-2.329228,-1.274534,-1.433151,0.456221,0.972632,0.051715,0.692775,0.918242,-0.264029,-0.267832,-2.455515,-1.154864,0.060897,1.067238,4.489258,0.090685,-0.068660,0.000000,-0.251305,0.034167,-0.000000
0.910000,-2.324631,-1.264762,-1.432647,0.463135,0.981692,0.049017,0.690101,0.893743,-0.275349,-0.266859,-2.444072,-1.108601,0.134802,1.248605,4.825621,0.088182,-0.068320,0.000000,-0.249338,0.033692,-0.000000
0.920000,-2.319965,-1.254901,-1.432171,0.470023,0.990508,0.046209,0.687441,0.869369,-0.286185,-0.265132,-2.430319,-1.057804,0.208721,1.470941,5.268479,0.085699,-0.067984,0.000000,-0.247143,0.033118,-0.000000
0.930000,-2.315231,-1.244953,-1.431723,0.476884,0.999080,0.043295,0.684801,0.845140,-0.296498,-0.262725,-2.415302,-1.004602,0.272027,1.529198,5.367265,0.083239,-0.067655,0.000000,-0.244843,0.032469,0.000000
0.940000,-2.310428,-1.234920,-1.431305,0.483719,1.007411,0.040281,0.682188,0.821066,-0.306271,-0.259669,-2.399197,-0.949246,0.340297,1.718648,5.764445,0.080803,-0.067333,0.000000,-0.242460,0.031747,-0.000000
0.950000,-2.305556,-1.224805,-1.430918,0.490528,1.015502,0.037172,0.679610,0.797163,-0.315468,-0.255940,-2.381219,-0.889909,0.403557,1.846253,6.036256,0.078391,-0.067018,0.000000,-0.239903,0.030941,-0.000000
0.960000,-2.300617,-1.214611,-1.430562,0.497311,1.023355,0.033974,0.677072,0.773445,-0.324064,-0.251550,-2.362154,-0.828742,0.465561,1.963956,6.282919,0.076005,-0.066712,0.000000,-0.237270,0.030064,-0.000000
0.970000,-2.295610,-1.204339,-1.430238,0.504069,1.030972,0.030693,0.674580,0.749924,-0.332028,-0.246716,-2.341987,-0.763499,0.509314,2.068549,6.675945,0.073646,-0.066415,0.000000,-0.234544,0.029125,0.000000
0.980000,-2.290536,-1.193992,-1.429948,0.510803,1.038354,0.027335,0.672140,0.726609,-0.339330,-0.241195,-2.320798,-0.697107,0.594662,2.167393,6.596303,0.071314,-0.066128,0.000000,-0.231756,0.028118,0.000000
0.990000,-2.285394,-1.183573,-1.429692,0.517512,1.045505,0.023908,0.669758,0.703511,-0.345968,-0.234997,-2.298691,-0.629898,0.636191,2.251477,6.928995,0.069011,-0.065852,0.000000,-0.228918,0.027047,-0.000000
1.000000,-2.280186,-1.173083,-1.429470,0.524198,1.052425,0.020418,0.667441,0.680638,-0.351916,-0.228410,-2.275794,-0.559341,0.689836,2.327560,7.091536,0.066736,-0.065586,0.000000,-0.226027,0.025922,0.000000
1.010000,-2.274910,-1.162525,-1.429284,0.530861,1.059118,0.016872,0.665192,0.657998,-0.357154,-0.221232,-2.252037,-0.488230,0.741758,2.397550,7.225743,0.064490,-0.065332,0.000000,-0.223095,0.024744,-0.000000
1.020000,-2.269569,-1.151901,-1.429133,0.537502,1.065586,0.013278,0.663018,0.635597,-0.361668,-0.213615,-2.228100,-0.413995,0.784909,2.412669,7.521501,0.062274,-0.065091,0.000000,-0.220172,0.023508,0.000000
1.030000,-2.264160,-1.141214,-1.429018,0.544122,1.071831,0.009641,0.660922,0.613439,-0.365435,-0.205462,-2.203303,-0.339892,0.845662,2.546200,7.292059,0.060087,-0.064862,0.000000,-0.217213,0.022227,-0.000000
1.040000,-2.258686,-1.130465,-1.428940,0.550721,1.077855,0.005971,0.658910,0.591534,-0.368468,-0.196782,-2.177689,-0.266292,0.886375,2.551072,7.520793,0.057930,-0.064645,0.000000,-0.214222,0.020904,0.000000
1.050000,-2.253146,-1.119658,-1.428899,0.557301,1.083662,0.002275,0.656987,0.569885,-0.370752,-0.187707,-2.152098,-0.190382,0.932036,2.590341,7.561112,0.055802,-0.064443,0.000000,-0.211265,0.019532,-0.000000
1.060000,-2.247540,-1.108793,-1.428895,0.563861,1.089254,-0.001441,0.655158,0.548495,-0.372279,-0.178070,-2.125837,-0.115170,0.977937,2.625511,7.573124,0.053705,-0.064254,0.000000,-0.208291,0.018115,-0.000000
1.070000,-2.241869,-1.097873,-1.428928,0.570404,1.094633,-0.005169,0.653426,0.527366,-0.373047,-0.168311,-2.099933,-0.038118,0.990289,2.588480,7.740364,0.051636,-0.064080,0.000000,-0.205385,0.016678,-0.000000
1.080000,-2.236132,-1.086901,-1.428998,0.576930,1.099802,-0.008900,0.651794,0.506498,-0.373047,-0.157918,-2.073367,0.037607,1.088678,2.724984,7.397825,0.049597,-0.063921,0.000000,-0.202463,0.015190,-0.000000
1.090000,-2.230330,-1.075878,-1.429106,0.583440,1.104764,-0.012627,0.650270,0.485901,-0.372302,-0.146880,-2.046146,0.111641,1.101764,2.683720,7.498863,0.047587,-0.063776,0.000000,-0.199526,0.013654,-0.000000
1.100000,-2.224463,-1.064806,-1.429251,0.589936,1.109521,-0.016343,0.648857,0.465573,-0.370809,-0.135745,-2.019417,0.186712,1.141967,2.695828,7.417855,0.045606,-0.063647,0.000000,-0.196672,0.012103,0.000000
1.110000,-2.218532,-1.053688,-1.429433,0.596418,1.114076,-0.020041,0.647557,0.445515,-0.368575,-0.124055,-1.992236,0.259962,1.181342,2.704631,7.311045,0.043654,-0.063534,0.000000,-0.193819,0.010510,-0.000000
1.120000,-2.212535,-1.042526,-1.429652,0.602887,1.118432,-0.023712,0.646376,0.425726,-0.365607,-0.112256,-1.965661,0.333618,1.192265,2.643501,7.336493,0.041730,-0.063437,0.000000,-0.191060,0.008906,0.000000
1.130000,-2.206474,-1.031320,-1.429907,0.609346,1.122592,-0.027350,0.645314,0.406203,-0.361911,-0.099921,-1.938673,0.404941,1.274906,2.754346,6.921972,0.039833,-0.063356,0.000000,-0.188304,0.007263,-0.000000
1.140000,-2.200348,-1.020074,-1.430198,0.615794,1.126557,-0.030948,0.644379,0.386954,-0.357518,-0.087046,-1.911272,0.473608,1.285759,2.690918,6.888975,0.037963,-0.063292,0.000000,-0.185552,0.005583,-0.000000
1.150000,-2.194158,-1.008790,-1.430526,0.622234,1.130332,-0.034498,0.643573,0.367975,-0.352438,-0.074099,-1.884582,0.541968,1.318248,2.680643,6.699176,0.036121,-0.063244,0.000000,-0.182900,0.003896,-0.000000
1.160000,-2.187904,-0.997468,-1.430888,0.628666,1.133918,-0.037995,0.642899,0.349263,-0.346688,-0.060707,-1.857720,0.607613,1.349477,2.666545,6.488653,0.034305,-0.063214,0.000000,-0.180271,0.002180,0.000000
1.170000,-2.181585,-0.986112,-1.431285,0.635092,1.137318,-0.041430,0.642359,0.330818,-0.340288,-0.047211,-1.831490,0.672251,1.359383,2.602350,6.375957,0.032515,-0.063201,0.000000,-0.177734,0.000458,0.000000
1.180000,-2.175202,-0.974723,-1.431717,0.641514,1.140535,-0.044798,0.641956,0.312634,-0.333254,-0.033315,-1.805190,0.733813,1.419738,2.657644,5.931866,0.030751,-0.063205,0.000000,-0.175226,-0.001288,0.000000
1.190000,-2.168755,-0.963302,-1.432181,0.647932,1.143571,-0.048093,0.641694,0.294715,-0.325623,-0.019027,-1.778832,0.792051,1.427395,2.589413,5.773966,0.029011,-0.063226,0.000000,-0.172745,-0.003057,0.000000
1.200000,-2.162243,-0.951852,-1.432678,0.654348,1.146430,-0.051309,0.641575,0.277054,-0.317417,-0.004689,-1.753214,0.848728,1.449870,2.557208,5.498561,0.027295,-0.063266,0.000000,-0.170363,-0.004825,-0.000000
1.210000,-2.155668,-0.940374,-1.433207,0.660764,1.149113,-0.054440,0.641601,0.259650,-0.308661,0.009927,-1.727783,0.902078,1.469479,2.519966,5.208059,0.025603,-0.063323,0.000000,-0.168027,-0.006605,0.000000
1.220000,-2.149028,-0.928870,-1.433767,0.667180,1.151624,-0.057480,0.641774,0.242497,-0.299382,0.024657,-1.702904,0.953182,1.479636,2.462940,4.974822,0.023935,-0.063398,0.000000,-0.165770,-0.008388,-0.000000
1.230000,-2.142324,-0.917342,-1.434356,0.673600,1.153964,-0.060426,0.642095,0.225591,-0.289609,0.039584,-1.678375,1.000783,1.505418,2.442316,4.542602,0.022288,-0.063491,0.000000,-0.163572,-0.010176,-0.000000
1.240000,-2.135556,-0.905791,-1.434975,0.680023,1.156137,-0.063271,0.642566,0.208928,-0.279379,0.054684,-1.654232,1.044726,1.510372,2.377562,4.280578,0.020663,-0.063602,0.000000,-0.161433,-0.011963,-0.000000
1.250000,-2.128723,-0.894220,-1.435621,0.686452,1.158144,-0.066012,0.643189,0.192504,-0.268722,0.069814,-1.630773,1.086058,1.518432,2.321404,3.948312,0.019059,-0.063730,0.000000,-0.159380,-0.013745,0.000000
1.260000,-2.121827,-0.882629,-1.436295,0.692887,1.159987,-0.068644,0.643963,0.176311,-0.257670,0.084997,-1.607922,1.123803,1.522284,2.258761,3.609712,0.017475,-0.063876,0.000000,-0.157404,-0.015517,-0.000000
1.270000,-2.114866,-0.871021,-1.436994,0.699331,1.161670,-0.071164,0.644889,0.160344,-0.246257,0.100292,-1.585517,1.158324,1.531578,2.211138,3.283811,0.015911,-0.064040,0.000000,-0.155487,-0.017286,0.000000
1.280000,-2.107840,-0.859396,-1.437718,0.705785,1.163195,-0.073568,0.645968,0.144597,-0.234516,0.115519,-1.563932,1.189257,1.513089,2.104630,2.901586,0.014365,-0.064222,0.000000,-0.153664,-0.019034,0.000000
1.290000,-2.100750,-0.847757,-1.438465,0.712251,1.164563,-0.075853,0.647199,0.129062,-0.222484,0.130635,-1.543232,1.216543,1.514054,2.045060,2.565093,0.012837,-0.064421,0.000000,-0.151940,-0.020756,-0.000000
1.300000,-2.093595,-0.836105,-1.439234,0.718730,1.165777,-0.078017,0.648581,0.113731,-0.210196,0.145749,-1.523134,1.240466,1.503302,1.963073,2.209447,0.011326,-0.064637,0.000000,-0.150284,-0.022463,0.000000
1.310000,-2.086375,-0.824442,-1.440025,0.725223,1.166838,-0.080057,0.650113,0.098596,-0.197686,0.160650,-1.504049,1.260868,1.487589,1.874432,1.855143,0.009831,-0.064870,0.000000,-0.148736,-0.024134,0.000000
1.320000,-2.079091,-0.812769,-1.440835,0.731733,1.167749,-0.081970,0.651795,0.083649,-0.184992,0.175590,-1.485464,1.277425,1.488729,1.821014,1.471610,0.008351,-0.065120,0.000000,-0.147242,-0.025792,0.000000
1.330000,-2.071741,-0.801088,-1.441664,0.738260,1.168512,-0.083756,0.653624,0.068882,-0.172149,0.190183,-1.468081,1.290626,1.428884,1.654279,1.169440,0.006886,-0.065386,0.000000,-0.145871,-0.027400,0.000000
1.340000,-2.064325,-0.789399,-1.442510,0.744806,1.169128,-0.085413,0.655597,0.054283,-0.159190,0.204373,-1.451974,1.300513,1.419381,1.587278,0.793109,0.005433,-0.065668,0.000000,-0.144630,-0.028954,-0.000000
1.350000,-2.056844,-0.777706,-1.443372,0.751372,1.169598,-0.086939,0.657711,0.039841,-0.146151,0.218463,-1.436528,1.306633,1.386974,1.480257,0.446890,0.003993,-0.065965,0.000000,-0.143453,-0.030479,-0.000000
1.360000,-2.049298,-0.766008,-1.444248,0.757960,1.169925,-0.088336,0.659964,0.025547,-0.133068,0.232082,-1.422432,1.309600,1.349426,1.367065,0.108964,0.002564,-0.066277,0.000000,-0.142410,-0.031942,-0.000000
1.370000,-2.041685,-0.754308,-1.445138,0.764572,1.170110,-0.089601,0.662353,0.011391,-0.119974,0.245560,-1.408937,1.308478,1.332491,1.303398,-0.294967,0.001145,-0.066604,0.000000,-0.141424,-0.033370,0.000000
1.380000,-2.034006,-0.742606,-1.446040,0.771208,1.170153,-0.090735,0.664873,-0.002637,-0.106907,0.258445,-1.396961,1.304511,1.243284,1.090250,-0.495975,-0.000265,-0.066944,0.000000,-0.140585,-0.034724,0.000000
1.390000,-2.026261,-0.730905,-1.446952,0.777870,1.170057,-0.091739,0.667519,-0.016554,-0.093892,0.270673,-1.386581,1.297828,1.214837,1.013351,-0.876863,-0.001668,-0.067298,0.000000,-0.139901,-0.035999,0.000000
1.400000,-2.018449,-0.719205,-1.447874,0.784559,1.169823,-0.092613,0.670286,-0.030370,-0.080964,0.282617,-1.376943,1.287325,1.159884,0.885480,-1.184522,-0.003063,-0.067664,0.000000,-0.139283,-0.037222,-0.000000
1.410000,-2.010570,-0.707509,-1.448804,0.791276,1.169450,-0.093359,0.673169,-0.044098,-0.068154,0.293812,-1.368900,1.274281,1.099057,0.752999,-1.478297,-0.004454,-0.068042,0.000000,-0.138818,-0.038356,-0.000000
1.420000,-2.002623,-0.695817,-1.449741,0.798022,1.168941,-0.093977,0.676162,-0.057750,-0.055493,0.304773,-1.361614,1.257282,1.072349,0.674349,-1.865505,-0.005840,-0.068431,0.000000,-0.138419,-0.039441,-0.000000
1.430000,-1.994609,-0.684131,-1.450683,0.804799,1.168295,-0.094469,0.679261,-0.071336,-0.043015,0.314827,-1.356036,1.238147,0.937133,0.440113,-1.957833,-0.007223,-0.068831,0.000000,-0.138181,-0.040422,0.000000
1.440000,-1.986527,-0.672451,-1.451630,0.811608,1.167514,-0.094838,0.682455,-0.084877,-0.030736,0.323905,-1.352225,1.217071,0.897923,0.351331,-2.309782,-0.008604,-0.069239,0.000000,-0.138111,-0.041292,-0.000000
1.450000,-1.978377,-0.660781,-1.452579,0.818449,1.166598,-0.095085,0.685738,-0.098383,-0.018686,0.332600,-1.349265,1.192459,0.820434,0.210998,-2.555866,-0.009985,-0.069656,0.000000,-0.138114,-0.042097,-0.000000
1.460000,-1.970158,-0.649120,-1.453531,0.825323,1.165547,-0.095212,0.689104,-0.111868,-0.006892,0.340290,-1.347967,1.166067,0.738472,0.069166,-2.784909,-0.011367,-0.070081,0.000000,-0.138272,-0.042788,-0.000000
1.470000,-1.961870,-0.637470,-1.454483,0.832231,1.164361,-0.095223,0.692543,-0.125346,0.004622,0.347566,-1.347697,1.136206,0.694395,-0.034899,-3.121643,-0.012751,-0.070512,0.000000,-0.138519,-0.043411,0.000000
1.480000,-1.953513,-0.625833,-1.455435,0.839174,1.163040,-0.095121,0.696051,-0.138828,0.015828,0.353710,-1.349080,1.105013,0.533206,-0.242356,-3.112334,-0.014138,-0.070949,0.000000,-0.138920,-0.043906,-0.000000
1.490000,-1.945087,-0.614210,-1.456385,0.846152,1.161584,-0.094908,0.699613,-0.152333,0.026720,0.358659,-1.352142,1.072728,0.477938,-0.349852,-3.406253,-0.015530,-0.071390,0.000000,-0.139478,-0.044270,-0.000000
1.500000,-1.936590,-0.602602,-1.457333,0.853166,1.159993,-0.094588,0.703223,-0.165874,0.037272,0.363073,-1.356244,1.037476,0.382550,-0.490103,-3.576970,-0.016928,-0.071834,0.000000,-0.140123,-0.044554,0.000000
1.510000,-1.928023,-0.591011,-1.458277,0.860217,1.158266,-0.094164,0.706871,-0.179463,0.047467,0.366391,-1.361874,1.001268,0.285267,-0.628226,-3.728525,-0.018333,-0.072280,0.000000,-0.140910,-0.044715,0.000000
1.520000,-1.919386,-0.579437,-1.459216,0.867304,1.156403,-0.093640,0.710548,-0.193115,0.057287,0.368812,-1.368732,0.962346,0.194076,-0.750199,-3.988705,-0.019746,-0.072728,0.000000,-0.141802,-0.044759,0.000000
1.530000,-1.910677,-0.567883,-1.460149,0.874428,1.154404,-0.093019,0.714244,-0.206843,0.066712,0.370172,-1.377020,0.922900,0.077293,-0.907177,-3.895790,-0.021169,-0.073175,0.000000,-0.142824,-0.044686,0.000000
1.540000,-1.901897,-0.556349,-1.461076,0.881589,1.152266,-0.092307,0.717947,-0.220660,0.075745,0.370442,-1.386718,0.883178,-0.019124,-1.024501,-4.111273,-0.022603,-0.073621,0.000000,-0.143975,-0.044494,-0.000000
1.550000,-1.893045,-0.544838,-1.461995,0.888787,1.149990,-0.091506,0.721649,-0.234581,0.084368,0.369746,-1.397559,0.841283,-0.124849,-1.150268,-4.200371,-0.024049,-0.074065,0.000000,-0.145222,-0.044180,-0.000000
1.560000,-1.884121,-0.533350,-1.462906,0.896022,1.147574,-0.090621,0.725339,-0.248616,0.092570,0.367925,-1.409637,0.799209,-0.232607,-1.270415,-4.271471,-0.025508,-0.074505,0.000000,-0.146580,-0.043743,0.000000
1.570000,-1.875125,-0.521887,-1.463807,0.903294,1.145017,-0.089656,0.729005,-0.262778,0.100345,0.365154,-1.423006,0.755357,-0.328513,-1.396787,-4.438486,-0.026981,-0.074940,0.000000,-0.148049,-0.043189,-0.000000
1.580000,-1.866055,-0.510450,-1.464699,0.910602,1.142318,-0.088615,0.732638,-0.277079,0.107679,0.361209,-1.437431,0.711703,-0.460775,-1.487008,-4.288061,-0.028469,-0.075369,0.000000,-0.149609,-0.042509,-0.000000
1.590000,-1.856912,-0.499041,-1.465579,0.917946,1.139475,-0.087504,0.736225,-0.291530,0.114581,0.356074,-1.452844,0.668476,-0.559485,-1.600454,-4.413198,-0.029974,-0.075790,0.000000,-0.151255,-0.041702,0.000000
1.600000,-1.847696,-0.487661,-1.466448,0.925326,1.136487,-0.086325,0.739756,-0.306140,0.121043,0.349954,-1.469369,0.623988,-0.670696,-1.697374,-4.424464,-0.031495,-0.076203,0.000000,-0.152993,-0.040778,0.000000
1.610000,-1.838406,-0.476312,-1.467305,0.932741,1.133352,-0.085084,0.743220,-0.320920,0.127063,0.342658,-1.486698,0.579982,-0.781960,-1.785418,-4.420348,-0.033034,-0.076605,0.000000,-0.154797,-0.039729,-0.000000
1.620000,-1.829041,-0.464995,-1.468150,0.940190,1.130068,-0.083785,0.746606,-0.335878,0.132639,0.334375,-1.505221,0.535203,-0.880878,-1.900177,-4.488479,-0.034591,-0.076997,0.000000,-0.156703,-0.038566,0.000000
1.630000,-1.819602,-0.453711,-1.468981,0.947673,1.126634,-0.082433,0.749903,-0.351026,0.137770,0.324911,-1.524300,0.491193,-1.012060,-1.913677,-4.309970,-0.036168,-0.077377,0.000000,-0.158649,-0.037281,0.000000
1.640000,-1.810088,-0.442463,-1.469798,0.955188,1.123047,-0.081031,0.753100,-0.366366,0.142467,0.314264,-1.543827,0.448144,-1.110715,-2.008189,-4.342901,-0.037764,-0.077743,0.000000,-0.160626,-0.035875,0.000000
1.650000,-1.800498,-0.431251,-1.470601,0.962734,1.119306,-0.079585,0.756186,-0.381906,0.146731,0.302642,-1.564282,0.404755,-1.219312,-2.063308,-4.287565,-0.039381,-0.078094,0.000000,-0.162678,-0.034359,0.000000
1.660000,-1.790833,-0.420077,-1.471390,0.970311,1.115408,-0.078098,0.759149,-0.397652,0.150565,0.289962,-1.585000,0.362347,-1.324827,-2.107077,-4.220312,-0.041018,-0.078430,0.000000,-0.164740,-0.032737,-0.000000
1.670000,-1.781092,-0.408943,-1.472163,0.977917,1.111352,-0.076575,0.761981,-0.413609,0.153978,0.276072,-1.606653,0.320127,-1.444588,-2.194254,-4.194687,-0.042676,-0.078749,0.000000,-0.166880,-0.030985,-0.000000
1.680000,-1.771274,-0.397850,-1.472921,0.985550,1.107135,-0.075020,0.764668,-0.429785,0.156972,0.261252,-1.628274,0.279059,-1.518740,-2.127429,-4.016313,-0.044355,-0.079050,0.000000,-0.169001,-0.029143,-0.000000
1.690000,-1.761381,-0.386801,-1.473664,0.993210,1.102756,-0.073437,0.767203,-0.446174,0.159563,0.245537,-1.649724,0.239281,-1.632388,-2.188724,-3.965259,-0.046056,-0.079332,0.000000,-0.171090,-0.027213,0.000000
1.700000,-1.751410,-0.375796,-1.474390,1.000894,1.098211,-0.071830,0.769575,-0.462782,0.161759,0.228684,-1.671777,0.200018,-1.729240,-2.192384,-3.858585,-0.047777,-0.079595,0.000000,-0.173223,-0.025167,0.000000
1.710000,-1.741363,-0.364837,-1.475100,1.008601,1.093499,-0.070203,0.771774,-0.479608,0.163568,0.210974,-1.693500,0.162033,-1.822440,-2.183349,-3.745112,-0.049520,-0.079836,0.000000,-0.175308,-0.023039,0.000000
1.720000,-1.731238,-0.353926,-1.475794,1.016329,1.088618,-0.068560,0.773790,-0.496654,0.165003,0.192155,-1.715712,0.125055,-1.931274,-2.225189,-3.640667,-0.051283,-0.080056,0.000000,-0.177429,-0.020802,-0.000000
1.730000,-1.721036,-0.343065,-1.476471,1.024076,1.083565,-0.066904,0.775614,-0.513920,0.166074,0.172563,-1.737294,0.089424,-1.986165,-2.088309,-3.484207,-0.053068,-0.080252,0.000000,-0.179471,-0.018493,-0.000000
1.740000,-1.710756,-0.332256,-1.477132,1.031840,1.078339,-0.065240,0.777239,-0.531397,0.166796,0.152248,-1.758089,0.055215,-2.086024,-2.101322,-3.365542,-0.054873,-0.080426,0.000000,-0.181420,-0.016120,-0.000000
1.750000,-1.700399,-0.321499,-1.477776,1.039620,1.072937,-0.063569,0.778656,-0.549083,0.167182,0.130936,-1.779008,0.022210,-2.165760,-2.048221,-3.226458,-0.056697,-0.080575,0.000000,-0.183369,-0.013653,0.000000
1.760000,-1.689964,-0.310798,-1.478403,1.047413,1.067357,-0.061897,0.779856,-0.566974,0.167245,0.108966,-1.799002,-0.009392,-2.240563,-1.982155,-3.084654,-0.058540,-0.080699,0.000000,-0.185212,-0.011130,-0.000000
1.770000,-1.679451,-0.300153,-1.479014,1.055216,1.061597,-0.060226,0.780832,-0.585063,0.167000,0.086017,-1.818920,-0.039391,-2.335750,-1.967191,-2.922948,-0.060401,-0.080798,0.000000,-0.187038,-0.008518,-0.000000
1.780000,-1.668860,-0.289566,-1.479608,1.063029,1.055655,-0.058558,0.781574,-0.603348,0.166462,0.062533,-1.837629,-0.068017,-2.359962,-1.771595,-2.801976,-0.062280,-0.080870,0.000000,-0.188729,-0.005863,0.000000
1.790000,-1.658190,-0.279040,-1.480185,1.070847,1.049529,-0.056897,0.782081,-0.621811,0.165644,0.038576,-1.854970,-0.095253,-2.443545,-1.727511,-2.636425,-0.064175,-0.080915,0.000000,-0.190271,-0.003171,-0.000000
1.800000,-1.647443,-0.268576,-1.480746,1.078669,1.043218,-0.055246,0.782343,-0.640446,0.164562,0.013781,-1.871865,-0.120816,-2.501230,-1.616899,-2.483924,-0.066085,-0.080933,0.000000,-0.191761,-0.000409,-0.000000
1.810000,-1.636617,-0.258176,-1.481290,1.086493,1.036720,-0.053607,0.782355,-0.659243,0.163232,-0.011423,-1.887279,-0.145009,-2.553101,-1.494051,-2.332123,-0.068010,-0.080923,0.000000,-0.193092,0.002382,-0.000000
1.820000,-1.625713,-0.247842,-1.481818,1.094316,1.030033,-0.051982,0.782112,-0.678190,0.161669,-0.037399,-1.901985,-0.167251,-2.627212,-1.416300,-2.138050,-0.069947,-0.080885,0.000000,-0.194348,0.005234,-0.000000
1.830000,-1.614731,-0.237576,-1.482330,1.102135,1.023155,-0.050374,0.781606,-0.697277,0.159891,-0.063656,-1.914960,-0.188227,-2.622934,-1.176176,-2.057725,-0.071896,-0.080818,0.000000,-0.195421,0.008102,0.000000
1.840000,-1.603670,-0.227380,-1.482826,1.109947,1.016087,-0.048785,0.780838,-0.716483,0.157908,-0.090125,-1.926060,-0.207969,-2.684287,-1.071427,-1.868900,-0.073855,-0.080723,0.000000,-0.196296,0.010978,0.000000
1.850000,-1.592532,-0.217255,-1.483306,1.117750,1.008825,-0.047217,0.779802,-0.735795,0.155738,-0.117203,-1.936107,-0.225799,-2.716446,-0.906936,-1.718882,-0.075821,-0.080598,0.000000,-0.197065,0.013898,0.000000
1.860000,-1.581315,-0.207204,-1.483770,1.125542,1.001371,-0.045671,0.778494,-0.755198,0.153396,-0.144435,-1.944177,-0.242409,-2.742902,-0.731495,-1.572535,-0.077795,-0.080444,0.000000,-0.197629,0.016820,-0.000000
1.870000,-1.570021,-0.197229,-1.484219,1.133319,0.993721,-0.044149,0.776911,-0.774675,0.150897,-0.172172,-1.950945,-0.256973,-2.790187,-0.595321,-1.370691,-0.079774,-0.080260,0.000000,-0.198065,0.019773,-0.000000
1.880000,-1.558649,-0.187330,-1.484653,1.141079,0.985877,-0.042653,0.775050,-0.794209,0.148260,-0.199939,-1.955521,-0.270461,-2.761888,-0.317419,-1.328360,-0.081756,-0.080047,0.000000,-0.198275,0.022717,0.000000
1.890000,-1.547199,-0.177512,-1.485072,1.148819,0.977837,-0.041185,0.772912,-0.813777,0.145491,-0.227665,-1.957777,-0.282944,-2.796239,-0.157956,-1.138460,-0.083738,-0.079804,0.000000,-0.198248,0.025643,0.000000
1.900000,-1.535672,-0.167774,-1.485477,1.156537,0.969601,-0.039744,0.770495,-0.833360,0.142608,-0.255728,-1.958435,-0.293500,-2.802117,0.053305,-1.003506,-0.085720,-0.079532,0.000000,-0.198066,0.028585,0.000000
1.910000,-1.524069,-0.158120,-1.485867,1.164228,0.961170,-0.038333,0.767798,-0.852938,0.139624,-0.283692,-1.956718,-0.303055,-2.802494,0.273063,-0.874165,-0.087699,-0.079231,0.000000,-0.197644,0.031503,-0.000000
1.920000,-1.512388,-0.148552,-1.486244,1.171892,0.952543,-0.036952,0.764821,-0.872488,0.136554,-0.311876,-1.953116,-0.310686,-2.821286,0.466355,-0.685663,-0.089672,-0.078900,0.000000,-0.197042,0.034425,-0.000000
1.930000,-1.500631,-0.139070,-1.486606,1.179524,0.943720,-0.035602,0.761562,-0.891991,0.133413,-0.339845,-1.946996,-0.317472,-2.771290,0.759419,-0.673313,-0.091639,-0.078540,0.000000,-0.196186,0.037313,0.000000
1.940000,-1.488798,-0.129678,-1.486956,1.187122,0.934703,-0.034284,0.758025,-0.911419,0.130207,-0.367532,-1.938263,-0.323503,-2.777620,0.970284,-0.500506,-0.093595,-0.078151,0.000000,-0.195067,0.040162,0.000000
1.950000,-1.476889,-0.120377,-1.487292,1.194683,0.925492,-0.032998,0.754211,-0.930750,0.126950,-0.395277,-1.927418,-0.327779,-2.758346,1.217699,-0.388634,-0.095540,-0.077733,0.000000,-0.193749,0.042999,-0.000000
1.960000,-1.464904,-0.111169,-1.487616,1.202205,0.916088,-0.031745,0.750120,-0.949959,0.123653,-0.422694,-1.913938,-0.331299,-2.733730,1.470737,-0.283614,-0.097469,-0.077287,0.000000,-0.192168,0.045792,0.000000
1.970000,-1.452845,-0.102056,-1.487927,1.209685,0.906493,-0.030525,0.745757,-0.969021,0.120330,-0.450024,-1.898062,-0.333179,-2.722380,1.713474,-0.124049,-0.099382,-0.076813,0.000000,-0.190361,0.048560,0.000000
1.980000,-1.440711,-0.093039,-1.488227,1.217120,0.896709,-0.029338,0.741121,-0.987911,0.116992,-0.476932,-1.879483,-0.334444,-2.658048,2.003292,-0.130800,-0.101276,-0.076311,0.000000,-0.188286,0.051276,-0.000000
1.990000,-1.428502,-0.084122,-1.488514,1.224506,0.886736,-0.028185,0.736220,-1.006601,0.113642,-0.503358,-1.858145,-0.335189,-2.635799,2.256798,0.012037,-0.103147,-0.075782,0.000000,-0.185939,0.053936,0.000000
2.000000,-1.416221,-0.075305,-1.488790,1.231843,0.876577,-0.027065,0.731055,-1.025066,0.110293,-0.529553,-1.834265,-0.334486,-2.593245,2.527913,0.096770,-0.104994,-0.075227,0.000000,-0.183352,0.056558,-0.000000
2.010000,-1.403866,-0.066591,-1.489056,1.239127,0.866235,-0.025979,0.725631,-1.043277,0.106954,-0.555238,-1.807589,-0.333250,-2.546722,2.802404,0.175373,-0.106813,-0.074645,0.000000,-0.180491,0.059120,0.000000
2.020000,-1.391438,-0.057981,-1.489310,1.246355,0.855713,-0.024926,0.719951,-1.061209,0.103633,-0.580507,-1.778258,-0.330758,-2.502864,3.069477,0.297033,-0.108603,-0.074038,0.000000,-0.177381,0.061628,-0.000000
2.030000,-1.378939,-0.049477,-1.489554,1.253525,0.845012,-0.023906,0.714022,-1.078833,0.100340,-0.605208,-1.746081,-0.327853,-2.436692,3.366386,0.282360,-0.110360,-0.073405,0.000000,-0.173992,0.064073,-0.000000
2.040000,-1.366368,-0.041082,-1.489788,1.260634,0.834137,-0.022919,0.707849,-1.096121,0.097077,-0.629299,-1.711032,-0.324621,-2.384264,3.638462,0.388517,-0.112082,-0.072748,0.000000,-0.170323,0.066451,0.000000
2.050000,-1.353726,-0.032795,-1.490013,1.267681,0.823091,-0.021965,0.701438,-1.113044,0.093852,-0.652851,-1.673263,-0.320315,-2.322027,3.920722,0.446739,-0.113765,-0.072068,0.000000,-0.166399,0.068764,-0.000000
2.060000,-1.341015,-0.024620,-1.490228,1.274662,0.811878,-0.021042,0.694795,-1.129576,0.090671,-0.675728,-1.632587,-0.315665,-2.256462,4.204422,0.499813,-0.115409,-0.071364,0.000000,-0.162193,0.071005,0.000000
2.070000,-1.328233,-0.016558,-1.490434,1.281576,0.800501,-0.020151,0.687925,-1.145688,0.087541,-0.698011,-1.589268,-0.310170,-2.195255,4.469105,0.581197,-0.117008,-0.070639,0.000000,-0.157739,0.073178,-0.000000
2.080000,-1.315383,-0.008611,-1.490631,1.288420,0.788965,-0.019291,0.680837,-1.161352,0.084469,-0.719535,-1.542999,-0.304417,-2.108990,4.784956,0.568040,-0.118562,-0.069891,0.000000,-0.153000,0.075272,-0.000000
2.090000,-1.302465,-0.000779,-1.490820,1.295192,0.777275,-0.018462,0.673537,-1.176538,0.081454,-0.740264,-1.493773,-0.298476,-2.040576,5.050027,0.636972,-0.120068,-0.069123,0.000000,-0.147973,0.077283,-0.000000
2.100000,-1.289480,0.006934,-1.491000,1.301890,0.765436,-0.017662,0.666034,-1.191218,0.078502,-0.760302,-1.441919,-0.291844,-1.962189,5.330299,0.671892,-0.121521,-0.068334,0.000000,-0.142701,0.079218,0.000000
2.110000,-1.276428,0.014529,-1.491173,1.308512,0.753453,-0.016891,0.658336,-1.205370,0.075617,-0.779008,-1.387992,-0.285010,-1.871099,5.592541,0.703062,-0.122921,-0.067527,0.000000,-0.137232,0.081017,0.000000
2.120000,-1.263310,0.022003,-1.491338,1.315056,0.741331,-0.016149,0.650449,-1.218958,0.072803,-0.798568,-1.328809,-0.277714,-1.950865,6.109946,0.746928,-0.124264,-0.066701,0.000000,-0.131251,0.082900,-0.000000
2.130000,-1.250127,0.029355,-1.491496,1.321521,0.729076,-0.015435,0.642372,-1.231944,0.070063,-0.816135,-1.268605,-0.270264,-1.559354,5.926440,0.742179,-0.125546,-0.065857,0.000000,-0.125179,0.084581,-0.000000
2.140000,-1.236880,0.036584,-1.491647,1.327903,0.716694,-0.014748,0.634134,-1.244329,0.067398,-0.831569,-1.207585,-0.262708,-1.618035,6.412033,0.776978,-0.126767,-0.064997,0.000000,-0.119036,0.086045,-0.000000
2.150000,-1.223569,0.043688,-1.491791,1.334203,0.704191,-0.014087,0.625737,-1.256076,0.064810,-0.847726,-1.141516,-0.254802,-1.522859,6.667113,0.794440,-0.127925,-0.064122,0.000000,-0.112402,0.087582,0.000000
2.160000,-1.210196,0.050667,-1.491929,1.340418,0.691575,-0.013451,0.617181,-1.267147,0.062302,-0.863507,-1.072043,-0.246793,-1.453571,6.958616,0.808941,-0.129014,-0.063231,0.000000,-0.105438,0.089082,0.000000
2.170000,-1.196761,0.057520,-1.492060,1.346546,0.678851,-0.012841,0.608484,-1.277529,0.059875,-0.875144,-1.004823,-0.238613,-1.048269,6.745335,0.824625,-0.130035,-0.062327,0.000000,-0.098711,0.090163,-0.000000
2.180000,-1.183265,0.064244,-1.492186,1.352587,0.666026,-0.012254,0.599672,-1.287222,0.057530,-0.888137,-0.931678,-0.230352,-1.555877,7.891161,0.827187,-0.130986,-0.061412,0.000000,-0.091401,0.091382,0.000000
2.190000,-1.169709,0.070840,-1.492305,1.358539,0.653109,-0.011690,0.590714,-1.296140,0.055268,-0.902730,-0.852288,-0.222036,-1.186417,7.722788,0.837723,-0.131860,-0.060483,0.000000,-0.083476,0.092766,-0.000000
2.200000,-1.156095,0.077306,-1.492419,1.364401,0.640106,-0.011148,0.581634,-1.304279,0.053090,-0.913363,-0.775009,-0.213624,-1.115337,7.993966,0.842555,-0.132657,-0.059542,0.000000,-0.075773,0.093750,0.000000
2.210000,-1.142422,0.083642,-1.492528,1.370171,0.627026,-0.010628,0.572447,-1.311627,0.050996,-0.923689,-0.694277,-0.205154,-1.023782,8.231688,0.846322,-0.133375,-0.058591,0.000000,-0.067732,0.094706,-0.000000
2.220000,-1.128692,0.089846,-1.492632,1.375849,0.613876,-0.010128,0.563157,-1.318150,0.048987,-0.934517,-0.609664,-0.196746,-1.069800,8.611100,0.839622,-0.134010,-0.057631,0.000000,-0.059311,0.095715,0.000000
2.230000,-1.114905,0.095919,-1.492731,1.381434,0.600666,-0.009648,0.553763,-1.323817,0.047061,-0.943572,-0.523728,-0.188270,-0.738705,8.572022,0.855567,-0.134560,-0.056660,0.000000,-0.050766,0.096548,0.000000
2.240000,-1.101063,0.101859,-1.492825,1.386924,0.587403,-0.009186,0.544292,-1.328622,0.045221,-0.950743,-0.436679,-0.179732,-0.768077,8.914881,0.847295,-0.135025,-0.055683,0.000000,-0.042115,0.097193,-0.000000
2.250000,-1.087167,0.107667,-1.492915,1.392320,0.574096,-0.008743,0.534746,-1.332537,0.043466,-0.958313,-0.346139,-0.171290,-0.673503,9.112547,0.845721,-0.135401,-0.054698,0.000000,-0.033121,0.097882,0.000000
2.260000,-1.073217,0.113341,-1.493000,1.397619,0.560755,-0.008317,0.525134,-1.335546,0.041796,-0.963789,-0.255343,-0.162798,-0.567000,9.277411,0.844083,-0.135688,-0.053708,0.000000,-0.024106,0.098362,-0.000000
2.270000,-1.059215,0.118882,-1.493081,1.402822,0.547388,-0.007907,0.515462,-1.337620,0.040210,-0.970992,-0.158488,-0.154489,-0.732673,9.865745,0.825931,-0.135881,-0.052712,0.000000,-0.014488,0.099022,-0.000000
2.280000,-1.045161,0.124289,-1.493158,1.407928,0.534006,-0.007512,0.505725,-1.338721,0.038706,-0.975481,-0.062813,-0.146107,-0.160887,9.260251,0.850470,-0.135978,-0.051710,0.000000,-0.004991,0.099410,0.000000
2.290000,-1.031057,0.129562,-1.493231,1.412936,0.520617,-0.007132,0.495963,-1.338883,0.037288,-0.977072,0.031251,-0.137647,-0.300141,9.778787,0.833319,-0.135982,-0.050706,0.000000,0.004342,0.099509,-0.000000
2.300000,-1.016903,0.134701,-1.493301,1.417847,0.507232,-0.006766,0.486175,-1.338074,0.035953,-0.980283,0.130789,-0.129373,-0.200448,9.899555,0.829947,-0.135889,-0.049700,0.000000,0.014224,0.099775,0.000000
2.310000,-1.002700,0.139707,-1.493367,1.422660,0.493859,-0.006413,0.476359,-1.336261,0.034701,-0.982975,0.232104,-0.121046,-0.135711,10.057798,0.827085,-0.135697,-0.048692,0.000000,0.024282,0.099993,-0.000000
2.320000,-0.988450,0.144579,-1.493429,1.427374,0.480510,-0.006072,0.466534,-1.333451,0.033531,-0.981143,0.329111,-0.112909,0.304691,9.636399,0.808620,-0.135405,-0.047684,0.000000,0.033915,0.099758,0.000000
2.330000,-0.974153,0.149317,-1.493488,1.431991,0.467193,-0.005742,0.456729,-1.329661,0.032443,-0.981025,0.430983,-0.104702,-0.287868,10.745167,0.833025,-0.135017,-0.046678,0.000000,0.044034,0.099699,0.000000
2.340000,-0.959810,0.153923,-1.493544,1.436509,0.453920,-0.005423,0.446905,-1.324812,0.031437,-0.982929,0.538003,-0.096412,0.105180,10.358620,0.816707,-0.134523,-0.045671,0.000000,0.054671,0.099849,-0.000000
2.350000,-0.945423,0.158396,-1.493597,1.440929,0.440700,-0.005113,0.437088,-1.318920,0.030514,-0.980622,0.640634,-0.088292,0.158124,10.461908,0.815190,-0.133925,-0.044665,0.000000,0.064876,0.099576,0.000000
2.360000,-0.930992,0.162737,-1.493646,1.445251,0.427545,-0.004812,0.427292,-1.311994,0.029672,-0.978314,0.744541,-0.080097,0.229259,10.508798,0.814527,-0.133225,-0.043661,0.000000,0.075214,0.099307,-0.000000
2.370000,-0.916518,0.166947,-1.493693,1.449475,0.414464,-0.004519,0.417518,-1.304013,0.028911,-0.976724,0.852522,-0.072084,0.159730,10.898255,0.797273,-0.132419,-0.042660,0.000000,0.085969,0.099115,0.000000
2.380000,-0.902003,0.171026,-1.493737,1.453601,0.401468,-0.004234,0.407763,-1.294952,0.028231,-0.973626,0.958533,-0.063962,0.461746,10.295101,0.827503,-0.131506,-0.041662,0.000000,0.096533,0.098774,0.000000
2.390000,-0.887447,0.174976,-1.493778,1.457630,0.388569,-0.003954,0.398051,-1.284852,0.027632,-0.968948,1.062139,-0.055712,0.401056,10.611590,0.813496,-0.130489,-0.040668,0.000000,0.106865,0.098275,0.000000
2.400000,-0.872851,0.178798,-1.493816,1.461562,0.375775,-0.003681,0.388381,-1.273695,0.027116,-0.965002,1.169107,-0.047613,0.459555,10.591376,0.815435,-0.129367,-0.039679,0.000000,0.117545,0.097855,-0.000000
2.410000,-0.858216,0.182492,-1.493851,1.465398,0.363098,-0.003412,0.378755,-1.261479,0.026681,-0.960038,1.273914,-0.039385,0.512496,10.545917,0.819599,-0.128139,-0.038695,0.000000,0.128019,0.097334,-0.000000
2.420000,-0.843543,0.186060,-1.493884,1.469138,0.350549,-0.003147,0.369180,-1.248204,0.026327,-0.954946,1.381614,-0.031300,0.524507,10.817791,0.806558,-0.126805,-0.037716,0.000000,0.138798,0.096804,-0.000000
2.430000,-0.828833,0.189504,-1.493914,1.472782,0.338138,-0.002885,0.359659,-1.233857,0.026055,-0.949158,1.486574,-0.023058,0.632955,10.166196,0.842378,-0.125364,-0.036744,0.000000,0.149314,0.096206,0.000000
2.440000,-0.814088,0.192824,-1.493942,1.476331,0.325875,-0.002625,0.350199,-1.218484,0.025867,-0.942690,1.588394,-0.014634,0.640556,10.370451,0.833299,-0.123820,-0.035777,0.000000,0.159526,0.095542,-0.000000
2.450000,-0.799307,0.196022,-1.493967,1.479786,0.313771,-0.002367,0.340805,-1.202078,0.025762,-0.936196,1.692447,-0.006314,0.676593,10.263106,0.840532,-0.122173,-0.034818,0.000000,0.169980,0.094878,0.000000
2.460000,-0.784492,0.199100,-1.493989,1.483147,0.301837,-0.002110,0.331476,-1.184644,0.025741,-0.929514,1.794274,0.002180,0.701774,10.147769,0.849363,-0.120422,-0.033866,0.000000,0.180224,0.094197,0.000000
2.470000,-0.769644,0.202059,-1.494009,1.486416,0.290082,-0.001852,0.322218,-1.166193,0.025805,-0.921784,1.895798,0.010593,0.801851,10.108669,0.842177,-0.118568,-0.032921,0.000000,0.190455,0.093413,-0.000000
2.480000,-0.754764,0.204902,-1.494026,1.489592,0.278516,-0.001594,0.313039,-1.146734,0.025954,-0.914363,1.995437,0.019212,0.680145,9.815762,0.882050,-0.116613,-0.031984,0.000000,0.200512,0.092663,0.000000
2.490000,-0.739853,0.207630,-1.494041,1.492677,0.267151,-0.001333,0.303929,-1.126292,0.026190,-0.907360,2.093012,0.028058,0.761515,9.744280,0.878562,-0.114559,-0.031055,0.000000,0.210377,0.091956,-0.000000
2.500000,-0.724911,0.210246,-1.494053,1.495671,0.255994,-0.001069,0.294895,-1.104876,0.026515,-0.899505,2.189892,0.036860,0.766870,9.583669,0.890975,-0.112406,-0.030133,0.000000,0.220191,0.091165,-0.000000
2.510000,-0.709940,0.212751,-1.494062,1.498575,0.245056,-0.000802,0.285934,-1.082484,0.026928,-0.892920,2.288687,0.045884,0.747937,9.491949,0.904709,-0.110154,-0.029219,0.000000,0.230215,0.090505,-0.000000
2.520000,-0.694940,0.215148,-1.494069,1.501390,0.234347,-0.000531,0.277052,-1.059161,0.027432,-0.882735,2.373423,0.054872,1.095845,8.114529,0.901987,-0.107807,-0.028313,0.000000,0.238840,0.089482,0.000000
2.530000,-0.679912,0.217438,-1.494073,1.504116,0.223876,-0.000253,0.268269,-1.034988,0.028027,-0.875058,2.464822,0.064114,0.432993,10.183707,0.946705,-0.105374,-0.027418,0.000000,0.248153,0.088715,-0.000000
2.540000,-0.664858,0.219626,-1.494074,1.506755,0.213651,0.000030,0.259540,-1.009834,0.028715,-0.870187,2.563662,0.073628,0.735316,8.913635,0.947089,-0.102841,-0.026528,0.000000,0.258236,0.088234,0.000000
2.550000,-0.649777,0.221712,-1.494072,1.509307,0.203682,0.000321,0.250880,-0.983773,0.029499,-0.862007,2.648705,0.083134,0.706712,8.757120,0.963329,-0.100215,-0.025645,0.000000,0.266945,0.087419,0.000000
2.560000,-0.634672,0.223700,-1.494067,1.511773,0.193978,0.000621,0.242299,-0.956868,0.030379,-0.854005,2.731468,0.092918,0.710335,8.462691,0.980815,-0.097503,-0.024771,0.000000,0.275441,0.086623,-0.000000
2.570000,-0.619542,0.225593,-1.494060,1.514153,0.184548,0.000929,0.233785,-0.929099,0.031357,-0.849485,2.824058,0.102635,0.371443,9.400993,0.974853,-0.094702,-0.023903,0.000000,0.284952,0.086183,-0.000000
2.580000,-0.604389,0.227392,-1.494049,1.516449,0.175399,0.001248,0.225318,-0.900428,0.032433,-0.842844,2.905751,0.112674,0.962405,6.913779,1.033465,-0.091808,-0.023040,0.000000,0.293377,0.085529,-0.000000
2.590000,-0.589213,0.229102,-1.494035,1.518660,0.166541,0.001578,0.216938,-0.871029,0.033612,-0.833833,2.975434,0.123055,0.660494,7.676671,1.030204,-0.088839,-0.022186,0.000000,0.300600,0.084634,-0.000000
2.600000,-0.574016,0.230724,-1.494017,1.520788,0.157981,0.001921,0.208627,-0.840879,0.034894,-0.828110,3.053641,0.133384,0.662956,7.306554,1.047924,-0.085792,-0.021339,0.000000,0.308707,0.084076,-0.000000
2.610000,-0.558798,0.232262,-1.493996,1.522833,0.149726,0.002276,0.200382,-0.809991,0.036281,-0.820880,3.123160,0.144020,0.666810,6.924473,1.065962,-0.082668,-0.020499,0.000000,0.315947,0.083366,-0.000000
2.620000,-0.543560,0.233720,-1.493972,1.524796,0.141784,0.002647,0.192200,-0.778402,0.037774,-0.815845,3.195117,0.154581,0.452775,7.144514,1.058898,-0.079471,-0.019665,0.000000,0.323454,0.082880,0.000000
2.630000,-0.528302,0.235099,-1.493943,1.526677,0.134161,0.003032,0.184070,-0.746117,0.039373,-0.809459,3.259285,0.165463,0.827718,5.677346,1.117886,-0.076202,-0.018837,0.000000,0.330184,0.082258,0.000000
2.640000,-0.513026,0.236404,-1.493911,1.528477,0.126863,0.003434,0.176017,-0.713247,0.041084,-0.801578,3.315109,0.176678,0.634276,5.809167,1.111913,-0.072871,-0.018016,0.000000,0.336079,0.081485,0.000000
2.650000,-0.497733,0.237638,-1.493875,1.530198,0.119898,0.003854,0.168030,-0.679803,0.042906,-0.795814,3.372700,0.187808,0.631615,5.385988,1.126880,-0.069479,-0.017202,0.000000,0.342169,0.080929,-0.000000
2.660000,-0.482423,0.238803,-1.493834,1.531838,0.113269,0.004293,0.160098,-0.645796,0.044841,-0.790677,3.428548,0.199181,0.596796,5.058717,1.139728,-0.066028,-0.016393,0.000000,0.348095,0.080437,0.000000
2.670000,-0.467097,0.239904,-1.493789,1.533400,0.106983,0.004751,0.152232,-0.611302,0.046890,-0.782032,3.467197,0.210510,0.936188,3.372955,1.134461,-0.062524,-0.015591,0.000000,0.352281,0.079589,-0.000000
2.680000,-0.451755,0.240944,-1.493739,1.534883,0.101044,0.005231,0.144447,-0.576431,0.049052,-0.776068,3.510741,0.222049,0.250342,5.356872,1.173357,-0.058980,-0.014797,0.000000,0.356976,0.079016,0.000000
2.690000,-0.436399,0.241926,-1.493684,1.536289,0.095456,0.005733,0.136699,-0.541062,0.051331,-0.773075,3.560100,0.233791,0.545356,3.804308,1.165701,-0.055382,-0.014007,0.000000,0.362275,0.078747,0.000000
2.700000,-0.421030,0.242854,-1.493624,1.537617,0.090224,0.006258,0.129000,-0.505297,0.053728,-0.766842,3.592825,0.245434,0.504313,3.446448,1.170998,-0.051741,-0.013221,0.000000,0.365888,0.078149,-0.000000
2.710000,-0.405647,0.243732,-1.493559,1.538869,0.085352,0.006808,0.121355,-0.469223,0.056241,-0.762324,3.620527,0.257204,0.467741,2.940894,1.173777,-0.048066,-0.012441,0.000000,0.368995,0.077727,-0.000000
2.720000,-0.390252,0.244562,-1.493488,1.540045,0.080841,0.007383,0.113758,-0.432834,0.058871,-0.756857,3.659424,0.268821,0.559433,4.014506,1.157437,-0.044356,-0.011666,0.000000,0.373258,0.077209,-0.000000
2.730000,-0.374846,0.245350,-1.493411,1.541144,0.076696,0.007986,0.106213,-0.396090,0.061617,-0.752527,3.683520,0.280516,0.304674,0.778609,1.181386,-0.040607,-0.010895,0.000000,0.376013,0.076809,0.000000
2.740000,-0.359430,0.246098,-1.493328,1.542169,0.072919,0.008616,0.098703,-0.359223,0.064482,-0.749413,3.691645,0.292267,0.385606,1.677389,1.159635,-0.036842,-0.010128,0.000000,0.377139,0.076535,-0.000000
2.750000,-0.344003,0.246809,-1.493238,1.543119,0.069512,0.009276,0.091229,-0.322209,0.067462,-0.745377,3.710020,0.303773,0.355482,1.170041,1.148633,-0.033059,-0.009364,0.000000,0.379320,0.076167,-0.000000
2.760000,-0.328568,0.247489,-1.493142,1.543994,0.066476,0.009966,0.083799,-0.285039,0.070557,-0.740510,3.723792,0.315147,0.361497,0.807612,1.131872,-0.029257,-0.008604,0.000000,0.381035,0.075716,0.000000
2.770000,-0.313124,0.248140,-1.493039,1.544795,0.063812,0.010687,0.076398,-0.247808,0.073765,-0.740499,3.719038,0.326454,-0.109467,-1.002493,1.122652,-0.025446,-0.007847,0.000000,0.380852,0.075764,0.000000
2.780000,-0.297672,0.248767,-1.492928,1.545522,0.061519,0.011441,0.069001,-0.210635,0.077085,-0.737456,3.719610,0.337451,0.726203,1.141484,1.075700,-0.021638,-0.007089,0.000000,0.381218,0.075502,0.000000
2.790000,-0.282213,0.249372,-1.492810,1.546175,0.059599,0.012229,0.061663,-0.173389,0.080512,-0.731009,3.726619,0.348078,0.312056,-0.500861,1.055088,-0.017819,-0.006338,0.000000,0.382248,0.074892,-0.000000
2.800000,-0.266749,0.249960,-1.492684,1.546755,0.058052,0.013052,0.054361,-0.136174,0.084046,-0.729073,3.716079,0.358486,0.326340,-0.846806,1.018718,-0.014000,-0.005589,0.000000,0.381476,0.074746,0.000000
2.810000,-0.251279,0.250534,-1.492549,1.547262,0.056875,0.013910,0.047087,-0.099063,0.087680,-0.725897,3.705523,0.368376,0.324117,-1.240496,0.975025,-0.010189,-0.004843,0.000000,0.380702,0.074474,0.000000
2.820000,-0.235804,0.251099,-1.492405,1.547697,0.056070,0.014806,0.039845,-0.062075,0.091413,-0.722449,3.691491,0.378122,0.350740,-1.588221,0.956927,-0.006387,-0.004100,0.000000,0.379569,0.074175,0.000000
2.830000,-0.220325,0.251657,-1.492253,1.548059,0.055633,0.015739,0.032637,-0.025247,0.095240,-0.719189,3.673290,0.387151,0.300899,-2.052613,0.847378,-0.002599,-0.003359,0.000000,0.378005,0.073896,0.000000
2.840000,-0.204843,0.252212,-1.492091,1.548350,0.055564,0.016711,0.025460,0.011377,0.099153,-0.716136,3.650900,0.395379,0.324381,-2.402274,0.813557,0.001172,-0.002622,0.000000,0.376007,0.073639,0.000000
2.850000,-0.189358,0.252769,-1.491918,1.548568,0.055860,0.017722,0.018315,0.047760,0.103147,-0.712829,3.625051,0.403263,0.322093,-2.790345,0.745524,0.004920,-0.001887,0.000000,0.373648,0.073356,0.000000
2.860000,-0.173872,0.253331,-1.491736,1.548716,0.056518,0.018774,0.011198,0.083848,0.107215,-0.710837,3.591479,0.410227,0.295539,-3.251020,0.669323,0.008641,-0.001154,0.000000,0.370487,0.073210,-0.000000
2.870000,-0.158384,0.253901,-1.491543,1.548793,0.057536,0.019867,0.004115,0.119629,0.111351,-0.704902,3.566227,0.416839,0.678652,-2.451596,0.629522,0.012334,-0.000424,0.000000,0.368178,0.072657,-0.000000
2.880000,-0.142896,0.254483,-1.491338,1.548799,0.058910,0.021001,-0.002911,0.155127,0.115548,-0.701734,3.528756,0.422326,-0.051683,-5.061937,0.466063,0.016000,0.000300,0.000000,0.364601,0.072389,0.000000
2.890000,-0.127408,0.255080,-1.491123,1.548734,0.060637,0.022178,-0.009931,0.190155,0.119793,-0.701626,3.478219,0.426590,0.288301,-4.384981,0.408134,0.019621,0.001025,0.000000,0.359665,0.072437,0.000000
2.900000,-0.111922,0.255697,-1.490895,1.548600,0.062712,0.023397,-0.016928,0.224729,0.124078,-0.697788,3.435495,0.430275,0.265470,-4.814695,0.305188,0.023197,0.001748,0.000000,0.355525,0.072099,0.000000
2.910000,-0.096437,0.256336,-1.490654,1.548396,0.065130,0.024660,-0.023888,0.258850,0.128393,-0.694162,3.388398,0.432572,0.278602,-5.130444,0.192087,0.026730,0.002467,0.000000,0.350921,0.071783,0.000000
2.920000,-0.080954,0.257000,-1.490401,1.548122,0.067887,0.025965,-0.030825,0.292444,0.132729,-0.693882,3.328080,0.434443,-0.045795,-6.418455,0.144002,0.030210,0.003185,0.000000,0.344940,0.071812,0.000000
2.930000,-0.065474,0.257694,-1.490135,1.547779,0.070977,0.027314,-0.037757,0.325425,0.137076,-0.691366,3.270833,0.434650,0.554828,-5.012394,-0.105028,0.033630,0.003903,0.000000,0.339259,0.071608,0.000000
2.940000,-0.049999,0.258421,-1.489855,1.547367,0.074394,0.028707,-0.044643,0.357878,0.141416,-0.686347,3.217522,0.433072,0.271082,-6.164306,-0.174117,0.036997,0.004617,0.000000,0.333966,0.071144,0.000000
2.950000,-0.034527,0.259183,-1.489561,1.546887,0.078132,0.030143,-0.051497,0.389726,0.145736,-0.684426,3.151989,0.430830,0.291013,-6.424334,-0.312993,0.040304,0.005329,0.000000,0.327394,0.070998,-0.000000
2.960000,-0.019061,0.259985,-1.489252,1.546337,0.082186,0.031621,-0.058327,0.420919,0.150026,-0.681605,3.086093,0.426754,0.298247,-6.707266,-0.460520,0.043545,0.006038,0.000000,0.320764,0.070757,0.000000
2.970000,-0.003601,0.260828,-1.488928,1.545720,0.086548,0.033143,-0.065127,0.451442,0.154270,-0.678229,3.018309,0.421992,0.353020,-6.890695,-0.534123,0.046719,0.006745,0.000000,0.313920,0.070456,-0.000000
2.980000,0.011853,0.261717,-1.488589,1.545035,0.091213,0.034707,-0.071893,0.481274,0.158458,-0.675046,2.947411,0.415183,0.282974,-7.287760,-0.829953,0.049822,0.007449,0.000000,0.306730,0.070171,-0.000000
2.990000,0.027300,0.262653,-1.488234,1.544282,0.096172,0.036312,-0.078629,0.510380,0.162566,-0.672080,2.873492,0.406214,0.334760,-7.449022,-0.922833,0.052852,0.008150,0.000000,0.299200,0.069905,0.000000
3.000000,0.042739,0.263641,-1.487863,1.543463,0.101418,0.037958,-0.085332,0.538740,0.166580,-0.668555,2.798109,0.396354,0.346179,-7.669089,-1.091552,0.055806,0.008848,0.000000,0.291498,0.069577,-0.000000
3.010000,0.058169,0.264683,-1.487475,1.542576,0.106944,0.039643,-0.092000,0.566335,0.170485,-0.665047,2.720518,0.384358,0.359479,-7.867510,-1.266560,0.058681,0.009544,0.000000,0.283538,0.069247,-0.000000
3.020000,0.073590,0.265781,-1.487070,1.541623,0.112742,0.041367,-0.098632,0.593142,0.174265,-0.661328,2.640620,0.371393,0.380666,-8.088738,-1.367439,0.061476,0.010236,0.000000,0.275316,0.068890,0.000000
3.030000,0.089001,0.266938,-1.486647,1.540603,0.118804,0.043128,-0.105226,0.619143,0.177905,-0.657510,2.559231,0.356148,0.382824,-8.185470,-1.683356,0.064187,0.010924,0.000000,0.266908,0.068517,0.000000
3.040000,0.104402,0.268158,-1.486207,1.539518,0.125122,0.044924,-0.111782,0.644323,0.181380,-0.653594,2.476552,0.338536,0.404298,-8.368148,-1.798674,0.066813,0.011609,0.000000,0.258333,0.068127,-0.000000
3.050000,0.119791,0.269442,-1.485749,1.538368,0.131688,0.046755,-0.118297,0.668667,0.184673,-0.649455,2.392102,0.319822,0.419726,-8.498213,-1.985262,0.069353,0.012290,0.000000,0.249549,0.067709,-0.000000
3.060000,0.135169,0.270792,-1.485272,1.537153,0.138492,0.048617,-0.124771,0.692163,0.187768,-0.645172,2.306785,0.298858,0.435852,-8.606961,-2.174497,0.071804,0.012966,0.000000,0.240641,0.067268,0.000000
3.070000,0.150534,0.272212,-1.484776,1.535873,0.145528,0.050510,-0.131200,0.714796,0.190647,-0.640748,2.219611,0.276636,0.450133,-8.781418,-2.302258,0.074165,0.013638,0.000000,0.231514,0.066806,-0.000000
3.080000,0.165886,0.273704,-1.484261,1.534529,0.152785,0.052429,-0.137585,0.736554,0.193293,-0.636147,2.132125,0.252135,0.470157,-8.711607,-2.599018,0.076434,0.014306,0.000000,0.222319,0.066317,0.000000
3.090000,0.181224,0.275269,-1.483727,1.533121,0.160256,0.054375,-0.143923,0.757439,0.195681,-0.631366,2.044562,0.225311,0.484814,-8.841600,-2.732868,0.078611,0.014969,0.000000,0.213080,0.065802,0.000000
3.100000,0.196548,0.276909,-1.483174,1.531650,0.167931,0.056342,-0.150212,0.777440,0.197796,-0.626441,1.955723,0.197209,0.501258,-8.879744,-2.920185,0.080695,0.015626,0.000000,0.203682,0.065263,0.000000
3.110000,0.211857,0.278628,-1.482601,1.530117,0.175802,0.058329,-0.156451,0.796554,0.199618,-0.621348,1.867076,0.166992,0.517472,-8.897384,-3.105225,0.082685,0.016278,0.000000,0.194269,0.064698,0.000000
3.120000,0.227150,0.280426,-1.482007,1.528522,0.183859,0.060334,-0.162638,0.814777,0.201131,-0.616092,1.777367,0.135275,0.533627,-8.992311,-3.254485,0.084580,0.016924,0.000000,0.184719,0.064107,0.000000
3.130000,0.242427,0.282306,-1.481394,1.526864,0.192095,0.062351,-0.168772,0.832104,0.202317,-0.610679,1.688320,0.101560,0.548942,-8.812807,-3.488345,0.086379,0.017565,0.000000,0.175204,0.063490,-0.000000
3.140000,0.257687,0.284269,-1.480760,1.525146,0.200499,0.064379,-0.174851,0.848547,0.203155,-0.605113,1.600173,0.065867,0.564301,-8.863379,-3.632272,0.088084,0.018199,0.000000,0.165750,0.062847,0.000000
3.150000,0.272930,0.286316,-1.480106,1.523368,0.209063,0.066413,-0.180874,0.864105,0.203630,-0.599395,1.511529,0.028789,0.578964,-8.813079,-3.799494,0.089694,0.018826,0.000000,0.156219,0.062179,0.000000
3.160000,0.288155,0.288450,-1.479432,1.521529,0.217778,0.068450,-0.186839,0.878782,0.203725,-0.593546,1.423971,-0.009989,0.592816,-8.744381,-3.958683,0.091209,0.019447,0.000000,0.146773,0.061487,0.000000
3.170000,0.303360,0.290672,-1.478737,1.519631,0.226635,0.070486,-0.192744,0.892583,0.203425,-0.587523,1.336244,-0.050397,0.609713,-8.751008,-4.117776,0.092629,0.020061,0.000000,0.137283,0.060767,-0.000000
3.180000,0.318547,0.292983,-1.478022,1.517674,0.235626,0.072517,-0.198589,0.905512,0.202713,-0.581395,1.249997,-0.092237,0.615632,-8.494500,-4.248652,0.093955,0.020668,0.000000,0.127923,0.060026,0.000000
3.190000,0.333714,0.295385,-1.477287,1.515659,0.244743,0.074539,-0.204372,0.917589,0.201576,-0.575174,1.165445,-0.135417,0.630447,-8.461183,-4.389503,0.095188,0.021267,0.000000,0.118718,0.059265,-0.000000
3.200000,0.348860,0.297879,-1.476531,1.513587,0.253975,0.076547,-0.210092,0.928821,0.200000,-0.568805,1.081227,-0.179966,0.641045,-8.332453,-4.514333,0.096329,0.021858,0.000000,0.109527,0.058479,-0.000000
3.210000,0.363985,0.300465,-1.475756,1.511458,0.263316,0.078537,-0.215748,0.939220,0.197973,-0.562358,0.998797,-0.225537,0.650464,-8.188944,-4.625422,0.097379,0.022442,0.000000,0.100507,0.057675,-0.000000
3.220000,0.379089,0.303145,-1.474961,1.509272,0.272757,0.080505,-0.221339,0.948799,0.195483,-0.555780,0.917146,-0.272691,0.662923,-8.102631,-4.776665,0.098340,0.023017,0.000000,0.091548,0.056847,0.000000
3.230000,0.394171,0.305921,-1.474146,1.507031,0.282290,0.082446,-0.226863,0.957570,0.192517,-0.549149,0.837550,-0.320467,0.662981,-7.813458,-4.775764,0.099211,0.023584,0.000000,0.082793,0.056005,0.000000
3.240000,0.409229,0.308791,-1.473312,1.504735,0.291906,0.084354,-0.232321,0.965558,0.189073,-0.542481,0.760179,-0.368705,0.672563,-7.695773,-4.896583,0.099996,0.024143,0.000000,0.074263,0.055151,0.000000
3.250000,0.424265,0.311759,-1.472459,1.502385,0.301598,0.086225,-0.237713,0.972777,0.185139,-0.535720,0.683984,-0.418124,0.677177,-7.504833,-4.957991,0.100697,0.024693,0.000000,0.065845,0.054278,-0.000000
3.260000,0.439277,0.314824,-1.471588,1.499981,0.311359,0.088055,-0.243036,0.979245,0.180710,-0.528900,0.609961,-0.467687,0.681155,-7.305392,-5.001596,0.101314,0.025234,0.000000,0.057653,0.053391,0.000000
3.270000,0.454265,0.317986,-1.470698,1.497525,0.321181,0.089838,-0.248291,0.984982,0.175780,-0.522153,0.537841,-0.518561,0.673293,-7.110007,-5.122812,0.101850,0.025766,0.000000,0.049649,0.052502,0.000000
3.280000,0.469227,0.321247,-1.469791,1.495016,0.331056,0.091569,-0.253478,0.990009,0.170340,-0.515326,0.467935,-0.569088,0.692000,-6.869784,-4.978759,0.102308,0.026289,0.000000,0.041883,0.051599,-0.000000
3.290000,0.484165,0.324608,-1.468867,1.492455,0.340979,0.093243,-0.258597,0.994349,0.164400,-0.508427,0.400331,-0.619053,0.682030,-6.656631,-5.059850,0.102689,0.026803,0.000000,0.034370,0.050685,0.000000
3.300000,0.499076,0.328067,-1.467926,1.489844,0.350941,0.094855,-0.263647,0.998023,0.157956,-0.501646,0.334885,-0.669813,0.679409,-6.424567,-5.042371,0.102996,0.027308,0.000000,0.027079,0.049775,0.000000
3.310000,0.513961,0.331626,-1.466970,1.487182,0.360937,0.096400,-0.268631,1.001057,0.151008,-0.495134,0.272489,-0.719735,0.669497,-6.173549,-5.004915,0.103232,0.027804,0.000000,0.020123,0.048889,0.000000
3.320000,0.528820,0.335286,-1.465999,1.484472,0.370960,0.097874,-0.273547,1.003471,0.143557,-0.487833,0.210327,-0.770460,0.745073,-6.141787,-5.073726,0.103398,0.028291,0.000000,0.013195,0.047915,-0.000000
3.330000,0.543651,0.339046,-1.465013,1.481712,0.381004,0.099270,-0.278390,1.005278,0.135603,-0.481188,0.152108,-0.819818,0.582171,-5.497904,-4.793036,0.103497,0.028768,0.000000,0.006701,0.047008,0.000000
3.340000,0.558454,0.342906,-1.464014,1.478904,0.391064,0.100584,-0.283173,1.006528,0.127167,-0.475279,0.098023,-0.867553,0.645248,-5.436349,-4.815553,0.103534,0.029237,0.000000,0.000661,0.046176,0.000000
3.350000,0.573229,0.346867,-1.463001,1.476049,0.401133,0.101812,-0.287893,1.007238,0.118250,-0.468676,0.044382,-0.915529,0.629496,-5.174840,-4.712584,0.103510,0.029696,0.000000,-0.005319,0.045268,0.000000
3.360000,0.587975,0.350929,-1.461978,1.473146,0.411207,0.102948,-0.292549,1.007426,0.108863,-0.462568,-0.006402,-0.961693,0.613169,-4.927532,-4.589095,0.103429,0.030147,0.000000,-0.010971,0.044413,-0.000000
3.370000,0.602691,0.355091,-1.460943,1.470198,0.421280,0.103987,-0.297143,1.007123,0.099015,-0.456221,-0.053673,-1.007914,0.635572,-4.580127,-4.582992,0.103292,0.030589,0.000000,-0.016248,0.043530,-0.000000
3.380000,0.617378,0.359354,-1.459898,1.467204,0.431348,0.104926,-0.301675,1.006358,0.088713,-0.450291,-0.099126,-1.051842,0.549745,-4.512626,-4.197576,0.103104,0.031022,0.000000,-0.021297,0.042693,0.000000
3.390000,0.632035,0.363718,-1.458845,1.464164,0.441406,0.105760,-0.306151,1.005145,0.077987,-0.444811,-0.142869,-1.093218,0.566818,-4.183361,-4.145141,0.102867,0.031448,0.000000,-0.026128,0.041908,-0.000000
3.400000,0.646662,0.368182,-1.457783,1.461081,0.451449,0.106485,-0.310570,1.003513,0.066849,-0.439131,-0.183264,-1.134097,0.548509,-3.949980,-3.958310,0.102583,0.031865,0.000000,-0.030594,0.041101,0.000000
3.410000,0.661257,0.372747,-1.456715,1.457953,0.461475,0.107096,-0.314931,1.001479,0.055315,-0.432977,-0.223306,-1.172340,0.546736,-3.753017,-3.753578,0.102255,0.032274,0.000000,-0.034978,0.040253,-0.000000
3.420000,0.675820,0.377412,-1.455642,1.454782,0.471478,0.107590,-0.319241,0.999078,0.043404,-0.429439,-0.255524,-1.209724,0.291936,-2.988958,-3.657163,0.101887,0.032675,0.000000,-0.038543,0.039672,-0.000000
3.430000,0.690352,0.382176,-1.454564,1.451569,0.481455,0.107963,-0.323514,0.996361,0.031131,-0.424387,-0.289349,-1.244098,0.722438,-3.786407,-3.213244,0.101484,0.033071,0.000000,-0.042223,0.038945,0.000000
3.440000,0.704852,0.387041,-1.453483,1.448312,0.491404,0.108211,-0.327722,0.993282,0.018533,-0.417647,-0.325252,-1.275235,0.493146,-3.094591,-3.076348,0.101042,0.033458,0.000000,-0.046060,0.038057,-0.000000
3.450000,0.719318,0.392004,-1.452400,1.445014,0.501320,0.108332,-0.331877,0.989886,0.005630,-0.413408,-0.353806,-1.305039,0.486561,-2.916421,-2.817918,0.100566,0.033837,0.000000,-0.049126,0.037427,-0.000000
3.460000,0.733752,0.397067,-1.451317,1.441675,0.511200,0.108323,-0.335990,0.986212,-0.007556,-0.409304,-0.380403,-1.331602,0.456170,-2.691424,-2.545717,0.100060,0.034210,0.000000,-0.051945,0.036821,0.000000
3.470000,0.748152,0.402228,-1.450234,1.438295,0.521043,0.108180,-0.340054,0.982262,-0.020997,-0.403166,-0.410298,-1.356403,0.652405,-3.009179,-2.361386,0.099525,0.034576,0.000000,-0.055063,0.036015,-0.000000
3.480000,0.762518,0.407488,-1.449154,1.434874,0.530845,0.107902,-0.344060,0.978026,-0.034672,-0.398754,-0.434740,-1.377719,0.226092,-1.871465,-1.898534,0.098961,0.034935,0.000000,-0.057583,0.035396,0.000000
3.490000,0.776849,0.412845,-1.448077,1.431414,0.540603,0.107486,-0.348037,0.973588,-0.048539,-0.396250,-0.453399,-1.395381,0.394144,-2.143346,-1.684314,0.098376,0.035288,0.000000,-0.059474,0.034983,0.000000
3.500000,0.791146,0.418300,-1.447004,1.427913,0.550316,0.106931,-0.351977,0.968943,-0.062574,-0.391891,-0.475239,-1.410938,0.357799,-1.944790,-1.374022,0.097770,0.035637,0.000000,-0.061652,0.034391,0.000000
3.510000,0.805407,0.423851,-1.445938,1.424374,0.559981,0.106234,-0.355880,0.964095,-0.076746,-0.388734,-0.493991,-1.422951,0.322399,-1.776217,-1.056556,0.097144,0.035980,0.000000,-0.063475,0.033933,-0.000000
3.520000,0.819633,0.429499,-1.444880,1.420796,0.569597,0.105396,-0.359749,0.959071,-0.091024,-0.384995,-0.510511,-1.432316,0.377795,-1.559540,-0.787302,0.096501,0.036319,0.000000,-0.065040,0.033428,0.000000
3.530000,0.833823,0.435243,-1.443831,1.417179,0.579162,0.104414,-0.363583,0.953889,-0.105380,-0.382177,-0.525846,-1.438087,0.184363,-1.510216,-0.365197,0.095844,0.036652,0.000000,-0.066444,0.033029,-0.000000
3.540000,0.847977,0.441082,-1.442792,1.413524,0.588674,0.103288,-0.367396,0.948557,-0.119774,-0.380346,-0.540147,-1.440177,0.229719,-1.321628,-0.080845,0.095173,0.036983,0.000000,-0.067704,0.032743,-0.000000
3.550000,0.862093,0.447016,-1.441766,1.409831,0.598133,0.102018,-0.371187,0.943093,-0.134175,-0.377988,-0.552577,-1.439455,0.194381,-1.196666,0.254528,0.094490,0.037310,0.000000,-0.068746,0.032417,-0.000000
3.560000,0.876173,0.453045,-1.440752,1.406101,0.607536,0.100604,-0.374955,0.937501,-0.148551,-0.375536,-0.565720,-1.435223,0.176284,-1.117511,0.590280,0.093798,0.037634,0.000000,-0.069821,0.032096,-0.000000
3.570000,0.890215,0.459167,-1.439754,1.402332,0.616882,0.099047,-0.378708,0.931806,-0.162868,-0.375560,-0.572057,-1.427663,-0.064703,-0.459021,0.923482,0.093097,0.037956,0.000000,-0.070188,0.032036,0.000000
3.580000,0.904220,0.465382,-1.438772,1.398526,0.626172,0.097347,-0.382461,0.926048,-0.177093,-0.374388,-0.581388,-1.416719,0.302836,-1.418603,1.265214,0.092393,0.038277,0.000000,-0.070821,0.031871,0.000000
3.590000,0.918186,0.471690,-1.437808,1.394683,0.635403,0.095506,-0.386191,0.920165,-0.191191,-0.371851,-0.594254,-1.402399,0.087336,-0.846270,1.596787,0.091679,0.038595,0.000000,-0.071772,0.031586,0.000000
3.600000,0.932113,0.478090,-1.436862,1.390803,0.644575,0.093524,-0.389908,0.914189,-0.205130,-0.371643,-0.600980,-1.384771,0.071257,-0.809600,1.929225,0.090960,0.038912,0.000000,-0.072086,0.031546,-0.000000
3.610000,0.946002,0.484581,-1.435938,1.386885,0.653686,0.091404,-0.393623,0.908142,-0.218876,-0.371332,-0.608290,-1.363944,0.042245,-0.751506,2.255475,0.090237,0.039229,0.000000,-0.072432,0.031511,0.000000
3.620000,0.959851,0.491164,-1.435035,1.382930,0.662737,0.089147,-0.397332,0.902017,-0.232396,-0.370326,-0.616936,-1.339495,0.109239,-0.884474,2.614212,0.089511,0.039545,0.000000,-0.072881,0.031423,0.000000
3.630000,0.973660,0.497836,-1.434155,1.378938,0.671726,0.086757,-0.401033,0.895809,-0.245656,-0.370190,-0.624017,-1.312083,-0.083528,-0.530118,2.866516,0.088780,0.039860,0.000000,-0.073154,0.031436,0.000000
3.640000,0.987429,0.504598,-1.433300,1.374910,0.680653,0.084235,-0.404739,0.889543,-0.258628,-0.370990,-0.629481,-1.281797,-0.026282,-0.659501,3.208893,0.088048,0.040176,0.000000,-0.073248,0.031555,0.000000
3.650000,1.001158,0.511449,-1.432471,1.370844,0.689517,0.081585,-0.408449,0.883213,-0.271280,-0.371141,-0.636420,-1.248096,-0.053914,-0.634240,3.510503,0.087315,0.040493,0.000000,-0.073464,0.031626,0.000000
3.660000,1.014846,0.518388,-1.431669,1.366741,0.698317,0.078811,-0.412163,0.876816,-0.283582,-0.371746,-0.642916,-1.211706,-0.075979,-0.626945,3.801576,0.086579,0.040812,0.000000,-0.073621,0.031755,0.000000
3.670000,1.028493,0.525415,-1.430895,1.362600,0.707053,0.075915,-0.415886,0.870358,-0.295502,-0.372724,-0.648628,-1.171750,-0.112121,-0.554059,4.152063,0.085843,0.041131,0.000000,-0.073677,0.031939,-0.000000
3.680000,1.042098,0.532529,-1.430151,1.358423,0.715724,0.072902,-0.419618,0.863842,-0.307009,-0.373832,-0.654806,-1.129455,-0.109074,-0.683670,4.304116,0.085106,0.041453,0.000000,-0.073769,0.032148,-0.000000
3.690000,1.055661,0.539729,-1.429437,1.354208,0.724330,0.069776,-0.423362,0.857259,-0.318084,-0.375052,-0.661563,-1.084977,-0.142281,-0.630720,4.625895,0.084367,0.041777,0.000000,-0.073908,0.032381,0.000000
3.700000,1.069182,0.547015,-1.428756,1.349956,0.732869,0.066542,-0.427121,0.850613,-0.328697,-0.376610,-0.667761,-1.037281,-0.161979,-0.647364,4.874549,0.083628,0.042103,0.000000,-0.073976,0.032663,-0.000000
3.710000,1.082660,0.554386,-1.428107,1.345666,0.741342,0.063204,-0.430895,0.843902,-0.338823,-0.378312,-0.674362,-0.987596,-0.181045,-0.667056,5.107659,0.082888,0.042432,0.000000,-0.074077,0.032972,-0.000000
3.720000,1.096095,0.561842,-1.427492,1.341338,0.749747,0.059767,-0.434688,0.837125,-0.348438,-0.380254,-0.681056,-0.934738,-0.204548,-0.678748,5.415936,0.082146,0.042765,0.000000,-0.074173,0.033321,-0.000000
3.730000,1.109487,0.569381,-1.426912,1.336972,0.758084,0.056237,-0.438501,0.830280,-0.357513,-0.382342,-0.688082,-0.880284,-0.212702,-0.727308,5.470961,0.081404,0.043101,0.000000,-0.074300,0.033696,0.000000
3.740000,1.122835,0.577003,-1.426367,1.332568,0.766352,0.052619,-0.442335,0.823363,-0.366039,-0.384561,-0.695484,-0.824439,-0.233788,-0.747096,5.741929,0.080660,0.043441,0.000000,-0.074463,0.034093,0.000000
3.750000,1.136138,0.584708,-1.425860,1.328125,0.774551,0.048918,-0.446193,0.816370,-0.373992,-0.386991,-0.703088,-0.765888,-0.249162,-0.780418,5.919691,0.079915,0.043785,0.000000,-0.074638,0.034528,-0.000000
3.760000,1.149397,0.592494,-1.425389,1.323644,0.782680,0.045141,-0.450075,0.809300,-0.381353,-0.389549,-0.710990,-0.706135,-0.263559,-0.813818,6.079569,0.079167,0.044134,0.000000,-0.074845,0.034985,-0.000000
3.770000,1.162611,0.600361,-1.424957,1.319123,0.790737,0.041293,-0.453984,0.802148,-0.388106,-0.392271,-0.719495,-0.643878,-0.279346,-0.874117,6.319571,0.078418,0.044487,0.000000,-0.075104,0.035475,-0.000000
3.780000,1.175779,0.608309,-1.424564,1.314564,0.798722,0.037381,-0.457921,0.794909,-0.394229,-0.395106,-0.728200,-0.580839,-0.287477,-0.866603,6.284100,0.077665,0.044846,0.000000,-0.075390,0.035984,0.000000
3.790000,1.188902,0.616335,-1.424210,1.309965,0.806635,0.033411,-0.461887,0.787583,-0.399721,-0.398042,-0.737095,-0.517246,-0.300853,-0.925751,6.481932,0.076910,0.045209,0.000000,-0.075704,0.036511,-0.000000
3.800000,1.201978,0.624441,-1.423896,1.305326,0.814474,0.029389,-0.465882,0.780165,-0.404566,-0.401109,-0.746604,-0.451682,-0.310987,-0.962626,6.578315,0.076151,0.045578,0.000000,-0.076077,0.037066,-0.000000
3.810000,1.215008,0.632625,-1.423622,1.300647,0.822238,0.025322,-0.469909,0.772651,-0.408754,-0.404240,-0.756290,-0.385748,-0.319540,-0.997365,6.655859,0.075388,0.045953,0.000000,-0.076478,0.037636,-0.000000
3.820000,1.227991,0.640886,-1.423389,1.295928,0.829926,0.021216,-0.473968,0.765036,-0.412275,-0.407538,-0.766760,-0.318159,-0.335495,-1.074296,6.810489,0.074621,0.046333,0.000000,-0.076958,0.038235,-0.000000
3.830000,1.240927,0.649223,-1.423198,1.291168,0.837538,0.017078,-0.478060,0.757316,-0.415118,-0.410853,-0.777304,-0.250615,-0.327119,-1.033574,6.694093,0.073849,0.046719,0.000000,-0.077460,0.038844,0.000000
3.840000,1.253814,0.657636,-1.423048,1.286366,0.845072,0.012916,-0.482185,0.749490,-0.417288,-0.414166,-0.787878,-0.183349,-0.339889,-1.103310,6.805358,0.073072,0.047112,0.000000,-0.077982,0.039457,0.000000
3.850000,1.266654,0.666124,-1.422940,1.281524,0.852528,0.008735,-0.486344,0.741555,-0.418780,-0.417608,-0.799175,-0.114981,-0.343866,-1.133178,6.816695,0.072289,0.047511,0.000000,-0.078582,0.040096,0.000000
3.860000,1.279445,0.674686,-1.422873,1.276639,0.859903,0.004542,-0.490537,0.733507,-0.419590,-0.421044,-0.810466,-0.047061,-0.346635,-1.158567,6.809606,0.071500,0.047916,0.000000,-0.079200,0.040741,0.000000
3.870000,1.292187,0.683322,-1.422849,1.271713,0.867197,0.000345,-0.494765,0.725342,-0.419718,-0.424568,-0.822648,0.021571,-0.354621,-1.244696,6.870318,0.070705,0.048328,0.000000,-0.079916,0.041405,0.000000
3.880000,1.304879,0.692030,-1.422866,1.266744,0.874409,-0.003850,-0.499028,0.717055,-0.419162,-0.428064,-0.834664,0.089374,-0.344211,-1.157017,6.686293,0.069902,0.048746,0.000000,-0.080637,0.042070,0.000000
3.890000,1.317521,0.700810,-1.422926,1.261732,0.881538,-0.008036,-0.503326,0.708650,-0.417934,-0.431515,-0.846442,0.156128,-0.349227,-1.231094,6.705902,0.069092,0.049171,0.000000,-0.081358,0.042735,-0.000000
3.900000,1.330113,0.709660,-1.423027,1.256677,0.888582,-0.012206,-0.507659,0.700123,-0.416038,-0.435016,-0.858996,0.223066,-0.347410,-1.246208,6.635066,0.068274,0.049603,0.000000,-0.082169,0.043414,0.000000
3.910000,1.342655,0.718581,-1.423170,1.251579,0.895540,-0.016354,-0.512027,0.691471,-0.413478,-0.438599,-0.871335,0.288793,-0.347493,-1.256597,6.546883,0.067448,0.050042,0.000000,-0.082985,0.044105,-0.000000
3.920000,1.355145,0.727571,-1.423354,1.246437,0.902411,-0.020474,-0.516429,0.682693,-0.410262,-0.441776,-0.884449,0.354299,-0.307636,-1.330949,6.515048,0.066614,0.050487,0.000000,-0.083894,0.044763,-0.000000
3.930000,1.367583,0.736629,-1.423579,1.241250,0.909193,-0.024557,-0.520863,0.673784,-0.406397,-0.445167,-0.897212,0.418271,-0.371006,-1.220087,6.275748,0.065771,0.050939,0.000000,-0.084795,0.045444,0.000000
3.940000,1.379970,0.745755,-1.423845,1.236019,0.915886,-0.028599,-0.525333,0.664751,-0.401903,-0.448788,-0.909545,0.480513,-0.332675,-1.281205,6.207544,0.064918,0.051398,0.000000,-0.085683,0.046148,0.000000
3.950000,1.392304,0.754946,-1.424151,1.230743,0.922488,-0.032593,-0.529837,0.655590,-0.396789,-0.451989,-0.922526,0.542058,-0.327249,-1.279551,6.062335,0.064057,0.051864,0.000000,-0.086655,0.046817,-0.000000
3.960000,1.404584,0.764204,-1.424497,1.225422,0.928998,-0.036533,-0.534373,0.646301,-0.391068,-0.455072,-0.935231,0.601748,-0.316004,-1.275619,5.903042,0.063185,0.052336,0.000000,-0.087629,0.047475,-0.000000
3.970000,1.416812,0.773526,-1.424881,1.220056,0.935414,-0.040413,-0.538940,0.636884,-0.384757,-0.458550,-0.948163,0.660349,-0.353325,-1.296065,5.786370,0.062304,0.052815,0.000000,-0.088649,0.048175,0.000000
3.980000,1.428985,0.782912,-1.425305,1.214644,0.941735,-0.044226,-0.543542,0.627339,-0.377868,-0.461588,-0.960846,0.716832,-0.253272,-1.239619,5.507432,0.061412,0.053301,0.000000,-0.089674,0.048830,0.000000
3.990000,1.441105,0.792361,-1.425766,1.209185,0.947960,-0.047968,-0.548170,0.617669,-0.370428,-0.464136,-0.973232,0.771040,-0.282318,-1.251475,5.361216,0.060510,0.053794,0.000000,-0.090700,0.049435,0.000000
4.000000,1.453169,0.801871,-1.426264,1.203680,0.954088,-0.051633,-0.552826,0.607874,-0.362452,-0.467009,-0.985749,0.823771,-0.265643,-1.236773,5.154749,0.059598,0.054292,0.000000,-0.091765,0.050073,-0.000000
4.010000,1.465178,0.811442,-1.426798,1.198128,0.960117,-0.055216,-0.557509,0.597955,-0.353961,-0.469536,-0.997876,0.874141,-0.248317,-1.217102,4.937695,0.058675,0.054797,0.000000,-0.092822,0.050674,0.000000
4.020000,1.477131,0.821073,-1.427368,1.192530,0.966047,-0.058711,-0.562217,0.587914,-0.344975,-0.472052,-1.010349,0.922678,-0.246241,-1.249121,4.748596,0.057741,0.055307,0.000000,-0.093939,0.051272,0.000000
4.030000,1.489028,0.830763,-1.427972,1.186884,0.971875,-0.062114,-0.566949,0.577750,-0.335516,-0.474278,-1.022263,0.968674,-0.198481,-1.132483,4.448442,0.056797,0.055824,0.000000,-0.095032,0.051837,0.000000
4.040000,1.500869,0.840510,-1.428610,1.181191,0.977601,-0.065420,-0.571701,0.567471,-0.325611,-0.476191,-1.033559,1.012014,-0.192610,-1.154792,4.237924,0.055841,0.056346,0.000000,-0.096095,0.052365,0.000000
4.050000,1.512652,0.850314,-1.429280,1.175450,0.983224,-0.068624,-0.576473,0.557078,-0.315282,-0.478052,-1.045114,1.053245,-0.171037,-1.127584,3.986903,0.054874,0.056873,0.000000,-0.097210,0.052885,0.000000
4.060000,1.524378,0.860174,-1.429982,1.169661,0.988742,-0.071724,-0.581262,0.546571,-0.304555,-0.479781,-1.056168,1.091779,-0.151834,-1.099071,3.728929,0.053897,0.057405,0.000000,-0.098305,0.053384,0.000000
4.070000,1.536045,0.870089,-1.430714,1.163825,0.994155,-0.074714,-0.586066,0.535954,-0.293454,-0.480875,-1.067239,1.127897,-0.089038,-1.099440,3.483835,0.052908,0.057942,0.000000,-0.099429,0.053814,-0.000000
4.080000,1.547654,0.880057,-1.431476,1.157940,0.999461,-0.077592,-0.590880,0.525228,-0.282006,-0.482025,-1.077829,1.161231,-0.141501,-1.018013,3.181946,0.051908,0.058483,0.000000,-0.100533,0.054241,0.000000
4.090000,1.559204,0.890078,-1.432266,1.152007,1.004659,-0.080353,-0.595707,0.514399,-0.270239,-0.483253,-1.087912,1.191719,-0.081520,-1.014151,2.924975,0.050898,0.059028,0.000000,-0.101616,0.054665,-0.000000
4.100000,1.570694,0.900150,-1.433082,1.146026,1.009749,-0.082996,-0.600543,0.503470,-0.258180,-0.483842,-1.097979,1.219634,-0.058457,-0.983744,2.647457,0.049876,0.059577,0.000000,-0.102722,0.055018,-0.000000
4.110000,1.582124,0.910272,-1.433925,1.139996,1.014728,-0.085516,-0.605383,0.492441,-0.245856,-0.484225,-1.107768,1.244702,-0.032101,-0.956511,2.366873,0.048843,0.060129,0.000000,-0.103827,0.055338,-0.000000
4.120000,1.593494,0.920444,-1.434792,1.133918,1.019597,-0.087912,-0.610227,0.481317,-0.233296,-0.484625,-1.116949,1.266962,-0.032888,-0.896940,2.084705,0.047800,0.060685,0.000000,-0.104896,0.055649,0.000000
4.130000,1.604802,0.930664,-1.435683,1.127792,1.024354,-0.090181,-0.615074,0.470102,-0.220526,-0.484570,-1.126068,1.286387,0.044418,-0.927558,1.799947,0.046745,0.061244,0.000000,-0.105983,0.055902,0.000000
4.140000,1.616049,0.940931,-1.436596,1.121617,1.028999,-0.092322,-0.619917,0.458795,-0.207577,-0.484033,-1.135158,1.302963,0.048267,-0.873328,1.515383,0.045680,0.061804,0.000000,-0.107090,0.056094,-0.000000
4.150000,1.627234,0.951243,-1.437529,1.115393,1.033530,-0.094332,-0.624755,0.447401,-0.194477,-0.483475,-1.143687,1.316691,0.078180,-0.849732,1.230335,0.044604,0.062367,0.000000,-0.108163,0.056269,0.000000
4.160000,1.638357,0.961601,-1.438482,1.109121,1.037947,-0.096211,-0.629585,0.435921,-0.181253,-0.482545,-1.152149,1.327623,0.107803,-0.828093,0.947038,0.043516,0.062930,0.000000,-0.109249,0.056392,0.000000
4.170000,1.649417,0.972002,-1.439453,1.102802,1.042248,-0.097957,-0.634405,0.424360,-0.167934,-0.481319,-1.160118,1.335552,0.137597,-0.780313,0.647892,0.042419,0.063495,0.000000,-0.110307,0.056469,-0.000000
4.180000,1.660413,0.982445,-1.440440,1.096433,1.046434,-0.099569,-0.639211,0.412719,-0.154551,-0.479786,-1.168064,1.340776,0.169122,-0.809783,0.397564,0.041310,0.064061,0.000000,-0.111380,0.056500,-0.000000
4.190000,1.671345,0.992930,-1.441444,1.090017,1.050502,-0.101048,-0.643999,0.400998,-0.141128,-0.477940,-1.176028,1.343331,0.200011,-0.768778,0.104930,0.040191,0.064626,0.000000,-0.112471,0.056483,0.000000
4.200000,1.682213,1.003455,-1.442461,1.083554,1.054453,-0.102392,-0.648768,0.389200,-0.127694,-0.475784,-1.183571,1.342970,0.231618,-0.754575,-0.168291,0.039061,0.065191,0.000000,-0.113535,0.056415,-0.000000
4.210000,1.693016,1.014019,-1.443491,1.077042,1.058286,-0.103602,-0.653514,0.377326,-0.114277,-0.473309,-1.191169,1.340035,0.263625,-0.744065,-0.436222,0.037920,0.065755,0.000000,-0.114620,0.056299,0.000000
4.220000,1.703754,1.024620,-1.444533,1.070483,1.062000,-0.104678,-0.658233,0.365379,-0.100904,-0.470509,-1.198262,1.334094,0.296316,-0.695718,-0.733407,0.036769,0.066318,0.000000,-0.115667,0.056128,0.000000
4.230000,1.714426,1.035258,-1.445584,1.063878,1.065593,-0.105620,-0.662923,0.353360,-0.087603,-0.467386,-1.205529,1.325756,0.328241,-0.758725,-0.932632,0.035607,0.066878,0.000000,-0.116742,0.055907,0.000000
4.240000,1.725031,1.045932,-1.446645,1.057225,1.069067,-0.106430,-0.667580,0.341267,-0.074396,-0.463940,-1.213023,1.315104,0.361264,-0.719432,-1.214621,0.034434,0.067436,0.000000,-0.117849,0.055636,0.000000
4.250000,1.735570,1.056639,-1.447712,1.050526,1.072418,-0.107108,-0.672201,0.329102,-0.061310,-0.460160,-1.220106,1.301636,0.394324,-0.718347,-1.459842,0.033250,0.067991,0.000000,-0.118923,0.055308,-0.000000
4.260000,1.746042,1.067380,-1.448786,1.043781,1.075648,-0.107657,-0.676782,0.316864,-0.048370,-0.456054,-1.227412,1.285978,0.427324,-0.720803,-1.696051,0.032055,0.068543,0.000000,-0.120027,0.054928,0.000000
4.270000,1.756445,1.078152,-1.449865,1.036991,1.078755,-0.108076,-0.681321,0.304555,-0.035601,-0.451609,-1.234324,1.267504,0.461173,-0.683734,-1.972530,0.030850,0.069090,0.000000,-0.121097,0.054491,-0.000000
4.280000,1.766781,1.088954,-1.450947,1.030155,1.081739,-0.108369,-0.685813,0.292176,-0.023027,-0.446839,-1.241551,1.247078,0.492791,-0.762849,-2.110576,0.029633,0.069633,0.000000,-0.122202,0.054002,-0.000000
4.290000,1.777048,1.099786,-1.452032,1.023274,1.084599,-0.108538,-0.690257,0.279723,-0.010665,-0.441745,-1.249148,1.224818,0.526445,-0.734957,-2.365191,0.028405,0.070171,0.000000,-0.123346,0.053461,0.000000
4.300000,1.787247,1.110646,-1.453118,1.016350,1.087333,-0.108583,-0.694647,0.267195,0.001461,-0.436313,-1.256442,1.200023,0.559351,-0.746320,-2.567617,0.027166,0.070703,0.000000,-0.124462,0.052863,-0.000000
4.310000,1.797375,1.121533,-1.454203,1.009382,1.089942,-0.108509,-0.698982,0.254593,0.013330,-0.430562,-1.264071,1.173538,0.591944,-0.760579,-2.758872,0.025916,0.071228,0.000000,-0.125611,0.052213,-0.000000
4.320000,1.807434,1.132444,-1.455287,1.002370,1.092425,-0.108318,-0.703257,0.241915,0.024923,-0.424465,-1.271483,1.144593,0.626278,-0.740788,-2.998232,0.024654,0.071747,0.000000,-0.126737,0.051504,0.000000
4.330000,1.817423,1.143381,-1.456369,0.995317,1.094780,-0.108012,-0.707470,0.229161,0.036218,-0.418058,-1.279285,1.114239,0.655043,-0.820349,-3.069847,0.023381,0.072258,0.000000,-0.127898,0.050746,0.000000
4.340000,1.827340,1.154340,-1.457447,0.988221,1.097008,-0.107594,-0.711617,0.216327,0.047204,-0.411345,-1.287518,1.082622,0.688643,-0.807717,-3.282182,0.022096,0.072762,0.000000,-0.129098,0.049939,0.000000
4.350000,1.837187,1.165320,-1.458521,0.981085,1.099107,-0.107069,-0.715696,0.203412,0.057862,-0.404297,-1.295605,1.048890,0.719997,-0.828462,-3.432136,0.020799,0.073257,0.000000,-0.130278,0.049076,0.000000
4.360000,1.846962,1.176321,-1.459588,0.973908,1.101076,-0.106438,-0.719702,0.190414,0.068178,-0.396950,-1.304066,1.014043,0.750920,-0.850627,-3.569180,0.019490,0.073744,0.000000,-0.131489,0.048165,-0.000000
4.370000,1.856665,1.187341,-1.460649,0.966691,1.102915,-0.105706,-0.723634,0.177331,0.078136,-0.389266,-1.312497,0.977234,0.784332,-0.848787,-3.758082,0.018170,0.074221,0.000000,-0.132690,0.047197,0.000000
4.380000,1.866296,1.198379,-1.461702,0.959435,1.104622,-0.104877,-0.727487,0.164162,0.087720,-0.381297,-1.321316,0.939608,0.809285,-0.915382,-3.764180,0.016837,0.074688,0.000000,-0.133920,0.046185,-0.000000
4.390000,1.875853,1.209433,-1.462746,0.952141,1.106198,-0.103953,-0.731259,0.150903,0.096926,-0.373051,-1.330545,0.901326,0.841371,-0.917414,-3.923328,0.015491,0.075144,0.000000,-0.135181,0.045132,-0.000000
4.400000,1.885338,1.220503,-1.463781,0.944810,1.107640,-0.102940,-0.734947,0.137552,0.105741,-0.364485,-1.339775,0.861460,0.870262,-0.941712,-4.014750,0.014133,0.075590,0.000000,-0.136431,0.044025,0.000000
4.410000,1.894750,1.231586,-1.464805,0.937443,1.108948,-0.101840,-0.738547,0.124106,0.114154,-0.355650,-1.349342,0.821081,0.898456,-0.965811,-4.092799,0.012762,0.076025,0.000000,-0.137703,0.042879,0.000000
4.420000,1.904087,1.242681,-1.465817,0.930040,1.110122,-0.100658,-0.742058,0.110565,0.122158,-0.346501,-1.359036,0.779335,0.929515,-0.978569,-4.221911,0.011379,0.076448,0.000000,-0.138976,0.041681,0.000000
4.430000,1.913350,1.253788,-1.466818,0.922602,1.111159,-0.099398,-0.745477,0.096925,0.129740,-0.337100,-1.369031,0.737366,0.950436,-1.020517,-4.168883,0.009983,0.076858,0.000000,-0.140264,0.040448,0.000000
4.440000,1.922539,1.264904,-1.467805,0.915130,1.112060,-0.098065,-0.748800,0.083183,0.136905,-0.327458,-1.379327,0.695336,0.979759,-1.032834,-4.268011,0.008574,0.077256,0.000000,-0.141568,0.039181,0.000000
4.450000,1.931653,1.276029,-1.468779,0.907626,1.112823,-0.096661,-0.752025,0.069338,0.143643,-0.317524,-1.389736,0.652327,1.005213,-1.054001,-4.299485,0.007151,0.077642,0.000000,-0.142868,0.037868,-0.000000
4.460000,1.940691,1.287160,-1.469738,0.900090,1.113446,-0.095193,-0.755149,0.055387,0.149952,-0.307357,-1.400363,0.609381,1.029858,-1.072964,-4.318328,0.005716,0.078014,0.000000,-0.144174,0.036525,-0.000000
4.470000,1.949654,1.298297,-1.470683,0.892524,1.113930,-0.093664,-0.758171,0.041330,0.155828,-0.296912,-1.411207,0.565717,1.057317,-1.093738,-4.382953,0.004268,0.078372,0.000000,-0.145486,0.035140,0.000000
4.480000,1.958542,1.309438,-1.471611,0.884927,1.114273,-0.092078,-0.761087,0.027163,0.161268,-0.286253,-1.422192,0.522382,1.074255,-1.102868,-4.281375,0.002806,0.078716,0.000000,-0.146795,0.033728,0.000000
4.490000,1.967353,1.320582,-1.472524,0.877302,1.114473,-0.090440,-0.763895,0.012886,0.166278,-0.275391,-1.433294,0.479527,1.099764,-1.118994,-4.317692,0.001332,0.079047,0.000000,-0.148097,0.032293,0.000000
4.500000,1.976088,1.331727,-1.473420,0.869650,1.114530,-0.088754,-0.766594,-0.001504,0.170856,-0.264277,-1.444547,0.436313,1.121178,-1.129335,-4.292917,-0.000155,0.079362,0.000000,-0.149398,0.030822,0.000000
4.510000,1.984746,1.342872,-1.474299,0.861971,1.114442,-0.087024,-0.769180,-0.016005,0.175006,-0.252971,-1.455832,0.393682,1.141711,-1.136048,-4.256630,-0.001656,0.079663,0.000000,-0.150683,0.029330,0.000000
4.520000,1.993327,1.354015,-1.475160,0.854266,1.114209,-0.085255,-0.771653,-0.030621,0.178729,-0.241429,-1.467338,0.350984,1.164711,-1.156126,-4.257071,-0.003169,0.079949,0.000000,-0.151972,0.027808,0.000000
4.530000,2.001831,1.365156,-1.476004,0.846538,1.113830,-0.083451,-0.774008,-0.045352,0.182029,-0.229716,-1.478765,0.309084,1.177741,-1.128419,-4.120514,-0.004695,0.080219,0.000000,-0.153234,0.026270,0.000000
4.540000,2.010258,1.376292,-1.476829,0.838787,1.113302,-0.081616,-0.776246,-0.060196,0.184914,-0.217843,-1.490068,0.268113,1.198500,-1.140102,-4.096668,-0.006234,0.080474,0.000000,-0.154465,0.024718,0.000000
4.550000,2.018607,1.387421,-1.477636,0.831013,1.112625,-0.079754,-0.778364,-0.075154,0.187391,-0.205759,-1.501477,0.227389,1.215778,-1.133076,-4.022112,-0.007785,0.080713,0.000000,-0.155688,0.023142,0.000000
4.560000,2.026878,1.398544,-1.478424,0.823220,1.111799,-0.077869,-0.780361,-0.090225,0.189466,-0.193528,-1.512683,0.187669,1.231878,-1.121353,-3.938409,-0.009347,0.080937,0.000000,-0.156872,0.021556,0.000000
4.570000,2.035071,1.409657,-1.479193,0.815407,1.110821,-0.075966,-0.782234,-0.105408,0.191146,-0.181110,-1.524018,0.148485,1.250016,-1.131512,-3.879719,-0.010922,0.081144,0.000000,-0.158051,0.019951,-0.000000
4.580000,2.043186,1.420759,-1.479943,0.807575,1.109690,-0.074048,-0.783983,-0.120704,0.192440,-0.168563,-1.535016,0.110464,1.259270,-1.066905,-3.722754,-0.012508,0.081336,0.000000,-0.159178,0.018339,-0.000000
4.590000,2.051222,1.431850,-1.480674,0.799727,1.108406,-0.072119,-0.785605,-0.136107,0.193360,-0.155897,-1.545615,0.073705,1.275282,-1.065760,-3.645286,-0.014105,0.081511,0.000000,-0.160246,0.016724,-0.000000
4.600000,2.059180,1.442927,-1.481386,0.791864,1.106968,-0.070182,-0.787100,-0.151616,0.193916,-0.143072,-1.556196,0.037733,1.287822,-1.036590,-3.530921,-0.015713,0.081670,0.000000,-0.161296,0.015097,0.000000
4.610000,2.067060,1.453989,-1.482078,0.783986,1.105373,-0.068241,-0.788466,-0.167229,0.194119,-0.130124,-1.566309,0.003071,1.299734,-1.001959,-3.410240,-0.017331,0.081813,0.000000,-0.162281,0.013466,0.000000
4.620000,2.074860,1.465034,-1.482751,0.776095,1.103623,-0.066301,-0.789702,-0.182943,0.193981,-0.117098,-1.576372,-0.030540,1.307247,-0.993689,-3.301544,-0.018959,0.081940,0.000000,-0.163245,0.011835,0.000000
4.630000,2.082582,1.476061,-1.483404,0.768192,1.101714,-0.064363,-0.790808,-0.198754,0.193513,-0.103945,-1.585827,-0.062745,1.323305,-0.895968,-3.138273,-0.020596,0.082050,0.000000,-0.164131,0.010201,0.000000
4.640000,2.090224,1.487068,-1.484038,0.760279,1.099647,-0.062431,-0.791781,-0.214657,0.192731,-0.090671,-1.594602,-0.093478,1.329337,-0.874427,-3.016910,-0.022241,0.082144,0.000000,-0.164934,0.008568,0.000000
4.650000,2.097787,1.498053,-1.484653,0.752357,1.097421,-0.060509,-0.792621,-0.230646,0.191647,-0.077346,-1.603167,-0.122990,1.337516,-0.820704,-2.875092,-0.023894,0.082221,0.000000,-0.165701,0.006939,0.000000
4.660000,2.105271,1.509016,-1.485248,0.744427,1.095034,-0.058599,-0.793328,-0.246717,0.190276,-0.063976,-1.610992,-0.151007,1.343794,-0.760828,-2.729503,-0.025555,0.082283,0.000000,-0.166380,0.005318,0.000000
4.670000,2.112676,1.519953,-1.485825,0.736491,1.092486,-0.056705,-0.793900,-0.262865,0.188632,-0.050403,-1.618526,-0.177583,1.363295,-0.728340,-2.583445,-0.027222,0.082328,0.000000,-0.167018,0.003689,-0.000000
4.680000,2.120001,1.530865,-1.486382,0.728550,1.089776,-0.054828,-0.794336,-0.279085,0.186729,-0.036867,-1.625189,-0.202632,1.343479,-0.602948,-2.425834,-0.028895,0.082357,0.000000,-0.167555,0.002078,-0.000000
4.690000,2.127247,1.541748,-1.486921,0.720605,1.086904,-0.052971,-0.794637,-0.295366,0.184584,-0.023388,-1.630908,-0.226124,1.359754,-0.557074,-2.273786,-0.030572,0.082369,0.000000,-0.167986,0.000487,-0.000000
4.700000,2.134413,1.552602,-1.487442,0.712657,1.083869,-0.051137,-0.794803,-0.311702,0.182212,-0.009740,-1.636170,-0.248085,1.362411,-0.477505,-2.116742,-0.032254,0.082366,0.000000,-0.168363,-0.001107,0.000000
4.710000,2.141500,1.563425,-1.487944,0.704709,1.080670,-0.049327,-0.794832,-0.328086,0.179628,0.003915,-1.640447,-0.268494,1.365207,-0.392452,-1.958929,-0.033939,0.082347,0.000000,-0.168630,-0.002688,-0.000000
4.720000,2.148507,1.574215,-1.488428,0.696761,1.077307,-0.047545,-0.794725,-0.344509,0.176848,0.017530,-1.644144,-0.287205,1.360857,-0.331297,-1.788875,-0.035627,0.082313,0.000000,-0.168833,-0.004248,0.000000
4.730000,2.155435,1.584971,-1.488895,0.688815,1.073780,-0.045791,-0.794481,-0.360965,0.173889,0.031199,-1.646745,-0.304391,1.373033,-0.187611,-1.648265,-0.037316,0.082262,0.000000,-0.168918,-0.005799,-0.000000
4.740000,2.162283,1.595690,-1.489344,0.680872,1.070088,-0.044068,-0.794101,-0.377440,0.170765,0.044921,-1.648182,-0.320053,1.367955,-0.114032,-1.478379,-0.039005,0.082197,0.000000,-0.168880,-0.007340,0.000000
4.750000,2.169052,1.606372,-1.489777,0.672933,1.066231,-0.042376,-0.793583,-0.393926,0.167494,0.058578,-1.648887,-0.334013,1.367322,-0.010838,-1.319050,-0.040693,0.082115,0.000000,-0.168765,-0.008858,-0.000000
4.760000,2.175742,1.617014,-1.490192,0.665001,1.062209,-0.040718,-0.792929,-0.410414,0.164090,0.072265,-1.648388,-0.346473,1.366357,0.097433,-1.161154,-0.042380,0.082019,0.000000,-0.168525,-0.010365,-0.000000
4.770000,2.182352,1.627616,-1.490591,0.657075,1.058023,-0.039095,-0.792138,-0.426892,0.160570,0.085871,-1.647053,-0.357131,1.358205,0.183692,-0.982224,-0.044063,0.081908,0.000000,-0.168201,-0.011846,-0.000000
4.780000,2.188884,1.638174,-1.490974,0.649158,1.053671,-0.037507,-0.791212,-0.443350,0.156952,0.099496,-1.644416,-0.366364,1.366677,0.344916,-0.865081,-0.045743,0.081782,0.000000,-0.167744,-0.013315,0.000000
4.790000,2.195336,1.648689,-1.491341,0.641252,1.049156,-0.035956,-0.790148,-0.459775,0.153248,0.113135,-1.640417,-0.374207,1.357618,0.441739,-0.692179,-0.047418,0.081642,0.000000,-0.167149,-0.014771,-0.000000
4.800000,2.201709,1.659157,-1.491693,0.633356,1.044476,-0.034442,-0.788949,-0.476156,0.149474,0.126674,-1.635452,-0.380316,1.353433,0.565450,-0.541677,-0.049086,0.081486,0.000000,-0.166460,-0.016200,0.000000
4.810000,2.208003,1.669578,-1.492030,0.625473,1.039633,-0.032967,-0.787615,-0.492480,0.145646,0.140147,-1.629129,-0.385064,1.347716,0.692363,-0.393901,-0.050746,0.081317,0.000000,-0.165636,-0.017609,-0.000000
4.820000,2.214218,1.679949,-1.492353,0.617604,1.034627,-0.031530,-0.786146,-0.508735,0.141779,0.153694,-1.621664,-0.388053,1.354441,0.808568,-0.219905,-0.052398,0.081134,0.000000,-0.164703,-0.019008,0.000000
4.830000,2.220355,1.690269,-1.492661,0.609751,1.029458,-0.030131,-0.784542,-0.524908,0.137889,0.167088,-1.612796,-0.389800,1.324106,0.965665,-0.130561,-0.054040,0.080937,0.000000,-0.163632,-0.020380,0.000000
4.840000,2.226413,1.700538,-1.492955,0.601914,1.024129,-0.028772,-0.782805,-0.540986,0.133986,0.180314,-1.602488,-0.390363,1.327924,1.089128,0.032900,-0.055670,0.080726,0.000000,-0.162421,-0.021723,0.000000
4.850000,2.232393,1.710752,-1.493237,0.594095,1.018639,-0.027451,-0.780935,-0.556954,0.130087,0.193584,-1.590945,-0.389283,1.319170,1.227356,0.166156,-0.057288,0.080501,0.000000,-0.161094,-0.023055,-0.000000
4.860000,2.238295,1.720910,-1.493505,0.586295,1.012990,-0.026170,-0.778933,-0.572800,0.126204,0.206739,-1.577946,-0.387073,1.310373,1.368016,0.293765,-0.058892,0.080264,0.000000,-0.159627,-0.024364,-0.000000
4.870000,2.244119,1.731011,-1.493760,0.578517,1.007184,-0.024927,-0.776801,-0.588508,0.122351,0.219777,-1.563622,-0.383252,1.298469,1.501704,0.451637,-0.060480,0.080013,0.000000,-0.158037,-0.025646,-0.000000
4.880000,2.249866,1.741053,-1.494003,0.570760,1.001221,-0.023723,-0.774538,-0.604067,0.118542,0.232734,-1.547807,-0.378436,1.292705,1.661654,0.510086,-0.062052,0.079750,0.000000,-0.156305,-0.026911,-0.000000
4.890000,2.255535,1.751035,-1.494235,0.563026,0.995103,-0.022556,-0.772146,-0.619460,0.114786,0.245604,-1.530478,-0.372701,1.279895,1.799695,0.654330,-0.063606,0.079474,0.000000,-0.154429,-0.028158,0.000000
4.900000,2.261126,1.760955,-1.494455,0.555317,0.988832,-0.021427,-0.769627,-0.634672,0.111094,0.258341,-1.511771,-0.365522,1.268774,1.946847,0.762401,-0.065140,0.079186,0.000000,-0.152427,-0.029379,0.000000
4.910000,2.266641,1.770811,-1.494663,0.547634,0.982410,-0.020334,-0.766980,-0.649690,0.107478,0.270964,-1.491549,-0.357482,1.256880,2.095124,0.864032,-0.066654,0.078886,0.000000,-0.150283,-0.030580,0.000000
4.920000,2.272079,1.780602,-1.494861,0.539978,0.975839,-0.019277,-0.764208,-0.664498,0.103949,0.283489,-1.469890,-0.348083,1.246869,2.239353,0.996121,-0.068145,0.078573,0.000000,-0.148007,-0.031760,-0.000000
4.930000,2.277441,1.790327,-1.495049,0.532351,0.969121,-0.018255,-0.761311,-0.679083,0.100518,0.295873,-1.446708,-0.337971,1.229911,2.397288,1.024656,-0.069613,0.078249,0.000000,-0.145589,-0.032919,-0.000000
4.940000,2.282726,1.799984,-1.495227,0.524752,0.962258,-0.017266,-0.758291,-0.693427,0.097191,0.308111,-1.421994,-0.327230,1.218706,2.543058,1.141389,-0.071057,0.077913,0.000000,-0.143027,-0.034058,-0.000000
4.950000,2.287936,1.809572,-1.495394,0.517185,0.955253,-0.016311,-0.755149,-0.707518,0.093978,0.320237,-1.395834,-0.315326,1.205068,2.692418,1.219957,-0.072474,0.077566,0.000000,-0.140334,-0.035176,-0.000000
4.960000,2.293070,1.819089,-1.495553,0.509650,0.948109,-0.015386,-0.751886,-0.721339,0.090886,0.332220,-1.368182,-0.302855,1.191117,2.841346,1.291735,-0.073863,0.077208,0.000000,-0.137502,-0.036276,-0.000000
4.970000,2.298129,1.828534,-1.495702,0.502148,0.940827,-0.014492,-0.748505,-0.734876,0.087925,0.344055,-1.338976,-0.289340,1.176178,2.996344,1.392165,-0.075223,0.076839,0.000000,-0.134529,-0.037352,0.000000
4.980000,2.303113,1.837905,-1.495843,0.494680,0.933412,-0.013627,-0.745006,-0.748114,0.085101,0.355749,-1.308330,-0.275411,1.162684,3.132612,1.392192,-0.076553,0.076459,0.000000,-0.131422,-0.038412,0.000000
4.990000,2.308023,1.847201,-1.495975,0.487248,0.925866,-0.012790,-0.741390,-0.761038,0.082417,0.367301,-1.276258,-0.261152,1.147262,3.284971,1.476682,-0.077851,0.076068,0.000000,-0.128182,-0.039455,-0.000000
5.000000,2.312858,1.856422,-1.496099,0.479853,0.918192,-0.011979,-0.737660,-0.773634,0.079881,0.378695,-1.242661,-0.246054,1.132013,3.430507,1.524038,-0.079116,0.075667,0.000000,-0.124802,-0.040477,0.000000
5.010000,2.317620,1.865565,-1.496215,0.472495,0.910395,-0.011192,-0.733817,-0.785887,0.077497,0.389939,-1.207655,-0.230688,1.116616,3.574165,1.564639,-0.080347,0.075256,0.000000,-0.121291,-0.041482,-0.000000
5.020000,2.322308,1.874629,-1.496323,0.465177,0.902476,-0.010428,-0.729862,-0.797782,0.075270,0.401024,-1.171148,-0.214629,1.100550,3.723288,1.630101,-0.081542,0.074835,0.000000,-0.117643,-0.042467,0.000000
5.030000,2.326923,1.883614,-1.496423,0.457898,0.894440,-0.009686,-0.725797,-0.809305,0.073205,0.411955,-1.133274,-0.198444,1.085577,3.850908,1.605464,-0.082699,0.074404,0.000000,-0.113867,-0.043437,0.000000
5.040000,2.331466,1.892518,-1.496516,0.450661,0.886291,-0.008964,-0.721623,-0.820443,0.071301,0.422730,-1.094061,-0.182215,1.069244,3.995053,1.655598,-0.083818,0.073963,0.000000,-0.109964,-0.044393,0.000000
5.050000,2.335937,1.901339,-1.496603,0.443466,0.878033,-0.008259,-0.717343,-0.831181,0.069562,0.433342,-1.053414,-0.165489,1.053224,4.130220,1.672393,-0.084898,0.073513,0.000000,-0.105928,-0.045330,-0.000000
5.060000,2.340336,1.910078,-1.496682,0.436315,0.869669,-0.007572,-0.712957,-0.841507,0.067991,0.443798,-1.011468,-0.148778,1.037112,4.262994,1.682709,-0.085937,0.073054,0.000000,-0.101770,-0.046253,-0.000000
5.070000,2.344663,1.918732,-1.496754,0.429207,0.861204,-0.006899,-0.708468,-0.851406,0.066588,0.454072,-0.968114,-0.131728,1.018760,4.402217,1.713026,-0.086933,0.072585,0.000000,-0.097481,-0.047157,0.000000
5.080000,2.348920,1.927302,-1.496820,0.422146,0.852642,-0.006239,-0.703876,-0.860865,0.065356,0.464198,-0.923538,-0.114815,1.006417,4.512390,1.668282,-0.087886,0.072107,0.000000,-0.093074,-0.048049,-0.000000
5.090000,2.353106,1.935785,-1.496879,0.415130,0.843988,-0.005591,-0.699184,-0.869873,0.064291,0.474176,-0.877777,-0.098112,0.988119,4.644326,1.684801,-0.088794,0.071620,0.000000,-0.088553,-0.048931,-0.000000
5.100000,2.357223,1.944181,-1.496932,0.408162,0.835246,-0.004953,-0.694393,-0.878416,0.063394,0.483972,-0.830705,-0.081249,0.971984,4.764346,1.673456,-0.089656,0.071124,0.000000,-0.083907,-0.049795,-0.000000
5.110000,2.361270,1.952490,-1.496978,0.401243,0.826421,-0.004323,-0.689505,-0.886483,0.062665,0.493620,-0.782501,-0.064646,0.955886,4.880567,1.656621,-0.090472,0.070620,0.000000,-0.079152,-0.050648,0.000000
5.120000,2.365248,1.960709,-1.497018,0.394372,0.817518,-0.003699,-0.684522,-0.894062,0.062102,0.503073,-0.733065,-0.048038,0.936389,5.001537,1.654133,-0.091239,0.070107,0.000000,-0.074277,-0.051484,-0.000000
5.130000,2.369157,1.968840,-1.497052,0.387553,0.808542,-0.003080,-0.679444,-0.901141,0.061703,0.512385,-0.682576,-0.031789,0.926217,5.095390,1.594533,-0.091957,0.069586,0.000000,-0.069298,-0.052312,-0.000000
5.140000,2.372999,1.976880,-1.497080,0.380784,0.799497,-0.002465,-0.674274,-0.907710,0.061464,0.521561,-0.631081,-0.015960,0.907214,5.207389,1.580600,-0.092625,0.069057,0.000000,-0.064218,-0.053131,-0.000000
5.150000,2.376773,1.984829,-1.497101,0.374067,0.790389,-0.001850,-0.669014,-0.913759,0.061384,0.530543,-0.578482,-0.000276,0.891171,5.307408,1.545341,-0.093241,0.068519,0.000000,-0.059029,-0.053934,-0.000000
5.160000,2.380481,1.992688,-1.497117,0.367404,0.781224,-0.001236,-0.663664,-0.919277,0.061457,0.539385,-0.524941,0.014950,0.875353,5.402966,1.505749,-0.093805,0.067973,0.000000,-0.053744,-0.054729,-0.000000
5.170000,2.384121,2.000454,-1.497126,0.360794,0.772006,-0.000621,-0.658227,-0.924254,0.061682,0.548034,-0.470411,0.029888,0.856116,5.499448,1.474683,-0.094316,0.067420,0.000000,-0.048359,-0.055509,-0.000000
5.180000,2.387697,2.008128,-1.497129,0.354240,0.762740,-0.000002,-0.652704,-0.928682,0.062053,0.556546,-0.415028,0.044296,0.846428,5.576106,1.406137,-0.094772,0.066858,0.000000,-0.042885,-0.056282,0.000000
5.190000,2.391206,2.015708,-1.497126,0.347741,0.753434,0.000621,-0.647096,-0.932552,0.062566,0.564926,-0.358846,0.058130,0.827807,5.662344,1.366708,-0.095173,0.066289,0.000000,-0.037326,-0.057049,0.000000
5.200000,2.394652,2.023196,-1.497117,0.341298,0.744091,0.001250,-0.641406,-0.935856,0.063215,0.573115,-0.301826,0.071560,0.812105,5.738304,1.312647,-0.095518,0.065712,0.000000,-0.031679,-0.057801,-0.000000
5.210000,2.398033,2.030590,-1.497101,0.334913,0.734719,0.001885,-0.635634,-0.938586,0.063995,0.581168,-0.244088,0.084390,0.796695,5.809254,1.255845,-0.095806,0.065128,0.000000,-0.025953,-0.058547,0.000000
5.220000,2.401350,2.037890,-1.497079,0.328586,0.725321,0.002530,-0.629783,-0.940736,0.064901,0.589032,-0.185652,0.096695,0.777892,5.876215,1.201843,-0.096037,0.064536,0.000000,-0.020151,-0.059280,0.000000
5.230000,2.404605,2.045097,-1.497050,0.322317,0.715906,0.003184,-0.623854,-0.942297,0.065927,0.596764,-0.126598,0.108358,0.768632,5.933767,1.130217,-0.096209,0.063937,0.000000,-0.014278,-0.060006,-0.000000
5.240000,2.407797,2.052208,-1.497015,0.316109,0.706478,0.003849,-0.617848,-0.943266,0.067066,0.604369,-0.066981,0.119350,0.750557,5.989350,1.070840,-0.096322,0.063330,0.000000,-0.008341,-0.060727,-0.000000
5.250000,2.410927,2.059226,-1.496973,0.309961,0.697042,0.004526,-0.611767,-0.943635,0.068312,0.611783,-0.006838,0.129743,0.734939,6.037658,1.004477,-0.096376,0.062717,0.000000,-0.002341,-0.061434,-0.000000
5.260000,2.413996,2.066149,-1.496925,0.303874,0.687607,0.005215,-0.605613,-0.943401,0.069658,0.619068,0.053752,0.139452,0.719863,6.080008,0.936584,-0.096369,0.062096,0.000000,0.003714,-0.062136,-0.000000
5.270000,2.417005,2.072978,-1.496869,0.297849,0.678177,0.005919,-0.599387,-0.942559,0.071098,0.626159,0.114747,0.148464,0.700549,6.117282,0.866112,-0.096301,0.061468,0.000000,0.009821,-0.062825,0.000000
5.280000,2.419953,2.079713,-1.496806,0.291886,0.668758,0.006638,-0.593090,-0.941105,0.072625,0.633125,0.176065,0.156781,0.692705,6.145238,0.797117,-0.096172,0.060833,0.000000,0.015971,-0.063508,-0.000000
5.290000,2.422843,2.086353,-1.496736,0.285987,0.659356,0.007372,-0.586725,-0.939037,0.074232,0.639968,0.237641,0.164392,0.673724,6.169444,0.724295,-0.095982,0.060192,0.000000,0.022160,-0.064185,0.000000
5.300000,2.425673,2.092900,-1.496659,0.280152,0.649979,0.008122,-0.580292,-0.936352,0.075910,0.646618,0.299425,0.171269,0.658343,6.185667,0.651420,-0.095729,0.059544,0.000000,0.028382,-0.064849,0.000000
5.310000,2.428446,2.099353,-1.496574,0.274381,0.640631,0.008890,-0.573793,-0.933048,0.077655,0.653138,0.361372,0.177447,0.643380,6.196843,0.579112,-0.095414,0.058889,0.000000,0.034633,-0.065507,0.000000
5.320000,2.431161,2.105713,-1.496481,0.268676,0.631320,0.009676,-0.567229,-0.929124,0.079457,0.659475,0.423306,0.182820,0.625390,6.192718,0.498988,-0.095036,0.058228,0.000000,0.040897,-0.066153,-0.000000
5.330000,2.433820,2.111980,-1.496380,0.263037,0.622051,0.010480,-0.560604,-0.924581,0.081309,0.665673,0.485286,0.187503,0.614322,6.202232,0.437778,-0.094596,0.057560,0.000000,0.047179,-0.066790,-0.000000
5.340000,2.436422,2.118154,-1.496271,0.257464,0.612831,0.011302,-0.553916,-0.919418,0.083205,0.671733,0.547246,0.191502,0.596223,6.184430,0.358421,-0.094093,0.056886,0.000000,0.053473,-0.067420,-0.000000
5.350000,2.438969,2.124236,-1.496154,0.251959,0.603665,0.012144,-0.547169,-0.913637,0.085136,0.677613,0.608987,0.194703,0.580539,6.166221,0.285539,-0.093527,0.056206,0.000000,0.059758,-0.068037,0.000000
5.360000,2.441461,2.130227,-1.496028,0.246521,0.594560,0.013005,-0.540365,-0.907239,0.087096,0.683355,0.670534,0.197231,0.564725,6.140168,0.213721,-0.092898,0.055519,0.000000,0.066038,-0.068645,-0.000000
5.370000,2.443900,2.136128,-1.495894,0.241152,0.585522,0.013886,-0.533503,-0.900228,0.089078,0.688877,0.731749,0.198920,0.542684,6.103261,0.130608,-0.092206,0.054827,0.000000,0.072299,-0.069238,-0.000000
5.380000,2.446285,2.141938,-1.495750,0.235851,0.576557,0.014786,-0.526587,-0.892606,0.091073,0.694273,0.792605,0.199977,0.536509,6.066635,0.081045,-0.091452,0.054129,0.000000,0.078537,-0.069821,0.000000
5.390000,2.448617,2.147659,-1.495598,0.230620,0.567672,0.015707,-0.519618,-0.884377,0.093075,0.699544,0.853023,0.200419,0.514431,6.013876,0.001144,-0.090635,0.053425,0.000000,0.084744,-0.070397,0.000000
5.400000,2.450897,2.153292,-1.495436,0.225459,0.558872,0.016648,-0.512597,-0.875547,0.095078,0.704588,0.912869,0.200061,0.497330,5.955502,-0.066458,-0.089757,0.052715,0.000000,0.090907,-0.070955,-0.000000
5.410000,2.453126,2.158837,-1.495265,0.220369,0.550163,0.017609,-0.505527,-0.866122,0.097075,0.709491,0.972091,0.199109,0.479913,5.888391,-0.132219,-0.088817,0.052000,0.000000,0.097019,-0.071502,0.000000
5.420000,2.455305,2.164295,-1.495084,0.215349,0.541551,0.018589,-0.498408,-0.856107,0.099058,0.714153,1.030615,0.197345,0.455613,5.814178,-0.212162,-0.087817,0.051279,0.000000,0.103075,-0.072029,-0.000000
5.430000,2.457434,2.169668,-1.494893,0.210400,0.533043,0.019590,-0.491244,-0.845512,0.101020,0.718671,1.088327,0.195044,0.447956,5.726685,-0.247441,-0.086756,0.050554,0.000000,0.109059,-0.072545,0.000000
5.440000,2.459513,2.174957,-1.494692,0.205524,0.524643,0.020610,-0.484035,-0.834344,0.102957,0.723043,1.145136,0.192236,0.422860,5.634340,-0.322091,-0.085636,0.049823,0.000000,0.114962,-0.073048,0.000000
5.450000,2.461544,2.180162,-1.494481,0.200720,0.516358,0.021649,-0.476784,-0.822613,0.104862,0.727163,1.200978,0.188683,0.403428,5.531416,-0.380313,-0.084457,0.049088,0.000000,0.120779,-0.073529,-0.000000
5.460000,2.463528,2.185284,-1.494259,0.195989,0.508193,0.022707,-0.469493,-0.810328,0.106729,0.731101,1.255751,0.184648,0.382762,5.419327,-0.435982,-0.083221,0.048347,0.000000,0.126497,-0.073994,0.000000
5.470000,2.465464,2.190326,-1.494027,0.191330,0.500153,0.023783,-0.462163,-0.797502,0.108552,0.734804,1.309311,0.179883,0.358940,5.293380,-0.507340,-0.081927,0.047603,0.000000,0.132102,-0.074438,-0.000000
5.480000,2.467355,2.195288,-1.493783,0.186745,0.492244,0.024878,-0.454797,-0.784146,0.110325,0.738302,1.361632,0.174706,0.340492,5.169272,-0.527427,-0.080579,0.046854,0.000000,0.137589,-0.074863,0.000000
5.490000,2.469199,2.200171,-1.493529,0.182234,0.484472,0.025990,-0.447398,-0.770273,0.112045,0.741586,1.412619,0.169154,0.314953,5.024148,-0.591954,-0.079176,0.046101,0.000000,0.142947,-0.075266,-0.000000
5.500000,2.471000,2.204978,-1.493264,0.177798,0.476841,0.027118,-0.439966,-0.755899,0.113706,0.744611,1.462097,0.162955,0.290728,4.872361,-0.637934,-0.077720,0.045344,0.000000,0.148159,-0.075646,-0.000000
5.510000,2.472756,2.209709,-1.492987,0.173435,0.469355,0.028264,-0.432506,-0.741037,0.115303,0.747403,1.510010,0.156408,0.265386,4.710097,-0.680739,-0.076213,0.044583,0.000000,0.153216,-0.076001,0.000000
5.520000,2.474469,2.214365,-1.492698,0.169147,0.462021,0.029424,-0.425019,-0.725704,0.116832,0.749895,1.556277,0.149258,0.234858,4.540094,-0.739196,-0.074657,0.043819,0.000000,0.158113,-0.076328,0.000000
5.530000,2.476139,2.218949,-1.492398,0.164935,0.454843,0.030600,-0.417509,-0.709917,0.118288,0.752140,1.600746,0.141834,0.213965,4.351858,-0.745002,-0.073052,0.043052,0.000000,0.162828,-0.076629,-0.000000
5.540000,2.477767,2.223463,-1.492086,0.160797,0.447824,0.031790,-0.409977,-0.693695,0.119668,0.754128,1.643307,0.134175,0.181398,4.160053,-0.795884,-0.071401,0.042283,0.000000,0.167351,-0.076903,-0.000000
5.550000,2.479355,2.227906,-1.491762,0.156735,0.440970,0.032993,-0.402428,-0.677058,0.120969,0.755782,1.683898,0.126007,0.151272,3.954835,-0.827563,-0.069705,0.041510,0.000000,0.171675,-0.077143,-0.000000
5.560000,2.480902,2.232283,-1.491426,0.152749,0.434285,0.034209,-0.394863,-0.660025,0.122188,0.757139,1.722349,0.117629,0.118716,3.737536,-0.856203,-0.067968,0.040736,0.000000,0.175781,-0.077351,-0.000000
5.570000,2.482410,2.236593,-1.491078,0.148838,0.427771,0.035437,-0.387286,-0.642618,0.123320,0.758122,1.758635,0.108808,0.080166,3.514744,-0.898842,-0.066191,0.039960,0.000000,0.179667,-0.077521,-0.000000
5.580000,2.483879,2.240839,-1.490717,0.145003,0.421433,0.036675,-0.379701,-0.624860,0.124363,0.758791,1.792545,0.099847,0.053528,3.265296,-0.892440,-0.064375,0.039182,0.000000,0.183307,-0.077657,-0.000000
5.590000,2.485311,2.245022,-1.490345,0.141244,0.415275,0.037923,-0.372111,-0.606775,0.125317,0.759133,1.823960,0.090790,0.011965,3.018516,-0.927513,-0.062525,0.038404,0.000000,0.186690,-0.077758,-0.000000
5.600000,2.486705,2.249145,-1.489959,0.137561,0.409299,0.039181,-0.364520,-0.588389,0.126178,0.759048,1.852853,0.081383,-0.026873,2.755078,-0.944623,-0.060643,0.037624,0.000000,0.189811,-0.077813,0.000000
5.610000,2.488062,2.253209,-1.489561,0.133954,0.403508,0.040447,-0.356932,-0.569727,0.126944,0.758590,1.879022,0.071901,-0.067674,2.479373,-0.958642,-0.058730,0.036845,0.000000,0.192649,-0.077828,0.000000
5.620000,2.489384,2.257216,-1.489150,0.130422,0.397905,0.041720,-0.349350,-0.550818,0.127615,0.757665,1.902424,0.062150,-0.115256,2.196320,-0.983931,-0.056791,0.036065,0.000000,0.195200,-0.077793,-0.000000
5.630000,2.490671,2.261167,-1.488726,0.126967,0.392493,0.042999,-0.341780,-0.531689,0.128187,0.756329,1.922855,0.052385,-0.152296,1.887671,-0.968293,-0.054827,0.035287,0.000000,0.197439,-0.077714,0.000000
5.640000,2.491923,2.265066,-1.488290,0.123587,0.387272,0.044283,-0.334225,-0.512371,0.128663,0.754562,1.940186,0.042646,-0.203824,1.579135,-0.986571,-0.052843,0.034509,0.000000,0.199353,-0.077587,-0.000000
5.650000,2.493143,2.268913,-1.487841,0.120282,0.382246,0.045572,-0.326690,-0.492895,0.129040,0.752264,1.954375,0.032724,-0.253719,1.253738,-0.989794,-0.050841,0.033733,0.000000,0.200938,-0.077403,0.000000
5.660000,2.494329,2.272712,-1.487379,0.117053,0.377415,0.046863,-0.319181,-0.473295,0.129317,0.749511,1.965237,0.022848,-0.305341,0.915714,-0.990260,-0.048825,0.032959,0.000000,0.202173,-0.077170,0.000000
5.670000,2.495484,2.276462,-1.486903,0.113898,0.372780,0.048158,-0.311703,-0.453602,0.129496,0.746073,1.972638,0.012879,-0.374846,0.563066,-0.998043,-0.046799,0.032188,0.000000,0.203045,-0.076863,-0.000000
5.680000,2.496608,2.280168,-1.486415,0.110819,0.368343,0.049453,-0.304261,-0.433854,0.129575,0.742170,1.976473,0.003003,-0.405933,0.201801,-0.976618,-0.044766,0.031420,0.000000,0.203541,-0.076505,-0.000000
5.690000,2.497701,2.283830,-1.485914,0.107813,0.364103,0.050749,-0.296861,-0.414085,0.129557,0.737785,1.976612,-0.006749,-0.479624,-0.176998,-0.978469,-0.042729,0.030656,0.000000,0.203648,-0.076094,-0.000000
5.700000,2.498764,2.287451,-1.485400,0.104881,0.360061,0.052044,-0.289508,-0.394334,0.129440,0.732637,1.972893,-0.016516,-0.542818,-0.567959,-0.969383,-0.040694,0.029897,0.000000,0.203349,-0.075602,-0.000000
5.710000,2.499799,2.291032,-1.484874,0.102023,0.356216,0.053337,-0.282210,-0.374641,0.129227,0.726924,1.965145,-0.026142,-0.608947,-0.973592,-0.958032,-0.038664,0.029143,0.000000,0.202625,-0.075048,0.000000
5.720000,2.500805,2.294576,-1.484334,0.099237,0.352568,0.054628,-0.274973,-0.355044,0.128918,0.720368,1.953471,-0.035695,-0.694460,-1.373602,-0.949560,-0.036643,0.028395,0.000000,0.201488,-0.074405,-0.000000
5.730000,2.501784,2.298084,-1.483781,0.096523,0.349115,0.055915,-0.267804,-0.335586,0.128514,0.713196,1.937416,-0.045072,-0.740445,-1.839840,-0.925403,-0.034636,0.027654,0.000000,0.199890,-0.073694,0.000000
5.740000,2.502735,2.301558,-1.483215,0.093880,0.345856,0.057198,-0.260711,-0.316311,0.128017,0.705380,1.916830,-0.054249,-0.831694,-2.269548,-0.912343,-0.032647,0.026921,0.000000,0.197815,-0.072914,-0.000000
