time,x,y,z,vx,vy,vz,ax,ay,az,jx,jy,jz,sx,sy,sz,roll,pitch,yaw,p,q,r
0.000000,-2.478431,-1.631692,-1.469993,-0.008501,-0.000000,-0.004431,0.084342,-0.139776,0.029850,2.748869,-5.101052,1.140668,-124.041884,179.509444,-29.590745,-0.014290,-0.008624,0.000000,-0.523078,-0.282022,0.000000
0.010000,-2.478516,-1.631692,-1.470038,-0.007657,-0.001398,-0.004133,0.111831,-0.190786,0.041256,1.508450,-3.305958,0.844761,-233.997821,388.434217,-67.765461,-0.019526,-0.011447,0.000000,-0.339924,-0.155356,0.000000
0.020000,-2.478584,-1.631720,-1.470076,-0.006264,-0.003816,-0.003606,0.114511,-0.205895,0.046745,-1.931087,2.667632,-0.214641,-244.113727,492.594039,-81.728263,-0.021084,-0.011728,0.000000,0.273506,0.197978,0.000000
0.030000,-2.478641,-1.631768,-1.470110,-0.005367,-0.005516,-0.003198,0.073209,-0.137433,0.036964,-3.373824,6.545923,-0.789804,-3.554526,167.082158,-11.545057,-0.014061,-0.007491,0.000000,0.670743,0.345769,-0.000000
0.040000,-2.478692,-1.631830,-1.470140,-0.004800,-0.006565,-0.002867,0.047034,-0.074976,0.030949,-2.002178,6.009275,-0.445542,123.931116,-47.708954,31.373492,-0.007667,-0.004810,0.000000,0.614803,0.204950,-0.000000
0.050000,-2.478737,-1.631899,-1.470167,-0.004427,-0.007016,-0.002579,0.033165,-0.017248,0.028053,-0.895202,5.591744,-0.162334,99.165184,-36.612603,25.631098,-0.001763,-0.003390,0.000000,0.571663,0.091571,-0.000000
0.060000,-2.478780,-1.631970,-1.470192,-0.004137,-0.006910,-0.002306,0.029130,0.036859,0.027702,-0.018874,5.277023,0.067080,77.691120,-27.096067,20.592318,0.003768,-0.002978,0.000000,0.539462,0.001909,0.000000
0.070000,-2.478820,-1.632038,-1.470213,-0.003844,-0.006278,-0.002025,0.032788,0.088293,0.029394,0.658620,5.049822,0.249512,59.288254,-19.057857,16.212000,0.009027,-0.003352,0.000000,0.516493,-0.067421,0.000000
0.080000,-2.478857,-1.632096,-1.470232,-0.003481,-0.005144,-0.001718,0.042303,0.137855,0.032692,1.166891,4.895866,0.391320,43.735977,-12.396496,12.444979,0.014098,-0.004327,0.000000,0.501190,-0.119506,0.000000
0.090000,-2.478890,-1.632140,-1.470248,-0.002998,-0.003521,-0.001371,0.056126,0.186210,0.037221,1.533340,4.801892,0.498412,30.813647,-7.010488,9.246112,0.019051,-0.005743,0.000000,0.492122,-0.157158,-0.000000
0.100000,-2.478917,-1.632166,-1.470259,-0.002359,-0.001420,-0.000974,0.072970,0.233893,0.042661,1.783164,4.755656,0.576242,20.300618,-2.798326,6.570266,0.023941,-0.007471,0.000000,0.487980,-0.182942,-0.000000
0.110000,-2.478937,-1.632169,-1.470267,-0.001539,0.001157,-0.000518,0.091789,0.281323,0.048746,1.939352,4.745926,0.629817,11.976223,0.341459,4.372272,0.028811,-0.009403,0.000000,0.487579,-0.199185,-0.000000
0.120000,-2.478948,-1.632143,-1.470270,-0.000523,0.004207,0.000001,0.111757,0.328811,0.055257,2.022688,4.762485,0.663688,5.619839,2.510359,2.606958,0.033693,-0.011456,0.000000,0.489847,-0.207988,0.000000
0.130000,-2.478947,-1.632085,-1.470267,0.000697,0.007733,0.000587,0.132243,0.376573,0.062019,2.051749,4.796133,0.681956,1.010825,3.809873,1.229192,0.038608,-0.013565,0.000000,0.493822,-0.211232,0.000000
0.140000,-2.478934,-1.631989,-1.470258,0.002122,0.011738,0.001242,0.152792,0.424734,0.068896,2.042905,4.838683,0.688272,-2.071561,4.341469,0.193859,0.043569,-0.015684,0.000000,0.498656,-0.210576,-0.000000
0.150000,-2.478905,-1.631850,-1.470242,0.003752,0.016227,0.001965,0.173101,0.473346,0.075785,2.010318,4.882962,0.685833,-3.847894,4.206651,-0.544228,0.048581,-0.017781,0.000000,0.503605,-0.207463,-0.000000
0.160000,-2.478859,-1.631664,-1.470219,0.005584,0.021205,0.002757,0.192998,0.522393,0.082613,1.965947,4.922816,0.677387,-4.538701,3.506930,-1.030267,0.053641,-0.019838,0.000000,0.508036,-0.203113,0.000000
0.170000,-2.478793,-1.631426,-1.470187,0.007612,0.026675,0.003617,0.212420,0.571803,0.089333,1.919544,4.953101,0.665228,-4.399191,2.355594,-1.315939,0.058742,-0.021849,0.000000,0.511422,-0.198528,0.000000
0.180000,-2.478707,-1.631130,-1.470146,0.009833,0.032641,0.004544,0.231389,0.621455,0.095917,1.877963,4.969928,0.651068,-4.251454,1.060791,-1.561513,0.063870,-0.023815,0.000000,0.513366,-0.194413,0.000000
0.190000,-2.478597,-1.630773,-1.470096,0.012240,0.039104,0.005536,0.249979,0.671201,0.102354,1.834515,4.974317,0.633998,-4.108063,-0.347437,-1.772372,0.069009,-0.025745,0.000000,0.513962,-0.190078,0.000000
0.200000,-2.478462,-1.630348,-1.470036,0.014832,0.046065,0.006591,0.268079,0.720942,0.108597,1.795802,4.962979,0.615621,0.247949,-3.292552,-1.144081,0.074149,-0.027626,0.000000,0.512879,-0.186205,0.000000
0.210000,-2.478300,-1.629852,-1.469964,0.017602,0.053523,0.007708,0.285895,0.770461,0.114666,1.839474,4.908466,0.611116,8.120424,-7.509674,0.187193,0.079266,-0.029479,0.000000,0.507408,-0.190819,0.000000
0.220000,-2.478110,-1.629278,-1.469882,0.020550,0.061474,0.008885,0.304869,0.819111,0.120820,1.958210,4.812785,0.619365,6.564203,-8.521539,-0.259790,0.084297,-0.031454,0.000000,0.497777,-0.203188,0.000000
0.230000,-2.477889,-1.628622,-1.469787,0.023699,0.069905,0.010124,0.325059,0.866716,0.127054,1.970758,4.738035,0.605920,-4.877998,-6.090967,-2.575105,0.089222,-0.033558,0.000000,0.490101,-0.204581,0.000000
0.240000,-2.477636,-1.627880,-1.469679,0.027051,0.078809,0.011426,0.344284,0.913872,0.132938,1.860650,4.690966,0.567863,-8.759605,-6.206450,-3.421648,0.094098,-0.035562,0.000000,0.485011,-0.193258,-0.000000
0.250000,-2.477348,-1.627046,-1.469558,0.030585,0.088183,0.012783,0.362272,0.960536,0.138411,1.795566,4.613906,0.537487,-3.400181,-9.820957,-2.483458,0.098922,-0.037440,0.000000,0.476845,-0.186556,-0.000000
0.260000,-2.477024,-1.626116,-1.469423,0.034297,0.098019,0.014194,0.380195,1.006150,0.143688,1.792647,4.494547,0.518193,-0.753458,-12.758047,-2.051689,0.103635,-0.039312,0.000000,0.464397,-0.186267,0.000000
0.270000,-2.476662,-1.625086,-1.469274,0.038189,0.108306,0.015657,0.398125,1.050427,0.148775,1.780496,4.358745,0.496453,-2.076324,-13.408726,-2.361985,0.108209,-0.041185,0.000000,0.450212,-0.185006,-0.000000
0.280000,-2.476260,-1.623950,-1.469110,0.042259,0.119028,0.017169,0.415805,1.093325,0.153617,1.751120,4.226372,0.470954,-3.235382,-13.127224,-2.631132,0.112639,-0.043034,0.000000,0.436313,-0.181944,-0.000000
0.290000,-2.475817,-1.622705,-1.468931,0.046505,0.130172,0.018729,0.433147,1.134954,0.158194,1.715789,4.096201,0.443831,-3.639209,-13.694862,-2.758364,0.116936,-0.044847,0.000000,0.422595,-0.178245,0.000000
0.300000,-2.475330,-1.621347,-1.468736,0.050922,0.141727,0.020333,0.450121,1.175249,0.162493,1.678336,3.952475,0.415786,-3.917278,-15.182581,-2.828667,0.121091,-0.046623,0.000000,0.407458,-0.174309,-0.000000
0.310000,-2.474798,-1.619871,-1.468524,0.055507,0.153677,0.021979,0.466714,1.214004,0.166510,1.637443,3.792549,0.387257,-4.309670,-16.406410,-2.887565,0.125085,-0.048359,0.000000,0.390646,-0.170001,-0.000000
0.320000,-2.474220,-1.618273,-1.468296,0.060256,0.166007,0.023663,0.482870,1.251100,0.170239,1.592143,3.624347,0.358035,-4.533687,-16.939408,-2.997074,0.128904,-0.050050,0.000000,0.372974,-0.165224,-0.000000
0.330000,-2.473593,-1.616550,-1.468051,0.065165,0.178699,0.025384,0.498557,1.286491,0.173670,1.546769,3.453761,0.327316,-4.496795,-17.168936,-3.150809,0.132544,-0.051691,0.000000,0.355033,-0.160419,0.000000
0.340000,-2.472917,-1.614699,-1.467788,0.070227,0.191737,0.027137,0.513805,1.320175,0.176785,1.502207,3.280968,0.295019,-4.600162,-17.568131,-3.269963,0.136005,-0.053286,0.000000,0.336842,-0.155676,0.000000
0.350000,-2.472189,-1.612716,-1.467508,0.075441,0.205103,0.028919,0.528601,1.352110,0.179571,1.454766,3.102398,0.261917,-4.921126,-18.144132,-3.329291,0.139281,-0.054834,0.000000,0.318053,-0.150621,0.000000
0.360000,-2.471408,-1.610597,-1.467210,0.080800,0.218779,0.030728,0.542900,1.382223,0.182023,1.403784,2.918086,0.228433,-5.178709,-18.589286,-3.385466,0.142366,-0.056328,0.000000,0.298682,-0.145190,-0.000000
0.370000,-2.470573,-1.608340,-1.466894,0.086299,0.232747,0.032560,0.556677,1.410472,0.184139,1.351192,2.730613,0.194207,-5.261375,-18.825784,-3.503492,0.145255,-0.057767,0.000000,0.278989,-0.139580,-0.000000
0.380000,-2.469682,-1.605942,-1.466559,0.091933,0.246989,0.034411,0.569924,1.436835,0.185907,1.298557,2.541570,0.158363,-5.262231,-18.959881,-3.669049,0.147946,-0.059149,0.000000,0.259124,-0.133948,0.000000
0.390000,-2.468734,-1.603400,-1.466205,0.097697,0.261484,0.036278,0.582648,1.461303,0.187307,1.245947,2.351415,0.120826,-5.307795,-19.075218,-3.798733,0.150437,-0.060476,0.000000,0.239132,-0.128299,-0.000000
0.400000,-2.467728,-1.600712,-1.465833,0.103586,0.276215,0.038157,0.594843,1.483863,0.188324,1.192401,2.160066,0.082389,-5.400286,-19.167146,-3.871824,0.152728,-0.061745,0.000000,0.219021,-0.122541,-0.000000
0.410000,-2.466662,-1.597876,-1.465442,0.109594,0.291161,0.040044,0.606496,1.504504,0.188954,1.137942,1.968072,0.043390,-5.457612,-19.187296,-3.945794,0.154818,-0.062955,0.000000,0.198852,-0.116679,-0.000000
0.420000,-2.465536,-1.594889,-1.465032,0.115716,0.306305,0.041936,0.617602,1.523225,0.189192,1.083248,1.776320,0.003473,-5.463558,-19.134773,-4.070379,0.156705,-0.064106,0.000000,0.178712,-0.110781,0.000000
0.430000,-2.464348,-1.591750,-1.464604,0.121946,0.321626,0.043828,0.628161,1.540031,0.189024,1.028671,1.585377,-0.038018,-5.447313,-19.030518,-4.228040,0.158392,-0.065198,0.000000,0.158647,-0.104879,0.000000
0.440000,-2.463097,-1.588457,-1.464156,0.128279,0.337105,0.045717,0.638175,1.554932,0.188431,0.974302,1.395709,-0.081088,-5.425404,-18.878069,-4.354615,0.159878,-0.066231,0.000000,0.138704,-0.098984,-0.000000
0.450000,-2.461783,-1.585008,-1.463689,0.134710,0.352724,0.047597,0.647647,1.567945,0.187402,0.920162,1.207815,-0.125110,-5.394161,-18.674841,-4.438830,0.161166,-0.067203,0.000000,0.118946,-0.093100,0.000000
0.460000,-2.460403,-1.581402,-1.463204,0.141232,0.368464,0.049465,0.656579,1.579089,0.185929,0.866419,1.022212,-0.169865,-5.345167,-18.424403,-4.522997,0.162257,-0.068117,0.000000,0.099427,-0.087249,-0.000000
0.470000,-2.458958,-1.577639,-1.462700,0.147841,0.384306,0.051316,0.664975,1.588389,0.184005,0.813259,0.839327,-0.215570,-5.284607,-18.139075,-4.630977,0.163155,-0.068972,0.000000,0.080188,-0.081449,0.000000
0.480000,-2.457446,-1.573716,-1.462178,0.154532,0.400232,0.053145,0.672844,1.595875,0.181618,0.760727,0.659431,-0.262484,-5.217189,-17.822552,-4.747470,0.163861,-0.069768,0.000000,0.061253,-0.075701,-0.000000
0.490000,-2.455867,-1.569634,-1.461637,0.161298,0.416224,0.054948,0.680190,1.601578,0.178755,0.708915,0.482876,-0.310519,-5.135776,-17.464873,-4.841372,0.164380,-0.070506,0.000000,0.042659,-0.070018,0.000000
0.500000,-2.454220,-1.565392,-1.461079,0.168135,0.432264,0.056720,0.687022,1.605533,0.175407,0.658011,0.310134,-0.359312,-5.037484,-17.063427,-4.912314,0.164714,-0.071187,0.000000,0.024459,-0.064421,0.000000
0.510000,-2.452505,-1.560989,-1.460503,0.175039,0.448334,0.058456,0.693350,1.607781,0.171569,0.608166,0.141608,-0.408766,-4.929047,-16.630224,-4.978842,0.164869,-0.071812,0.000000,0.006698,-0.058928,0.000000
0.520000,-2.450719,-1.556425,-1.459910,0.182002,0.464419,0.060151,0.699185,1.608365,0.167232,0.559430,-0.022471,-0.458889,-4.819401,-16.181407,-5.036896,0.164849,-0.072382,0.000000,-0.010602,-0.053544,0.000000
0.530000,-2.448865,-1.551700,-1.459300,0.189022,0.480502,0.061801,0.704539,1.607331,0.162391,0.511778,-0.182021,-0.509504,-4.708017,-15.717904,-5.077104,0.164657,-0.072898,0.000000,-0.027428,-0.048268,-0.000000
0.540000,-2.446939,-1.546815,-1.458673,0.196093,0.496566,0.063399,0.709421,1.604725,0.157042,0.465270,-0.336829,-0.560431,-4.585114,-15.224818,-5.104331,0.164300,-0.073361,0.000000,-0.043755,-0.043108,0.000000
0.550000,-2.444943,-1.541769,-1.458032,0.203211,0.512596,0.064941,0.713844,1.600595,0.151182,0.420075,-0.486517,-0.611590,-4.448242,-14.697656,-5.127723,0.163782,-0.073772,0.000000,-0.059543,-0.038084,-0.000000
0.560000,-2.442875,-1.536563,-1.457375,0.210370,0.528578,0.066423,0.717822,1.594994,0.144810,0.376305,-0.630782,-0.662985,-4.305524,-14.151455,-5.141062,0.163109,-0.074133,0.000000,-0.074759,-0.033207,-0.000000
0.570000,-2.440735,-1.531197,-1.456703,0.217567,0.544496,0.067838,0.721370,1.587979,0.137923,0.333965,-0.769546,-0.714411,-4.165732,-13.607181,-5.117349,0.162287,-0.074445,0.000000,-0.089393,-0.028480,0.000000
0.580000,-2.438523,-1.525673,-1.456018,0.224797,0.560337,0.069181,0.724502,1.579603,0.130522,0.292991,-0.902926,-0.765332,-4.027704,-13.064864,-5.054610,0.161322,-0.074710,0.000000,-0.103445,-0.023901,-0.000000
0.590000,-2.436239,-1.519991,-1.455320,0.232057,0.576088,0.070448,0.727230,1.569920,0.122616,0.253411,-1.030843,-0.815504,-3.881651,-12.502590,-4.987611,0.160218,-0.074929,0.000000,-0.116903,-0.019475,-0.000000
0.600000,-2.433882,-1.514151,-1.454609,0.239342,0.591736,0.071634,0.729570,1.558986,0.114212,0.215358,-1.152978,-0.865084,-3.725060,-11.913002,-4.931703,0.158984,-0.075105,0.000000,-0.129736,-0.015216,-0.000000
0.610000,-2.431452,-1.508156,-1.453887,0.246649,0.607268,0.072732,0.731537,1.546861,0.105314,0.178910,-1.269103,-0.914138,-3.565892,-11.315581,-4.860876,0.157624,-0.075238,0.000000,-0.141924,-0.011131,-0.000000
0.620000,-2.428949,-1.502006,-1.453154,0.253973,0.622673,0.073740,0.733148,1.533604,0.095929,0.144040,-1.379289,-0.962302,-3.412887,-10.737450,-4.734656,0.156145,-0.075330,0.000000,-0.153465,-0.007221,-0.000000
0.630000,-2.426373,-1.495702,-1.452412,0.261311,0.637940,0.074651,0.734418,1.519275,0.086068,0.110652,-1.483852,-1.008831,-3.264814,-10.177166,-4.557979,0.154555,-0.075384,0.000000,-0.164380,-0.003482,0.000000
0.640000,-2.423723,-1.489247,-1.451661,0.268661,0.653058,0.075461,0.735361,1.503927,0.075753,0.078743,-1.582833,-1.053461,-3.111558,-9.603890,-4.383524,0.152858,-0.075400,0.000000,-0.174669,0.000085,-0.000000
0.650000,-2.421000,-1.482641,-1.450903,0.276019,0.668018,0.076166,0.735993,1.487618,0.064999,0.048421,-1.675930,-1.096501,-2.950110,-9.007277,-4.228805,0.151061,-0.075382,0.000000,-0.184307,0.003469,-0.000000
0.660000,-2.418203,-1.475887,-1.450138,0.283381,0.682811,0.076761,0.736330,1.470409,0.053823,0.019741,-1.762978,-1.138037,-2.788462,-8.412326,-4.056834,0.149172,-0.075330,0.000000,-0.193280,0.006667,-0.000000
0.670000,-2.415332,-1.468985,-1.449368,0.290745,0.697427,0.077242,0.736388,1.452359,0.042238,-0.007349,-1.844177,-1.177638,-2.636025,-7.852008,-3.824322,0.147196,-0.075247,0.000000,-0.201603,0.009680,-0.000000
0.680000,-2.412388,-1.461938,-1.448593,0.298109,0.711858,0.077606,0.736183,1.433525,0.030270,-0.032979,-1.920018,-1.214524,-2.491367,-7.322755,-3.541093,0.145140,-0.075135,0.000000,-0.209314,0.012516,-0.000000
0.690000,-2.409370,-1.454748,-1.447816,0.305469,0.726097,0.077848,0.735728,1.413958,0.017948,-0.057176,-1.990632,-1.248460,-2.343291,-6.785193,-3.264056,0.143010,-0.074994,0.000000,-0.216425,0.015175,-0.000000
0.700000,-2.406278,-1.447416,-1.447036,0.312823,0.740137,0.077965,0.735039,1.393713,0.005301,-0.079845,-2.055722,-1.279805,-2.188502,-6.226896,-3.008964,0.140812,-0.074828,0.000000,-0.222914,0.017652,-0.000000
0.710000,-2.403114,-1.439945,-1.446256,0.320170,0.753971,0.077954,0.734131,1.372844,-0.007648,-0.100946,-2.115170,-1.308639,-2.035419,-5.677853,-2.737445,0.138552,-0.074638,0.000000,-0.228775,0.019944,0.000000
0.720000,-2.399875,-1.432337,-1.445477,0.327506,0.767594,0.077812,0.733020,1.351409,-0.020872,-0.120553,-2.169279,-1.334554,-1.893721,-5.174230,-2.413094,0.136236,-0.074425,0.000000,-0.234033,0.022055,0.000000
0.730000,-2.396563,-1.424593,-1.444700,0.334830,0.781000,0.077536,0.731720,1.329458,-0.034339,-0.138820,-2.218654,-1.356901,-1.761680,-4.710138,-2.047919,0.133871,-0.074193,0.000000,-0.238744,0.023996,0.000000
0.740000,-2.393178,-1.416717,-1.443926,0.342140,0.794183,0.077125,0.730244,1.307036,-0.048010,-0.155787,-2.263482,-1.375512,-1.627384,-4.241068,-1.690574,0.131461,-0.073941,0.000000,-0.242929,0.025772,0.000000
0.750000,-2.389721,-1.408710,-1.443157,0.349435,0.807140,0.076576,0.728604,1.284189,-0.061849,-0.171368,-2.303476,-1.390712,-1.487452,-3.754093,-1.352184,0.129012,-0.073673,0.000000,-0.246567,0.027377,0.000000
0.760000,-2.386190,-1.400574,-1.442395,0.356712,0.819867,0.075888,0.726816,1.260967,-0.075824,-0.185536,-2.338564,-1.402556,-1.350535,-3.281681,-1.001376,0.126530,-0.073389,0.000000,-0.249657,0.028810,0.000000
0.770000,-2.382586,-1.392312,-1.441640,0.363971,0.832360,0.075060,0.724894,1.237418,-0.089901,-0.198379,-2.369109,-1.410740,-1.225858,-2.859062,-0.615268,0.124019,-0.073092,0.000000,-0.252235,0.030077,-0.000000
0.780000,-2.378910,-1.383927,-1.440894,0.371210,0.844615,0.074090,0.722849,1.213584,-0.104039,-0.210053,-2.395745,-1.414861,-1.111285,-2.478492,-0.205320,0.121485,-0.072783,0.000000,-0.254364,0.031194,-0.000000
0.790000,-2.375162,-1.375420,-1.440158,0.378428,0.856631,0.072979,0.720693,1.189503,-0.118198,-0.220604,-2.418679,-1.414846,-0.995250,-2.095771,0.196777,0.118932,-0.072463,0.000000,-0.256069,0.032165,-0.000000
0.800000,-2.371342,-1.366794,-1.439434,0.385624,0.868405,0.071726,0.718437,1.165211,-0.132336,-0.229958,-2.437660,-1.410926,-0.875121,-1.699297,0.586026,0.116364,-0.072135,0.000000,-0.257334,0.032986,-0.000000
0.810000,-2.367450,-1.358052,-1.438723,0.392797,0.879936,0.070332,0.716093,1.140749,-0.146416,-0.238107,-2.452665,-1.403126,-0.759017,-1.320232,0.981237,0.113785,-0.071799,0.000000,-0.258161,0.033656,-0.000000
0.820000,-2.363486,-1.349195,-1.438027,0.399946,0.891220,0.068798,0.713675,1.116157,-0.160399,-0.245139,-2.464065,-1.391301,-0.653548,-0.988430,1.388867,0.111201,-0.071457,0.000000,-0.258590,0.034186,0.000000
0.830000,-2.359451,-1.340227,-1.437347,0.407071,0.902259,0.067124,0.711191,1.091468,-0.174242,-0.251178,-2.472434,-1.375348,-0.556538,-0.695307,1.800142,0.108614,-0.071111,0.000000,-0.258683,0.034588,-0.000000
0.840000,-2.355344,-1.331150,-1.436685,0.414170,0.913050,0.065313,0.708651,1.066709,-0.187906,-0.256269,-2.477971,-1.355298,-0.459752,-0.402857,2.204375,0.106027,-0.070762,0.000000,-0.258464,0.034868,0.000000
0.850000,-2.351167,-1.321966,-1.436041,0.421244,0.923593,0.063366,0.706065,1.041909,-0.201348,-0.260373,-2.480491,-1.331261,-0.360336,-0.102535,2.602783,0.103444,-0.070410,0.000000,-0.257921,0.035023,0.000000
0.860000,-2.346920,-1.312678,-1.435418,0.428291,0.933888,0.061286,0.703444,1.017099,-0.214531,-0.263476,-2.480022,-1.303243,-0.263901,0.179749,2.999342,0.100869,-0.070057,0.000000,-0.257063,0.035053,0.000000
0.870000,-2.342601,-1.303289,-1.434815,0.435312,0.943935,0.059076,0.700796,0.992308,-0.227413,-0.265651,-2.476896,-1.271274,-0.177840,0.423500,3.384819,0.098303,-0.069705,0.000000,-0.255927,0.034968,-0.000000
0.880000,-2.338213,-1.293800,-1.434236,0.442307,0.953734,0.056738,0.698131,0.967561,-0.239956,-0.267033,-2.471552,-1.235546,-0.100429,0.636818,3.754405,0.095750,-0.069355,0.000000,-0.254562,0.034782,-0.000000
0.890000,-2.333755,-1.284214,-1.433681,0.449275,0.963286,0.054276,0.695455,0.942877,-0.252124,-0.267659,-2.464160,-1.196186,-0.022014,0.846166,4.117738,0.093212,-0.069006,0.000000,-0.252990,0.034501,0.000000
0.900000,-2.329228,-1.274534,-1.433151,0.456216,0.972592,0.051695,0.692777,0.918278,-0.263880,-0.267473,-2.454629,-1.153191,0.058275,1.056266,4.481396,0.090690,-0.068662,0.000000,-0.251207,0.034121,-0.000000
0.910000,-2.324631,-1.264762,-1.432647,0.463131,0.981652,0.048999,0.690106,0.893785,-0.275188,-0.266494,-2.443034,-1.106558,0.134179,1.249839,4.835549,0.088187,-0.068321,0.000000,-0.249223,0.033643,-0.000000
0.920000,-2.319965,-1.254901,-1.432171,0.470018,0.990467,0.046192,0.687448,0.869417,-0.286011,-0.264790,-2.429632,-1.056480,0.204848,1.416888,5.158306,0.085706,-0.067986,0.000000,-0.247069,0.033077,-0.000000
0.930000,-2.315231,-1.244953,-1.431723,0.476880,0.999040,0.043279,0.684810,0.845192,-0.296318,-0.262397,-2.414696,-1.003392,0.272726,1.563726,5.449094,0.083246,-0.067657,0.000000,-0.244779,0.032429,0.000000
0.940000,-2.310428,-1.234920,-1.431305,0.483715,1.007371,0.040265,0.682200,0.821123,-0.306079,-0.259335,-2.398357,-0.947499,0.338697,1.703639,5.734187,0.080810,-0.067335,0.000000,-0.242368,0.031704,0.000000
0.950000,-2.305556,-1.224805,-1.430918,0.490524,1.015462,0.037157,0.679623,0.797225,-0.315268,-0.255623,-2.380624,-0.888708,0.401757,1.837432,6.023892,0.078398,-0.067021,0.000000,-0.239841,0.030903,0.000000
0.960000,-2.300617,-1.214611,-1.430562,0.497307,1.023316,0.033960,0.677087,0.773511,-0.323853,-0.251300,-2.361609,-0.827021,0.461696,1.957279,6.297546,0.076013,-0.066715,0.000000,-0.237209,0.030029,-0.000000
0.970000,-2.295610,-1.204339,-1.430238,0.504065,1.030933,0.030680,0.674597,0.749993,-0.331808,-0.246389,-2.341478,-0.762757,0.521234,2.063400,6.525297,0.073654,-0.066419,0.000000,-0.234494,0.029089,0.000000
0.980000,-2.290536,-1.193992,-1.429948,0.510799,1.038315,0.027324,0.672159,0.726681,-0.339108,-0.240875,-2.320341,-0.696515,0.580788,2.159677,6.710393,0.071323,-0.066132,0.000000,-0.231712,0.028084,0.000000
0.990000,-2.285394,-1.183573,-1.429692,0.517508,1.045466,0.023898,0.669780,0.703586,-0.345738,-0.234773,-2.298285,-0.628549,0.636865,2.246374,6.889971,0.069020,-0.065855,0.000000,-0.228875,0.027017,-0.000000
1.000000,-2.280186,-1.173083,-1.429470,0.524195,1.052387,0.020409,0.667464,0.680715,-0.351679,-0.228138,-2.275413,-0.558715,0.688797,2.321030,7.076254,0.066745,-0.065590,0.000000,-0.225991,0.025893,-0.000000
1.010000,-2.274910,-1.162525,-1.429284,0.530858,1.059081,0.016864,0.665217,0.658078,-0.356913,-0.220997,-2.251864,-0.487024,0.739201,2.384807,7.241990,0.064500,-0.065336,0.000000,-0.223076,0.024714,0.000000
1.020000,-2.269569,-1.151901,-1.429133,0.537499,1.065549,0.013271,0.663044,0.635678,-0.361420,-0.213354,-2.227717,-0.413876,0.789561,2.445916,7.354234,0.062283,-0.065095,0.000000,-0.220139,0.023483,-0.000000
1.030000,-2.264160,-1.141214,-1.429018,0.544119,1.071794,0.009636,0.660950,0.613523,-0.365190,-0.205206,-2.202946,-0.339940,0.839390,2.505508,7.419095,0.060097,-0.064866,0.000000,-0.217183,0.022203,0.000000
1.040000,-2.258686,-1.130465,-1.428940,0.550718,1.077819,0.005967,0.658940,0.591619,-0.368219,-0.196566,-2.177607,-0.265494,0.887054,2.553541,7.478444,0.057940,-0.064650,0.000000,-0.214215,0.020878,-0.000000
1.050000,-2.253146,-1.119658,-1.428899,0.557297,1.083626,0.002271,0.657019,0.569971,-0.370500,-0.187465,-2.151875,-0.190371,0.930780,2.585827,7.544731,0.055812,-0.064448,0.000000,-0.211248,0.019509,0.000000
1.060000,-2.247540,-1.108793,-1.428895,0.563858,1.089219,-0.001443,0.655190,0.548582,-0.372026,-0.177950,-2.125890,-0.114599,0.971939,2.610331,7.588475,0.053715,-0.064259,0.000000,-0.208298,0.018100,-0.000000
1.070000,-2.241869,-1.097873,-1.428928,0.570401,1.094598,-0.005169,0.653460,0.527453,-0.372792,-0.168026,-2.099668,-0.038601,1.015940,2.638881,7.577960,0.051646,-0.064085,0.000000,-0.205366,0.016653,0.000000
1.080000,-2.236132,-1.086901,-1.428998,0.576927,1.099768,-0.008899,0.651830,0.506588,-0.372798,-0.157632,-2.073113,0.036960,1.062804,2.670206,7.520959,0.049607,-0.063926,0.000000,-0.202446,0.015167,0.000000
1.090000,-2.230330,-1.075878,-1.429106,0.583438,1.104730,-0.012625,0.650307,0.485991,-0.372053,-0.146770,-2.046264,0.111818,1.105257,2.689583,7.458586,0.047597,-0.063781,0.000000,-0.199542,0.013642,0.000000
1.100000,-2.224463,-1.064806,-1.429251,0.589934,1.109487,-0.016340,0.648895,0.465663,-0.370562,-0.135527,-2.019321,0.186132,1.141143,2.692607,7.402172,0.045616,-0.063652,0.000000,-0.196669,0.012085,0.000000
1.110000,-2.218532,-1.053688,-1.429433,0.596416,1.114043,-0.020036,0.647596,0.445605,-0.368330,-0.123947,-1.992412,0.259861,1.175542,2.690051,7.323728,0.043664,-0.063539,0.000000,-0.193841,0.010501,-0.000000
1.120000,-2.212535,-1.042526,-1.429652,0.602885,1.118400,-0.023707,0.646416,0.425815,-0.365365,-0.112016,-1.965520,0.332606,1.213257,2.693644,7.196159,0.041739,-0.063442,0.000000,-0.191054,0.008888,-0.000000
1.130000,-2.206474,-1.031320,-1.429907,0.609344,1.122559,-0.027344,0.645356,0.406294,-0.361678,-0.099682,-1.938539,0.403784,1.252810,2.700749,7.027839,0.039842,-0.063361,0.000000,-0.188300,0.007246,0.000000
1.140000,-2.200348,-1.020074,-1.430198,0.615793,1.126525,-0.030940,0.644422,0.387044,-0.357289,-0.086959,-1.911505,0.473163,1.287951,2.696661,6.854664,0.037973,-0.063297,0.000000,-0.185580,0.005577,0.000000
1.150000,-2.194158,-1.008790,-1.430526,0.622232,1.130300,-0.034489,0.643617,0.368064,-0.352215,-0.073923,-1.884606,0.540878,1.317167,2.678044,6.685748,0.036131,-0.063250,0.000000,-0.182910,0.003885,0.000000
1.160000,-2.187904,-0.997468,-1.430888,0.628665,1.133887,-0.037984,0.642943,0.349352,-0.346471,-0.060616,-1.857944,0.606878,1.344636,2.655238,6.497585,0.034315,-0.063219,0.000000,-0.180298,0.002176,0.000000
1.170000,-2.181585,-0.986112,-1.431285,0.635091,1.137287,-0.041419,0.642405,0.330905,-0.340077,-0.047031,-1.831501,0.670829,1.373765,2.636607,6.270059,0.032525,-0.063206,0.000000,-0.177742,0.000449,0.000000
1.180000,-2.175202,-0.974723,-1.431717,0.641513,1.140505,-0.044786,0.642003,0.312722,-0.333055,-0.033141,-1.805212,0.732279,1.403144,2.619079,6.011126,0.030760,-0.063211,0.000000,-0.175235,-0.001296,0.000000
1.190000,-2.168755,-0.963302,-1.432181,0.647931,1.143542,-0.048080,0.641742,0.294801,-0.325432,-0.018968,-1.779119,0.791052,1.428248,2.592244,5.748383,0.029020,-0.063232,0.000000,-0.172778,-0.003057,-0.000000
1.200000,-2.162243,-0.951852,-1.432678,0.654348,1.146401,-0.051295,0.641624,0.277140,-0.317234,-0.004576,-1.753367,0.847247,1.448335,2.554754,5.487962,0.027304,-0.063272,0.000000,-0.170384,-0.004827,0.000000
1.210000,-2.155668,-0.940374,-1.433207,0.660764,1.149085,-0.054425,0.641650,0.259734,-0.308487,0.009999,-1.728024,0.900811,1.466240,2.513639,5.212679,0.025612,-0.063329,0.000000,-0.168056,-0.006605,-0.000000
1.220000,-2.149028,-0.928870,-1.433767,0.667181,1.151596,-0.057464,0.641824,0.242579,-0.299217,0.024749,-1.703094,0.951501,1.483211,2.471940,4.911016,0.023943,-0.063404,0.000000,-0.165795,-0.008388,-0.000000
1.230000,-2.142324,-0.917342,-1.434356,0.673600,1.153936,-0.060409,0.642145,0.225672,-0.289457,0.039663,-1.678586,0.999032,1.498042,2.427143,4.589811,0.022296,-0.063497,0.000000,-0.163598,-0.010173,-0.000000
1.240000,-2.135556,-0.905791,-1.434975,0.680024,1.156109,-0.063254,0.642617,0.209007,-0.279237,0.054710,-1.654551,1.043297,1.508998,2.375699,4.266001,0.020671,-0.063607,0.000000,-0.161469,-0.011958,-0.000000
1.250000,-2.128723,-0.894220,-1.435621,0.686453,1.158116,-0.065994,0.643239,0.192581,-0.268591,0.069843,-1.631072,1.084352,1.516444,2.318683,3.942496,0.019067,-0.063736,0.000000,-0.159414,-0.013738,-0.000000
1.260000,-2.121827,-0.882629,-1.436295,0.692889,1.159961,-0.068625,0.644014,0.176386,-0.257550,0.085039,-1.608178,1.122147,1.521201,2.258250,3.609887,0.017483,-0.063882,0.000000,-0.157433,-0.015511,-0.000000
1.270000,-2.114866,-0.871021,-1.436994,0.699333,1.161644,-0.071145,0.644940,0.160417,-0.246148,0.100267,-1.585907,1.156549,1.521737,2.191294,3.265458,0.015918,-0.064046,0.000000,-0.155529,-0.017273,-0.000000
1.280000,-2.107840,-0.859396,-1.437718,0.705787,1.163169,-0.073548,0.646019,0.144668,-0.234419,0.115473,-1.564352,1.187456,1.517367,2.116581,2.914257,0.014372,-0.064228,0.000000,-0.153709,-0.019019,0.000000
1.290000,-2.100750,-0.847757,-1.438465,0.712253,1.164537,-0.075833,0.647250,0.129130,-0.222399,0.130615,-1.543575,1.214834,1.509963,2.038583,2.561948,0.012844,-0.064427,0.000000,-0.151977,-0.020744,0.000000
1.300000,-2.093595,-0.836105,-1.439234,0.718732,1.165752,-0.077996,0.648631,0.113796,-0.210122,0.145673,-1.523580,1.238695,1.500795,1.960075,2.208062,0.011333,-0.064643,0.000000,-0.150331,-0.022445,-0.000000
1.310000,-2.086375,-0.824442,-1.440025,0.725226,1.166813,-0.080036,0.650163,0.098659,-0.197625,0.160630,-1.504373,1.258996,1.488257,1.877780,1.851162,0.009837,-0.064876,0.000000,-0.148770,-0.024121,0.000000
1.320000,-2.079091,-0.812769,-1.440835,0.731736,1.167725,-0.081949,0.651844,0.083709,-0.184942,0.175438,-1.486025,1.275718,1.468699,1.784921,1.497108,0.008357,-0.065125,0.000000,-0.147300,-0.025766,-0.000000
1.330000,-2.071741,-0.801088,-1.441664,0.738263,1.168488,-0.083734,0.653672,0.068938,-0.172110,0.190004,-1.468675,1.288938,1.442201,1.682020,1.148844,0.006891,-0.065391,0.000000,-0.145932,-0.027372,0.000000
1.340000,-2.064325,-0.789399,-1.442510,0.744809,1.169103,-0.085391,0.655644,0.054335,-0.159163,0.204282,-1.452384,1.298695,1.413432,1.578278,0.800911,0.005439,-0.065673,0.000000,-0.144671,-0.028933,0.000000
1.350000,-2.056844,-0.777706,-1.443372,0.751376,1.169574,-0.086918,0.657757,0.039890,-0.146136,0.218273,-1.437110,1.304956,1.384090,1.477496,0.449709,0.003998,-0.065970,0.000000,-0.143512,-0.030450,0.000000
1.360000,-2.049298,-0.766008,-1.444248,0.757964,1.169901,-0.088314,0.660009,0.025593,-0.133064,0.231964,-1.422834,1.307689,1.350765,1.373368,0.101375,0.002568,-0.066282,0.000000,-0.142451,-0.031918,-0.000000
1.370000,-2.041685,-0.754308,-1.445138,0.764576,1.170086,-0.089579,0.662397,0.011434,-0.119983,0.245288,-1.409642,1.306984,1.309044,1.256763,-0.230748,0.001149,-0.066608,0.000000,-0.141495,-0.033333,-0.000000
1.380000,-2.034006,-0.742606,-1.446040,0.771212,1.170130,-0.090713,0.664915,-0.002600,-0.106925,0.258144,-1.397699,1.303074,1.259577,1.129294,-0.545989,-0.000262,-0.066948,0.000000,-0.140659,-0.034685,0.000000
1.390000,-2.026261,-0.730905,-1.446952,0.777874,1.170034,-0.091717,0.667560,-0.016520,-0.093921,0.270480,-1.387056,1.296064,1.208090,1.003424,-0.859732,-0.001664,-0.067302,0.000000,-0.139948,-0.035968,-0.000000
1.400000,-2.018449,-0.719205,-1.447874,0.784563,1.169800,-0.092592,0.670325,-0.030341,-0.081003,0.282306,-1.377631,1.285880,1.157115,0.883412,-1.178119,-0.003060,-0.067668,0.000000,-0.139351,-0.037181,0.000000
1.410000,-2.010570,-0.707509,-1.448804,0.791281,1.169427,-0.093337,0.673206,-0.044073,-0.068204,0.293622,-1.369388,1.272501,1.102594,0.760994,-1.488509,-0.004451,-0.068045,0.000000,-0.138865,-0.038325,-0.000000
1.420000,-2.002623,-0.695817,-1.449741,0.798027,1.168918,-0.093956,0.676197,-0.057729,-0.055553,0.304358,-1.362411,1.256109,1.037955,0.626545,-1.771992,-0.005838,-0.068434,0.000000,-0.138497,-0.039392,-0.000000
1.430000,-1.994609,-0.684131,-1.450683,0.804805,1.168273,-0.094449,0.679293,-0.071321,-0.043081,0.314381,-1.356857,1.237062,0.964082,0.482692,-2.030107,-0.007221,-0.068833,0.000000,-0.138262,-0.040370,0.000000
1.440000,-1.986527,-0.672451,-1.451630,0.811613,1.167492,-0.094817,0.682485,-0.084866,-0.030812,0.323640,-1.352757,1.215507,0.889802,0.342723,-2.285853,-0.008603,-0.069242,0.000000,-0.138162,-0.041254,-0.000000
1.450000,-1.978377,-0.660781,-1.452579,0.818454,1.166575,-0.095065,0.685766,-0.098376,-0.018771,0.332177,-1.350003,1.191344,0.818186,0.209939,-2.547041,-0.009984,-0.069658,0.000000,-0.138186,-0.042047,-0.000000
1.460000,-1.970158,-0.649120,-1.453531,0.825329,1.165524,-0.095193,0.689128,-0.111866,-0.006985,0.340004,-1.348558,1.164566,0.743242,0.075866,-2.796343,-0.011367,-0.070083,0.000000,-0.138329,-0.042748,0.000000
1.470000,-1.961870,-0.637470,-1.454483,0.832237,1.164338,-0.095204,0.692566,-0.125347,0.004520,0.347042,-1.348485,1.135418,0.657778,-0.065937,-3.011795,-0.012751,-0.070513,0.000000,-0.138597,-0.043351,0.000000
1.480000,-1.953513,-0.625833,-1.455435,0.839180,1.163017,-0.095102,0.696069,-0.138835,0.015723,0.353159,-1.349877,1.104331,0.563729,-0.212279,-3.196819,-0.014139,-0.070950,0.000000,-0.138999,-0.043845,-0.000000
1.490000,-1.945087,-0.614210,-1.456385,0.846158,1.161561,-0.094890,0.699629,-0.152345,0.026607,0.358317,-1.352731,1.071481,0.470775,-0.353988,-3.378898,-0.015531,-0.071390,0.000000,-0.139534,-0.044225,-0.000000
1.500000,-1.936590,-0.602602,-1.457333,0.853173,1.159970,-0.094570,0.703236,-0.165890,0.037153,0.362575,-1.356957,1.036753,0.380194,-0.489384,-3.566441,-0.016929,-0.071834,0.000000,-0.140193,-0.044497,0.000000
1.510000,-1.928023,-0.591011,-1.458277,0.860223,1.158244,-0.094147,0.706880,-0.179484,0.047342,0.365921,-1.362519,1.000152,0.285778,-0.623826,-3.739658,-0.018335,-0.072280,0.000000,-0.140972,-0.044658,0.000000
1.520000,-1.919386,-0.579437,-1.459216,0.867310,1.156381,-0.093624,0.710554,-0.193140,0.057156,0.368290,-1.369433,0.961959,0.185809,-0.759534,-3.876386,-0.019749,-0.072728,0.000000,-0.141871,-0.044702,0.000000
1.530000,-1.910677,-0.567883,-1.460149,0.874434,1.154381,-0.093004,0.714246,-0.206873,0.066581,0.369637,-1.377709,0.922625,0.082580,-0.893940,-3.981476,-0.021172,-0.073175,0.000000,-0.142892,-0.044629,-0.000000
1.540000,-1.901897,-0.556349,-1.461076,0.881595,1.152243,-0.092292,0.717947,-0.220695,0.075608,0.369942,-1.387312,0.882330,-0.021578,-1.023289,-4.083227,-0.022606,-0.073620,0.000000,-0.144032,-0.044436,0.000000
1.550000,-1.893045,-0.544838,-1.461995,0.888793,1.149967,-0.091492,0.721645,-0.234619,0.084228,0.369205,-1.398175,0.840960,-0.125799,-1.147644,-4.189556,-0.024053,-0.074064,0.000000,-0.145283,-0.044122,0.000000
1.560000,-1.884121,-0.533350,-1.462906,0.896028,1.147551,-0.090607,0.725331,-0.248658,0.092427,0.367426,-1.410265,0.798539,-0.231248,-1.268502,-4.280803,-0.025512,-0.074503,0.000000,-0.146641,-0.043686,-0.000000
1.570000,-1.875125,-0.521887,-1.463807,0.903300,1.144994,-0.089643,0.728994,-0.262824,0.100198,0.364580,-1.423545,0.755344,-0.339911,-1.383635,-4.337241,-0.026985,-0.074938,0.000000,-0.148102,-0.043129,0.000000
1.580000,-1.866055,-0.510450,-1.464699,0.910608,1.142294,-0.088603,0.732622,-0.277129,0.107534,0.360628,-1.437938,0.711794,-0.451192,-1.491446,-4.364408,-0.028474,-0.075366,0.000000,-0.149659,-0.042449,0.000000
1.590000,-1.856912,-0.499041,-1.465579,0.917952,1.139451,-0.087492,0.736206,-0.291583,0.114434,0.355556,-1.453374,0.668056,-0.561862,-1.593955,-4.387979,-0.029979,-0.075787,0.000000,-0.151306,-0.041645,0.000000
1.600000,-1.847696,-0.487661,-1.466448,0.925332,1.136463,-0.086315,0.739734,-0.306197,0.120895,0.349390,-1.469817,0.624034,-0.670780,-1.692908,-4.414469,-0.031500,-0.076199,0.000000,-0.153037,-0.040720,0.000000
1.610000,-1.838406,-0.476312,-1.467305,0.932747,1.133327,-0.085075,0.743194,-0.320979,0.126915,0.342141,-1.487232,0.579767,-0.779694,-1.785843,-4.426670,-0.033039,-0.076602,0.000000,-0.154849,-0.039674,-0.000000
1.620000,-1.829041,-0.464995,-1.468150,0.940196,1.130043,-0.083776,0.746576,-0.335941,0.132491,0.333796,-1.505533,0.535501,-0.890430,-1.866484,-4.409473,-0.034597,-0.076993,0.000000,-0.156734,-0.038508,0.000000
1.630000,-1.819602,-0.453711,-1.468981,0.947678,1.126608,-0.082425,0.749870,-0.351090,0.137625,0.324332,-1.524562,0.491577,-1.001934,-1.934387,-4.368348,-0.036174,-0.077372,0.000000,-0.158676,-0.037224,0.000000
1.640000,-1.810088,-0.442463,-1.469798,0.955193,1.123021,-0.081024,0.753063,-0.366432,0.142322,0.313758,-1.544221,0.448134,-1.111211,-1.996928,-4.323460,-0.037770,-0.077738,0.000000,-0.160665,-0.035822,0.000000
1.650000,-1.800498,-0.431251,-1.470601,0.962740,1.119280,-0.079578,0.756145,-0.381974,0.146588,0.302108,-1.564500,0.405108,-1.218716,-2.057295,-4.279283,-0.039387,-0.078089,0.000000,-0.162700,-0.034307,-0.000000
1.660000,-1.790833,-0.420077,-1.471390,0.970316,1.115382,-0.078092,0.759105,-0.397722,0.150425,0.289383,-1.585367,0.362548,-1.325850,-2.109485,-4.222885,-0.041024,-0.078425,0.000000,-0.164777,-0.032678,-0.000000
1.670000,-1.781092,-0.408943,-1.472163,0.977922,1.111325,-0.076570,0.761933,-0.413682,0.153839,0.275591,-1.606690,0.320650,-1.429834,-2.143993,-4.145169,-0.042683,-0.078743,0.000000,-0.166884,-0.030940,-0.000000
1.680000,-1.771274,-0.397850,-1.472921,0.985555,1.107108,-0.075015,0.764617,-0.429856,0.156838,0.260787,-1.628247,0.279645,-1.529546,-2.161562,-4.050923,-0.044362,-0.079044,0.000000,-0.168999,-0.029099,0.000000
1.690000,-1.761381,-0.386801,-1.473664,0.993214,1.102728,-0.073433,0.767148,-0.446247,0.159431,0.245000,-1.649921,0.239632,-1.628272,-2.173946,-3.952805,-0.046062,-0.079326,0.000000,-0.171110,-0.027160,0.000000
1.700000,-1.751410,-0.375796,-1.474390,1.000898,1.098183,-0.071827,0.769517,-0.462855,0.161630,0.228221,-1.671726,0.200589,-1.727211,-2.185211,-3.852914,-0.047784,-0.079588,0.000000,-0.173219,-0.025123,-0.000000
1.710000,-1.741363,-0.364837,-1.475100,1.008604,1.093471,-0.070200,0.771713,-0.479681,0.163443,0.210456,-1.693626,0.162573,-1.823559,-2.186641,-3.743836,-0.049527,-0.079829,0.000000,-0.175322,-0.022989,0.000000
1.720000,-1.731238,-0.353926,-1.475794,1.016332,1.088590,-0.068558,0.773726,-0.496727,0.164882,0.191750,-1.715459,0.125712,-1.913777,-2.167168,-3.622837,-0.051290,-0.080048,0.000000,-0.177404,-0.020765,-0.000000
1.730000,-1.721036,-0.343065,-1.476471,1.024079,1.083537,-0.066903,0.775548,-0.513990,0.165957,0.172180,-1.736969,0.090117,-1.998177,-2.128621,-3.493440,-0.053075,-0.080245,0.000000,-0.179439,-0.018459,-0.000000
1.740000,-1.710756,-0.332256,-1.477132,1.031843,1.078310,-0.065239,0.777170,-0.531467,0.166684,0.151787,-1.758031,0.055843,-2.080824,-2.084998,-3.360244,-0.054879,-0.080418,0.000000,-0.181416,-0.016078,-0.000000
1.750000,-1.700399,-0.321499,-1.477776,1.039622,1.072907,-0.063569,0.778584,-0.549151,0.167074,0.130564,-1.778669,0.022912,-2.163159,-2.040590,-3.223009,-0.056703,-0.080567,0.000000,-0.183337,-0.013621,-0.000000
1.760000,-1.689964,-0.310798,-1.478403,1.047415,1.067327,-0.061897,0.779781,-0.567040,0.167142,0.108523,-1.798843,-0.008617,-2.241951,-1.985469,-3.080020,-0.058546,-0.080691,0.000000,-0.185198,-0.011090,-0.000000
1.770000,-1.679451,-0.300153,-1.479014,1.055218,1.061566,-0.060226,0.780754,-0.585128,0.166902,0.085725,-1.818378,-0.038689,-2.312744,-1.908580,-2.934441,-0.060407,-0.080789,0.000000,-0.186985,-0.008494,0.000000
1.780000,-1.668860,-0.289566,-1.479608,1.063030,1.055624,-0.058559,0.781496,-0.603407,0.166368,0.062269,-1.837015,-0.067306,-2.376008,-1.812448,-2.788219,-0.062285,-0.080861,0.000000,-0.188669,-0.005842,0.000000
1.790000,-1.658190,-0.279040,-1.480185,1.070848,1.049498,-0.056899,0.781999,-0.621868,0.165556,0.038205,-1.854627,-0.094453,-2.437194,-1.711362,-2.638412,-0.064180,-0.080906,0.000000,-0.190239,-0.003140,0.000000
1.800000,-1.647443,-0.268576,-1.480746,1.078670,1.043187,-0.055248,0.782260,-0.640500,0.164479,0.013525,-1.871242,-0.120074,-2.498070,-1.609384,-2.482916,-0.066090,-0.080924,0.000000,-0.191700,-0.000389,-0.000000
1.810000,-1.636617,-0.258176,-1.481290,1.086493,1.036688,-0.053609,0.782270,-0.659293,0.163154,-0.011757,-1.886815,-0.144111,-2.554548,-1.496708,-2.325103,-0.068014,-0.080914,0.000000,-0.193049,0.002409,-0.000000
1.820000,-1.625713,-0.247842,-1.481818,1.094315,1.030001,-0.051985,0.782024,-0.678236,0.161597,-0.037566,-1.901176,-0.166576,-2.601746,-1.363497,-2.172676,-0.069951,-0.080875,0.000000,-0.194268,0.005245,-0.000000
1.830000,-1.614731,-0.237576,-1.482330,1.102133,1.023124,-0.050377,0.781519,-0.697317,0.159823,-0.063792,-1.914085,-0.187565,-2.640542,-1.212561,-2.026045,-0.071900,-0.080809,0.000000,-0.195334,0.008110,0.000000
1.840000,-1.603670,-0.227380,-1.482826,1.109945,1.016055,-0.048789,0.780749,-0.716518,0.157846,-0.090377,-1.925427,-0.207097,-2.677030,-1.056890,-1.876277,-0.073858,-0.080713,0.000000,-0.196236,0.010997,-0.000000
1.850000,-1.592532,-0.217255,-1.483306,1.117748,1.008793,-0.047220,0.779711,-0.735825,0.155681,-0.117332,-1.935223,-0.225090,-2.712982,-0.900166,-1.719944,-0.075824,-0.080588,0.000000,-0.196978,0.013905,0.000000
1.860000,-1.581315,-0.207204,-1.483770,1.125540,1.001338,-0.045675,0.778402,-0.755222,0.153344,-0.144637,-1.943430,-0.241496,-2.744025,-0.733770,-1.564336,-0.077797,-0.080434,0.000000,-0.197558,0.016833,-0.000000
1.870000,-1.570021,-0.197229,-1.484219,1.133316,0.993689,-0.044154,0.776818,-0.774694,0.150851,-0.172213,-1.949898,-0.256377,-2.765510,-0.549267,-1.419956,-0.079775,-0.080250,0.000000,-0.197961,0.019772,-0.000000
1.880000,-1.558649,-0.187330,-1.484653,1.141076,0.985844,-0.042658,0.774958,-0.794220,0.148216,-0.199947,-1.954416,-0.269895,-2.778533,-0.349414,-1.285832,-0.081756,-0.080037,0.000000,-0.198166,0.022712,0.000000
1.890000,-1.547199,-0.177512,-1.485072,1.148816,0.977804,-0.041189,0.772819,-0.813782,0.145453,-0.227783,-1.956886,-0.282094,-2.789019,-0.145706,-1.149225,-0.083739,-0.079795,0.000000,-0.198163,0.025648,0.000000
1.900000,-1.535672,-0.167774,-1.485477,1.156532,0.969569,-0.039749,0.770402,-0.833358,0.142575,-0.255727,-1.957330,-0.292879,-2.798629,0.058967,-1.006090,-0.085720,-0.079522,0.000000,-0.197958,0.028579,-0.000000
1.910000,-1.524069,-0.158120,-1.485867,1.164224,0.961137,-0.038338,0.767705,-0.852929,0.139596,-0.283756,-1.955707,-0.302215,-2.803249,0.271917,-0.866022,-0.087698,-0.079221,0.000000,-0.197548,0.031503,0.000000
1.920000,-1.512388,-0.148552,-1.486244,1.171887,0.952510,-0.036957,0.764727,-0.872472,0.136530,-0.311792,-1.951892,-0.310200,-2.798741,0.498951,-0.740476,-0.089671,-0.078890,0.000000,-0.196921,0.034412,0.000000
1.930000,-1.500631,-0.139070,-1.486606,1.179518,0.943688,-0.035607,0.761469,-0.891966,0.133392,-0.339731,-1.945728,-0.317025,-2.786260,0.737355,-0.627461,-0.091636,-0.078530,0.000000,-0.196060,0.037297,-0.000000
1.940000,-1.488798,-0.129678,-1.486956,1.187116,0.934671,-0.034289,0.757932,-0.911387,0.130190,-0.367518,-1.937144,-0.322749,-2.771161,0.978905,-0.512747,-0.093592,-0.078141,0.000000,-0.194960,0.040154,-0.000000
1.950000,-1.476889,-0.120377,-1.487292,1.194677,0.925460,-0.033003,0.754119,-0.930709,0.126937,-0.395154,-1.926150,-0.327280,-2.754870,1.221902,-0.392364,-0.095535,-0.077723,0.000000,-0.193624,0.042982,-0.000000
1.960000,-1.464904,-0.111169,-1.487616,1.202198,0.916057,-0.031750,0.750029,-0.949910,0.123644,-0.422615,-1.912706,-0.330596,-2.733830,1.471172,-0.276608,-0.097464,-0.077277,0.000000,-0.192050,0.045779,0.000000
1.970000,-1.452845,-0.102056,-1.487927,1.209677,0.906462,-0.030530,0.745666,-0.968963,0.120325,-0.449831,-1.896726,-0.332812,-2.704803,1.729261,-0.176110,-0.099376,-0.076803,0.000000,-0.190229,0.048537,0.000000
1.980000,-1.440711,-0.093039,-1.488227,1.217112,0.896677,-0.029344,0.741033,-0.987844,0.116988,-0.476711,-1.878121,-0.334119,-2.668955,1.994052,-0.088295,-0.101269,-0.076302,0.000000,-0.188151,0.051251,-0.000000
1.990000,-1.428502,-0.084122,-1.488514,1.224498,0.886705,-0.028191,0.736132,-1.006526,0.113642,-0.503210,-1.856845,-0.334578,-2.630542,2.261416,0.000263,-0.103139,-0.075773,0.000000,-0.185813,0.053916,-0.000000
2.000000,-1.416221,-0.075305,-1.488790,1.231834,0.876547,-0.027071,0.730968,-1.024981,0.110296,-0.529322,-1.832893,-0.334113,-2.590250,2.530198,0.092996,-0.104985,-0.075218,0.000000,-0.183217,0.056531,0.000000
2.010000,-1.403866,-0.066591,-1.489056,1.239117,0.866205,-0.025985,0.725546,-1.043184,0.106960,-0.555015,-1.806241,-0.332718,-2.545399,2.802357,0.180501,-0.106804,-0.074636,0.000000,-0.180361,0.059093,0.000000
2.020000,-1.391438,-0.057981,-1.489310,1.246345,0.855683,-0.024932,0.719868,-1.061106,0.103642,-0.580230,-1.776846,-0.330503,-2.494790,3.079247,0.254105,-0.108592,-0.074029,0.000000,-0.177241,0.061598,0.000000
2.030000,-1.378939,-0.049477,-1.489554,1.253515,0.844983,-0.023912,0.713941,-1.078721,0.100350,-0.604911,-1.744657,-0.327636,-2.439398,3.359718,0.316474,-0.110349,-0.073397,0.000000,-0.173851,0.064041,0.000000
2.040000,-1.366368,-0.041082,-1.489788,1.260624,0.834109,-0.022925,0.707770,-1.095999,0.097089,-0.629018,-1.709651,-0.324174,-2.380899,3.640894,0.378678,-0.112069,-0.072740,0.000000,-0.170189,0.066419,0.000000
2.050000,-1.353726,-0.032795,-1.490013,1.267670,0.823063,-0.021970,0.701361,-1.112914,0.093866,-0.652528,-1.671839,-0.320062,-2.319924,3.921055,0.443250,-0.113752,-0.072060,0.000000,-0.166259,0.068730,-0.000000
2.060000,-1.341015,-0.024620,-1.490228,1.274651,0.811850,-0.021048,0.694719,-1.129436,0.090688,-0.675416,-1.631230,-0.315309,-2.255576,4.201320,0.502718,-0.115395,-0.071357,0.000000,-0.162061,0.070971,-0.000000
2.070000,-1.328233,-0.016558,-1.490434,1.281565,0.800474,-0.020156,0.687852,-1.145538,0.087560,-0.697640,-1.587812,-0.310008,-2.186460,4.484293,0.551110,-0.116994,-0.070631,0.000000,-0.157595,0.073140,0.000000
2.080000,-1.315383,-0.008611,-1.490631,1.288408,0.788940,-0.019296,0.680767,-1.161192,0.084488,-0.719145,-1.541544,-0.304287,-2.111686,4.767002,0.590822,-0.118547,-0.069884,0.000000,-0.152855,0.075231,0.000000
2.090000,-1.302465,-0.000779,-1.490820,1.295180,0.777251,-0.018467,0.673469,-1.176369,0.081475,-0.739874,-1.492472,-0.298192,-2.033735,5.045252,0.629616,-0.120051,-0.069116,0.000000,-0.147846,0.077241,0.000000
2.100000,-1.289480,0.006934,-1.491000,1.301878,0.765412,-0.017667,0.665969,-1.191042,0.078524,-0.759820,-1.440639,-0.291694,-1.962669,5.332695,0.668905,-0.121504,-0.068328,0.000000,-0.142574,0.079168,-0.000000
2.110000,-1.276428,0.014529,-1.491173,1.308499,0.753430,-0.016896,0.658273,-1.205182,0.075641,-0.779127,-1.385818,-0.284814,-1.896346,5.630101,0.703711,-0.122902,-0.067521,0.000000,-0.137016,0.081028,0.000000
2.120000,-1.263310,0.022003,-1.491338,1.315043,0.741309,-0.016154,0.650387,-1.218758,0.072828,-0.797747,-1.328037,-0.277620,-1.806915,5.895626,0.731102,-0.124244,-0.066695,0.000000,-0.131175,0.082817,0.000000
2.130000,-1.250127,0.029355,-1.491496,1.321507,0.729055,-0.015440,0.642318,-1.231743,0.070088,-0.815265,-1.267906,-0.270191,-1.697035,6.130792,0.752884,-0.125526,-0.065852,0.000000,-0.125110,0.084493,-0.000000
2.140000,-1.236880,0.036584,-1.491647,1.327889,0.716674,-0.014752,0.634081,-1.244116,0.067424,-0.831688,-1.205422,-0.262562,-1.604947,6.391540,0.773084,-0.126746,-0.064992,0.000000,-0.118822,0.086057,0.000000
2.150000,-1.223569,0.043688,-1.491791,1.334189,0.704172,-0.014091,0.625684,-1.255851,0.064837,-0.847364,-1.140075,-0.254730,-1.515757,6.654994,0.792263,-0.127902,-0.064117,0.000000,-0.112259,0.087546,-0.000000
2.160000,-1.210196,0.050667,-1.491929,1.340403,0.691557,-0.013455,0.617134,-1.266918,0.062329,-0.862003,-1.072322,-0.246717,-1.405800,6.885175,0.808060,-0.128991,-0.063227,0.000000,-0.105467,0.088930,-0.000000
2.170000,-1.196761,0.057520,-1.492060,1.346531,0.678834,-0.012845,0.608444,-1.277298,0.059903,-0.875480,-1.002372,-0.238569,-1.327919,7.160205,0.819843,-0.130012,-0.062323,0.000000,-0.098466,0.090197,-0.000000
2.180000,-1.183265,0.064244,-1.492186,1.352572,0.666011,-0.012257,0.599624,-1.286965,0.057558,-0.888561,-0.929118,-0.230320,-1.291739,7.494035,0.828781,-0.130961,-0.061407,0.000000,-0.091146,0.091425,-0.000000
2.190000,-1.169709,0.070840,-1.492305,1.358524,0.653095,-0.011693,0.590673,-1.295880,0.055296,-0.901315,-0.852491,-0.221993,-1.223200,7.775079,0.835994,-0.131835,-0.060479,0.000000,-0.083497,0.092623,-0.000000
2.200000,-1.156095,0.077306,-1.492419,1.364385,0.640093,-0.011152,0.581598,-1.304015,0.053118,-0.913025,-0.773616,-0.213600,-1.121785,7.998519,0.841157,-0.132631,-0.059539,0.000000,-0.075634,0.093716,0.000000
2.210000,-1.142422,0.083642,-1.492528,1.370156,0.627014,-0.010631,0.572413,-1.311352,0.051024,-0.923751,-0.692520,-0.205170,-1.037423,8.238479,0.843967,-0.133347,-0.058588,0.000000,-0.067557,0.094713,0.000000
2.220000,-1.128692,0.089846,-1.492632,1.375834,0.613866,-0.010131,0.563123,-1.317865,0.049015,-0.933774,-0.608846,-0.196721,-0.951586,8.475616,0.846052,-0.133982,-0.057627,0.000000,-0.059230,0.095640,0.000000
2.230000,-1.114905,0.095919,-1.492731,1.381418,0.600657,-0.009651,0.553737,-1.323529,0.047090,-0.942783,-0.523008,-0.188249,-0.843854,8.678513,0.847981,-0.134532,-0.056658,0.000000,-0.050694,0.096469,0.000000
2.240000,-1.101063,0.101859,-1.492825,1.386908,0.587396,-0.009189,0.544267,-1.328326,0.045250,-0.950651,-0.435276,-0.179761,-0.744698,8.879241,0.847963,-0.134996,-0.055680,0.000000,-0.041975,0.097184,0.000000
2.250000,-1.087167,0.107667,-1.492915,1.392304,0.574090,-0.008746,0.534724,-1.332235,0.043495,-0.957677,-0.345423,-0.171290,-0.674804,9.108221,0.845105,-0.135372,-0.054696,0.000000,-0.033050,0.097818,0.000000
2.260000,-1.073217,0.113341,-1.493000,1.397603,0.560751,-0.008319,0.525114,-1.335234,0.041824,-0.964147,-0.253112,-0.162859,-0.611664,9.339262,0.841044,-0.135657,-0.053706,0.000000,-0.023883,0.098400,0.000000
2.270000,-1.059215,0.118882,-1.493081,1.402806,0.547386,-0.007909,0.515441,-1.337297,0.040237,-0.969910,-0.158638,-0.154469,-0.509632,9.499214,0.838685,-0.135849,-0.052710,0.000000,-0.014503,0.098913,-0.000000
2.280000,-1.045161,0.124289,-1.493158,1.407912,0.534005,-0.007515,0.505716,-1.338407,0.038735,-0.974340,-0.063127,-0.146086,-0.378190,9.598235,0.837946,-0.135947,-0.051709,0.000000,-0.005022,0.099295,-0.000000
2.290000,-1.031057,0.129562,-1.493231,1.412920,0.520618,-0.007135,0.495954,-1.338559,0.037316,-0.977474,0.033327,-0.137710,-0.278107,9.732464,0.835376,-0.135950,-0.050706,0.000000,0.004551,0.099550,-0.000000
2.300000,-1.016903,0.134701,-1.493301,1.417831,0.507234,-0.006768,0.486166,-1.337740,0.035980,-0.979902,0.131522,-0.129378,-0.193350,9.877926,0.829970,-0.135856,-0.049700,0.000000,0.014297,0.099738,-0.000000
2.310000,-1.002700,0.139707,-1.493367,1.422644,0.493863,-0.006415,0.476356,-1.335929,0.034728,-0.981341,0.230885,-0.121110,-0.085602,9.972108,0.824427,-0.135664,-0.048692,0.000000,0.024162,0.099829,0.000000
2.320000,-0.988450,0.144579,-1.493429,1.427358,0.480515,-0.006074,0.466539,-1.333122,0.033558,-0.981614,0.330964,-0.112890,-0.013596,10.101692,0.821677,-0.135373,-0.047685,0.000000,0.034100,0.099806,0.000000
2.330000,-0.974153,0.149317,-1.493488,1.431974,0.467200,-0.005744,0.456724,-1.329310,0.032470,-0.981613,0.432919,-0.104677,0.007497,10.288805,0.821188,-0.134982,-0.046678,0.000000,0.044228,0.099759,-0.000000
2.340000,-0.959810,0.153923,-1.493544,1.436492,0.453929,-0.005424,0.446907,-1.324464,0.031465,-0.981464,0.536740,-0.096466,0.060873,10.408359,0.819501,-0.134488,-0.045671,0.000000,0.054546,0.099701,-0.000000
2.350000,-0.945423,0.158396,-1.493597,1.440912,0.440711,-0.005114,0.437095,-1.318575,0.030541,-0.980395,0.641086,-0.088287,0.148591,10.464770,0.815574,-0.133891,-0.044665,0.000000,0.064922,0.099554,-0.000000
2.360000,-0.930992,0.162737,-1.493646,1.445234,0.427557,-0.004813,0.427299,-1.311642,0.029699,-0.978492,0.746036,-0.080154,0.214118,10.540947,0.811996,-0.133190,-0.043662,0.000000,0.075365,0.099326,-0.000000
2.370000,-0.916518,0.166947,-1.493693,1.449458,0.414478,-0.004521,0.417525,-1.303654,0.028938,-0.976113,0.851905,-0.072047,0.275116,10.584651,0.811903,-0.132383,-0.042661,0.000000,0.085908,0.099054,0.000000
2.380000,-0.902003,0.171026,-1.493737,1.453585,0.401484,-0.004235,0.407777,-1.294604,0.028258,-0.972990,0.957729,-0.063916,0.352382,10.561215,0.814784,-0.131471,-0.041663,0.000000,0.096453,0.098710,-0.000000
2.390000,-0.887447,0.174976,-1.493778,1.457614,0.388586,-0.003955,0.398065,-1.284500,0.027660,-0.969065,1.063129,-0.055751,0.416290,10.549270,0.816690,-0.130454,-0.040670,0.000000,0.106966,0.098288,0.000000
2.400000,-0.872851,0.178798,-1.493816,1.461546,0.375794,-0.003682,0.388396,-1.273342,0.027143,-0.964664,1.168714,-0.047582,0.459034,10.578864,0.816518,-0.129332,-0.039681,0.000000,0.117507,0.097821,0.000000
2.410000,-0.858216,0.182492,-1.493851,1.465382,0.363119,-0.003412,0.378772,-1.261125,0.026708,-0.959884,1.274707,-0.039421,0.501474,10.593295,0.817168,-0.128104,-0.038697,0.000000,0.128101,0.097320,-0.000000
2.420000,-0.843543,0.186060,-1.493884,1.469122,0.350572,-0.003147,0.369198,-1.247848,0.026355,-0.954634,1.380580,-0.031239,0.551230,10.533482,0.821671,-0.126770,-0.037718,0.000000,0.138695,0.096773,-0.000000
2.430000,-0.828833,0.189504,-1.493914,1.472766,0.338162,-0.002885,0.359679,-1.233514,0.026083,-0.948860,1.485376,-0.022987,0.600393,10.416447,0.829341,-0.125330,-0.036746,0.000000,0.149194,0.096177,-0.000000
2.440000,-0.814088,0.192824,-1.493942,1.476315,0.325902,-0.002626,0.350221,-1.218140,0.025895,-0.942627,1.588909,-0.014652,0.640175,10.318616,0.836261,-0.123786,-0.035780,0.000000,0.159580,0.095536,-0.000000
2.450000,-0.799307,0.196022,-1.493967,1.479770,0.313800,-0.002367,0.340827,-1.201736,0.025790,-0.936056,1.691749,-0.006262,0.675042,10.249987,0.841227,-0.122139,-0.034820,0.000000,0.169911,0.094864,-0.000000
2.460000,-0.784492,0.199100,-1.493989,1.483132,0.301867,-0.002110,0.331500,-1.184305,0.025770,-0.929126,1.793908,0.002172,0.709939,10.159741,0.847038,-0.120388,-0.033868,0.000000,0.180189,0.094159,0.000000
2.470000,-0.769644,0.202059,-1.494009,1.486400,0.290114,-0.001852,0.322244,-1.165857,0.025834,-0.921857,1.894943,0.010679,0.731963,10.030382,0.856713,-0.118535,-0.032923,0.000000,0.190370,0.093421,-0.000000
2.480000,-0.754764,0.204902,-1.494026,1.489577,0.278550,-0.001593,0.313063,-1.146406,0.025983,-0.914486,1.994516,0.019307,0.735819,9.889709,0.869516,-0.116580,-0.031986,0.000000,0.200421,0.092675,-0.000000
2.490000,-0.739853,0.207630,-1.494041,1.492662,0.267185,-0.001332,0.303954,-1.125967,0.026220,-0.907141,2.092738,0.028069,0.740047,9.756254,0.881536,-0.114526,-0.031057,0.000000,0.210351,0.091934,0.000000
2.500000,-0.724911,0.210246,-1.494053,1.495656,0.256030,-0.001069,0.294920,-1.104551,0.026545,-0.899685,2.189641,0.036937,0.767454,9.558358,0.891552,-0.112373,-0.030136,0.000000,0.220167,0.091184,0.000000
2.510000,-0.709940,0.212751,-1.494062,1.498560,0.245094,-0.000802,0.285961,-1.082174,0.026958,-0.891792,2.283905,0.045900,0.803614,9.291034,0.902225,-0.110123,-0.029222,0.000000,0.229734,0.090391,0.000000
2.520000,-0.694940,0.215148,-1.494069,1.501375,0.234387,-0.000530,0.277084,-1.058873,0.027463,-0.883613,2.375462,0.054982,0.787433,9.160182,0.916547,-0.107779,-0.028317,0.000000,0.239047,0.089571,-0.000000
2.530000,-0.679912,0.217438,-1.494073,1.504102,0.223917,-0.000252,0.268288,-1.034665,0.028058,-0.876043,2.467108,0.064231,0.724605,9.165514,0.933836,-0.105342,-0.027420,0.000000,0.248386,0.088815,-0.000000
2.540000,-0.664858,0.219626,-1.494074,1.506741,0.213694,0.000031,0.259563,-1.009531,0.028747,-0.869121,2.558772,0.073658,0.697943,9.024817,0.950057,-0.102811,-0.026531,0.000000,0.257744,0.088126,-0.000000
2.550000,-0.649777,0.221712,-1.494072,1.509293,0.203726,0.000323,0.250906,-0.983490,0.029531,-0.862084,2.647605,0.083232,0.696050,8.779829,0.963547,-0.100187,-0.025648,0.000000,0.266836,0.087427,-0.000000
2.560000,-0.634672,0.223700,-1.494067,1.511759,0.194024,0.000622,0.242321,-0.956579,0.030412,-0.855200,2.734369,0.092929,0.665487,8.614288,0.977014,-0.097474,-0.024773,0.000000,0.275737,0.086745,-0.000000
2.570000,-0.619542,0.225593,-1.494060,1.514139,0.184595,0.000931,0.233802,-0.928802,0.031390,-0.848775,2.819891,0.102772,0.658047,8.338566,0.994465,-0.094672,-0.023905,0.000000,0.284531,0.086111,-0.000000
2.580000,-0.604389,0.227392,-1.494049,1.516435,0.175448,0.001250,0.225346,-0.900181,0.032467,-0.842039,2.901140,0.112819,0.696869,7.874778,1.015152,-0.091783,-0.023043,0.000000,0.292911,0.085447,-0.000000
2.590000,-0.589213,0.229102,-1.494035,1.518646,0.166591,0.001580,0.216961,-0.870779,0.033646,-0.834837,2.977386,0.123075,0.706536,7.499901,1.033538,-0.088814,-0.022189,0.000000,0.300800,0.084737,0.000000
2.600000,-0.574016,0.230724,-1.494017,1.520774,0.158032,0.001923,0.208649,-0.840634,0.034929,-0.827908,3.051138,0.133489,0.665157,7.284367,1.047740,-0.085767,-0.021342,0.000000,0.308454,0.084056,0.000000
2.610000,-0.558798,0.232262,-1.493996,1.522819,0.149778,0.002279,0.200403,-0.809757,0.036316,-0.821534,3.123073,0.144030,0.626067,7.035017,1.061368,-0.082645,-0.020501,0.000000,0.315941,0.083433,-0.000000
2.620000,-0.543560,0.233720,-1.493972,1.524782,0.141837,0.002649,0.192218,-0.778172,0.037809,-0.815387,3.191838,0.154717,0.628812,6.637046,1.078561,-0.079448,-0.019667,0.000000,0.323123,0.082834,-0.000000
2.630000,-0.528302,0.235099,-1.493943,1.526664,0.134215,0.003035,0.184095,-0.745920,0.039410,-0.808958,3.255814,0.165601,0.653164,6.165850,1.098133,-0.076182,-0.018840,0.000000,0.329833,0.082207,-0.000000
2.640000,-0.513026,0.236404,-1.493911,1.528464,0.126919,0.003437,0.176039,-0.713056,0.041121,-0.802324,3.315155,0.176679,0.650124,5.761830,1.114323,-0.072852,-0.018018,0.000000,0.336086,0.081561,0.000000
2.650000,-0.497733,0.237638,-1.493875,1.530184,0.119954,0.003857,0.168049,-0.679617,0.042944,-0.795956,3.371051,0.187888,0.638408,5.354680,1.125588,-0.069460,-0.017204,0.000000,0.342003,0.080943,0.000000
2.660000,-0.482423,0.238803,-1.493834,1.531825,0.113326,0.004296,0.160120,-0.645635,0.044879,-0.789556,3.422249,0.199191,0.648331,4.860840,1.135516,-0.066011,-0.016396,0.000000,0.347455,0.080323,0.000000
2.670000,-0.467097,0.239904,-1.493789,1.533387,0.107041,0.004755,0.152258,-0.611172,0.046928,-0.782989,3.468268,0.210598,0.621045,4.493744,1.147034,-0.062511,-0.015594,0.000000,0.352392,0.079687,0.000000
2.680000,-0.451755,0.240944,-1.493739,1.534870,0.101103,0.005235,0.144460,-0.576269,0.049091,-0.777135,3.512124,0.222132,0.542508,4.280211,1.158812,-0.058964,-0.014799,0.000000,0.357119,0.079125,-0.000000
2.690000,-0.436399,0.241926,-1.493684,1.536276,0.095516,0.005737,0.136715,-0.540929,0.051370,-0.772139,3.553872,0.233774,0.496498,3.924521,1.166647,-0.055369,-0.014009,0.000000,0.361642,0.078652,0.000000
2.700000,-0.421030,0.242854,-1.493624,1.537604,0.090284,0.006262,0.129018,-0.505192,0.053767,-0.767205,3.590614,0.245465,0.499939,3.483247,1.169220,-0.051731,-0.013223,0.000000,0.365664,0.078186,-0.000000
2.710000,-0.405647,0.243732,-1.493559,1.538856,0.085412,0.006812,0.121371,-0.469117,0.056280,-0.762140,3.623537,0.257159,0.495297,3.151429,1.168952,-0.048055,-0.012443,0.000000,0.369306,0.077708,0.000000
2.720000,-0.390252,0.244562,-1.493488,1.540032,0.080902,0.007388,0.113775,-0.432721,0.058910,-0.757299,3.653643,0.268844,0.457610,2.689045,1.168392,-0.044345,-0.011667,0.000000,0.372668,0.077255,-0.000000
2.730000,-0.374846,0.245350,-1.493411,1.541132,0.076757,0.007990,0.106225,-0.396044,0.061657,-0.752988,3.677318,0.280527,0.410458,2.030432,1.166333,-0.040602,-0.010896,0.000000,0.375380,0.076857,0.000000
2.740000,-0.359430,0.246098,-1.493328,1.542156,0.072981,0.008621,0.098715,-0.359175,0.064520,-0.749090,3.694252,0.292171,0.383113,1.522957,1.158874,-0.036837,-0.010129,0.000000,0.377408,0.076502,-0.000000
2.750000,-0.344003,0.246809,-1.493238,1.543106,0.069574,0.009281,0.091243,-0.322159,0.067500,-0.745325,3.707777,0.303704,0.349159,1.129669,1.146202,-0.033054,-0.009365,0.000000,0.379092,0.076162,0.000000
2.760000,-0.328568,0.247489,-1.493142,1.543981,0.066538,0.009971,0.083808,-0.285019,0.070594,-0.742107,3.716845,0.315095,0.292717,0.621883,1.130368,-0.029255,-0.008605,0.000000,0.380324,0.075880,-0.000000
2.770000,-0.313124,0.248140,-1.493039,1.544782,0.063874,0.010693,0.076401,-0.247822,0.073802,-0.739471,3.720215,0.326311,0.290813,0.218041,1.109286,-0.025447,-0.007847,0.000000,0.380975,0.075659,0.000000
2.780000,-0.297672,0.248767,-1.492928,1.545509,0.061581,0.011447,0.069019,-0.210615,0.077121,-0.736290,3.721206,0.337280,0.352172,0.008610,1.081524,-0.021636,-0.007091,0.000000,0.381384,0.075383,-0.000000
2.790000,-0.282213,0.249372,-1.492810,1.546163,0.059661,0.012235,0.061675,-0.173398,0.080547,-0.732428,3.720387,0.347942,0.370055,-0.324904,1.049537,-0.017820,-0.006339,0.000000,0.381609,0.075038,0.000000
2.800000,-0.266749,0.249960,-1.492684,1.546743,0.058113,0.013058,0.054371,-0.136207,0.084079,-0.728889,3.714708,0.358271,0.334853,-0.821739,1.015204,-0.014003,-0.005590,0.000000,0.381336,0.074727,-0.000000
2.810000,-0.251279,0.250534,-1.492549,1.547250,0.056937,0.013917,0.047097,-0.099104,0.087713,-0.725731,3.703952,0.368246,0.318932,-1.262262,0.976200,-0.010193,-0.004844,0.000000,0.380542,0.074457,-0.000000
2.820000,-0.235804,0.251099,-1.492405,1.547685,0.056131,0.014812,0.039856,-0.062128,0.091444,-0.722511,3.689462,0.377795,0.323269,-1.635962,0.926964,-0.006393,-0.004101,0.000000,0.379362,0.074181,-0.000000
2.830000,-0.220325,0.251657,-1.492253,1.548047,0.055695,0.015746,0.032647,-0.025315,0.095269,-0.719265,3.671233,0.386785,0.318898,-2.029754,0.867447,-0.002606,-0.003361,0.000000,0.377795,0.073904,-0.000000
2.840000,-0.204843,0.252212,-1.492091,1.548338,0.055625,0.016718,0.025471,0.011296,0.099180,-0.716133,3.648867,0.395144,0.311123,-2.436157,0.804608,0.001163,-0.002623,0.000000,0.375799,0.073639,0.000000
2.850000,-0.189358,0.252769,-1.491918,1.548557,0.055921,0.017729,0.018325,0.047663,0.103172,-0.713043,3.622510,0.402877,0.326701,-2.773420,0.741251,0.004910,-0.001888,0.000000,0.373387,0.073378,0.000000
2.860000,-0.173872,0.253331,-1.491736,1.548704,0.056578,0.018781,0.011210,0.083747,0.107238,-0.709599,3.593399,0.409969,0.358630,-3.055844,0.672130,0.008631,-0.001155,0.000000,0.370686,0.073082,0.000000
2.870000,-0.158384,0.253901,-1.491543,1.548781,0.057595,0.019874,0.004133,0.119531,0.111371,-0.705870,3.561393,0.416320,0.339749,-3.488126,0.589619,0.012324,-0.000426,0.000000,0.367679,0.072757,0.000000
2.880000,-0.142896,0.254483,-1.491338,1.548787,0.058969,0.021008,-0.002908,0.154974,0.115564,-0.702804,3.523636,0.421761,0.272525,-4.064687,0.494521,0.015985,0.000300,0.000000,0.364072,0.072499,0.000000
2.890000,-0.127408,0.255080,-1.491123,1.548723,0.060695,0.022185,-0.009923,0.190003,0.119806,-0.700420,3.480099,0.426210,0.248065,-4.505600,0.396671,0.019605,0.001024,0.000000,0.359859,0.072312,-0.000000
2.900000,-0.111922,0.255697,-1.490895,1.548588,0.062769,0.023405,-0.016916,0.224576,0.124088,-0.697842,3.433524,0.429695,0.255972,-4.838493,0.300667,0.023182,0.001746,0.000000,0.355321,0.072105,-0.000000
2.910000,-0.096437,0.256336,-1.490654,1.548384,0.065186,0.024667,-0.023880,0.258674,0.128400,-0.695300,3.383329,0.432224,0.236533,-5.245946,0.199401,0.026712,0.002467,0.000000,0.350397,0.071901,0.000000
2.920000,-0.080954,0.257000,-1.490401,1.548111,0.067942,0.025973,-0.030822,0.292243,0.132733,-0.693112,3.328605,0.433683,0.240295,-5.581477,0.080666,0.030190,0.003185,0.000000,0.344991,0.071732,0.000000
2.930000,-0.065474,0.257694,-1.490135,1.547768,0.071031,0.027322,-0.037743,0.325246,0.137074,-0.690494,3.271700,0.433837,0.290167,-5.773940,-0.054145,0.033611,0.003902,0.000000,0.339345,0.071518,0.000000
2.940000,-0.049999,0.258421,-1.489855,1.547356,0.074447,0.028714,-0.044632,0.357677,0.141409,-0.687308,3.213127,0.432600,0.311816,-6.038071,-0.188677,0.036976,0.004616,0.000000,0.333509,0.071243,0.000000
2.950000,-0.034527,0.259183,-1.489561,1.546875,0.078185,0.030150,-0.051489,0.389508,0.145726,-0.684258,3.150938,0.430064,0.297772,-6.398058,-0.317126,0.040282,0.005328,0.000000,0.327282,0.070980,-0.000000
2.960000,-0.019061,0.259985,-1.489252,1.546326,0.082238,0.031629,-0.058317,0.420696,0.150011,-0.681353,3.085165,0.426257,0.299108,-6.704628,-0.450742,0.043522,0.006037,0.000000,0.320665,0.070730,0.000000
2.970000,-0.003601,0.260828,-1.488928,1.545709,0.086599,0.033150,-0.065116,0.451212,0.154251,-0.678276,3.016846,0.421049,0.312488,-6.958500,-0.603295,0.046695,0.006744,0.000000,0.313764,0.070460,-0.000000
2.980000,0.011853,0.261717,-1.488589,1.545024,0.091262,0.034714,-0.071883,0.481033,0.158432,-0.675103,2.945996,0.414192,0.319630,-7.211330,-0.771712,0.049797,0.007448,0.000000,0.306578,0.070176,-0.000000
2.990000,0.027300,0.262653,-1.488234,1.544271,0.096219,0.036319,-0.078618,0.510132,0.162535,-0.671883,2.872619,0.405614,0.329601,-7.447436,-0.937448,0.052826,0.008149,0.000000,0.299106,0.069884,-0.000000
3.000000,0.042739,0.263641,-1.487863,1.543451,0.101464,0.037964,-0.085320,0.538485,0.166544,-0.668511,2.797047,0.395443,0.346068,-7.659928,-1.094630,0.055779,0.008847,0.000000,0.291382,0.069572,-0.000000
3.010000,0.058169,0.264683,-1.487475,1.542565,0.106989,0.039649,-0.091988,0.566073,0.170444,-0.664962,2.719421,0.383722,0.361978,-7.860649,-1.255535,0.058654,0.009542,0.000000,0.283419,0.069237,0.000000
3.020000,0.073590,0.265781,-1.487070,1.541612,0.112786,0.041373,-0.098620,0.592873,0.174218,-0.661271,2.639834,0.370332,0.375455,-8.043896,-1.433507,0.061448,0.010234,0.000000,0.275227,0.068883,-0.000000
3.030000,0.089001,0.266938,-1.486647,1.540592,0.118847,0.043134,-0.105213,0.618869,0.177850,-0.657453,2.558543,0.355052,0.388820,-8.204132,-1.624703,0.064158,0.010923,0.000000,0.266828,0.068509,-0.000000
3.040000,0.104402,0.268158,-1.486207,1.539507,0.125163,0.044930,-0.111769,0.644044,0.181319,-0.653495,2.475751,0.337838,0.403733,-8.349861,-1.810772,0.066784,0.011607,0.000000,0.258244,0.068116,-0.000000
3.050000,0.119791,0.269442,-1.485749,1.538357,0.131728,0.046760,-0.118283,0.668384,0.184607,-0.649378,2.391545,0.318836,0.419795,-8.486977,-1.986587,0.069323,0.012288,0.000000,0.249483,0.067699,-0.000000
3.060000,0.135169,0.270792,-1.485272,1.537142,0.138531,0.048622,-0.124756,0.691875,0.187696,-0.645099,2.306012,0.298106,0.435825,-8.608747,-2.163854,0.071774,0.012965,0.000000,0.240554,0.067259,0.000000
3.070000,0.150534,0.272212,-1.484776,1.535862,0.145565,0.050514,-0.131185,0.714504,0.190569,-0.640662,2.219370,0.275559,0.451982,-8.700850,-2.353109,0.074134,0.013637,0.000000,0.231479,0.066795,-0.000000
3.080000,0.165886,0.273704,-1.484261,1.534518,0.152821,0.052434,-0.137569,0.736263,0.193207,-0.636060,2.131995,0.251044,0.468560,-8.764167,-2.550099,0.076403,0.014304,0.000000,0.222295,0.066306,-0.000000
3.090000,0.181224,0.275269,-1.483727,1.533111,0.160290,0.054378,-0.143907,0.757144,0.195590,-0.631290,2.044087,0.224557,0.485025,-8.817624,-2.739885,0.078580,0.014967,0.000000,0.213023,0.065792,0.000000
3.100000,0.196548,0.276909,-1.483174,1.531640,0.167964,0.056345,-0.150195,0.777144,0.197698,-0.626359,1.955642,0.196246,0.501191,-8.867996,-2.919150,0.080664,0.015624,0.000000,0.203664,0.065252,-0.000000
3.110000,0.211857,0.278628,-1.482601,1.530107,0.175833,0.058332,-0.156434,0.796257,0.199515,-0.621267,1.866727,0.166174,0.517291,-8.901987,-3.096840,0.082653,0.016276,0.000000,0.194225,0.064687,0.000000
3.120000,0.227150,0.280426,-1.482007,1.528511,0.183889,0.060336,-0.162621,0.814479,0.201022,-0.616013,1.777602,0.134309,0.533221,-8.903121,-3.278301,0.084548,0.016922,0.000000,0.184733,0.064096,0.000000
3.130000,0.242427,0.282306,-1.481394,1.526854,0.192123,0.062353,-0.168754,0.831809,0.202201,-0.610602,1.688665,0.100608,0.548745,-8.874811,-3.459535,0.086348,0.017562,0.000000,0.175229,0.063480,0.000000
3.140000,0.257687,0.284269,-1.480760,1.525136,0.200525,0.064380,-0.174833,0.848252,0.203034,-0.605038,1.600106,0.065119,0.563845,-8.838876,-3.632229,0.088053,0.018197,0.000000,0.165735,0.062837,-0.000000
3.150000,0.272930,0.286316,-1.480106,1.523358,0.209088,0.066413,-0.180855,0.863811,0.203504,-0.599325,1.511887,0.027964,0.578630,-8.802096,-3.795745,0.089663,0.018824,0.000000,0.156247,0.062169,-0.000000
3.160000,0.288155,0.288450,-1.479432,1.521519,0.217801,0.068450,-0.186819,0.878490,0.203593,-0.593466,1.424064,-0.010796,0.592922,-8.749762,-3.954206,0.091178,0.019445,0.000000,0.146774,0.061476,-0.000000
3.170000,0.303360,0.290672,-1.478737,1.519621,0.226658,0.070485,-0.192724,0.892293,0.203288,-0.587467,1.336892,-0.051120,0.606068,-8.666044,-4.105941,0.092598,0.020059,0.000000,0.137342,0.060759,0.000000
3.180000,0.318547,0.292983,-1.478022,1.517665,0.235647,0.072516,-0.198568,0.905228,0.202571,-0.581344,1.250743,-0.092915,0.617958,-8.555377,-4.247938,0.093924,0.020665,0.000000,0.127993,0.060019,-0.000000
3.190000,0.333714,0.295385,-1.477287,1.515650,0.244762,0.074537,-0.204351,0.917308,0.201429,-0.575108,1.165784,-0.136079,0.629313,-8.439104,-4.381062,0.095158,0.021264,0.000000,0.118746,0.059256,-0.000000
3.200000,0.348860,0.297879,-1.476531,1.513578,0.253993,0.076544,-0.210071,0.928543,0.199849,-0.568758,1.081961,-0.180536,0.640361,-8.322897,-4.507799,0.096299,0.021856,0.000000,0.109597,0.058472,0.000000
3.210000,0.363985,0.300465,-1.475756,1.511448,0.263333,0.078534,-0.215726,0.938947,0.197819,-0.562301,0.999327,-0.226235,0.650437,-8.192919,-4.625870,0.097350,0.022439,0.000000,0.100554,0.057667,-0.000000
3.220000,0.379089,0.303145,-1.474961,1.509263,0.272772,0.080501,-0.221317,0.948530,0.195325,-0.555749,0.918103,-0.273054,0.658745,-8.037125,-4.725936,0.098310,0.023015,0.000000,0.091642,0.056842,0.000000
3.230000,0.394171,0.305921,-1.474146,1.507022,0.282304,0.082440,-0.226841,0.957309,0.192358,-0.549126,0.838584,-0.320754,0.665472,-7.860533,-4.806714,0.099183,0.023582,0.000000,0.082896,0.056001,0.000000
3.240000,0.409229,0.308791,-1.473312,1.504726,0.291919,0.084348,-0.232299,0.965302,0.188910,-0.542440,0.760892,-0.369188,0.671443,-7.679813,-4.879249,0.099968,0.024140,0.000000,0.074332,0.055145,-0.000000
3.250000,0.424265,0.311759,-1.472459,1.502376,0.301610,0.086218,-0.237690,0.972527,0.184974,-0.535697,0.684988,-0.418339,0.676047,-7.497223,-4.949066,0.100669,0.024690,0.000000,0.065946,0.054274,0.000000
3.260000,0.439277,0.314824,-1.471588,1.499972,0.311369,0.088047,-0.243013,0.979001,0.180543,-0.528919,0.610948,-0.468169,0.678659,-7.302682,-5.007053,0.101287,0.025231,0.000000,0.057750,0.053391,-0.000000
3.270000,0.454265,0.317986,-1.470698,1.497516,0.321190,0.089829,-0.248268,0.984746,0.175610,-0.522124,0.538934,-0.518480,0.680803,-7.093740,-5.036851,0.101824,0.025763,0.000000,0.049763,0.052499,-0.000000
3.280000,0.469227,0.321247,-1.469791,1.495007,0.331064,0.091559,-0.253456,0.989780,0.170173,-0.515303,0.469073,-0.568906,0.681985,-6.873056,-5.039315,0.102282,0.026286,0.000000,0.042003,0.051597,0.000000
3.290000,0.484165,0.324608,-1.468867,1.492447,0.340985,0.093233,-0.258574,0.994127,0.164232,-0.508484,0.401473,-0.619266,0.680039,-6.645194,-5.034983,0.102664,0.026801,0.000000,0.034486,0.050690,-0.000000
3.300000,0.499076,0.328067,-1.467926,1.489836,0.350947,0.094844,-0.263625,0.997810,0.157788,-0.501702,0.336169,-0.669606,0.679549,-6.423362,-5.031829,0.102972,0.027306,0.000000,0.027214,0.049781,-0.000000
3.310000,0.513961,0.331626,-1.466970,1.487174,0.360941,0.096388,-0.268608,1.000850,0.150840,-0.494893,0.273006,-0.719903,0.681474,-6.204903,-5.014678,0.103209,0.027802,0.000000,0.020175,0.048864,-0.000000
3.320000,0.528820,0.335286,-1.465999,1.484463,0.370964,0.097861,-0.273523,1.003270,0.143390,-0.488073,0.212071,-0.769900,0.671695,-5.954114,-4.961979,0.103376,0.028288,0.000000,0.013381,0.047941,0.000000
3.330000,0.543651,0.339046,-1.465013,1.481704,0.381007,0.099256,-0.278370,1.005092,0.135442,-0.481459,0.153923,-0.819142,0.649012,-5.672597,-4.876729,0.103476,0.028765,0.000000,0.006895,0.047037,0.000000
3.340000,0.558454,0.342906,-1.464014,1.478896,0.391065,0.100570,-0.283152,1.006348,0.127007,-0.475092,0.098619,-0.867434,0.633020,-5.411341,-4.786781,0.103514,0.029234,0.000000,0.000725,0.046157,0.000000
3.350000,0.573229,0.346867,-1.463001,1.476041,0.401134,0.101796,-0.287872,1.007064,0.118093,-0.468799,0.045697,-0.914878,0.627947,-5.170443,-4.701475,0.103491,0.029694,0.000000,-0.005176,0.045283,-0.000000
3.360000,0.587975,0.350929,-1.461978,1.473139,0.411207,0.102932,-0.292528,1.007262,0.108709,-0.462533,-0.004790,-0.961464,0.620440,-4.917792,-4.601201,0.103410,0.030144,0.000000,-0.010802,0.044410,-0.000000
3.370000,0.602691,0.355091,-1.460943,1.470190,0.421279,0.103971,-0.297122,1.006968,0.098864,-0.456390,-0.052659,-1.006902,0.603199,-4.668658,-4.462531,0.103275,0.030587,0.000000,-0.016132,0.043550,-0.000000
3.380000,0.617378,0.359354,-1.459898,1.467196,0.431346,0.104909,-0.301656,1.006209,0.088571,-0.450469,-0.098163,-1.050714,0.582771,-4.440895,-4.290519,0.103088,0.031020,0.000000,-0.021185,0.042715,-0.000000
3.390000,0.632035,0.363718,-1.458845,1.464157,0.441403,0.105742,-0.306132,1.005005,0.077850,-0.444734,-0.141477,-1.092712,0.567849,-4.212194,-4.115955,0.102851,0.031445,0.000000,-0.025979,0.041901,-0.000000
3.400000,0.646662,0.368182,-1.457783,1.461073,0.451446,0.106466,-0.310551,1.003379,0.066717,-0.439113,-0.182407,-1.133033,0.544580,-3.947578,-3.947901,0.102568,0.031863,0.000000,-0.030494,0.041103,0.000000
3.410000,0.661257,0.372747,-1.456715,1.457946,0.461471,0.107076,-0.314914,1.001357,0.055189,-0.433843,-0.220429,-1.171670,0.508676,-3.667052,-3.765474,0.102241,0.032272,0.000000,-0.034678,0.040343,0.000000
3.420000,0.675820,0.377412,-1.455642,1.454775,0.471473,0.107570,-0.319228,0.998971,0.043284,-0.428939,-0.255748,-1.208343,0.500756,-3.465737,-3.547318,0.101875,0.032674,0.000000,-0.038550,0.039626,0.000000
3.430000,0.690352,0.382176,-1.454564,1.451561,0.481450,0.107942,-0.323493,0.996242,0.031022,-0.423828,-0.289743,-1.242617,0.522153,-3.336913,-3.299646,0.101471,0.033068,0.000000,-0.042245,0.038893,-0.000000
3.440000,0.704852,0.387041,-1.453483,1.448305,0.491398,0.108190,-0.327704,0.993176,0.018431,-0.418496,-0.322486,-1.274336,0.516980,-3.153789,-3.051101,0.101030,0.033455,0.000000,-0.045770,0.038146,-0.000000
3.450000,0.719318,0.392004,-1.452400,1.445007,0.501314,0.108311,-0.331863,0.989792,0.005536,-0.413488,-0.352819,-1.303639,0.492269,-2.935359,-2.809483,0.100555,0.033835,0.000000,-0.049010,0.037440,-0.000000
3.460000,0.733752,0.397067,-1.451317,1.441668,0.511194,0.108301,-0.335974,0.986120,-0.007641,-0.408651,-0.381193,-1.330525,0.484647,-2.765131,-2.556075,0.100050,0.034208,0.000000,-0.052012,0.036758,0.000000
3.470000,0.748152,0.402228,-1.450234,1.438288,0.521036,0.108158,-0.340036,0.982169,-0.021075,-0.403795,-0.408122,-1.354760,0.459848,-2.562830,-2.273866,0.099515,0.034574,0.000000,-0.054826,0.036084,-0.000000
3.480000,0.762518,0.407488,-1.449154,1.434867,0.530837,0.107879,-0.344050,0.977957,-0.034737,-0.399454,-0.432450,-1.376003,0.402773,-2.296738,-1.969271,0.098953,0.034933,0.000000,-0.057335,0.035473,-0.000000
3.490000,0.776849,0.412845,-1.448077,1.431407,0.540595,0.107463,-0.348025,0.973520,-0.048595,-0.395740,-0.454057,-1.394146,0.363811,-2.085377,-1.665747,0.098368,0.035287,0.000000,-0.059527,0.034936,-0.000000
3.500000,0.791146,0.418300,-1.447004,1.427907,0.550308,0.106907,-0.351965,0.968876,-0.062619,-0.392177,-0.474157,-1.409318,0.354786,-1.941543,-1.368426,0.097763,0.035635,0.000000,-0.061526,0.034425,0.000000
3.510000,0.805407,0.423851,-1.445938,1.424368,0.559973,0.106211,-0.355868,0.964036,-0.076781,-0.388644,-0.492887,-1.421514,0.340646,-1.784924,-1.062811,0.097138,0.035979,0.000000,-0.063349,0.033929,0.000000
3.520000,0.819633,0.429499,-1.444880,1.420790,0.569589,0.105372,-0.359737,0.959018,-0.091050,-0.385364,-0.509856,-1.430574,0.303869,-1.619152,-0.739724,0.096496,0.036317,0.000000,-0.064957,0.033471,0.000000
3.530000,0.833823,0.435243,-1.443831,1.417173,0.579153,0.104390,-0.363576,0.953839,-0.105393,-0.382567,-0.525270,-1.436309,0.258109,-1.478200,-0.405092,0.095839,0.036651,0.000000,-0.066369,0.033074,0.000000
3.540000,0.847977,0.441082,-1.442792,1.413518,0.588665,0.103264,-0.367389,0.948513,-0.119776,-0.380202,-0.539420,-1.438676,0.224326,-1.350322,-0.072441,0.095168,0.036982,0.000000,-0.067617,0.032735,-0.000000
3.550000,0.862093,0.447016,-1.441766,1.409825,0.598123,0.101994,-0.371180,0.943051,-0.134166,-0.378080,-0.552277,-1.437758,0.190528,-1.197893,0.256543,0.094486,0.037309,0.000000,-0.068699,0.032433,-0.000000
3.560000,0.876173,0.453045,-1.440752,1.406094,0.607526,0.100581,-0.374950,0.937467,-0.148531,-0.376392,-0.563378,-1.433545,0.144506,-1.033902,0.589145,0.093794,0.037633,0.000000,-0.069573,0.032188,0.000000
3.570000,0.890215,0.459167,-1.439754,1.402326,0.616873,0.099024,-0.378708,0.931783,-0.162837,-0.375190,-0.572955,-1.425975,0.121770,-0.955787,0.925513,0.093095,0.037956,0.000000,-0.070262,0.032006,0.000000
3.580000,0.904220,0.465382,-1.438772,1.398520,0.626162,0.097324,-0.382454,0.926008,-0.177051,-0.373956,-0.582493,-1.415035,0.127483,-0.961670,1.261396,0.092389,0.038276,0.000000,-0.070915,0.031835,-0.000000
3.590000,0.918186,0.471690,-1.437808,1.394677,0.635393,0.095483,-0.386187,0.920133,-0.191138,-0.372640,-0.592188,-1.400747,0.112276,-0.919529,1.594901,0.091677,0.038595,0.000000,-0.071552,0.031671,0.000000
3.600000,0.932113,0.478090,-1.436862,1.390797,0.644565,0.093501,-0.389907,0.914164,-0.205066,-0.371711,-0.600884,-1.383137,0.076173,-0.827242,1.927381,0.090958,0.038912,0.000000,-0.072062,0.031559,0.000000
3.610000,0.946002,0.484581,-1.435938,1.386879,0.653676,0.091381,-0.393621,0.908116,-0.218801,-0.371117,-0.608733,-1.362199,0.052446,-0.772955,2.258010,0.090235,0.039229,0.000000,-0.072461,0.031497,-0.000000
3.620000,0.959851,0.491164,-1.435035,1.382924,0.662727,0.089125,-0.397329,0.901990,-0.232310,-0.370662,-0.616343,-1.337976,0.028317,-0.733993,2.579707,0.089509,0.039545,0.000000,-0.072810,0.031463,0.000000
3.630000,0.973660,0.497836,-1.434155,1.378932,0.671716,0.086735,-0.401034,0.895789,-0.245560,-0.370550,-0.623413,-1.310605,-0.008323,-0.678481,2.890583,0.088779,0.039861,0.000000,-0.073082,0.031478,-0.000000
3.640000,0.987429,0.504598,-1.433300,1.374903,0.680643,0.084214,-0.404740,0.889522,-0.258522,-0.370828,-0.629913,-1.280165,-0.036935,-0.644444,3.197983,0.088047,0.040177,0.000000,-0.073277,0.031546,0.000000
3.650000,1.001158,0.511449,-1.432471,1.370837,0.689506,0.081565,-0.408451,0.883191,-0.271163,-0.371289,-0.636302,-1.246645,-0.054653,-0.635473,3.505679,0.087314,0.040494,0.000000,-0.073441,0.031647,0.000000
3.660000,1.014846,0.518388,-1.431669,1.366734,0.698307,0.078791,-0.412166,0.876795,-0.283455,-0.371921,-0.642622,-1.210051,-0.075737,-0.624218,3.806719,0.086578,0.040812,0.000000,-0.073578,0.031780,-0.000000
3.670000,1.028493,0.525415,-1.430895,1.362594,0.707042,0.075896,-0.415889,0.870338,-0.295364,-0.372804,-0.648786,-1.170511,-0.099099,-0.619640,4.088230,0.085842,0.041132,0.000000,-0.073683,0.031952,0.000000
3.680000,1.042098,0.532529,-1.430151,1.358417,0.715713,0.072883,-0.419622,0.863820,-0.306865,-0.373903,-0.655015,-1.128287,-0.119558,-0.631289,4.350251,0.085105,0.041454,0.000000,-0.073781,0.032160,0.000000
3.690000,1.055661,0.539729,-1.429437,1.354202,0.724319,0.069758,-0.423367,0.857238,-0.317930,-0.375195,-0.661412,-1.083506,-0.139869,-0.643233,4.607852,0.084366,0.041778,0.000000,-0.073882,0.032401,-0.000000
3.700000,1.069182,0.547015,-1.428756,1.349949,0.732858,0.066525,-0.427126,0.850592,-0.328535,-0.376701,-0.667880,-1.036129,-0.161272,-0.651489,4.866376,0.083627,0.042104,0.000000,-0.073979,0.032677,-0.000000
3.710000,1.082660,0.554386,-1.428107,1.345659,0.741331,0.063188,-0.430901,0.843880,-0.338653,-0.378420,-0.674442,-0.986178,-0.181572,-0.666515,5.113891,0.082887,0.042433,0.000000,-0.074075,0.032989,0.000000
3.720000,1.096095,0.561842,-1.427492,1.341331,0.749736,0.059752,-0.434694,0.837103,-0.348258,-0.380332,-0.681210,-0.933852,-0.199668,-0.690708,5.334355,0.082146,0.042766,0.000000,-0.074182,0.033333,-0.000000
3.730000,1.109487,0.569381,-1.426912,1.336965,0.758073,0.056222,-0.438508,0.830256,-0.357330,-0.382414,-0.688256,-0.879491,-0.216220,-0.719596,5.529646,0.081403,0.043102,0.000000,-0.074312,0.033706,0.000000
3.740000,1.122835,0.577003,-1.426367,1.332561,0.766341,0.052605,-0.442343,0.823338,-0.365848,-0.384657,-0.695602,-0.823259,-0.232437,-0.749745,5.719316,0.080659,0.043443,0.000000,-0.074467,0.034108,0.000000
3.750000,1.136138,0.584708,-1.425860,1.328118,0.774539,0.048905,-0.446201,0.816344,-0.373795,-0.387063,-0.703251,-0.765105,-0.248441,-0.782315,5.909526,0.079914,0.043787,0.000000,-0.074649,0.034539,-0.000000
3.760000,1.149397,0.592494,-1.425389,1.323637,0.782668,0.045129,-0.450084,0.809273,-0.381150,-0.389625,-0.711248,-0.705068,-0.263358,-0.818484,6.085690,0.079166,0.044136,0.000000,-0.074863,0.034998,0.000000
3.770000,1.162611,0.600361,-1.424957,1.319117,0.790725,0.041282,-0.453993,0.802119,-0.387896,-0.392330,-0.719621,-0.643391,-0.276683,-0.853726,6.230575,0.078416,0.044489,0.000000,-0.075114,0.035483,-0.000000
3.780000,1.175779,0.608309,-1.424564,1.314557,0.798710,0.037371,-0.457931,0.794880,-0.394018,-0.395159,-0.728323,-0.580457,-0.288589,-0.886447,6.347294,0.077664,0.044847,0.000000,-0.075401,0.035991,-0.000000
3.790000,1.188902,0.616335,-1.424210,1.309958,0.806622,0.033402,-0.461897,0.787553,-0.399505,-0.398102,-0.737350,-0.516445,-0.299639,-0.921884,6.457364,0.076908,0.045211,0.000000,-0.075724,0.036521,0.000000
3.800000,1.201978,0.624441,-1.423896,1.305319,0.814461,0.029381,-0.465893,0.780133,-0.404347,-0.401152,-0.746760,-0.451309,-0.310313,-0.962598,6.567105,0.076149,0.045580,0.000000,-0.076091,0.037073,-0.000000
3.810000,1.215008,0.632625,-1.423622,1.300640,0.822225,0.025315,-0.469920,0.772617,-0.408532,-0.404308,-0.756601,-0.385103,-0.320145,-1.003984,6.661105,0.075386,0.045955,0.000000,-0.076505,0.037646,-0.000000
3.820000,1.227991,0.640886,-1.423389,1.295921,0.829913,0.021210,-0.473979,0.765001,-0.412049,-0.407555,-0.766840,-0.318087,-0.327685,-1.038243,6.722630,0.074619,0.046335,0.000000,-0.076967,0.038238,0.000000
3.830000,1.240927,0.649223,-1.423198,1.291161,0.837525,0.017074,-0.478071,0.757281,-0.414893,-0.410861,-0.777366,-0.250651,-0.332969,-1.065622,6.755507,0.073847,0.046722,0.000000,-0.077468,0.038845,0.000000
3.840000,1.253814,0.657636,-1.423048,1.286359,0.845059,0.012913,-0.482196,0.749454,-0.417062,-0.414214,-0.788153,-0.182977,-0.337922,-1.095562,6.781094,0.073070,0.047114,0.000000,-0.078008,0.039465,0.000000
3.850000,1.266654,0.666124,-1.422940,1.281517,0.852514,0.008733,-0.486355,0.741518,-0.418553,-0.417620,-0.799278,-0.115029,-0.343058,-1.131975,6.805364,0.072287,0.047513,0.000000,-0.078594,0.040098,0.000000
3.860000,1.279445,0.674686,-1.422873,1.276632,0.859889,0.004542,-0.490548,0.733468,-0.419363,-0.421075,-0.810792,-0.046870,-0.347026,-1.167561,6.813512,0.071498,0.047918,0.000000,-0.079232,0.040745,-0.000000
3.870000,1.292187,0.683322,-1.422849,1.271706,0.867184,0.000346,-0.494777,0.725302,-0.419490,-0.424560,-0.822629,0.021242,-0.348729,-1.191156,6.790607,0.070702,0.048330,0.000000,-0.079918,0.041403,0.000000
3.880000,1.304879,0.692030,-1.422866,1.266737,0.874395,-0.003848,-0.499040,0.717016,-0.418938,-0.428050,-0.834615,0.088942,-0.348882,-1.203969,6.740780,0.069899,0.048748,0.000000,-0.080637,0.042068,-0.000000
3.890000,1.317521,0.700810,-1.422926,1.261725,0.881524,-0.008033,-0.503338,0.708609,-0.417711,-0.431538,-0.846708,0.156057,-0.348743,-1.220119,6.683569,0.069089,0.049173,0.000000,-0.081386,0.042738,0.000000
3.900000,1.330113,0.709660,-1.423027,1.256670,0.888568,-0.012202,-0.507670,0.700081,-0.415817,-0.435025,-0.859018,0.222614,-0.346308,-1.244234,6.624189,0.068272,0.049605,0.000000,-0.082176,0.043414,0.000000
3.910000,1.342655,0.718581,-1.423170,1.251572,0.895526,-0.016349,-0.512038,0.691429,-0.413259,-0.438464,-0.871593,0.288541,-0.340974,-1.266160,6.549479,0.067446,0.050044,0.000000,-0.083013,0.044091,0.000000
3.920000,1.355145,0.727571,-1.423354,1.246429,0.902396,-0.020468,-0.516440,0.682650,-0.410046,-0.441844,-0.884341,0.353603,-0.338732,-1.273937,6.447176,0.066611,0.050489,0.000000,-0.083890,0.044767,0.000000
3.930000,1.367583,0.736629,-1.423579,1.241243,0.909179,-0.024550,-0.520875,0.673742,-0.406187,-0.445239,-0.897072,0.417484,-0.339612,-1.270283,6.321347,0.065768,0.050941,0.000000,-0.084789,0.045448,0.000000
3.940000,1.379970,0.745755,-1.423845,1.236012,0.915871,-0.028591,-0.525344,0.664708,-0.401696,-0.448636,-0.909746,0.480030,-0.335245,-1.270457,6.188539,0.064916,0.051400,0.000000,-0.085708,0.046132,-0.000000
3.950000,1.392304,0.754946,-1.424151,1.230736,0.922473,-0.032584,-0.529848,0.655547,-0.396587,-0.451944,-0.922481,0.541255,-0.327531,-1.276916,6.053171,0.064054,0.051866,0.000000,-0.086658,0.046810,0.000000
3.960000,1.404584,0.764204,-1.424497,1.225415,0.928982,-0.036523,-0.534383,0.646259,-0.390871,-0.455187,-0.935285,0.601094,-0.321892,-1.279257,5.904516,0.063182,0.052338,0.000000,-0.087640,0.047484,0.000000
3.970000,1.416812,0.773526,-1.424881,1.220048,0.935398,-0.040402,-0.538951,0.636842,-0.384565,-0.458382,-0.948066,0.659346,-0.310619,-1.272178,5.733092,0.062301,0.052817,0.000000,-0.088647,0.048154,-0.000000
3.980000,1.428985,0.782912,-1.425305,1.214636,0.941719,-0.044214,-0.543551,0.627297,-0.377684,-0.461399,-0.960728,0.715755,-0.291325,-1.258710,5.542631,0.061409,0.053303,0.000000,-0.089671,0.048807,0.000000
3.990000,1.441105,0.792361,-1.425766,1.209177,0.947944,-0.047955,-0.548179,0.617627,-0.370250,-0.464208,-0.973240,0.770198,-0.275108,-1.245383,5.346344,0.060507,0.053795,0.000000,-0.090708,0.049439,-0.000000
4.000000,1.453169,0.801871,-1.426264,1.203672,0.954071,-0.051619,-0.552835,0.607832,-0.362280,-0.466902,-0.985636,0.822682,-0.264251,-1.235429,5.147544,0.059595,0.054294,0.000000,-0.091762,0.050058,0.000000
4.010000,1.465178,0.811442,-1.426798,1.198121,0.960100,-0.055201,-0.557517,0.597914,-0.353796,-0.469493,-0.997949,0.873149,-0.251080,-1.224413,4.938172,0.058672,0.054798,0.000000,-0.092836,0.050665,0.000000
4.020000,1.477131,0.821073,-1.427368,1.192522,0.966030,-0.058695,-0.562225,0.587874,-0.344817,-0.471923,-1.010124,0.921446,-0.232343,-1.203296,4.712001,0.057738,0.055309,0.000000,-0.093926,0.051254,0.000000
4.030000,1.489028,0.830763,-1.427972,1.186876,0.971858,-0.062097,-0.566956,0.577712,-0.335367,-0.474140,-1.022015,0.967389,-0.211021,-1.173222,4.472244,0.056794,0.055825,0.000000,-0.095017,0.051817,0.000000
4.040000,1.500869,0.840510,-1.428610,1.181183,0.977584,-0.065403,-0.571708,0.567433,-0.325469,-0.476144,-1.033589,1.010891,-0.190909,-1.146608,4.228202,0.055838,0.056347,0.000000,-0.096106,0.052355,-0.000000
4.050000,1.512652,0.850314,-1.429280,1.175442,0.983207,-0.068607,-0.576479,0.557040,-0.315149,-0.477958,-1.044947,1.051953,-0.169642,-1.126296,3.982036,0.054871,0.056874,0.000000,-0.097202,0.052869,-0.000000
4.060000,1.524378,0.860174,-1.429982,1.169653,0.988725,-0.071706,-0.581267,0.546534,-0.304430,-0.479536,-1.056115,1.090531,-0.145065,-1.104103,3.728564,0.053894,0.057406,0.000000,-0.098308,0.053353,0.000000
4.070000,1.536045,0.870089,-1.430714,1.163817,0.994137,-0.074695,-0.586069,0.535918,-0.293339,-0.480859,-1.067029,1.126524,-0.124008,-1.074741,3.464894,0.052905,0.057943,0.000000,-0.099417,0.053805,0.000000
4.080000,1.547654,0.880057,-1.431476,1.157932,0.999443,-0.077572,-0.590884,0.525194,-0.281900,-0.482017,-1.077609,1.159829,-0.107319,-1.041461,3.193662,0.051905,0.058484,0.000000,-0.100520,0.054232,-0.000000
4.090000,1.559204,0.890078,-1.432266,1.151999,1.004641,-0.080333,-0.595710,0.514366,-0.270142,-0.483006,-1.087858,1.190398,-0.085523,-1.011309,2.920014,0.050895,0.059029,0.000000,-0.101618,0.054634,-0.000000
4.100000,1.570694,0.900150,-1.433082,1.146018,1.009730,-0.082975,-0.600544,0.503437,-0.258092,-0.483727,-1.097836,1.218229,-0.059284,-0.982984,2.644790,0.049873,0.059578,0.000000,-0.102716,0.054999,-0.000000
4.110000,1.582124,0.910272,-1.433925,1.139988,1.014710,-0.085495,-0.605384,0.492409,-0.245777,-0.484192,-1.107518,1.243293,-0.034999,-0.952460,2.365770,0.048840,0.060130,0.000000,-0.103810,0.055327,0.000000
4.120000,1.593494,0.920444,-1.434792,1.133910,1.019579,-0.087891,-0.610228,0.481286,-0.233226,-0.484427,-1.116885,1.265545,-0.008466,-0.925001,2.083489,0.047797,0.060686,0.000000,-0.104897,0.055621,0.000000
4.130000,1.604802,0.930664,-1.435683,1.127783,1.024336,-0.090160,-0.615073,0.470071,-0.220466,-0.484361,-1.126018,1.284963,0.022711,-0.902795,1.799852,0.046742,0.061244,0.000000,-0.105985,0.055873,-0.000000
4.140000,1.616049,0.940931,-1.436596,1.121608,1.028980,-0.092300,-0.619915,0.458766,-0.207527,-0.483973,-1.134941,1.301542,0.052203,-0.878810,1.515650,0.045677,0.061804,0.000000,-0.107075,0.056079,-0.000000
4.150000,1.627234,0.951243,-1.437529,1.115385,1.033511,-0.094310,-0.624752,0.447372,-0.194436,-0.483317,-1.143594,1.315276,0.079049,-0.850839,1.230540,0.044601,0.062367,0.000000,-0.108160,0.056245,-0.000000
4.160000,1.638357,0.961601,-1.438482,1.109113,1.037927,-0.096189,-0.629582,0.435894,-0.181221,-0.482392,-1.151957,1.326153,0.107541,-0.824262,0.945335,0.043514,0.062930,0.000000,-0.109237,0.056368,0.000000
4.170000,1.649417,0.972002,-1.439453,1.102794,1.042229,-0.097935,-0.634400,0.424333,-0.167913,-0.481166,-1.160079,1.334183,0.138059,-0.804259,0.663587,0.042416,0.063495,0.000000,-0.110309,0.056445,-0.000000
4.180000,1.660413,0.982445,-1.440440,1.096425,1.046414,-0.099547,-0.639205,0.412692,-0.154538,-0.479631,-1.168043,1.339424,0.169061,-0.789727,0.386355,0.041308,0.064060,0.000000,-0.111383,0.056476,-0.000000
4.190000,1.671345,0.992930,-1.441444,1.090009,1.050483,-0.101025,-0.643993,0.400972,-0.141124,-0.477785,-1.175874,1.341910,0.200286,-0.774434,0.110442,0.040188,0.064625,0.000000,-0.112461,0.056458,0.000000
4.200000,1.682213,1.003455,-1.442461,1.083546,1.054434,-0.102370,-0.648761,0.389175,-0.127699,-0.475625,-1.183531,1.341633,0.231876,-0.755944,-0.165703,0.039058,0.065190,0.000000,-0.113537,0.056391,-0.000000
4.210000,1.693016,1.014019,-1.443491,1.077034,1.058266,-0.103579,-0.653505,0.377302,-0.114291,-0.473147,-1.190993,1.338596,0.263875,-0.738888,-0.438579,0.037918,0.065754,0.000000,-0.114607,0.056273,-0.000000
4.220000,1.703754,1.024620,-1.444533,1.070475,1.061980,-0.104655,-0.658224,0.365355,-0.100928,-0.470347,-1.198309,1.332862,0.296180,-0.730306,-0.701724,0.036766,0.066317,0.000000,-0.115676,0.056104,0.000000
4.230000,1.714426,1.035258,-1.445584,1.063870,1.065573,-0.105598,-0.662912,0.353336,-0.087634,-0.467224,-1.205599,1.324562,0.328687,-0.729328,-0.954843,0.035604,0.066877,0.000000,-0.116753,0.055883,0.000000
4.240000,1.725031,1.045932,-1.446645,1.057217,1.069046,-0.106408,-0.667568,0.341243,-0.074436,-0.463774,-1.212896,1.313765,0.361422,-0.726879,-1.205095,0.034431,0.067435,0.000000,-0.117840,0.055609,0.000000
4.250000,1.735570,1.056639,-1.447712,1.050518,1.072398,-0.107087,-0.672188,0.329078,-0.061359,-0.459995,-1.220136,1.300460,0.394392,-0.720020,-1.455170,0.033247,0.067990,0.000000,-0.118930,0.055283,-0.000000
4.260000,1.746042,1.067380,-1.448786,1.043773,1.075628,-0.107635,-0.676768,0.316840,-0.048427,-0.455886,-1.227296,1.284661,0.427483,-0.715157,-1.698962,0.032053,0.068541,0.000000,-0.120019,0.054902,0.000000
4.270000,1.756445,1.078152,-1.449865,1.036983,1.078735,-0.108055,-0.681305,0.304532,-0.035666,-0.451446,-1.234439,1.266480,0.460501,-0.719659,-1.927611,0.030847,0.069088,0.000000,-0.121112,0.054467,0.000000
4.280000,1.766781,1.088954,-1.450947,1.030147,1.081719,-0.108349,-0.685797,0.292152,-0.023098,-0.446676,-1.241689,1.246109,0.493387,-0.731866,-2.141738,0.029630,0.069631,0.000000,-0.122219,0.053978,-0.000000
4.290000,1.777048,1.099786,-1.452032,1.023267,1.084578,-0.108517,-0.690239,0.279698,-0.010744,-0.441578,-1.249077,1.223646,0.526278,-0.742154,-2.351794,0.028403,0.070168,0.000000,-0.123342,0.053435,-0.000000
4.300000,1.787247,1.110646,-1.453118,1.016343,1.087312,-0.108563,-0.694628,0.267170,0.001375,-0.436150,-1.256532,1.199073,0.559254,-0.747846,-2.561302,0.027164,0.070700,0.000000,-0.124473,0.052839,0.000000
4.310000,1.797375,1.121533,-1.454203,1.009374,1.089921,-0.108490,-0.698962,0.254567,0.013238,-0.430393,-1.264034,1.172420,0.592115,-0.755482,-2.762138,0.025913,0.071226,0.000000,-0.125609,0.052187,-0.000000
4.320000,1.807434,1.132444,-1.455287,1.002363,1.092404,-0.108299,-0.703236,0.241889,0.024824,-0.424308,-1.271642,1.143831,0.624476,-0.771368,-2.943780,0.024651,0.071744,0.000000,-0.126754,0.051482,-0.000000
4.330000,1.817423,1.143381,-1.456369,0.995310,1.094759,-0.107993,-0.707448,0.229135,0.036115,-0.417903,-1.279461,1.113544,0.656316,-0.793510,-3.107618,0.023378,0.072255,0.000000,-0.127916,0.050724,0.000000
4.340000,1.827340,1.154340,-1.457447,0.988214,1.096986,-0.107576,-0.711594,0.216300,0.047095,-0.411182,-1.287512,1.081678,0.688023,-0.813540,-3.266564,0.022093,0.072759,0.000000,-0.129098,0.049915,0.000000
4.350000,1.837187,1.165320,-1.458521,0.981078,1.099085,-0.107051,-0.715672,0.203384,0.057748,-0.404143,-1.295732,1.048213,0.719736,-0.829455,-3.424715,0.020796,0.073254,0.000000,-0.130291,0.049054,-0.000000
4.360000,1.846962,1.176321,-1.459588,0.973901,1.101054,-0.106421,-0.719677,0.190385,0.068059,-0.396787,-1.304101,1.013184,0.751106,-0.846697,-3.572536,0.019487,0.073740,0.000000,-0.131493,0.048141,-0.000000
4.370000,1.856665,1.187341,-1.460649,0.966684,1.102893,-0.105690,-0.723608,0.177302,0.078012,-0.389121,-1.312666,0.976762,0.781588,-0.869598,-3.698705,0.018166,0.074217,0.000000,-0.132707,0.047178,0.000000
4.380000,1.866296,1.198379,-1.461702,0.959429,1.104600,-0.104861,-0.727460,0.164132,0.087594,-0.381155,-1.321493,0.939210,0.811194,-0.896255,-3.805295,0.016833,0.074684,0.000000,-0.133937,0.046167,0.000000
4.390000,1.875853,1.209433,-1.462746,0.952135,1.106175,-0.103938,-0.731231,0.150872,0.096796,-0.372897,-1.330591,0.900656,0.840553,-0.920729,-3.906569,0.015488,0.075140,0.000000,-0.135185,0.045110,0.000000
4.400000,1.885338,1.220503,-1.463781,0.944804,1.107618,-0.102925,-0.734918,0.137520,0.105607,-0.364344,-1.339908,0.861078,0.869865,-0.941897,-4.006820,0.014130,0.075586,0.000000,-0.136444,0.044007,0.000000
4.410000,1.894750,1.231586,-1.464805,0.937437,1.108926,-0.101826,-0.738518,0.124074,0.114018,-0.355499,-1.349429,0.820520,0.898624,-0.963389,-4.095901,0.012759,0.076021,0.000000,-0.137712,0.042858,-0.000000
4.420000,1.904087,1.242681,-1.465817,0.930034,1.110099,-0.100645,-0.742028,0.110532,0.122018,-0.346372,-1.359176,0.779160,0.926188,-0.987058,-4.162659,0.011375,0.076443,0.000000,-0.138989,0.041666,-0.000000
4.430000,1.913350,1.253788,-1.466818,0.922596,1.111137,-0.099386,-0.745445,0.096891,0.129601,-0.336976,-1.369170,0.737267,0.952646,-1.011330,-4.209675,0.009979,0.076854,0.000000,-0.140277,0.040433,0.000000
4.440000,1.922539,1.264904,-1.467805,0.915125,1.112037,-0.098053,-0.748767,0.083148,0.136763,-0.327319,-1.379402,0.694967,0.978751,-1.033425,-4.251307,0.008570,0.077252,0.000000,-0.141574,0.039163,0.000000
4.450000,1.931653,1.276029,-1.468779,0.907621,1.112799,-0.096651,-0.751991,0.069303,0.143500,-0.317401,-1.389838,0.652240,1.004708,-1.053242,-4.291644,0.007148,0.077637,0.000000,-0.142877,0.037854,-0.000000
4.460000,1.940691,1.287160,-1.469738,0.900085,1.113423,-0.095183,-0.755115,0.055352,0.149808,-0.307225,-1.400467,0.609134,1.029958,-1.072130,-4.320826,0.005712,0.078009,0.000000,-0.144183,0.036508,0.000000
4.470000,1.949654,1.298297,-1.470683,0.892519,1.113907,-0.093654,-0.758136,0.041293,0.155683,-0.296802,-1.411281,0.565824,1.053848,-1.089359,-4.328812,0.004264,0.078367,0.000000,-0.145492,0.035128,-0.000000
4.480000,1.958542,1.309438,-1.471611,0.884922,1.114249,-0.092069,-0.761051,0.027126,0.161124,-0.286148,-1.422254,0.522558,1.076485,-1.103956,-4.318401,0.002803,0.078712,0.000000,-0.146799,0.033718,-0.000000
4.490000,1.967353,1.320582,-1.472524,0.877298,1.114449,-0.090432,-0.763859,0.012848,0.166134,-0.275272,-1.433360,0.479456,1.098665,-1.116446,-4.302840,0.001328,0.079042,0.000000,-0.148102,0.032279,0.000000
4.500000,1.976088,1.331727,-1.473420,0.869645,1.114506,-0.088747,-0.766557,-0.001541,0.170713,-0.264174,-1.444583,0.436501,1.120603,-1.127630,-4.285727,-0.000159,0.079357,0.000000,-0.149399,0.030812,0.000000
4.510000,1.984746,1.342872,-1.474299,0.861966,1.114418,-0.087018,-0.769142,-0.016043,0.174864,-0.252860,-1.455913,0.393741,1.141725,-1.136600,-4.258244,-0.001660,0.079658,0.000000,-0.150689,0.029319,0.000000
4.520000,1.993327,1.354015,-1.475160,0.854262,1.114185,-0.085249,-0.771614,-0.030659,0.178588,-0.241340,-1.467315,0.351336,1.161423,-1.140365,-4.212244,-0.003173,0.079944,0.000000,-0.151967,0.027801,0.000000
4.530000,2.001831,1.365156,-1.476004,0.846534,1.113805,-0.083446,-0.773969,-0.045390,0.181891,-0.229631,-1.478720,0.309496,1.179809,-1.138611,-4.150564,-0.004699,0.080214,0.000000,-0.153228,0.026264,-0.000000
4.540000,2.010258,1.376292,-1.476829,0.838783,1.113277,-0.081611,-0.776206,-0.060234,0.184778,-0.217744,-1.490087,0.268325,1.197650,-1.134831,-4.084240,-0.006238,0.080469,0.000000,-0.154465,0.024709,0.000000
4.550000,2.018607,1.387421,-1.477636,0.831010,1.112600,-0.079750,-0.778324,-0.075191,0.187257,-0.205678,-1.501417,0.227812,1.215171,-1.130558,-4.016037,-0.007788,0.080708,0.000000,-0.155680,0.023137,-0.000000
4.560000,2.026878,1.398544,-1.478424,0.823217,1.111773,-0.077866,-0.780320,-0.090262,0.189334,-0.193440,-1.512698,0.188004,1.231807,-1.122932,-3.938941,-0.009351,0.080932,0.000000,-0.156872,0.021549,-0.000000
4.570000,2.035071,1.409657,-1.479193,0.815404,1.110795,-0.075964,-0.782193,-0.105445,0.191017,-0.181042,-1.523875,0.149033,1.247020,-1.107296,-3.847279,-0.010926,0.081139,0.000000,-0.158035,0.019948,-0.000000
4.580000,2.043186,1.420759,-1.479943,0.807573,1.109664,-0.074046,-0.783941,-0.120740,0.192315,-0.168500,-1.534844,0.111058,1.261011,-1.083959,-3.743637,-0.012512,0.081331,0.000000,-0.159159,0.018338,0.000000
4.590000,2.051222,1.431850,-1.480674,0.799725,1.108380,-0.072117,-0.785563,-0.136142,0.193238,-0.155822,-1.545555,0.074160,1.274434,-1.058685,-3.636051,-0.014109,0.081506,0.000000,-0.160239,0.016720,0.000000
4.600000,2.059180,1.442927,-1.481386,0.791861,1.106942,-0.070181,-0.787057,-0.151651,0.193798,-0.143011,-1.556018,0.038337,1.287126,-1.033492,-3.526300,-0.015716,0.081665,0.000000,-0.161276,0.015095,-0.000000
4.610000,2.067060,1.453989,-1.482078,0.783984,1.105347,-0.068241,-0.788423,-0.167263,0.194005,-0.130079,-1.566224,0.003634,1.298654,-1.004089,-3.409648,-0.017334,0.081808,0.000000,-0.162271,0.013466,0.000000
4.620000,2.074860,1.465034,-1.482751,0.776093,1.103596,-0.066301,-0.789659,-0.182975,0.193871,-0.117038,-1.576100,-0.029856,1.309534,-0.964924,-3.283183,-0.018962,0.081934,0.000000,-0.163216,0.011834,-0.000000
4.630000,2.082582,1.476061,-1.483404,0.768191,1.101688,-0.064364,-0.790764,-0.198785,0.193408,-0.103889,-1.585523,-0.062030,1.319829,-0.916842,-3.148995,-0.020599,0.082045,0.000000,-0.164099,0.010202,0.000000
4.640000,2.090224,1.487068,-1.484038,0.760278,1.099621,-0.062433,-0.791737,-0.214686,0.192630,-0.090642,-1.594437,-0.092835,1.328796,-0.866897,-3.011709,-0.022244,0.082138,0.000000,-0.164916,0.008570,-0.000000
4.650000,2.097787,1.498053,-1.484653,0.752356,1.097394,-0.060511,-0.792577,-0.230673,0.191551,-0.077313,-1.602861,-0.122264,1.337131,-0.817338,-2.872130,-0.023897,0.082216,0.000000,-0.165669,0.006941,-0.000000
4.660000,2.105271,1.509016,-1.485248,0.744426,1.095007,-0.058602,-0.793283,-0.246743,0.190185,-0.063899,-1.610783,-0.150278,1.345267,-0.763116,-2.727958,-0.025557,0.082277,0.000000,-0.166359,0.005316,-0.000000
4.670000,2.112676,1.519953,-1.485825,0.736490,1.092459,-0.056708,-0.793855,-0.262889,0.188546,-0.050407,-1.618123,-0.176823,1.350947,-0.698487,-2.578946,-0.027224,0.082322,0.000000,-0.166977,0.003696,0.000000
4.680000,2.120001,1.530865,-1.486382,0.728549,1.089749,-0.054831,-0.794291,-0.279105,0.186649,-0.036880,-1.624753,-0.201857,1.353990,-0.624732,-2.426620,-0.028897,0.082351,0.000000,-0.167511,0.002086,0.000000
4.690000,2.127247,1.541748,-1.486921,0.720604,1.086877,-0.052975,-0.794592,-0.295384,0.184509,-0.023328,-1.630618,-0.225355,1.357536,-0.549262,-2.272196,-0.030574,0.082364,0.000000,-0.167958,0.000487,0.000000
4.700000,2.134413,1.552602,-1.487442,0.712657,1.083842,-0.051141,-0.794758,-0.311718,0.182141,-0.009729,-1.635738,-0.247301,1.361563,-0.474162,-2.115469,-0.032256,0.082361,0.000000,-0.168319,-0.001102,0.000000
4.710000,2.141500,1.563425,-1.487944,0.704709,1.080643,-0.049332,-0.794787,-0.328099,0.179563,0.003904,-1.640101,-0.267665,1.363984,-0.394340,-1.956536,-0.033940,0.082342,0.000000,-0.168596,-0.002679,-0.000000
4.720000,2.148507,1.574215,-1.488428,0.696761,1.077280,-0.047550,-0.794679,-0.344520,0.176788,0.017550,-1.643625,-0.286432,1.365682,-0.304740,-1.797670,-0.035628,0.082307,0.000000,-0.168781,-0.004243,0.000000
4.730000,2.155435,1.584971,-1.488895,0.688816,1.073752,-0.045796,-0.794436,-0.360971,0.173834,0.031217,-1.646196,-0.303618,1.367522,-0.206804,-1.639715,-0.037316,0.082257,0.000000,-0.168864,-0.005794,0.000000
4.740000,2.162283,1.595690,-1.489344,0.680873,1.070060,-0.044073,-0.794055,-0.377444,0.170716,0.044901,-1.647761,-0.319226,1.368108,-0.107201,-1.480631,-0.039005,0.082191,0.000000,-0.168839,-0.007331,-0.000000
4.750000,2.169052,1.606372,-1.489777,0.672934,1.066203,-0.042382,-0.793538,-0.393927,0.167450,0.058579,-1.648340,-0.333231,1.366821,-0.007885,-1.319399,-0.040693,0.082110,0.000000,-0.168711,-0.008852,0.000000
4.760000,2.175742,1.617014,-1.490192,0.665002,1.062182,-0.040724,-0.792884,-0.410410,0.164051,0.072237,-1.647919,-0.345614,1.364714,0.095589,-1.158297,-0.042379,0.082014,0.000000,-0.168480,-0.010355,-0.000000
4.770000,2.182352,1.627616,-1.490591,0.657077,1.057995,-0.039101,-0.792093,-0.426885,0.160537,0.085874,-1.646428,-0.356397,1.362948,0.207732,-1.001533,-0.044062,0.081903,0.000000,-0.168139,-0.011840,-0.000000
4.780000,2.188884,1.638174,-1.490974,0.649160,1.053644,-0.037513,-0.791166,-0.443339,0.156923,0.099496,-1.643764,-0.365645,1.361075,0.327098,-0.849292,-0.045742,0.081777,0.000000,-0.167680,-0.013308,0.000000
4.790000,2.195336,1.648689,-1.491341,0.641253,1.049128,-0.035962,-0.790103,-0.459760,0.153224,0.113095,-1.639886,-0.373382,1.357630,0.447576,-0.696955,-0.047416,0.081637,0.000000,-0.167098,-0.014760,-0.000000
4.800000,2.201709,1.659157,-1.491693,0.633358,1.044449,-0.034449,-0.788904,-0.476137,0.149456,0.126649,-1.634813,-0.379584,1.353331,0.567853,-0.542852,-0.049084,0.081482,0.000000,-0.166398,-0.016191,-0.000000
4.810000,2.208003,1.669578,-1.492030,0.625475,1.039606,-0.032973,-0.787570,-0.492457,0.145633,0.140162,-1.628529,-0.384240,1.349121,0.691798,-0.390917,-0.050744,0.081312,0.000000,-0.165578,-0.017603,-0.000000
4.820000,2.214218,1.679949,-1.492353,0.617607,1.034600,-0.031536,-0.786101,-0.508707,0.141771,0.153631,-1.620977,-0.387402,1.342831,0.821866,-0.246733,-0.052395,0.081129,0.000000,-0.164636,-0.018996,-0.000000
4.830000,2.220355,1.690269,-1.492661,0.609753,1.029432,-0.030138,-0.784497,-0.524876,0.137885,0.167018,-1.612092,-0.389174,1.334089,0.956622,-0.109920,-0.054037,0.080932,0.000000,-0.163563,-0.020368,-0.000000
4.840000,2.226413,1.700538,-1.492955,0.601917,1.024102,-0.028778,-0.782761,-0.540949,0.133987,0.180313,-1.601844,-0.389600,1.325917,1.092599,0.026047,-0.055667,0.080721,0.000000,-0.162359,-0.021716,-0.000000
4.850000,2.232393,1.710752,-1.493237,0.594098,1.018613,-0.027458,-0.780891,-0.556913,0.130093,0.193537,-1.590240,-0.388653,1.318498,1.228965,0.163283,-0.057284,0.080497,0.000000,-0.161025,-0.023045,0.000000
4.860000,2.238295,1.720910,-1.493505,0.586299,1.012964,-0.026176,-0.778890,-0.572754,0.126214,0.206683,-1.577265,-0.386335,1.309851,1.367697,0.296669,-0.058887,0.080260,0.000000,-0.159562,-0.024352,0.000000
4.870000,2.244119,1.731011,-1.493760,0.578520,1.007158,-0.024934,-0.776757,-0.588458,0.122366,0.219734,-1.562886,-0.382720,1.300247,1.510218,0.419826,-0.060475,0.080009,0.000000,-0.157965,-0.025637,0.000000
4.880000,2.249866,1.741053,-1.494003,0.570764,1.001195,-0.023729,-0.774495,-0.604012,0.118560,0.232688,-1.547061,-0.377938,1.290382,1.655640,0.533648,-0.062046,0.079746,0.000000,-0.156232,-0.026902,-0.000000
4.890000,2.255535,1.751035,-1.494235,0.563030,0.995077,-0.022562,-0.772104,-0.619400,0.114807,0.245541,-1.529773,-0.372047,1.279789,1.801643,0.645850,-0.063600,0.079470,0.000000,-0.154362,-0.028146,0.000000
4.900000,2.261126,1.760955,-1.494455,0.555322,0.988807,-0.021433,-0.769584,-0.634607,0.111119,0.258284,-1.511028,-0.365021,1.268495,1.947608,0.758732,-0.065134,0.079182,0.000000,-0.152355,-0.029369,-0.000000
4.910000,2.266641,1.770811,-1.494663,0.547639,0.982385,-0.020340,-0.766938,-0.649620,0.107507,0.270911,-1.490821,-0.356872,1.256867,2.094701,0.866544,-0.066647,0.078881,0.000000,-0.150213,-0.030570,-0.000000
4.920000,2.272079,1.780602,-1.494861,0.539983,0.975814,-0.019283,-0.764166,-0.664424,0.103982,0.283421,-1.469134,-0.347690,1.244571,2.243578,0.962756,-0.068138,0.078569,0.000000,-0.147934,-0.031750,0.000000
4.930000,2.277441,1.790327,-1.495049,0.532355,0.969097,-0.018260,-0.761270,-0.679003,0.100553,0.295803,-1.445949,-0.337617,1.231503,2.393500,1.048613,-0.069606,0.078245,0.000000,-0.145515,-0.032909,-0.000000
4.940000,2.282726,1.799984,-1.495227,0.524758,0.962234,-0.017272,-0.758250,-0.693343,0.097229,0.308051,-1.421264,-0.326718,1.218215,2.543094,1.132206,-0.071048,0.077909,0.000000,-0.142957,-0.034048,0.000000
4.950000,2.287936,1.809572,-1.495394,0.517190,0.955230,-0.016316,-0.755109,-0.707428,0.094019,0.320167,-1.395087,-0.314973,1.204772,2.692394,1.215854,-0.072465,0.077562,0.000000,-0.140262,-0.035167,0.000000
4.960000,2.293070,1.819089,-1.495553,0.509655,0.948086,-0.015391,-0.751847,-0.721244,0.090930,0.332147,-1.367416,-0.302401,1.190838,2.841890,1.293739,-0.073854,0.077204,0.000000,-0.137429,-0.036265,0.000000
4.970000,2.298129,1.828534,-1.495702,0.502154,0.940805,-0.014497,-0.748466,-0.734776,0.087971,0.343984,-1.338250,-0.289098,1.176513,2.990325,1.359633,-0.075213,0.076835,0.000000,-0.134458,-0.037343,0.000000
4.980000,2.303113,1.837905,-1.495843,0.494686,0.933390,-0.013632,-0.744967,-0.748009,0.085148,0.355677,-1.307610,-0.275208,1.161972,3.137065,1.414969,-0.076543,0.076455,0.000000,-0.131351,-0.038403,-0.000000
4.990000,2.308023,1.847201,-1.495975,0.487254,0.925845,-0.012794,-0.741352,-0.760929,0.082466,0.367223,-1.275508,-0.260799,1.147100,3.283342,1.467645,-0.077840,0.076065,0.000000,-0.128109,-0.039445,0.000000
5.000000,2.312858,1.856422,-1.496099,0.479859,0.918172,-0.011983,-0.737623,-0.773519,0.079932,0.378619,-1.241943,-0.245855,1.131861,3.429504,1.519832,-0.079105,0.075664,0.000000,-0.124732,-0.040468,-0.000000
5.010000,2.317620,1.865565,-1.496215,0.472502,0.910374,-0.011196,-0.733780,-0.785767,0.077549,0.389860,-1.206918,-0.230402,1.116393,3.574250,1.566030,-0.080335,0.075253,0.000000,-0.121220,-0.041472,0.000000
5.020000,2.322308,1.874629,-1.496323,0.465183,0.902456,-0.010432,-0.729825,-0.797658,0.075324,0.400947,-1.170458,-0.214535,1.100805,3.716075,1.600743,-0.081529,0.074832,0.000000,-0.117575,-0.042459,-0.000000
5.030000,2.326923,1.883614,-1.496423,0.457905,0.894421,-0.009689,-0.725761,-0.809177,0.073259,0.411877,-1.132597,-0.198387,1.085107,3.854997,1.625479,-0.082687,0.074401,0.000000,-0.113799,-0.043429,-0.000000
5.040000,2.331466,1.892518,-1.496516,0.450668,0.886273,-0.008967,-0.721588,-0.820310,0.071356,0.422649,-1.093358,-0.182025,1.069242,3.992440,1.647359,-0.083805,0.073960,0.000000,-0.109895,-0.044383,0.000000
5.050000,2.335937,1.901339,-1.496603,0.443473,0.878015,-0.008262,-0.717308,-0.831044,0.069618,0.433261,-1.052748,-0.165440,1.053083,4.128809,1.668293,-0.084885,0.073510,0.000000,-0.105862,-0.045321,0.000000
5.060000,2.340336,1.910078,-1.496682,0.436322,0.869652,-0.007574,-0.712923,-0.841365,0.068047,0.443710,-1.010782,-0.148659,1.036705,4.262723,1.683478,-0.085923,0.073050,0.000000,-0.101702,-0.046243,-0.000000
5.070000,2.344663,1.918732,-1.496754,0.429215,0.861188,-0.006901,-0.708434,-0.851259,0.066645,0.453996,-0.967493,-0.131771,1.020553,4.392319,1.688401,-0.086919,0.072582,0.000000,-0.097418,-0.047150,0.000000
5.080000,2.348920,1.927302,-1.496820,0.422153,0.852627,-0.006241,-0.703843,-0.860715,0.065412,0.464122,-0.922935,-0.114891,1.004679,4.517661,1.684529,-0.087871,0.072104,0.000000,-0.093013,-0.048043,0.000000
5.090000,2.353106,1.935785,-1.496879,0.415138,0.843973,-0.005593,-0.699151,-0.869718,0.064347,0.474089,-0.877140,-0.098080,0.988559,4.640718,1.677859,-0.088779,0.071617,0.000000,-0.088489,-0.048922,-0.000000
5.100000,2.357223,1.944181,-1.496932,0.408170,0.835232,-0.004954,-0.694361,-0.878257,0.063450,0.483893,-0.830121,-0.081334,0.971974,4.761913,1.669917,-0.089641,0.071122,0.000000,-0.083848,-0.049788,-0.000000
5.110000,2.361270,1.952490,-1.496978,0.401251,0.826408,-0.004324,-0.689473,-0.886320,0.062720,0.493529,-0.781902,-0.064682,0.955326,4.879545,1.656814,-0.090456,0.070617,0.000000,-0.079091,-0.050640,-0.000000
5.120000,2.365248,1.960709,-1.497018,0.394381,0.817506,-0.003700,-0.684490,-0.893895,0.062157,0.502999,-0.732530,-0.048198,0.939219,4.991910,1.635226,-0.091223,0.070105,0.000000,-0.074222,-0.051478,-0.000000
5.130000,2.369157,1.968840,-1.497052,0.387561,0.808530,-0.003081,-0.679413,-0.900971,0.061756,0.512313,-0.682064,-0.031977,0.923587,5.099247,1.606485,-0.091940,0.069583,0.000000,-0.069245,-0.052306,0.000000
5.140000,2.372999,1.976880,-1.497080,0.380793,0.799487,-0.002465,-0.674244,-0.907537,0.061517,0.521471,-0.630545,-0.016068,0.907666,5.203321,1.575190,-0.092608,0.069054,0.000000,-0.064163,-0.053123,-0.000000
5.150000,2.376773,1.984829,-1.497101,0.374076,0.790380,-0.001850,-0.668984,-0.913582,0.061435,0.530466,-0.577997,-0.000473,0.891216,5.304373,1.542451,-0.093224,0.068516,0.000000,-0.058979,-0.053928,0.000000
5.160000,2.380481,1.992688,-1.497117,0.367413,0.781215,-0.001236,-0.663635,-0.919097,0.061508,0.539295,-0.524458,0.014781,0.874791,5.400899,1.505437,-0.093787,0.067971,0.000000,-0.053694,-0.054721,0.000000
5.170000,2.384121,2.000454,-1.497126,0.360804,0.771998,-0.000620,-0.658198,-0.924071,0.061731,0.547962,-0.469979,0.029635,0.859014,5.491718,1.462070,-0.094298,0.067417,0.000000,-0.048313,-0.055504,-0.000000
5.180000,2.387697,2.008128,-1.497129,0.354249,0.762734,-0.000002,-0.652675,-0.928496,0.062100,0.556476,-0.414623,0.044022,0.843754,5.577090,1.413484,-0.094754,0.066856,0.000000,-0.042842,-0.056277,0.000000
5.190000,2.391206,2.015708,-1.497126,0.347750,0.753428,0.000622,-0.647069,-0.932364,0.062611,0.564837,-0.358438,0.057905,0.828216,5.658110,1.362753,-0.095154,0.066287,0.000000,-0.037282,-0.057041,-0.000000
5.200000,2.394652,2.023196,-1.497117,0.341308,0.744086,0.001251,-0.641379,-0.935665,0.063258,0.573040,-0.301461,0.071277,0.812158,5.734733,1.310529,-0.095499,0.065710,0.000000,-0.031639,-0.057796,-0.000000
5.210000,2.398033,2.030590,-1.497101,0.334922,0.734715,0.001887,-0.635608,-0.938393,0.064037,0.581080,-0.243743,0.084116,0.796129,5.805970,1.255112,-0.095787,0.065125,0.000000,-0.025915,-0.058540,-0.000000
5.220000,2.401350,2.037890,-1.497079,0.328595,0.725318,0.002531,-0.629757,-0.940540,0.064941,0.588962,-0.185342,0.096379,0.780739,5.871369,1.195670,-0.096017,0.064533,0.000000,-0.020116,-0.059275,-0.000000
5.230000,2.404605,2.045097,-1.497050,0.322327,0.715904,0.003186,-0.623828,-0.942100,0.065964,0.596695,-0.126315,0.108029,0.765880,5.931040,1.133072,-0.096189,0.063934,0.000000,-0.014246,-0.060001,-0.000000
5.240000,2.407797,2.052208,-1.497015,0.316119,0.706476,0.003851,-0.617823,-0.943066,0.067101,0.604280,-0.066721,0.119041,0.750727,5.985165,1.068840,-0.096302,0.063328,0.000000,-0.008311,-0.060720,0.000000
5.250000,2.410927,2.059226,-1.496973,0.309971,0.697042,0.004528,-0.611743,-0.943434,0.068345,0.611710,-0.006612,0.129406,0.734947,6.033636,1.003189,-0.096356,0.062714,0.000000,-0.002314,-0.061429,-0.000000
5.260000,2.413996,2.066149,-1.496925,0.303884,0.687608,0.005218,-0.605589,-0.943198,0.069689,0.618979,0.053952,0.139105,0.719128,6.076084,0.935509,-0.096349,0.062094,0.000000,0.003738,-0.062129,0.000000
5.270000,2.417005,2.072978,-1.496869,0.297859,0.678178,0.005921,-0.599363,-0.942355,0.071127,0.626092,0.114909,0.148116,0.704025,6.112169,0.866172,-0.096281,0.061466,0.000000,0.009841,-0.062821,0.000000
5.280000,2.419953,2.079713,-1.496806,0.291897,0.668761,0.006640,-0.593067,-0.940900,0.072652,0.633060,0.176195,0.156428,0.689445,6.141866,0.795768,-0.096152,0.060831,0.000000,0.015988,-0.063504,-0.000000
5.290000,2.422843,2.086353,-1.496736,0.285998,0.659360,0.007375,-0.586702,-0.938831,0.074256,0.639881,0.237747,0.164031,0.674359,6.165242,0.724211,-0.095961,0.060190,0.000000,0.022175,-0.064179,-0.000000
5.300000,2.425673,2.092900,-1.496659,0.280163,0.649984,0.008125,-0.580270,-0.936145,0.075932,0.646547,0.299500,0.170912,0.658585,6.181724,0.651369,-0.095708,0.059542,0.000000,0.028394,-0.064845,0.000000
5.310000,2.428446,2.099353,-1.496574,0.274392,0.640638,0.008893,-0.573771,-0.932841,0.077674,0.653053,0.361381,0.177059,0.642828,6.191062,0.577795,-0.095393,0.058887,0.000000,0.034639,-0.065501,0.000000
5.320000,2.431161,2.105713,-1.496481,0.268687,0.631327,0.009679,-0.567209,-0.928918,0.079473,0.659403,0.423321,0.182468,0.627474,6.194326,0.504738,-0.095016,0.058226,0.000000,0.040903,-0.066148,-0.000000
5.330000,2.433820,2.111980,-1.496380,0.263048,0.622059,0.010483,-0.560583,-0.924375,0.081323,0.665602,0.485268,0.187153,0.612287,6.191456,0.432461,-0.094575,0.057558,0.000000,0.047182,-0.066786,0.000000
5.340000,2.436422,2.118154,-1.496271,0.257476,0.612840,0.011305,-0.553896,-0.919212,0.083217,0.671649,0.547151,0.191118,0.596700,6.180584,0.359699,-0.094072,0.056884,0.000000,0.053467,-0.067414,0.000000
5.350000,2.438969,2.124236,-1.496154,0.251970,0.603675,0.012147,-0.547150,-0.913432,0.085146,0.677536,0.608879,0.194347,0.580350,6.161210,0.285839,-0.093506,0.056204,0.000000,0.059752,-0.068031,-0.000000
5.360000,2.441461,2.130227,-1.496028,0.246533,0.594571,0.013008,-0.540346,-0.907035,0.087103,0.683256,0.670375,0.196834,0.563594,6.134336,0.212224,-0.092877,0.055517,0.000000,0.066026,-0.068638,-0.000000
5.370000,2.443900,2.136128,-1.495894,0.241163,0.585534,0.013889,-0.533485,-0.900024,0.089082,0.688808,0.731566,0.198592,0.547401,6.100382,0.141136,-0.092185,0.054825,0.000000,0.072285,-0.069233,0.000000
5.380000,2.446285,2.141938,-1.495750,0.235863,0.576571,0.014790,-0.526570,-0.892403,0.091075,0.694204,0.792382,0.199657,0.531691,6.058782,0.072571,-0.091431,0.054127,0.000000,0.078519,-0.069816,-0.000000
5.390000,2.448617,2.147659,-1.495598,0.230632,0.567686,0.015711,-0.519601,-0.884176,0.093076,0.699442,0.852742,0.200043,0.515071,6.008652,0.003987,-0.090615,0.053423,0.000000,0.084720,-0.070389,-0.000000
5.400000,2.450897,2.153292,-1.495436,0.225471,0.558887,0.016651,-0.512581,-0.875349,0.095076,0.704505,0.912555,0.199737,0.497035,5.949883,-0.065505,-0.089737,0.052713,0.000000,0.090879,-0.070948,0.000000
5.410000,2.453126,2.158837,-1.495265,0.220380,0.550179,0.017612,-0.505511,-0.865925,0.097070,0.709383,0.971740,0.198733,0.478483,5.882768,-0.133794,-0.088797,0.051998,0.000000,0.096988,-0.071493,0.000000
5.420000,2.455305,2.164295,-1.495084,0.215361,0.541569,0.018593,-0.498393,-0.855914,0.099051,0.714075,1.030211,0.197061,0.460476,5.806912,-0.197970,-0.087797,0.051278,0.000000,0.103037,-0.072023,0.000000
5.430000,2.457434,2.169668,-1.494893,0.210412,0.533061,0.019593,-0.491229,-0.845321,0.101011,0.718592,1.087878,0.194774,0.442678,5.721980,-0.258300,-0.086736,0.050552,0.000000,0.109016,-0.072538,0.000000
5.440000,2.459513,2.174957,-1.494692,0.205536,0.524662,0.020613,-0.484021,-0.834156,0.102946,0.722929,1.144650,0.191895,0.423601,5.628143,-0.318231,-0.085617,0.049822,0.000000,0.114916,-0.073038,-0.000000
5.450000,2.461544,2.180162,-1.494481,0.200732,0.516378,0.021652,-0.476771,-0.822428,0.104849,0.727064,1.200441,0.188409,0.402987,5.525060,-0.378851,-0.084438,0.049086,0.000000,0.120727,-0.073521,-0.000000
5.460000,2.463528,2.185284,-1.494259,0.196001,0.508214,0.022710,-0.469480,-0.810147,0.106715,0.730988,1.255152,0.184318,0.381734,5.412311,-0.437524,-0.083202,0.048346,0.000000,0.126439,-0.073984,0.000000
5.470000,2.465464,2.190326,-1.494027,0.191342,0.500175,0.023786,-0.462151,-0.797325,0.108536,0.734699,1.308687,0.179659,0.360229,5.290385,-0.490983,-0.081909,0.047601,0.000000,0.132041,-0.074429,0.000000
5.480000,2.467355,2.195288,-1.493783,0.186758,0.492267,0.024881,-0.454786,-0.783974,0.110308,0.738193,1.360959,0.174498,0.338118,5.159215,-0.539693,-0.080561,0.046852,0.000000,0.137522,-0.074853,0.000000
5.490000,2.469199,2.200171,-1.493529,0.182247,0.484495,0.025992,-0.447387,-0.770106,0.112026,0.741461,1.411871,0.168865,0.314793,5.017662,-0.587673,-0.079159,0.046099,0.000000,0.142873,-0.075255,0.000000
5.500000,2.471000,2.204978,-1.493264,0.177810,0.476865,0.027121,-0.439957,-0.755736,0.113685,0.744489,1.461313,0.162745,0.289971,4.865569,-0.636136,-0.077704,0.045343,0.000000,0.148081,-0.075634,0.000000
5.510000,2.472756,2.209709,-1.492987,0.173448,0.469381,0.028266,-0.432497,-0.740880,0.115281,0.747261,1.509183,0.156142,0.263946,4.703416,-0.682115,-0.076197,0.044582,0.000000,0.153134,-0.075988,-0.000000
5.520000,2.474469,2.214365,-1.492698,0.169160,0.462047,0.029427,-0.425012,-0.725553,0.116808,0.749768,1.555381,0.149102,0.237306,4.530600,-0.722307,-0.074641,0.043818,0.000000,0.158022,-0.076315,0.000000
5.530000,2.476139,2.218949,-1.492398,0.164947,0.454870,0.030602,-0.417502,-0.709772,0.118263,0.752007,1.599795,0.141696,0.209927,4.346647,-0.757386,-0.073037,0.043052,0.000000,0.162732,-0.076615,0.000000
5.540000,2.477767,2.223463,-1.492086,0.160810,0.447852,0.031792,-0.409971,-0.693557,0.119642,0.753966,1.642314,0.133955,0.180867,4.152078,-0.791459,-0.071386,0.042282,0.000000,0.167251,-0.076887,0.000000
5.550000,2.479355,2.227906,-1.491762,0.156748,0.440998,0.032995,-0.402423,-0.676926,0.120942,0.755624,1.682836,0.125867,0.149657,3.947050,-0.825724,-0.069692,0.041510,0.000000,0.171568,-0.077127,-0.000000
5.560000,2.480902,2.232283,-1.491426,0.152761,0.434313,0.034211,-0.394859,-0.659900,0.122159,0.756959,1.721255,0.117440,0.116794,3.730830,-0.857278,-0.067955,0.040736,0.000000,0.175670,-0.077333,-0.000000
5.570000,2.482410,2.236593,-1.491078,0.148851,0.427800,0.035438,-0.387283,-0.642501,0.123291,0.757960,1.757453,0.108721,0.083139,3.502429,-0.883017,-0.066178,0.039960,0.000000,0.179546,-0.077504,0.000000
5.580000,2.483879,2.240839,-1.490717,0.145016,0.421463,0.036677,-0.379700,-0.624751,0.124334,0.758622,1.791303,0.099780,0.048472,3.261787,-0.903698,-0.064364,0.039182,0.000000,0.183180,-0.077640,-0.000000
5.590000,2.485311,2.245022,-1.490345,0.141257,0.415305,0.037925,-0.372111,-0.606675,0.125286,0.758929,1.822688,0.090647,0.011506,3.009908,-0.923247,-0.062515,0.038404,0.000000,0.186560,-0.077737,0.000000
5.600000,2.486705,2.249145,-1.489959,0.137574,0.409330,0.039182,-0.364521,-0.588297,0.126146,0.758852,1.851501,0.081315,-0.028185,2.747017,-0.942668,-0.060633,0.037624,0.000000,0.189673,-0.077793,0.000000
5.610000,2.488062,2.253209,-1.489561,0.133966,0.403539,0.040448,-0.356934,-0.569645,0.126912,0.758366,1.877629,0.071794,-0.069888,2.472088,-0.959283,-0.058721,0.036845,0.000000,0.192506,-0.077805,-0.000000
5.620000,2.489384,2.257216,-1.489150,0.130435,0.397937,0.041721,-0.349354,-0.550745,0.127582,0.757455,1.900943,0.062129,-0.112876,2.184086,-0.970599,-0.056783,0.036066,0.000000,0.195047,-0.077771,0.000000
5.630000,2.490671,2.261167,-1.488726,0.126979,0.392525,0.043000,-0.341785,-0.531626,0.128155,0.756108,1.921310,0.052382,-0.157373,1.883148,-0.977401,-0.054820,0.035287,0.000000,0.197279,-0.077691,-0.000000
5.640000,2.491923,2.265066,-1.488290,0.123599,0.387304,0.044284,-0.334232,-0.512318,0.128630,0.754307,1.938606,0.042581,-0.204588,1.570216,-0.982940,-0.052837,0.034509,0.000000,0.199190,-0.077560,0.000000
5.650000,2.493143,2.268913,-1.487841,0.120295,0.382278,0.045572,-0.326699,-0.492854,0.129007,0.752017,1.952715,0.032723,-0.255546,1.245094,-0.987982,-0.050837,0.033734,0.000000,0.200767,-0.077377,0.000000
5.660000,2.494329,2.272712,-1.487379,0.117065,0.377447,0.046864,-0.319191,-0.473264,0.129284,0.749196,1.963508,0.022822,-0.309547,0.906910,-0.990374,-0.048822,0.032960,0.000000,0.201995,-0.077137,0.000000
5.670000,2.495484,2.276462,-1.486903,0.113911,0.372813,0.048158,-0.311715,-0.453583,0.129463,0.745826,1.970853,0.012916,-0.364168,0.555710,-0.988384,-0.046797,0.032189,0.000000,0.202860,-0.076837,-0.000000
5.680000,2.496608,2.280168,-1.486415,0.110831,0.368376,0.049453,-0.304275,-0.433847,0.129543,0.741913,1.974622,0.003054,-0.419610,0.191457,-0.982717,-0.044765,0.031422,0.000000,0.203350,-0.076478,0.000000
5.690000,2.497701,2.283830,-1.485914,0.107825,0.364136,0.050749,-0.296877,-0.414091,0.129524,0.737433,1.974682,-0.006739,-0.479450,-0.186309,-0.975706,-0.042730,0.030658,0.000000,0.203448,-0.076058,-0.000000
5.700000,2.498764,2.287451,-1.485400,0.104893,0.360094,0.052044,-0.289526,-0.394353,0.129408,0.732324,1.970896,-0.016460,-0.544996,-0.576722,-0.967818,-0.040696,0.029899,0.000000,0.203142,-0.075569,0.000000
5.710000,2.499799,2.291032,-1.484874,0.102035,0.356249,0.053337,-0.282230,-0.374673,0.129195,0.726533,1.963148,-0.026095,-0.614009,-0.979801,-0.957585,-0.038667,0.029145,0.000000,0.202418,-0.075008,-0.000000
5.720000,2.500805,2.294576,-1.484334,0.099249,0.352600,0.054628,-0.274995,-0.355090,0.128886,0.720044,1.951300,-0.035612,-0.684053,-1.399040,-0.944135,-0.036647,0.028398,0.000000,0.201263,-0.074371,-0.000000
5.730000,2.501784,2.298084,-1.483781,0.096535,0.349147,0.055915,-0.267829,-0.335647,0.128483,0.712852,1.935167,-0.044978,-0.759172,-1.838842,-0.928045,-0.034642,0.027657,0.000000,0.199657,-0.073658,-0.000000
5.740000,2.502735,2.301558,-1.483215,0.093892,0.345887,0.057197,-0.260738,-0.316387,0.127987,0.704860,1.914523,-0.054173,-0.842059,-2.293603,-0.910557,-0.032654,0.026924,0.000000,0.197576,-0.072860,0.000000
