time,x,y,z,vx,vy,vz,ax,ay,az,jx,jy,jz,sx,sy,sz,roll,pitch,yaw,p,q,r
0.000000,-2.781310,-2.167609,-1.479341,-0.008519,0.000014,-0.003143,0.071613,-0.132675,0.000043,2.297641,-4.855379,0.032535,-107.917650,169.742653,1.612871,-0.013523,-0.007300,0.000000,-0.494862,-0.234205,0.000000
0.010000,-2.781395,-2.167609,-1.479372,-0.007803,-0.001313,-0.003143,0.094589,-0.181228,0.000368,1.218464,-3.157952,0.048664,-200.727105,368.708802,0.278115,-0.018472,-0.009642,0.000000,-0.321868,-0.124226,0.000000
0.020000,-2.781466,-2.167635,-1.479404,-0.006627,-0.003611,-0.003136,0.095982,-0.195834,0.001016,-1.716901,2.518797,0.038097,-205.770525,469.730521,-4.331195,-0.019961,-0.009785,0.000000,0.256558,0.174944,0.000000
0.030000,-2.781527,-2.167681,-1.479435,-0.005883,-0.005230,-0.003122,0.060251,-0.130852,0.001130,-2.896946,6.236658,-0.037960,2.273181,162.567829,-8.379751,-0.013339,-0.006142,0.000000,0.635721,0.295326,-0.000000
0.040000,-2.781583,-2.167740,-1.479466,-0.005422,-0.006228,-0.003113,0.038043,-0.071100,0.000257,-1.671438,5.770154,-0.129498,110.664273,-41.380072,-8.465536,-0.007248,-0.003878,0.000000,0.588262,0.170430,0.000000
0.050000,-2.781636,-2.167805,-1.479497,-0.005122,-0.006652,-0.003117,0.026822,-0.015449,-0.001460,-0.683661,5.409057,-0.207271,88.424148,-31.560361,-7.148533,-0.001575,-0.002734,0.000000,0.551329,0.069737,0.000000
0.060000,-2.781686,-2.167873,-1.479528,-0.004886,-0.006537,-0.003142,0.024370,0.037081,-0.003888,0.097045,5.138947,-0.272468,69.150540,-23.138164,-5.947207,0.003778,-0.002483,0.000000,0.523526,-0.009819,-0.000000
0.070000,-2.781733,-2.167936,-1.479560,-0.004635,-0.005910,-0.003195,0.028763,0.087330,-0.006909,0.699350,4.946293,-0.326215,52.644332,-16.024469,-4.855189,0.008896,-0.002930,0.000000,0.503515,-0.071139,-0.000000
0.080000,-2.781778,-2.167991,-1.479592,-0.004310,-0.004790,-0.003280,0.038357,0.136007,-0.010413,1.149932,4.818457,-0.369572,38.706380,-10.130245,-3.866109,0.013848,-0.003906,0.000000,0.490032,-0.116936,0.000000
0.090000,-2.781820,-2.168032,-1.479626,-0.003868,-0.003190,-0.003403,0.051762,0.183699,-0.014300,1.473478,4.743689,-0.403537,27.137587,-5.366489,-2.973587,0.018696,-0.005269,0.000000,0.481895,-0.149736,-0.000000
0.100000,-2.781856,-2.168055,-1.479660,-0.003275,-0.001116,-0.003566,0.067827,0.230880,-0.018483,1.692684,4.711127,-0.429044,17.738866,-1.644204,-2.171239,0.023486,-0.006901,0.000000,0.478006,-0.171865,-0.000000
0.110000,-2.781885,-2.168054,-1.479697,-0.002511,0.001428,-0.003773,0.085616,0.277921,-0.022881,1.828255,4.710804,-0.446962,10.311079,1.125649,-1.452706,0.028256,-0.008707,0.000000,0.477357,-0.185449,0.000000
0.120000,-2.781906,-2.168026,-1.479736,-0.001563,0.004442,-0.004024,0.104392,0.325096,-0.027423,1.898905,4.733640,-0.458098,4.655031,3.032066,-0.811627,0.033033,-0.010611,0.000000,0.479031,-0.192408,-0.000000
0.130000,-2.781916,-2.167966,-1.479778,-0.000423,0.007929,-0.004321,0.123594,0.372594,-0.032043,1.921356,4.771446,-0.463194,0.571639,4.164050,-0.241617,0.037836,-0.012557,0.000000,0.482199,-0.194458,-0.000000
0.140000,-2.781914,-2.167868,-1.479822,0.000909,0.011894,-0.004665,0.142819,0.420525,-0.036686,1.910338,4.816921,-0.462930,-2.138000,4.610700,0.263729,0.042677,-0.014503,0.000000,0.486127,-0.193110,0.000000
0.150000,-2.781898,-2.167728,-1.479871,0.002433,0.016340,-0.005055,0.161801,0.468933,-0.041302,1.878596,4.863660,-0.457920,-3.673179,4.460969,0.710754,0.047559,-0.016423,0.000000,0.490170,-0.189666,0.000000
0.160000,-2.781866,-2.167541,-1.479923,0.004145,0.021273,-0.005491,0.180391,0.517799,-0.045845,1.836874,4.906141,-0.448715,-4.233265,3.803767,1.105792,0.052480,-0.018301,0.000000,0.493774,-0.185223,0.000000
0.170000,-2.781815,-2.167302,-1.479981,0.006041,0.026696,-0.005972,0.198538,0.567055,-0.050276,1.793930,4.939735,-0.435804,-4.048110,2.738192,1.456396,0.057434,-0.020132,0.000000,0.496480,-0.180673,-0.000000
0.180000,-2.781745,-2.167007,-1.480043,0.008116,0.032614,-0.006497,0.216269,0.616593,-0.054561,1.755912,4.960905,-0.419587,-3.859255,1.527321,1.788735,0.062410,-0.021920,0.000000,0.497936,-0.176640,-0.000000
0.190000,-2.781653,-2.166650,-1.480111,0.010366,0.039028,-0.007063,0.233656,0.666274,-0.058668,1.716745,4.970282,-0.400029,-3.678439,0.199896,2.102303,0.067393,-0.023672,0.000000,0.498220,-0.172510,0.000000
0.200000,-2.781538,-2.166226,-1.480184,0.012789,0.045939,-0.007670,0.250604,0.715999,-0.062562,1.682343,4.964903,-0.377541,0.298394,-2.439147,2.257564,0.072374,-0.025378,0.000000,0.497040,-0.168883,-0.000000
0.210000,-2.781397,-2.165731,-1.480264,0.015378,0.053348,-0.008314,0.267303,0.765572,-0.066219,1.722713,4.921499,-0.354878,7.443256,-6.163179,2.276544,0.077334,-0.027059,0.000000,0.492033,-0.172813,0.000000
0.220000,-2.781230,-2.165159,-1.480350,0.018135,0.061251,-0.008994,0.285058,0.814429,-0.069659,1.831209,4.841639,-0.332010,6.078256,-7.198060,2.583887,0.082215,-0.028845,0.000000,0.483368,-0.183606,-0.000000
0.230000,-2.781035,-2.164506,-1.480444,0.021080,0.069636,-0.009708,0.303927,0.862404,-0.072859,1.844278,4.777537,-0.303200,-4.210597,-5.331735,3.191997,0.087001,-0.030743,0.000000,0.476390,-0.184793,-0.000000
0.240000,-2.780809,-2.163767,-1.480545,0.024214,0.078499,-0.010451,0.321944,0.909980,-0.075723,1.746997,4.735004,-0.268170,-7.684496,-5.606304,3.526970,0.091743,-0.032555,0.000000,0.471706,-0.174911,0.000000
0.250000,-2.780550,-2.162936,-1.480653,0.027518,0.087836,-0.011222,0.338867,0.957104,-0.078222,1.690588,4.665411,-0.232661,-2.817259,-8.885528,3.545519,0.096436,-0.034256,0.000000,0.464353,-0.169174,-0.000000
0.260000,-2.780258,-2.162010,-1.480769,0.030991,0.097641,-0.012016,0.355756,1.003288,-0.080376,1.690651,4.557294,-0.197260,-0.393434,-11.642122,3.638408,0.101030,-0.035954,0.000000,0.453184,-0.169135,0.000000
0.270000,-2.779930,-2.160983,-1.480893,0.034634,0.107902,-0.012830,0.372680,1.048250,-0.082168,1.682720,4.432569,-0.159893,-1.576470,-12.331601,3.809182,0.105499,-0.037656,0.000000,0.440445,-0.168316,0.000000
0.280000,-2.779565,-2.159852,-1.481026,0.038445,0.118606,-0.013659,0.389410,1.091939,-0.083574,1.659122,4.310662,-0.121076,-2.637304,-12.085864,3.918747,0.109839,-0.039340,0.000000,0.428085,-0.165950,0.000000
0.290000,-2.779162,-2.158611,-1.481166,0.042422,0.129741,-0.014501,0.405863,1.134464,-0.084589,1.629973,4.190852,-0.081518,-3.001874,-12.660037,3.998394,0.114061,-0.040996,0.000000,0.416019,-0.163053,0.000000
0.300000,-2.778717,-2.157257,-1.481316,0.046562,0.141295,-0.015351,0.422010,1.175756,-0.085205,1.599085,4.057461,-0.041108,-3.240902,-14.148572,4.085456,0.118160,-0.042622,0.000000,0.402687,-0.160008,0.000000
0.310000,-2.778230,-2.155785,-1.481473,0.050862,0.153256,-0.016205,0.437844,1.215613,-0.085411,1.565155,3.907880,0.000191,-3.597304,-15.378364,4.151801,0.122115,-0.044218,0.000000,0.387836,-0.156686,-0.000000
0.320000,-2.777700,-2.154192,-1.481640,0.055319,0.165607,-0.017059,0.453313,1.253914,-0.085201,1.527138,3.749894,0.041928,-3.797600,-15.941168,4.149737,0.125917,-0.045779,0.000000,0.372241,-0.152981,-0.000000
0.330000,-2.777124,-2.152473,-1.481815,0.059928,0.178334,-0.017909,0.468387,1.290611,-0.084573,1.489203,3.589057,0.083186,-3.748060,-16.222958,4.085145,0.129560,-0.047302,0.000000,0.356440,-0.149306,0.000000
0.340000,-2.776501,-2.150625,-1.481998,0.064687,0.191420,-0.018751,0.483097,1.325695,-0.083537,1.452177,3.425435,0.123630,-3.838037,-16.672072,4.021093,0.133046,-0.048791,0.000000,0.340431,-0.145741,0.000000
0.350000,-2.775830,-2.148645,-1.482190,0.069590,0.204848,-0.019580,0.497431,1.359119,-0.082100,1.412443,3.255615,0.163608,-4.140967,-17.287254,3.978846,0.136369,-0.050243,0.000000,0.323880,-0.141924,0.000000
0.360000,-2.775109,-2.146528,-1.482390,0.074635,0.218602,-0.020393,0.511346,1.390807,-0.080265,1.369358,3.079689,0.203207,-4.384029,-17.778127,3.914925,0.139524,-0.051656,0.000000,0.306795,-0.137793,0.000000
0.370000,-2.774338,-2.144273,-1.482597,0.079817,0.232664,-0.021185,0.524818,1.420713,-0.078036,1.324762,2.900053,0.241906,-4.465269,-18.087006,3.778410,0.142506,-0.053026,0.000000,0.289402,-0.133527,-0.000000
0.380000,-2.773513,-2.141875,-1.482813,0.085131,0.247016,-0.021953,0.537841,1.448808,-0.075427,1.280053,2.717949,0.278776,-4.475558,-18.315390,3.581568,0.145312,-0.054354,0.000000,0.271805,-0.129260,-0.000000
0.390000,-2.772635,-2.139332,-1.483037,0.090574,0.261640,-0.022694,0.550419,1.475072,-0.072460,1.235251,2.533745,0.313538,-4.528726,-18.520265,3.392351,0.147942,-0.055639,0.000000,0.254029,-0.124989,-0.000000
0.400000,-2.771702,-2.136642,-1.483267,0.096140,0.276518,-0.023403,0.562546,1.499483,-0.069156,1.189478,2.347544,0.346623,-4.623798,-18.689993,3.228458,0.150393,-0.056881,0.000000,0.236084,-0.120628,0.000000
0.410000,-2.770712,-2.133802,-1.483505,0.101825,0.291630,-0.024077,0.574208,1.522023,-0.065528,1.142775,2.159945,0.378107,-4.687178,-18.793988,3.044893,0.152664,-0.058079,0.000000,0.218026,-0.116180,0.000000
0.420000,-2.769665,-2.130810,-1.483749,0.107624,0.306958,-0.024713,0.585401,1.542682,-0.061594,1.095734,1.971664,0.407520,-4.709681,-18.846960,2.803153,0.154753,-0.059232,0.000000,0.199910,-0.111698,-0.000000
0.430000,-2.768560,-2.127663,-1.483999,0.113533,0.322483,-0.025309,0.596123,1.561456,-0.057378,1.048581,1.783006,0.434170,-4.717636,-18.863990,2.518487,0.156662,-0.060340,0.000000,0.181748,-0.107201,0.000000
0.440000,-2.767394,-2.124360,-1.484255,0.119546,0.338187,-0.025861,0.606373,1.578342,-0.052910,1.001382,1.594384,0.457890,-4.718200,-18.827654,2.243035,0.158389,-0.061403,0.000000,0.163571,-0.102690,-0.000000
0.450000,-2.766169,-2.120899,-1.484516,0.125660,0.354050,-0.026367,0.616151,1.593344,-0.048220,0.954217,1.406453,0.479031,-4.706155,-18.731342,1.986430,0.159933,-0.062420,0.000000,0.145441,-0.098174,0.000000
0.460000,-2.764881,-2.117279,-1.484782,0.131870,0.370054,-0.026825,0.625457,1.606471,-0.043330,0.907259,1.219758,0.497619,-4.678976,-18.591878,1.716140,0.161297,-0.063392,0.000000,0.127407,-0.093668,0.000000
0.470000,-2.763531,-2.113498,-1.485053,0.138169,0.386180,-0.027234,0.634296,1.617739,-0.038267,0.860638,1.034615,0.513353,-4.645549,-18.429001,1.415537,0.162482,-0.064318,0.000000,0.109487,-0.089182,0.000000
0.480000,-2.762118,-2.109555,-1.485327,0.144555,0.402409,-0.027590,0.642670,1.627164,-0.033063,0.814348,0.851178,0.525930,-4.608171,-18.241129,1.098087,0.163487,-0.065199,0.000000,0.091686,-0.084711,-0.000000
0.490000,-2.760640,-2.105450,-1.485604,0.151023,0.418723,-0.027895,0.650583,1.634763,-0.027749,0.768474,0.669793,0.535315,-4.555877,-18.007823,0.787850,0.164315,-0.066035,0.000000,0.074031,-0.080262,-0.000000
0.500000,-2.759097,-2.101181,-1.485885,0.157567,0.435104,-0.028145,0.658040,1.640560,-0.022356,0.723230,0.491021,0.541687,-4.486055,-17.726090,0.484888,0.164968,-0.066826,0.000000,0.056575,-0.075855,-0.000000
0.510000,-2.757489,-2.096748,-1.486167,0.164184,0.451534,-0.028342,0.665048,1.644583,-0.016915,0.678753,0.315271,0.545013,-4.407394,-17.413633,0.176815,0.165447,-0.067573,0.000000,0.039353,-0.071502,0.000000
0.520000,-2.755814,-2.092150,-1.486452,0.170868,0.467996,-0.028484,0.671615,1.646865,-0.011456,0.635082,0.142749,0.545223,-4.326882,-17.084662,-0.128617,0.165755,-0.068276,0.000000,0.022381,-0.067206,-0.000000
0.530000,-2.754071,-2.087388,-1.486737,0.177616,0.484472,-0.028571,0.677749,1.647438,-0.006011,0.592216,-0.026422,0.542441,-4.242551,-16.736650,-0.422902,0.165894,-0.068936,0.000000,0.005670,-0.062966,0.000000
0.540000,-2.752261,-2.082461,-1.487023,0.184423,0.500945,-0.028604,0.683459,1.646336,-0.000607,0.550231,-0.191984,0.536765,-4.146850,-16.356324,-0.713592,0.165868,-0.069553,0.000000,-0.010756,-0.058790,-0.000000
0.550000,-2.750383,-2.077369,-1.487309,0.191285,0.517398,-0.028583,0.688754,1.643598,0.004725,0.509279,-0.353549,0.528169,-4.039271,-15.942248,-1.009451,0.165679,-0.070128,0.000000,-0.026862,-0.054690,-0.000000
0.560000,-2.748436,-2.072113,-1.487595,0.198198,0.533816,-0.028509,0.693645,1.639266,0.009956,0.469446,-0.510829,0.516576,-3.925713,-15.506811,-1.301124,0.165331,-0.070662,0.000000,-0.042620,-0.050675,0.000000
0.570000,-2.746419,-2.066693,-1.487879,0.205158,0.550184,-0.028384,0.698143,1.633382,0.015056,0.430764,-0.663685,0.502146,-3.809128,-15.060687,-1.559720,0.164827,-0.071155,0.000000,-0.058016,-0.046749,0.000000
0.580000,-2.744333,-2.061109,-1.488162,0.212161,0.566484,-0.028208,0.702260,1.625992,0.019999,0.393263,-0.812043,0.485381,-3.688213,-14.602886,-1.783198,0.164170,-0.071610,0.000000,-0.073033,-0.042918,0.000000
0.590000,-2.742176,-2.055363,-1.488443,0.219203,0.582703,-0.027984,0.706008,1.617141,0.024764,0.357000,-0.955743,0.466482,-3.560420,-14.124133,-2.006842,0.163366,-0.072026,0.000000,-0.087651,-0.039188,0.000000
0.600000,-2.739948,-2.049455,-1.488722,0.226281,0.598827,-0.027713,0.709400,1.606877,0.029329,0.322055,-1.094526,0.445245,-3.426318,-13.622634,-2.245791,0.162417,-0.072404,0.000000,-0.101848,-0.035566,-0.000000
0.610000,-2.737650,-2.043386,-1.488998,0.233391,0.614841,-0.027398,0.712449,1.595250,0.033669,0.288474,-1.228195,0.421567,-3.288428,-13.107859,-2.472406,0.161329,-0.072746,0.000000,-0.115603,-0.032056,-0.000000
0.620000,-2.735281,-2.037158,-1.489270,0.240530,0.630732,-0.027040,0.715169,1.582313,0.037760,0.256286,-1.356683,0.395796,-3.147152,-12.591096,-2.643811,0.160105,-0.073054,0.000000,-0.128901,-0.028663,-0.000000
0.630000,-2.732840,-2.030772,-1.489538,0.247695,0.646487,-0.026642,0.717575,1.568117,0.041585,0.225531,-1.480017,0.368690,-3.002262,-12.072363,-2.764252,0.158751,-0.073327,0.000000,-0.141731,-0.025398,-0.000000
0.640000,-2.730327,-2.024229,-1.489803,0.254882,0.662094,-0.026208,0.719680,1.552713,0.045134,0.196241,-1.598130,0.340511,-2.854266,-11.540925,-2.887826,0.157270,-0.073568,0.000000,-0.154078,-0.022266,-0.000000
0.650000,-2.727742,-2.017530,-1.490063,0.262088,0.677541,-0.025740,0.721500,1.536154,0.048395,0.168445,-1.710836,0.310934,-2.703592,-10.993386,-3.032740,0.155669,-0.073778,0.000000,-0.165926,-0.019268,-0.000000
0.660000,-2.725085,-2.010678,-1.490318,0.269312,0.692817,-0.025240,0.723049,1.518496,0.051352,0.142169,-1.817998,0.279857,-2.550742,-10.440087,-3.159730,0.153952,-0.073958,0.000000,-0.177259,-0.016406,-0.000000
0.670000,-2.722356,-2.003674,-1.490567,0.276549,0.707911,-0.024713,0.724343,1.499794,0.053992,0.117431,-1.919638,0.247739,-2.396320,-9.895796,-3.220914,0.152124,-0.074110,0.000000,-0.188069,-0.013686,-0.000000
0.680000,-2.719554,-1.996519,-1.490812,0.283798,0.722813,-0.024160,0.725397,1.480103,0.056307,0.094243,-2.015914,0.215438,-2.240799,-9.360354,-3.225441,0.150190,-0.074235,0.000000,-0.198354,-0.011116,0.000000
0.690000,-2.716680,-1.989217,-1.491051,0.291057,0.737513,-0.023586,0.726228,1.459476,0.058301,0.072615,-2.106845,0.183230,-2.084453,-8.817784,-3.234808,0.148157,-0.074335,0.000000,-0.208110,-0.008700,0.000000
0.700000,-2.713733,-1.981769,-1.491284,0.298323,0.752003,-0.022994,0.726850,1.437966,0.059972,0.052554,-2.192270,0.150742,-1.927195,-8.262482,-3.266869,0.146028,-0.074411,0.000000,-0.217322,-0.006437,0.000000
0.710000,-2.710713,-1.974177,-1.491510,0.305594,0.766273,-0.022387,0.727279,1.415631,0.061316,0.034071,-2.272094,0.117893,-1.769628,-7.708150,-3.278785,0.143810,-0.074465,0.000000,-0.225978,-0.004328,-0.000000
0.720000,-2.707621,-1.966444,-1.491731,0.312869,0.780315,-0.021768,0.727531,1.392524,0.062330,0.017161,-2.346433,0.085166,-1.613754,-7.174129,-3.226436,0.141509,-0.074498,0.000000,-0.234080,-0.002375,0.000000
0.730000,-2.704456,-1.958571,-1.491946,0.320145,0.794123,-0.021140,0.727622,1.368702,0.063019,0.001796,-2.415577,0.053364,-1.460176,-6.659097,-3.121822,0.139129,-0.074513,0.000000,-0.241642,-0.000584,-0.000000
0.740000,-2.701218,-1.950561,-1.492154,0.327421,0.807689,-0.020508,0.727567,1.344213,0.063397,-0.012042,-2.479615,0.022730,-1.307157,-6.140509,-3.022464,0.136676,-0.074510,0.000000,-0.248667,0.001046,0.000000
0.750000,-2.697908,-1.942417,-1.492356,0.334696,0.821007,-0.019872,0.727381,1.319110,0.063474,-0.024347,-2.538387,-0.007085,-1.153725,-5.610912,-2.942857,0.134156,-0.074492,0.000000,-0.255143,0.002515,-0.000000
0.760000,-2.694524,-1.934141,-1.492552,0.341969,0.834072,-0.019238,0.727080,1.293445,0.063255,-0.035117,-2.591833,-0.036127,-1.001875,-5.088060,-2.844410,0.131573,-0.074459,0.000000,-0.261061,0.003825,-0.000000
0.770000,-2.691068,-1.925736,-1.492741,0.349238,0.846876,-0.018607,0.726679,1.267273,0.062751,-0.044385,-2.640148,-0.063973,-0.855609,-4.594666,-2.693777,0.128934,-0.074415,0.000000,-0.266435,0.004973,0.000000
0.780000,-2.687539,-1.917204,-1.492924,0.356502,0.859417,-0.017983,0.726192,1.240642,0.061976,-0.052229,-2.683726,-0.090003,-0.715098,-4.127748,-2.503368,0.126244,-0.074359,0.000000,-0.271294,0.005965,0.000000
0.790000,-2.683938,-1.908547,-1.493100,0.363762,0.871689,-0.017368,0.725634,1.213598,0.060951,-0.058687,-2.722703,-0.114041,-0.575883,-3.659778,-2.317588,0.123509,-0.074294,0.000000,-0.275649,0.006800,-0.000000
0.800000,-2.680264,-1.899770,-1.493271,0.371015,0.883689,-0.016764,0.725019,1.186188,0.059695,-0.063747,-2.756922,-0.136354,-0.436572,-3.182457,-2.145659,0.120732,-0.074222,0.000000,-0.279489,0.007481,-0.000000
0.810000,-2.676518,-1.890874,-1.493436,0.378262,0.895413,-0.016174,0.724359,1.158460,0.058224,-0.067418,-2.786352,-0.156954,-0.300906,-2.716306,-1.959198,0.117919,-0.074144,0.000000,-0.282809,0.008008,-0.000000
0.820000,-2.672699,-1.881862,-1.493595,0.385502,0.906858,-0.015600,0.723670,1.130461,0.056556,-0.069765,-2.811248,-0.175538,-0.173571,-2.284807,-1.739804,0.115075,-0.074061,0.000000,-0.285633,0.008386,-0.000000
0.830000,-2.668808,-1.872736,-1.493748,0.392735,0.918022,-0.015043,0.722964,1.102235,0.054713,-0.070890,-2.832048,-0.191750,-0.054256,-1.883476,-1.498196,0.112206,-0.073975,0.000000,-0.288001,0.008621,0.000000
0.840000,-2.664844,-1.863501,-1.493895,0.399961,0.928903,-0.014505,0.722253,1.073820,0.052721,-0.070850,-2.848917,-0.205502,0.062568,-1.483122,-1.260014,0.109315,-0.073887,0.000000,-0.289930,0.008720,-0.000000
0.850000,-2.660809,-1.854158,-1.494038,0.407180,0.939499,-0.013988,0.721547,1.045257,0.050603,-0.069638,-2.861711,-0.216950,0.179617,-1.076071,-1.028420,0.106408,-0.073799,0.000000,-0.291409,0.008682,-0.000000
0.860000,-2.656701,-1.844711,-1.494175,0.414392,0.949808,-0.013493,0.720860,1.016586,0.048382,-0.067258,-2.870439,-0.226071,0.292364,-0.683329,-0.788657,0.103487,-0.073713,0.000000,-0.292440,0.008508,0.000000
0.870000,-2.652521,-1.835162,-1.494308,0.421598,0.959830,-0.013021,0.720202,0.987848,0.046082,-0.063791,-2.875377,-0.232723,0.392427,-0.325336,-0.538327,0.100559,-0.073628,0.000000,-0.293052,0.008205,-0.000000
0.880000,-2.648269,-1.825515,-1.494436,0.428796,0.969565,-0.012572,0.719584,0.959078,0.043727,-0.059409,-2.876945,-0.236837,0.480516,0.003326,-0.284913,0.097626,-0.073548,0.000000,-0.293289,0.007790,-0.000000
0.890000,-2.643945,-1.815771,-1.494559,0.435989,0.979012,-0.012146,0.719014,0.930309,0.041345,-0.054181,-2.875311,-0.238421,0.567426,0.328407,-0.033630,0.094693,-0.073472,0.000000,-0.293169,0.007271,-0.000000
0.900000,-2.639549,-1.805934,-1.494679,0.443177,0.988171,-0.011745,0.718500,0.901572,0.038959,-0.048061,-2.870377,-0.237510,0.655414,0.656156,0.218091,0.091763,-0.073402,0.000000,-0.292686,0.006642,-0.000000
0.910000,-2.635081,-1.796008,-1.494794,0.450359,0.997043,-0.011367,0.718053,0.872901,0.036595,-0.041073,-2.862188,-0.234060,0.736675,0.968588,0.470774,0.088839,-0.073338,0.000000,-0.291846,0.005907,-0.000000
0.920000,-2.630542,-1.785993,-1.494906,0.457538,1.005629,-0.011013,0.717679,0.844328,0.034278,-0.033327,-2.851006,-0.228094,0.805949,1.249911,0.712473,0.085926,-0.073283,0.000000,-0.290680,0.005076,0.000000
0.930000,-2.625930,-1.775895,-1.495014,0.464713,1.013930,-0.010682,0.717386,0.815881,0.032033,-0.024954,-2.837190,-0.219810,0.865444,1.505358,0.939667,0.083026,-0.073236,0.000000,-0.289226,0.004164,0.000000
0.940000,-2.621247,-1.765715,-1.495119,0.471885,1.021947,-0.010372,0.717180,0.787585,0.029882,-0.016018,-2.820898,-0.209301,0.921388,1.755023,1.165765,0.080141,-0.073199,0.000000,-0.287505,0.003180,-0.000000
0.950000,-2.616493,-1.755456,-1.495222,0.479056,1.029682,-0.010084,0.717066,0.759463,0.027847,-0.006526,-2.802089,-0.196495,0.975100,2.002957,1.397967,0.077276,-0.073173,0.000000,-0.285514,0.002122,0.000000
0.960000,-2.611666,-1.745121,-1.495321,0.486227,1.037136,-0.009815,0.717049,0.731543,0.025952,0.003484,-2.780839,-0.181342,1.022190,2.235635,1.624247,0.074431,-0.073157,0.000000,-0.283263,0.000994,-0.000000
0.970000,-2.606768,-1.734713,-1.495418,0.493397,1.044312,-0.009565,0.717135,0.703847,0.024220,0.013918,-2.757376,-0.164010,1.058793,2.443616,1.821946,0.071610,-0.073153,0.000000,-0.280779,-0.000193,-0.000000
0.980000,-2.601798,-1.724235,-1.495512,0.500569,1.051213,-0.009331,0.717328,0.676395,0.022672,0.024660,-2.731967,-0.144903,1.085927,2.631376,1.991545,0.068816,-0.073161,0.000000,-0.278093,-0.001423,-0.000000
0.990000,-2.596757,-1.713689,-1.495605,0.507744,1.057840,-0.009111,0.717629,0.649207,0.021322,0.035637,-2.704749,-0.124179,1.108452,2.811110,2.160644,0.066049,-0.073181,0.000000,-0.275222,-0.002690,-0.000000
1.000000,-2.591644,-1.703078,-1.495695,0.514922,1.064197,-0.008904,0.718040,0.622300,0.020188,0.046829,-2.675745,-0.101690,1.128704,2.984458,2.339415,0.063311,-0.073215,0.000000,-0.272170,-0.003992,0.000000
1.010000,-2.586458,-1.692405,-1.495783,0.522105,1.070286,-0.008708,0.718565,0.595692,0.019288,0.058211,-2.645060,-0.077391,1.143218,3.143671,2.506721,0.060605,-0.073261,0.000000,-0.268949,-0.005327,0.000000
1.020000,-2.581201,-1.681672,-1.495869,0.529293,1.076111,-0.008519,0.719205,0.569399,0.018640,0.069693,-2.612871,-0.051555,1.145616,3.285700,2.633817,0.057932,-0.073321,0.000000,-0.265578,-0.006684,-0.000000
1.030000,-2.575873,-1.670883,-1.495953,0.536489,1.081674,-0.008335,0.719959,0.543435,0.018257,0.081123,-2.579346,-0.024714,1.136805,3.413566,2.724555,0.055293,-0.073395,0.000000,-0.262081,-0.008043,-0.000000
1.040000,-2.570472,-1.660039,-1.496036,0.543692,1.086980,-0.008154,0.720827,0.517812,0.018146,0.092429,-2.544600,0.002936,1.125303,3.531430,2.814962,0.052690,-0.073482,0.000000,-0.258470,-0.009397,0.000000
1.050000,-2.564999,-1.649143,-1.496116,0.550905,1.092031,-0.007972,0.721808,0.492543,0.018316,0.103629,-2.508717,0.031585,1.112528,3.639266,2.916444,0.050124,-0.073583,0.000000,-0.254753,-0.010749,-0.000000
1.060000,-2.559454,-1.638198,-1.496195,0.558129,1.096831,-0.007787,0.722900,0.467638,0.018778,0.114680,-2.471815,0.061264,1.092806,3.734933,3.002942,0.047595,-0.073698,0.000000,-0.250942,-0.012095,-0.000000
1.070000,-2.553836,-1.627207,-1.496272,0.565363,1.101383,-0.007596,0.724101,0.443107,0.019541,0.125485,-2.434018,0.091644,1.063614,3.819483,3.044259,0.045105,-0.073825,0.000000,-0.247053,-0.013422,-0.000000
1.080000,-2.548146,-1.616171,-1.496347,0.572611,1.105693,-0.007396,0.725409,0.418958,0.020610,0.135952,-2.395425,0.122150,1.026836,3.894252,3.046601,0.042654,-0.073966,0.000000,-0.243098,-0.014718,0.000000
1.090000,-2.542384,-1.605093,-1.496420,0.579872,1.109763,-0.007184,0.726820,0.395198,0.021984,0.146022,-2.356133,0.152576,0.985695,3.958332,3.048564,0.040243,-0.074120,0.000000,-0.239088,-0.015975,-0.000000
1.100000,-2.536549,-1.593975,-1.496491,0.587147,1.113597,-0.006957,0.728330,0.371835,0.023662,0.155666,-2.316258,0.183121,0.941130,4.010855,3.061188,0.037872,-0.074286,0.000000,-0.235032,-0.017191,0.000000
1.110000,-2.530641,-1.582821,-1.496559,0.594438,1.117199,-0.006711,0.729934,0.348873,0.025646,0.164844,-2.275916,0.213799,0.891154,4.053097,3.057574,0.035542,-0.074464,0.000000,-0.230943,-0.018364,0.000000
1.120000,-2.524660,-1.571631,-1.496625,0.601746,1.120574,-0.006444,0.731627,0.326317,0.027938,0.173489,-2.235196,0.244272,0.833431,4.088232,3.010185,0.033253,-0.074654,0.000000,-0.226830,-0.019483,-0.000000
1.130000,-2.518606,-1.560409,-1.496688,0.609071,1.123726,-0.006152,0.733403,0.304169,0.030532,0.181513,-2.194152,0.274003,0.768654,4.116456,2.926484,0.031006,-0.074854,0.000000,-0.222699,-0.020536,-0.000000
1.140000,-2.512479,-1.549157,-1.496748,0.616414,1.126658,-0.005833,0.735257,0.282433,0.033418,0.188862,-2.152867,0.302802,0.700197,4.134189,2.842311,0.028799,-0.075065,0.000000,-0.218559,-0.021516,-0.000000
1.150000,-2.506278,-1.537876,-1.496805,0.623776,1.129374,-0.005484,0.737181,0.261112,0.036588,0.195517,-2.111468,0.330849,0.629127,4.140515,2.766992,0.026635,-0.075285,0.000000,-0.214421,-0.022423,-0.000000
1.160000,-2.500003,-1.526569,-1.496858,0.631157,1.131880,-0.005101,0.739167,0.240204,0.040035,0.201445,-2.070057,0.358142,0.553389,4.138398,2.676419,0.024511,-0.075513,0.000000,-0.210294,-0.023252,0.000000
1.170000,-2.493655,-1.515239,-1.496907,0.638559,1.134178,-0.004683,0.741209,0.219711,0.043751,0.206585,-2.028700,0.384378,0.470934,4.130910,2.548833,0.022429,-0.075750,0.000000,-0.206184,-0.023996,0.000000
1.180000,-2.487232,-1.503886,-1.496951,0.645982,1.136274,-0.004226,0.743299,0.199630,0.047722,0.210863,-1.987439,0.409119,0.382533,4.117525,2.391799,0.020387,-0.075993,0.000000,-0.202096,-0.024643,0.000000
1.190000,-2.480735,-1.492513,-1.496991,0.653425,1.138171,-0.003729,0.745427,0.179962,0.051933,0.214235,-1.946349,0.432214,0.291234,4.094877,2.234314,0.018387,-0.076243,0.000000,-0.198035,-0.025187,-0.000000
1.200000,-2.474163,-1.481122,-1.497026,0.660890,1.139873,-0.003188,0.747584,0.160703,0.056367,0.216688,-1.905541,0.453805,0.198139,4.062693,2.083110,0.016427,-0.076497,0.000000,-0.194012,-0.025628,-0.000000
1.210000,-2.467517,-1.469716,-1.497055,0.668377,1.141385,-0.002601,0.749760,0.141851,0.061009,0.218198,-1.865096,0.473876,0.101484,4.023656,1.919512,0.014506,-0.076755,0.000000,-0.190032,-0.025964,0.000000
1.220000,-2.460796,-1.458295,-1.497078,0.675885,1.142710,-0.001968,0.751948,0.123401,0.065844,0.218718,-1.825068,0.492195,-0.000787,3.979062,1.729466,0.012626,-0.077016,0.000000,-0.186102,-0.026186,0.000000
1.230000,-2.453999,-1.446861,-1.497094,0.683416,1.143853,-0.001284,0.754135,0.105350,0.070853,0.218182,-1.785514,0.508465,-0.107932,3.928240,1.519728,0.010784,-0.077279,0.000000,-0.182224,-0.026286,-0.000000
1.240000,-2.447128,-1.435418,-1.497103,0.690968,1.144817,-0.000550,0.756311,0.087691,0.076014,0.216559,-1.746503,0.522590,-0.216822,3.870204,1.309787,0.008981,-0.077542,0.000000,-0.178406,-0.026260,-0.000000
1.250000,-2.440180,-1.423965,-1.497105,0.698542,1.145607,0.000236,0.758466,0.070419,0.081305,0.213846,-1.708110,0.534661,-0.326315,3.805834,1.103240,0.007216,-0.077804,0.000000,-0.174652,-0.026106,-0.000000
1.260000,-2.433157,-1.412506,-1.497099,0.706137,1.146226,0.001076,0.760588,0.053529,0.086707,0.210033,-1.670387,0.544654,-0.438143,3.736093,0.888467,0.005488,-0.078064,0.000000,-0.170968,-0.025824,-0.000000
1.270000,-2.426057,-1.401041,-1.497084,0.713754,1.146677,0.001970,0.762667,0.037012,0.092198,0.205083,-1.633388,0.552430,-0.554459,3.659360,0.659970,0.003797,-0.078321,0.000000,-0.167356,-0.025409,0.000000
1.280000,-2.418882,-1.389572,-1.497059,0.721391,1.146966,0.002920,0.764690,0.020861,0.097755,0.198944,-1.597199,0.557854,-0.674498,3.575403,0.422953,0.002141,-0.078573,0.000000,-0.163825,-0.024852,0.000000
1.290000,-2.411630,-1.378101,-1.497025,0.729048,1.147095,0.003925,0.766646,0.005068,0.103355,0.191593,-1.561880,0.560889,-0.794846,3.487102,0.186143,0.000520,-0.078818,0.000000,-0.160380,-0.024152,0.000000
1.300000,-2.404301,-1.366630,-1.496981,0.736724,1.147067,0.004987,0.768522,-0.010377,0.108973,0.183047,-1.527457,0.561577,-0.914428,3.396012,-0.050006,-0.001066,-0.079056,0.000000,-0.157021,-0.023308,0.000000
1.310000,-2.396895,-1.355160,-1.496926,0.744418,1.146887,0.006105,0.770306,-0.025481,0.114587,0.173305,-1.493960,0.559889,-1.035103,3.300501,-0.289489,-0.002620,-0.079284,0.000000,-0.153751,-0.022322,-0.000000
1.320000,-2.389412,-1.343692,-1.496859,0.752130,1.146558,0.007278,0.771988,-0.040256,0.120171,0.162345,-1.461447,0.555787,-1.158573,3.197687,-0.529622,-0.004141,-0.079502,0.000000,-0.150574,-0.021189,-0.000000
1.330000,-2.381852,-1.332229,-1.496780,0.759858,1.146082,0.008508,0.773553,-0.054710,0.125702,0.150133,-1.430006,0.549297,-1.283923,3.088188,-0.767164,-0.005631,-0.079708,0.000000,-0.147499,-0.019906,-0.000000
1.340000,-2.374215,-1.320771,-1.496689,0.767601,1.145463,0.009792,0.774990,-0.068856,0.131157,0.136666,-1.399684,0.540444,-1.408290,2.976486,-1.003908,-0.007091,-0.079900,0.000000,-0.144530,-0.018472,0.000000
1.350000,-2.366500,-1.309320,-1.496584,0.775358,1.144705,0.011131,0.776287,-0.082704,0.136511,0.121967,-1.370477,0.529219,-1.531100,2.864547,-1.242272,-0.008522,-0.080077,0.000000,-0.141664,-0.016889,0.000000
1.360000,-2.358708,-1.297877,-1.496466,0.783127,1.143809,0.012523,0.777430,-0.096266,0.141741,0.106044,-1.342393,0.515598,-1.653787,2.749729,-1.479035,-0.009925,-0.080238,0.000000,-0.138902,-0.015158,-0.000000
1.370000,-2.350838,-1.286443,-1.496334,0.790906,1.142780,0.013966,0.778408,-0.109552,0.146823,0.088892,-1.315482,0.499638,-1.776513,2.628144,-1.704493,-0.011300,-0.080380,0.000000,-0.136249,-0.013277,-0.000000
1.380000,-2.342890,-1.275021,-1.496187,0.798695,1.141618,0.015459,0.779208,-0.122575,0.151734,0.070514,-1.289830,0.481508,-1.898399,2.500800,-1.917505,-0.012649,-0.080503,0.000000,-0.133712,-0.011249,-0.000000
1.390000,-2.334864,-1.263611,-1.496024,0.806490,1.140328,0.017001,0.779818,-0.135348,0.156453,0.050924,-1.265466,0.461288,-2.018650,2.373593,-2.129087,-0.013974,-0.080605,0.000000,-0.131294,-0.009075,0.000000
1.400000,-2.326760,-1.252214,-1.495847,0.814291,1.138911,0.018588,0.780226,-0.147884,0.160960,0.030141,-1.242358,0.438927,-2.136713,2.248674,-2.343949,-0.015275,-0.080685,0.000000,-0.128992,-0.006757,0.000000
1.410000,-2.318578,-1.240833,-1.495653,0.822095,1.137370,0.020220,0.780421,-0.160196,0.165232,0.008189,-1.220493,0.414409,-2.252584,2.122564,-2.552758,-0.016554,-0.080741,0.000000,-0.126803,-0.004297,0.000000
1.420000,-2.310318,-1.229467,-1.495442,0.829899,1.135707,0.021893,0.780390,-0.172294,0.169248,-0.014911,-1.199907,0.387871,-2.366846,1.991226,-2.740695,-0.017811,-0.080771,0.000000,-0.124731,-0.001699,-0.000000
1.430000,-2.301980,-1.218119,-1.495215,0.837703,1.133924,0.023605,0.780122,-0.184194,0.172989,-0.039148,-1.180668,0.359595,-2.479114,1.856154,-2.908644,-0.019049,-0.080775,0.000000,-0.122782,0.001035,0.000000
1.440000,-2.293564,-1.206789,-1.494970,0.845502,1.132023,0.025353,0.779607,-0.195908,0.176440,-0.064493,-1.162784,0.329699,-2.587758,1.723505,-3.074520,-0.020267,-0.080750,0.000000,-0.120958,0.003899,-0.000000
1.450000,-2.285070,-1.195478,-1.494708,0.853295,1.130006,0.027134,0.778833,-0.207449,0.179583,-0.090903,-1.146198,0.298105,-2.692325,1.594606,-3.244496,-0.021468,-0.080697,0.000000,-0.119253,0.006889,-0.000000
1.460000,-2.276498,-1.184188,-1.494427,0.861079,1.127875,0.028944,0.777789,-0.218832,0.182402,-0.118340,-1.130891,0.264809,-2.793448,1.465991,-3.404910,-0.022652,-0.080612,0.000000,-0.117663,0.010002,-0.000000
1.470000,-2.267849,-1.172921,-1.494129,0.868851,1.125630,0.030782,0.776466,-0.230067,0.184879,-0.146772,-1.116878,0.230006,-2.891049,1.336214,-3.538192,-0.023821,-0.080496,0.000000,-0.116191,0.013231,0.000000
1.480000,-2.259121,-1.161676,-1.493812,0.876608,1.123273,0.032642,0.774853,-0.241169,0.187002,-0.176161,-1.104167,0.194045,-2.984233,1.207093,-3.646926,-0.024976,-0.080348,0.000000,-0.114838,0.016570,-0.000000
1.490000,-2.250316,-1.150455,-1.493476,0.884348,1.120806,0.034522,0.772943,-0.252151,0.188760,-0.206456,-1.092736,0.157068,-3.072315,1.081292,-3.752967,-0.026118,-0.080165,0.000000,-0.113602,0.020011,-0.000000
1.500000,-2.241434,-1.139260,-1.493121,0.892067,1.118230,0.036417,0.770724,-0.263024,0.190143,-0.237607,-1.082541,0.118986,-3.156754,0.958787,-3.862997,-0.027248,-0.079947,0.000000,-0.112478,0.023549,0.000000
1.510000,-2.232475,-1.128091,-1.492748,0.899762,1.115546,0.038324,0.768190,-0.273801,0.191140,-0.269591,-1.073561,0.079808,-3.237370,0.838645,-3.961159,-0.028367,-0.079694,0.000000,-0.111463,0.027180,-0.000000
1.520000,-2.223439,-1.116949,-1.492355,0.907431,1.112754,0.040240,0.765333,-0.284495,0.191740,-0.302354,-1.065768,0.039762,-3.308576,0.722633,-4.029606,-0.029477,-0.079403,0.000000,-0.110556,0.030897,0.000000
1.530000,-2.214327,-1.105836,-1.491943,0.915069,1.109856,0.042159,0.762143,-0.295117,0.191935,-0.335763,-1.059108,-0.000784,-3.369624,0.611943,-4.072116,-0.030578,-0.079076,0.000000,-0.109751,0.034682,-0.000000
1.540000,-2.205138,-1.094752,-1.491512,0.922673,1.106852,0.044079,0.758617,-0.305677,0.191724,-0.369747,-1.053530,-0.041680,-3.427563,0.505060,-4.111344,-0.031672,-0.078710,0.000000,-0.109045,0.038525,0.000000
1.550000,-2.195873,-1.083698,-1.491061,0.930241,1.103742,0.045994,0.754748,-0.316187,0.191102,-0.404314,-1.049007,-0.083011,-3.484231,0.400652,-4.153637,-0.032759,-0.078305,0.000000,-0.108433,0.042426,-0.000000
1.560000,-2.186533,-1.072677,-1.490592,0.937768,1.100528,0.047901,0.750531,-0.326657,0.190064,-0.439431,-1.045517,-0.124753,-3.534297,0.300640,-4.183127,-0.033841,-0.077861,0.000000,-0.107913,0.046382,0.000000
1.570000,-2.177118,-1.061688,-1.490103,0.945252,1.097209,0.049795,0.745960,-0.337098,0.188607,-0.475000,-1.042994,-0.166674,-3.573003,0.210003,-4.183805,-0.034917,-0.077377,0.000000,-0.107480,0.050379,-0.000000
1.580000,-2.167628,-1.050733,-1.489596,0.952688,1.093786,0.051673,0.741031,-0.347517,0.186730,-0.510891,-1.041316,-0.208429,-3.601558,0.129157,-4.160035,-0.035990,-0.076852,0.000000,-0.107121,0.054399,-0.000000
1.590000,-2.158064,-1.039812,-1.489070,0.960072,1.090259,0.053530,0.735742,-0.357924,0.184438,-0.547031,-1.040411,-0.249874,-3.625565,0.052283,-4.132513,-0.037060,-0.076288,0.000000,-0.106830,0.058434,-0.000000
1.600000,-2.148426,-1.028927,-1.488525,0.967402,1.086628,0.055362,0.730090,-0.368326,0.181733,-0.583403,-1.040271,-0.291079,-3.646265,-0.023247,-4.106546,-0.038127,-0.075683,0.000000,-0.106607,0.062480,0.000000
1.610000,-2.138716,-1.018080,-1.487963,0.974674,1.082892,0.057164,0.724074,-0.378729,0.178616,-0.619957,-1.040876,-0.332005,-3.659493,-0.092643,-4.068135,-0.039192,-0.075037,0.000000,-0.106448,0.066532,0.000000
1.620000,-2.128933,-1.007270,-1.487382,0.981884,1.079053,0.058934,0.717691,-0.389143,0.175093,-0.656593,-1.042124,-0.372442,-3.661526,-0.148010,-4.004725,-0.040256,-0.074351,0.000000,-0.106345,0.070578,0.000000
1.630000,-2.119078,-0.996499,-1.486784,0.989028,1.075109,0.060666,0.710942,-0.399572,0.171168,-0.693187,-1.043836,-0.412100,-3.653164,-0.189845,-3.920648,-0.041319,-0.073625,0.000000,-0.106280,0.074600,0.000000
1.640000,-2.109152,-0.985767,-1.486169,0.996103,1.071062,0.062357,0.703827,-0.410020,0.166851,-0.729656,-1.045921,-0.450855,-3.638860,-0.227943,-3.832516,-0.042381,-0.072858,0.000000,-0.106245,0.078589,0.000000
1.650000,-2.099156,-0.975077,-1.485537,1.003105,1.066909,0.064003,0.696349,-0.420490,0.162151,-0.765964,-1.048395,-0.488750,-3.620951,-0.266034,-3.744169,-0.043443,-0.072052,0.000000,-0.106240,0.082540,0.000000
1.660000,-2.089090,-0.964429,-1.484889,1.010030,1.062652,0.065600,0.688508,-0.430988,0.157076,-0.802075,-1.051241,-0.525738,-3.596064,-0.296799,-3.644815,-0.044506,-0.071206,0.000000,-0.106266,0.086450,-0.000000
1.670000,-2.078956,-0.953824,-1.484225,1.016875,1.058289,0.067145,0.680307,-0.441515,0.151636,-0.837886,-1.054331,-0.561646,-3.557390,-0.310024,-3.526293,-0.045569,-0.070321,0.000000,-0.106310,0.090306,-0.000000
1.680000,-2.068753,-0.943263,-1.483546,1.023636,1.053821,0.068633,0.671750,-0.452074,0.145843,-0.873223,-1.057442,-0.596264,-3.505493,-0.307128,-3.392408,-0.046632,-0.069398,0.000000,-0.106350,0.094088,-0.000000
1.690000,-2.058483,-0.932748,-1.482852,1.030310,1.049248,0.070062,0.662843,-0.462664,0.139711,-0.907995,-1.060473,-0.629495,-3.449369,-0.301143,-3.254329,-0.047696,-0.068437,0.000000,-0.106377,0.097786,-0.000000
1.700000,-2.048147,-0.922279,-1.482145,1.036893,1.044568,0.071427,0.653591,-0.473284,0.133253,-0.942210,-1.063465,-0.661351,-3.391436,-0.296496,-3.114341,-0.048760,-0.067440,0.000000,-0.106395,0.101401,0.000000
1.710000,-2.037745,-0.911857,-1.481424,1.043382,1.039782,0.072727,0.643999,-0.483933,0.126483,-0.975824,-1.066403,-0.691781,-3.325369,-0.283978,-2.965728,-0.049824,-0.066407,0.000000,-0.106404,0.104928,-0.000000
1.720000,-2.027279,-0.901483,-1.480690,1.049773,1.034890,0.073957,0.634074,-0.494612,0.119417,-1.008717,-1.069144,-0.720665,-3.245511,-0.252335,-2.804628,-0.050888,-0.065339,0.000000,-0.106391,0.108354,0.000000
1.730000,-2.016750,-0.891159,-1.479945,1.056063,1.029890,0.075115,0.623824,-0.505316,0.112070,-1.040734,-1.071450,-0.747874,-3.153646,-0.203833,-2.633910,-0.051951,-0.064237,0.000000,-0.106331,0.111662,0.000000
1.740000,-2.006158,-0.880885,-1.479188,1.062249,1.024783,0.076198,0.613259,-0.516041,0.104460,-1.071790,-1.073221,-0.773343,-3.057181,-0.153114,-2.459373,-0.053014,-0.063103,0.000000,-0.106216,0.114845,-0.000000
1.750000,-1.995505,-0.870663,-1.478421,1.068328,1.019569,0.077204,0.602389,-0.526781,0.096603,-1.101878,-1.074512,-0.797061,-2.958259,-0.104649,-2.281744,-0.054076,-0.061937,0.000000,-0.106054,0.117901,0.000000
1.760000,-1.984791,-0.860494,-1.477644,1.074297,1.014248,0.078130,0.591222,-0.537531,0.088519,-1.130956,-1.075314,-0.818978,-2.851865,-0.048445,-2.098137,-0.055135,-0.060741,0.000000,-0.105842,0.120828,-0.000000
1.770000,-1.974019,-0.850378,-1.476858,1.080153,1.008819,0.078975,0.579770,-0.548287,0.080224,-1.158915,-1.075481,-0.839024,-2.732858,0.026251,-1.908700,-0.056192,-0.059517,0.000000,-0.105570,0.123614,-0.000000
1.780000,-1.963188,-0.840317,-1.476064,1.085892,1.003282,0.079735,0.568044,-0.559041,0.071738,-1.185613,-1.074789,-0.857152,-2.602714,0.116582,-1.715281,-0.057247,-0.058265,0.000000,-0.105213,0.126245,-0.000000
1.790000,-1.952301,-0.830312,-1.475263,1.091513,0.997638,0.080409,0.556057,-0.569783,0.063081,-1.210970,-1.073149,-0.873330,-2.468361,0.208200,-1.518696,-0.058297,-0.056988,0.000000,-0.104766,0.128714,-0.000000
1.800000,-1.941358,-0.820365,-1.474456,1.097013,0.991886,0.080996,0.543824,-0.580504,0.054271,-1.234980,-1.070625,-0.887526,-2.331787,0.297041,-1.318546,-0.059342,-0.055686,0.000000,-0.104235,0.131023,-0.000000
1.810000,-1.930361,-0.810475,-1.473643,1.102390,0.986028,0.081495,0.531358,-0.591195,0.045330,-1.257605,-1.067209,-0.899701,-2.188453,0.392578,-1.115331,-0.060381,-0.054363,0.000000,-0.103621,0.133167,0.000000
1.820000,-1.919310,-0.800644,-1.472826,1.107641,0.980062,0.081903,0.518672,-0.601848,0.036277,-1.278749,-1.062773,-0.909833,-2.034088,0.503914,-0.912028,-0.061414,-0.053018,0.000000,-0.102913,0.135139,0.000000
1.830000,-1.908208,-0.790874,-1.472005,1.112763,0.973991,0.082220,0.505783,-0.612451,0.027134,-1.298287,-1.057130,-0.917941,-1.870216,0.628013,-0.709509,-0.062440,-0.051655,0.000000,-0.102093,0.136927,-0.000000
1.840000,-1.897055,-0.781164,-1.471182,1.117756,0.967813,0.082446,0.492706,-0.622990,0.017919,-1.316153,-1.050213,-0.924023,-1.702757,0.752395,-0.504926,-0.063456,-0.050274,0.000000,-0.101155,0.138527,-0.000000
1.850000,-1.885853,-0.771517,-1.470356,1.122618,0.961531,0.082579,0.479460,-0.633455,0.008653,-1.332342,-1.042082,-0.928040,-1.533332,0.873620,-0.297130,-0.064463,-0.048879,0.000000,-0.100107,0.139940,-0.000000
1.860000,-1.874602,-0.761934,-1.469530,1.127345,0.955144,0.082619,0.466059,-0.643832,-0.000642,-1.346820,-1.032741,-0.929965,-1.358247,0.999600,-0.089085,-0.065458,-0.047470,0.000000,-0.098950,0.141162,0.000000
1.870000,-1.863306,-0.752414,-1.468704,1.131939,0.948654,0.082566,0.452523,-0.654110,-0.009946,-1.359507,-1.022090,-0.929821,-1.174316,1.137399,0.114595,-0.066442,-0.046049,0.000000,-0.097677,0.142190,-0.000000
1.880000,-1.851964,-0.742961,-1.467879,1.136396,0.942062,0.082420,0.438869,-0.664274,-0.019239,-1.370306,-1.009993,-0.927674,-0.982931,1.284085,0.313915,-0.067412,-0.044620,0.000000,-0.096273,0.143014,0.000000
1.890000,-1.840578,-0.733573,-1.467056,1.140716,0.935369,0.082181,0.425117,-0.674310,-0.028500,-1.379166,-0.996409,-0.923543,-0.788741,1.429580,0.513829,-0.068367,-0.043183,0.000000,-0.094736,0.143631,-0.000000
1.900000,-1.829149,-0.724253,-1.466235,1.144898,0.928576,0.081850,0.411286,-0.684202,-0.037709,-1.386081,-0.981401,-0.917397,-0.593063,1.571678,0.715745,-0.069307,-0.041740,0.000000,-0.093074,0.144044,-0.000000
1.910000,-1.817680,-0.715002,-1.465419,1.148942,0.921685,0.081427,0.397395,-0.693938,-0.046848,-1.391027,-0.964975,-0.909228,-0.393191,1.716351,0.915418,-0.070229,-0.040295,0.000000,-0.091289,0.144250,-0.000000
1.920000,-1.806170,-0.705819,-1.464607,1.152846,0.914697,0.080913,0.383465,-0.703502,-0.055894,-1.393945,-0.947074,-0.899089,-0.186820,1.867047,1.107721,-0.071132,-0.038848,0.000000,-0.089376,0.144247,0.000000
1.930000,-1.794623,-0.696708,-1.463800,1.156611,0.907615,0.080309,0.369517,-0.712879,-0.064829,-1.394763,-0.927634,-0.887074,0.024865,2.021042,1.293169,-0.072016,-0.037403,0.000000,-0.087328,0.144029,0.000000
1.940000,-1.783038,-0.687667,-1.463000,1.160237,0.900439,0.079616,0.355570,-0.722054,-0.073636,-1.393448,-0.906653,-0.873225,0.238214,2.172851,1.477525,-0.072879,-0.035960,0.000000,-0.085147,0.143595,0.000000
1.950000,-1.771418,-0.678699,-1.462208,1.163723,0.893174,0.078836,0.341648,-0.731012,-0.082294,-1.389999,-0.884177,-0.857523,0.452245,2.322102,1.662132,-0.073719,-0.034523,0.000000,-0.082839,0.142947,0.000000
1.960000,-1.759764,-0.669804,-1.461424,1.167069,0.885819,0.077970,0.327770,-0.739738,-0.090786,-1.384403,-0.860211,-0.839983,0.668916,2.471454,1.842296,-0.074536,-0.033093,0.000000,-0.080404,0.142084,-0.000000
1.970000,-1.748077,-0.660982,-1.460649,1.170278,0.878379,0.077021,0.313960,-0.748216,-0.099094,-1.376621,-0.834748,-0.820677,0.889496,2.619557,2.013323,-0.075327,-0.031673,0.000000,-0.077843,0.141006,0.000000
1.980000,-1.736358,-0.652236,-1.459883,1.173349,0.870855,0.075989,0.300238,-0.756433,-0.107200,-1.366613,-0.807820,-0.799716,1.112908,2.764497,2.176018,-0.076093,-0.030265,0.000000,-0.075158,0.139710,0.000000
1.990000,-1.724610,-0.643565,-1.459129,1.176283,0.863250,0.074877,0.286627,-0.764373,-0.115088,-1.354363,-0.779458,-0.777157,1.336780,2.907016,2.335695,-0.076831,-0.028871,0.000000,-0.072353,0.138195,0.000000
2.000000,-1.712833,-0.634971,-1.458386,1.179081,0.855567,0.073687,0.273151,-0.772022,-0.122743,-1.339877,-0.749680,-0.753002,1.560685,3.048033,2.493579,-0.077540,-0.027493,0.000000,-0.069430,0.136465,0.000000
2.010000,-1.701028,-0.626454,-1.457655,1.181746,0.847810,0.072422,0.259830,-0.779366,-0.130148,-1.323149,-0.718498,-0.727285,1.785630,3.185949,2.645417,-0.078219,-0.026133,0.000000,-0.066392,0.134519,0.000000
2.020000,-1.689198,-0.618015,-1.456937,1.184278,0.839980,0.071084,0.246688,-0.786392,-0.137288,-1.304165,-0.685961,-0.700094,2.011324,3.316495,2.787092,-0.078868,-0.024794,0.000000,-0.063241,0.132359,0.000000
2.030000,-1.677343,-0.609654,-1.456233,1.186679,0.832082,0.069676,0.233746,-0.793086,-0.144150,-1.282922,-0.652168,-0.671544,2.236971,3.439115,2.919409,-0.079484,-0.023478,0.000000,-0.059989,0.129984,-0.000000
2.040000,-1.665464,-0.601373,-1.455544,1.188953,0.824118,0.068201,0.221029,-0.799435,-0.150719,-1.259425,-0.617178,-0.641706,2.462250,3.558344,3.046984,-0.080067,-0.022186,0.000000,-0.056640,0.127396,0.000000
2.050000,-1.653564,-0.593172,-1.454869,1.191100,0.816093,0.066662,0.208558,-0.805429,-0.156984,-1.233677,-0.581001,-0.610604,2.686598,3.675541,3.170828,-0.080617,-0.020922,0.000000,-0.053194,0.124598,-0.000000
2.060000,-1.641642,-0.585051,-1.454211,1.193124,0.808010,0.065061,0.196356,-0.811055,-0.162931,-1.205693,-0.543668,-0.578289,2.909624,3.786594,3.287314,-0.081131,-0.019686,0.000000,-0.049656,0.121590,0.000000
2.070000,-1.629701,-0.577012,-1.453568,1.195027,0.799872,0.063403,0.184444,-0.816302,-0.168550,-1.175485,-0.505269,-0.544858,3.131831,3.886295,3.392988,-0.081610,-0.018482,0.000000,-0.046032,0.118375,0.000000
2.080000,-1.617742,-0.569054,-1.452943,1.196813,0.791684,0.061690,0.172846,-0.821161,-0.173828,-1.143057,-0.465942,-0.510429,3.354181,3.972839,3.488542,-0.082052,-0.017311,0.000000,-0.042336,0.114953,0.000000
2.090000,-1.605765,-0.561178,-1.452334,1.198484,0.783449,0.059926,0.161583,-0.825621,-0.178758,-1.108401,-0.425812,-0.475087,3.574771,4.052556,3.577874,-0.082457,-0.016175,0.000000,-0.038579,0.111326,-0.000000
2.100000,-1.593772,-0.553385,-1.451744,1.200044,0.775171,0.058115,0.150678,-0.829677,-0.183330,-1.071561,-0.384890,-0.438872,3.783799,4.143021,3.661980,-0.082824,-0.015077,0.000000,-0.034760,0.107496,-0.000000
2.110000,-1.581764,-0.545675,-1.451172,1.201498,0.766855,0.056260,0.140152,-0.833319,-0.187536,-1.032725,-0.342952,-0.401847,3.982662,4.237845,3.737824,-0.083152,-0.014018,0.000000,-0.030857,0.103482,-0.000000
2.120000,-1.569742,-0.538048,-1.450619,1.202847,0.758505,0.054364,0.130023,-0.836536,-0.191367,-0.991908,-0.300134,-0.364115,4.197574,4.285843,3.802077,-0.083441,-0.013000,0.000000,-0.026882,0.099287,-0.000000
2.130000,-1.557707,-0.530505,-1.450085,1.204098,0.750125,0.052432,0.120314,-0.839322,-0.194818,-0.948774,-0.257235,-0.325806,4.425816,4.290371,3.855236,-0.083690,-0.012025,0.000000,-0.022912,0.094876,-0.000000
2.140000,-1.545660,-0.523045,-1.449570,1.205254,0.741719,0.050468,0.111048,-0.841681,-0.197883,-0.903392,-0.214326,-0.287011,4.630867,4.320136,3.901229,-0.083899,-0.011096,0.000000,-0.018953,0.090256,-0.000000
2.150000,-1.533602,-0.515670,-1.449075,1.206319,0.733291,0.048475,0.102246,-0.843608,-0.200558,-0.856157,-0.170832,-0.247781,4.827420,4.357375,3.941389,-0.084069,-0.010213,0.000000,-0.014946,0.085466,0.000000
2.160000,-1.521534,-0.508380,-1.448601,1.207299,0.724846,0.046457,0.093925,-0.845097,-0.202839,-0.806843,-0.127179,-0.208183,5.037670,4.357640,3.972700,-0.084198,-0.009380,0.000000,-0.010932,0.080483,-0.000000
2.170000,-1.509456,-0.501173,-1.448146,1.208198,0.716389,0.044418,0.086109,-0.846152,-0.204722,-0.755403,-0.083679,-0.168327,5.208937,4.387022,3.991199,-0.084288,-0.008598,0.000000,-0.006941,0.075300,0.000000
2.180000,-1.497370,-0.494052,-1.447712,1.209021,0.707923,0.042362,0.078817,-0.846771,-0.206205,-0.702664,-0.039438,-0.128359,5.331812,4.461914,3.997382,-0.084337,-0.007869,0.000000,-0.002880,0.070000,-0.000000
2.190000,-1.485275,-0.487015,-1.447299,1.209774,0.699454,0.040294,0.072056,-0.846941,-0.207289,-0.648767,0.005559,-0.088379,5.479579,4.487462,3.996176,-0.084345,-0.007193,0.000000,0.001252,0.064594,0.000000
2.200000,-1.473174,-0.480063,-1.446906,1.210462,0.690985,0.038216,0.065841,-0.846660,-0.207973,-0.593073,0.050311,-0.048435,5.652648,4.464179,3.989472,-0.084312,-0.006572,0.000000,0.005359,0.059020,-0.000000
2.210000,-1.461066,-0.473195,-1.446535,1.211091,0.682520,0.036134,0.060194,-0.845934,-0.208258,-0.535714,0.094843,-0.008590,5.801267,4.455383,3.973642,-0.084238,-0.006008,0.000000,0.009445,0.053287,0.000000
2.220000,-1.448952,-0.466412,-1.446184,1.211666,0.674066,0.034051,0.055127,-0.844763,-0.208145,-0.477048,0.139419,0.031037,5.943268,4.430443,3.943522,-0.084123,-0.005503,0.000000,0.013537,0.047432,-0.000000
2.230000,-1.436833,-0.459714,-1.445854,1.212193,0.665625,0.031971,0.050653,-0.843146,-0.207637,-0.416849,0.183451,0.070280,6.098702,4.361645,3.899783,-0.083967,-0.005056,0.000000,0.017580,0.041428,0.000000
2.240000,-1.424708,-0.453100,-1.445544,1.212679,0.657203,0.029899,0.046790,-0.841094,-0.206739,-0.355074,0.226652,0.109033,6.237617,4.296948,3.849122,-0.083771,-0.004671,0.000000,0.021547,0.035272,0.000000
2.250000,-1.412579,-0.446570,-1.445256,1.213129,0.648803,0.027837,0.043552,-0.838613,-0.205456,-0.292096,0.269390,0.147263,6.339604,4.270915,3.794337,-0.083536,-0.004348,0.000000,0.025477,0.028999,-0.000000
2.260000,-1.400446,-0.440124,-1.444988,1.213550,0.640431,0.025789,0.040948,-0.835706,-0.203794,-0.228281,0.312070,0.184920,6.426478,4.247561,3.730694,-0.083262,-0.004089,0.000000,0.029410,0.022642,-0.000000
2.270000,-1.388308,-0.433761,-1.444740,1.213948,0.632089,0.023761,0.038986,-0.832372,-0.201758,-0.163567,0.354342,0.221877,6.542496,4.146050,3.650956,-0.082948,-0.003894,0.000000,0.033314,0.016195,-0.000000
2.280000,-1.376167,-0.427482,-1.444512,1.214330,0.623783,0.021754,0.037677,-0.828619,-0.199356,-0.097432,0.394991,0.257939,6.678177,3.980374,3.556104,-0.082596,-0.003764,0.000000,0.037072,0.009604,-0.000000
2.290000,-1.364022,-0.421286,-1.444305,1.214702,0.615517,0.019774,0.037037,-0.824472,-0.196599,-0.030003,0.433949,0.292999,6.774181,3.858051,3.455849,-0.082207,-0.003701,0.000000,0.040676,0.002880,-0.000000
2.300000,-1.351873,-0.415172,-1.444117,1.215070,0.607294,0.017822,0.037077,-0.819940,-0.193496,0.038052,0.472152,0.327056,6.846058,3.758046,3.354104,-0.081782,-0.003706,0.000000,0.044223,-0.003912,0.000000
2.310000,-1.339720,-0.409140,-1.443948,1.215443,0.599118,0.015904,0.037799,-0.815029,-0.190058,0.106918,0.509110,0.360081,6.930906,3.611424,3.244234,-0.081322,-0.003780,0.000000,0.047662,-0.010792,-0.000000
2.320000,-1.327564,-0.403189,-1.443799,1.215826,0.590993,0.014021,0.039215,-0.809758,-0.186295,0.176670,0.544380,0.391941,6.970994,3.500303,3.116691,-0.080829,-0.003923,0.000000,0.050953,-0.017769,-0.000000
2.330000,-1.315404,-0.397320,-1.443668,1.216227,0.582923,0.012178,0.041332,-0.804141,-0.182219,0.246338,0.579116,0.422415,6.951325,3.449998,2.973132,-0.080303,-0.004136,0.000000,0.054211,-0.024747,0.000000
2.340000,-1.303239,-0.391531,-1.443555,1.216653,0.574910,0.010377,0.044142,-0.798176,-0.177847,0.315697,0.613380,0.451403,6.953218,3.343012,2.826598,-0.079744,-0.004420,0.000000,0.057445,-0.031706,0.000000
2.350000,-1.291071,-0.385822,-1.443460,1.217110,0.566959,0.008621,0.047646,-0.791874,-0.173191,0.385402,0.645976,0.478947,6.978705,3.184710,2.681787,-0.079154,-0.004773,0.000000,0.060534,-0.038712,0.000000
2.360000,-1.278897,-0.380192,-1.443383,1.217606,0.559073,0.006913,0.051850,-0.785256,-0.168268,0.455271,0.677075,0.505039,6.972196,3.054419,2.530025,-0.078534,-0.005196,0.000000,0.063496,-0.045747,-0.000000
2.370000,-1.266719,-0.374640,-1.443322,1.218147,0.551254,0.005256,0.056751,-0.778332,-0.163090,0.524846,0.707065,0.529547,6.950211,2.901042,2.360560,-0.077884,-0.005690,0.000000,0.066372,-0.052766,0.000000
2.380000,-1.254534,-0.369167,-1.443278,1.218741,0.543506,0.003651,0.062347,-0.771115,-0.157677,0.594275,0.735095,0.552250,6.932709,2.692704,2.175957,-0.077206,-0.006255,0.000000,0.069076,-0.059786,0.000000
2.390000,-1.242344,-0.363770,-1.443249,1.219394,0.535832,0.002102,0.068637,-0.763630,-0.152045,0.663500,0.760919,0.573066,6.891341,2.508086,1.991049,-0.076503,-0.006890,0.000000,0.071585,-0.066800,-0.000000
2.400000,-1.230146,-0.358450,-1.443236,1.220114,0.528234,0.000610,0.075617,-0.755896,-0.146215,0.732102,0.785257,0.592071,6.820031,2.375341,1.810673,-0.075775,-0.007595,0.000000,0.073970,-0.073767,0.000000
2.410000,-1.217942,-0.353205,-1.443237,1.220906,0.520714,-0.000822,0.083279,-0.747925,-0.140204,0.799901,0.808426,0.609280,6.738344,2.239455,1.625291,-0.075023,-0.008369,0.000000,0.076262,-0.080670,0.000000
2.420000,-1.205728,-0.348036,-1.443252,1.221779,0.513275,-0.002194,0.091615,-0.739728,-0.134030,0.866869,0.830046,0.624577,6.648734,2.049461,1.424506,-0.074249,-0.009213,0.000000,0.078422,-0.087504,-0.000000
2.430000,-1.193506,-0.342940,-1.443281,1.222739,0.505919,-0.003503,0.100616,-0.731324,-0.127712,0.932876,0.849415,0.637770,6.542987,1.823855,1.211537,-0.073455,-0.010124,0.000000,0.080382,-0.094257,-0.000000
2.440000,-1.181274,-0.337917,-1.443322,1.223792,0.498649,-0.004748,0.110272,-0.722740,-0.121274,0.997728,0.866523,0.648808,6.419047,1.629819,1.001002,-0.072642,-0.011103,0.000000,0.082139,-0.100909,-0.000000
2.450000,-1.169030,-0.332967,-1.443376,1.224944,0.491465,-0.005928,0.120571,-0.713994,-0.114736,1.061257,0.882011,0.657790,6.284631,1.472480,0.797017,-0.071812,-0.012148,0.000000,0.083756,-0.107442,0.000000
2.460000,-1.156775,-0.328088,-1.443441,1.226203,0.484369,-0.007043,0.131497,-0.705099,-0.108119,1.123421,0.895973,0.664748,6.139749,1.308984,0.590564,-0.070966,-0.013258,0.000000,0.085241,-0.113851,0.000000
2.470000,-1.144506,-0.323279,-1.443517,1.227574,0.477363,-0.008091,0.143039,-0.696074,-0.101441,1.184052,0.908191,0.669601,5.963019,1.136872,0.373661,-0.070107,-0.014431,0.000000,0.086572,-0.120117,-0.000000
2.480000,-1.132223,-0.318541,-1.443603,1.229064,0.470447,-0.009072,0.155179,-0.686936,-0.094727,1.242681,0.918710,0.672221,5.750303,0.983371,0.149843,-0.069235,-0.015666,0.000000,0.087752,-0.126193,0.000000
2.490000,-1.119925,-0.313871,-1.443698,1.230678,0.463624,-0.009985,0.167893,-0.677700,-0.087997,1.299058,0.927858,0.672598,5.531326,0.848410,-0.069170,-0.068352,-0.016961,0.000000,0.088814,-0.132050,-0.000000
2.500000,-1.107610,-0.309268,-1.443802,1.232422,0.456893,-0.010832,0.181160,-0.668378,-0.081275,1.353308,0.935678,0.670838,5.331004,0.654051,-0.280929,-0.067459,-0.018313,0.000000,0.089759,-0.137700,0.000000
2.510000,-1.095276,-0.304733,-1.443915,1.234301,0.450256,-0.011611,0.194959,-0.658986,-0.074580,1.405678,0.940939,0.666980,5.127297,0.409252,-0.492146,-0.066557,-0.019721,0.000000,0.090463,-0.143167,0.000000
2.520000,-1.082924,-0.300263,-1.444035,1.236321,0.443714,-0.012323,0.209273,-0.649560,-0.067935,1.455854,0.943864,0.660995,4.854856,0.337100,-0.705983,-0.065649,-0.021183,0.000000,0.090946,-0.148415,-0.000000
2.530000,-1.070550,-0.295858,-1.444161,1.238486,0.437265,-0.012969,0.224076,-0.640109,-0.061360,1.502775,0.947681,0.652860,4.521229,0.434737,-0.919076,-0.064738,-0.022696,0.000000,0.091532,-0.153336,0.000000
2.540000,-1.058154,-0.291518,-1.444294,1.240802,0.430911,-0.013550,0.239329,-0.630606,-0.054878,1.546279,0.952558,0.642613,4.214730,0.398296,-1.125961,-0.063819,-0.024256,0.000000,0.092238,-0.157911,-0.000000
2.550000,-1.045734,-0.287240,-1.444432,1.243273,0.424653,-0.014067,0.255002,-0.621058,-0.048508,1.587069,0.955647,0.630341,3.929573,0.260668,-1.326900,-0.062893,-0.025860,0.000000,0.092774,-0.162209,-0.000000
2.560000,-1.033288,-0.283025,-1.444575,1.245902,0.418490,-0.014521,0.271070,-0.611493,-0.042271,1.624870,0.957772,0.616075,3.608443,0.221271,-1.524106,-0.061963,-0.027507,0.000000,0.093222,-0.166198,0.000000
2.570000,-1.020816,-0.278870,-1.444723,1.248694,0.412423,-0.014912,0.287499,-0.601902,-0.036187,1.659238,0.960073,0.599859,3.287417,0.114272,-1.713627,-0.061029,-0.029191,0.000000,0.093697,-0.169833,0.000000
2.580000,-1.008315,-0.274776,-1.444874,1.251652,0.406452,-0.015244,0.304255,-0.592292,-0.030274,1.690618,0.960057,0.581803,2.989849,-0.141683,-1.893008,-0.060089,-0.030910,0.000000,0.093943,-0.173155,-0.000000
2.590000,-0.995783,-0.270741,-1.445027,1.254779,0.400577,-0.015518,0.321311,-0.582701,-0.024550,1.719035,0.957239,0.561998,2.662304,-0.300884,-2.066234,-0.059150,-0.032660,0.000000,0.093910,-0.176166,0.000000
2.600000,-0.983219,-0.266765,-1.445184,1.258079,0.394798,-0.015735,0.338636,-0.573147,-0.019034,1.743864,0.954039,0.540478,2.290915,-0.301803,-2.236723,-0.058211,-0.034439,0.000000,0.093842,-0.178798,0.000000
2.610000,-0.970621,-0.262845,-1.445342,1.261552,0.389114,-0.015899,0.356189,-0.563621,-0.013741,1.764854,0.951203,0.517264,1.914218,-0.316086,-2.400172,-0.057273,-0.036242,0.000000,0.093813,-0.181025,-0.000000
2.620000,-0.957988,-0.258982,-1.445502,1.265202,0.383526,-0.016010,0.373933,-0.554123,-0.008689,1.782149,0.947718,0.492475,1.554084,-0.437760,-2.545160,-0.056335,-0.038065,0.000000,0.093719,-0.182860,0.000000
2.630000,-0.945317,-0.255175,-1.445662,1.269031,0.378032,-0.016072,0.391832,-0.544666,-0.003891,1.795935,0.942448,0.466361,1.194978,-0.597768,-2.671098,-0.055399,-0.039905,0.000000,0.093442,-0.184319,-0.000000
2.640000,-0.932607,-0.251422,-1.445823,1.273039,0.372632,-0.016088,0.409851,-0.535274,0.000639,1.806048,0.935762,0.439053,0.812086,-0.683027,-2.791946,-0.054466,-0.041757,0.000000,0.093018,-0.185385,-0.000000
2.650000,-0.919856,-0.247722,-1.445984,1.277228,0.367327,-0.016060,0.427953,-0.525951,0.004890,1.812177,0.928787,0.410522,0.429272,-0.770671,-2.913701,-0.053538,-0.043618,0.000000,0.092561,-0.186025,-0.000000
2.660000,-0.907063,-0.244075,-1.446144,1.281598,0.362113,-0.015990,0.446095,-0.516698,0.008849,1.814634,0.920349,0.380779,0.061362,-0.926234,-3.025442,-0.052615,-0.045483,0.000000,0.091951,-0.186269,0.000000
2.670000,-0.894224,-0.240480,-1.446304,1.286150,0.356993,-0.015883,0.464245,-0.507544,0.012505,1.813404,0.910262,0.350013,-0.359938,-0.920992,-3.110147,-0.051699,-0.047349,0.000000,0.091168,-0.186114,-0.000000
2.680000,-0.881340,-0.236935,-1.446462,1.290883,0.351963,-0.015740,0.482363,-0.498493,0.015849,1.807435,0.901929,0.318576,-0.843198,-0.733676,-3.169362,-0.050792,-0.049210,0.000000,0.090554,-0.185454,0.000000
2.690000,-0.868407,-0.233441,-1.446619,1.295797,0.347023,-0.015566,0.500394,-0.489505,0.018877,1.796540,0.895589,0.286626,-1.291263,-0.680834,-3.224679,-0.049888,-0.051062,0.000000,0.090135,-0.184271,0.000000
2.700000,-0.855424,-0.229995,-1.446773,1.300891,0.342172,-0.015363,0.518294,-0.480581,0.021582,1.781610,0.888312,0.254082,-1.682292,-0.713783,-3.284508,-0.048989,-0.052900,0.000000,0.089611,-0.182654,-0.000000
2.710000,-0.842389,-0.226597,-1.446926,1.306163,0.337411,-0.015134,0.536026,-0.471739,0.023958,1.762894,0.881313,0.220936,-2.081679,-0.624185,-3.333131,-0.048096,-0.054720,0.000000,0.089107,-0.180629,-0.000000
2.720000,-0.829301,-0.223247,-1.447076,1.311611,0.332738,-0.014883,0.553552,-0.462955,0.026001,1.739976,0.875829,0.187420,-2.524903,-0.633707,-3.348232,-0.047207,-0.056517,0.000000,0.088747,-0.178153,-0.000000
2.730000,-0.816157,-0.219942,-1.447224,1.317234,0.328152,-0.014614,0.570826,-0.454223,0.027707,1.712396,0.868639,0.153971,-2.984799,-0.812458,-3.333329,-0.046321,-0.058287,0.000000,0.088202,-0.175184,0.000000
2.740000,-0.802956,-0.216684,-1.447368,1.323028,0.323653,-0.014329,0.587800,-0.445582,0.029080,1.680280,0.859579,0.120753,-3.416331,-0.839123,-3.317507,-0.045443,-0.060024,0.000000,0.087453,-0.171735,-0.000000
2.750000,-0.789696,-0.213469,-1.447510,1.328990,0.319240,-0.014032,0.604431,-0.437031,0.030122,1.644070,0.851857,0.087621,-3.844618,-0.757300,-3.308852,-0.044572,-0.061725,0.000000,0.086828,-0.167852,0.000000
2.760000,-0.776376,-0.210299,-1.447649,1.335117,0.314913,-0.013727,0.620681,-0.428545,0.030832,1.603388,0.844433,0.054576,-4.294465,-0.779429,-3.287240,-0.043706,-0.063385,0.000000,0.086222,-0.163498,0.000000
2.770000,-0.762994,-0.207171,-1.447785,1.341404,0.310669,-0.013416,0.636499,-0.420142,0.031213,1.558180,0.836268,0.021876,-4.686737,-0.675176,-3.233576,-0.042848,-0.064998,0.000000,0.085528,-0.158670,0.000000
2.780000,-0.749548,-0.204085,-1.447917,1.347846,0.306510,-0.013102,0.651845,-0.411819,0.031270,1.509653,0.830930,-0.010095,-5.007812,-0.360415,-3.153648,-0.041996,-0.066561,0.000000,0.085108,-0.153494,0.000000
2.790000,-0.736037,-0.201041,-1.448047,1.354440,0.302433,-0.012790,0.666692,-0.403524,0.031011,1.458024,0.829060,-0.041197,-5.365993,-0.171061,-3.072389,-0.041146,-0.068071,0.000000,0.085028,-0.147997,0.000000
2.800000,-0.722459,-0.198037,-1.448173,1.361180,0.298439,-0.012482,0.681005,-0.395238,0.030446,1.402333,0.827509,-0.071543,-5.773542,-0.150327,-2.996609,-0.040295,-0.069523,0.000000,0.084968,-0.142080,0.000000
2.810000,-0.708813,-0.195072,-1.448296,1.368061,0.294528,-0.012181,0.694739,-0.386974,0.029581,1.342553,0.826053,-0.101129,-6.155023,-0.068768,-2.909692,-0.039446,-0.070915,0.000000,0.084904,-0.135744,-0.000000
2.820000,-0.695098,-0.192146,-1.448417,1.375075,0.290700,-0.011891,0.707856,-0.378717,0.028423,1.279233,0.826133,-0.129737,-6.499881,0.089832,-2.795716,-0.038597,-0.072240,0.000000,0.084984,-0.129047,-0.000000
2.830000,-0.681312,-0.189258,-1.448534,1.382218,0.286954,-0.011613,0.720323,-0.370451,0.026986,1.212556,0.827850,-0.157043,-6.836003,0.233740,-2.659871,-0.037747,-0.073497,0.000000,0.085217,-0.122014,0.000000
2.840000,-0.667454,-0.186407,-1.448649,1.389482,0.283291,-0.011351,0.732107,-0.362160,0.025283,1.142513,0.830808,-0.182935,-7.169011,0.360613,-2.523699,-0.036893,-0.074682,0.000000,0.085562,-0.114646,-0.000000
2.850000,-0.653522,-0.183592,-1.448761,1.396860,0.279711,-0.011107,0.743174,-0.353835,0.023327,1.069175,0.835062,-0.207517,-7.476365,0.550461,-2.393013,-0.036035,-0.075792,0.000000,0.086027,-0.106951,-0.000000
2.860000,-0.639516,-0.180813,-1.448871,1.404345,0.276214,-0.010884,0.753491,-0.345459,0.021132,0.992985,0.841817,-0.230795,-7.755882,0.793344,-2.254003,-0.035172,-0.076823,0.000000,0.086734,-0.098977,-0.000000
2.870000,-0.625435,-0.178068,-1.448979,1.411930,0.272802,-0.010685,0.763033,-0.336998,0.018711,0.914058,0.850929,-0.252597,-8.061469,0.884146,-2.094341,-0.034301,-0.077773,0.000000,0.087669,-0.090739,-0.000000
2.880000,-0.611278,-0.175357,-1.449085,1.419606,0.269474,-0.010510,0.771772,-0.328440,0.016080,0.831756,0.859500,-0.272682,-8.391644,0.824862,-1.919155,-0.033419,-0.078639,0.000000,0.088536,-0.082175,-0.000000
2.890000,-0.597043,-0.172679,-1.449189,1.427365,0.266233,-0.010363,0.779669,-0.319808,0.013258,0.746225,0.867426,-0.290981,-8.671127,0.893451,-1.745735,-0.032530,-0.079417,0.000000,0.089325,-0.073304,-0.000000
2.900000,-0.582731,-0.170032,-1.449292,1.435199,0.263078,-0.010245,0.786696,-0.311092,0.010261,0.658333,0.877369,-0.307596,-8.915951,1.063394,-1.576487,-0.031633,-0.080105,0.000000,0.090309,-0.064213,0.000000
2.910000,-0.568339,-0.167417,-1.449394,1.443099,0.260011,-0.010158,0.792835,-0.302261,0.007106,0.567906,0.888694,-0.322510,-9.173610,1.150955,-1.401063,-0.030724,-0.080702,0.000000,0.091423,-0.054887,-0.000000
2.920000,-0.553869,-0.164832,-1.449495,1.451056,0.257033,-0.010103,0.798055,-0.293318,0.003810,0.474861,0.900388,-0.335618,-9.377079,1.294833,-1.217156,-0.029804,-0.081204,0.000000,0.092564,-0.045319,0.000000
2.930000,-0.539318,-0.162276,-1.449596,1.459060,0.254145,-0.010082,0.802332,-0.284253,0.000393,0.380364,0.914591,-0.346853,-9.505682,1.564019,-1.029541,-0.028873,-0.081609,0.000000,0.093951,-0.035629,0.000000
2.940000,-0.524687,-0.159749,-1.449697,1.467102,0.251348,-0.010095,0.805662,-0.275026,-0.003127,0.284748,0.931669,-0.356208,-9.654259,1.751575,-0.842317,-0.027925,-0.081917,0.000000,0.095621,-0.025852,0.000000
2.950000,-0.509976,-0.157249,-1.449798,1.475173,0.248644,-0.010144,0.808027,-0.265620,-0.006731,0.187279,0.949622,-0.363700,-9.836158,1.837016,-0.654812,-0.026960,-0.082126,0.000000,0.097373,-0.015914,0.000000
2.960000,-0.495184,-0.154776,-1.449900,1.483263,0.246035,-0.010230,0.809407,-0.256034,-0.010401,0.088024,0.968409,-0.369305,-9.985381,1.961886,-0.465899,-0.025978,-0.082235,0.000000,0.099201,-0.005822,0.000000
2.970000,-0.480311,-0.152329,-1.450003,1.491361,0.243523,-0.010352,0.809788,-0.246252,-0.014117,-0.012428,0.988860,-0.373018,-10.089632,2.111905,-0.280037,-0.024976,-0.082243,0.000000,0.101193,0.004364,0.000000
2.980000,-0.465357,-0.149906,-1.450107,1.499459,0.241110,-0.010512,0.809159,-0.236257,-0.017861,-0.113768,1.010647,-0.374905,-10.170810,2.235279,-0.099362,-0.023954,-0.082148,0.000000,0.103314,0.014614,0.000000
2.990000,-0.450322,-0.147507,-1.450213,1.507545,0.238798,-0.010709,0.807512,-0.226039,-0.021615,-0.215845,1.033566,-0.375005,-10.239459,2.363204,0.080584,-0.022910,-0.081950,0.000000,0.105546,0.024912,-0.000000
3.000000,-0.435206,-0.145130,-1.450321,1.515609,0.236589,-0.010944,0.804842,-0.215585,-0.025361,-0.318557,1.057911,-0.373294,-10.297243,2.508568,0.263004,-0.021843,-0.081650,0.000000,0.107918,0.035250,0.000000
3.010000,-0.420009,-0.142775,-1.450432,1.523641,0.234487,-0.011217,0.801141,-0.204880,-0.029081,-0.421790,1.083737,-0.369745,-10.337412,2.646817,0.443201,-0.020751,-0.081245,0.000000,0.110438,0.045616,0.000000
3.020000,-0.404733,-0.140440,-1.450545,1.531632,0.232492,-0.011526,0.796406,-0.193910,-0.032756,-0.525306,1.110848,-0.364430,-10.348055,2.764901,0.610213,-0.019634,-0.080737,0.000000,0.113086,0.055988,0.000000
3.030000,-0.389377,-0.138125,-1.450662,1.539570,0.230608,-0.011872,0.790635,-0.182664,-0.036369,-0.628751,1.139035,-0.357541,-10.330558,2.869875,0.763639,-0.018490,-0.080125,0.000000,0.115843,0.066333,-0.000000
3.040000,-0.373942,-0.135828,-1.450783,1.547445,0.228839,-0.012253,0.783831,-0.171130,-0.039907,-0.731917,1.168245,-0.349157,-10.300948,2.976016,0.916604,-0.017317,-0.079410,0.000000,0.118704,0.076631,-0.000000
3.050000,-0.358428,-0.133548,-1.450907,1.555246,0.227186,-0.012670,0.775997,-0.159299,-0.043353,-0.834770,1.198555,-0.339209,-10.264240,3.085425,1.074392,-0.016116,-0.078592,0.000000,0.121677,0.086880,0.000000
3.060000,-0.342837,-0.131284,-1.451036,1.562964,0.225653,-0.013120,0.767136,-0.147159,-0.046691,-0.937202,1.229954,-0.327669,-10.209539,3.187594,1.226641,-0.014884,-0.077672,0.000000,0.124762,0.097071,0.000000
3.070000,-0.327169,-0.129035,-1.451170,1.570589,0.224243,-0.013604,0.757253,-0.134700,-0.049906,-1.038960,1.262307,-0.314676,-10.125508,3.274226,1.357944,-0.013620,-0.076651,0.000000,0.127947,0.107181,-0.000000
3.080000,-0.311425,-0.126799,-1.451308,1.578110,0.222959,-0.014118,0.746357,-0.121913,-0.052984,-1.139712,1.295438,-0.300510,-10.015439,3.347698,1.469853,-0.012325,-0.075529,0.000000,0.131215,0.117180,0.000000
3.090000,-0.295606,-0.124576,-1.451452,1.585516,0.221804,-0.014663,0.734459,-0.108791,-0.055916,-1.239269,1.329261,-0.285279,-9.894560,3.417498,1.581565,-0.010996,-0.074307,0.000000,0.134559,0.127052,0.000000
3.100000,-0.279714,-0.122363,-1.451602,1.592799,0.220783,-0.015237,0.721571,-0.095327,-0.058690,-1.337603,1.363788,-0.268879,-9.766838,3.486210,1.699482,-0.009634,-0.072987,0.000000,0.137979,0.136794,-0.000000
3.110000,-0.263750,-0.120160,-1.451757,1.599948,0.219898,-0.015837,0.707707,-0.081515,-0.061294,-1.434606,1.398985,-0.251289,-9.622361,3.546631,1.809504,-0.008236,-0.071571,0.000000,0.141473,0.146399,0.000000
3.120000,-0.247716,-0.117965,-1.451918,1.606953,0.219153,-0.016463,0.692879,-0.067348,-0.063716,-1.530050,1.434721,-0.232689,-9.452694,3.590514,1.894425,-0.006804,-0.070059,0.000000,0.145030,0.155845,0.000000
3.130000,-0.231611,-0.115777,-1.452086,1.613805,0.218551,-0.017111,0.677106,-0.052821,-0.065948,-1.623660,1.470796,-0.213401,-9.261226,3.619226,1.957382,-0.005336,-0.068454,0.000000,0.148629,0.165108,0.000000
3.140000,-0.215439,-0.113594,-1.452261,1.620495,0.218096,-0.017782,0.660406,-0.037932,-0.067984,-1.715275,1.507105,-0.193541,-9.059610,3.642794,2.020198,-0.003831,-0.066757,0.000000,0.152261,0.174176,-0.000000
3.150000,-0.199201,-0.111415,-1.452442,1.627013,0.217792,-0.018471,0.642800,-0.022679,-0.069818,-1.804852,1.543652,-0.172997,-8.850843,3.664380,2.089424,-0.002291,-0.064970,0.000000,0.155925,0.183045,0.000000
3.160000,-0.182899,-0.109238,-1.452630,1.633351,0.217643,-0.019178,0.624309,-0.007059,-0.071444,-1.892292,1.580393,-0.151753,-8.627786,3.676565,2.149753,-0.000713,-0.063096,0.000000,0.159619,0.191704,-0.000000
3.170000,-0.166534,-0.107062,-1.452825,1.639499,0.217651,-0.019900,0.604954,0.008929,-0.072853,-1.977408,1.617183,-0.130002,-8.384700,3.670453,2.184643,0.000902,-0.061136,0.000000,0.163329,0.200140,-0.000000
3.180000,-0.150109,-0.104885,-1.453028,1.645450,0.217821,-0.020635,0.584761,0.025285,-0.074044,-2.059986,1.653802,-0.108060,-8.124337,3.647572,2.198185,0.002554,-0.059093,0.000000,0.167031,0.208332,0.000000
3.190000,-0.133625,-0.102706,-1.453238,1.651195,0.218157,-0.021381,0.563755,0.042005,-0.075015,-2.139894,1.690134,-0.086038,-7.855150,3.619144,2.211687,0.004242,-0.056970,0.000000,0.170714,0.216270,-0.000000
3.200000,-0.117085,-0.100522,-1.453456,1.656725,0.218661,-0.022135,0.541963,0.059088,-0.075765,-2.217089,1.726185,-0.063826,-7.579522,3.589028,2.230672,0.005968,-0.054768,0.000000,0.174380,0.223948,0.000000
3.210000,-0.100491,-0.098333,-1.453681,1.662034,0.219338,-0.022896,0.519413,0.076529,-0.076291,-2.291485,1.761915,-0.041424,-7.292669,3.549195,2.240719,0.007730,-0.052490,0.000000,0.178023,0.231359,-0.000000
3.220000,-0.083845,-0.096136,-1.453914,1.667113,0.220192,-0.023661,0.496133,0.094326,-0.076593,-2.362942,1.797169,-0.019012,-6.990597,3.489445,2.228689,0.009529,-0.050140,0.000000,0.181629,0.238490,-0.000000
3.230000,-0.067149,-0.093929,-1.454154,1.671957,0.221225,-0.024428,0.472154,0.112472,-0.076671,-2.431297,1.831704,0.003149,-6.675362,3.411440,2.199006,0.011363,-0.047720,0.000000,0.185172,0.245326,-0.000000
3.240000,-0.050405,-0.091711,-1.454402,1.676556,0.222441,-0.025195,0.447507,0.130960,-0.076530,-2.496449,1.865397,0.024968,-6.353510,3.328531,2.169019,0.013232,-0.045233,0.000000,0.188639,0.251858,-0.000000
3.250000,-0.033618,-0.089480,-1.454658,1.680907,0.223844,-0.025959,0.422225,0.149780,-0.076172,-2.558367,1.898274,0.046530,-6.027866,3.246553,2.142609,0.015136,-0.042683,0.000000,0.192032,0.258081,-0.000000
3.260000,-0.016787,-0.087234,-1.454921,1.685001,0.225437,-0.026718,0.396340,0.168926,-0.075599,-2.617006,1.930329,0.067821,-5.694988,3.156181,2.108474,0.017073,-0.040071,0.000000,0.195351,0.263991,-0.000000
3.270000,0.000082,-0.084971,-1.455192,1.688833,0.227223,-0.027471,0.369885,0.188387,-0.074816,-2.672267,1.961398,0.088699,-5.349874,3.042573,2.058341,0.019043,-0.037402,0.000000,0.198578,0.269578,0.000000
3.280000,0.016989,-0.082690,-1.455471,1.692399,0.229205,-0.028214,0.342894,0.208153,-0.073825,-2.724004,1.991180,0.108987,-4.994949,2.909804,1.996235,0.021044,-0.034679,0.000000,0.201681,0.274828,-0.000000
3.290000,0.033930,-0.080387,-1.455756,1.695691,0.231386,-0.028947,0.315405,0.228211,-0.072636,-2.772166,2.019594,0.128624,-4.638245,2.777433,1.933434,0.023076,-0.031904,0.000000,0.204651,0.279734,-0.000000
3.300000,0.050903,-0.078062,-1.456050,1.698707,0.233769,-0.029667,0.287451,0.248545,-0.071253,-2.816769,2.046729,0.147656,-4.277261,2.638126,1.871728,0.025137,-0.029082,0.000000,0.207497,0.284297,-0.000000
3.310000,0.067905,-0.075712,-1.456350,1.701440,0.236357,-0.030372,0.259069,0.269145,-0.069683,-2.857711,2.072357,0.166058,-3.908104,2.479784,1.804310,0.027226,-0.026216,0.000000,0.210195,0.288505,0.000000
3.320000,0.084932,-0.073335,-1.456657,1.703888,0.239152,-0.031061,0.230297,0.289993,-0.067932,-2.894931,2.096324,0.183742,-3.541901,2.327344,1.728543,0.029341,-0.023310,0.000000,0.212728,0.292352,-0.000000
3.330000,0.101982,-0.070929,-1.456971,1.706046,0.242156,-0.031731,0.201171,0.311072,-0.066008,-2.928549,2.118903,0.200629,-3.181568,2.185256,1.647459,0.031481,-0.020367,0.000000,0.215122,0.295848,0.000000
3.340000,0.119053,-0.068492,-1.457292,1.707912,0.245373,-0.032381,0.171726,0.332371,-0.063919,-2.958562,2.140029,0.216691,-2.812937,2.018587,1.565183,0.033644,-0.017390,0.000000,0.217370,0.298993,-0.000000
3.350000,0.136141,-0.066021,-1.457619,1.709481,0.248804,-0.033009,0.141999,0.353872,-0.061674,-2.984808,2.159275,0.231933,-2.433335,1.830096,1.481403,0.035828,-0.014384,0.000000,0.219428,0.301767,0.000000
3.360000,0.153242,-0.063516,-1.457952,1.710752,0.252451,-0.033614,0.112030,0.375556,-0.059281,-3.007229,2.176631,0.246320,-2.053611,1.643124,1.394344,0.038032,-0.011351,0.000000,0.221293,0.304163,0.000000
3.370000,0.170356,-0.060972,-1.458291,1.711721,0.256315,-0.034195,0.081855,0.397405,-0.056748,-3.025880,2.192138,0.259820,-1.679882,1.439940,1.306782,0.040254,-0.008296,0.000000,0.222968,0.306187,-0.000000
3.380000,0.187477,-0.058389,-1.458636,1.712389,0.260399,-0.034749,0.051512,0.419399,-0.054084,-3.040827,2.205430,0.272455,-1.307456,1.207552,1.220400,0.042492,-0.005222,0.000000,0.224416,0.307842,0.000000
3.390000,0.204603,-0.055764,-1.458986,1.712752,0.264703,-0.035277,0.021038,0.441513,-0.051299,-3.052029,2.216289,0.284228,-0.930661,0.973676,1.132254,0.044742,-0.002133,0.000000,0.225613,0.309123,-0.000000
3.400000,0.221732,-0.053095,-1.459341,1.712809,0.269229,-0.035775,-0.009528,0.463725,-0.048400,-3.059440,2.224904,0.295100,-0.563648,0.772590,1.040383,0.047004,0.000967,0.000000,0.226579,0.310024,-0.000000
3.410000,0.238860,-0.050380,-1.459701,1.712561,0.273977,-0.036245,-0.040150,0.486012,-0.045397,-3.063302,2.231741,0.305036,-0.209987,0.583043,0.947890,0.049274,0.004074,0.000000,0.227358,0.310568,-0.000000
3.420000,0.255983,-0.047616,-1.460066,1.712006,0.278949,-0.036683,-0.070794,0.508359,-0.042299,-3.063640,2.236565,0.314058,0.168831,0.316444,0.861463,0.051551,0.007185,0.000000,0.227926,0.310756,0.000000
3.430000,0.273100,-0.044801,-1.460435,1.711145,0.284145,-0.037090,-0.101423,0.530743,-0.039115,-3.059925,2.238069,0.322265,0.572708,-0.017616,0.781312,0.053832,0.010297,0.000000,0.228152,0.310534,-0.000000
3.440000,0.290206,-0.041933,-1.460808,1.709978,0.289564,-0.037466,-0.131993,0.553121,-0.035854,-3.052185,2.236212,0.329684,0.947108,-0.298683,0.699318,0.056114,0.013405,0.000000,0.228029,0.309902,-0.000000
3.450000,0.307299,-0.039010,-1.461184,1.708505,0.295207,-0.037808,-0.162467,0.575467,-0.032522,-3.040983,2.232096,0.336251,1.299527,-0.549249,0.612047,0.058393,0.016505,0.000000,0.227670,0.308916,0.000000
3.460000,0.324376,-0.036029,-1.461564,1.706729,0.301073,-0.038116,-0.192813,0.597763,-0.029129,-3.026195,2.225227,0.341925,1.664344,-0.846121,0.525982,0.060667,0.019594,0.000000,0.227024,0.307563,-0.000000
3.470000,0.341434,-0.032988,-1.461947,1.704649,0.307162,-0.038390,-0.222991,0.619972,-0.025683,-3.007696,2.215173,0.346771,2.003795,-1.096140,0.451036,0.062933,0.022668,0.000000,0.226046,0.305830,0.000000
3.480000,0.358469,-0.029885,-1.462332,1.702269,0.313473,-0.038630,-0.252967,0.642066,-0.022193,-2.986119,2.203304,0.350946,2.302137,-1.267112,0.386233,0.065188,0.025723,0.000000,0.224877,0.303779,-0.000000
3.490000,0.375479,-0.026719,-1.462719,1.699590,0.320004,-0.038834,-0.282713,0.664038,-0.018664,-2.961654,2.189831,0.354495,2.612834,-1.492285,0.319192,0.067431,0.028756,0.000000,0.223538,0.301429,0.000000
3.500000,0.392461,-0.023485,-1.463109,1.696614,0.326754,-0.039003,-0.312200,0.685863,-0.015103,-2.933862,2.173459,0.357330,2.950111,-1.790657,0.245803,0.069659,0.031765,0.000000,0.221897,0.298736,-0.000000
3.510000,0.409411,-0.020184,-1.463499,1.693346,0.333721,-0.039136,-0.341390,0.707507,-0.011518,-2.902651,2.154018,0.359412,3.275478,-2.069728,0.175127,0.071869,0.034745,0.000000,0.219937,0.295689,0.000000
3.520000,0.426328,-0.016811,-1.463891,1.689787,0.340904,-0.039233,-0.370253,0.728943,-0.007915,-2.868353,2.132064,0.360832,3.562387,-2.313808,0.118145,0.074058,0.037694,0.000000,0.217715,0.292321,-0.000000
3.530000,0.443207,-0.013366,-1.464284,1.685941,0.348300,-0.039294,-0.398758,0.750148,-0.004301,-2.831404,2.107742,0.361774,3.823914,-2.558212,0.072768,0.076223,0.040608,0.000000,0.215247,0.288677,0.000000
3.540000,0.460047,-0.009845,-1.464677,1.681812,0.355907,-0.039319,-0.426881,0.771098,-0.000680,-2.791874,2.080900,0.362288,4.091859,-2.814837,0.025013,0.078363,0.043484,0.000000,0.212518,0.284764,0.000000
3.550000,0.476843,-0.006247,-1.465070,1.677403,0.363722,-0.039308,-0.454595,0.791766,0.002945,-2.749567,2.051445,0.362275,4.359020,-3.054140,-0.028979,0.080474,0.046321,0.000000,0.209520,0.280563,-0.000000
3.560000,0.493595,-0.002571,-1.465463,1.672720,0.371742,-0.039260,-0.481872,0.812127,0.006566,-2.704694,2.019817,0.361708,4.604557,-3.271319,-0.079411,0.082553,0.049114,0.000000,0.206297,0.276093,0.000000
3.570000,0.510298,0.001187,-1.465856,1.667766,0.379964,-0.039177,-0.508689,0.832162,0.010179,-2.657475,1.986019,0.360686,4.850081,-3.541251,-0.116627,0.084600,0.051861,0.000000,0.202850,0.271379,0.000000
3.580000,0.526950,0.005029,-1.466247,1.662546,0.388385,-0.039057,-0.535022,0.851847,0.013780,-2.607692,1.948992,0.359376,5.102073,-3.865757,-0.143363,0.086610,0.054561,0.000000,0.199074,0.266397,-0.000000
3.590000,0.543549,0.008955,-1.466637,1.657065,0.397001,-0.038901,-0.560843,0.871142,0.017366,-2.555434,1.908704,0.357819,5.328589,-4.141092,-0.172056,0.088581,0.057209,0.000000,0.194967,0.261159,0.000000
3.600000,0.560091,0.012969,-1.467025,1.651329,0.405808,-0.038709,-0.586130,0.890021,0.020936,-2.501121,1.866170,0.355934,5.534625,-4.372808,-0.205598,0.090509,0.059805,0.000000,0.190632,0.255707,-0.000000
3.610000,0.576575,0.017071,-1.467411,1.645343,0.414802,-0.038482,-0.610865,0.908466,0.024485,-2.444741,1.821247,0.353707,5.740784,-4.628822,-0.235589,0.092394,0.062345,0.000000,0.186054,0.250039,-0.000000
3.620000,0.592998,0.021265,-1.467795,1.639112,0.423977,-0.038220,-0.635025,0.926446,0.028010,-2.386305,1.773594,0.351223,5.921283,-4.866543,-0.255277,0.094231,0.064827,0.000000,0.181202,0.244158,-0.000000
3.630000,0.609358,0.025551,-1.468175,1.632642,0.433331,-0.037922,-0.658591,0.943938,0.031510,-2.326316,1.723916,0.348602,6.067118,-5.059401,-0.267378,0.096018,0.067249,0.000000,0.176146,0.238115,-0.000000
3.640000,0.625651,0.029931,-1.468553,1.625940,0.442856,-0.037590,-0.681551,0.960925,0.034982,-2.264963,1.672406,0.345875,6.215136,-5.270560,-0.280759,0.097753,0.069611,0.000000,0.170908,0.231931,-0.000000
3.650000,0.641876,0.034408,-1.468927,1.619011,0.452549,-0.037222,-0.703890,0.977386,0.038427,-2.202013,1.618505,0.342987,6.372490,-5.509597,-0.296857,0.099436,0.071910,0.000000,0.165432,0.225581,-0.000000
3.660000,0.658031,0.038982,-1.469297,1.611862,0.462404,-0.036821,-0.725592,0.993295,0.041842,-2.137513,1.562214,0.339938,6.513429,-5.731734,-0.309946,0.101062,0.074145,0.000000,0.159718,0.219071,-0.000000
3.670000,0.674114,0.043656,-1.469664,1.604499,0.472415,-0.036386,-0.746641,1.008630,0.045226,-2.071744,1.503871,0.336788,6.627908,-5.930962,-0.317240,0.102630,0.076314,0.000000,0.153801,0.212430,0.000000
3.680000,0.690121,0.048431,-1.470025,1.596929,0.482576,-0.035917,-0.767027,1.023372,0.048578,-2.004955,1.443595,0.333593,6.724264,-6.121986,-0.320925,0.104138,0.078416,0.000000,0.147693,0.205684,-0.000000
3.690000,0.706052,0.053308,-1.470382,1.589159,0.492882,-0.035414,-0.786740,1.037502,0.051898,-1.937259,1.381431,0.330369,6.813997,-6.308068,-0.324850,0.105584,0.080450,0.000000,0.141401,0.198845,-0.000000
3.700000,0.721904,0.058288,-1.470733,1.581194,0.503327,-0.034879,-0.805772,1.051001,0.055185,-1.868675,1.317433,0.327096,6.899240,-6.489079,-0.329134,0.106966,0.082415,0.000000,0.134929,0.191914,-0.000000
3.710000,0.737676,0.063374,-1.471079,1.573043,0.513902,-0.034310,-0.824113,1.063851,0.058440,-1.799274,1.251649,0.323786,6.972461,-6.662643,-0.331625,0.108283,0.084311,0.000000,0.128283,0.184900,0.000000
3.720000,0.753365,0.068566,-1.471420,1.564712,0.524604,-0.033710,-0.841757,1.076034,0.061661,-1.729225,1.184180,0.320464,7.026694,-6.822366,-0.332908,0.109532,0.086135,0.000000,0.121472,0.177819,-0.000000
3.730000,0.768970,0.073866,-1.471754,1.556208,0.535423,-0.033077,-0.858698,1.087534,0.064849,-1.658740,1.115202,0.317128,7.064265,-6.968089,-0.334188,0.110712,0.087888,0.000000,0.114515,0.170694,0.000000
3.740000,0.784489,0.079275,-1.472081,1.547538,0.546354,-0.032413,-0.874932,1.098338,0.068003,-1.587940,1.044819,0.313780,7.094460,-7.107842,-0.334981,0.111822,0.089570,0.000000,0.107422,0.163537,0.000000
3.750000,0.799921,0.084793,-1.472402,1.538710,0.557390,-0.031717,-0.890457,1.108431,0.071124,-1.516851,0.973045,0.310429,7.119487,-7.244451,-0.334403,0.112861,0.091180,0.000000,0.100193,0.156350,-0.000000
3.760000,0.815264,0.090423,-1.472716,1.529729,0.568523,-0.030990,-0.905269,1.117799,0.074212,-1.445550,0.899930,0.307092,7.133346,-7.371890,-0.333270,0.113826,0.092717,0.000000,0.092835,0.149142,-0.000000
3.770000,0.830516,0.096164,-1.473022,1.520604,0.579746,-0.030233,-0.919368,1.126429,0.077266,-1.374184,0.825607,0.303763,7.131375,-7.482620,-0.334639,0.114717,0.094182,0.000000,0.085360,0.141926,-0.000000
3.780000,0.845676,0.102018,-1.473320,1.511342,0.591051,-0.029445,-0.932753,1.134311,0.080287,-1.302923,0.750277,0.300399,7.115754,-7.577950,-0.338828,0.115533,0.095574,0.000000,0.077787,0.134721,0.000000
3.790000,0.860743,0.107985,-1.473611,1.501949,0.602432,-0.028627,-0.945426,1.141435,0.083274,-1.231869,0.674048,0.296987,7.092925,-7.667356,-0.342150,0.116273,0.096894,0.000000,0.070125,0.127536,0.000000
3.800000,0.875715,0.114066,-1.473893,1.492433,0.613880,-0.027780,-0.957390,1.147792,0.086227,-1.161064,0.596930,0.293556,7.063877,-7.753317,-0.343061,0.116936,0.098142,0.000000,0.062377,0.120374,-0.000000
3.810000,0.890591,0.120262,-1.474166,1.482801,0.625388,-0.026903,-0.968647,1.153373,0.089145,-1.090592,0.518982,0.290125,7.024758,-7.829093,-0.344502,0.117521,0.099318,0.000000,0.054547,0.113246,0.000000
3.820000,0.905371,0.126574,-1.474431,1.473060,0.636948,-0.025997,-0.979202,1.158171,0.092029,-1.020569,0.440348,0.286666,6.974278,-7.888343,-0.350944,0.118027,0.100423,0.000000,0.046649,0.106162,0.000000
3.830000,0.920052,0.133001,-1.474686,1.463217,0.648551,-0.025062,-0.989059,1.162180,0.094879,-0.951106,0.361215,0.283107,6.914136,-7.932775,-0.361954,0.118454,0.101457,0.000000,0.038700,0.099132,-0.000000
3.840000,0.934635,0.139545,-1.474932,1.453279,0.660191,-0.024099,-0.998224,1.165396,0.097692,-0.882287,0.281693,0.279427,6.846450,-7.970416,-0.371977,0.118801,0.102420,0.000000,0.030710,0.092164,0.000000
3.850000,0.949118,0.146205,-1.475168,1.443253,0.671859,-0.023108,-1.006705,1.167814,0.100467,-0.814177,0.201807,0.275667,6.771467,-8.003938,-0.379237,0.119068,0.103313,0.000000,0.022680,0.085266,-0.000000
3.860000,0.963500,0.152982,-1.475394,1.433145,0.683547,-0.022090,-1.014508,1.169432,0.103205,-0.746857,0.121614,0.271842,6.688348,-8.027748,-0.387818,0.119254,0.104137,0.000000,0.014617,0.078445,-0.000000
3.870000,0.977781,0.159876,-1.475610,1.422963,0.695248,-0.021044,-1.021642,1.170246,0.105904,-0.680410,0.041252,0.267911,6.597385,-8.034905,-0.402502,0.119360,0.104893,0.000000,0.006533,0.071708,0.000000
3.880000,0.991959,0.166887,-1.475815,1.412712,0.706952,-0.019972,-1.028116,1.170257,0.108563,-0.614910,-0.039084,0.263792,6.499007,-8.026833,-0.422381,0.119385,0.105582,0.000000,-0.001555,0.065063,-0.000000
3.890000,1.006035,0.174015,-1.476009,1.402400,0.718653,-0.018873,-1.033940,1.169465,0.111180,-0.550430,-0.119285,0.259463,6.393571,-8.012715,-0.441466,0.119329,0.106204,0.000000,-0.009637,0.058515,0.000000
3.900000,1.020007,0.181260,-1.476193,1.392033,0.730342,-0.017748,-1.039124,1.167871,0.113752,-0.487038,-0.199338,0.254963,6.283476,-7.995481,-0.457945,0.119192,0.106760,0.000000,-0.017711,0.052073,0.000000
3.910000,1.033876,0.188622,-1.476364,1.381618,0.742010,-0.016598,-1.043681,1.165478,0.116279,-0.424761,-0.279194,0.250304,6.168859,-7.968941,-0.475998,0.118975,0.107252,0.000000,-0.025774,0.045739,-0.000000
3.920000,1.047640,0.196100,-1.476524,1.371160,0.753651,-0.015422,-1.047620,1.162287,0.118759,-0.363661,-0.358717,0.245443,6.043910,-7.926248,-0.500204,0.118677,0.107681,0.000000,-0.033813,0.039517,0.000000
3.930000,1.061299,0.203695,-1.476673,1.360665,0.765256,-0.014223,-1.050954,1.158304,0.121188,-0.303882,-0.437719,0.240300,5.909259,-7.869462,-0.529472,0.118299,0.108048,0.000000,-0.041810,0.033423,0.000000
3.940000,1.074853,0.211406,-1.476809,1.350141,0.776817,-0.012999,-1.053697,1.153533,0.123565,-0.245476,-0.516106,0.234853,5.773657,-7.807757,-0.557998,0.117841,0.108355,0.000000,-0.049757,0.027461,-0.000000
3.950000,1.088302,0.219231,-1.476933,1.339591,0.788327,-0.011751,-1.055863,1.147981,0.125885,-0.188409,-0.593875,0.229140,5.635197,-7.742041,-0.584270,0.117303,0.108601,0.000000,-0.057654,0.021627,0.000000
3.960000,1.101645,0.227172,-1.477044,1.329023,0.799777,-0.010481,-1.057465,1.141655,0.128147,-0.132772,-0.670947,0.223168,5.488844,-7.666481,-0.612210,0.116687,0.108790,0.000000,-0.065493,0.015931,-0.000000
3.970000,1.114882,0.235227,-1.477142,1.318442,0.811160,-0.009188,-1.058519,1.134563,0.130348,-0.078632,-0.747204,0.216896,5.343452,-7.580300,-0.645499,0.115993,0.108922,0.000000,-0.073263,0.010379,0.000000
3.980000,1.128014,0.243395,-1.477228,1.307853,0.822468,-0.007874,-1.059038,1.126711,0.132485,-0.025903,-0.822553,0.210258,5.201786,-7.485493,-0.682985,0.115222,0.108999,0.000000,-0.080956,0.004961,0.000000
3.990000,1.141039,0.251676,-1.477300,1.297261,0.833694,-0.006539,-1.059037,1.118111,0.134554,0.025403,-0.896914,0.203236,5.051981,-7.383176,-0.719810,0.114374,0.109022,0.000000,-0.088564,-0.000320,-0.000000
4.000000,1.153959,0.260069,-1.477359,1.286672,0.844830,-0.005183,-1.058530,1.108773,0.136550,0.075137,-0.970217,0.195862,4.891619,-7.275574,-0.754800,0.113451,0.108993,0.000000,-0.096079,-0.005451,0.000000
4.010000,1.166773,0.268573,-1.477404,1.276091,0.855870,-0.003808,-1.057534,1.098707,0.138471,0.123236,-1.042425,0.188140,4.729466,-7.162224,-0.791163,0.112453,0.108912,0.000000,-0.103498,-0.010423,0.000000
4.020000,1.179481,0.277187,-1.477435,1.265522,0.866805,-0.002414,-1.056065,1.087925,0.140313,0.169726,-1.113461,0.180039,4.570223,-7.036957,-0.831463,0.111381,0.108783,0.000000,-0.110813,-0.015241,0.000000
4.030000,1.192083,0.285909,-1.477452,1.254969,0.877628,-0.001001,-1.054140,1.076438,0.142072,0.214640,-1.183165,0.171511,4.411076,-6.899833,-0.874607,0.110236,0.108606,0.000000,-0.118008,-0.019907,0.000000
4.040000,1.204580,0.294739,-1.477455,1.244439,0.888333,0.000428,-1.051773,1.064261,0.143743,0.257948,-1.251458,0.162546,4.247033,-6.759990,-0.917130,0.109021,0.108382,0.000000,-0.125075,-0.024419,-0.000000
4.050000,1.216972,0.303676,-1.477443,1.233934,0.898913,0.001873,-1.048981,1.051409,0.145323,0.299581,-1.318364,0.153168,4.080271,-6.620106,-0.958312,0.107735,0.108114,0.000000,-0.132016,-0.028769,-0.000000
4.060000,1.229259,0.312717,-1.477417,1.223459,0.909362,0.003334,-1.045781,1.037894,0.146806,0.339553,-1.383860,0.143380,3.914327,-6.474386,-1.000308,0.106380,0.107804,0.000000,-0.138828,-0.032957,0.000000
4.070000,1.241441,0.321863,-1.477377,1.213018,0.919671,0.004810,-1.042190,1.023732,0.148190,0.377867,-1.447852,0.133162,3.743809,-6.318230,-1.044454,0.104958,0.107451,0.000000,-0.145500,-0.036985,0.000000
4.080000,1.253519,0.331111,-1.477321,1.202615,0.929836,0.006298,-1.038224,1.008937,0.149470,0.414429,-1.510225,0.122491,3.567882,-6.154151,-1.089900,0.103470,0.107060,0.000000,-0.152020,-0.040843,-0.000000
4.090000,1.265493,0.340460,-1.477251,1.192254,0.939850,0.007799,-1.033901,0.993527,0.150640,0.449225,-1.570935,0.111364,3.394849,-5.988701,-1.134691,0.101918,0.106630,0.000000,-0.158384,-0.044528,0.000000
4.100000,1.277364,0.349908,-1.477165,1.181937,0.949707,0.009311,-1.029239,0.977518,0.151697,0.482326,-1.629999,0.099797,3.223851,-5.821232,-1.178469,0.100303,0.106165,0.000000,-0.164592,-0.048047,-0.000000
4.110000,1.289132,0.359454,-1.477064,1.171669,0.959400,0.010833,-1.024254,0.960927,0.152636,0.513702,-1.687360,0.087795,3.049806,-5.648166,-1.222305,0.098626,0.105664,0.000000,-0.170636,-0.051397,0.000000
4.120000,1.300798,0.369096,-1.476948,1.161452,0.968925,0.012364,-1.018965,0.943771,0.153453,0.543322,-1.742962,0.075351,2.878456,-5.473481,-1.266584,0.096890,0.105132,0.000000,-0.176511,-0.054574,-0.000000
4.130000,1.312361,0.378832,-1.476817,1.151290,0.978276,0.013902,-1.013388,0.926068,0.154143,0.571271,-1.796829,0.062463,2.712219,-5.299175,-1.310736,0.095096,0.104568,0.000000,-0.182217,-0.057586,0.000000
4.140000,1.323823,0.388661,-1.476670,1.141185,0.987447,0.015447,-1.007540,0.907834,0.154702,0.597567,-1.848946,0.049136,2.543390,-5.120268,-1.353987,0.093246,0.103975,0.000000,-0.187751,-0.060434,-0.000000
4.150000,1.335185,0.398581,-1.476508,1.131139,0.996432,0.016996,-1.001437,0.889089,0.155126,0.622139,-1.899235,0.035383,2.370775,-4.935784,-1.396283,0.091341,0.103354,0.000000,-0.193105,-0.063112,0.000000
4.160000,1.346446,0.408590,-1.476330,1.121156,1.005228,0.018549,-0.995097,0.869850,0.155410,0.644982,-1.947661,0.021211,2.200075,-4.749843,-1.437867,0.089383,0.102707,0.000000,-0.198273,-0.065616,0.000000
4.170000,1.357608,0.418686,-1.476137,1.111237,1.013829,0.020104,-0.988537,0.850136,0.155550,0.666140,-1.994232,0.006626,2.033195,-4.564948,-1.478317,0.087375,0.102036,0.000000,-0.203255,-0.067953,-0.000000
4.180000,1.368671,0.428867,-1.475928,1.101385,1.022231,0.021660,-0.981774,0.829965,0.155542,0.685646,-2.038960,-0.008356,1.868574,-4.380357,-1.517291,0.085318,0.101343,0.000000,-0.208050,-0.070123,0.000000
4.190000,1.379636,0.439130,-1.475704,1.091602,1.030429,0.023215,-0.974824,0.809356,0.155383,0.703512,-2.081839,-0.023720,1.704558,-4.193760,-1.555044,0.083214,0.100629,0.000000,-0.212657,-0.072128,0.000000
4.200000,1.390503,0.449475,-1.475464,1.081889,1.038418,0.024768,-0.967704,0.788328,0.155068,0.719737,-2.122835,-0.039456,1.540970,-4.004264,-1.591794,0.081065,0.099895,0.000000,-0.217069,-0.073966,0.000000
4.210000,1.401274,0.459899,-1.475209,1.072248,1.046195,0.026316,-0.960429,0.766900,0.154594,0.734331,-2.161924,-0.055556,1.379250,-3.814028,-1.627091,0.078873,0.099144,0.000000,-0.221284,-0.075640,0.000000
4.220000,1.411948,0.470399,-1.474938,1.062680,1.053756,0.027860,-0.953017,0.745090,0.153957,0.747322,-2.199116,-0.071998,1.220970,-3.626878,-1.659833,0.076640,0.098378,0.000000,-0.225301,-0.077149,-0.000000
4.230000,1.422527,0.480974,-1.474651,1.053187,1.061097,0.029396,-0.945483,0.722917,0.153154,0.758751,-2.234462,-0.088752,1.066000,-3.442790,-1.689851,0.074367,0.097597,0.000000,-0.229124,-0.078499,-0.000000
4.240000,1.433012,0.491621,-1.474350,1.043770,1.068215,0.030923,-0.937842,0.700401,0.152182,0.768642,-2.267972,-0.105795,0.912718,-3.257339,-1.718324,0.072057,0.096804,0.000000,-0.232751,-0.079691,0.000000
4.250000,1.443403,0.502338,-1.474033,1.034430,1.075105,0.032439,-0.930110,0.677558,0.151038,0.777005,-2.299608,-0.123119,0.760676,-3.069058,-1.745736,0.069712,0.095999,0.000000,-0.236179,-0.080724,0.000000
4.260000,1.453700,0.513123,-1.473701,1.025168,1.081766,0.033943,-0.922302,0.654408,0.149719,0.783856,-2.329353,-0.140710,0.611312,-2.881498,-1.771003,0.067334,0.095185,0.000000,-0.239402,-0.081602,0.000000
4.270000,1.463906,0.523973,-1.473354,1.015984,1.088193,0.035434,-0.914433,0.630971,0.148224,0.789231,-2.357238,-0.158539,0.466342,-2.699208,-1.792493,0.064924,0.094363,0.000000,-0.242425,-0.082326,-0.000000
4.280000,1.474020,0.534887,-1.472992,1.006880,1.094385,0.036908,-0.906517,0.607264,0.146549,0.793183,-2.383337,-0.176560,0.325596,-2.521632,-1.810258,0.062485,0.093535,0.000000,-0.245252,-0.082902,0.000000
4.290000,1.484044,0.545861,-1.472616,0.997854,1.100339,0.038365,-0.898569,0.583304,0.144692,0.795743,-2.407671,-0.194744,0.187209,-2.343336,-1.826178,0.060019,0.092702,0.000000,-0.247884,-0.083331,-0.000000
4.300000,1.493977,0.556894,-1.472225,0.988908,1.106051,0.039802,-0.890603,0.559110,0.142654,0.796927,-2.430204,-0.213083,0.050677,-2.162717,-1.840925,0.057528,0.091866,0.000000,-0.250318,-0.083616,0.000000
4.310000,1.503822,0.567982,-1.471820,0.980042,1.111521,0.041218,-0.882631,0.534700,0.140431,0.796757,-2.450925,-0.231562,-0.082469,-1.983885,-1.852965,0.055013,0.091027,0.000000,-0.252550,-0.083758,-0.000000
4.320000,1.513578,0.579124,-1.471401,0.971256,1.116745,0.042610,-0.874667,0.510092,0.138022,0.795277,-2.469882,-0.250143,-0.210408,-1.811514,-1.860264,0.052477,0.090188,0.000000,-0.254584,-0.083762,-0.000000
4.330000,1.523247,0.590317,-1.470968,0.962549,1.121723,0.043978,-0.866725,0.485303,0.135428,0.792549,-2.487156,-0.268768,-0.333327,-1.644762,-1.863059,0.049921,0.089349,0.000000,-0.256429,-0.083633,0.000000
4.340000,1.532829,0.601559,-1.470521,0.953921,1.126451,0.045319,-0.858816,0.460349,0.132647,0.788611,-2.502777,-0.287404,-0.453319,-1.477911,-1.863787,0.047348,0.088513,0.000000,-0.258086,-0.083375,0.000000
4.350000,1.542325,0.612846,-1.470061,0.945372,1.130930,0.046631,-0.850953,0.435247,0.129680,0.783482,-2.516714,-0.306044,-0.571024,-1.309360,-1.863261,0.044759,0.087680,0.000000,-0.259552,-0.082990,-0.000000
4.360000,1.551736,0.624177,-1.469589,0.936902,1.135156,0.047913,-0.843147,0.410014,0.126526,0.777190,-2.528964,-0.324669,-0.684771,-1.143279,-1.859632,0.042157,0.086852,0.000000,-0.260825,-0.082480,0.000000
4.370000,1.561063,0.635549,-1.469103,0.928509,1.139130,0.049162,-0.835409,0.384668,0.123186,0.769787,-2.539579,-0.343236,-0.792575,-0.984093,-1.850569,0.039543,0.086029,0.000000,-0.261912,-0.081850,0.000000
4.380000,1.570307,0.646960,-1.468605,0.920194,1.142850,0.050376,-0.827751,0.359223,0.119661,0.761339,-2.548646,-0.361680,-0.894706,-0.830812,-1.836427,0.036919,0.085213,0.000000,-0.262819,-0.081107,-0.000000
4.390000,1.579467,0.658406,-1.468096,0.911954,1.146314,0.051555,-0.820182,0.333695,0.115953,0.751893,-2.556196,-0.379965,-0.993524,-0.677911,-1.820117,0.034287,0.084406,0.000000,-0.263550,-0.080256,-0.000000
4.400000,1.588546,0.669886,-1.467574,0.903790,1.149523,0.052695,-0.812713,0.308099,0.112062,0.741468,-2.562204,-0.398083,-1.089773,-0.523926,-1.802593,0.031648,0.083607,0.000000,-0.264102,-0.079299,0.000000
4.410000,1.597543,0.681397,-1.467042,0.895700,1.152476,0.053796,-0.805353,0.282451,0.107991,0.730097,-2.566674,-0.416017,-1.181648,-0.372765,-1.781746,0.029005,0.082819,0.000000,-0.264477,-0.078239,0.000000
4.420000,1.606460,0.692936,-1.466498,0.887683,1.155172,0.054855,-0.798111,0.256765,0.103742,0.717836,-2.569659,-0.433718,-1.266987,-0.228259,-1.755024,0.026359,0.082042,0.000000,-0.264679,-0.077082,-0.000000
4.430000,1.615297,0.704500,-1.465945,0.879738,1.157612,0.055871,-0.790996,0.231058,0.099317,0.704758,-2.571239,-0.451117,-1.346139,-0.089358,-1.722907,0.023711,0.081277,0.000000,-0.264717,-0.075835,0.000000
4.440000,1.624054,0.716088,-1.465381,0.871863,1.159794,0.056841,-0.784016,0.205341,0.094719,0.690913,-2.571446,-0.468176,-1.421765,0.048806,-1.688673,0.021064,0.080525,0.000000,-0.264594,-0.074503,0.000000
4.450000,1.632734,0.727696,-1.464808,0.864058,1.161718,0.057765,-0.777178,0.179629,0.089953,0.676322,-2.570263,-0.484891,-1.494710,0.187426,-1.653379,0.018419,0.079786,0.000000,-0.264309,-0.073089,-0.000000
4.460000,1.641336,0.739322,-1.464226,0.856320,1.163386,0.058641,-0.770490,0.153935,0.085022,0.661019,-2.567698,-0.501243,-1.563024,0.323167,-1.614741,0.015778,0.079063,0.000000,-0.263865,-0.071596,-0.000000
4.470000,1.649860,0.750964,-1.463635,0.848648,1.164797,0.059466,-0.763958,0.128275,0.079928,0.645062,-2.563800,-0.517185,-1.624398,0.453084,-1.570089,0.013142,0.078354,0.000000,-0.263265,-0.070031,-0.000000
4.480000,1.658309,0.762618,-1.463036,0.841040,1.165952,0.060239,-0.757588,0.102659,0.074678,0.628531,-2.558636,-0.532645,-1.679264,0.578172,-1.519995,0.010513,0.077662,0.000000,-0.262518,-0.068402,-0.000000
4.490000,1.666681,0.774283,-1.462430,0.833496,1.166850,0.060959,-0.751387,0.077102,0.069276,0.611476,-2.552236,-0.547585,-1.730556,0.702255,-1.467991,0.007892,0.076986,0.000000,-0.261628,-0.066713,0.000000
4.500000,1.674978,0.785955,-1.461817,0.826013,1.167494,0.061625,-0.745359,0.051615,0.063726,0.593919,-2.544591,-0.562005,-1.779197,0.826174,-1.415214,0.005280,0.076328,0.000000,-0.260594,-0.064967,0.000000
4.510000,1.683201,0.797633,-1.461198,0.818589,1.167883,0.062234,-0.739509,0.026210,0.058035,0.575893,-2.535713,-0.575890,-1.823112,0.947401,-1.359260,0.002680,0.075687,0.000000,-0.259420,-0.063169,-0.000000
4.520000,1.691350,0.809313,-1.460572,0.811222,1.168018,0.062785,-0.733841,0.000900,0.052208,0.557457,-2.525643,-0.589190,-1.859931,1.064050,-1.297468,0.000092,0.075064,0.000000,-0.258110,-0.061324,0.000000
4.530000,1.699426,0.820993,-1.459942,0.803912,1.167901,0.063278,-0.728360,-0.024303,0.046252,0.538694,-2.514432,-0.601839,-1.890189,1.176988,-1.230536,-0.002482,0.074460,0.000000,-0.256670,-0.059440,0.000000
4.540000,1.707428,0.832671,-1.459307,0.796655,1.167532,0.063710,-0.723067,-0.049388,0.040172,0.519653,-2.502103,-0.613801,-1.916966,1.288729,-1.162051,-0.005041,0.073876,0.000000,-0.255105,-0.057524,0.000000
4.550000,1.715359,0.844344,-1.458668,0.789451,1.166913,0.064081,-0.717966,-0.074345,0.033976,0.500355,-2.488657,-0.625080,-1.941194,1.399690,-1.093122,-0.007584,0.073310,0.000000,-0.253415,-0.055576,-0.000000
4.560000,1.723217,0.856009,-1.458025,0.782296,1.166045,0.064390,-0.713060,-0.099161,0.027670,0.480830,-2.474110,-0.635663,-1.960779,1.508320,-1.021392,-0.010110,0.072764,0.000000,-0.251604,-0.053602,0.000000
4.570000,1.731005,0.867665,-1.457380,0.775189,1.164930,0.064635,-0.708350,-0.123827,0.021262,0.461139,-2.458491,-0.645508,-1.973440,1.613868,-0.944390,-0.012616,0.072238,0.000000,-0.249675,-0.051607,0.000000
4.580000,1.738721,0.879308,-1.456732,0.768129,1.163568,0.064815,-0.703837,-0.148331,0.014760,0.441361,-2.441832,-0.654551,-1.979709,1.716971,-0.862879,-0.015103,0.071732,0.000000,-0.247635,-0.049599,-0.000000
4.590000,1.746367,0.890936,-1.456084,0.761113,1.161963,0.064930,-0.699523,-0.172664,0.008171,0.421545,-2.424152,-0.662765,-1.982660,1.818723,-0.780285,-0.017569,0.071246,0.000000,-0.245485,-0.047583,-0.000000
4.600000,1.753944,0.902547,-1.455434,0.754139,1.160115,0.064979,-0.695406,-0.196814,0.001505,0.401708,-2.405458,-0.670157,-1.983558,1.919155,-0.697611,-0.020013,0.070780,0.000000,-0.243228,-0.045561,-0.000000
4.610000,1.761450,0.914138,-1.454784,0.747205,1.158027,0.064960,-0.691489,-0.220773,-0.005232,0.381874,-2.385768,-0.676718,-1.980335,2.017714,-0.612702,-0.022434,0.070334,0.000000,-0.240868,-0.043536,-0.000000
4.620000,1.768888,0.925707,-1.454135,0.740309,1.155700,0.064874,-0.687769,-0.244530,-0.012030,0.362101,-2.365104,-0.682411,-1.969948,2.114674,-0.523478,-0.024830,0.069909,0.000000,-0.238407,-0.041515,-0.000000
4.630000,1.776256,0.937252,-1.453487,0.733449,1.153136,0.064719,-0.684247,-0.268075,-0.018880,0.342475,-2.343475,-0.687187,-1.953129,2.210420,-0.430713,-0.027202,0.069504,0.000000,-0.235850,-0.039505,-0.000000
4.640000,1.783557,0.948770,-1.452840,0.726624,1.150338,0.064496,-0.680919,-0.291399,-0.025773,0.323038,-2.320895,-0.691025,-1.934031,2.304727,-0.337399,-0.029547,0.069119,0.000000,-0.233198,-0.037511,0.000000
4.650000,1.790789,0.960259,-1.452197,0.719831,1.147308,0.064204,-0.677786,-0.314493,-0.032701,0.303794,-2.297380,-0.693935,-1.912898,2.397238,-0.244400,-0.031866,0.068753,0.000000,-0.230455,-0.035533,0.000000
4.660000,1.797953,0.971716,-1.451556,0.713068,1.144048,0.063842,-0.674844,-0.337347,-0.039652,0.284780,-2.272950,-0.695913,-1.887109,2.488303,-0.149925,-0.034156,0.068408,0.000000,-0.227623,-0.033576,0.000000
4.670000,1.805050,0.983140,-1.450920,0.706334,1.140561,0.063411,-0.672090,-0.359952,-0.046619,0.266052,-2.247614,-0.696934,-1.856906,2.579165,-0.052372,-0.036418,0.068081,0.000000,-0.224707,-0.031645,0.000000
4.680000,1.812080,0.994528,-1.450288,0.699626,1.136849,0.062910,-0.669522,-0.382299,-0.053591,0.247642,-2.221367,-0.696961,-1.823230,2.669948,0.047526,-0.038650,0.067774,0.000000,-0.221706,-0.029744,0.000000
4.690000,1.819043,1.005877,-1.449662,0.692943,1.132915,0.062339,-0.667137,-0.404379,-0.060558,0.229587,-2.194215,-0.695983,-1.785779,2.759149,0.147325,-0.040852,0.067486,0.000000,-0.218623,-0.027875,0.000000
4.700000,1.825939,1.017186,-1.449041,0.686284,1.128762,0.061699,-0.664931,-0.426183,-0.067510,0.211927,-2.166184,-0.694014,-1.745367,2.846157,0.246421,-0.043023,0.067216,0.000000,-0.215461,-0.026043,0.000000
4.710000,1.832768,1.028452,-1.448428,0.679645,1.124392,0.060989,-0.662899,-0.447703,-0.074438,0.194680,-2.137292,-0.691055,-1.702346,2.932183,0.346175,-0.045161,0.066965,0.000000,-0.212224,-0.024250,0.000000
4.720000,1.839532,1.039674,-1.447821,0.673026,1.119808,0.060210,-0.661037,-0.468929,-0.081332,0.177880,-2.107540,-0.687091,-1.654296,3.018946,0.447383,-0.047267,0.066731,0.000000,-0.208913,-0.022500,-0.000000
4.730000,1.846229,1.050848,-1.447223,0.666424,1.115013,0.059362,-0.659341,-0.489854,-0.088180,0.161594,-2.076913,-0.682107,-1.601060,3.106279,0.549350,-0.049340,0.066514,0.000000,-0.205528,-0.020798,0.000000
4.740000,1.852860,1.061974,-1.446634,0.659839,1.110011,0.058446,-0.657805,-0.510467,-0.094974,0.145859,-2.045415,-0.676104,-1.546302,3.192061,0.650671,-0.051378,0.066314,0.000000,-0.202071,-0.019149,0.000000
4.750000,1.859426,1.073049,-1.446054,0.653268,1.104804,0.057463,-0.656424,-0.530762,-0.101702,0.130668,-2.013072,-0.669094,-1.491224,3.275382,0.751074,-0.053381,0.066131,0.000000,-0.198545,-0.017552,0.000000
4.760000,1.865925,1.084070,-1.445485,0.646710,1.099395,0.056412,-0.655192,-0.550729,-0.108356,0.116034,-1.979907,-0.661082,-1.433514,3.357825,0.851163,-0.055349,0.065963,0.000000,-0.194954,-0.016007,0.000000
4.770000,1.872360,1.095036,-1.444926,0.640164,1.093789,0.055296,-0.654103,-0.570360,-0.114924,0.101998,-1.945916,-0.652070,-1.371038,3.441915,0.950897,-0.057280,0.065810,0.000000,-0.191298,-0.014520,-0.000000
4.780000,1.878729,1.105946,-1.444379,0.633628,1.087988,0.054114,-0.653152,-0.589647,-0.121397,0.088613,-1.911069,-0.642064,-1.304811,3.527324,1.049780,-0.059175,0.065672,0.000000,-0.187575,-0.013095,0.000000
4.790000,1.885032,1.116796,-1.443844,0.627101,1.081996,0.052868,-0.652331,-0.608581,-0.127765,0.075901,-1.875369,-0.631075,-1.237930,3.610784,1.147513,-0.061032,0.065548,0.000000,-0.183786,-0.011734,-0.000000
4.800000,1.891271,1.127586,-1.443322,0.620582,1.075817,0.051559,-0.651634,-0.627155,-0.134018,0.063855,-1.838853,-0.619114,-1.170099,3.691506,1.244056,-0.062851,0.065437,0.000000,-0.179937,-0.010436,0.000000
4.810000,1.897444,1.138313,-1.442813,0.614068,1.069453,0.050187,-0.651054,-0.645359,-0.140147,0.052499,-1.801539,-0.606194,-1.099555,3.771765,1.339200,-0.064631,0.065338,0.000000,-0.176029,-0.009204,0.000000
4.820000,1.903552,1.148975,-1.442318,0.607561,1.062909,0.048756,-0.650584,-0.663185,-0.146142,0.041864,-1.763418,-0.592330,-1.028082,3.853379,1.432269,-0.066371,0.065252,0.000000,-0.172062,-0.008040,-0.000000
4.830000,1.909595,1.159571,-1.441838,0.601057,1.056189,0.047265,-0.650217,-0.680627,-0.151994,0.031938,-1.724471,-0.577548,-0.956555,3.935705,1.522972,-0.068072,0.065177,0.000000,-0.168035,-0.006944,-0.000000
4.840000,1.915573,1.170099,-1.441373,0.594556,1.049297,0.045716,-0.649945,-0.697675,-0.157693,0.022732,-1.684704,-0.561871,-0.882814,4.016440,1.611870,-0.069732,0.065113,0.000000,-0.163948,-0.005917,-0.000000
4.850000,1.921486,1.180557,-1.440923,0.588058,1.042236,0.044111,-0.649762,-0.714321,-0.163231,0.014282,-1.644143,-0.545311,-0.806896,4.094852,1.699379,-0.071351,0.065059,0.000000,-0.159806,-0.004960,-0.000000
4.860000,1.927334,1.190943,-1.440490,0.581561,1.035010,0.042451,-0.649660,-0.730558,-0.168600,0.006595,-1.602807,-0.527883,-0.730518,4.172496,1.784704,-0.072928,0.065014,0.000000,-0.155609,-0.004077,-0.000000
4.870000,1.933118,1.201257,-1.440074,0.575065,1.027625,0.040739,-0.649630,-0.746377,-0.173789,-0.000329,-1.560693,-0.509617,-0.653490,4.251253,1.866120,-0.074463,0.064977,0.000000,-0.151358,-0.003266,-0.000000
4.880000,1.938836,1.211496,-1.439676,0.568568,1.020083,0.038975,-0.649666,-0.761772,-0.178792,-0.006475,-1.517782,-0.490561,-0.575470,4.330723,1.943501,-0.075955,0.064948,0.000000,-0.147052,-0.002528,-0.000000
4.890000,1.944489,1.221658,-1.439295,0.562071,1.012389,0.037163,-0.649760,-0.776733,-0.183600,-0.011838,-1.474078,-0.470747,-0.497212,4.408353,2.018739,-0.077404,0.064926,0.000000,-0.142689,-0.001865,0.000000
4.900000,1.950077,1.231744,-1.438932,0.555573,1.004548,0.035303,-0.649903,-0.791253,-0.188207,-0.016419,-1.429615,-0.450186,-0.418700,4.483258,2.092558,-0.078809,0.064911,0.000000,-0.138274,-0.001275,-0.000000
4.910000,1.955600,1.241749,-1.438589,0.549073,0.996564,0.033399,-0.650088,-0.805325,-0.192604,-0.020212,-1.384413,-0.428896,-0.339696,4.557155,2.163326,-0.080170,0.064901,0.000000,-0.133809,-0.000760,0.000000
4.920000,1.961059,1.251675,-1.438264,0.542571,0.988442,0.031451,-0.650307,-0.818941,-0.196785,-0.023213,-1.338472,-0.406919,-0.261206,4.632027,2.228650,-0.081486,0.064895,0.000000,-0.129293,-0.000320,-0.000000
4.930000,1.966452,1.261518,-1.437960,0.536067,0.980185,0.029463,-0.650552,-0.832094,-0.200742,-0.025436,-1.291773,-0.384323,-0.183619,4.707277,2.288679,-0.082756,0.064894,0.000000,-0.124724,0.000046,0.000000
4.940000,1.971780,1.271279,-1.437675,0.529560,0.971800,0.027436,-0.650816,-0.844777,-0.204471,-0.026886,-1.244326,-0.361146,-0.105865,4.780207,2.346227,-0.083980,0.064896,0.000000,-0.120103,0.000338,0.000000
4.950000,1.977043,1.280954,-1.437411,0.523051,0.963290,0.025374,-0.651090,-0.856981,-0.207965,-0.027554,-1.196168,-0.337398,-0.027586,4.850397,2.402277,-0.085158,0.064901,0.000000,-0.115432,0.000557,-0.000000
4.960000,1.982241,1.290544,-1.437168,0.516539,0.954660,0.023277,-0.651367,-0.868700,-0.211219,-0.027438,-1.147318,-0.313100,0.050194,4.919535,2.454627,-0.086289,0.064907,0.000000,-0.110713,0.000702,-0.000000
4.970000,1.987374,1.300047,-1.436945,0.510023,0.945916,0.021149,-0.651639,-0.879927,-0.214227,-0.026550,-1.097778,-0.288305,0.126214,4.988254,2.500342,-0.087372,0.064915,0.000000,-0.105945,0.000773,-0.000000
4.980000,1.992441,1.309463,-1.436745,0.503506,0.937062,0.018993,-0.651898,-0.890656,-0.216985,-0.024913,-1.047553,-0.263093,0.200519,5.055922,2.539775,-0.088408,0.064923,0.000000,-0.101129,0.000772,0.000000
4.990000,1.997444,1.318789,-1.436566,0.496986,0.928103,0.016810,-0.652137,-0.900878,-0.219489,-0.022539,-0.996659,-0.237510,0.274446,5.121608,2.576537,-0.089395,0.064931,0.000000,-0.096263,0.000702,0.000000
5.000000,2.002381,1.328025,-1.436409,0.490463,0.919044,0.014603,-0.652349,-0.910589,-0.221735,-0.019424,-0.945121,-0.211563,0.348521,5.184977,2.611814,-0.090333,0.064937,0.000000,-0.091351,0.000560,0.000000
5.010000,2.007253,1.337170,-1.436274,0.483939,0.909891,0.012375,-0.652526,-0.919781,-0.223720,-0.015569,-0.892960,-0.185274,0.421570,5.246516,2.642924,-0.091222,0.064942,0.000000,-0.086394,0.000348,0.000000
5.020000,2.012060,1.346223,-1.436161,0.477413,0.900648,0.010128,-0.652660,-0.928448,-0.225441,-0.010993,-0.840191,-0.158704,0.491782,5.306857,2.666627,-0.092061,0.064944,0.000000,-0.081392,0.000066,-0.000000
5.030000,2.016801,1.355183,-1.436071,0.470885,0.891322,0.007866,-0.652745,-0.936585,-0.226894,-0.005733,-0.786823,-0.131941,0.559266,5.365737,2.683500,-0.092850,0.064943,0.000000,-0.076343,-0.000281,-0.000000
5.040000,2.021478,1.364049,-1.436004,0.464358,0.881917,0.005590,-0.652775,-0.944185,-0.228080,0.000192,-0.732876,-0.105034,0.626120,5.422131,2.697600,-0.093588,0.064938,0.000000,-0.071250,-0.000694,-0.000000
5.050000,2.026089,1.372821,-1.435959,0.457830,0.872438,0.003304,-0.652742,-0.951242,-0.228995,0.006789,-0.678380,-0.077989,0.692991,5.475773,2.710246,-0.094275,0.064929,0.000000,-0.066114,-0.001171,-0.000000
5.060000,2.030634,1.381498,-1.435938,0.451303,0.862892,0.001011,-0.652639,-0.957752,-0.229640,0.014052,-0.623360,-0.050829,0.758260,5.527159,2.718570,-0.094910,0.064915,0.000000,-0.060936,-0.001714,0.000000
5.070000,2.035115,1.390079,-1.435939,0.444777,0.853283,-0.001288,-0.652460,-0.963709,-0.230012,0.021954,-0.567837,-0.023618,0.820013,5.576507,2.719163,-0.095494,0.064895,0.000000,-0.055716,-0.002319,0.000000
5.080000,2.039530,1.398563,-1.435963,0.438254,0.843618,-0.003590,-0.652200,-0.969109,-0.230112,0.030452,-0.511830,0.003554,0.878548,5.623525,2.712724,-0.096024,0.064868,0.000000,-0.050456,-0.002984,0.000000
5.090000,2.043880,1.406951,-1.436011,0.431733,0.833901,-0.005891,-0.651851,-0.973946,-0.229941,0.039525,-0.455366,0.030637,0.936118,5.667749,2.703637,-0.096503,0.064835,0.000000,-0.045156,-0.003706,-0.000000
5.100000,2.048164,1.415241,-1.436081,0.425217,0.824139,-0.008189,-0.651409,-0.978216,-0.229499,0.049175,-0.398475,0.057627,0.993299,5.709041,2.693222,-0.096928,0.064794,0.000000,-0.039818,-0.004486,-0.000000
5.110000,2.052384,1.423434,-1.436175,0.418705,0.814337,-0.010481,-0.650868,-0.981915,-0.228788,0.059391,-0.341185,0.084501,1.048419,5.747526,2.678479,-0.097299,0.064745,0.000000,-0.034443,-0.005323,0.000000
5.120000,2.056539,1.431528,-1.436291,0.412199,0.804500,-0.012764,-0.650222,-0.985040,-0.227809,0.070143,-0.283525,0.111196,1.099783,5.783175,2.656170,-0.097616,0.064687,0.000000,-0.029033,-0.006214,-0.000000
5.130000,2.060628,1.439524,-1.436430,0.405700,0.794636,-0.015037,-0.649465,-0.987586,-0.226564,0.081387,-0.225522,0.137625,1.147763,5.815792,2.627129,-0.097880,0.064620,0.000000,-0.023588,-0.007157,-0.000000
5.140000,2.064653,1.447421,-1.436592,0.399210,0.784749,-0.017296,-0.648594,-0.989550,-0.225057,0.093098,-0.167209,0.163739,1.194407,5.845184,2.595656,-0.098088,0.064543,0.000000,-0.018110,-0.008149,0.000000
5.150000,2.068612,1.455219,-1.436776,0.392729,0.774845,-0.019538,-0.647603,-0.990930,-0.223289,0.105275,-0.108618,0.189538,1.240228,5.871220,2.563007,-0.098242,0.064456,0.000000,-0.012602,-0.009190,0.000000
5.160000,2.072507,1.462918,-1.436982,0.386258,0.764930,-0.021761,-0.646488,-0.991723,-0.221266,0.117903,-0.049784,0.214999,1.283740,5.893837,2.526331,-0.098340,0.064358,0.000000,-0.007064,-0.010279,0.000000
5.170000,2.076337,1.470517,-1.437211,0.379799,0.755010,-0.023963,-0.645245,-0.991926,-0.218989,0.130950,0.009258,0.240064,1.323468,5.913041,2.482730,-0.098383,0.064249,0.000000,-0.001500,-0.011414,0.000000
5.180000,2.080103,1.478018,-1.437462,0.373353,0.745092,-0.026141,-0.643869,-0.991538,-0.216465,0.144372,0.068476,0.264654,1.359765,5.928720,2.433073,-0.098370,0.064129,0.000000,0.004091,-0.012591,0.000000
5.190000,2.083804,1.485419,-1.437734,0.366921,0.735180,-0.028293,-0.642358,-0.990556,-0.213696,0.158145,0.127833,0.288726,1.394452,5.940604,2.381323,-0.098301,0.063996,0.000000,0.009704,-0.013807,-0.000000
5.200000,2.087442,1.492722,-1.438027,0.360506,0.725281,-0.030415,-0.640706,-0.988981,-0.210690,0.172261,0.187288,0.312280,1.427947,5.948453,2.328611,-0.098176,0.063851,0.000000,0.015339,-0.015063,0.000000
5.210000,2.091015,1.499925,-1.438342,0.354107,0.715400,-0.032506,-0.638912,-0.986811,-0.207451,0.186704,0.246802,0.335298,1.458948,5.952265,2.272386,-0.097995,0.063694,0.000000,0.020991,-0.016357,0.000000
5.220000,2.094524,1.507030,-1.438678,0.347728,0.705544,-0.034564,-0.636972,-0.984045,-0.203984,0.201440,0.306334,0.357728,1.486359,5.952287,2.210293,-0.097756,0.063523,0.000000,0.026658,-0.017687,0.000000
5.230000,2.097969,1.514036,-1.439033,0.341368,0.695719,-0.036586,-0.634884,-0.980684,-0.200296,0.216431,0.365848,0.379504,1.510549,5.948383,2.143228,-0.097461,0.063338,0.000000,0.032339,-0.019049,0.000000
5.240000,2.101351,1.520944,-1.439409,0.335030,0.685931,-0.038570,-0.632644,-0.976728,-0.196394,0.231651,0.425301,0.400592,1.532860,5.939949,2.074507,-0.097109,0.063140,0.000000,0.038031,-0.020440,0.000000
5.250000,2.104670,1.527754,-1.439805,0.328715,0.676185,-0.040514,-0.630251,-0.972178,-0.192284,0.247088,0.484647,0.420994,1.553519,5.926792,2.005006,-0.096701,0.062927,0.000000,0.043729,-0.021861,0.000000
5.260000,2.107925,1.534468,-1.440220,0.322425,0.666487,-0.042416,-0.627702,-0.967035,-0.187974,0.262722,0.543837,0.440693,1.571596,5.909125,1.932702,-0.096235,0.062701,0.000000,0.049430,-0.023309,-0.000000
5.270000,2.111118,1.541084,-1.440653,0.316161,0.656844,-0.044273,-0.624996,-0.961301,-0.183471,0.278520,0.602829,0.459648,1.586510,5.886948,1.855979,-0.095712,0.062459,0.000000,0.055131,-0.024782,-0.000000
5.280000,2.114249,1.547605,-1.441105,0.309925,0.647261,-0.046085,-0.622132,-0.954978,-0.178781,0.294452,0.661576,0.477812,1.598526,5.860117,1.775672,-0.095132,0.062203,0.000000,0.060829,-0.026277,-0.000000
5.290000,2.117317,1.554029,-1.441575,0.303718,0.637744,-0.047849,-0.619107,-0.948070,-0.173914,0.310491,0.720031,0.495162,1.608345,5.828419,1.694227,-0.094495,0.061931,0.000000,0.066519,-0.027792,-0.000000
5.300000,2.120323,1.560359,-1.442062,0.297543,0.628300,-0.049563,-0.615922,-0.940578,-0.168878,0.326619,0.778145,0.511697,1.616189,5.791127,1.612151,-0.093802,0.061644,0.000000,0.072197,-0.029324,0.000000
5.310000,2.123268,1.566595,-1.442566,0.291400,0.618933,-0.051227,-0.612575,-0.932507,-0.163680,0.342815,0.835854,0.527405,1.621579,5.748164,1.528063,-0.093051,0.061342,0.000000,0.077858,-0.030873,0.000000
5.320000,2.126151,1.572738,-1.443087,0.285291,0.609650,-0.052837,-0.609065,-0.923861,-0.158330,0.359050,0.893108,0.542258,1.623929,5.701053,1.441328,-0.092245,0.061024,0.000000,0.083497,-0.032435,-0.000000
5.330000,2.128973,1.578788,-1.443623,0.279219,0.600456,-0.054393,-0.605394,-0.914645,-0.152835,0.375293,0.949875,0.556231,1.623406,5.649735,1.352648,-0.091381,0.060691,0.000000,0.089112,-0.034008,-0.000000
5.340000,2.131735,1.584747,-1.444174,0.273183,0.591357,-0.055894,-0.601560,-0.904863,-0.147205,0.391519,1.006103,0.569311,1.620758,5.591928,1.263256,-0.090462,0.060341,0.000000,0.094697,-0.035589,0.000000
5.350000,2.134437,1.590615,-1.444741,0.267187,0.582358,-0.057337,-0.597563,-0.894522,-0.141449,0.407708,1.061714,0.581496,1.615962,5.527051,1.173355,-0.089487,0.059976,0.000000,0.100246,-0.037177,0.000000
5.360000,2.137079,1.596394,-1.445321,0.261232,0.573466,-0.058723,-0.593405,-0.883629,-0.135575,0.423838,1.116644,0.592778,1.608551,5.456382,1.082429,-0.088457,0.059595,0.000000,0.105752,-0.038769,-0.000000
5.370000,2.139662,1.602085,-1.445915,0.255319,0.564686,-0.060049,-0.589087,-0.872190,-0.129593,0.439879,1.170841,0.603145,1.598664,5.380688,0.990717,-0.087372,0.059197,0.000000,0.111210,-0.040362,-0.000000
5.380000,2.142185,1.607688,-1.446522,0.249450,0.556022,-0.061315,-0.584608,-0.860212,-0.123512,0.455811,1.224257,0.612592,1.586507,5.299379,0.898713,-0.086233,0.058784,0.000000,0.116615,-0.041955,-0.000000
5.390000,2.144651,1.613205,-1.447141,0.243627,0.547481,-0.062519,-0.579970,-0.847704,-0.117342,0.471610,1.276829,0.621119,1.571860,5.211152,0.806470,-0.085040,0.058355,0.000000,0.121961,-0.043544,-0.000000
5.400000,2.147058,1.618638,-1.447772,0.237851,0.539068,-0.063661,-0.575176,-0.834676,-0.111090,0.487248,1.328480,0.628722,1.554529,5.115733,0.713814,-0.083794,0.057910,0.000000,0.127239,-0.045127,0.000000
5.410000,2.149408,1.623987,-1.448415,0.232124,0.530788,-0.064741,-0.570225,-0.821135,-0.104767,0.502700,1.379143,0.635395,1.534711,5.013734,0.621067,-0.082495,0.057449,0.000000,0.132443,-0.046702,0.000000
5.420000,2.151700,1.629253,-1.449067,0.226446,0.522646,-0.065757,-0.565122,-0.807093,-0.098382,0.517943,1.428755,0.641143,1.512833,4.905273,0.529388,-0.081145,0.056973,0.000000,0.137566,-0.048266,-0.000000
5.430000,2.153937,1.634440,-1.449730,0.220821,0.514646,-0.066708,-0.559867,-0.792560,-0.091944,0.532957,1.477249,0.645983,1.488841,4.789993,0.439041,-0.079744,0.056481,0.000000,0.142600,-0.049816,0.000000
5.440000,2.156117,1.639546,-1.450401,0.215249,0.506794,-0.067596,-0.554462,-0.777548,-0.085462,0.547719,1.524555,0.649924,1.462187,4.667404,0.348868,-0.078293,0.055973,0.000000,0.147538,-0.051351,0.000000
5.450000,2.158242,1.644575,-1.451082,0.209732,0.499095,-0.068418,-0.548912,-0.762069,-0.078946,0.562201,1.570597,0.652960,1.432834,4.536895,0.258357,-0.076793,0.055451,0.000000,0.152370,-0.052867,-0.000000
5.460000,2.160311,1.649528,-1.451770,0.204271,0.491553,-0.069175,-0.543218,-0.746136,-0.072403,0.576376,1.615293,0.655091,1.401162,4.398547,0.168643,-0.075245,0.054913,0.000000,0.157089,-0.054361,-0.000000
5.470000,2.162327,1.654406,-1.452465,0.198868,0.484172,-0.069866,-0.537385,-0.729763,-0.065844,0.590224,1.658568,0.656333,1.367186,4.253517,0.081650,-0.073651,0.054360,0.000000,0.161685,-0.055831,-0.000000
5.480000,2.164289,1.659212,-1.453167,0.193523,0.476958,-0.070491,-0.531414,-0.712964,-0.059277,0.603720,1.700363,0.656724,1.330793,4.101627,-0.002613,-0.072012,0.053793,0.000000,0.166152,-0.057273,-0.000000
5.490000,2.166198,1.663946,-1.453875,0.188239,0.469913,-0.071051,-0.525310,-0.695756,-0.052709,0.616840,1.740601,0.656281,1.291999,3.940882,-0.086334,-0.070328,0.053212,0.000000,0.170479,-0.058686,-0.000000
5.500000,2.168054,1.668610,-1.454588,0.183017,0.463043,-0.071546,-0.519077,-0.678152,-0.046151,0.629560,1.779181,0.654997,1.250661,3.770820,-0.170291,-0.068602,0.052617,0.000000,0.174656,-0.060066,-0.000000
5.510000,2.169858,1.673206,-1.455306,0.177858,0.456350,-0.071974,-0.512719,-0.660172,-0.039610,0.641853,1.816017,0.652875,1.206769,3.592524,-0.252685,-0.066835,0.052008,0.000000,0.178674,-0.061411,-0.000000
5.520000,2.171611,1.677737,-1.456028,0.172763,0.449839,-0.072338,-0.506240,-0.641832,-0.033093,0.653695,1.851031,0.649944,1.160839,3.406165,-0.331046,-0.065028,0.051386,0.000000,0.182521,-0.062716,0.000000
5.530000,2.173313,1.682203,-1.456753,0.167733,0.443513,-0.072636,-0.499645,-0.623151,-0.026611,0.665070,1.884140,0.646254,1.112924,3.211116,-0.405606,-0.063184,0.050751,0.000000,0.186189,-0.063981,0.000000
5.540000,2.174965,1.686607,-1.457480,0.162770,0.437376,-0.072870,-0.492939,-0.604149,-0.020168,0.675954,1.915254,0.641832,1.062220,3.006873,-0.479289,-0.061305,0.050104,0.000000,0.189666,-0.065202,-0.000000
5.550000,2.176568,1.690951,-1.458210,0.157874,0.431431,-0.073040,-0.486126,-0.584846,-0.013774,0.686314,1.944278,0.636669,1.008456,2.793262,-0.553074,-0.059391,0.049444,0.000000,0.192942,-0.066375,-0.000000
5.560000,2.178123,1.695236,-1.458941,0.153047,0.425679,-0.073145,-0.479212,-0.565264,-0.007435,0.696123,1.971119,0.630770,0.952256,2.570244,-0.624737,-0.057446,0.048774,0.000000,0.196006,-0.067498,-0.000000
5.570000,2.179629,1.699464,-1.459673,0.148290,0.420125,-0.073188,-0.472204,-0.545424,-0.001159,0.705359,1.995683,0.624174,0.894336,2.337620,-0.691466,-0.055471,0.048092,0.000000,0.198845,-0.068567,0.000000
5.580000,2.181089,1.703638,-1.460405,0.143603,0.414771,-0.073169,-0.465105,-0.525350,0.005048,0.714009,2.017871,0.616941,0.834561,2.095127,-0.753684,-0.053469,0.047400,0.000000,0.201449,-0.069580,0.000000
5.590000,2.182502,1.707760,-1.461136,0.138988,0.409618,-0.073087,-0.457923,-0.505066,0.011180,0.722050,2.037585,0.609100,0.771807,1.842701,-0.814822,-0.051442,0.046699,0.000000,0.203804,-0.070535,-0.000000
5.600000,2.183868,1.711831,-1.461867,0.134445,0.404669,-0.072945,-0.450664,-0.484598,0.017230,0.729446,2.054725,0.600644,0.705561,1.580250,-0.875876,-0.049393,0.045988,0.000000,0.205901,-0.071427,0.000000
5.610000,2.185190,1.715853,-1.462595,0.129975,0.399926,-0.072743,-0.443334,-0.463972,0.023193,0.736162,2.069190,0.591583,0.636655,1.307437,-0.934355,-0.047324,0.045268,0.000000,0.207726,-0.072252,0.000000
5.620000,2.186468,1.719829,-1.463322,0.125578,0.395390,-0.072481,-0.435941,-0.443215,0.029062,0.742179,2.080874,0.581957,0.566201,1.023935,-0.987522,-0.045238,0.044541,0.000000,0.209267,-0.073008,0.000000
5.630000,2.187702,1.723761,-1.464045,0.121256,0.391062,-0.072161,-0.428491,-0.422354,0.034832,0.747486,2.089669,0.571832,0.494018,0.729686,-1.035963,-0.043139,0.043807,0.000000,0.210511,-0.073693,-0.000000
5.640000,2.188893,1.727650,-1.464765,0.117008,0.386943,-0.071785,-0.420991,-0.401421,0.040499,0.752059,2.095468,0.561238,0.418590,0.424623,-1.083118,-0.041028,0.043066,0.000000,0.211446,-0.074304,0.000000
5.650000,2.190042,1.731500,-1.465481,0.112836,0.383034,-0.071351,-0.413450,-0.380445,0.046057,0.755857,2.098161,0.550170,0.338788,0.108249,-1.129918,-0.038910,0.042319,0.000000,0.212058,-0.074836,-0.000000
5.660000,2.191150,1.735311,-1.466192,0.108739,0.379334,-0.070863,-0.405874,-0.359458,0.051502,0.758835,2.097633,0.538640,0.255633,-0.219652,-1.173942,-0.036787,0.041568,0.000000,0.212334,-0.075284,-0.000000
5.670000,2.192217,1.739087,-1.466898,0.104718,0.375844,-0.070321,-0.398273,-0.338492,0.056830,0.760970,2.093768,0.526691,0.172094,-0.558486,-1.212764,-0.034663,0.040813,0.000000,0.212262,-0.075646,0.000000
5.680000,2.193244,1.742828,-1.467598,0.100774,0.372564,-0.069727,-0.390655,-0.317583,0.062036,0.762277,2.086463,0.514384,0.088009,-0.908559,-1.247032,-0.032542,0.040054,0.000000,0.211828,-0.075922,0.000000
5.690000,2.194232,1.746538,-1.468292,0.096905,0.369493,-0.069081,-0.383028,-0.296763,0.067117,0.762730,2.075597,0.501750,-0.000795,-1.271090,-1.279849,-0.030427,0.039293,0.000000,0.211019,-0.076108,-0.000000
5.700000,2.195182,1.750218,-1.468980,0.093113,0.366629,-0.068384,-0.375400,-0.276071,0.072071,0.762261,2.061041,0.488787,-0.095836,-1.645383,-1.311993,-0.028321,0.038531,0.000000,0.209820,-0.076199,-0.000000
5.710000,2.196095,1.753870,-1.469660,0.089397,0.363971,-0.067639,-0.367782,-0.255542,0.076893,0.760814,2.042689,0.475510,-0.194336,-2.031013,-1.341341,-0.026230,0.037769,0.000000,0.208220,-0.076186,-0.000000
5.720000,2.196970,1.757497,-1.470333,0.085758,0.361518,-0.066847,-0.360184,-0.235217,0.081581,0.758374,2.020421,0.461961,-0.293175,-2.431196,-1.366013,-0.024157,0.037007,0.000000,0.206204,-0.076070,-0.000000
