time,x,y,z,vx,vy,vz,ax,ay,az,jx,jy,jz,sx,sy,sz,roll,pitch,yaw,p,q,r
0.000000,-2.781310,-2.167609,-1.479341,-0.009453,0.001597,-0.003136,0.212152,-0.343613,-0.002315,-8.146558,8.340337,0.322514,230.630827,-95.185912,-14.919415,-0.034996,-0.021618,0.000000,0.846971,0.828632,-0.000000
0.010000,-2.781395,-2.167609,-1.479372,-0.007702,-0.001438,-0.003146,0.141602,-0.264691,0.000195,-6.023291,7.471179,0.182636,194.666230,-78.945361,-13.080220,-0.026973,-0.014434,0.000000,0.760229,0.613387,-0.000000
0.020000,-2.781466,-2.167635,-1.479404,-0.006556,-0.003724,-0.003137,0.090551,-0.193678,0.001396,-4.240690,6.755584,0.060439,162.464613,-64.458378,-11.382199,-0.019742,-0.009232,0.000000,0.688243,0.432166,0.000000
0.030000,-2.781527,-2.167681,-1.479435,-0.005837,-0.005333,-0.003122,0.055775,-0.129124,0.001458,-2.762120,6.176463,-0.045457,133.826874,-51.635956,-9.818985,-0.013163,-0.005686,0.000000,0.629623,0.281596,0.000000
0.040000,-2.781583,-2.167740,-1.479466,-0.005396,-0.006323,-0.003111,0.034411,-0.069747,0.000537,-1.552936,5.717613,-0.136368,108.553974,-40.389111,-8.384204,-0.007110,-0.003508,0.000000,0.582929,0.158353,-0.000000
0.050000,-2.781636,-2.167805,-1.479497,-0.005112,-0.006741,-0.003114,0.023928,-0.014422,-0.001223,-0.580490,5.363726,-0.213547,86.446476,-30.628688,-7.071413,-0.001470,-0.002439,0.000000,0.546722,0.059219,0.000000
0.060000,-2.781686,-2.167873,-1.479528,-0.004888,-0.006622,-0.003138,0.022114,0.037829,-0.003692,0.185881,5.100381,-0.278182,67.305609,-22.265831,-5.874340,0.003855,-0.002253,0.000000,0.519602,-0.018877,0.000000
0.070000,-2.781733,-2.167936,-1.479560,-0.004648,-0.005992,-0.003189,0.027054,0.087842,-0.006749,0.774846,4.914048,-0.331398,50.932122,-15.211465,-4.786578,0.008948,-0.002756,0.000000,0.500232,-0.078834,0.000000
0.080000,-2.781778,-2.167991,-1.479592,-0.004330,-0.004870,-0.003274,0.037109,0.136324,-0.010285,1.213084,4.792087,-0.374257,37.126861,-9.376575,-3.801760,0.013881,-0.003779,0.000000,0.487345,-0.123371,-0.000000
0.090000,-2.781820,-2.168032,-1.479626,-0.003893,-0.003269,-0.003396,0.050896,0.183859,-0.014203,1.525280,4.722748,-0.407755,25.690644,-4.672168,-2.913494,0.018712,-0.005181,0.000000,0.479760,-0.155011,0.000000
0.100000,-2.781856,-2.168055,-1.479660,-0.003304,-0.001195,-0.003559,0.067270,0.230918,-0.018412,1.734136,4.695171,-0.432826,16.424912,-1.009244,-2.115365,0.023490,-0.006844,0.000000,0.476377,-0.176083,0.000000
0.110000,-2.781885,-2.168054,-1.479697,-0.002542,0.001349,-0.003765,0.085303,0.277868,-0.022834,1.860351,4.699388,-0.450341,9.129844,1.701265,-1.401086,0.028251,-0.008675,0.000000,0.476189,-0.188711,0.000000
0.120000,-2.781906,-2.168026,-1.479736,-0.001595,0.004363,-0.004016,0.104264,0.324982,-0.027397,1.922639,4.726319,-0.461106,3.606600,3.548354,-0.764243,0.033021,-0.010598,0.000000,0.478279,-0.194817,0.000000
0.130000,-2.781916,-2.167966,-1.479778,-0.000456,0.007850,-0.004314,0.123599,0.372443,-0.032036,1.937725,4.767774,-0.465863,-0.343860,4.621061,-0.198457,0.037821,-0.012558,0.000000,0.481817,-0.196117,-0.000000
0.140000,-2.781914,-2.167868,-1.479822,0.000877,0.011814,-0.004657,0.142911,0.420361,-0.036696,1.920342,4.816456,-0.465291,-2.920435,5.008477,0.302671,0.042660,-0.014513,0.000000,0.486070,-0.194120,-0.000000
0.150000,-2.781898,-2.167728,-1.479871,0.002402,0.016259,-0.005047,0.161940,0.468775,-0.041326,1.883234,4.865957,-0.460004,-4.321756,4.799814,0.745585,0.047543,-0.016437,0.000000,0.490392,-0.190131,0.000000
0.160000,-2.781866,-2.167541,-1.479923,0.004115,0.021191,-0.005484,0.180546,0.517664,-0.045883,1.837118,4.910746,-0.450557,-4.750737,4.082678,1.136177,0.052466,-0.018317,0.000000,0.494230,-0.185243,-0.000000
0.170000,-2.781815,-2.167302,-1.479981,0.006011,0.026614,-0.005965,0.198682,0.566959,-0.050325,1.790792,4.946211,-0.437434,-4.401733,2.947838,1.481419,0.057424,-0.020147,0.000000,0.497123,-0.180351,0.000000
0.180000,-2.781745,-2.167007,-1.480043,0.008087,0.032531,-0.006490,0.216383,0.616545,-0.054620,1.751007,4.968605,-0.421059,-3.475663,1.483678,1.787479,0.062404,-0.021932,0.000000,0.498702,-0.176139,-0.000000
0.190000,-2.781653,-2.166650,-1.480111,0.010338,0.038945,-0.007056,0.233740,0.666278,-0.058737,1.722539,4.975083,-0.401793,-2.171707,-0.220760,2.060773,0.067393,-0.023680,0.000000,0.498687,-0.173090,0.000000
0.200000,-2.781538,-2.166226,-1.480184,0.012761,0.045856,-0.007664,0.250881,0.715987,-0.062648,1.708174,4.963683,-0.379934,-0.688520,-2.076711,2.307414,0.072372,-0.025406,0.000000,0.496891,-0.171482,0.000000
0.210000,-2.781397,-2.165731,-1.480264,0.015353,0.053265,-0.008309,0.267034,0.765783,-0.066294,1.498489,5.000770,-0.348051,-3.381191,-2.661922,2.685541,0.077354,-0.027031,0.000000,0.500104,-0.150212,0.000000
0.220000,-2.781230,-2.165159,-1.480350,0.018102,0.061170,-0.008989,0.283838,0.814995,-0.069709,1.988816,4.798586,-0.338989,64.691284,-25.990081,0.462746,0.082272,-0.028722,0.000000,0.478941,-0.199475,0.000000
0.230000,-2.781035,-2.164506,-1.480444,0.021046,0.069557,-0.009702,0.305011,0.862282,-0.073000,2.020549,4.728466,-0.310742,-59.505856,12.337437,5.225115,0.086987,-0.030852,0.000000,0.471343,-0.202514,-0.000000
0.240000,-2.780809,-2.163767,-1.480545,0.024187,0.078419,-0.010447,0.322258,0.910153,-0.075843,1.541848,4.806977,-0.261651,0.852166,-8.528177,3.237427,0.091759,-0.032586,0.000000,0.479034,-0.154286,0.000000
0.250000,-2.780550,-2.162936,-1.480653,0.027490,0.087758,-0.011218,0.338692,0.957459,-0.078330,1.722365,4.659127,-0.234586,-1.738010,-9.169862,3.519708,0.096470,-0.034238,0.000000,0.463686,-0.172361,-0.000000
0.260000,-2.780258,-2.162010,-1.480769,0.030963,0.097564,-0.012013,0.355805,1.003667,-0.080499,1.699236,4.583106,-0.199039,-2.081463,-10.060928,3.681123,0.101067,-0.035959,0.000000,0.455734,-0.169988,0.000000
0.270000,-2.779930,-2.160983,-1.480893,0.034605,0.107828,-0.012827,0.372731,1.048765,-0.082298,1.688143,4.420990,-0.160168,-0.922125,-18.433367,3.996082,0.105549,-0.037661,0.000000,0.439272,-0.168856,-0.000000
0.280000,-2.779565,-2.159852,-1.481026,0.038417,0.118534,-0.013657,0.389520,1.092243,-0.083703,1.664324,4.296931,-0.121151,-3.866059,-6.243429,3.799902,0.109868,-0.039350,0.000000,0.426703,-0.166469,0.000000
0.290000,-2.779162,-2.158611,-1.481166,0.042395,0.129670,-0.014500,0.405965,1.134882,-0.084723,1.626690,4.217131,-0.082380,-2.868355,-13.658272,4.043646,0.114101,-0.041005,0.000000,0.418620,-0.162717,-0.000000
0.300000,-2.778717,-2.157257,-1.481316,0.046535,0.141227,-0.015350,0.422105,1.176251,-0.085341,1.600264,4.057613,-0.041163,-3.203882,-14.289750,4.101739,0.118207,-0.042631,0.000000,0.402690,-0.160123,0.000000
0.310000,-2.778230,-2.155785,-1.481473,0.050836,0.153190,-0.016205,0.437966,1.216123,-0.085550,1.572150,3.916239,-0.000744,-3.367904,-14.983369,4.123627,0.122164,-0.044230,0.000000,0.388641,-0.157379,0.000000
0.320000,-2.777700,-2.154192,-1.481640,0.055293,0.165545,-0.017060,0.453466,1.254472,-0.085343,1.524246,3.748889,0.042581,-5.289662,-17.492358,4.393935,0.125970,-0.045794,0.000000,0.372140,-0.152691,-0.000000
0.330000,-2.777124,-2.152473,-1.481815,0.059903,0.178274,-0.017911,0.468489,1.291127,-0.084706,1.485742,3.587255,0.084043,-2.379337,-14.791335,3.889577,0.129610,-0.047312,0.000000,0.356265,-0.148961,0.000000
0.340000,-2.776501,-2.150625,-1.481998,0.064662,0.191362,-0.018753,0.483224,1.326251,-0.083671,1.458103,3.433444,0.123180,-4.074450,-16.950133,4.077872,0.133099,-0.048803,0.000000,0.341206,-0.146327,-0.000000
0.350000,-2.775830,-2.148645,-1.482190,0.069567,0.204794,-0.019583,0.497574,1.359703,-0.082233,1.412217,3.256903,0.164290,-4.174187,-17.358242,3.995727,0.136425,-0.050257,0.000000,0.324008,-0.141902,-0.000000
0.360000,-2.775109,-2.146528,-1.482390,0.074612,0.218551,-0.020396,0.511491,1.391400,-0.080396,1.371191,3.081892,0.202905,-4.285858,-17.748959,3.880281,0.139581,-0.051670,0.000000,0.306999,-0.137972,-0.000000
0.370000,-2.774338,-2.144273,-1.482597,0.079795,0.232616,-0.021189,0.524973,1.421320,-0.078166,1.324189,2.901072,0.243260,-4.861270,-18.291939,4.034358,0.142564,-0.053041,0.000000,0.289514,-0.133475,0.000000
0.380000,-2.773513,-2.141875,-1.482813,0.085110,0.246971,-0.021958,0.537984,1.449417,-0.075543,1.279280,2.718625,0.280316,-4.109640,-18.183812,3.368380,0.145370,-0.054368,0.000000,0.271887,-0.129189,-0.000000
0.390000,-2.772635,-2.139332,-1.483037,0.090553,0.261598,-0.022699,0.550570,1.475690,-0.072574,1.236991,2.535315,0.313637,-4.598153,-18.582050,3.446041,0.148001,-0.055654,0.000000,0.254177,-0.125161,-0.000000
0.400000,-2.771702,-2.136642,-1.483267,0.096120,0.276478,-0.023408,0.562702,1.500108,-0.069264,1.189522,2.348140,0.347867,-4.641373,-18.730607,3.242700,0.150453,-0.056896,0.000000,0.236156,-0.120637,-0.000000
0.410000,-2.770712,-2.133802,-1.483505,0.101806,0.291594,-0.024083,0.574365,1.522650,-0.065630,1.142943,2.160010,0.378588,-4.683783,-18.837864,3.016639,0.152724,-0.058094,0.000000,0.218035,-0.116197,0.000000
0.420000,-2.769665,-2.130810,-1.483749,0.107606,0.306925,-0.024720,0.585559,1.543310,-0.061691,1.095787,1.972005,0.409228,-4.733521,-18.802196,2.993973,0.154814,-0.059248,0.000000,0.199966,-0.111712,0.000000
0.430000,-2.768560,-2.127663,-1.483999,0.113515,0.322454,-0.025316,0.596280,1.562087,-0.057459,1.048563,1.783133,0.436008,-4.708587,-18.965552,2.355817,0.156723,-0.060356,0.000000,0.181786,-0.107208,-0.000000
0.440000,-2.767394,-2.124360,-1.484255,0.119530,0.338161,-0.025868,0.606530,1.578971,-0.052985,1.001426,1.593809,0.458617,-4.728266,-18.843941,2.279636,0.158449,-0.061418,0.000000,0.163523,-0.102697,0.000000
0.450000,-2.766169,-2.120899,-1.484516,0.125644,0.354027,-0.026375,0.616308,1.593969,-0.048287,0.954142,1.405995,0.480580,-4.715244,-18.759269,1.995289,0.159994,-0.062436,0.000000,0.145419,-0.098175,0.000000
0.460000,-2.764881,-2.117279,-1.484782,0.131854,0.370034,-0.026833,0.625614,1.607092,-0.043387,0.906946,1.218722,0.498818,-4.694090,-18.635485,1.702292,0.161358,-0.063407,0.000000,0.127323,-0.093643,-0.000000
0.470000,-2.763531,-2.113498,-1.485053,0.138155,0.386163,-0.027242,0.634450,1.618353,-0.038316,0.860554,1.033907,0.515071,-4.609560,-18.372577,1.497216,0.162541,-0.064333,0.000000,0.109445,-0.089184,0.000000
0.480000,-2.762118,-2.109555,-1.485327,0.144542,0.402395,-0.027599,0.642825,1.627774,-0.033098,0.814225,0.850312,0.527695,-4.655253,-18.341909,1.025195,0.163547,-0.065215,0.000000,0.091629,-0.084710,0.000000
0.490000,-2.760640,-2.105450,-1.485604,0.151010,0.418712,-0.027904,0.650735,1.635364,-0.027775,0.768028,0.668230,0.536570,-4.555277,-18.016708,0.799705,0.164374,-0.066050,0.000000,0.073898,-0.080225,0.000000
0.500000,-2.759097,-2.101181,-1.485885,0.157555,0.435096,-0.028155,0.658189,1.641151,-0.022373,0.722920,0.489649,0.543254,-4.491813,-17.746323,0.486842,0.165026,-0.066841,0.000000,0.056467,-0.075834,-0.000000
0.510000,-2.757489,-2.096748,-1.486167,0.164172,0.451529,-0.028351,0.665195,1.645164,-0.016921,0.678261,0.313487,0.546700,-4.419599,-17.445380,0.179871,0.165504,-0.067588,0.000000,0.039207,-0.071464,-0.000000
0.520000,-2.755814,-2.092150,-1.486452,0.170857,0.467993,-0.028493,0.671759,1.647434,-0.011451,0.634730,0.141165,0.546651,-4.303435,-17.048766,-0.167207,0.165811,-0.068291,0.000000,0.022251,-0.067181,-0.000000
0.530000,-2.754071,-2.087388,-1.486737,0.177606,0.484472,-0.028580,0.677891,1.647997,-0.005997,0.591834,-0.028121,0.543830,-4.275077,-16.805082,-0.395376,0.165950,-0.068950,0.000000,0.005528,-0.062938,0.000000
0.540000,-2.752261,-2.082461,-1.487023,0.184414,0.500948,-0.028613,0.683597,1.646882,-0.000583,0.549626,-0.194155,0.538320,-4.146911,-16.362928,-0.727631,0.165922,-0.069567,0.000000,-0.010942,-0.058740,0.000000
0.550000,-2.750383,-2.077369,-1.487309,0.191277,0.517404,-0.028592,0.688888,1.644130,0.004758,0.508758,-0.355596,0.529490,-4.043336,-15.956258,-1.014470,0.165732,-0.070142,0.000000,-0.027039,-0.054648,0.000000
0.560000,-2.748436,-2.072113,-1.487595,0.198190,0.533825,-0.028518,0.693776,1.639783,0.010000,0.468841,-0.513167,0.518427,-3.932442,-15.528743,-1.283102,0.165383,-0.070676,0.000000,-0.042817,-0.050628,-0.000000
0.570000,-2.746419,-2.066693,-1.487879,0.205151,0.550195,-0.028392,0.698270,1.633883,0.015111,0.430189,-0.665866,0.503069,-3.803172,-15.033045,-1.702253,0.164877,-0.071169,0.000000,-0.058213,-0.046699,0.000000
0.580000,-2.744333,-2.061109,-1.488162,0.212154,0.566498,-0.028216,0.702383,1.626480,0.020057,0.392664,-0.814297,0.486191,-3.701091,-14.651109,-1.668393,0.164220,-0.071623,0.000000,-0.073239,-0.042864,0.000000
0.590000,-2.742176,-2.055363,-1.488443,0.219197,0.582719,-0.027992,0.706127,1.617612,0.024831,0.356314,-0.958326,0.468049,-3.561822,-14.126724,-2.042451,0.163414,-0.072038,0.000000,-0.087879,-0.039130,0.000000
0.600000,-2.739948,-2.049455,-1.488722,0.226276,0.598845,-0.027721,0.709514,1.607331,0.029403,0.321391,-1.097000,0.446117,-3.428119,-13.631228,-2.256399,0.162463,-0.072416,0.000000,-0.102076,-0.035506,0.000000
0.610000,-2.737650,-2.043386,-1.488998,0.233386,0.614861,-0.027405,0.712559,1.595688,0.033751,0.287775,-1.230927,0.423243,-3.291351,-13.124332,-2.444313,0.161373,-0.072758,0.000000,-0.115844,-0.031998,0.000000
0.620000,-2.735281,-2.037158,-1.489270,0.240526,0.630755,-0.027046,0.715274,1.582732,0.037852,0.255569,-1.359183,0.396103,-3.149291,-12.553039,-2.855151,0.160148,-0.073065,0.000000,-0.129142,-0.028594,0.000000
0.630000,-2.732840,-2.030772,-1.489538,0.247691,0.646512,-0.026648,0.717675,1.568520,0.041674,0.224797,-1.482545,0.368835,-3.004634,-12.118807,-2.591270,0.158792,-0.073338,0.000000,-0.141977,-0.025326,0.000000
0.640000,-2.730327,-2.024229,-1.489803,0.254878,0.662121,-0.026214,0.719775,1.553098,0.045230,0.195490,-1.600969,0.341810,-2.856292,-11.536724,-2.936862,0.157310,-0.073578,0.000000,-0.154337,-0.022200,0.000000
0.650000,-2.727742,-2.017530,-1.490063,0.262085,0.677570,-0.025745,0.721590,1.536521,0.048496,0.167686,-1.713497,0.311242,-2.705031,-10.996451,-3.047033,0.155707,-0.073788,0.000000,-0.166184,-0.019194,-0.000000
0.660000,-2.725085,-2.010678,-1.490318,0.269309,0.692848,-0.025245,0.723134,1.518844,0.051458,0.141398,-1.820960,0.281073,-2.551999,-10.454739,-3.127796,0.153988,-0.073967,0.000000,-0.177534,-0.016338,-0.000000
0.670000,-2.722356,-2.003674,-1.490567,0.276547,0.707943,-0.024717,0.724423,1.500123,0.054104,0.116655,-1.922207,0.247429,-2.396565,-9.833925,-3.457126,0.152158,-0.074119,0.000000,-0.188329,-0.013606,-0.000000
0.680000,-2.719554,-1.996519,-1.490812,0.283797,0.722847,-0.024164,0.725472,1.480416,0.056412,0.093463,-2.018466,0.214949,-2.241823,-9.419008,-3.030818,0.150223,-0.074243,0.000000,-0.198615,-0.011034,-0.000000
0.690000,-2.716680,-1.989217,-1.491051,0.291056,0.737549,-0.023590,0.726297,1.459770,0.058409,0.071829,-2.109786,0.184048,-2.084554,-8.805143,-3.287197,0.148188,-0.074343,0.000000,-0.208391,-0.008628,-0.000000
0.700000,-2.713733,-1.981769,-1.491284,0.298322,0.752039,-0.022997,0.726914,1.438242,0.060081,0.051773,-2.194916,0.150474,-1.927253,-8.260801,-3.282069,0.146057,-0.074418,0.000000,-0.217590,-0.006357,-0.000000
0.710000,-2.710713,-1.974177,-1.491510,0.305594,0.766311,-0.022389,0.727338,1.415887,0.061425,0.033258,-2.275109,0.118468,-1.770745,-7.722903,-3.249118,0.143838,-0.074472,0.000000,-0.226271,-0.004250,0.000000
0.720000,-2.707621,-1.966444,-1.491731,0.312868,0.780355,-0.021769,0.727585,1.392762,0.062441,0.016403,-2.348876,0.084335,-1.605309,-7.085152,-3.444499,0.141534,-0.074505,0.000000,-0.234336,-0.002293,-0.000000
0.730000,-2.704456,-1.958571,-1.491946,0.320145,0.794164,-0.021141,0.727671,1.368925,0.063120,0.001046,-2.417963,0.052367,-1.466429,-6.734997,-2.941673,0.139153,-0.074519,0.000000,-0.241895,-0.000501,-0.000000
0.740000,-2.701218,-1.950561,-1.492154,0.327421,0.807731,-0.020508,0.727611,1.344417,0.063498,-0.012831,-2.482506,0.022948,-1.304156,-6.120200,-3.069653,0.136698,-0.074515,0.000000,-0.248954,0.001124,0.000000
0.750000,-2.697908,-1.942417,-1.492356,0.334696,0.821050,-0.019872,0.727420,1.319297,0.063572,-0.025089,-2.540855,-0.007849,-1.152412,-5.605285,-2.956404,0.134176,-0.074496,0.000000,-0.255401,0.002596,0.000000
0.760000,-2.694524,-1.934141,-1.492552,0.341969,0.834115,-0.019238,0.727113,1.293615,0.063350,-0.035924,-2.594721,-0.036249,-1.003616,-5.102931,-2.821843,0.131591,-0.074463,0.000000,-0.261354,0.003907,-0.000000
0.770000,-2.691068,-1.925736,-1.492741,0.349238,0.846920,-0.018606,0.726707,1.267424,0.062844,-0.045065,-2.642333,-0.065160,-0.836116,-4.485679,-2.859311,0.128951,-0.074418,0.000000,-0.266671,0.005051,0.000000
0.780000,-2.687539,-1.917204,-1.492924,0.356503,0.859462,-0.017982,0.726216,1.240781,0.062057,-0.052888,-2.685824,-0.091316,-0.729304,-4.216404,-2.366203,0.126259,-0.074362,0.000000,-0.271522,0.006041,0.000000
0.790000,-2.683938,-1.908547,-1.493100,0.363762,0.871735,-0.017366,0.725654,1.213720,0.061028,-0.059439,-2.725392,-0.114423,-0.570346,-3.633853,-2.352004,0.123522,-0.074297,0.000000,-0.275926,0.006879,-0.000000
0.800000,-2.680264,-1.899770,-1.493271,0.371016,0.883735,-0.016762,0.725033,1.186294,0.059767,-0.064402,-2.759098,-0.137466,-0.433919,-3.173954,-2.155490,0.120743,-0.074224,0.000000,-0.279722,0.007556,0.000000
0.810000,-2.676518,-1.890874,-1.493436,0.378263,0.895459,-0.016171,0.724369,1.158550,0.058289,-0.068145,-2.788953,-0.157703,-0.302248,-2.730006,-1.946531,0.117929,-0.074145,0.000000,-0.283081,0.008088,0.000000
0.820000,-2.672699,-1.881862,-1.493595,0.385503,0.906905,-0.015597,0.723676,1.130535,0.056616,-0.070340,-2.813104,-0.176879,-0.150328,-2.169559,-1.832060,0.115084,-0.074062,0.000000,-0.285837,0.008454,-0.000000
0.830000,-2.668808,-1.872736,-1.493748,0.392736,0.918069,-0.015040,0.722966,1.102299,0.054762,-0.071434,-2.833802,-0.193161,-0.069582,-1.974393,-1.421150,0.112213,-0.073975,0.000000,-0.288194,0.008687,-0.000000
0.840000,-2.664844,-1.863501,-1.493895,0.399963,0.928950,-0.014502,0.722250,1.073869,0.052763,-0.071490,-2.851278,-0.206383,0.070488,-1.455282,-1.277333,0.109321,-0.073887,0.000000,-0.290179,0.008791,-0.000000
0.850000,-2.660809,-1.854158,-1.494038,0.407182,0.939546,-0.013985,0.721541,1.045292,0.050638,-0.070149,-2.863532,-0.218214,0.184071,-1.065538,-1.032587,0.106412,-0.073799,0.000000,-0.291607,0.008743,0.000000
0.860000,-2.656701,-1.844711,-1.494175,0.414393,0.949856,-0.013489,0.720850,1.016608,0.048408,-0.067932,-2.872625,-0.227278,0.288064,-0.693520,-0.786475,0.103490,-0.073712,0.000000,-0.292674,0.008585,0.000000
0.870000,-2.652521,-1.835162,-1.494308,0.421599,0.959878,-0.013017,0.720188,0.987857,0.046100,-0.064174,-2.876895,-0.234013,0.436967,-0.222186,-0.551830,0.100560,-0.073627,0.000000,-0.293219,0.008253,-0.000000
0.880000,-2.648269,-1.825515,-1.494436,0.428797,0.969613,-0.012568,0.719568,0.959079,0.043737,-0.059750,-2.878359,-0.238136,0.446140,-0.074874,-0.272299,0.097627,-0.073546,0.000000,-0.293445,0.007834,0.000000
0.890000,-2.643945,-1.815771,-1.494559,0.435990,0.979060,-0.012142,0.718995,0.930298,0.041346,-0.054753,-2.877248,-0.239622,0.577991,0.354007,-0.033243,0.094692,-0.073470,0.000000,-0.293376,0.007337,0.000000
0.900000,-2.639549,-1.805934,-1.494679,0.443177,0.988219,-0.011741,0.718478,0.901550,0.038952,-0.048429,-2.871833,-0.238737,0.659941,0.666841,0.218614,0.091761,-0.073399,0.000000,-0.292844,0.006688,-0.000000
0.910000,-2.635081,-1.796008,-1.494794,0.450360,0.997091,-0.011363,0.718028,0.872869,0.036579,-0.041519,-2.863905,-0.235497,0.735667,0.962922,0.463716,0.088836,-0.073336,0.000000,-0.292032,0.005962,0.000000
0.920000,-2.630542,-1.785993,-1.494906,0.457538,1.005677,-0.011009,0.717652,0.844285,0.034253,-0.033602,-2.852194,-0.229155,0.832456,1.331322,0.770088,0.085921,-0.073280,0.000000,-0.290808,0.005112,-0.000000
0.930000,-2.625930,-1.775895,-1.495014,0.464713,1.013977,-0.010678,0.717357,0.815832,0.032002,-0.025190,-2.838281,-0.220823,0.848514,1.447314,0.894272,0.083021,-0.073233,0.000000,-0.289344,0.004196,-0.000000
0.940000,-2.621247,-1.765715,-1.495119,0.471886,1.021994,-0.010369,0.717149,0.787526,0.029843,-0.016366,-2.822380,-0.210607,0.929445,1.776397,1.181720,0.080135,-0.073196,0.000000,-0.287665,0.003225,0.000000
0.950000,-2.616493,-1.755456,-1.495222,0.479057,1.029728,-0.010081,0.717033,0.759396,0.027800,-0.006743,-2.803190,-0.197504,0.979627,2.013245,1.403384,0.077269,-0.073169,0.000000,-0.285632,0.002151,-0.000000
0.960000,-2.611666,-1.745121,-1.495321,0.486227,1.037182,-0.009812,0.717015,0.731468,0.025897,0.003218,-2.782074,-0.182763,1.022812,2.235341,1.610503,0.074423,-0.073153,0.000000,-0.283398,0.001032,-0.000000
0.970000,-2.606768,-1.734713,-1.495418,0.493397,1.044358,-0.009562,0.717100,0.703764,0.024157,0.013795,-2.758274,-0.164709,1.080452,2.495300,1.933104,0.071602,-0.073149,0.000000,-0.280873,-0.000175,-0.000000
0.980000,-2.601798,-1.724235,-1.495512,0.500569,1.051259,-0.009328,0.717292,0.676308,0.022607,0.024575,-2.732783,-0.145509,1.074219,2.599907,1.902883,0.068806,-0.073157,0.000000,-0.278178,-0.001410,-0.000000
0.990000,-2.596757,-1.713689,-1.495605,0.507743,1.057885,-0.009109,0.717592,0.649113,0.021250,0.035478,-2.705775,-0.125372,1.116304,2.826707,2.188393,0.066039,-0.073177,0.000000,-0.275333,-0.002665,0.000000
1.000000,-2.591644,-1.703078,-1.495695,0.514921,1.064242,-0.008903,0.718003,0.622200,0.020110,0.046785,-2.676527,-0.102348,1.132949,2.993723,2.348590,0.063300,-0.073210,0.000000,-0.272252,-0.003983,0.000000
1.010000,-2.586458,-1.692405,-1.495783,0.522104,1.070330,-0.008706,0.718527,0.595587,0.019204,0.058062,-2.645849,-0.078576,1.141434,3.148546,2.489404,0.060594,-0.073257,0.000000,-0.269034,-0.005303,0.000000
1.020000,-2.581201,-1.681672,-1.495869,0.529292,1.076155,-0.008518,0.719166,0.569289,0.018550,0.069776,-2.613517,-0.051819,1.180865,3.307177,2.776032,0.057920,-0.073317,0.000000,-0.265643,-0.006690,-0.000000
1.030000,-2.575873,-1.670883,-1.495953,0.536487,1.081717,-0.008334,0.719922,0.543321,0.018168,0.081249,-2.579926,-0.024857,1.111934,3.408637,2.611136,0.055281,-0.073391,0.000000,-0.262139,-0.008055,-0.000000
1.040000,-2.570472,-1.660039,-1.496036,0.543691,1.087022,-0.008154,0.720789,0.517694,0.018052,0.092388,-2.545211,0.002037,1.134541,3.541190,2.849291,0.052678,-0.073478,0.000000,-0.258534,-0.009386,-0.000000
1.050000,-2.564999,-1.649143,-1.496116,0.550904,1.092072,-0.007972,0.721770,0.492421,0.018218,0.103746,-2.509218,0.031354,1.117071,3.647159,2.927830,0.050111,-0.073579,0.000000,-0.254802,-0.010759,-0.000000
1.060000,-2.559454,-1.638198,-1.496195,0.558127,1.096872,-0.007788,0.722863,0.467513,0.018677,0.114772,-2.472244,0.060479,1.094090,3.742799,2.985005,0.047582,-0.073693,0.000000,-0.250987,-0.012098,-0.000000
1.070000,-2.553836,-1.627207,-1.496272,0.565361,1.101424,-0.007598,0.724065,0.442979,0.019437,0.125672,-2.434426,0.091832,1.078167,3.821819,3.194780,0.045092,-0.073821,0.000000,-0.247092,-0.013442,0.000000
1.080000,-2.548146,-1.616171,-1.496347,0.572608,1.105733,-0.007398,0.725375,0.418827,0.020511,0.136172,-2.395782,0.122468,1.020526,3.905354,2.926791,0.042641,-0.073962,0.000000,-0.243131,-0.014743,-0.000000
1.090000,-2.542384,-1.605093,-1.496420,0.579869,1.109802,-0.007187,0.726787,0.395066,0.021882,0.146202,-2.356413,0.152092,0.991347,3.963870,3.083975,0.040229,-0.074116,0.000000,-0.239116,-0.015989,0.000000
1.100000,-2.536549,-1.593975,-1.496491,0.587144,1.113635,-0.006960,0.728298,0.371701,0.023560,0.155923,-2.316511,0.183334,0.944853,4.017486,3.073108,0.037858,-0.074282,0.000000,-0.235055,-0.017219,0.000000
1.110000,-2.530641,-1.582821,-1.496559,0.594435,1.117237,-0.006714,0.729904,0.348738,0.025544,0.165075,-2.276059,0.213506,0.892330,4.062120,3.041511,0.035528,-0.074460,0.000000,-0.230957,-0.018385,-0.000000
1.120000,-2.524660,-1.571631,-1.496625,0.601743,1.120611,-0.006448,0.731599,0.326180,0.027835,0.173821,-2.235384,0.244874,0.848491,4.080215,3.148549,0.033239,-0.074650,0.000000,-0.226845,-0.019521,-0.000000
1.130000,-2.518606,-1.560409,-1.496688,0.609068,1.123762,-0.006157,0.733378,0.304031,0.030436,0.181874,-2.194299,0.274727,0.761137,4.135540,2.816759,0.030991,-0.074851,0.000000,-0.222711,-0.020578,-0.000000
1.140000,-2.512479,-1.549157,-1.496748,0.616411,1.126693,-0.005838,0.735233,0.282296,0.033323,0.189175,-2.152883,0.302788,0.705512,4.137269,2.874361,0.028785,-0.075062,0.000000,-0.218560,-0.021548,-0.000000
1.150000,-2.506278,-1.537876,-1.496805,0.623773,1.129409,-0.005489,0.737160,0.260974,0.036495,0.195904,-2.111501,0.331467,0.632324,4.146027,2.777871,0.026620,-0.075282,0.000000,-0.214422,-0.022467,0.000000
1.160000,-2.500003,-1.526569,-1.496858,0.631154,1.131914,-0.005107,0.739149,0.240066,0.039946,0.201807,-2.069989,0.358358,0.554198,4.146577,2.663986,0.024497,-0.075511,0.000000,-0.210285,-0.023290,-0.000000
1.170000,-2.493655,-1.515239,-1.496907,0.638556,1.134212,-0.004690,0.741194,0.219573,0.043664,0.207035,-2.028675,0.385308,0.484122,4.123156,2.659379,0.022414,-0.075747,0.000000,-0.206178,-0.024048,0.000000
1.180000,-2.487232,-1.503886,-1.496951,0.645978,1.136307,-0.004233,0.743286,0.199493,0.047644,0.211337,-1.987379,0.410148,0.375508,4.134977,2.304392,0.020373,-0.075991,0.000000,-0.202087,-0.024699,-0.000000
1.190000,-2.480735,-1.492513,-1.496991,0.653422,1.138203,-0.003736,0.745417,0.179825,0.051858,0.214663,-1.946168,0.432653,0.295591,4.097787,2.259269,0.018373,-0.076241,0.000000,-0.198015,-0.025234,-0.000000
1.200000,-2.474163,-1.481122,-1.497026,0.660887,1.139905,-0.003195,0.747577,0.160568,0.056297,0.217180,-1.905377,0.454740,0.200663,4.067355,2.091468,0.016413,-0.076496,0.000000,-0.193993,-0.025685,0.000000
1.210000,-2.467517,-1.469716,-1.497055,0.668373,1.141416,-0.002609,0.749757,0.141717,0.060945,0.218662,-1.864874,0.474551,0.101615,4.029429,1.911692,0.014493,-0.076755,0.000000,-0.190008,-0.026016,-0.000000
1.220000,-2.460796,-1.458295,-1.497078,0.675882,1.142741,-0.001976,0.751947,0.123269,0.065785,0.219264,-1.824838,0.493339,0.011718,3.979333,1.802054,0.012612,-0.077016,0.000000,-0.186076,-0.026251,0.000000
1.230000,-2.453999,-1.446861,-1.497094,0.683412,1.143883,-0.001293,0.754139,0.105218,0.070803,0.218748,-1.785252,0.509676,-0.115559,3.936818,1.462545,0.010771,-0.077279,0.000000,-0.182196,-0.026353,0.000000
1.240000,-2.447128,-1.435418,-1.497103,0.690964,1.144846,-0.000559,0.756318,0.087562,0.075970,0.217076,-1.746179,0.523412,-0.212869,3.874030,1.325737,0.008968,-0.077543,0.000000,-0.178372,-0.026319,-0.000000
1.250000,-2.440180,-1.423965,-1.497105,0.698538,1.145635,0.000227,0.758477,0.070293,0.081268,0.214419,-1.707769,0.535799,-0.324640,3.809644,1.108600,0.007203,-0.077805,0.000000,-0.174617,-0.026174,0.000000
1.260000,-2.433157,-1.412506,-1.497099,0.706134,1.146253,0.001067,0.760603,0.053404,0.086677,0.210566,-1.670056,0.545685,-0.439015,3.738302,0.885558,0.005476,-0.078066,0.000000,-0.170933,-0.025887,-0.000000
1.270000,-2.426057,-1.401041,-1.497084,0.713750,1.146705,0.001961,0.762685,0.036890,0.092175,0.205700,-1.632965,0.553655,-0.541761,3.672849,0.690104,0.003784,-0.078323,0.000000,-0.167313,-0.025482,-0.000000
1.280000,-2.418882,-1.389572,-1.497059,0.721387,1.146992,0.002910,0.764712,0.020742,0.097742,0.199573,-1.596745,0.559107,-0.684029,3.569957,0.399158,0.002129,-0.078575,0.000000,-0.163779,-0.024927,0.000000
1.290000,-2.411630,-1.378101,-1.497025,0.729044,1.147121,0.003916,0.766672,0.004951,0.103349,0.192159,-1.561461,0.561976,-0.791778,3.492226,0.191624,0.000509,-0.078821,0.000000,-0.160337,-0.024218,-0.000000
1.300000,-2.404301,-1.366630,-1.496981,0.736721,1.147093,0.004977,0.768552,-0.010490,0.108975,0.183666,-1.526968,0.562783,-0.913624,3.399158,-0.048253,-0.001078,-0.079059,0.000000,-0.156971,-0.023382,0.000000
1.310000,-2.396895,-1.355160,-1.496926,0.744415,1.146912,0.006095,0.770341,-0.025591,0.114596,0.173886,-1.493515,0.561136,-1.036552,3.300478,-0.287878,-0.002631,-0.079288,0.000000,-0.153706,-0.022392,0.000000
1.320000,-2.389412,-1.343692,-1.496859,0.752127,1.146582,0.007269,0.772026,-0.040363,0.120189,0.162987,-1.460883,0.556961,-1.149100,3.215601,-0.540663,-0.004152,-0.079506,0.000000,-0.150518,-0.021265,0.000000
1.330000,-2.381852,-1.332229,-1.496780,0.759855,1.146106,0.008499,0.773596,-0.054813,0.125728,0.150780,-1.429417,0.550462,-1.292587,3.076683,-0.758846,-0.005642,-0.079712,0.000000,-0.147440,-0.019982,0.000000
1.340000,-2.374215,-1.320771,-1.496689,0.767599,1.145487,0.009783,0.775037,-0.068955,0.131190,0.137252,-1.399170,0.541657,-1.407165,2.981618,-1.008451,-0.007102,-0.079905,0.000000,-0.144479,-0.018543,-0.000000
1.350000,-2.366500,-1.309320,-1.496584,0.775356,1.144728,0.011122,0.776338,-0.082800,0.136553,0.122591,-1.369878,0.530361,-1.531247,2.866703,-1.244071,-0.008532,-0.080083,0.000000,-0.141604,-0.016963,0.000000
1.360000,-2.358708,-1.297877,-1.496466,0.783125,1.143832,0.012514,0.777485,-0.096357,0.141791,0.106655,-1.341868,0.516909,-1.654825,2.747602,-1.473693,-0.009934,-0.080244,0.000000,-0.138850,-0.015232,-0.000000
1.370000,-2.350838,-1.286443,-1.496334,0.790905,1.142801,0.013958,0.778467,-0.109640,0.146881,0.089507,-1.314816,0.500644,-1.775663,2.649853,-1.751281,-0.011309,-0.080387,0.000000,-0.136182,-0.013349,0.000000
1.380000,-2.342890,-1.275021,-1.496187,0.798694,1.141640,0.015451,0.779271,-0.122658,0.151797,0.071124,-1.289145,0.482471,-1.900779,2.483522,-1.881464,-0.012658,-0.080510,0.000000,-0.133644,-0.011320,0.000000
1.390000,-2.334864,-1.263611,-1.496024,0.806489,1.140349,0.016993,0.779885,-0.135428,0.156524,0.051517,-1.264897,0.462485,-2.019206,2.378372,-2.142198,-0.013982,-0.080613,0.000000,-0.131239,-0.009147,-0.000000
1.400000,-2.326760,-1.252214,-1.495847,0.814291,1.138932,0.018581,0.780297,-0.147959,0.161038,0.030732,-1.241693,0.439890,-2.138103,2.249673,-2.348858,-0.015283,-0.080693,0.000000,-0.128926,-0.006826,0.000000
1.410000,-2.318578,-1.240833,-1.495653,0.822095,1.137391,0.020213,0.780496,-0.160266,0.165317,0.008751,-1.219917,0.415633,-2.254988,2.118888,-2.544870,-0.016561,-0.080749,0.000000,-0.126747,-0.004366,0.000000
1.420000,-2.310318,-1.229467,-1.495442,0.829900,1.135727,0.021886,0.780469,-0.172361,0.169341,-0.014335,-1.199195,0.388619,-2.364343,2.012323,-2.813961,-0.017818,-0.080780,0.000000,-0.124660,-0.001765,-0.000000
1.430000,-2.301980,-1.218119,-1.495215,0.837703,1.133944,0.023599,0.780205,-0.184255,0.173085,-0.038583,-1.179948,0.360274,-2.485014,1.836580,-2.852247,-0.019055,-0.080784,0.000000,-0.122710,0.000970,0.000000
1.440000,-2.293564,-1.206789,-1.494970,0.845503,1.132043,0.025347,0.779693,-0.195965,0.176543,-0.063970,-1.162199,0.330750,-2.589091,1.726477,-3.093513,-0.020273,-0.080760,0.000000,-0.120901,0.003836,0.000000
1.450000,-2.285070,-1.195478,-1.494708,0.853296,1.130025,0.027129,0.778922,-0.207503,0.179692,-0.090376,-1.145530,0.298802,-2.694170,1.594081,-3.251744,-0.021473,-0.080707,0.000000,-0.119187,0.006829,0.000000
1.460000,-2.276498,-1.184188,-1.494427,0.861081,1.127893,0.028940,0.777882,-0.218880,0.182516,-0.117849,-1.130267,0.265814,-2.796609,1.463192,-3.395942,-0.022657,-0.080623,0.000000,-0.117602,0.009943,-0.000000
1.470000,-2.267849,-1.172921,-1.494129,0.868853,1.125648,0.030778,0.776562,-0.230112,0.184999,-0.146288,-1.116213,0.230441,-2.891855,1.342868,-3.626075,-0.023826,-0.080507,0.000000,-0.116124,0.013178,-0.000000
1.480000,-2.259121,-1.161676,-1.493812,0.876611,1.123292,0.032639,0.774953,-0.241209,0.187123,-0.175700,-1.103509,0.194394,-2.989683,1.198087,-3.579727,-0.024980,-0.080359,0.000000,-0.114772,0.016519,-0.000000
1.490000,-2.250316,-1.150455,-1.493476,0.884351,1.120824,0.034519,0.773045,-0.252187,0.188886,-0.206040,-1.092142,0.157865,-3.076254,1.080660,-3.775184,-0.026122,-0.080177,0.000000,-0.113544,0.019961,-0.000000
1.500000,-2.241434,-1.139260,-1.493121,0.892071,1.118248,0.036415,0.770830,-0.263056,0.190272,-0.237216,-1.081933,0.119363,-3.159829,0.956999,-3.871703,-0.027251,-0.079959,0.000000,-0.112417,0.023505,-0.000000
1.510000,-2.232475,-1.128091,-1.492748,0.899767,1.115564,0.038323,0.768298,-0.273829,0.191272,-0.269114,-1.072941,0.080498,-3.236175,0.837421,-3.952541,-0.028370,-0.079706,0.000000,-0.111402,0.027126,0.000000
1.520000,-2.223439,-1.116949,-1.492355,0.907436,1.112772,0.040239,0.765443,-0.284519,0.191876,-0.302082,-1.065216,0.039865,-3.339546,0.712742,-4.120094,-0.029480,-0.079416,0.000000,-0.110500,0.030869,-0.000000
1.530000,-2.214327,-1.105836,-1.491943,0.915074,1.109874,0.042159,0.762255,-0.295137,0.192070,-0.335530,-1.058579,-0.000773,-3.348470,0.615482,-4.003692,-0.030581,-0.079088,0.000000,-0.109698,0.034658,0.000000
1.540000,-2.205138,-1.094752,-1.491512,0.922680,1.106869,0.044079,0.758732,-0.305694,0.191861,-0.369373,-1.052982,-0.041212,-3.436358,0.500106,-4.134078,-0.031674,-0.078722,0.000000,-0.108991,0.038483,0.000000
1.550000,-2.195873,-1.083698,-1.491061,0.930248,1.103760,0.045995,0.754865,-0.316201,0.191240,-0.404088,-1.048521,-0.082969,-3.488777,0.397359,-4.162791,-0.032761,-0.078318,0.000000,-0.108384,0.042403,0.000000
1.560000,-2.186533,-1.072677,-1.490592,0.937776,1.100545,0.047903,0.750649,-0.326667,0.190203,-0.439142,-1.044960,-0.124434,-3.534284,0.301189,-4.176059,-0.033842,-0.077874,0.000000,-0.107858,0.046350,-0.000000
1.570000,-2.177118,-1.061688,-1.490103,0.945260,1.097227,0.049798,0.746079,-0.337104,0.188748,-0.474875,-1.042612,-0.166889,-3.598220,0.183570,-4.266156,-0.034918,-0.077390,0.000000,-0.107441,0.050368,-0.000000
1.580000,-2.167628,-1.050733,-1.489596,0.952696,1.093803,0.051676,0.741151,-0.347522,0.186868,-0.510808,-1.040973,-0.208733,-3.586730,0.145713,-4.098867,-0.035991,-0.076866,0.000000,-0.107086,0.054394,-0.000000
1.590000,-2.158064,-1.039812,-1.489070,0.960081,1.090276,0.053534,0.735863,-0.357926,0.184576,-0.546851,-1.039961,-0.249769,-3.633762,0.043518,-4.153502,-0.037060,-0.076302,0.000000,-0.106786,0.058415,0.000000
1.600000,-2.148426,-1.028927,-1.488525,0.967412,1.086645,0.055366,0.730212,-0.368325,0.181870,-0.583350,-1.039960,-0.291357,-3.651354,-0.027813,-4.115245,-0.038127,-0.075697,0.000000,-0.106575,0.062478,-0.000000
1.610000,-2.138716,-1.018080,-1.487963,0.974684,1.082910,0.057170,0.724196,-0.378726,0.178752,-0.619865,-1.040439,-0.332071,-3.661006,-0.090265,-4.063453,-0.039192,-0.075051,0.000000,-0.106404,0.066525,-0.000000
1.620000,-2.128933,-1.007270,-1.487382,0.981895,1.079070,0.058940,0.717814,-0.389137,0.175227,-0.656642,-1.041957,-0.372936,-3.682775,-0.189365,-4.070678,-0.040255,-0.074365,0.000000,-0.106327,0.070588,0.000000
1.630000,-2.119078,-0.996499,-1.486784,0.989040,1.075127,0.060673,0.711064,-0.399566,0.171298,-0.693280,-1.043720,-0.412670,-3.643315,-0.161201,-3.873017,-0.041318,-0.073638,0.000000,-0.106267,0.074615,-0.000000
1.640000,-2.109152,-0.985767,-1.486169,0.996115,1.071079,0.062365,0.703949,-0.410012,0.166979,-0.729689,-1.045618,-0.451105,-3.647435,-0.240077,-3.849521,-0.042381,-0.072872,0.000000,-0.106214,0.078595,-0.000000
1.650000,-2.099156,-0.975077,-1.485537,1.003117,1.066927,0.064011,0.696470,-0.420481,0.162276,-0.766115,-1.048297,-0.489306,-3.626071,-0.271479,-3.751673,-0.043443,-0.072065,0.000000,-0.106229,0.082562,-0.000000
1.660000,-2.089090,-0.964429,-1.484889,1.010043,1.062669,0.065609,0.688628,-0.430978,0.157197,-0.802121,-1.050969,-0.526161,-3.594991,-0.292665,-3.642887,-0.044505,-0.071219,0.000000,-0.106238,0.086460,-0.000000
1.670000,-2.078956,-0.953824,-1.484225,1.016889,1.058307,0.067154,0.680427,-0.441504,0.151754,-0.838182,-1.054407,-0.562361,-3.595252,-0.363286,-3.571006,-0.045568,-0.070334,0.000000,-0.106316,0.090343,-0.000000
1.680000,-2.068753,-0.943263,-1.483546,1.023650,1.053839,0.068643,0.671867,-0.452065,0.145955,-0.873570,-1.057576,-0.597037,-3.480470,-0.268114,-3.361816,-0.046632,-0.069411,0.000000,-0.106362,0.094131,0.000000
1.690000,-2.058483,-0.932748,-1.482852,1.030325,1.049266,0.070072,0.662958,-0.462654,0.139819,-0.908178,-1.060348,-0.630060,-3.460506,-0.315201,-3.266018,-0.047695,-0.068450,0.000000,-0.106363,0.097811,-0.000000
1.700000,-2.048147,-0.922279,-1.482145,1.036908,1.044586,0.071438,0.653704,-0.473274,0.133357,-0.942579,-1.063592,-0.662118,-3.397804,-0.301891,-3.119568,-0.048759,-0.067452,0.000000,-0.106406,0.101446,-0.000000
1.710000,-2.037745,-0.911857,-1.481424,1.043398,1.039800,0.072738,0.644110,-0.483924,0.126582,-0.976101,-1.066340,-0.692502,-3.324935,-0.278845,-2.966325,-0.049823,-0.066419,0.000000,-0.106395,0.104963,0.000000
1.720000,-2.027279,-0.901483,-1.480690,1.049790,1.034907,0.073969,0.634183,-0.494602,0.119511,-1.009204,-1.069456,-0.721535,-3.277356,-0.310057,-2.827363,-0.050887,-0.065351,0.000000,-0.106419,0.108411,-0.000000
1.730000,-2.016750,-0.891159,-1.479945,1.056080,1.029908,0.075127,0.623929,-0.505310,0.112158,-1.041269,-1.071821,-0.748782,-3.133786,-0.160416,-2.620625,-0.051951,-0.064248,0.000000,-0.106365,0.111725,0.000000
1.740000,-2.006158,-0.880885,-1.479188,1.062267,1.024801,0.076211,0.613361,-0.516036,0.104542,-1.072194,-1.073302,-0.774161,-3.066951,-0.167640,-2.465854,-0.053014,-0.063114,0.000000,-0.106221,0.114893,0.000000
1.750000,-1.995505,-0.870663,-1.478421,1.068347,1.019587,0.077217,0.602487,-0.526777,0.096680,-1.102437,-1.074865,-0.797982,-2.963461,-0.110268,-2.285559,-0.054076,-0.061948,0.000000,-0.106086,0.117966,0.000000
1.760000,-1.984791,-0.860494,-1.477644,1.074316,1.014266,0.078144,0.591317,-0.537529,0.088589,-1.131440,-1.075473,-0.819915,-2.851676,-0.043011,-2.100635,-0.055135,-0.060751,0.000000,-0.105854,0.120885,-0.000000
1.770000,-1.974019,-0.850378,-1.476858,1.080172,1.008836,0.078989,0.579861,-0.548287,0.080287,-1.159590,-1.076003,-0.839984,-2.761865,-0.029467,-1.911965,-0.056193,-0.059527,0.000000,-0.105618,0.123690,0.000000
1.780000,-1.963188,-0.840317,-1.476064,1.085912,1.003300,0.079749,0.568130,-0.559045,0.071795,-1.186331,-1.075364,-0.858131,-2.584546,0.159406,-1.716738,-0.057247,-0.058274,0.000000,-0.105267,0.126325,-0.000000
1.790000,-1.952301,-0.830312,-1.475263,1.091534,0.997656,0.080424,0.556140,-0.569789,0.063131,-1.211566,-1.073438,-0.874316,-2.476827,0.194813,-1.520315,-0.058298,-0.056996,0.000000,-0.104790,0.128782,0.000000
1.800000,-1.941358,-0.820365,-1.474456,1.097034,0.991904,0.081011,0.543902,-0.580513,0.054315,-1.235720,-1.071170,-0.888526,-2.336444,0.292238,-1.320340,-0.059343,-0.055695,0.000000,-0.104285,0.131105,-0.000000
1.810000,-1.930361,-0.810475,-1.473643,1.102411,0.986045,0.081510,0.531431,-0.591208,0.045367,-1.258283,-1.067585,-0.900763,-2.188415,0.397621,-1.118804,-0.060383,-0.054370,0.000000,-0.103654,0.133243,-0.000000
1.820000,-1.919310,-0.800644,-1.472826,1.107662,0.980080,0.081918,0.518740,-0.601864,0.036308,-1.279589,-1.063455,-0.910822,-2.058639,0.456731,-0.900590,-0.061416,-0.053025,0.000000,-0.102977,0.135231,0.000000
1.830000,-1.908208,-0.790874,-1.472005,1.112785,0.974008,0.082236,0.505845,-0.612472,0.027157,-1.299164,-1.057855,-0.918932,-1.854983,0.665182,-0.721456,-0.062442,-0.051661,0.000000,-0.102161,0.137023,-0.000000
1.840000,-1.897055,-0.781164,-1.471182,1.117778,0.967831,0.082461,0.492763,-0.623015,0.017935,-1.316928,-1.050687,-0.925093,-1.709917,0.741768,-0.502848,-0.063459,-0.050280,0.000000,-0.101196,0.138612,0.000000
1.850000,-1.885853,-0.771517,-1.470356,1.122640,0.961548,0.082594,0.479511,-0.633484,0.008663,-1.333236,-1.042770,-0.929052,-1.537203,0.870218,-0.297043,-0.064466,-0.048884,0.000000,-0.100170,0.140036,-0.000000
1.860000,-1.874602,-0.761934,-1.469530,1.127368,0.955161,0.082634,0.466105,-0.643865,-0.000639,-1.347668,-1.033290,-0.931064,-1.358373,1.004286,-0.092547,-0.065462,-0.047474,0.000000,-0.098999,0.141254,-0.000000
1.870000,-1.863306,-0.752414,-1.468704,1.131961,0.948671,0.082581,0.452563,-0.654147,-0.009950,-1.360479,-1.022877,-0.930788,-1.193232,1.100723,0.135072,-0.066445,-0.046053,0.000000,-0.097750,0.142293,-0.000000
1.880000,-1.851964,-0.742961,-1.467879,1.136419,0.942079,0.082435,0.438902,-0.664317,-0.019249,-1.371308,-1.010807,-0.928627,-0.971337,1.314505,0.296645,-0.067416,-0.044623,0.000000,-0.096349,0.143120,0.000000
1.890000,-1.840578,-0.733573,-1.467056,1.140739,0.935385,0.082196,0.425143,-0.674357,-0.028517,-1.380090,-0.997016,-0.924610,-0.794272,1.422230,0.518814,-0.068372,-0.043185,0.000000,-0.094790,0.143730,-0.000000
1.900000,-1.829149,-0.724253,-1.466235,1.144921,0.928592,0.081865,0.411306,-0.684254,-0.037733,-1.387095,-0.982165,-0.918366,-0.595935,1.569962,0.717475,-0.069312,-0.041742,0.000000,-0.093144,0.144150,0.000000
1.910000,-1.817680,-0.715002,-1.465419,1.148965,0.921701,0.081442,0.397409,-0.693995,-0.046878,-1.392005,-0.965662,-0.910283,-0.393146,1.719496,0.912836,-0.070234,-0.040296,0.000000,-0.091350,0.144353,0.000000
1.920000,-1.806170,-0.705819,-1.464607,1.152869,0.914713,0.080928,0.383472,-0.703563,-0.055931,-1.395016,-0.947874,-0.899988,-0.200917,1.849281,1.131888,-0.071138,-0.038849,0.000000,-0.089449,0.144358,-0.000000
1.930000,-1.794623,-0.696708,-1.463800,1.156634,0.907630,0.080324,0.369516,-0.712947,-0.064872,-1.395855,-0.928443,-0.887947,0.033892,2.037466,1.275116,-0.072023,-0.037402,0.000000,-0.087403,0.144142,0.000000
1.940000,-1.783038,-0.687667,-1.463000,1.160260,0.900455,0.079631,0.355562,-0.722127,-0.073685,-1.394479,-0.907347,-0.874217,0.234201,2.170544,1.484217,-0.072886,-0.035959,0.000000,-0.085209,0.143702,0.000000
1.950000,-1.771418,-0.678699,-1.462208,1.163746,0.893188,0.078851,0.341633,-0.731089,-0.082349,-1.391099,-0.884939,-0.858395,0.449795,2.321927,1.665561,-0.073727,-0.034521,0.000000,-0.082908,0.143060,0.000000
1.960000,-1.759764,-0.669804,-1.461424,1.167093,0.885834,0.077984,0.327748,-0.739820,-0.090847,-1.385474,-0.860978,-0.840930,0.669154,2.472026,1.841162,-0.074544,-0.033091,0.000000,-0.080473,0.142194,0.000000
1.970000,-1.748077,-0.660982,-1.460649,1.170301,0.878393,0.077034,0.313930,-0.748304,-0.099161,-1.377747,-0.835471,-0.821469,0.881026,2.626014,2.037284,-0.075336,-0.031670,0.000000,-0.077908,0.141121,0.000000
1.980000,-1.736358,-0.652236,-1.459883,1.173371,0.870868,0.076002,0.300201,-0.756525,-0.107272,-1.367750,-0.808529,-0.800474,1.118959,2.761959,2.160296,-0.076101,-0.030261,0.000000,-0.075222,0.139825,0.000000
1.990000,-1.724610,-0.643565,-1.459129,1.176305,0.863263,0.074889,0.286583,-0.764470,-0.115166,-1.355457,-0.780180,-0.778019,1.335016,2.910477,2.342992,-0.076840,-0.028866,0.000000,-0.072417,0.138306,-0.000000
2.000000,-1.712833,-0.634971,-1.458386,1.179104,0.855580,0.073699,0.273099,-0.772124,-0.122826,-1.341006,-0.750358,-0.753744,1.560069,3.050405,2.497749,-0.077549,-0.027488,0.000000,-0.069491,0.136579,-0.000000
2.010000,-1.701028,-0.626454,-1.457655,1.181768,0.847822,0.072434,0.259770,-0.779473,-0.130236,-1.324280,-0.719235,-0.728077,1.785531,3.185383,2.645891,-0.078229,-0.026127,0.000000,-0.066458,0.134633,-0.000000
2.020000,-1.689198,-0.618015,-1.456937,1.184300,0.839992,0.071095,0.246621,-0.786503,-0.137382,-1.305293,-0.686556,-0.700742,2.011692,3.338104,2.808962,-0.078878,-0.024787,0.000000,-0.063294,0.132471,-0.000000
2.030000,-1.677343,-0.609654,-1.456233,1.186701,0.832093,0.069687,0.233672,-0.793200,-0.144247,-1.284050,-0.652731,-0.672153,2.236900,3.425713,2.907505,-0.079495,-0.023470,0.000000,-0.060039,0.130096,0.000000
2.040000,-1.665464,-0.601373,-1.455544,1.188974,0.824129,0.068212,0.220947,-0.799554,-0.150821,-1.260553,-0.617827,-0.642392,2.462610,3.565659,3.054715,-0.080079,-0.022178,0.000000,-0.056698,0.127509,-0.000000
2.050000,-1.653564,-0.593172,-1.454869,1.191121,0.816103,0.066672,0.208468,-0.805552,-0.157090,-1.234802,-0.581536,-0.611177,2.687231,3.679963,3.175789,-0.080628,-0.020913,0.000000,-0.053242,0.124709,-0.000000
2.060000,-1.641642,-0.585051,-1.454211,1.193144,0.808019,0.065071,0.196259,-0.811182,-0.163041,-1.206793,-0.544270,-0.578894,2.911325,3.786698,3.289198,-0.081143,-0.019676,0.000000,-0.049710,0.121699,-0.000000
2.070000,-1.629701,-0.577012,-1.453568,1.195047,0.799881,0.063412,0.184340,-0.816432,-0.168663,-1.176602,-0.505695,-0.545330,3.129026,3.913289,3.412940,-0.081622,-0.018471,0.000000,-0.046070,0.118485,-0.000000
2.080000,-1.617742,-0.569054,-1.452943,1.196832,0.791692,0.061699,0.172734,-0.821293,-0.173945,-1.144166,-0.466320,-0.510857,3.358006,3.960022,3.480028,-0.082064,-0.017299,0.000000,-0.042369,0.115063,0.000000
2.090000,-1.605765,-0.561178,-1.452334,1.198503,0.783456,0.059934,0.161464,-0.825757,-0.178878,-1.109499,-0.426241,-0.475567,3.572452,4.068431,3.586083,-0.082469,-0.016163,0.000000,-0.038616,0.111434,0.000000
2.100000,-1.593772,-0.553385,-1.451744,1.200062,0.775178,0.058122,0.150551,-0.829814,-0.183452,-1.072712,-0.385098,-0.439246,3.788006,4.144859,3.667631,-0.082836,-0.015064,0.000000,-0.034777,0.107609,-0.000000
2.110000,-1.581764,-0.545675,-1.451172,1.201515,0.766861,0.056266,0.140019,-0.833461,-0.187660,-1.033277,-0.344225,-0.402247,4.010460,4.195091,3.740459,-0.083165,-0.014004,0.000000,-0.030979,0.103536,-0.000000
2.120000,-1.569742,-0.538048,-1.450619,1.202864,0.758510,0.054370,0.129886,-0.836683,-0.191494,-0.993324,-0.299689,-0.364378,4.064751,4.548907,3.822493,-0.083454,-0.012986,0.000000,-0.026835,0.099427,0.000000
2.130000,-1.557707,-0.530505,-1.450085,1.204114,0.750129,0.052438,0.120164,-0.839461,-0.194946,-0.950205,-0.256674,-0.326020,4.560954,4.047708,3.847427,-0.083702,-0.012010,0.000000,-0.022854,0.095017,0.000000
2.140000,-1.545660,-0.523045,-1.449570,1.205269,0.741722,0.050473,0.110893,-0.841824,-0.198013,-0.903849,-0.215485,-0.287273,4.623073,4.352367,3.909875,-0.083912,-0.011080,0.000000,-0.019065,0.090301,0.000000
2.150000,-1.533602,-0.515670,-1.449075,1.206333,0.733294,0.048479,0.102087,-0.843757,-0.200690,-0.857034,-0.171039,-0.247931,4.824922,4.372654,3.947493,-0.084082,-0.010197,0.000000,-0.014965,0.085552,-0.000000
2.160000,-1.521534,-0.508380,-1.448601,1.207312,0.724848,0.046460,0.093756,-0.845242,-0.202971,-0.808822,-0.125909,-0.208369,4.994720,4.422017,3.975169,-0.084211,-0.009363,0.000000,-0.010804,0.080678,0.000000
2.170000,-1.509456,-0.501173,-1.448146,1.208210,0.716390,0.044421,0.085930,-0.846292,-0.204855,-0.755523,-0.084742,-0.168351,5.490821,4.033528,4.015486,-0.084300,-0.008580,0.000000,-0.007045,0.075311,0.000000
2.180000,-1.497370,-0.494052,-1.447712,1.209033,0.707924,0.042364,0.078643,-0.846925,-0.206339,-0.702662,-0.040572,-0.128330,5.074696,4.806136,3.986793,-0.084351,-0.007851,0.000000,-0.002992,0.069998,-0.000000
2.190000,-1.485275,-0.487015,-1.447299,1.209785,0.699454,0.040295,0.071873,-0.847091,-0.207422,-0.650552,0.006831,-0.088416,5.520891,4.447304,4.005815,-0.084359,-0.007175,0.000000,0.001379,0.064771,0.000000
2.200000,-1.473174,-0.480063,-1.446906,1.210472,0.690984,0.038217,0.065651,-0.846806,-0.208106,-0.593751,0.050258,-0.048342,5.664092,4.461466,3.995842,-0.084325,-0.006553,0.000000,0.005353,0.059086,-0.000000
2.210000,-1.461066,-0.473195,-1.446535,1.211100,0.682519,0.036134,0.060001,-0.846083,-0.208390,-0.535964,0.094184,-0.008557,5.819681,4.438118,3.975144,-0.084252,-0.005989,0.000000,0.009379,0.053311,-0.000000
2.220000,-1.448952,-0.466412,-1.446184,1.211674,0.674064,0.034051,0.054931,-0.844914,-0.208277,-0.478046,0.140054,0.031274,5.833102,4.621405,3.974149,-0.084137,-0.005483,0.000000,0.013598,0.047530,0.000000
2.230000,-1.436833,-0.459714,-1.445854,1.212200,0.665622,0.031970,0.050448,-0.843289,-0.207767,-0.417851,0.184207,0.070573,6.206940,4.203658,3.883690,-0.083980,-0.005036,0.000000,0.017652,0.041528,-0.000000
2.240000,-1.424708,-0.453100,-1.445544,1.212685,0.657199,0.029897,0.046582,-0.841237,-0.206868,-0.355352,0.226372,0.109224,6.220630,4.341527,3.860167,-0.083785,-0.004650,0.000000,0.021518,0.035300,-0.000000
2.250000,-1.412579,-0.446570,-1.445256,1.213134,0.648799,0.027834,0.043340,-0.838754,-0.205583,-0.292866,0.270032,0.147611,6.346570,4.275022,3.800673,-0.083549,-0.004327,0.000000,0.025537,0.029075,0.000000
2.260000,-1.400446,-0.440124,-1.444988,1.213554,0.640425,0.025786,0.040734,-0.835848,-0.203918,-0.228039,0.311009,0.185160,6.475806,4.176123,3.730052,-0.083275,-0.004068,0.000000,0.029302,0.022618,-0.000000
2.270000,-1.388308,-0.433761,-1.444740,1.213951,0.632083,0.023757,0.038772,-0.832517,-0.201880,-0.164682,0.355890,0.222388,6.331352,4.548569,3.691932,-0.082961,-0.003873,0.000000,0.033463,0.016306,0.000000
2.280000,-1.376167,-0.427482,-1.444512,1.214331,0.623777,0.021750,0.037450,-0.828745,-0.199475,-0.098559,0.396701,0.258508,6.895826,3.604320,3.529981,-0.082607,-0.003741,0.000000,0.037236,0.009717,-0.000000
2.290000,-1.364022,-0.421286,-1.444305,1.214702,0.615510,0.019769,0.036811,-0.824600,-0.196715,-0.029582,0.433006,0.293398,6.759037,3.907812,3.468471,-0.082218,-0.003679,0.000000,0.040579,0.002839,-0.000000
2.300000,-1.351873,-0.415172,-1.444117,1.215070,0.607286,0.017817,0.036851,-0.820070,-0.193608,0.037759,0.472692,0.327657,6.845460,3.776659,3.360074,-0.081794,-0.003684,0.000000,0.044270,-0.003882,-0.000000
2.310000,-1.339720,-0.409140,-1.443948,1.215441,0.599109,0.015898,0.037567,-0.815149,-0.190166,0.105445,0.511459,0.360519,6.888247,3.687740,3.240721,-0.081333,-0.003757,0.000000,0.047891,-0.010644,-0.000000
2.320000,-1.327564,-0.403189,-1.443799,1.215823,0.590984,0.014015,0.038977,-0.809867,-0.186400,0.177308,0.543777,0.392718,7.289287,3.054514,3.168508,-0.080839,-0.003899,0.000000,0.050886,-0.017832,-0.000000
2.330000,-1.315404,-0.397320,-1.443668,1.216223,0.582913,0.012171,0.041105,-0.804264,-0.182318,0.247139,0.578401,0.423249,6.668745,3.878185,2.935447,-0.080314,-0.004114,0.000000,0.054132,-0.024826,-0.000000
2.340000,-1.303239,-0.391531,-1.443555,1.216648,0.574900,0.010369,0.043910,-0.798288,-0.177941,0.314538,0.615664,0.451987,7.003414,3.291096,2.840152,-0.079755,-0.004396,0.000000,0.057666,-0.031589,-0.000000
2.350000,-1.291071,-0.385822,-1.443460,1.217104,0.566949,0.008613,0.047411,-0.791976,-0.173281,0.385510,0.646597,0.479776,6.994938,3.176053,2.686973,-0.079164,-0.004749,0.000000,0.060588,-0.038721,0.000000
2.360000,-1.278897,-0.380192,-1.443383,1.217598,0.559062,0.006905,0.051617,-0.785358,-0.168352,0.455815,0.676609,0.505668,6.993536,3.015345,2.524085,-0.078543,-0.005173,0.000000,0.063444,-0.045800,-0.000000
2.370000,-1.266719,-0.374640,-1.443322,1.218138,0.551242,0.005247,0.056521,-0.778434,-0.163170,0.524690,0.708633,0.530545,6.847372,3.203772,2.417183,-0.077894,-0.005667,0.000000,0.066519,-0.052749,-0.000000
2.380000,-1.254534,-0.369167,-1.443278,1.218731,0.543494,0.003642,0.062114,-0.771200,-0.157748,0.594150,0.736790,0.553298,7.044537,2.421076,2.131238,-0.077214,-0.006231,0.000000,0.069236,-0.059772,-0.000000
2.390000,-1.242344,-0.363770,-1.443249,1.219383,0.535819,0.002092,0.068407,-0.763714,-0.152112,0.664154,0.760770,0.573813,6.884898,2.560314,2.003985,-0.076510,-0.006867,0.000000,0.071564,-0.066864,-0.000000
2.400000,-1.230146,-0.358450,-1.443236,1.220102,0.528221,0.000600,0.075390,-0.755976,-0.146276,0.732385,0.786400,0.593075,6.827643,2.379241,1.814213,-0.075782,-0.007572,0.000000,0.074076,-0.073795,-0.000000
2.410000,-1.217942,-0.353205,-1.443237,1.220893,0.520701,-0.000832,0.083054,-0.748000,-0.140258,0.800319,0.808465,0.610081,6.752203,2.189101,1.617915,-0.075030,-0.008347,0.000000,0.076259,-0.080710,0.000000
2.420000,-1.205728,-0.348036,-1.443252,1.221765,0.513261,-0.002204,0.091393,-0.739800,-0.134078,0.867346,0.831602,0.625721,6.654284,2.287206,1.477556,-0.074256,-0.009190,0.000000,0.078568,-0.087551,0.000000
2.430000,-1.193506,-0.342940,-1.443281,1.222723,0.505905,-0.003514,0.100398,-0.731381,-0.127752,0.933431,0.851043,0.638950,6.560344,1.596340,1.166597,-0.073460,-0.010102,0.000000,0.080536,-0.094313,0.000000
2.440000,-1.181274,-0.337917,-1.443322,1.223775,0.498634,-0.004759,0.110058,-0.722794,-0.121308,0.998425,0.866579,0.649683,6.431967,1.663212,1.011544,-0.072647,-0.011081,0.000000,0.082138,-0.100979,-0.000000
2.450000,-1.169030,-0.332967,-1.443376,1.224927,0.491450,-0.005939,0.120362,-0.714044,-0.114763,1.062048,0.883022,0.658897,6.293720,1.474312,0.798930,-0.071817,-0.012127,0.000000,0.083849,-0.107521,0.000000
2.460000,-1.156775,-0.328088,-1.443441,1.226184,0.484354,-0.007054,0.131292,-0.705143,-0.108138,1.123840,0.896870,0.665680,6.131155,1.298668,0.583075,-0.070971,-0.013237,0.000000,0.085324,-0.113893,-0.000000
2.470000,-1.144506,-0.323279,-1.443517,1.227554,0.477348,-0.008102,0.142838,-0.696112,-0.101455,1.185251,0.909037,0.670790,6.081220,1.133232,0.413654,-0.070111,-0.014410,0.000000,0.086648,-0.120238,0.000000
2.480000,-1.132223,-0.318541,-1.443603,1.229043,0.470432,-0.009083,0.154988,-0.686968,-0.094731,1.244001,0.919505,0.673425,5.663920,0.961572,0.112524,-0.069238,-0.015647,0.000000,0.087824,-0.126326,0.000000
2.490000,-1.119925,-0.313871,-1.443698,1.230656,0.463608,-0.009996,0.167708,-0.677727,-0.087995,1.299831,0.928347,0.673545,5.566873,0.810899,-0.063180,-0.068355,-0.016942,0.000000,0.088856,-0.132128,0.000000
2.500000,-1.107610,-0.309268,-1.443802,1.232399,0.456878,-0.010843,0.180983,-0.668406,-0.081265,1.354709,0.935735,0.671946,5.338464,0.665865,-0.281350,-0.067462,-0.018295,0.000000,0.089757,-0.137843,-0.000000
2.510000,-1.095276,-0.304733,-1.443915,1.234278,0.450241,-0.011622,0.194788,-0.658999,-0.074564,1.405735,0.945784,0.667995,5.074702,0.612830,-0.497682,-0.066558,-0.019704,0.000000,0.090944,-0.143174,0.000000
2.520000,-1.082924,-0.300263,-1.444035,1.236297,0.443698,-0.012334,0.209106,-0.649551,-0.067912,1.458087,0.941280,0.662100,5.188853,-0.800954,-0.691528,-0.065649,-0.021166,0.000000,0.090679,-0.148642,0.000000
2.530000,-1.070550,-0.295858,-1.444161,1.238461,0.437249,-0.012980,0.223930,-0.640142,-0.061329,1.505177,0.944721,0.653952,4.220372,1.512423,-0.937798,-0.064741,-0.022681,0.000000,0.091227,-0.153581,0.000000
2.540000,-1.058154,-0.291518,-1.444294,1.240777,0.430896,-0.013561,0.239188,-0.630621,-0.054840,1.546580,0.957161,0.643570,4.264315,0.258308,-1.127354,-0.063821,-0.024242,0.000000,0.092696,-0.157944,-0.000000
2.550000,-1.045734,-0.287240,-1.444432,1.243247,0.424637,-0.014078,0.254868,-0.621057,-0.048464,1.588671,0.955993,0.631337,3.946444,0.224030,-1.329889,-0.062893,-0.025847,0.000000,0.092803,-0.162373,0.000000
2.560000,-1.033288,-0.283025,-1.444575,1.245875,0.418474,-0.014531,0.270950,-0.611501,-0.042220,1.627298,0.954518,0.617111,3.645155,0.078351,-1.525443,-0.061964,-0.027494,0.000000,0.092888,-0.166447,-0.000000
2.570000,-1.020816,-0.278870,-1.444723,1.248667,0.412407,-0.014922,0.287393,-0.601923,-0.036129,1.660324,0.963056,0.600746,3.086492,1.049678,-1.735732,-0.061031,-0.029180,0.000000,0.093993,-0.169946,-0.000000
2.580000,-1.008315,-0.274776,-1.444874,1.251624,0.406436,-0.015254,0.304152,-0.592272,-0.030211,1.691685,0.963342,0.582647,3.188071,-1.010596,-1.882399,-0.060088,-0.030899,0.000000,0.094271,-0.173267,-0.000000
2.590000,-0.995783,-0.270741,-1.445027,1.254751,0.400561,-0.015527,0.321222,-0.582691,-0.024481,1.721462,0.954575,0.562904,2.636393,-0.157264,-2.075885,-0.059149,-0.032651,0.000000,0.093636,-0.176415,0.000000
2.600000,-0.983219,-0.266765,-1.445184,1.258050,0.394782,-0.015744,0.338560,-0.573139,-0.018959,1.745478,0.955233,0.541252,2.294649,-0.294009,-2.242264,-0.058211,-0.034431,0.000000,0.093960,-0.178966,0.000000
2.610000,-0.970621,-0.262845,-1.445342,1.261523,0.389099,-0.015907,0.356125,-0.563609,-0.013661,1.766976,0.950327,0.518221,1.942607,-0.419398,-2.396477,-0.057272,-0.036236,0.000000,0.093720,-0.181246,0.000000
2.620000,-0.957988,-0.258982,-1.445502,1.265173,0.383510,-0.016018,0.373882,-0.554115,-0.008603,1.783741,0.949320,0.493041,1.467992,-0.039963,-2.604747,-0.056335,-0.038061,0.000000,0.093879,-0.183025,0.000000
2.630000,-0.945317,-0.255175,-1.445662,1.269001,0.378016,-0.016080,0.391790,-0.544639,-0.003803,1.797547,0.944113,0.466856,1.293670,-1.007972,-2.629382,-0.055396,-0.039901,0.000000,0.093609,-0.184486,-0.000000
2.640000,-0.932607,-0.251422,-1.445823,1.273009,0.372617,-0.016095,0.409824,-0.535250,0.000732,1.808391,0.934434,0.439820,0.814114,-0.664489,-2.809521,-0.054464,-0.041755,0.000000,0.092880,-0.185628,-0.000000
2.650000,-0.919856,-0.247722,-1.445984,1.277198,0.367311,-0.016066,0.427940,-0.525933,0.004987,1.814308,0.928643,0.410988,0.427263,-0.752253,-2.921473,-0.053537,-0.043617,0.000000,0.092545,-0.186246,-0.000000
2.660000,-0.907063,-0.244075,-1.446144,1.281568,0.362098,-0.015997,0.446093,-0.516666,0.008950,1.815307,0.925101,0.381542,0.002491,-0.724456,-3.017641,-0.052612,-0.045483,0.000000,0.092431,-0.186343,0.000000
2.670000,-0.894224,-0.240480,-1.446304,1.286120,0.356977,-0.015888,0.464251,-0.507492,0.012611,1.816453,0.907106,0.350205,0.001819,-2.124532,-3.197774,-0.051695,-0.047350,0.000000,0.090848,-0.186427,0.000000
2.680000,-0.881340,-0.236935,-1.446462,1.290853,0.351948,-0.015745,0.482397,-0.498488,0.015954,1.810625,0.898353,0.318677,-1.175211,0.399334,-3.103984,-0.050792,-0.049214,0.000000,0.090192,-0.185781,0.000000
2.690000,-0.868407,-0.233441,-1.446619,1.295767,0.347008,-0.015570,0.500437,-0.489485,0.018984,1.797458,0.899995,0.287158,-1.232935,-0.824524,-3.248107,-0.049887,-0.051067,0.000000,0.090582,-0.184370,-0.000000
2.700000,-0.855424,-0.229995,-1.446773,1.300861,0.342158,-0.015367,0.518349,-0.480546,0.021691,1.784035,0.888301,0.254190,-1.677129,-0.760356,-3.293241,-0.048986,-0.052907,0.000000,0.089611,-0.182904,-0.000000
2.710000,-0.842389,-0.226597,-1.446926,1.306134,0.337396,-0.015138,0.536096,-0.471719,0.024070,1.764532,0.876421,0.221451,-2.120206,-0.825314,-3.320600,-0.048095,-0.054728,0.000000,0.088608,-0.180800,-0.000000
2.720000,-0.829301,-0.223247,-1.447076,1.311582,0.332723,-0.014886,0.553633,-0.462955,0.026114,1.742584,0.879080,0.187195,-2.369668,0.592438,-3.462176,-0.047207,-0.056526,0.000000,0.089081,-0.178419,0.000000
2.730000,-0.816157,-0.219942,-1.447224,1.317205,0.328137,-0.014617,0.570928,-0.454175,0.027816,1.715033,0.872221,0.153646,-3.143197,-1.986525,-3.243249,-0.046317,-0.058298,0.000000,0.088570,-0.175452,0.000000
2.740000,-0.802956,-0.216684,-1.447368,1.323000,0.323639,-0.014331,0.587914,-0.445552,0.029191,1.681766,0.854878,0.121034,-3.408149,-0.706813,-3.343838,-0.045440,-0.060037,0.000000,0.086974,-0.171890,0.000000
2.750000,-0.789696,-0.213469,-1.447510,1.328963,0.319226,-0.014034,0.604557,-0.437017,0.030232,1.646027,0.851564,0.087374,-3.839631,-0.724188,-3.318158,-0.044571,-0.061739,0.000000,0.086801,-0.168052,-0.000000
2.760000,-0.776376,-0.210299,-1.447649,1.335090,0.314898,-0.013728,0.620825,-0.428517,0.030942,1.606997,0.849077,0.054676,-4.228401,-0.586328,-3.276742,-0.043704,-0.063400,0.000000,0.086697,-0.163868,-0.000000
2.770000,-0.762994,-0.207171,-1.447785,1.341378,0.310656,-0.013416,0.636663,-0.420097,0.031323,1.559064,0.832384,0.021353,-5.101267,-1.958260,-3.329932,-0.042844,-0.065015,0.000000,0.085136,-0.158758,0.000000
2.780000,-0.749548,-0.204085,-1.447917,1.347821,0.306496,-0.013102,0.652005,-0.411828,0.031374,1.510363,0.826575,-0.010708,-4.629503,0.823343,-3.078496,-0.041997,-0.066578,0.000000,0.084669,-0.153564,0.000000
2.790000,-0.736037,-0.201041,-1.448047,1.354416,0.302419,-0.012790,0.666871,-0.403519,0.031114,1.461338,0.832880,-0.041305,-5.431826,-0.359650,-3.095210,-0.041145,-0.068090,0.000000,0.085420,-0.148334,-0.000000
2.800000,-0.722459,-0.198037,-1.448173,1.361157,0.298426,-0.012481,0.681200,-0.395227,0.030546,1.403950,0.826200,-0.072096,-5.787311,-0.178417,-3.004619,-0.040295,-0.069544,0.000000,0.084838,-0.142241,-0.000000
2.810000,-0.708813,-0.195072,-1.448296,1.368038,0.294515,-0.012180,0.694944,-0.386972,0.029678,1.344328,0.825078,-0.101386,-6.148019,-0.041430,-2.900676,-0.039446,-0.070936,0.000000,0.084807,-0.135923,0.000000
2.820000,-0.695098,-0.192146,-1.448417,1.375054,0.290686,-0.011888,0.708073,-0.378721,0.028518,1.280907,0.825419,-0.130524,-6.522194,0.106784,-2.877490,-0.038598,-0.072263,0.000000,0.084916,-0.129212,-0.000000
2.830000,-0.681312,-0.189258,-1.448534,1.382197,0.286940,-0.011610,0.720551,-0.370459,0.027073,1.214177,0.827152,-0.157903,-6.821571,0.240081,-2.595279,-0.037748,-0.073521,0.000000,0.085150,-0.122173,-0.000000
2.840000,-0.667454,-0.186407,-1.448649,1.389463,0.283277,-0.011348,0.732346,-0.362173,0.025367,1.144264,0.830291,-0.183359,-7.171593,0.391069,-2.542333,-0.036894,-0.074707,0.000000,0.085513,-0.114821,0.000000
2.850000,-0.653522,-0.183592,-1.448761,1.396842,0.279697,-0.011104,0.743425,-0.353848,0.023407,1.070886,0.834940,-0.208312,-7.489355,0.534996,-2.398972,-0.036037,-0.075818,0.000000,0.086019,-0.107119,-0.000000
2.860000,-0.639516,-0.180813,-1.448871,1.404328,0.276200,-0.010881,0.753749,-0.345486,0.021207,0.993446,0.837272,-0.231350,-7.815888,0.602249,-2.246039,-0.035175,-0.076850,0.000000,0.086275,-0.099019,-0.000000
2.870000,-0.625435,-0.178068,-1.448979,1.411914,0.272787,-0.010680,0.763298,-0.337046,0.018782,0.916276,0.853154,-0.253564,-7.791294,1.922482,-2.157989,-0.034306,-0.077800,0.000000,0.087900,-0.090956,0.000000
2.880000,-0.611278,-0.175357,-1.449085,1.419592,0.269460,-0.010506,0.772057,-0.328451,0.016143,0.833983,0.862043,-0.273698,-8.670224,-0.165149,-1.866593,-0.033420,-0.078668,0.000000,0.088799,-0.082392,-0.000000
2.890000,-0.597043,-0.172679,-1.449189,1.427353,0.266218,-0.010358,0.779958,-0.319836,0.013316,0.746473,0.863029,-0.291637,-8.651979,1.020236,-1.758159,-0.032533,-0.079447,0.000000,0.088881,-0.073323,-0.000000
2.900000,-0.582731,-0.170032,-1.449292,1.435188,0.263063,-0.010240,0.786991,-0.311136,0.010313,0.659496,0.876871,-0.308523,-8.917034,1.093087,-1.580358,-0.031637,-0.080136,0.000000,0.090262,-0.064322,-0.000000
2.910000,-0.568339,-0.167417,-1.449394,1.443090,0.259996,-0.010152,0.793142,-0.302298,0.007152,0.570416,0.891204,-0.323387,-9.126944,1.267704,-1.399684,-0.030728,-0.080733,0.000000,0.091681,-0.055133,-0.000000
2.920000,-0.553869,-0.164832,-1.449495,1.451048,0.257018,-0.010097,0.798374,-0.293347,0.003851,0.474895,0.897577,-0.336572,-9.749954,0.499012,-1.229635,-0.029807,-0.081236,0.000000,0.092282,-0.045313,0.000000
2.930000,-0.539318,-0.162276,-1.449596,1.459054,0.254129,-0.010076,0.802644,-0.284318,0.000428,0.380187,0.911513,-0.347821,-9.181364,2.304011,-1.019581,-0.028879,-0.081641,0.000000,0.093642,-0.035602,0.000000
2.940000,-0.524687,-0.159749,-1.449697,1.467098,0.251332,-0.010089,0.805984,-0.275085,-0.003099,0.286797,0.933721,-0.357103,-9.719728,1.641557,-0.843990,-0.027931,-0.081950,0.000000,0.095833,-0.026051,-0.000000
2.950000,-0.509976,-0.157249,-1.449798,1.475170,0.248628,-0.010138,0.808357,-0.265677,-0.006709,0.187779,0.948560,-0.364635,-9.855077,1.820897,-0.655270,-0.026966,-0.082160,0.000000,0.097268,-0.015956,-0.000000
2.960000,-0.495184,-0.154776,-1.449900,1.483262,0.246019,-0.010223,0.809740,-0.256100,-0.010385,0.088679,0.967039,-0.370316,-9.983151,1.958567,-0.468536,-0.025984,-0.082269,0.000000,0.099065,-0.005879,0.000000
2.970000,-0.480311,-0.152329,-1.450003,1.491362,0.243507,-0.010346,0.810125,-0.246325,-0.014108,-0.012018,0.988498,-0.373895,-10.132109,2.251436,-0.259612,-0.024983,-0.082277,0.000000,0.101158,0.004331,-0.000000
2.980000,-0.465357,-0.149906,-1.450107,1.499461,0.241093,-0.010506,0.809498,-0.236329,-0.017857,-0.113461,1.010349,-0.375766,-10.152740,2.115664,-0.115243,-0.023961,-0.082182,0.000000,0.103286,0.014591,-0.000000
2.990000,-0.450322,-0.147507,-1.450213,1.507548,0.238781,-0.010703,0.807854,-0.226117,-0.021618,-0.215430,1.032449,-0.375966,-10.258756,2.386016,0.086771,-0.022918,-0.081985,0.000000,0.105435,0.024880,0.000000
3.000000,-0.435206,-0.145130,-1.450321,1.515614,0.236572,-0.010938,0.805185,-0.215669,-0.025370,-0.318394,1.057357,-0.374140,-10.309772,2.513050,0.265257,-0.021851,-0.081684,0.000000,0.107864,0.035242,-0.000000
3.010000,-0.420009,-0.142775,-1.450432,1.523649,0.234468,-0.011210,0.801486,-0.204969,-0.029096,-0.421465,1.082942,-0.370789,-10.338655,2.637132,0.436625,-0.020760,-0.081280,0.000000,0.110360,0.045593,-0.000000
3.020000,-0.404733,-0.140440,-1.450545,1.531641,0.232473,-0.011520,0.796752,-0.194004,-0.032777,-0.525447,1.110396,-0.365126,-10.418252,2.819876,0.663782,-0.019643,-0.080772,0.000000,0.113042,0.056009,-0.000000
3.030000,-0.389377,-0.138125,-1.450662,1.539580,0.230589,-0.011866,0.790979,-0.182758,-0.036394,-0.629005,1.138628,-0.358191,-10.289021,2.824442,0.721145,-0.018499,-0.080160,0.000000,0.115802,0.066364,-0.000000
3.040000,-0.373942,-0.135828,-1.450783,1.547457,0.228819,-0.012247,0.784175,-0.171229,-0.039937,-0.731898,1.167533,-0.350087,-10.323156,2.988912,0.930449,-0.017327,-0.079445,0.000000,0.118633,0.076637,-0.000000
3.050000,-0.358428,-0.133548,-1.450907,1.555260,0.227166,-0.012664,0.776339,-0.159402,-0.043388,-0.835097,1.198102,-0.339878,-10.276704,3.090417,1.078964,-0.016126,-0.078627,0.000000,0.121631,0.086919,-0.000000
3.060000,-0.342837,-0.131284,-1.451036,1.562980,0.225632,-0.013115,0.767476,-0.147265,-0.046732,-0.937372,1.229368,-0.328620,-10.210169,3.184583,1.217334,-0.014894,-0.077706,0.000000,0.124704,0.097096,0.000000
3.070000,-0.327169,-0.129035,-1.451170,1.570606,0.224221,-0.013598,0.757592,-0.134809,-0.049953,-1.039561,1.261980,-0.315133,-10.190749,3.314337,1.434079,-0.013631,-0.076685,0.000000,0.127914,0.107245,-0.000000
3.080000,-0.311425,-0.126799,-1.451308,1.578129,0.222937,-0.014113,0.746690,-0.122024,-0.053032,-1.140417,1.295161,-0.300904,-9.976455,3.319924,1.409084,-0.012336,-0.075562,0.000000,0.131187,0.117254,0.000000
3.090000,-0.295606,-0.124576,-1.451452,1.585537,0.221782,-0.014659,0.734789,-0.108905,-0.055969,-1.239717,1.328802,-0.286077,-9.914842,3.429286,1.599990,-0.011008,-0.074340,0.000000,0.134512,0.127103,-0.000000
3.100000,-0.279714,-0.122363,-1.451602,1.592821,0.220760,-0.015232,0.721897,-0.095444,-0.058747,-1.338367,1.363528,-0.269316,-9.778254,3.492104,1.705585,-0.009645,-0.073020,0.000000,0.137952,0.136874,0.000000
3.110000,-0.263750,-0.120160,-1.451757,1.599971,0.219874,-0.015833,0.708028,-0.081633,-0.061354,-1.435262,1.398600,-0.252044,-9.624279,3.544895,1.799136,-0.008248,-0.071603,0.000000,0.141434,0.146470,-0.000000
3.120000,-0.247716,-0.117965,-1.451918,1.606978,0.219129,-0.016459,0.693195,-0.067468,-0.063781,-1.531040,1.434617,-0.232889,-9.503144,3.633607,1.980148,-0.006816,-0.070091,0.000000,0.145018,0.155945,-0.000000
3.130000,-0.231611,-0.115777,-1.452086,1.613832,0.218526,-0.017108,0.677414,-0.052941,-0.066012,-1.624739,1.470751,-0.213528,-9.233280,3.590873,1.888779,-0.005348,-0.068485,0.000000,0.148623,0.165217,0.000000
3.140000,-0.215439,-0.113594,-1.452261,1.620524,0.218071,-0.017778,0.660708,-0.038053,-0.068051,-1.716170,1.506875,-0.194129,-9.076016,3.655858,2.040136,-0.003844,-0.066787,0.000000,0.152236,0.174269,0.000000
3.150000,-0.199201,-0.111415,-1.452442,1.627043,0.217766,-0.018468,0.643095,-0.022801,-0.069888,-1.805992,1.543635,-0.173189,-8.860523,3.671057,2.095507,-0.002303,-0.065000,0.000000,0.155922,0.183159,0.000000
3.160000,-0.182899,-0.109238,-1.452630,1.633382,0.217616,-0.019175,0.624597,-0.007181,-0.071516,-1.893370,1.580240,-0.152241,-8.630595,3.674808,2.140033,-0.000725,-0.063125,0.000000,0.159603,0.191815,0.000000
3.170000,-0.166534,-0.107062,-1.452825,1.639532,0.217624,-0.019898,0.605234,0.008806,-0.072928,-1.978727,1.617342,-0.129960,-8.421058,3.718019,2.266539,0.000889,-0.061164,0.000000,0.163343,0.200271,0.000000
3.180000,-0.150109,-0.104885,-1.453028,1.645484,0.217794,-0.020633,0.585031,0.025164,-0.074116,-2.061377,1.654026,-0.107948,-8.106195,3.616205,2.132929,0.002541,-0.059120,0.000000,0.167052,0.208470,0.000000
3.190000,-0.133625,-0.102706,-1.453238,1.651230,0.218129,-0.021379,0.564017,0.041885,-0.075088,-2.141167,1.690152,-0.086364,-7.867647,3.633408,2.230727,0.004230,-0.056996,0.000000,0.170715,0.216398,-0.000000
3.200000,-0.117085,-0.100522,-1.453456,1.656762,0.218632,-0.022134,0.542216,0.058968,-0.075839,-2.218540,1.726438,-0.063777,-7.587132,3.596027,2.237059,0.005956,-0.054793,0.000000,0.174404,0.224092,-0.000000
3.210000,-0.100491,-0.098333,-1.453681,1.662072,0.219309,-0.022895,0.519656,0.076411,-0.076366,-2.292891,1.762003,-0.041618,-7.295056,3.546304,2.233187,0.007718,-0.052515,0.000000,0.178031,0.231499,0.000000
3.220000,-0.083845,-0.096136,-1.453914,1.667153,0.220162,-0.023661,0.496367,0.094209,-0.076669,-2.364531,1.797614,-0.018776,-7.017961,3.544075,2.295148,0.009517,-0.050164,0.000000,0.181673,0.238647,0.000000
3.230000,-0.067149,-0.093929,-1.454154,1.671997,0.221194,-0.024428,0.472376,0.112359,-0.076744,-2.432940,1.832217,0.003445,-6.661824,3.373808,2.146482,0.011351,-0.047742,0.000000,0.185223,0.245488,0.000000
3.240000,-0.050405,-0.091711,-1.454402,1.676598,0.222410,-0.025195,0.447719,0.130849,-0.076602,-2.498005,1.865665,0.024909,-6.362969,3.344413,2.184126,0.013221,-0.045255,0.000000,0.188664,0.252013,0.000000
3.250000,-0.033618,-0.089480,-1.454658,1.680949,0.223813,-0.025959,0.422426,0.149672,-0.076244,-2.560058,1.898813,0.046770,-6.033006,3.253072,2.147904,0.015124,-0.042703,0.000000,0.192086,0.258248,-0.000000
3.260000,-0.016787,-0.087234,-1.454921,1.685045,0.225405,-0.026719,0.396530,0.168820,-0.075670,-2.618612,1.930593,0.067910,-5.694096,3.148223,2.104191,0.017062,-0.040090,0.000000,0.195376,0.264151,0.000000
3.270000,0.000082,-0.084971,-1.455192,1.688878,0.227190,-0.027472,0.370064,0.188284,-0.074885,-2.674080,1.962175,0.089064,-5.381199,3.121046,2.101008,0.019032,-0.037420,0.000000,0.198655,0.269758,-0.000000
3.280000,0.016989,-0.082690,-1.455471,1.692444,0.229171,-0.028216,0.343061,0.208058,-0.073891,-2.725854,1.992026,0.109394,-4.972174,2.846094,1.963283,0.021034,-0.034695,0.000000,0.201766,0.275011,-0.000000
3.290000,0.033930,-0.080387,-1.455756,1.695738,0.231352,-0.028949,0.315559,0.228118,-0.072700,-2.773852,2.019986,0.128807,-4.643860,2.790344,1.943080,0.023067,-0.031920,0.000000,0.204690,0.279901,0.000000
3.300000,0.050903,-0.078062,-1.456050,1.698754,0.233735,-0.029670,0.287594,0.248456,-0.071316,-2.818568,2.047412,0.148025,-4.281384,2.647574,1.875403,0.025128,-0.029097,0.000000,0.207566,0.284475,-0.000000
3.310000,0.067905,-0.075712,-1.456350,1.701488,0.236322,-0.030375,0.259200,0.269062,-0.069743,-2.859756,2.073625,0.166383,-3.919887,2.508298,1.803759,0.027218,-0.026229,0.000000,0.210323,0.288709,0.000000
3.320000,0.084932,-0.073335,-1.456657,1.703936,0.239117,-0.031064,0.230414,0.289917,-0.067990,-2.896627,2.096765,0.184163,-3.488432,2.200864,1.743505,0.029333,-0.023322,0.000000,0.212773,0.292521,0.000000
3.330000,0.101982,-0.070929,-1.456971,1.706095,0.242121,-0.031734,0.201278,0.310996,-0.066063,-2.930240,2.119348,0.201070,-3.234787,2.316887,1.637216,0.031473,-0.020378,0.000000,0.215168,0.296017,0.000000
3.340000,0.119053,-0.068492,-1.457292,1.707961,0.245337,-0.032385,0.171820,0.332303,-0.063971,-2.960617,2.141400,0.217061,-2.805393,2.008468,1.568521,0.033637,-0.017400,0.000000,0.217509,0.299198,-0.000000
3.350000,0.136141,-0.066021,-1.457619,1.709531,0.248768,-0.033013,0.142080,0.353812,-0.061724,-2.986639,2.160195,0.232361,-2.433483,1.832279,1.483225,0.035822,-0.014392,0.000000,0.219521,0.301950,0.000000
3.360000,0.153242,-0.063516,-1.457952,1.710802,0.252414,-0.033618,0.112098,0.375501,-0.059327,-3.009186,2.177216,0.246805,-2.059924,1.634283,1.397325,0.038026,-0.011358,0.000000,0.221353,0.304359,0.000000
3.370000,0.170356,-0.060972,-1.458291,1.711772,0.256278,-0.034199,0.081911,0.397355,-0.056791,-3.027691,2.193439,0.260230,-1.656235,1.546726,1.295147,0.040249,-0.008301,0.000000,0.223100,0.306368,0.000000
3.380000,0.187477,-0.058389,-1.458636,1.712439,0.260362,-0.034754,0.051556,0.419360,-0.054125,-3.042632,2.206814,0.272864,-1.332468,1.124837,1.231806,0.042487,-0.005227,0.000000,0.224557,0.308023,-0.000000
3.390000,0.204603,-0.055764,-1.458986,1.712803,0.264666,-0.035281,0.021070,0.441481,-0.051336,-3.054032,2.217163,0.284709,-0.932169,1.006267,1.129402,0.044739,-0.002137,0.000000,0.225703,0.309325,0.000000
3.400000,0.221732,-0.053095,-1.459341,1.712860,0.269192,-0.035780,-0.009511,0.463700,-0.048434,-3.061409,2.226377,0.295517,-0.558923,0.772526,1.039679,0.047001,0.000965,0.000000,0.226729,0.310223,-0.000000
3.410000,0.238860,-0.050380,-1.459701,1.712612,0.273940,-0.036250,-0.040143,0.485992,-0.045428,-3.064410,2.231315,0.305594,-0.171690,0.502488,0.953456,0.049272,0.004073,0.000000,0.227317,0.310680,0.000000
3.420000,0.255983,-0.047616,-1.460066,1.712057,0.278912,-0.036688,-0.070797,0.508341,-0.042327,-3.066048,2.239060,0.314409,-0.030175,0.765338,0.829273,0.051549,0.007186,0.000000,0.228180,0.311000,0.000000
3.430000,0.273100,-0.044801,-1.460435,1.711196,0.284107,-0.037096,-0.101446,0.530751,-0.039142,-3.062374,2.240721,0.322598,0.768215,-0.442633,0.809462,0.053833,0.010300,0.000000,0.228421,0.310782,0.000000
3.440000,0.290206,-0.041933,-1.460808,1.710029,0.289527,-0.037471,-0.132025,0.553132,-0.035877,-3.053253,2.235862,0.330205,0.927609,-0.246793,0.692285,0.056115,0.013408,0.000000,0.227996,0.310010,0.000000
3.450000,0.307299,-0.039010,-1.461184,1.708556,0.295170,-0.037813,-0.162508,0.575481,-0.032542,-3.042760,2.233377,0.336617,1.297126,-0.532400,0.610662,0.058394,0.016509,0.000000,0.227802,0.309096,0.000000
3.460000,0.324376,-0.036029,-1.461564,1.706779,0.301036,-0.038122,-0.192868,0.597791,-0.029146,-3.028738,2.228517,0.342484,1.637038,-0.764382,0.533517,0.060670,0.019600,0.000000,0.227360,0.307822,0.000000
3.470000,0.341434,-0.032988,-1.461947,1.704699,0.307125,-0.038396,-0.223061,0.620017,-0.025697,-3.008841,2.215102,0.347023,2.214002,-1.603327,0.403549,0.062938,0.022675,0.000000,0.226040,0.305946,0.000000
3.480000,0.358469,-0.029885,-1.462332,1.702319,0.313436,-0.038635,-0.253040,0.642100,-0.022207,-2.987154,2.203069,0.351169,2.118032,-0.793415,0.426964,0.065192,0.025730,0.000000,0.224854,0.303884,-0.000000
3.490000,0.375479,-0.026719,-1.462719,1.699639,0.319967,-0.038840,-0.282800,0.664087,-0.018675,-2.963939,2.192860,0.354991,2.651607,-1.566307,0.308899,0.067436,0.028765,0.000000,0.223847,0.301662,0.000000
3.500000,0.392461,-0.023485,-1.463109,1.696663,0.326717,-0.039009,-0.312298,0.685925,-0.015111,-2.935243,2.174446,0.357605,2.958317,-1.799389,0.243463,0.069665,0.031775,0.000000,0.221998,0.298877,0.000000
3.510000,0.409411,-0.020184,-1.463499,1.693394,0.333685,-0.039142,-0.341500,0.707576,-0.011523,-2.904546,2.155332,0.359901,3.255253,-2.049617,0.183320,0.071876,0.034757,0.000000,0.220072,0.295882,0.000000
3.520000,0.426328,-0.016811,-1.463891,1.689835,0.340868,-0.039239,-0.370374,0.729021,-0.007918,-2.869474,2.133211,0.360980,3.683985,-2.349170,0.065090,0.074066,0.037706,0.000000,0.217831,0.292435,0.000000
3.530000,0.443207,-0.013366,-1.464284,1.685988,0.348265,-0.039300,-0.398883,0.750233,-0.004304,-2.832442,2.108886,0.361888,3.718509,-2.515047,0.118048,0.076232,0.040621,0.000000,0.215362,0.288783,-0.000000
3.540000,0.460047,-0.009845,-1.464677,1.681858,0.355872,-0.039325,-0.427017,0.771192,-0.000680,-2.793651,2.082391,0.362706,4.112178,-2.809745,0.013903,0.078372,0.043498,0.000000,0.212672,0.284946,-0.000000
3.550000,0.476843,-0.006247,-1.465070,1.677449,0.363688,-0.039314,-0.454742,0.791870,0.002946,-2.750863,2.052909,0.362452,4.369977,-3.061088,-0.031715,0.080484,0.046336,0.000000,0.209669,0.280695,0.000000
3.560000,0.493595,-0.002571,-1.465463,1.672765,0.371708,-0.039266,-0.482026,0.812236,0.006569,-2.705460,2.019648,0.362073,4.630977,-3.341987,-0.072334,0.082564,0.049130,0.000000,0.206282,0.276173,-0.000000
3.570000,0.510298,0.001187,-1.465856,1.667810,0.379931,-0.039183,-0.508849,0.832274,0.010184,-2.658995,1.988362,0.360751,4.735831,-3.156631,-0.163357,0.084611,0.051878,0.000000,0.203086,0.271533,-0.000000
3.580000,0.526950,0.005029,-1.466247,1.662589,0.388353,-0.039063,-0.535194,0.851982,0.013784,-2.609193,1.951444,0.359408,5.224999,-4.234260,-0.103711,0.086624,0.054578,0.000000,0.199321,0.266550,-0.000000
3.590000,0.543549,0.008955,-1.466637,1.657108,0.396969,-0.038907,-0.561021,0.871281,0.017372,-2.556062,1.908576,0.358121,5.322985,-4.094706,-0.181646,0.088595,0.057228,0.000000,0.194956,0.261225,-0.000000
3.600000,0.560091,0.012969,-1.467025,1.651371,0.405777,-0.038715,-0.586314,0.890164,0.020943,-2.502125,1.867490,0.356027,5.538388,-4.365036,-0.208128,0.090524,0.059823,0.000000,0.190765,0.255809,0.000000
3.610000,0.576575,0.017071,-1.467411,1.645383,0.414771,-0.038488,-0.611057,0.908620,0.024493,-2.446238,1.823456,0.353930,5.726541,-4.597408,-0.230784,0.092409,0.062364,0.000000,0.186278,0.250193,-0.000000
3.620000,0.592998,0.021265,-1.467795,1.639151,0.423948,-0.038226,-0.635225,0.926613,0.028019,-2.386812,1.774121,0.351236,6.069622,-5.116806,-0.288019,0.094247,0.064847,0.000000,0.181254,0.244210,-0.000000
3.630000,0.609358,0.025551,-1.468175,1.632681,0.433302,-0.037928,-0.658791,0.944102,0.031518,-2.326714,1.724331,0.348591,5.945101,-4.835192,-0.239901,0.096034,0.067270,0.000000,0.176187,0.238156,-0.000000
3.640000,0.625651,0.029931,-1.468553,1.625978,0.442828,-0.037595,-0.681759,0.961100,0.034992,-2.266193,1.674365,0.346051,6.244709,-5.310422,-0.287463,0.097771,0.069632,0.000000,0.171106,0.232057,0.000000
3.650000,0.641876,0.034408,-1.468927,1.619048,0.452522,-0.037228,-0.704104,0.977571,0.038437,-2.202608,1.619449,0.343017,6.382640,-5.518682,-0.299104,0.099454,0.071932,0.000000,0.165526,0.225642,-0.000000
3.660000,0.658031,0.038982,-1.469297,1.611898,0.462378,-0.036827,-0.725809,0.993486,0.041852,-2.138256,1.563235,0.340027,6.510964,-5.728910,-0.308118,0.101081,0.074167,0.000000,0.159820,0.219147,0.000000
3.670000,0.674114,0.043656,-1.469664,1.604534,0.472390,-0.036391,-0.746863,1.008828,0.045237,-2.072191,1.504840,0.336787,6.674770,-5.942927,-0.331359,0.102650,0.076337,0.000000,0.153897,0.212475,0.000000
3.680000,0.690121,0.048431,-1.470025,1.596963,0.482552,-0.035922,-0.767250,1.023576,0.048588,-2.005328,1.444524,0.333580,6.695077,-6.118802,-0.309477,0.104159,0.078439,0.000000,0.147786,0.205721,-0.000000
3.690000,0.706052,0.053308,-1.470382,1.589191,0.492859,-0.035420,-0.786967,1.037712,0.051908,-1.937824,1.382373,0.330435,6.828872,-6.315826,-0.327555,0.105605,0.080473,0.000000,0.141496,0.198902,-0.000000
3.700000,0.721904,0.058288,-1.470733,1.581226,0.503305,-0.034884,-0.806002,1.051217,0.055196,-1.869007,1.318285,0.327104,6.907496,-6.494532,-0.330156,0.106988,0.082439,0.000000,0.135014,0.191947,-0.000000
3.710000,0.737676,0.063374,-1.471079,1.573073,0.513882,-0.034316,-0.824346,1.064073,0.058451,-1.799699,1.252589,0.323781,6.973309,-6.662772,-0.332375,0.108305,0.084334,0.000000,0.128376,0.184943,0.000000
3.720000,0.753365,0.068566,-1.471420,1.564741,0.524584,-0.033715,-0.841992,1.076262,0.061672,-1.729385,1.184880,0.320476,7.066981,-6.858530,-0.330372,0.109555,0.086159,0.000000,0.121542,0.177835,0.000000
3.730000,0.768970,0.073866,-1.471754,1.556236,0.535405,-0.033082,-0.858933,1.087766,0.064860,-1.658832,1.115846,0.317140,7.041047,-6.946222,-0.336820,0.110735,0.087912,0.000000,0.114579,0.170704,-0.000000
3.740000,0.784489,0.079275,-1.472081,1.547565,0.546337,-0.032418,-0.875169,1.098575,0.068015,-1.588185,1.045604,0.313776,7.107273,-7.119559,-0.333975,0.111846,0.089594,0.000000,0.107500,0.163562,0.000000
3.750000,0.799921,0.084793,-1.472402,1.538735,0.557374,-0.031722,-0.890694,1.108672,0.071136,-1.516900,0.973648,0.310439,7.127038,-7.250939,-0.334525,0.112885,0.091204,0.000000,0.100254,0.156355,-0.000000
3.760000,0.815264,0.090423,-1.472716,1.529753,0.568508,-0.030995,-0.905507,1.118045,0.074223,-1.445650,0.900642,0.307042,7.135521,-7.371276,-0.335755,0.113851,0.092741,0.000000,0.092906,0.149151,-0.000000
3.770000,0.830516,0.096164,-1.473022,1.520627,0.579732,-0.030238,-0.919606,1.126679,0.077277,-1.374092,0.826049,0.303807,7.160296,-7.523835,-0.320161,0.114742,0.094206,0.000000,0.085405,0.141917,0.000000
3.780000,0.845676,0.102018,-1.473320,1.511363,0.591039,-0.029450,-0.932990,1.134563,0.080299,-1.302773,0.750657,0.300451,7.101461,-7.552059,-0.351505,0.115559,0.095599,0.000000,0.077825,0.134706,-0.000000
3.790000,0.860743,0.107985,-1.473611,1.501970,0.602421,-0.028632,-0.945663,1.141690,0.083286,-1.231813,0.674599,0.296954,7.102873,-7.679994,-0.338860,0.116299,0.096919,0.000000,0.070180,0.127530,-0.000000
3.800000,0.875715,0.114066,-1.473893,1.492453,0.613870,-0.027784,-0.957626,1.148050,0.086238,-1.160869,0.597279,0.293592,7.070495,-7.760322,-0.342450,0.116962,0.098167,0.000000,0.062413,0.120355,-0.000000
3.810000,0.890591,0.120262,-1.474166,1.482819,0.625379,-0.026907,-0.968882,1.153634,0.089157,-1.090383,0.519414,0.290075,7.029124,-7.829713,-0.347895,0.117547,0.099342,0.000000,0.054590,0.113224,-0.000000
3.820000,0.905371,0.126574,-1.474431,1.473077,0.636940,-0.026001,-0.979435,1.158435,0.092041,-1.020279,0.440547,0.286753,6.986323,-7.923818,-0.329531,0.118053,0.100447,0.000000,0.046670,0.106133,-0.000000
3.830000,0.920052,0.133001,-1.474686,1.463233,0.648545,-0.025067,-0.989289,1.162444,0.094891,-0.950770,0.361353,0.283208,6.913771,-7.912617,-0.380251,0.118480,0.101480,0.000000,0.038715,0.099099,-0.000000
3.840000,0.934635,0.139545,-1.474932,1.453294,0.660186,-0.024104,-0.998452,1.165662,0.097704,-0.881951,0.281961,0.279406,6.852832,-7.982376,-0.367142,0.118827,0.102443,0.000000,0.030737,0.092130,-0.000000
3.850000,0.949118,0.146205,-1.475168,1.443266,0.671856,-0.023113,-1.006930,1.168081,0.100480,-0.813776,0.201895,0.275744,6.776824,-8.010763,-0.378132,0.119095,0.103336,0.000000,0.022691,0.085226,0.000000
3.860000,0.963500,0.152982,-1.475394,1.433157,0.683545,-0.022094,-1.014731,1.169700,0.103218,-0.746418,0.121801,0.271826,6.693290,-8.027686,-0.391313,0.119281,0.104160,0.000000,0.014637,0.078400,-0.000000
3.870000,0.977781,0.159876,-1.475610,1.422974,0.695247,-0.021049,-1.021862,1.170515,0.105917,-0.679938,0.041179,0.268045,6.601697,-8.074369,-0.379286,0.119387,0.104916,0.000000,0.006528,0.071662,-0.000000
3.880000,0.991959,0.166887,-1.475815,1.412722,0.706953,-0.019976,-1.028333,1.170524,0.108578,-0.614402,-0.039217,0.263941,6.504367,-8.002576,-0.442111,0.119412,0.105604,0.000000,-0.001566,0.065013,0.000000
3.890000,1.006035,0.174015,-1.476009,1.402409,0.718655,-0.018877,-1.034153,1.169732,0.111195,-0.549879,-0.119258,0.259479,6.398762,-8.024943,-0.436652,0.119356,0.106225,0.000000,-0.009633,0.058460,-0.000000
3.900000,1.020007,0.181260,-1.476193,1.392041,0.730345,-0.017752,-1.039334,1.168138,0.113768,-0.486446,-0.199506,0.255082,6.287129,-8.001995,-0.457144,0.119219,0.106782,0.000000,-0.017725,0.052015,0.000000
3.910000,1.033876,0.188622,-1.476364,1.381625,0.742015,-0.016602,-1.043886,1.165744,0.116295,-0.424274,-0.279261,0.250343,6.166881,-7.968389,-0.479139,0.119002,0.107274,0.000000,-0.025779,0.045690,-0.000000
3.920000,1.047640,0.196100,-1.476524,1.371166,0.753657,-0.015427,-1.047822,1.162552,0.118775,-0.362940,-0.359036,0.245620,6.079192,-7.964744,-0.478707,0.118703,0.107702,0.000000,-0.033841,0.039447,-0.000000
3.930000,1.061299,0.203695,-1.476673,1.360670,0.765263,-0.014227,-1.051150,1.158566,0.121206,-0.303125,-0.438094,0.240492,5.882181,-7.844637,-0.547545,0.118325,0.108069,0.000000,-0.041844,0.033349,-0.000000
3.940000,1.074853,0.211406,-1.476809,1.350145,0.776826,-0.013003,-1.053890,1.153793,0.123583,-0.244910,-0.516314,0.234924,5.780149,-7.818416,-0.553508,0.117867,0.108374,0.000000,-0.049776,0.027404,0.000000
3.950000,1.088302,0.219231,-1.476933,1.339595,0.788337,-0.011755,-1.056052,1.148240,0.125905,-0.187712,-0.594258,0.229309,5.639279,-7.748328,-0.583031,0.117329,0.108621,0.000000,-0.057689,0.021558,-0.000000
3.960000,1.101645,0.227172,-1.477044,1.329026,0.799788,-0.010485,-1.057648,1.141911,0.128168,-0.131870,-0.671353,0.223265,5.499000,-7.670782,-0.614830,0.116713,0.108809,0.000000,-0.065531,0.015841,0.000000
3.970000,1.114882,0.235227,-1.477142,1.318443,0.811172,-0.009192,-1.058696,1.134815,0.130370,-0.078015,-0.747660,0.217110,5.300028,-7.587786,-0.627398,0.116019,0.108941,0.000000,-0.073305,0.010319,0.000000
3.980000,1.128014,0.243395,-1.477228,1.307853,0.822482,-0.007878,-1.059212,1.126961,0.132508,-0.025283,-0.823050,0.210484,5.246638,-7.488821,-0.698257,0.115247,0.109017,0.000000,-0.081002,0.004901,0.000000
3.990000,1.141039,0.251676,-1.477300,1.297261,0.833709,-0.006542,-1.059205,1.118358,0.134578,0.026331,-0.897441,0.203358,5.046873,-7.389538,-0.716278,0.114399,0.109040,0.000000,-0.088614,-0.000413,-0.000000
4.000000,1.153959,0.260069,-1.477359,1.286671,0.844847,-0.005186,-1.058693,1.109016,0.136575,0.075888,-0.970802,0.196066,4.892893,-7.280006,-0.753824,0.113476,0.109010,0.000000,-0.096134,-0.005524,0.000000
4.010000,1.166773,0.268573,-1.477404,1.276089,0.855887,-0.003811,-1.057692,1.098946,0.138497,0.124095,-1.042908,0.188294,4.735778,-7.160876,-0.793060,0.112477,0.108929,0.000000,-0.103543,-0.010509,0.000000
4.020000,1.179481,0.277187,-1.477435,1.265519,0.866823,-0.002417,-1.056217,1.088160,0.140340,0.170483,-1.114189,0.180273,4.553219,-7.073842,-0.818853,0.111405,0.108799,0.000000,-0.110882,-0.015315,-0.000000
4.030000,1.192083,0.285909,-1.477452,1.254966,0.877648,-0.001004,-1.054287,1.076667,0.142101,0.215403,-1.183935,0.171754,4.430793,-6.873719,-0.885368,0.110260,0.108621,0.000000,-0.118082,-0.019982,0.000000
4.040000,1.204580,0.294739,-1.477455,1.244435,0.888354,0.000425,-1.051914,1.064487,0.143774,0.258851,-1.252053,0.162716,4.246488,-6.769344,-0.914737,0.109044,0.108397,0.000000,-0.125132,-0.024509,0.000000
4.050000,1.216972,0.303676,-1.477443,1.233929,0.898935,0.001871,-1.049116,1.051630,0.145354,0.300425,-1.319128,0.153393,4.080495,-6.624114,-0.957763,0.107758,0.108129,0.000000,-0.132089,-0.028852,0.000000
4.060000,1.229259,0.312717,-1.477417,1.223454,0.909385,0.003332,-1.045911,1.038110,0.146840,0.340282,-1.384544,0.143576,3.910114,-6.472881,-1.001479,0.106402,0.107817,0.000000,-0.138893,-0.033029,0.000000
4.070000,1.241441,0.321863,-1.477377,1.213012,0.919695,0.004807,-1.042315,1.023943,0.148225,0.378802,-1.448703,0.133400,3.774821,-6.343855,-1.037850,0.104980,0.107465,0.000000,-0.145582,-0.037078,0.000000
4.080000,1.253519,0.331111,-1.477321,1.202609,0.929861,0.006296,-1.038342,1.009142,0.149506,0.415378,-1.511105,0.122732,3.539638,-6.135354,-1.095872,0.103491,0.107072,0.000000,-0.152106,-0.040936,0.000000
4.090000,1.265493,0.340460,-1.477251,1.192246,0.939876,0.007797,-1.034014,0.993727,0.150678,0.449975,-1.571684,0.111565,3.398721,-5.994062,-1.133574,0.101938,0.106642,0.000000,-0.158457,-0.044602,0.000000
4.100000,1.277364,0.349908,-1.477165,1.181929,0.949734,0.009309,-1.029347,0.977713,0.151736,0.483189,-1.630851,0.100026,3.225095,-5.824323,-1.178138,0.100323,0.106176,0.000000,-0.164675,-0.048132,0.000000
4.110000,1.289132,0.359454,-1.477064,1.171661,0.959428,0.010831,-1.024356,0.961115,0.152677,0.514680,-1.688310,0.088010,3.054435,-5.653495,-1.223049,0.098646,0.105675,0.000000,-0.170729,-0.051494,-0.000000
4.120000,1.300798,0.369096,-1.476948,1.161443,0.968954,0.012362,-1.019060,0.943953,0.153495,0.544101,-1.743790,0.075577,2.848381,-5.454829,-1.264725,0.096909,0.105142,0.000000,-0.176592,-0.054650,0.000000
4.130000,1.312361,0.378832,-1.476817,1.151280,0.978306,0.013901,-1.013479,0.926245,0.154187,0.572038,-1.797664,0.062687,2.739654,-5.319890,-1.313233,0.095114,0.104578,0.000000,-0.182299,-0.057661,0.000000
4.140000,1.323823,0.388661,-1.476670,1.141175,0.987477,0.015446,-1.007624,0.908005,0.154747,0.598521,-1.849922,0.049342,2.538336,-5.118466,-1.354252,0.093263,0.103984,0.000000,-0.187848,-0.060530,0.000000
4.150000,1.335185,0.398581,-1.476508,1.131129,0.996464,0.016995,-1.001516,0.889253,0.155172,0.622967,-1.900136,0.035594,2.369669,-4.936772,-1.396808,0.091358,0.103362,0.000000,-0.193194,-0.063194,-0.000000
4.160000,1.346446,0.408590,-1.476330,1.121145,1.005261,0.018549,-0.995170,0.870008,0.155458,0.645841,-1.948617,0.021422,2.201191,-4.753058,-1.438338,0.089400,0.102715,0.000000,-0.198368,-0.065702,0.000000
4.170000,1.357608,0.418686,-1.476137,1.111226,1.013863,0.020104,-0.988605,0.850288,0.155599,0.666958,-1.995137,0.006822,2.026309,-4.556616,-1.480662,0.087391,0.102044,0.000000,-0.203345,-0.068034,-0.000000
4.180000,1.368671,0.428867,-1.475928,1.101374,1.022265,0.021660,-0.981836,0.830111,0.155593,0.686455,-2.039868,-0.008167,1.873486,-4.389518,-1.516829,0.085334,0.101350,0.000000,-0.208141,-0.070204,-0.000000
4.190000,1.379636,0.439130,-1.475704,1.091590,1.030463,0.023215,-0.974881,0.809496,0.155435,0.704353,-2.082807,-0.023530,1.702565,-4.192274,-1.556430,0.083229,0.100635,0.000000,-0.212754,-0.072212,0.000000
4.200000,1.390503,0.449475,-1.475464,1.081877,1.038454,0.024768,-0.967755,0.788462,0.155121,0.720540,-2.123762,-0.039281,1.539664,-4.004520,-1.592844,0.081079,0.099901,0.000000,-0.217163,-0.074047,-0.000000
4.210000,1.401274,0.459899,-1.475209,1.072235,1.046231,0.026317,-0.960475,0.767027,0.154648,0.735153,-2.162927,-0.055369,1.379202,-3.817381,-1.627371,0.078886,0.099150,0.000000,-0.221386,-0.075722,-0.000000
4.220000,1.411948,0.470399,-1.474938,1.062668,1.053793,0.027861,-0.953058,0.745210,0.154012,0.748092,-2.200008,-0.071851,1.213054,-3.609627,-1.665819,0.076652,0.098383,0.000000,-0.225392,-0.077227,-0.000000
4.230000,1.422527,0.480974,-1.474651,1.053175,1.061134,0.029397,-0.945519,0.723032,0.153210,0.759507,-2.235346,-0.088616,1.070421,-3.458322,-1.686757,0.074379,0.097601,0.000000,-0.229214,-0.078575,0.000000
4.240000,1.433012,0.491621,-1.474350,1.043758,1.068252,0.030924,-0.937872,0.700509,0.152239,0.769427,-2.268960,-0.105639,0.909938,-3.253689,-1.720413,0.072069,0.096807,0.000000,-0.232852,-0.079770,-0.000000
4.250000,1.443403,0.502338,-1.474033,1.034417,1.075143,0.032441,-0.930135,0.677660,0.151096,0.777747,-2.300516,-0.122997,0.758821,-3.068351,-1.747259,0.069723,0.096002,0.000000,-0.236271,-0.080800,0.000000
4.260000,1.453700,0.513123,-1.473701,1.025155,1.081805,0.033946,-0.922322,0.654505,0.149778,0.784617,-2.330347,-0.140568,0.610876,-2.884839,-1.771177,0.067344,0.095188,0.000000,-0.239504,-0.081679,0.000000
4.270000,1.463906,0.523973,-1.473354,1.015971,1.088233,0.035436,-0.914448,0.631061,0.148284,0.789931,-2.358095,-0.158455,0.457011,-2.677890,-1.801315,0.064934,0.094365,0.000000,-0.242513,-0.082397,-0.000000
4.280000,1.474020,0.534887,-1.472992,1.006866,1.094425,0.036911,-0.906528,0.607348,0.146609,0.793863,-2.384179,-0.176491,0.330200,-2.539605,-1.805277,0.062494,0.093537,0.000000,-0.245338,-0.082971,-0.000000
4.290000,1.484044,0.545861,-1.472616,0.997841,1.100379,0.038368,-0.898575,0.583382,0.144753,0.796452,-2.408633,-0.194643,0.183359,-2.338513,-1.829062,0.060027,0.092703,0.000000,-0.247983,-0.083403,-0.000000
4.300000,1.493977,0.556894,-1.472225,0.988895,1.106092,0.039805,-0.890604,0.559182,0.142715,0.797588,-2.431066,-0.213031,0.048333,-2.161318,-1.842830,0.057535,0.091866,0.000000,-0.250407,-0.083684,-0.000000
4.310000,1.503822,0.567982,-1.471820,0.980029,1.111562,0.041221,-0.882628,0.534766,0.140493,0.797436,-2.451874,-0.231483,-0.083233,-1.986853,-1.853065,0.055020,0.091027,0.000000,-0.252648,-0.083828,0.000000
4.320000,1.513578,0.579124,-1.471401,0.971242,1.116786,0.042615,-0.874660,0.510152,0.138085,0.795888,-2.470685,-0.250137,-0.220805,-1.788953,-1.871383,0.052483,0.090188,0.000000,-0.254668,-0.083825,0.000000
4.330000,1.523247,0.590317,-1.470968,0.962535,1.121764,0.043983,-0.866714,0.485358,0.135490,0.793138,-2.487940,-0.268780,-0.328434,-1.662954,-1.856617,0.049927,0.089349,0.000000,-0.256511,-0.083694,0.000000
4.340000,1.532829,0.601559,-1.470521,0.953908,1.126493,0.045324,-0.858801,0.460398,0.132709,0.789231,-2.503683,-0.287375,-0.457268,-1.472582,-1.867539,0.047353,0.088512,0.000000,-0.258181,-0.083439,0.000000
4.350000,1.542325,0.612846,-1.470061,0.945359,1.130972,0.046636,-0.850934,0.435291,0.129742,0.784046,-2.517514,-0.306071,-0.573753,-1.307532,-1.865444,0.044764,0.087679,0.000000,-0.259636,-0.083048,-0.000000
4.360000,1.551736,0.624177,-1.469589,0.936889,1.135198,0.047918,-0.843124,0.410052,0.126588,0.777774,-2.529844,-0.324665,-0.685717,-1.145735,-1.859644,0.042161,0.086850,0.000000,-0.260917,-0.082540,0.000000
4.370000,1.561063,0.635549,-1.469103,0.928497,1.139172,0.049167,-0.835383,0.384700,0.123248,0.770293,-2.540318,-0.343317,-0.804189,-0.962194,-1.863468,0.039547,0.086027,0.000000,-0.261989,-0.081903,-0.000000
4.380000,1.570307,0.646960,-1.468605,0.920181,1.142892,0.050382,-0.827721,0.359251,0.119723,0.761821,-2.549364,-0.361782,-0.889346,-0.847875,-1.828717,0.036922,0.085211,0.000000,-0.262894,-0.081158,-0.000000
4.390000,1.579467,0.658406,-1.468096,0.911942,1.146357,0.051561,-0.820149,0.333717,0.116014,0.752409,-2.557028,-0.380016,-0.998040,-0.672622,-1.824374,0.034289,0.084403,0.000000,-0.263637,-0.080310,-0.000000
4.400000,1.588546,0.669886,-1.467574,0.903778,1.149566,0.052702,-0.812677,0.308116,0.112122,0.741922,-2.562934,-0.398199,-1.092788,-0.521903,-1.804931,0.031650,0.083604,0.000000,-0.264179,-0.079347,0.000000
4.410000,1.597543,0.681397,-1.467042,0.895688,1.152519,0.053803,-0.805314,0.282463,0.108051,0.730573,-2.567471,-0.416096,-1.182656,-0.374589,-1.781619,0.029006,0.082815,0.000000,-0.264561,-0.078289,0.000000
4.420000,1.606460,0.692936,-1.466498,0.887671,1.155215,0.054862,-0.798069,0.256773,0.103801,0.718226,-2.570330,-0.433890,-1.279829,-0.208862,-1.769189,0.026359,0.082038,0.000000,-0.264750,-0.077124,-0.000000
4.430000,1.615297,0.704500,-1.465945,0.879726,1.157654,0.055878,-0.790952,0.231061,0.099374,0.705122,-2.571890,-0.451311,-1.340096,-0.103944,-1.714150,0.023712,0.081273,0.000000,-0.264786,-0.075874,0.000000
4.440000,1.624054,0.716088,-1.465381,0.871852,1.159836,0.056849,-0.783969,0.205339,0.094776,0.691315,-2.572195,-0.468313,-1.426745,0.053693,-1.693175,0.021064,0.080520,0.000000,-0.264673,-0.074546,0.000000
4.450000,1.632734,0.727696,-1.464808,0.864046,1.161761,0.057773,-0.777128,0.179622,0.090008,0.676657,-2.570922,-0.485097,-1.497905,0.189436,-1.655739,0.018419,0.079782,0.000000,-0.264379,-0.073125,-0.000000
4.460000,1.641336,0.739322,-1.464226,0.856309,1.163429,0.058649,-0.770437,0.153925,0.085076,0.661378,-2.568406,-0.501410,-1.564004,0.322080,-1.614433,0.015777,0.079058,0.000000,-0.263939,-0.071635,0.000000
4.470000,1.649860,0.750964,-1.463635,0.848637,1.164840,0.059474,-0.763903,0.128259,0.079981,0.645330,-2.564408,-0.517449,-1.638214,0.468428,-1.584881,0.013141,0.078349,0.000000,-0.263329,-0.070061,0.000000
4.480000,1.658309,0.762618,-1.463036,0.841030,1.165994,0.060248,-0.757533,0.102640,0.074729,0.628771,-2.559227,-0.532930,-1.672514,0.567147,-1.510420,0.010511,0.077657,0.000000,-0.262580,-0.068428,-0.000000
4.490000,1.666681,0.774283,-1.462430,0.833486,1.166893,0.060968,-0.751329,0.077078,0.069325,0.611760,-2.552901,-0.547806,-1.735681,0.706211,-1.472229,0.007889,0.076981,0.000000,-0.261697,-0.066743,-0.000000
4.500000,1.674978,0.785955,-1.461817,0.826003,1.167536,0.061634,-0.745299,0.051587,0.063773,0.594132,-2.545184,-0.562299,-1.782454,0.828003,-1.417450,0.005278,0.076322,0.000000,-0.260656,-0.064991,-0.000000
4.510000,1.683201,0.797633,-1.461198,0.818579,1.167925,0.062243,-0.739448,0.026178,0.058081,0.576131,-2.536335,-0.576142,-1.824022,0.947100,-1.358751,0.002677,0.075681,0.000000,-0.259485,-0.063195,-0.000000
4.520000,1.691350,0.809313,-1.460572,0.811213,1.168060,0.062795,-0.733779,0.000865,0.052252,0.557601,-2.526198,-0.589539,-1.874174,1.074363,-1.312149,0.000088,0.075058,0.000000,-0.258168,-0.061341,-0.000000
4.530000,1.699426,0.820993,-1.459942,0.803903,1.167943,0.063288,-0.728297,-0.024342,0.046292,0.538810,-2.514972,-0.602207,-1.883038,1.170266,-1.220698,-0.002486,0.074454,0.000000,-0.256726,-0.059455,0.000000
4.540000,1.707428,0.832671,-1.459307,0.796647,1.167574,0.063721,-0.723003,-0.049431,0.040210,0.519816,-2.502689,-0.614104,-1.922118,1.291702,-1.166139,-0.005046,0.073869,0.000000,-0.255165,-0.057542,0.000000
4.550000,1.715359,0.844344,-1.458668,0.789442,1.166954,0.064092,-0.717902,-0.074392,0.034012,0.500445,-2.489196,-0.625454,-1.944393,1.401229,-1.095091,-0.007589,0.073304,0.000000,-0.253470,-0.055588,-0.000000
4.560000,1.723217,0.856009,-1.458025,0.782288,1.166086,0.064400,-0.712995,-0.099212,0.027704,0.480946,-2.474655,-0.635996,-1.961633,1.508810,-1.020711,-0.010115,0.072758,0.000000,-0.251660,-0.053616,0.000000
4.570000,1.731005,0.867665,-1.457380,0.775182,1.164971,0.064646,-0.708284,-0.123881,0.021294,0.461163,-2.459005,-0.645930,-1.987272,1.618689,-0.958039,-0.012622,0.072231,0.000000,-0.249728,-0.051612,0.000000
4.580000,1.738721,0.879308,-1.456732,0.768122,1.163609,0.064826,-0.703771,-0.148388,0.014789,0.441359,-2.442335,-0.654990,-1.972645,1.714784,-0.853371,-0.015109,0.071725,0.000000,-0.247686,-0.049601,-0.000000
4.590000,1.746367,0.890936,-1.456084,0.761106,1.162003,0.064941,-0.699456,-0.172724,0.008197,0.421588,-2.424670,-0.663141,-1.987508,1.820339,-0.783964,-0.017575,0.071239,0.000000,-0.245537,-0.047589,-0.000000
4.600000,1.753944,0.902547,-1.455434,0.754132,1.160155,0.064990,-0.695340,-0.196878,0.001528,0.401679,-2.405953,-0.670596,-1.986483,1.920348,-0.699181,-0.020019,0.070773,0.000000,-0.243278,-0.045561,-0.000000
4.610000,1.761450,0.914138,-1.454784,0.747198,1.158066,0.064971,-0.691422,-0.220840,-0.005211,0.381890,-2.386252,-0.677120,-1.980202,2.018884,-0.611919,-0.022440,0.070328,0.000000,-0.240916,-0.043541,-0.000000
4.620000,1.768888,0.925707,-1.454135,0.740303,1.155739,0.064885,-0.687703,-0.244600,-0.012012,0.362000,-2.365588,-0.682888,-1.987608,2.114454,-0.534955,-0.024837,0.069902,0.000000,-0.238455,-0.041508,-0.000000
4.630000,1.776256,0.937252,-1.453487,0.733443,1.153175,0.064731,-0.684182,-0.268149,-0.018866,0.342348,-2.343952,-0.687677,-1.941805,2.212369,-0.422317,-0.027209,0.069497,0.000000,-0.235897,-0.039495,-0.000000
4.640000,1.783557,0.948770,-1.452840,0.726618,1.150377,0.064508,-0.680855,-0.291476,-0.025762,0.322988,-2.321359,-0.691459,-1.938986,2.305265,-0.340329,-0.029555,0.069112,0.000000,-0.233243,-0.037508,-0.000000
4.650000,1.790789,0.960259,-1.452197,0.719826,1.147346,0.064216,-0.677722,-0.314573,-0.032692,0.303666,-2.297845,-0.694420,-1.915819,2.398101,-0.245441,-0.031874,0.068747,0.000000,-0.230500,-0.035523,-0.000000
4.660000,1.797953,0.971716,-1.451556,0.713063,1.144086,0.063854,-0.674781,-0.337430,-0.039647,0.284629,-2.273385,-0.696367,-1.889629,2.490134,-0.149021,-0.034165,0.068401,0.000000,-0.227665,-0.033564,0.000000
4.670000,1.805050,0.983140,-1.450920,0.706329,1.140599,0.063423,-0.672028,-0.360038,-0.046617,0.265897,-2.248080,-0.697445,-1.857353,2.574146,-0.061182,-0.036427,0.068075,0.000000,-0.224752,-0.031633,-0.000000
4.680000,1.812080,0.994528,-1.450288,0.699622,1.136886,0.062922,-0.669462,-0.382388,-0.053593,0.247470,-2.221830,-0.697480,-1.827567,2.675945,0.054601,-0.038659,0.067768,0.000000,-0.221750,-0.029729,-0.000000
4.690000,1.819043,1.005877,-1.449662,0.692940,1.132952,0.062351,-0.667078,-0.404471,-0.060563,0.229382,-2.194637,-0.696454,-1.788281,2.758795,0.145543,-0.040861,0.067480,0.000000,-0.218662,-0.027857,0.000000
4.700000,1.825939,1.017186,-1.449041,0.686280,1.128798,0.061710,-0.664873,-0.426278,-0.067519,0.211707,-2.166629,-0.694523,-1.747375,2.846721,0.245981,-0.043032,0.067210,0.000000,-0.215503,-0.026024,-0.000000
4.710000,1.832768,1.028452,-1.448428,0.679642,1.124427,0.061000,-0.662842,-0.447801,-0.074450,0.194499,-2.137698,-0.691544,-1.702155,2.934290,0.346958,-0.045171,0.066959,0.000000,-0.212261,-0.024235,0.000000
4.720000,1.839532,1.039674,-1.447821,0.673023,1.119843,0.060221,-0.660982,-0.469030,-0.081346,0.177598,-2.107992,-0.687608,-1.669399,3.011612,0.443011,-0.047277,0.066725,0.000000,-0.208955,-0.022475,-0.000000
4.730000,1.846229,1.050848,-1.447223,0.666421,1.115048,0.059374,-0.659288,-0.489957,-0.088199,0.161292,-2.077364,-0.682626,-1.590889,3.113984,0.553478,-0.049350,0.066509,0.000000,-0.205570,-0.020771,-0.000000
4.740000,1.852860,1.061974,-1.446634,0.659836,1.110045,0.058458,-0.657754,-0.510574,-0.094995,0.145625,-2.045814,-0.676594,-1.550418,3.190886,0.650120,-0.051389,0.066309,0.000000,-0.202107,-0.019129,-0.000000
4.750000,1.859426,1.073049,-1.446054,0.653266,1.104837,0.057474,-0.656374,-0.530871,-0.101727,0.130365,-2.013504,-0.669600,-1.493056,3.275813,0.751316,-0.053392,0.066125,0.000000,-0.198584,-0.017524,0.000000
4.760000,1.865925,1.084070,-1.445485,0.646708,1.099428,0.056423,-0.655144,-0.550841,-0.108384,0.115767,-1.980283,-0.661581,-1.432881,3.360609,0.851829,-0.055360,0.065958,0.000000,-0.194987,-0.015984,-0.000000
4.770000,1.872360,1.095036,-1.444926,0.640162,1.093821,0.055307,-0.654057,-0.570475,-0.114956,0.101653,-1.946365,-0.652569,-1.382996,3.430364,0.950906,-0.057292,0.065805,0.000000,-0.191338,-0.014488,0.000000
4.780000,1.878729,1.105946,-1.444379,0.633627,1.088020,0.054125,-0.653109,-0.589765,-0.121432,0.088254,-1.911519,-0.642558,-1.296196,3.538918,1.051224,-0.059186,0.065667,0.000000,-0.187615,-0.013062,-0.000000
4.790000,1.885032,1.116796,-1.443844,0.627100,1.082027,0.052878,-0.652290,-0.608702,-0.127803,0.075602,-1.875741,-0.631556,-1.240620,3.609105,1.148601,-0.061044,0.065543,0.000000,-0.183819,-0.011706,-0.000000
4.800000,1.891271,1.127586,-1.443322,0.620581,1.075847,0.051569,-0.651595,-0.627278,-0.134060,0.063504,-1.839275,-0.619585,-1.171878,3.691520,1.245732,-0.062863,0.065432,0.000000,-0.179974,-0.010404,-0.000000
4.810000,1.897444,1.138313,-1.442813,0.614068,1.069483,0.050198,-0.651017,-0.645484,-0.140192,0.052111,-1.801918,-0.606677,-1.101942,3.773942,1.339780,-0.064643,0.065334,0.000000,-0.176062,-0.009168,-0.000000
4.820000,1.903552,1.148975,-1.442318,0.607560,1.062939,0.048765,-0.650550,-0.663314,-0.146190,0.041525,-1.763845,-0.592783,-1.020298,3.845699,1.436625,-0.066384,0.065248,0.000000,-0.172100,-0.008009,-0.000000
4.830000,1.909595,1.159571,-1.441838,0.601056,1.056218,0.047274,-0.650185,-0.680758,-0.152045,0.031596,-1.724898,-0.577991,-0.965554,3.943710,1.521541,-0.068085,0.065174,0.000000,-0.168072,-0.006913,-0.000000
4.840000,1.915573,1.170099,-1.441373,0.594556,1.049325,0.045725,-0.649916,-0.697809,-0.157747,0.022328,-1.685076,-0.562321,-0.882356,4.015368,1.614048,-0.069745,0.065110,0.000000,-0.163980,-0.005879,0.000000
4.850000,1.921486,1.180557,-1.440923,0.588058,1.042263,0.044120,-0.649735,-0.714458,-0.163288,0.013905,-1.644548,-0.545734,-0.807333,4.095267,1.700954,-0.071364,0.065056,0.000000,-0.159841,-0.004926,0.000000
4.860000,1.927334,1.190943,-1.440490,0.581561,1.035037,0.042460,-0.649635,-0.730697,-0.168659,0.006222,-1.603168,-0.528326,-0.730815,4.174822,1.784999,-0.072942,0.065011,0.000000,-0.155640,-0.004042,0.000000
4.870000,1.933118,1.201257,-1.440074,0.575065,1.027651,0.040747,-0.649608,-0.746519,-0.173851,-0.000723,-1.561107,-0.509998,-0.656403,4.242815,1.875443,-0.074477,0.064974,0.000000,-0.151395,-0.003229,0.000000
4.880000,1.938836,1.211496,-1.439676,0.568568,1.020108,0.038983,-0.649647,-0.761916,-0.178857,-0.006873,-1.518195,-0.490925,-0.573492,4.339713,1.938511,-0.075969,0.064946,0.000000,-0.147088,-0.002491,0.000000
4.890000,1.944489,1.221658,-1.439295,0.562072,1.012414,0.037171,-0.649743,-0.776880,-0.183668,-0.012222,-1.474430,-0.471143,-0.497715,4.407501,2.022120,-0.077418,0.064924,0.000000,-0.142719,-0.001829,0.000000
4.900000,1.950077,1.231744,-1.438932,0.555573,1.004572,0.035311,-0.649889,-0.791403,-0.188277,-0.016812,-1.430003,-0.450532,-0.418917,4.483841,2.094724,-0.078824,0.064909,0.000000,-0.138308,-0.001238,0.000000
4.910000,1.955600,1.241749,-1.438589,0.549074,0.996587,0.033406,-0.650077,-0.805477,-0.192676,-0.020623,-1.384753,-0.429272,-0.340465,4.559806,2.163455,-0.080184,0.064899,0.000000,-0.133838,-0.000722,0.000000
4.920000,1.961059,1.251675,-1.438264,0.542572,0.988464,0.031458,-0.650299,-0.819096,-0.196859,-0.023594,-1.338868,-0.407210,-0.256600,4.623211,2.241666,-0.081500,0.064894,0.000000,-0.129328,-0.000284,0.000000
4.930000,1.966452,1.261518,-1.437960,0.536068,0.980207,0.029469,-0.650546,-0.832252,-0.200819,-0.025815,-1.292166,-0.384592,-0.187662,4.717012,2.281174,-0.082771,0.064893,0.000000,-0.124759,0.000082,0.000000
4.940000,1.971780,1.271279,-1.437675,0.529561,0.971821,0.027442,-0.650812,-0.844936,-0.204549,-0.027292,-1.244653,-0.361464,-0.105054,4.779386,2.350635,-0.083995,0.064895,0.000000,-0.120130,0.000377,-0.000000
4.950000,1.977043,1.280954,-1.437411,0.523051,0.963310,0.025379,-0.651089,-0.857143,-0.208045,-0.027935,-1.196528,-0.337648,-0.027197,4.851132,2.404899,-0.085173,0.064900,0.000000,-0.115463,0.000593,0.000000
4.960000,1.982241,1.290544,-1.437168,0.516539,0.954679,0.023282,-0.651369,-0.868864,-0.211301,-0.027840,-1.147655,-0.313391,0.049583,4.921237,2.454588,-0.086304,0.064907,0.000000,-0.110742,0.000740,0.000000
4.970000,1.987374,1.300047,-1.436945,0.510024,0.945934,0.021154,-0.651643,-0.880094,-0.214311,-0.026915,-1.098125,-0.288490,0.132020,4.986450,2.516396,-0.087388,0.064915,0.000000,-0.105976,0.000808,0.000000
4.980000,1.992441,1.309463,-1.436745,0.503506,0.937079,0.018997,-0.651905,-0.890824,-0.217070,-0.025272,-1.047893,-0.263253,0.196222,5.059689,2.530073,-0.088424,0.064923,0.000000,-0.101159,0.000807,-0.000000
4.990000,1.997444,1.318789,-1.436566,0.496986,0.928119,0.016813,-0.652146,-0.901049,-0.219575,-0.022927,-0.996973,-0.237733,0.275965,5.122203,2.581640,-0.089411,0.064931,0.000000,-0.096291,0.000739,0.000000
5.000000,2.002381,1.328025,-1.436409,0.490463,0.919060,0.014606,-0.652360,-0.910762,-0.221823,-0.019781,-0.945439,-0.211704,0.349309,5.186162,2.614745,-0.090349,0.064938,0.000000,-0.091380,0.000594,0.000000
5.010000,2.007253,1.337170,-1.436274,0.483939,0.909906,0.012378,-0.652540,-0.919956,-0.223809,-0.015955,-0.893253,-0.185461,0.420824,5.248488,2.642774,-0.091238,0.064943,0.000000,-0.086420,0.000385,-0.000000
5.020000,2.012060,1.346223,-1.436161,0.477413,0.900662,0.010131,-0.652677,-0.928625,-0.225530,-0.011320,-0.840497,-0.158774,0.500858,5.304699,2.684498,-0.092078,0.064945,0.000000,-0.081420,0.000098,-0.000000
5.030000,2.016801,1.355183,-1.436071,0.470885,0.891335,0.007868,-0.652764,-0.936764,-0.226984,-0.006050,-0.787119,-0.131984,0.552634,5.370469,2.672453,-0.092867,0.064944,0.000000,-0.076371,-0.000250,-0.000000
5.040000,2.021478,1.364049,-1.436004,0.464358,0.881929,0.005592,-0.652796,-0.944365,-0.228170,-0.000169,-0.733138,-0.105149,0.628513,5.423146,2.703128,-0.093605,0.064940,0.000000,-0.071274,-0.000659,-0.000000
5.050000,2.026089,1.372821,-1.435959,0.457830,0.872450,0.003306,-0.652765,-0.951425,-0.229086,0.006470,-0.678644,-0.078018,0.693775,5.477562,2.712924,-0.094292,0.064931,0.000000,-0.066138,-0.001140,0.000000
5.060000,2.030634,1.381498,-1.435938,0.451303,0.862902,0.001011,-0.652664,-0.957936,-0.229730,0.013707,-0.623610,-0.050903,0.757736,5.529053,2.718337,-0.094927,0.064917,0.000000,-0.060958,-0.001680,-0.000000
5.070000,2.035115,1.390079,-1.435939,0.444777,0.853293,-0.001288,-0.652488,-0.963895,-0.230103,0.021671,-0.568080,-0.023570,0.829479,5.577190,2.737709,-0.095511,0.064897,0.000000,-0.055740,-0.002291,0.000000
5.080000,2.039530,1.398563,-1.435963,0.438253,0.843626,-0.003590,-0.652229,-0.969296,-0.230202,0.030181,-0.512061,0.003629,0.872098,5.626301,2.701081,-0.096042,0.064871,0.000000,-0.050479,-0.002956,0.000000
5.090000,2.043880,1.406951,-1.436011,0.431732,0.833909,-0.005891,-0.651883,-0.974135,-0.230031,0.039211,-0.455576,0.030635,0.938842,5.669456,2.709245,-0.096520,0.064837,0.000000,-0.045176,-0.003675,-0.000000
5.100000,2.048164,1.415241,-1.436081,0.425216,0.824145,-0.008189,-0.651443,-0.978407,-0.229589,0.048908,-0.398676,0.057717,0.994734,5.710926,2.696245,-0.096945,0.064797,0.000000,-0.039838,-0.004459,0.000000
5.110000,2.052384,1.423434,-1.436175,0.418704,0.814342,-0.010482,-0.650903,-0.982107,-0.228877,0.059100,-0.341370,0.084543,1.048247,5.749587,2.678195,-0.097317,0.064748,0.000000,-0.034461,-0.005294,-0.000000
5.120000,2.056539,1.431528,-1.436291,0.412198,0.804505,-0.012766,-0.650258,-0.985233,-0.227898,0.069911,-0.283696,0.111358,1.108802,5.784906,2.674263,-0.097635,0.064690,0.000000,-0.029051,-0.006190,-0.000000
5.130000,2.060628,1.439524,-1.436430,0.405699,0.794640,-0.015039,-0.649503,-0.987780,-0.226652,0.081168,-0.225678,0.137812,1.142156,5.818150,2.615633,-0.097898,0.064623,0.000000,-0.023605,-0.007134,-0.000000
5.140000,2.064653,1.447421,-1.436592,0.399208,0.784752,-0.017298,-0.648634,-0.989745,-0.225143,0.092843,-0.167348,0.163850,1.197248,5.847144,2.601036,-0.098107,0.064546,0.000000,-0.018125,-0.008123,0.000000
5.150000,2.068612,1.455219,-1.436776,0.392727,0.774847,-0.019541,-0.647644,-0.991126,-0.223375,0.105064,-0.108741,0.189737,1.241826,5.873491,2.565814,-0.098260,0.064460,0.000000,-0.012616,-0.009168,0.000000
5.160000,2.072507,1.462918,-1.436982,0.386256,0.764931,-0.021765,-0.646531,-0.991919,-0.221350,0.117673,-0.049887,0.215155,1.283903,5.896290,2.526055,-0.098359,0.064362,0.000000,-0.007076,-0.010256,-0.000000
5.170000,2.076337,1.470517,-1.437211,0.379797,0.755010,-0.023967,-0.645289,-0.992123,-0.219073,0.130774,0.009170,0.240327,1.331654,5.914861,2.499046,-0.098402,0.064253,0.000000,-0.001511,-0.011395,0.000000
5.180000,2.080103,1.478018,-1.437462,0.373351,0.745091,-0.026146,-0.643915,-0.991735,-0.216546,0.144210,0.068405,0.264940,1.355129,5.931710,2.422540,-0.098389,0.064133,0.000000,0.004080,-0.012573,-0.000000
5.190000,2.083804,1.485419,-1.437734,0.366919,0.735178,-0.028297,-0.642404,-0.990754,-0.213776,0.157953,0.127784,0.288941,1.397228,5.942927,2.385944,-0.098320,0.064001,0.000000,0.009697,-0.013787,0.000000
5.200000,2.087442,1.492722,-1.438027,0.360503,0.725277,-0.030420,-0.640754,-0.989179,-0.210768,0.172110,0.187257,0.312575,1.429636,5.951115,2.331036,-0.098195,0.063856,0.000000,0.015332,-0.015046,0.000000
5.210000,2.091015,1.499925,-1.438342,0.354104,0.715396,-0.032512,-0.638961,-0.987009,-0.207527,0.186542,0.246798,0.335557,1.459525,5.955332,2.272171,-0.098013,0.063698,0.000000,0.020987,-0.016339,-0.000000
5.220000,2.094524,1.507030,-1.438678,0.347724,0.705539,-0.034570,-0.637022,-0.984243,-0.204058,0.201322,0.306339,0.358075,1.492871,5.953276,2.223730,-0.097775,0.063527,0.000000,0.026655,-0.017673,0.000000
5.230000,2.097969,1.514036,-1.439033,0.341364,0.695713,-0.036592,-0.634934,-0.980882,-0.200368,0.216327,0.365874,0.379870,1.507590,5.952925,2.134515,-0.097480,0.063343,0.000000,0.032337,-0.019036,-0.000000
5.240000,2.101351,1.520944,-1.439409,0.335026,0.685924,-0.038577,-0.632695,-0.976926,-0.196463,0.231527,0.425360,0.400900,1.535240,5.942464,2.078171,-0.097128,0.063145,0.000000,0.038033,-0.020426,0.000000
5.250000,2.104670,1.527754,-1.439805,0.328711,0.676177,-0.040521,-0.630302,-0.972375,-0.192351,0.246998,0.484721,0.421366,1.555243,5.929804,2.006916,-0.096720,0.062932,0.000000,0.043732,-0.021850,0.000000
5.260000,2.107925,1.534468,-1.440220,0.322420,0.666478,-0.042423,-0.627754,-0.967232,-0.188039,0.262631,0.543938,0.441040,1.572677,5.912393,1.932636,-0.096254,0.062705,0.000000,0.049436,-0.023298,-0.000000
5.270000,2.111118,1.541084,-1.440653,0.316156,0.656834,-0.044281,-0.625049,-0.961497,-0.183533,0.278458,0.602950,0.460058,1.590688,5.889553,1.865477,-0.095731,0.062464,0.000000,0.055138,-0.024773,-0.000000
5.280000,2.114249,1.547605,-1.441105,0.309920,0.647250,-0.046093,-0.622185,-0.955174,-0.178840,0.294403,0.661722,0.478236,1.597793,5.864015,1.769656,-0.095151,0.062208,0.000000,0.060838,-0.026269,-0.000000
5.290000,2.117317,1.554029,-1.441575,0.303713,0.637732,-0.047857,-0.619161,-0.948264,-0.173971,0.310438,0.720206,0.495546,1.610459,5.831637,1.696931,-0.094514,0.061936,0.000000,0.066531,-0.027784,-0.000000
5.300000,2.120323,1.560359,-1.442062,0.297537,0.628287,-0.049572,-0.615976,-0.940771,-0.168932,0.326590,0.778341,0.512125,1.617936,5.794997,1.613672,-0.093820,0.061649,0.000000,0.072211,-0.029318,-0.000000
5.310000,2.123268,1.566595,-1.442566,0.291394,0.618919,-0.051235,-0.612629,-0.932698,-0.163731,0.342787,0.836104,0.527820,1.622684,5.753106,1.528223,-0.093070,0.061347,0.000000,0.077877,-0.030867,0.000000
5.320000,2.126151,1.572738,-1.443087,0.285285,0.609635,-0.052846,-0.609120,-0.924051,-0.158378,0.359052,0.893337,0.542705,1.628246,5.697282,1.446145,-0.092263,0.061029,0.000000,0.083514,-0.032432,0.000000
5.330000,2.128973,1.578788,-1.443623,0.279212,0.600440,-0.054402,-0.605448,-0.914833,-0.152880,0.375308,0.950130,0.556686,1.622550,5.660416,1.349726,-0.091400,0.060696,0.000000,0.089131,-0.034006,0.000000
5.340000,2.131735,1.584747,-1.444174,0.273177,0.591340,-0.055903,-0.601614,-0.905050,-0.147247,0.391528,1.006432,0.569746,1.622814,5.594386,1.264433,-0.090480,0.060346,0.000000,0.094724,-0.035587,-0.000000
5.350000,2.134437,1.590615,-1.444741,0.267181,0.582341,-0.057347,-0.597617,-0.894707,-0.141488,0.407740,1.062042,0.581952,1.617660,5.530912,1.173993,-0.089505,0.059981,0.000000,0.100273,-0.037177,0.000000
5.360000,2.137079,1.596394,-1.445321,0.261225,0.573448,-0.058733,-0.593459,-0.883811,-0.135611,0.423885,1.117022,0.593238,1.610274,5.461367,1.082853,-0.088475,0.059600,0.000000,0.105784,-0.038770,0.000000
5.370000,2.139662,1.602085,-1.445915,0.255312,0.564666,-0.060059,-0.589140,-0.872369,-0.129626,0.439933,1.171225,0.603603,1.599464,5.380778,0.990413,-0.087390,0.059203,0.000000,0.111243,-0.040364,0.000000
5.380000,2.142185,1.607688,-1.446522,0.249443,0.556002,-0.061325,-0.584661,-0.860389,-0.123542,0.455877,1.224671,0.613052,1.588930,5.307515,0.899305,-0.086250,0.058789,0.000000,0.116651,-0.041958,-0.000000
5.390000,2.144651,1.613205,-1.447141,0.243619,0.547460,-0.062529,-0.580023,-0.847878,-0.117368,0.471693,1.277301,0.621582,1.573478,5.214865,0.806160,-0.085057,0.058360,0.000000,0.122002,-0.043549,0.000000
5.400000,2.147058,1.618638,-1.447772,0.237843,0.539046,-0.063672,-0.575227,-0.834846,-0.111114,0.487338,1.328969,0.629181,1.556160,5.120139,0.713787,-0.083811,0.057915,0.000000,0.127283,-0.045133,-0.000000
5.410000,2.149408,1.623987,-1.448415,0.232115,0.530765,-0.064751,-0.570277,-0.821302,-0.104788,0.502811,1.379672,0.635874,1.536726,5.018611,0.621757,-0.082512,0.057454,0.000000,0.132490,-0.046710,0.000000
5.420000,2.151700,1.629253,-1.449067,0.226438,0.522622,-0.065767,-0.565172,-0.807256,-0.098400,0.518053,1.429312,0.641588,1.512419,4.908935,0.524167,-0.081161,0.056978,0.000000,0.137616,-0.048274,0.000000
5.430000,2.153937,1.634440,-1.449730,0.220812,0.514621,-0.066719,-0.559916,-0.792720,-0.091959,0.533079,1.477841,0.646424,1.492398,4.795706,0.443086,-0.079760,0.056486,0.000000,0.142654,-0.049825,-0.000000
5.440000,2.156117,1.639546,-1.450401,0.215240,0.506769,-0.067606,-0.554511,-0.777703,-0.085474,0.547867,1.525188,0.650390,1.463612,4.671870,0.347328,-0.078308,0.055978,0.000000,0.147596,-0.051363,-0.000000
5.450000,2.158242,1.644575,-1.451082,0.209723,0.499069,-0.068429,-0.548960,-0.762220,-0.078954,0.562352,1.571262,0.653400,1.434403,4.542000,0.257710,-0.076808,0.055456,0.000000,0.152432,-0.052879,0.000000
5.460000,2.160311,1.649528,-1.451770,0.204261,0.491526,-0.069185,-0.543265,-0.746282,-0.072409,0.576539,1.616024,0.655562,1.402802,4.404944,0.169533,-0.075260,0.054918,0.000000,0.157157,-0.054374,-0.000000
5.470000,2.162327,1.654406,-1.452465,0.198858,0.484145,-0.069877,-0.537430,-0.729905,-0.065846,0.590400,1.659295,0.656744,1.368924,4.252160,0.072290,-0.073665,0.054365,0.000000,0.161754,-0.055846,-0.000000
5.480000,2.164289,1.659212,-1.453167,0.193513,0.476929,-0.070502,-0.531458,-0.713101,-0.059277,0.603908,1.701129,0.657125,1.332256,4.113370,0.004291,-0.072025,0.053798,0.000000,0.166224,-0.057290,-0.000000
5.490000,2.166198,1.663946,-1.453875,0.188229,0.469884,-0.071062,-0.525353,-0.695887,-0.052707,0.617039,1.741452,0.656727,1.293495,3.945802,-0.088972,-0.070341,0.053216,0.000000,0.170560,-0.058703,-0.000000
5.500000,2.168054,1.668610,-1.454588,0.183007,0.463013,-0.071556,-0.519119,-0.678278,-0.046145,0.629771,1.780044,0.655396,1.252312,3.776356,-0.171464,-0.068615,0.052621,0.000000,0.174739,-0.060085,0.000000
5.510000,2.169858,1.673206,-1.455306,0.177847,0.456320,-0.071985,-0.512759,-0.660292,-0.039601,0.642086,1.816931,0.653315,1.208837,3.598710,-0.251690,-0.066847,0.052012,0.000000,0.178762,-0.061432,0.000000
5.520000,2.171611,1.677737,-1.456028,0.172752,0.449808,-0.072349,-0.506279,-0.641946,-0.033082,0.653925,1.851981,0.650303,1.159998,3.410760,-0.343491,-0.065040,0.051390,0.000000,0.182614,-0.062738,-0.000000
5.530000,2.173313,1.682203,-1.456753,0.167722,0.443482,-0.072647,-0.499682,-0.623259,-0.026597,0.665310,1.885135,0.646599,1.116668,3.218526,-0.396585,-0.063195,0.050755,0.000000,0.186287,-0.064004,0.000000
5.540000,2.174965,1.686607,-1.457480,0.162758,0.437344,-0.072881,-0.492974,-0.604250,-0.020152,0.676219,1.916305,0.642236,1.063086,3.013009,-0.482684,-0.061315,0.050107,0.000000,0.189769,-0.065227,0.000000
5.550000,2.176568,1.690951,-1.458210,0.157863,0.431398,-0.073050,-0.486160,-0.584939,-0.013756,0.686575,1.945372,0.637014,1.009266,2.799934,-0.554399,-0.059401,0.049448,0.000000,0.193050,-0.066400,0.000000
5.560000,2.178123,1.695236,-1.458941,0.153036,0.425646,-0.073156,-0.479244,-0.565350,-0.007414,0.696424,1.972253,0.631158,0.954783,2.576540,-0.623757,-0.057455,0.048777,0.000000,0.196118,-0.067527,0.000000
5.570000,2.179629,1.699464,-1.459673,0.148278,0.420092,-0.073199,-0.472233,-0.545502,-0.001135,0.705644,1.996872,0.624470,0.891504,2.344973,-0.705604,-0.055479,0.048095,0.000000,0.198964,-0.068594,0.000000
5.580000,2.181089,1.703638,-1.460405,0.143591,0.414737,-0.073179,-0.465133,-0.525420,0.005073,0.714305,2.019110,0.617220,0.840468,2.101002,-0.743651,-0.053476,0.047403,0.000000,0.201573,-0.069609,-0.000000
5.590000,2.182502,1.707760,-1.461136,0.138976,0.409584,-0.073097,-0.457949,-0.505128,0.011207,0.722388,2.038868,0.609446,0.772951,1.849435,-0.818672,-0.051448,0.046701,0.000000,0.203933,-0.070568,0.000000
5.600000,2.183868,1.711831,-1.461867,0.134433,0.404635,-0.072955,-0.450688,-0.484651,0.017260,0.729775,2.056064,0.600921,0.707275,1.587157,-0.877707,-0.049398,0.045990,0.000000,0.206036,-0.071459,-0.000000
5.610000,2.185190,1.715853,-1.462595,0.129962,0.399892,-0.072753,-0.443356,-0.464016,0.023224,0.736528,2.070578,0.591903,0.639483,1.314339,-0.933542,-0.047329,0.045271,0.000000,0.207866,-0.072288,0.000000
5.620000,2.186468,1.719829,-1.463322,0.125566,0.395355,-0.072491,-0.435960,-0.443249,0.029095,0.742524,2.082319,0.582185,0.562691,1.031697,-1.001862,-0.045242,0.044543,0.000000,0.209414,-0.073043,0.000000
5.630000,2.187702,1.723761,-1.464045,0.121243,0.391027,-0.072171,-0.428508,-0.422379,0.034867,0.747842,2.091169,0.572041,0.500606,0.736502,-1.026070,-0.043141,0.043808,0.000000,0.210664,-0.073729,-0.000000
5.640000,2.188893,1.727650,-1.464765,0.116996,0.386908,-0.071794,-0.421005,-0.401435,0.040535,0.752460,2.097021,0.561513,0.419151,0.432480,-1.087228,-0.041030,0.043067,0.000000,0.211604,-0.074344,-0.000000
5.650000,2.190042,1.731500,-1.465481,0.112823,0.382999,-0.071361,-0.413461,-0.380449,0.046095,0.756247,2.099768,0.550376,0.340784,0.115858,-1.131863,-0.038910,0.042321,0.000000,0.212222,-0.074875,-0.000000
5.660000,2.191150,1.735311,-1.466192,0.108727,0.379299,-0.070872,-0.405883,-0.359451,0.051541,0.759303,2.099313,0.538883,0.260422,-0.211253,-1.173448,-0.036786,0.041569,0.000000,0.212506,-0.075331,-0.000000
5.670000,2.192217,1.739087,-1.466898,0.104706,0.375809,-0.070330,-0.398279,-0.338474,0.056870,0.761357,2.095481,0.526850,0.159187,-0.554665,-1.225755,-0.034661,0.040813,0.000000,0.212437,-0.075685,-0.000000
5.680000,2.193244,1.742828,-1.467598,0.100761,0.372529,-0.069735,-0.390658,-0.317553,0.062077,0.762673,2.088233,0.514526,0.103931,-0.896710,-1.238404,-0.032539,0.040055,0.000000,0.212010,-0.075962,-0.000000
5.690000,2.194232,1.746538,-1.468292,0.096893,0.369458,-0.069089,-0.383028,-0.296721,0.067160,0.763236,2.077457,0.501949,-0.001447,-1.263159,-1.283590,-0.030422,0.039294,0.000000,0.211210,-0.076160,-0.000000
5.700000,2.195182,1.750218,-1.468980,0.093100,0.366595,-0.068393,-0.375397,-0.276016,0.072115,0.762717,2.062950,0.488924,-0.093690,-1.637507,-1.313915,-0.028316,0.038531,0.000000,0.210017,-0.076245,-0.000000
5.710000,2.196095,1.753870,-1.469660,0.089385,0.363937,-0.067647,-0.367776,-0.255475,0.076938,0.761360,2.044600,0.475674,-0.188738,-2.025298,-1.341279,-0.026223,0.037768,0.000000,0.208417,-0.076242,-0.000000
5.720000,2.196970,1.757497,-1.470333,0.085745,0.361484,-0.066854,-0.360174,-0.235136,0.081627,0.758835,2.022489,0.462055,-0.306626,-2.407999,-1.376455,-0.024149,0.037006,0.000000,0.206418,-0.076117,0.000000
