time,x,y,z,vx,vy,vz,ax,ay,az,jx,jy,jz,sx,sy,sz,qw,qx,qy,qz,wx,wy,wz
0.000000,-1.989171,-2.521279,0.498341,0.001668,-0.009498,0.003082,-0.363386,0.223773,-0.008362,9.043034,-8.480030,0.022819,-151.908902,223.613150,0.083055,0.999989,0.002748,-0.000169,-0.003918,-0.007105,-0.010467,0.000357
0.010000,-1.989171,-2.521365,0.498372,-0.001538,-0.007648,0.003000,-0.280166,0.149539,-0.008131,7.638508,-6.426591,0.023494,-129.366722,187.731379,0.052534,0.999989,0.002723,-0.000197,-0.003908,-0.005283,-0.005898,0.001847
0.020000,-1.989199,-2.521435,0.498401,-0.003979,-0.006444,0.002919,-0.209901,0.094110,-0.007894,6.448467,-4.712608,0.023883,-108.994385,155.687990,0.025853,0.999989,0.002696,-0.000226,-0.003899,-0.004108,-0.002966,0.002796
0.030000,-1.989248,-2.521495,0.498430,-0.005773,-0.005714,0.002842,-0.150552,0.054280,-0.007654,5.451739,-3.300720,0.024023,-90.686599,127.277987,0.002786,0.999989,0.002670,-0.000255,-0.003890,-0.003388,-0.001188,0.003365
0.040000,-1.989312,-2.521550,0.498458,-0.007020,-0.005316,0.002766,-0.100289,0.027206,-0.007414,4.628204,-2.155620,0.023950,-74.338031,102.296358,-0.016900,0.999989,0.002646,-0.000279,-0.003879,-0.002978,-0.000193,0.003674
0.050000,-1.989387,-2.521602,0.498485,-0.007803,-0.005136,0.002693,-0.057475,0.010389,-0.007175,3.958795,-1.244050,0.023696,-59.843734,80.537939,-0.033358,0.999989,0.002625,-0.000296,-0.003866,-0.002768,0.000295,0.003817
0.060000,-1.989467,-2.521653,0.498512,-0.008190,-0.005082,0.002623,-0.020659,0.001651,-0.006940,3.425499,-0.534801,0.023293,-47.098049,61.797939,-0.046889,0.999989,0.002607,-0.000303,-0.003850,-0.002680,0.000477,0.003858
0.070000,-1.989550,-2.521704,0.498538,-0.008232,-0.005082,0.002555,0.011433,-0.000884,-0.006710,3.011356,0.001286,0.022768,-35.995839,45.871268,-0.057685,0.999989,0.002593,-0.000303,-0.003831,-0.002658,0.000491,0.003844
0.080000,-1.989631,-2.521755,0.498563,-0.007973,-0.005084,0.002489,0.039912,0.001190,-0.006485,2.700455,0.391319,0.022147,-26.431836,32.552928,-0.065966,0.999989,0.002581,-0.000298,-0.003811,-0.002666,0.000432,0.003806
0.090000,-1.989708,-2.521805,0.498588,-0.007443,-0.005048,0.002425,0.065736,0.006539,-0.006267,2.477942,0.660356,0.021456,-18.300819,21.637969,-0.071952,0.999989,0.002569,-0.000292,-0.003791,-0.002681,0.000354,0.003763
0.100000,-1.989779,-2.521855,0.498612,-0.006664,-0.004946,0.002363,0.089719,0.014071,-0.006056,2.330015,0.831403,0.020715,-11.497340,12.921063,-0.075871,0.999990,0.002556,-0.000288,-0.003772,-0.002692,0.000290,0.003724
0.110000,-1.989841,-2.521904,0.498635,-0.005652,-0.004762,0.002304,0.112542,0.022911,-0.005853,2.243921,0.925420,0.019945,-5.916299,6.197573,-0.077935,0.999990,0.002543,-0.000287,-0.003753,-0.002693,0.000251,0.003693
0.120000,-1.989891,-2.521950,0.498658,-0.004415,-0.004486,0.002246,0.134765,0.032386,-0.005658,2.207965,0.961315,0.019162,-1.452367,1.262356,-0.078371,0.999990,0.002530,-0.000286,-0.003735,-0.002683,0.000237,0.003671
0.130000,-1.989928,-2.521993,0.498680,-0.002957,-0.004114,0.002190,0.156833,0.042000,-0.005470,2.211501,0.955945,0.018382,1.999715,-2.089596,-0.077403,0.999990,0.002516,-0.000284,-0.003716,-0.002666,0.000244,0.003655
0.140000,-1.989950,-2.522032,0.498701,-0.001278,-0.003646,0.002137,0.179094,0.051417,-0.005290,2.244937,0.924118,0.017618,4.545185,-4.063286,-0.075267,0.999990,0.002503,-0.000283,-0.003698,-0.002645,0.000262,0.003644
0.150000,-1.989953,-2.522066,0.498723,0.000626,-0.003087,0.002085,0.201803,0.060437,-0.005117,2.299733,0.878590,0.016880,6.289274,-4.863714,-0.072203,0.999990,0.002490,-0.000281,-0.003680,-0.002623,0.000282,0.003633
0.160000,-1.989936,-2.522094,0.498743,0.002760,-0.002439,0.002034,0.225135,0.068979,-0.004952,2.368409,0.830069,0.016178,7.337786,-4.696027,-0.068222,0.999990,0.002477,-0.000280,-0.003662,-0.002602,0.000298,0.003621
0.170000,-1.989897,-2.522115,0.498763,0.005131,-0.001709,0.001986,0.249196,0.077057,-0.004794,2.444522,0.787213,0.015518,7.795293,-3.765053,-0.063818,0.999990,0.002464,-0.000278,-0.003644,-0.002585,0.000305,0.003605
0.180000,-1.989833,-2.522128,0.498783,0.007747,-0.000899,0.001938,0.274032,0.084764,-0.004642,2.522696,0.756629,0.014903,7.767311,-2.275898,-0.059104,0.999990,0.002451,-0.000277,-0.003626,-0.002572,0.000302,0.003587
0.190000,-1.989741,-2.522132,0.498802,0.010614,-0.000014,0.001893,0.299642,0.092246,-0.004495,2.598601,0.742872,0.014336,7.359055,-0.433646,-0.054298,0.999990,0.002438,-0.000276,-0.003608,-0.002562,0.000291,0.003566
0.200000,-1.989620,-2.522128,0.498821,0.013742,0.000946,0.001849,0.325986,0.099686,-0.004355,2.668964,0.748453,0.013816,6.676157,1.557087,-0.049664,0.999991,0.002425,-0.000274,-0.003590,-0.002554,0.000275,0.003543
0.210000,-1.989465,-2.522113,0.498839,0.017137,0.001978,0.001806,0.353348,0.106329,-0.004220,2.812084,0.555968,0.013048,7.415221,-0.815664,-0.051169,0.999991,0.002412,-0.000273,-0.003573,-0.002540,0.000274,0.003526
0.220000,-1.989276,-2.522088,0.498857,0.020810,0.003074,0.001764,0.381071,0.113915,-0.004090,2.683368,1.092955,0.013278,-19.101248,70.115434,0.045853,0.999991,0.002400,-0.000272,-0.003555,-0.002527,0.000273,0.003508
0.230000,-1.989048,-2.522051,0.498874,0.024754,0.004275,0.001724,0.407688,0.126335,-0.003957,2.725291,1.158337,0.012887,27.913223,-58.247611,-0.125767,0.999991,0.002387,-0.000270,-0.003537,-0.002513,0.000271,0.003491
0.240000,-1.988780,-2.522002,0.498891,0.028972,0.005586,0.001685,0.436319,0.135029,-0.003834,2.956662,0.698068,0.011800,4.141934,4.623590,-0.039856,0.999991,0.002375,-0.000269,-0.003520,-0.002500,0.000270,0.003473
0.250000,-1.988468,-2.521939,0.498908,0.033482,0.006975,0.001647,0.465708,0.143254,-0.003717,2.928679,0.924017,0.011648,4.422301,2.227154,-0.042014,0.999991,0.002362,-0.000268,-0.003503,-0.002487,0.000268,0.003456
0.260000,-1.988109,-2.521862,0.498924,0.038287,0.008454,0.001611,0.495305,0.152587,-0.003602,2.992433,0.941924,0.011293,4.225333,2.135492,-0.039729,0.999991,0.002350,-0.000266,-0.003486,-0.002474,0.000267,0.003439
0.270000,-1.987701,-2.521770,0.498940,0.043390,0.010027,0.001575,0.525217,0.162153,-0.003492,2.975413,0.973855,0.010755,-3.654046,3.480721,-0.057579,0.999991,0.002337,-0.000265,-0.003468,-0.002461,0.000266,0.003422
0.280000,-1.987241,-2.521661,0.498956,0.048790,0.011698,0.001541,0.554991,0.172023,-0.003387,3.002836,0.995389,0.010360,9.262292,0.797864,-0.020964,0.999991,0.002325,-0.000264,-0.003451,-0.002448,0.000264,0.003404
0.290000,-1.986724,-2.521536,0.498971,0.054492,0.013468,0.001507,0.585472,0.182016,-0.003284,3.080189,1.005201,0.010125,2.193180,1.932982,-0.036739,0.999991,0.002313,-0.000262,-0.003434,-0.002435,0.000263,0.003387
0.300000,-1.986150,-2.521392,0.498986,0.060501,0.015339,0.001475,0.616269,0.192182,-0.003185,3.080813,1.027443,0.009715,1.935596,1.744255,-0.034697,0.999991,0.002301,-0.000261,-0.003417,-0.002422,0.000262,0.003371
0.310000,-1.985513,-2.521229,0.499001,0.066818,0.017313,0.001444,0.647192,0.202566,-0.003090,3.103699,1.049630,0.009374,1.550274,1.705558,-0.033450,0.999992,0.002289,-0.000260,-0.003401,-0.002409,0.000260,0.003354
0.320000,-1.984812,-2.521045,0.499015,0.073445,0.019391,0.001413,0.678241,0.213094,-0.002998,3.101802,1.052484,0.009045,-0.868750,-0.179931,-0.032328,0.999992,0.002277,-0.000258,-0.003384,-0.002396,0.000259,0.003337
0.330000,-1.984043,-2.520840,0.499029,0.080383,0.021574,0.001384,0.709265,0.223658,-0.002909,3.108601,1.066084,0.008729,2.263210,2.929621,-0.030915,0.999992,0.002265,-0.000257,-0.003367,-0.002383,0.000258,0.003320
0.340000,-1.983204,-2.520613,0.499042,0.087631,0.023865,0.001355,0.740456,0.234463,-0.002823,3.125670,1.091744,0.008425,0.083044,1.237716,-0.029882,0.999992,0.002253,-0.000256,-0.003351,-0.002371,0.000256,0.003304
0.350000,-1.982290,-2.520363,0.499056,0.095192,0.026264,0.001327,0.771682,0.245415,-0.002740,3.119382,1.099034,0.008131,-0.272578,1.181910,-0.028768,0.999992,0.002241,-0.000254,-0.003334,-0.002358,0.000255,0.003287
0.360000,-1.981299,-2.520088,0.499069,0.103065,0.028773,0.001300,0.802860,0.256470,-0.002660,3.115668,1.111945,0.007849,-0.663400,1.099479,-0.027701,0.999992,0.002229,-0.000253,-0.003318,-0.002346,0.000254,0.003271
0.370000,-1.980227,-2.519787,0.499082,0.111249,0.031394,0.001274,0.833966,0.267627,-0.002583,3.104357,1.118259,0.007577,-1.407780,0.455770,-0.026784,0.999992,0.002218,-0.000252,-0.003302,-0.002333,0.000252,0.003255
0.380000,-1.979073,-2.519459,0.499095,0.119743,0.034126,0.001249,0.864943,0.278846,-0.002509,3.091523,1.127203,0.007315,-1.151056,1.342744,-0.025617,0.999992,0.002206,-0.000251,-0.003285,-0.002321,0.000251,0.003238
0.390000,-1.977832,-2.519104,0.499107,0.128547,0.036971,0.001224,0.895794,0.290183,-0.002437,3.077543,1.139210,0.007063,-1.834206,0.763932,-0.024786,0.999992,0.002194,-0.000249,-0.003269,-0.002309,0.000250,0.003222
0.400000,-1.976501,-2.518720,0.499119,0.137659,0.039930,0.001200,0.926467,0.301604,-0.002367,3.056503,1.144998,0.006820,-2.182068,0.687953,-0.023848,0.999992,0.002183,-0.000248,-0.003253,-0.002296,0.000249,0.003206
0.410000,-1.975077,-2.518305,0.499131,0.147076,0.043004,0.001176,0.956918,0.313088,-0.002300,3.033021,1.151695,0.006586,-2.529630,0.601219,-0.022969,0.999992,0.002171,-0.000247,-0.003237,-0.002284,0.000247,0.003190
0.420000,-1.973558,-2.517859,0.499143,0.156796,0.046192,0.001154,0.987115,0.324631,-0.002236,3.005788,1.156564,0.006360,-2.898579,0.422206,-0.022216,0.999992,0.002160,-0.000246,-0.003221,-0.002272,0.000246,0.003174
0.430000,-1.971940,-2.517381,0.499154,0.166817,0.049496,0.001132,1.017023,0.336219,-0.002173,2.975432,1.161178,0.006143,-3.170394,0.502506,-0.021239,0.999993,0.002149,-0.000244,-0.003205,-0.002260,0.000245,0.003158
0.440000,-1.970221,-2.516869,0.499165,0.177136,0.052917,0.001110,1.046614,0.347854,-0.002113,2.942079,1.165628,0.005934,-3.515351,0.338145,-0.020529,0.999993,0.002137,-0.000243,-0.003190,-0.002248,0.000244,0.003143
0.450000,-1.968397,-2.516322,0.499176,0.187748,0.056454,0.001089,1.075853,0.359525,-0.002054,2.905303,1.168375,0.005732,-3.821665,0.260516,-0.019796,0.999993,0.002126,-0.000242,-0.003174,-0.002236,0.000242,0.003127
0.460000,-1.966465,-2.515739,0.499187,0.198651,0.060107,0.001069,1.104710,0.371220,-0.001998,2.865556,1.170581,0.005538,-4.119913,0.181555,-0.019072,0.999993,0.002115,-0.000241,-0.003158,-0.002224,0.000241,0.003111
0.470000,-1.964423,-2.515120,0.499198,0.209841,0.063878,0.001050,1.133155,0.382934,-0.001944,2.822993,1.172018,0.005350,-4.397011,0.105693,-0.018456,0.999993,0.002104,-0.000240,-0.003143,-0.002212,0.000240,0.003096
0.480000,-1.962267,-2.514461,0.499208,0.221313,0.067766,0.001030,1.161160,0.394658,-0.001891,2.777524,1.172689,0.005170,-4.695442,0.028878,-0.017652,0.999993,0.002093,-0.000238,-0.003127,-0.002201,0.000239,0.003080
0.490000,-1.959996,-2.513764,0.499218,0.233063,0.071771,0.001012,1.188696,0.406385,-0.001840,2.729235,1.172612,0.004996,-4.954739,-0.043415,-0.017084,0.999993,0.002082,-0.000237,-0.003112,-0.002189,0.000238,0.003065
0.500000,-1.957605,-2.513026,0.499228,0.245085,0.075894,0.000994,1.215736,0.418108,-0.001791,2.678412,1.171829,0.004828,-5.214613,-0.114267,-0.016456,0.999993,0.002071,-0.000236,-0.003097,-0.002177,0.000236,0.003050
0.510000,-1.955093,-2.512246,0.499238,0.257376,0.080133,0.000976,1.242255,0.429820,-0.001744,2.624980,1.170311,0.004667,-5.465499,-0.184117,-0.015858,0.999993,0.002060,-0.000235,-0.003081,-0.002166,0.000235,0.003034
0.520000,-1.952457,-2.511423,0.499248,0.269929,0.084490,0.000959,1.268228,0.441513,-0.001698,2.569175,1.168197,0.004511,-5.698582,-0.243145,-0.015349,0.999993,0.002049,-0.000234,-0.003066,-0.002154,0.000234,0.003019
0.530000,-1.949694,-2.510555,0.499257,0.282738,0.088963,0.000942,1.293631,0.453181,-0.001653,2.510944,1.165355,0.004361,-5.946274,-0.325050,-0.014679,0.999993,0.002039,-0.000232,-0.003051,-0.002143,0.000233,0.003004
0.540000,-1.946801,-2.509643,0.499267,0.295799,0.093553,0.000926,1.318439,0.464817,-0.001611,2.450370,1.161796,0.004216,-6.162479,-0.381709,-0.014203,0.999993,0.002028,-0.000231,-0.003036,-0.002132,0.000232,0.002989
0.550000,-1.943777,-2.508684,0.499276,0.309105,0.098260,0.000910,1.342631,0.476415,-0.001569,2.387688,1.157686,0.004077,-6.377402,-0.444710,-0.013698,0.999993,0.002017,-0.000230,-0.003021,-0.002120,0.000230,0.002974
0.560000,-1.940618,-2.507677,0.499285,0.322650,0.103082,0.000894,1.366186,0.487969,-0.001529,2.322865,1.152917,0.003942,-6.583700,-0.506115,-0.013204,0.999993,0.002007,-0.000229,-0.003007,-0.002109,0.000229,0.002959
0.570000,-1.937323,-2.506622,0.499294,0.336427,0.108019,0.000879,1.389082,0.499472,-0.001490,2.256061,1.147594,0.003812,-6.777545,-0.560902,-0.012783,0.999994,0.001996,-0.000228,-0.002992,-0.002098,0.000228,0.002944
0.580000,-1.933889,-2.505517,0.499302,0.350429,0.113071,0.000864,1.411300,0.510918,-0.001453,2.187300,1.141650,0.003687,-6.973387,-0.627765,-0.012219,0.999994,0.001986,-0.000227,-0.002977,-0.002087,0.000227,0.002930
0.590000,-1.930314,-2.504360,0.499311,0.364650,0.118237,0.000850,1.432822,0.522303,-0.001416,2.116662,1.135097,0.003567,-7.150761,-0.679928,-0.011787,0.999994,0.001975,-0.000226,-0.002962,-0.002076,0.000226,0.002915
0.600000,-1.926595,-2.503151,0.499319,0.379083,0.123517,0.000836,1.453628,0.533619,-0.001381,2.044295,1.128034,0.003452,-7.323298,-0.734897,-0.011245,0.999994,0.001965,-0.000224,-0.002948,-0.002065,0.000225,0.002900
0.610000,-1.922731,-2.501889,0.499328,0.393720,0.128909,0.000822,1.473702,0.544861,-0.001347,1.970229,1.120405,0.003339,-7.487613,-0.788851,-0.011006,0.999994,0.001955,-0.000223,-0.002933,-0.002054,0.000223,0.002886
0.620000,-1.918720,-2.500573,0.499336,0.408555,0.134414,0.000809,1.493027,0.556025,-0.001315,1.894576,1.112270,0.003230,-7.642365,-0.838922,-0.010660,0.999994,0.001944,-0.000222,-0.002919,-0.002043,0.000222,0.002872
0.630000,-1.914560,-2.499201,0.499344,0.423578,0.140029,0.000796,1.511588,0.567105,-0.001283,1.817393,1.103609,0.003126,-7.793042,-0.893166,-0.010212,0.999994,0.001934,-0.000221,-0.002905,-0.002032,0.000221,0.002857
0.640000,-1.910248,-2.497772,0.499352,0.438784,0.145755,0.000783,1.529370,0.578096,-0.001252,1.738757,1.094434,0.003025,-7.932146,-0.940461,-0.009919,0.999994,0.001924,-0.000220,-0.002891,-0.002021,0.000220,0.002843
0.650000,-1.905783,-2.496285,0.499359,0.454163,0.151591,0.000771,1.546359,0.588992,-0.001222,1.658773,1.084791,0.002929,-8.064438,-0.988441,-0.009523,0.999994,0.001914,-0.000219,-0.002876,-0.002010,0.000219,0.002829
0.660000,-1.901164,-2.494740,0.499367,0.469708,0.157535,0.000759,1.562541,0.599790,-0.001193,1.577497,1.074672,0.002835,-8.189131,-1.034832,-0.009183,0.999994,0.001904,-0.000218,-0.002862,-0.002000,0.000218,0.002814
0.670000,-1.896389,-2.493134,0.499375,0.485411,0.163586,0.000747,1.577905,0.610484,-0.001166,1.495018,1.064103,0.002745,-8.305707,-1.079033,-0.008892,0.999994,0.001894,-0.000217,-0.002848,-0.001989,0.000217,0.002800
0.680000,-1.891455,-2.491468,0.499382,0.501264,0.169744,0.000736,1.592438,0.621070,-0.001139,1.411403,1.053087,0.002658,-8.416085,-1.123948,-0.008507,0.999994,0.001884,-0.000216,-0.002834,-0.001979,0.000216,0.002786
0.690000,-1.886363,-2.489739,0.499389,0.517257,0.176007,0.000724,1.606129,0.631544,-0.001112,1.326726,1.041637,0.002574,-8.517789,-1.165388,-0.008231,0.999994,0.001874,-0.000215,-0.002820,-0.001968,0.000215,0.002772
0.700000,-1.881110,-2.487947,0.499397,0.533383,0.182375,0.000713,1.618969,0.641902,-0.001087,1.241071,1.029777,0.002493,-8.612388,-1.206447,-0.007950,0.999994,0.001864,-0.000213,-0.002807,-0.001958,0.000213,0.002759
0.710000,-1.875695,-2.486091,0.499404,0.549634,0.188845,0.000703,1.630948,0.652139,-0.001063,1.154504,1.017513,0.002415,-8.699817,-1.245998,-0.007668,0.999994,0.001855,-0.000212,-0.002793,-0.001947,0.000212,0.002745
0.720000,-1.870117,-2.484170,0.499411,0.565999,0.195417,0.000692,1.642056,0.662251,-0.001039,1.067100,1.004863,0.002339,-8.779926,-1.283841,-0.007428,0.999994,0.001845,-0.000211,-0.002779,-0.001937,0.000211,0.002731
0.730000,-1.864374,-2.482182,0.499417,0.582472,0.202090,0.000682,1.652287,0.672235,-0.001016,0.978928,0.991836,0.002267,-8.853319,-1.321363,-0.007125,0.999994,0.001835,-0.000210,-0.002765,-0.001927,0.000210,0.002717
0.740000,-1.858467,-2.480128,0.499424,0.599042,0.208861,0.000672,1.661633,0.682086,-0.000993,0.890058,0.978445,0.002197,-8.919266,-1.356529,-0.006942,0.999995,0.001826,-0.000209,-0.002752,-0.001916,0.000209,0.002704
0.750000,-1.852393,-2.478005,0.499431,0.615702,0.215731,0.000662,1.670086,0.691802,-0.000972,0.800562,0.964704,0.002129,-8.978678,-1.391038,-0.006642,0.999995,0.001816,-0.000208,-0.002738,-0.001906,0.000208,0.002690
0.760000,-1.846153,-2.475813,0.499437,0.632441,0.222697,0.000652,1.677642,0.701379,-0.000951,0.710507,0.950626,0.002064,-9.031147,-1.424119,-0.006406,0.999995,0.001807,-0.000207,-0.002725,-0.001896,0.000207,0.002677
0.770000,-1.839744,-2.473551,0.499444,0.649251,0.229758,0.000643,1.684295,0.710814,-0.000931,0.619961,0.936228,0.002001,-9.076884,-1.455497,-0.006203,0.999995,0.001797,-0.000206,-0.002712,-0.001886,0.000206,0.002663
0.780000,-1.833167,-2.471217,0.499450,0.666124,0.236913,0.000634,1.690040,0.720103,-0.000911,0.528991,0.921516,0.001940,-9.116063,-1.486846,-0.005937,0.999995,0.001788,-0.000205,-0.002698,-0.001876,0.000205,0.002650
0.790000,-1.826422,-2.468812,0.499457,0.683049,0.244160,0.000625,1.694873,0.729243,-0.000892,0.437662,0.906500,0.001882,-9.148691,-1.515820,-0.005743,0.999995,0.001778,-0.000204,-0.002685,-0.001866,0.000204,0.002637
0.800000,-1.819506,-2.466334,0.499463,0.700018,0.251497,0.000616,1.698792,0.738232,-0.000873,0.346040,0.891202,0.001825,-9.174774,-1.543923,-0.005552,0.999995,0.001769,-0.000203,-0.002672,-0.001856,0.000203,0.002623
0.810000,-1.812421,-2.463782,0.499469,0.717022,0.258924,0.000607,1.701793,0.747066,-0.000855,0.254187,0.875645,0.001771,-9.194610,-1.570473,-0.005354,0.999995,0.001760,-0.000202,-0.002659,-0.001846,0.000202,0.002610
0.820000,-1.805166,-2.461155,0.499475,0.734051,0.266438,0.000599,1.703875,0.755744,-0.000838,0.162172,0.859767,0.001718,-9.207666,-1.601837,-0.005203,0.999995,0.001751,-0.000201,-0.002646,-0.001836,0.000201,0.002597
0.830000,-1.797740,-2.458453,0.499481,0.751096,0.274038,0.000591,1.705036,0.764261,-0.000821,0.070048,0.843678,0.001667,-9.216043,-1.615717,-0.004952,0.999995,0.001742,-0.000200,-0.002633,-0.001827,0.000200,0.002584
0.840000,-1.790144,-2.455674,0.499487,0.768149,0.281723,0.000582,1.705276,0.772616,-0.000804,-0.022124,0.827393,0.001618,-9.217143,-1.644092,-0.004790,0.999995,0.001732,-0.000199,-0.002620,-0.001817,0.000199,0.002571
0.850000,-1.782377,-2.452818,0.499493,0.785199,0.289490,0.000574,1.704594,0.780808,-0.000788,-0.114279,0.810826,0.001572,-9.213160,-1.666005,-0.004550,0.999995,0.001723,-0.000198,-0.002607,-0.001807,0.000198,0.002558
0.860000,-1.774440,-2.449884,0.499498,0.802238,0.297338,0.000567,1.702991,0.788832,-0.000773,-0.206341,0.794013,0.001525,-9.201528,-1.688239,-0.004481,0.999995,0.001714,-0.000197,-0.002594,-0.001798,0.000197,0.002545
0.870000,-1.766332,-2.446871,0.499504,0.819256,0.305266,0.000559,1.700468,0.796688,-0.000758,-0.298288,0.777129,0.001482,-9.186282,-1.695418,-0.004287,0.999995,0.001705,-0.000196,-0.002582,-0.001788,0.000196,0.002533
0.880000,-1.758055,-2.443778,0.499509,0.836244,0.313271,0.000551,1.697026,0.804374,-0.000743,-0.390034,0.759959,0.001439,-9.162072,-1.738715,-0.004218,0.999995,0.001696,-0.000195,-0.002569,-0.001779,0.000195,0.002520
0.890000,-1.749608,-2.440605,0.499515,0.853193,0.321353,0.000544,1.692668,0.811886,-0.000729,-0.481523,0.742503,0.001398,-9.135418,-1.745069,-0.004056,0.999995,0.001688,-0.000194,-0.002557,-0.001769,0.000194,0.002507
0.900000,-1.740991,-2.437351,0.499520,0.870094,0.329509,0.000537,1.687396,0.819224,-0.000715,-0.572718,0.724995,0.001358,-9.102056,-1.762904,-0.003891,0.999995,0.001679,-0.000193,-0.002544,-0.001760,0.000193,0.002495
0.910000,-1.732206,-2.434015,0.499526,0.886938,0.337737,0.000530,1.681215,0.826385,-0.000702,-0.663551,0.707307,0.001320,-9.063411,-1.778500,-0.003754,0.999995,0.001670,-0.000192,-0.002532,-0.001750,0.000192,0.002482
0.920000,-1.723253,-2.430596,0.499531,0.903715,0.346036,0.000523,1.674127,0.833369,-0.000689,-0.753965,0.689391,0.001283,-9.018702,-1.800602,-0.003674,0.999995,0.001661,-0.000191,-0.002519,-0.001741,0.000191,0.002470
0.930000,-1.714132,-2.427094,0.499536,0.920418,0.354404,0.000516,1.666137,0.840173,-0.000676,-0.843916,0.671381,0.001247,-8.970724,-1.801020,-0.003446,0.999995,0.001653,-0.000190,-0.002507,-0.001732,0.000190,0.002457
0.940000,-1.704845,-2.423508,0.499541,0.937035,0.362839,0.000509,1.657250,0.846796,-0.000664,-0.933354,0.653294,0.001214,-8.915697,-1.820278,-0.003349,0.999996,0.001644,-0.000189,-0.002495,-0.001722,0.000189,0.002445
0.950000,-1.695391,-2.419837,0.499546,0.953560,0.371339,0.000503,1.647472,0.853238,-0.000652,-1.022216,0.635017,0.001180,-8.856241,-1.831396,-0.003258,0.999996,0.001635,-0.000188,-0.002482,-0.001713,0.000188,0.002433
0.960000,-1.685774,-2.416081,0.499551,0.969982,0.379903,0.000496,1.636808,0.859497,-0.000640,-1.110463,0.616677,0.001148,-8.791842,-1.841359,-0.003141,0.999996,0.001627,-0.000187,-0.002470,-0.001704,0.000187,0.002421
0.970000,-1.675992,-2.412239,0.499556,0.986293,0.388528,0.000490,1.625265,0.865571,-0.000629,-1.198033,0.598148,0.001117,-8.721781,-1.859557,-0.003076,0.999996,0.001618,-0.000186,-0.002458,-0.001695,0.000186,0.002408
0.980000,-1.666048,-2.408310,0.499561,1.002484,0.397213,0.000484,1.612850,0.871459,-0.000618,-1.284891,0.579590,0.001087,-8.649043,-1.851683,-0.002882,0.999996,0.001610,-0.000186,-0.002446,-0.001686,0.000185,0.002396
0.990000,-1.655943,-2.404294,0.499566,1.018547,0.405957,0.000478,1.599570,0.877163,-0.000607,-1.370990,0.561020,0.001059,-8.569502,-1.866976,-0.002806,0.999996,0.001601,-0.000185,-0.002434,-0.001677,0.000184,0.002384
1.000000,-1.645678,-2.400191,0.499571,1.034473,0.414756,0.000472,1.585433,0.882679,-0.000597,-1.456270,0.542295,0.001031,-8.486181,-1.873149,-0.002721,0.999996,0.001593,-0.000184,-0.002422,-0.001668,0.000183,0.002372
1.010000,-1.635254,-2.395999,0.499575,1.050253,0.423610,0.000466,1.570447,0.888008,-0.000587,-1.540693,0.523494,0.001004,-8.398163,-1.879571,-0.002628,0.999996,0.001585,-0.000183,-0.002411,-0.001659,0.000182,0.002360
1.020000,-1.624673,-2.391718,0.499580,1.065879,0.432516,0.000460,1.554622,0.893150,-0.000577,-1.624225,0.504773,0.000979,-8.306933,-1.871643,-0.002485,0.999996,0.001577,-0.000182,-0.002399,-0.001650,0.000181,0.002349
1.030000,-1.613937,-2.387349,0.499585,1.081342,0.441472,0.000454,1.537966,0.898103,-0.000567,-1.706804,0.485917,0.000954,-8.208070,-1.899603,-0.002494,0.999996,0.001568,-0.000181,-0.002387,-0.001642,0.000180,0.002337
1.040000,-1.603047,-2.382889,0.499589,1.096635,0.450477,0.000448,1.520489,0.902867,-0.000558,-1.788385,0.466925,0.000929,-8.108250,-1.891644,-0.002364,0.999996,0.001560,-0.000180,-0.002375,-0.001633,0.000180,0.002325
1.050000,-1.592005,-2.378339,0.499594,1.111749,0.459529,0.000443,1.502201,0.907442,-0.000549,-1.868947,0.448034,0.000906,-8.002929,-1.894287,-0.002284,0.999996,0.001552,-0.000179,-0.002364,-0.001624,0.000179,0.002313
1.060000,-1.580813,-2.373698,0.499598,1.126677,0.468625,0.000438,1.483114,0.911828,-0.000540,-1.948435,0.429096,0.000884,-7.893753,-1.895660,-0.002204,0.999996,0.001544,-0.000178,-0.002352,-0.001616,0.000178,0.002302
1.070000,-1.569472,-2.368966,0.499602,1.141409,0.477765,0.000432,1.463236,0.916024,-0.000531,-2.026806,0.410099,0.000862,-7.780136,-1.901032,-0.002154,0.999996,0.001536,-0.000177,-0.002341,-0.001607,0.000177,0.002290
1.080000,-1.557985,-2.364143,0.499607,1.155939,0.486945,0.000427,1.442581,0.920030,-0.000522,-2.104030,0.391131,0.000841,-7.663946,-1.892429,-0.002026,0.999996,0.001528,-0.000177,-0.002329,-0.001598,0.000176,0.002279
1.090000,-1.546354,-2.359227,0.499611,1.170258,0.496165,0.000422,1.421160,0.923847,-0.000514,-2.180067,0.372203,0.000821,-7.542710,-1.895642,-0.001947,0.999996,0.001520,-0.000176,-0.002318,-0.001590,0.000175,0.002267
1.100000,-1.534581,-2.354219,0.499615,1.184360,0.505421,0.000417,1.398984,0.927474,-0.000506,-2.254873,0.353243,0.000801,-7.418191,-1.893723,-0.001920,0.999996,0.001512,-0.000175,-0.002307,-0.001581,0.000174,0.002256
1.110000,-1.522667,-2.349119,0.499619,1.198235,0.514714,0.000412,1.376067,0.930912,-0.000498,-2.328418,0.334318,0.000783,-7.290072,-1.891183,-0.001855,0.999996,0.001504,-0.000174,-0.002295,-0.001573,0.000173,0.002244
1.120000,-1.510617,-2.343925,0.499623,1.211878,0.524039,0.000407,1.352420,0.934160,-0.000490,-2.400663,0.315421,0.000764,-7.158362,-1.887977,-0.001800,0.999996,0.001496,-0.000173,-0.002284,-0.001565,0.000172,0.002233
1.130000,-1.498431,-2.338638,0.499627,1.225281,0.533396,0.000402,1.328058,0.937220,-0.000483,-2.471575,0.296562,0.000747,-7.023478,-1.883682,-0.001729,0.999996,0.001488,-0.000172,-0.002273,-0.001556,0.000171,0.002222
1.140000,-1.486112,-2.333257,0.499631,1.238437,0.542783,0.000397,1.302993,0.940092,-0.000475,-2.541120,0.277749,0.000730,-6.885100,-1.878876,-0.001681,0.999996,0.001481,-0.000171,-0.002262,-0.001548,0.000171,0.002211
1.150000,-1.473663,-2.327782,0.499635,1.251339,0.552197,0.000392,1.277240,0.942775,-0.000468,-2.609264,0.258985,0.000713,-6.743377,-1.873447,-0.001619,0.999996,0.001473,-0.000170,-0.002251,-0.001540,0.000170,0.002200
1.160000,-1.461086,-2.322213,0.499639,1.263980,0.561638,0.000388,1.250813,0.945272,-0.000461,-2.675975,0.240281,0.000697,-6.598587,-1.867175,-0.001564,0.999996,0.001465,-0.000170,-0.002240,-0.001531,0.000169,0.002189
1.170000,-1.448384,-2.316549,0.499643,1.276353,0.571102,0.000383,1.223725,0.947581,-0.000454,-2.741227,0.221643,0.000682,-6.451108,-1.860302,-0.001527,0.999996,0.001458,-0.000169,-0.002229,-0.001523,0.000168,0.002177
1.180000,-1.435560,-2.310791,0.499647,1.288452,0.580589,0.000379,1.195993,0.949705,-0.000447,-2.804984,0.203079,0.000667,-6.299689,-1.852489,-0.001443,0.999996,0.001450,-0.000168,-0.002218,-0.001515,0.000167,0.002167
1.190000,-1.422616,-2.304937,0.499651,1.300271,0.590096,0.000374,1.167631,0.951643,-0.000441,-2.867215,0.184594,0.000653,-6.146350,-1.844347,-0.001387,0.999997,0.001442,-0.000167,-0.002207,-0.001507,0.000166,0.002156
1.200000,-1.409555,-2.298989,0.499654,1.311803,0.599621,0.000370,1.138654,0.953397,-0.000434,-2.927900,0.166194,0.000639,-5.989860,-1.835657,-0.001282,0.999997,0.001435,-0.000166,-0.002197,-0.001499,0.000165,0.002145
1.210000,-1.396381,-2.292945,0.499658,1.323042,0.609163,0.000365,1.109078,0.954967,-0.000428,-2.987003,0.147893,0.000625,-5.830717,-1.825560,-0.001325,0.999997,0.001427,-0.000165,-0.002186,-0.001491,0.000165,0.002134
1.220000,-1.383096,-2.286805,0.499662,1.333982,0.618720,0.000361,1.078919,0.956355,-0.000422,-3.044507,0.129688,0.000612,-5.669355,-1.815365,-0.001282,0.999997,0.001420,-0.000165,-0.002175,-0.001483,0.000164,0.002123
1.230000,-1.369702,-2.280570,0.499665,1.344618,0.628289,0.000357,1.048193,0.957561,-0.000416,-3.100378,0.111589,0.000600,-5.504434,-1.804276,-0.001225,0.999997,0.001413,-0.000164,-0.002165,-0.001475,0.000163,0.002113
1.240000,-1.356204,-2.274240,0.499669,1.354944,0.637870,0.000353,1.016917,0.958587,-0.000410,-3.154591,0.093604,0.000588,-5.338045,-1.792694,-0.001162,0.999997,0.001405,-0.000163,-0.002154,-0.001467,0.000162,0.002102
1.250000,-1.342604,-2.267813,0.499672,1.364955,0.647461,0.000349,0.985107,0.959434,-0.000404,-3.207132,0.075733,0.000575,-5.169198,-1.780801,-0.001169,0.999997,0.001398,-0.000162,-0.002144,-0.001459,0.000161,0.002091
1.260000,-1.328906,-2.261290,0.499676,1.374645,0.657058,0.000345,0.952780,0.960102,-0.000398,-3.257977,0.057985,0.000563,-4.998184,-1.768204,-0.001141,0.999997,0.001391,-0.000161,-0.002133,-0.001452,0.000160,0.002081
1.270000,-1.315113,-2.254672,0.499679,1.384009,0.666662,0.000341,0.919953,0.960594,-0.000393,-3.307075,0.040377,0.000553,-4.822420,-1.753905,-0.001014,0.999997,0.001383,-0.000161,-0.002123,-0.001444,0.000160,0.002070
1.280000,-1.301227,-2.247957,0.499683,1.393042,0.676270,0.000337,0.886644,0.960910,-0.000387,-3.354447,0.022896,0.000542,-4.651652,-1.742162,-0.001164,0.999997,0.001376,-0.000160,-0.002113,-0.001436,0.000159,0.002060
1.290000,-1.287253,-2.241146,0.499686,1.401740,0.685880,0.000333,0.852870,0.961052,-0.000382,-3.400074,0.005547,0.000531,-4.472035,-1.726950,-0.001074,0.999997,0.001369,-0.000159,-0.002102,-0.001428,0.000158,0.002049
1.300000,-1.273193,-2.234240,0.499689,1.410098,0.695490,0.000329,0.818649,0.961022,-0.000377,-3.443898,-0.011645,0.000521,-4.293212,-1.712110,-0.001021,0.999997,0.001362,-0.000158,-0.002092,-0.001421,0.000157,0.002039
1.310000,-1.259052,-2.227237,0.499692,1.418112,0.705100,0.000326,0.783998,0.960820,-0.000372,-3.485920,-0.028690,0.000511,-4.112161,-1.696770,-0.000985,0.999997,0.001355,-0.000157,-0.002082,-0.001413,0.000156,0.002029
1.320000,-1.244832,-2.220138,0.499696,1.425777,0.714706,0.000322,0.748936,0.960449,-0.000367,-3.526148,-0.045579,0.000500,-3.931854,-1.681002,-0.001098,0.999997,0.001348,-0.000157,-0.002072,-0.001406,0.000156,0.002019
1.330000,-1.230538,-2.212942,0.499699,1.433089,0.724308,0.000318,0.713481,0.959909,-0.000362,-3.564525,-0.062307,0.000491,-3.743329,-1.664587,-0.000819,0.999997,0.001341,-0.000156,-0.002062,-0.001398,0.000155,0.002008
1.340000,-1.216172,-2.205651,0.499702,1.440045,0.733904,0.000315,0.677652,0.959203,-0.000357,-3.601035,-0.078870,0.000482,-3.559645,-1.647989,-0.000955,0.999997,0.001334,-0.000155,-0.002052,-0.001391,0.000154,0.001998
1.350000,-1.201738,-2.198264,0.499705,1.446641,0.743491,0.000311,0.641467,0.958332,-0.000352,-3.635702,-0.095261,0.000473,-3.372362,-1.630482,-0.000871,0.999997,0.001327,-0.000154,-0.002042,-0.001383,0.000153,0.001988
1.360000,-1.187240,-2.190782,0.499708,1.452873,0.753070,0.000308,0.604944,0.957298,-0.000347,-3.668480,-0.111461,0.000465,-3.183758,-1.612416,-0.000841,0.999997,0.001320,-0.000154,-0.002032,-0.001376,0.000152,0.001978
1.370000,-1.172682,-2.183203,0.499711,1.458739,0.762637,0.000304,0.568104,0.956103,-0.000343,-3.699380,-0.127534,0.000456,-2.995420,-1.599252,-0.000848,0.999997,0.001313,-0.000153,-0.002022,-0.001368,0.000152,0.001968
1.380000,-1.158067,-2.175529,0.499714,1.464234,0.772191,0.000301,0.530963,0.954748,-0.000338,-3.728368,-0.143387,0.000448,-2.801869,-1.571186,-0.000729,0.999997,0.001306,-0.000152,-0.002012,-0.001361,0.000151,0.001958
1.390000,-1.143398,-2.167759,0.499717,1.469357,0.781731,0.000297,0.493543,0.953236,-0.000334,-3.755430,-0.159013,0.000442,-2.611120,-1.556685,-0.000664,0.999997,0.001300,-0.000151,-0.002002,-0.001354,0.000150,0.001948
1.400000,-1.128681,-2.159894,0.499720,1.474104,0.791255,0.000294,0.455861,0.951569,-0.000329,-3.780583,-0.174495,0.000433,-2.418314,-1.537044,-0.000740,0.999997,0.001293,-0.000151,-0.001993,-0.001347,0.000149,0.001938
1.410000,-1.113918,-2.151934,0.499723,1.478474,0.800762,0.000291,0.417937,0.949747,-0.000325,-3.803808,-0.189780,0.000425,-2.224784,-1.517529,-0.000729,0.999997,0.001286,-0.000150,-0.001983,-0.001339,0.000148,0.001929
1.420000,-1.099113,-2.143879,0.499726,1.482462,0.810250,0.000288,0.379791,0.947774,-0.000321,-3.825061,-0.204823,0.000419,-2.027329,-1.493289,-0.000552,0.999997,0.001279,-0.000149,-0.001973,-0.001332,0.000148,0.001919
1.430000,-1.084270,-2.135729,0.499729,1.486069,0.819717,0.000284,0.341443,0.945651,-0.000317,-3.844387,-0.219693,0.000413,-1.837806,-1.480735,-0.000818,0.999997,0.001273,-0.000148,-0.001964,-0.001325,0.000147,0.001909
1.440000,-1.069392,-2.127485,0.499732,1.489291,0.829162,0.000281,0.302910,0.943381,-0.000313,-3.861781,-0.234391,0.000405,-1.639377,-1.456379,-0.000640,0.999997,0.001266,-0.000148,-0.001954,-0.001318,0.000146,0.001900
1.450000,-1.054485,-2.119146,0.499735,1.492126,0.838584,0.000278,0.264214,0.940964,-0.000308,-3.877186,-0.248839,0.000399,-1.443114,-1.435604,-0.000581,0.999997,0.001260,-0.000147,-0.001945,-0.001311,0.000145,0.001890
1.460000,-1.039551,-2.110713,0.499737,1.494574,0.847981,0.000275,0.225373,0.938404,-0.000305,-3.890641,-0.263122,0.000392,-1.246947,-1.415212,-0.000658,0.999997,0.001253,-0.000146,-0.001935,-0.001304,0.000145,0.001880
1.470000,-1.024595,-2.102187,0.499740,1.496633,0.857352,0.000272,0.186407,0.935703,-0.000301,-3.902129,-0.277093,0.000385,-1.050539,-1.384174,-0.000650,0.999997,0.001246,-0.000145,-0.001926,-0.001297,0.000144,0.001871
1.480000,-1.009620,-2.093566,0.499743,1.498302,0.866695,0.000269,0.147337,0.932863,-0.000297,-3.911646,-0.290917,0.000379,-0.852709,-1.380711,-0.000637,0.999997,0.001240,-0.000145,-0.001917,-0.001290,0.000143,0.001861
1.490000,-0.994630,-2.084853,0.499745,1.499580,0.876009,0.000266,0.108181,0.929885,-0.000293,-3.919188,-0.304598,0.000372,-0.655898,-1.350169,-0.000639,0.999997,0.001234,-0.000144,-0.001907,-0.001283,0.000142,0.001852
1.500000,-0.979630,-2.076046,0.499748,1.500466,0.885292,0.000263,0.068960,0.926772,-0.000289,-3.924762,-0.317967,0.000366,-0.458685,-1.328572,-0.000617,0.999997,0.001227,-0.000143,-0.001898,-0.001276,0.000142,0.001843
1.510000,-0.964622,-2.067147,0.499751,1.500959,0.894544,0.000260,0.029692,0.923526,-0.000286,-3.928359,-0.331094,0.000360,-0.261441,-1.305292,-0.000599,0.999997,0.001221,-0.000143,-0.001889,-0.001269,0.000141,0.001833
1.520000,-0.949612,-2.058155,0.499753,1.501059,0.903762,0.000257,-0.009601,0.920150,-0.000282,-3.929998,-0.344149,0.000354,-0.065567,-1.297401,-0.000700,0.999997,0.001215,-0.000142,-0.001880,-0.001262,0.000140,0.001824
1.530000,-0.934602,-2.049072,0.499756,1.500767,0.912946,0.000255,-0.048901,0.916645,-0.000279,-3.929658,-0.356870,0.000348,0.133409,-1.246621,-0.000487,0.999998,0.001208,-0.000141,-0.001871,-0.001256,0.000140,0.001815
1.540000,-0.919598,-2.039897,0.499758,1.500081,0.922095,0.000252,-0.088188,0.913014,-0.000275,-3.927343,-0.369245,0.000343,0.328821,-1.236535,-0.000591,0.999998,0.001202,-0.000140,-0.001862,-0.001249,0.000139,0.001805
1.550000,-0.904602,-2.030630,0.499761,1.499003,0.931206,0.000249,-0.127441,0.909260,-0.000272,-3.923077,-0.381530,0.000337,0.524961,-1.212250,-0.000548,0.999998,0.001196,-0.000140,-0.001853,-0.001242,0.000138,0.001796
1.560000,-0.889619,-2.021273,0.499763,1.497533,0.940279,0.000246,-0.166643,0.905384,-0.000268,-3.916849,-0.393533,0.000332,0.720523,-1.188306,-0.000533,0.999998,0.001190,-0.000139,-0.001844,-0.001236,0.000137,0.001787
1.570000,-0.874653,-2.011825,0.499766,1.495671,0.949313,0.000244,-0.205772,0.901390,-0.000265,-3.908669,-0.405297,0.000326,0.915478,-1.164388,-0.000535,0.999998,0.001183,-0.000138,-0.001835,-0.001229,0.000137,0.001778
1.580000,-0.859707,-2.002287,0.499768,1.493418,0.958307,0.000241,-0.244810,0.897279,-0.000262,-3.898542,-0.416818,0.000321,1.109761,-1.139802,-0.000495,0.999998,0.001177,-0.000138,-0.001826,-0.001222,0.000136,0.001769
1.590000,-0.844785,-1.992659,0.499771,1.490775,0.967259,0.000239,-0.283736,0.893055,-0.000259,-3.886476,-0.428094,0.000316,1.303266,-1.115575,-0.000520,0.999998,0.001171,-0.000137,-0.001817,-0.001216,0.000135,0.001760
1.600000,-0.829893,-1.982942,0.499773,1.487743,0.976168,0.000236,-0.322533,0.888718,-0.000256,-3.872481,-0.439131,0.000311,1.495767,-1.091342,-0.000480,0.999998,0.001165,-0.000136,-0.001808,-0.001209,0.000135,0.001751
1.610000,-0.815032,-1.973135,0.499775,1.484325,0.985033,0.000233,-0.361180,0.884273,-0.000253,-3.856567,-0.449956,0.000306,1.687315,-1.067591,-0.000474,0.999998,0.001159,-0.000136,-0.001800,-0.001203,0.000134,0.001742
1.620000,-0.800207,-1.963241,0.499778,1.480520,0.993853,0.000231,-0.399658,0.879720,-0.000250,-3.838734,-0.460429,0.000302,1.878675,-1.032729,-0.000376,0.999998,0.001153,-0.000135,-0.001791,-0.001196,0.000133,0.001734
1.630000,-0.785423,-1.953259,0.499780,1.476332,1.002627,0.000228,-0.437948,0.875065,-0.000247,-3.819007,-0.470731,0.000298,2.066479,-1.027899,-0.000539,0.999998,0.001147,-0.000134,-0.001782,-0.001190,0.000132,0.001725
1.640000,-0.770682,-1.943189,0.499782,1.471762,1.011354,0.000226,-0.476032,0.870306,-0.000244,-3.797400,-0.480870,0.000292,2.255321,-0.994159,-0.000469,0.999998,0.001141,-0.000134,-0.001774,-0.001183,0.000132,0.001716
1.650000,-0.755989,-1.933032,0.499785,1.466812,1.020032,0.000224,-0.513890,0.865448,-0.000241,-3.773909,-0.490664,0.000288,2.442068,-0.970270,-0.000439,0.999998,0.001135,-0.000133,-0.001765,-0.001177,0.000131,0.001707
1.660000,-0.741347,-1.922788,0.499787,1.461485,1.028662,0.000221,-0.551503,0.860494,-0.000238,-3.748559,-0.500228,0.000284,2.627424,-0.945596,-0.000430,0.999998,0.001129,-0.000132,-0.001757,-0.001171,0.000130,0.001699
1.670000,-0.726760,-1.912459,0.499789,1.455783,1.037242,0.000219,-0.588855,0.855444,-0.000235,-3.721368,-0.509605,0.000280,2.810870,-0.926809,-0.000458,0.999998,0.001124,-0.000132,-0.001748,-0.001164,0.000130,0.001690
1.680000,-0.712233,-1.902043,0.499791,1.449709,1.045771,0.000216,-0.625925,0.850303,-0.000232,-3.692343,-0.518700,0.000275,2.993767,-0.892006,-0.000390,0.999998,0.001118,-0.000131,-0.001740,-0.001158,0.000129,0.001681
1.690000,-0.697767,-1.891543,0.499793,1.443266,1.054248,0.000214,-0.662695,0.845071,-0.000229,-3.661502,-0.527508,0.000271,3.173936,-0.872716,-0.000411,0.999998,0.001112,-0.000130,-0.001731,-0.001152,0.000128,0.001673
1.700000,-0.683368,-1.880959,0.499795,1.436456,1.062672,0.000212,-0.699149,0.839753,-0.000227,-3.628869,-0.536129,0.000267,3.352634,-0.848488,-0.000374,0.999998,0.001106,-0.000130,-0.001723,-0.001146,0.000128,0.001664
1.710000,-0.669039,-1.870290,0.499798,1.429284,1.071043,0.000210,-0.735267,0.834350,-0.000224,-3.594457,-0.544482,0.000263,3.529459,-0.823463,-0.000396,0.999998,0.001101,-0.000129,-0.001715,-0.001139,0.000127,0.001656
1.720000,-0.654784,-1.859538,0.499800,1.421752,1.079359,0.000207,-0.771032,0.828864,-0.000222,-3.558287,-0.552591,0.000259,3.704223,-0.798677,-0.000394,0.999998,0.001095,-0.000128,-0.001706,-0.001133,0.000126,0.001647
1.730000,-0.640606,-1.848703,0.499802,1.413864,1.087620,0.000205,-0.806427,0.823299,-0.000219,-3.520378,-0.560460,0.000256,3.877167,-0.775176,-0.000391,0.999998,0.001089,-0.000128,-0.001698,-0.001127,0.000126,0.001639
1.740000,-0.626508,-1.837786,0.499804,1.405625,1.095824,0.000203,-0.841434,0.817656,-0.000216,-3.480752,-0.568091,0.000252,4.047783,-0.750739,-0.000414,0.999998,0.001084,-0.000127,-0.001690,-0.001121,0.000125,0.001631
1.750000,-0.612494,-1.826787,0.499806,1.397037,1.103972,0.000201,-0.876036,0.811938,-0.000214,-3.439432,-0.575473,0.000248,4.216012,-0.726435,-0.000371,0.999998,0.001078,-0.000127,-0.001682,-0.001115,0.000124,0.001622
1.760000,-0.598568,-1.815707,0.499808,1.388105,1.112063,0.000199,-0.910217,0.806147,-0.000211,-3.396440,-0.582618,0.000244,4.382015,-0.702423,-0.000365,0.999998,0.001072,-0.000126,-0.001674,-0.001109,0.000124,0.001614
1.770000,-0.584733,-1.804546,0.499810,1.378834,1.120095,0.000197,-0.943960,0.800286,-0.000209,-3.351800,-0.589522,0.000241,4.545608,-0.678420,-0.000358,0.999998,0.001067,-0.000125,-0.001666,-0.001103,0.000123,0.001606
1.780000,-0.570993,-1.793305,0.499812,1.369228,1.128068,0.000195,-0.977248,0.794357,-0.000207,-3.305537,-0.596188,0.000237,4.706602,-0.654855,-0.000354,0.999998,0.001061,-0.000125,-0.001658,-0.001097,0.000122,0.001598
1.790000,-0.557350,-1.781985,0.499814,1.359291,1.135982,0.000193,-1.010065,0.788363,-0.000204,-3.257677,-0.602618,0.000234,4.865058,-0.631151,-0.000349,0.999998,0.001056,-0.000124,-0.001650,-0.001091,0.000122,0.001589
1.800000,-0.543808,-1.770585,0.499816,1.349028,1.143835,0.000190,-1.042396,0.782306,-0.000202,-3.208246,-0.608812,0.000230,5.020720,-0.607726,-0.000344,0.999998,0.001050,-0.000124,-0.001642,-0.001085,0.000121,0.001581
1.810000,-0.530370,-1.759108,0.499817,1.338444,1.151628,0.000188,-1.074225,0.776188,-0.000200,-3.157274,-0.614773,0.000227,5.173567,-0.584453,-0.000338,0.999998,0.001045,-0.000123,-0.001634,-0.001079,0.000121,0.001573
1.820000,-0.517040,-1.747553,0.499819,1.327545,1.159359,0.000186,-1.105536,0.770011,-0.000197,-3.104780,-0.620503,0.000223,5.324326,-0.561511,-0.000338,0.999998,0.001040,-0.000122,-0.001626,-0.001074,0.000120,0.001565
1.830000,-0.503821,-1.735921,0.499821,1.316335,1.167028,0.000185,-1.136315,0.763779,-0.000195,-3.050806,-0.626002,0.000220,5.469911,-0.538381,-0.000337,0.999998,0.001034,-0.000122,-0.001618,-0.001068,0.000119,0.001557
1.840000,-0.490714,-1.724213,0.499823,1.304821,1.174634,0.000183,-1.166548,0.757492,-0.000193,-2.995384,-0.631272,0.000217,5.614510,-0.515861,-0.000368,0.999998,0.001029,-0.000121,-0.001611,-0.001062,0.000119,0.001549
1.850000,-0.477725,-1.712429,0.499825,1.293006,1.182178,0.000181,-1.196218,0.751154,-0.000191,-2.938530,-0.636320,0.000214,5.755253,-0.493458,-0.000319,0.999998,0.001024,-0.000121,-0.001603,-0.001056,0.000118,0.001541
1.860000,-0.464855,-1.700569,0.499827,1.280898,1.189657,0.000179,-1.225314,0.744766,-0.000189,-2.880283,-0.641144,0.000210,5.892856,-0.471317,-0.000316,0.999998,0.001018,-0.000120,-0.001595,-0.001051,0.000117,0.001534
1.870000,-0.452108,-1.688636,0.499828,1.268502,1.197073,0.000177,-1.253820,0.738332,-0.000187,-2.820692,-0.645745,0.000207,6.025507,-0.449053,-0.000294,0.999998,0.001013,-0.000119,-0.001588,-0.001045,0.000117,0.001526
1.880000,-0.439486,-1.676628,0.499830,1.255824,1.204424,0.000175,-1.281723,0.731852,-0.000185,-2.759766,-0.650131,0.000204,6.159087,-0.428112,-0.000323,0.999998,0.001008,-0.000119,-0.001580,-0.001039,0.000116,0.001518
1.890000,-0.426993,-1.664547,0.499832,1.242870,1.211710,0.000173,-1.309011,0.725330,-0.000183,-2.697539,-0.654304,0.000201,6.284923,-0.406480,-0.000303,0.999998,0.001003,-0.000118,-0.001572,-0.001034,0.000116,0.001510
1.900000,-0.414630,-1.652394,0.499834,1.229646,1.218930,0.000171,-1.335670,0.718767,-0.000181,-2.634073,-0.658262,0.000198,6.408576,-0.385446,-0.000299,0.999998,0.000998,-0.000118,-0.001565,-0.001028,0.000115,0.001502
1.910000,-0.402401,-1.640169,0.499835,1.216158,1.226085,0.000170,-1.361688,0.712165,-0.000179,-2.569392,-0.662014,0.000195,6.528306,-0.364756,-0.000295,0.999998,0.000993,-0.000117,-0.001557,-0.001023,0.000114,0.001495
1.920000,-0.390307,-1.627873,0.499837,1.202414,1.233173,0.000168,-1.387053,0.705527,-0.000177,-2.503507,-0.665557,0.000192,6.646715,-0.344023,-0.000291,0.999998,0.000987,-0.000116,-0.001550,-0.001017,0.000114,0.001487
1.930000,-0.378353,-1.615506,0.499839,1.188420,1.240195,0.000166,-1.411754,0.698855,-0.000175,-2.436498,-0.668900,0.000189,6.754474,-0.324586,-0.000273,0.999998,0.000982,-0.000116,-0.001542,-0.001011,0.000113,0.001479
1.940000,-0.366540,-1.603069,0.499840,1.174181,1.247150,0.000164,-1.435780,0.692150,-0.000173,-2.368405,-0.672046,0.000187,6.864726,-0.304485,-0.000250,0.999998,0.000977,-0.000115,-0.001535,-0.001006,0.000113,0.001472
1.950000,-0.354870,-1.590563,0.499842,1.159706,1.254038,0.000163,-1.459119,0.685414,-0.000171,-2.299228,-0.674992,0.000185,6.968688,-0.284902,-0.000208,0.999998,0.000972,-0.000115,-0.001528,-0.001001,0.000112,0.001464
1.960000,-0.343347,-1.577988,0.499844,1.145001,1.260859,0.000161,-1.481761,0.678650,-0.000169,-2.229072,-0.677761,0.000181,7.067941,-0.266539,-0.000269,0.999998,0.000967,-0.000114,-0.001520,-0.000995,0.000111,0.001457
1.970000,-0.331971,-1.565346,0.499845,1.130073,1.267611,0.000159,-1.503697,0.671860,-0.000167,-2.157827,-0.680315,0.000178,7.174323,-0.245614,-0.000275,0.999998,0.000962,-0.000114,-0.001513,-0.000990,0.000111,0.001449
1.980000,-0.320746,-1.552636,0.499847,1.114930,1.274296,0.000158,-1.524915,0.665045,-0.000166,-2.085723,-0.682702,0.000176,7.245600,-0.231827,-0.000244,0.999998,0.000957,-0.000113,-0.001506,-0.000984,0.000110,0.001442
1.990000,-0.309673,-1.539860,0.499848,1.099578,1.280912,0.000156,-1.545408,0.658206,-0.000164,-2.012811,-0.684927,0.000173,7.342166,-0.211844,-0.000246,0.999998,0.000952,-0.000113,-0.001499,-0.000979,0.000110,0.001434
2.000000,-0.298755,-1.527018,0.499850,1.084024,1.287460,0.000154,-1.565168,0.651347,-0.000162,-1.938945,-0.686955,0.000171,7.424244,-0.194774,-0.000242,0.999998,0.000948,-0.000112,-0.001492,-0.000974,0.000109,0.001427
2.010000,-0.287993,-1.514111,0.499851,1.068277,1.293939,0.000153,-1.584185,0.644468,-0.000160,-1.864336,-0.688847,0.000168,7.501741,-0.178423,-0.000235,0.999998,0.000943,-0.000111,-0.001484,-0.000968,0.000109,0.001420
2.020000,-0.277390,-1.501140,0.499853,1.052343,1.300349,0.000151,-1.602452,0.637571,-0.000159,-1.788880,-0.690477,0.000166,7.583982,-0.152586,-0.000223,0.999998,0.000938,-0.000111,-0.001477,-0.000963,0.000108,0.001412
2.030000,-0.266947,-1.488105,0.499854,1.036230,1.306690,0.000149,-1.619960,0.630658,-0.000157,-1.712772,-0.692008,0.000164,7.636735,-0.153897,-0.000232,0.999998,0.000933,-0.000110,-0.001470,-0.000958,0.000107,0.001405
2.040000,-0.256666,-1.475006,0.499856,1.019946,1.312962,0.000148,-1.636705,0.623731,-0.000156,-1.636064,-0.693452,0.000161,7.708949,-0.129832,-0.000252,0.999998,0.000928,-0.000110,-0.001463,-0.000953,0.000107,0.001398
2.050000,-0.246549,-1.461846,0.499857,1.003499,1.319165,0.000146,-1.652679,0.616790,-0.000154,-1.558649,-0.694650,0.000159,7.768380,-0.114866,-0.000340,0.999999,0.000924,-0.000109,-0.001456,-0.000948,0.000106,0.001391
2.060000,-0.236596,-1.448623,0.499859,0.986895,1.325298,0.000145,-1.667876,0.609838,-0.000152,-1.480669,-0.695735,0.000158,7.824013,-0.100036,-0.000184,0.999999,0.000919,-0.000109,-0.001449,-0.000942,0.000106,0.001384
2.070000,-0.226811,-1.435340,0.499860,0.970144,1.331362,0.000143,-1.682291,0.602876,-0.000151,-1.402208,-0.696630,0.000156,7.870026,-0.081279,-0.000260,0.999999,0.000914,-0.000108,-0.001443,-0.000937,0.000105,0.001376
2.080000,-0.217194,-1.421996,0.499862,0.953252,1.337355,0.000142,-1.695919,0.595906,-0.000149,-1.323231,-0.697407,0.000154,7.924688,-0.074123,-0.000101,0.999999,0.000909,-0.000108,-0.001436,-0.000932,0.000105,0.001369
2.090000,-0.207747,-1.408593,0.499863,0.936228,1.343280,0.000140,-1.708754,0.588929,-0.000148,-1.243781,-0.698069,0.000153,7.961850,-0.056066,-0.000193,0.999999,0.000905,-0.000107,-0.001429,-0.000927,0.000104,0.001362
2.100000,-0.198470,-1.395131,0.499865,0.919080,1.349134,0.000139,-1.720793,0.581945,-0.000146,-1.163988,-0.698552,0.000151,7.998667,-0.042305,-0.000138,0.999999,0.000900,-0.000107,-0.001422,-0.000922,0.000104,0.001355
2.110000,-0.189365,-1.381611,0.499866,0.901815,1.354919,0.000137,-1.732036,0.574960,-0.000145,-1.084634,-0.698433,0.000148,8.014780,-0.018948,-0.000172,0.999999,0.000896,-0.000106,-0.001415,-0.000917,0.000103,0.001348
2.120000,-0.180434,-1.368033,0.499867,0.884442,1.360633,0.000136,-1.742474,0.567971,-0.000143,-1.002386,-0.699715,0.000152,8.294877,-0.155038,0.000556,0.999999,0.000891,-0.000106,-0.001409,-0.000912,0.000102,0.001341
2.130000,-0.171677,-1.354398,0.499869,0.866968,1.366278,0.000135,-1.752090,0.560970,-0.000142,-0.921670,-0.699805,0.000150,7.843586,0.139580,-0.000790,0.999999,0.000886,-0.000105,-0.001402,-0.000907,0.000102,0.001334
2.140000,-0.163095,-1.340707,0.499870,0.849402,1.371853,0.000133,-1.760914,0.553979,-0.000140,-0.842709,-0.698597,0.000144,8.088621,0.018495,-0.000167,0.999999,0.000882,-0.000105,-0.001395,-0.000902,0.000101,0.001328
2.150000,-0.154689,-1.326961,0.499871,0.831752,1.377358,0.000132,-1.768933,0.546992,-0.000139,-0.761098,-0.698735,0.000145,8.093365,0.036772,-0.000139,0.999999,0.000877,-0.000104,-0.001389,-0.000897,0.000101,0.001321
2.160000,-0.146460,-1.313161,0.499873,0.814026,1.382793,0.000130,-1.776132,0.540003,-0.000137,-0.678633,-0.699320,0.000149,8.134855,0.027725,-0.000006,0.999999,0.000873,-0.000104,-0.001382,-0.000892,0.000100,0.001314
2.170000,-0.138409,-1.299306,0.499874,0.796232,1.388158,0.000129,-1.782526,0.533020,-0.000136,-0.600840,-0.696513,0.000135,7.680079,0.356940,-0.001799,0.999999,0.000869,-0.000103,-0.001375,-0.000887,0.000100,0.001307
2.180000,-0.130536,-1.285398,0.499875,0.778378,1.393453,0.000128,-1.788136,0.526064,-0.000135,-0.519650,-0.695891,0.000134,8.565493,-0.238136,0.001662,0.999999,0.000864,-0.000103,-0.001369,-0.000883,0.000099,0.001300
2.190000,-0.122841,-1.271437,0.499876,0.760473,1.398679,0.000126,-1.792904,0.519093,-0.000133,-0.434732,-0.697709,0.000148,8.158534,0.052540,0.000105,0.999999,0.000860,-0.000102,-0.001362,-0.000878,0.000099,0.001294
2.200000,-0.115326,-1.257424,0.499878,0.742523,1.403835,0.000125,-1.796850,0.512123,-0.000132,-0.354291,-0.696353,0.000144,8.187198,0.041022,0.000200,0.999999,0.000855,-0.000102,-0.001356,-0.000873,0.000098,0.001287
2.210000,-0.107991,-1.243360,0.499879,0.724538,1.408921,0.000124,-1.799985,0.505164,-0.000130,-0.272825,-0.695540,0.000144,8.185985,0.049287,0.000216,0.999999,0.000851,-0.000101,-0.001350,-0.000868,0.000098,0.001280
2.220000,-0.100836,-1.229246,0.499880,0.706526,1.413938,0.000122,-1.802300,0.498207,-0.000129,-0.189846,-0.696033,0.000152,8.330695,-0.077378,0.000892,0.999999,0.000847,-0.000101,-0.001343,-0.000863,0.000097,0.001274
2.230000,-0.093861,-1.215082,0.499881,0.688495,1.418885,0.000121,-1.803786,0.491246,-0.000127,-0.107872,-0.695606,0.000155,8.060690,0.165220,-0.000256,0.999999,0.000842,-0.000100,-0.001337,-0.000859,0.000097,0.001267
2.240000,-0.087066,-1.200869,0.499883,0.670453,1.423763,0.000120,-1.804462,0.484299,-0.000126,-0.027067,-0.694149,0.000154,8.178503,0.055171,0.000335,0.999999,0.000838,-0.000100,-0.001330,-0.000854,0.000096,0.001261
2.250000,-0.080452,-1.186607,0.499884,0.652409,1.428571,0.000119,-1.804322,0.477358,-0.000124,0.055008,-0.693894,0.000158,8.156602,0.066962,0.000280,0.999999,0.000834,-0.000099,-0.001324,-0.000849,0.000096,0.001254
2.260000,-0.074018,-1.172297,0.499885,0.634369,1.433310,0.000117,-1.803370,0.470426,-0.000123,0.135212,-0.692368,0.000155,8.109032,0.091685,0.000129,0.999999,0.000830,-0.000099,-0.001318,-0.000845,0.000095,0.001248
2.270000,-0.067764,-1.157941,0.499886,0.616344,1.437980,0.000116,-1.801601,0.463500,-0.000121,0.219248,-0.693406,0.000171,8.478361,-0.157007,0.002065,0.999999,0.000825,-0.000098,-0.001312,-0.000840,0.000095,0.001242
2.280000,-0.061691,-1.143538,0.499887,0.598340,1.442580,0.000115,-1.798997,0.456566,-0.000119,0.300166,-0.692518,0.000173,7.697866,0.339104,-0.001710,0.999999,0.000821,-0.000098,-0.001306,-0.000836,0.000094,0.001235
2.290000,-0.055797,-1.129090,0.499888,0.580366,1.447111,0.000114,-1.795611,0.449658,-0.000118,0.377624,-0.689505,0.000159,8.014296,0.119865,0.000000,0.999999,0.000817,-0.000097,-0.001299,-0.000831,0.000094,0.001229
2.300000,-0.050083,-1.114596,0.499890,0.562431,1.451574,0.000113,-1.791429,0.442765,-0.000116,0.458567,-0.688906,0.000163,7.953505,0.143178,-0.000188,0.999999,0.000813,-0.000097,-0.001293,-0.000826,0.000093,0.001223
2.310000,-0.044548,-1.100058,0.499891,0.544541,1.455967,0.000111,-1.786439,0.435879,-0.000114,0.539637,-0.688467,0.000166,7.940586,0.134857,-0.000185,0.999999,0.000809,-0.000096,-0.001287,-0.000822,0.000093,0.001216
2.320000,-0.039192,-1.085477,0.499892,0.526704,1.460291,0.000110,-1.780663,0.429011,-0.000113,0.614431,-0.684460,0.000151,7.328056,0.481360,-0.001882,0.999999,0.000805,-0.000096,-0.001281,-0.000817,0.000092,0.001210
2.330000,-0.034014,-1.070853,0.499893,0.508930,1.464547,0.000109,-1.774136,0.422181,-0.000111,0.692705,-0.682725,0.000147,8.336040,-0.140332,0.001058,0.999999,0.000801,-0.000095,-0.001275,-0.000813,0.000092,0.001204
2.340000,-0.029013,-1.056186,0.499894,0.491224,1.468735,0.000108,-1.766793,0.415346,-0.000110,0.774865,-0.683529,0.000155,7.782172,0.166056,-0.000420,0.999999,0.000797,-0.000095,-0.001269,-0.000808,0.000091,0.001198
2.350000,-0.024189,-1.041478,0.499895,0.473597,1.472854,0.000107,-1.758664,0.408524,-0.000108,0.850995,-0.680989,0.000145,7.755429,0.155769,-0.000443,0.999999,0.000792,-0.000095,-0.001263,-0.000804,0.000091,0.001191
2.360000,-0.019541,-1.026729,0.499896,0.456054,1.476905,0.000106,-1.749772,0.401725,-0.000107,0.927362,-0.678934,0.000139,7.685411,0.167192,-0.000515,0.999999,0.000788,-0.000094,-0.001257,-0.000800,0.000090,0.001185
2.370000,-0.015068,-1.011940,0.499897,0.438604,1.480889,0.000105,-1.740106,0.394939,-0.000105,1.006236,-0.678455,0.000137,7.925200,0.014182,-0.000105,0.999999,0.000784,-0.000094,-0.001251,-0.000795,0.000090,0.001179
2.380000,-0.010769,-0.997112,0.499898,0.421254,1.484804,0.000104,-1.729657,0.388160,-0.000104,1.082420,-0.676856,0.000132,7.305667,0.308406,-0.000987,0.999999,0.000781,-0.000093,-0.001245,-0.000791,0.000089,0.001173
2.390000,-0.006643,-0.982244,0.499899,0.404013,1.488652,0.000103,-1.718469,0.381407,-0.000103,1.155638,-0.674016,0.000123,7.502029,0.173285,-0.000603,0.999999,0.000777,-0.000093,-0.001239,-0.000786,0.000089,0.001167
2.400000,-0.002688,-0.967339,0.499900,0.386887,1.492432,0.000102,-1.706534,0.374673,-0.000102,1.231044,-0.672658,0.000118,7.414196,0.184226,-0.000593,0.999999,0.000773,-0.000092,-0.001234,-0.000782,0.000088,0.001161
2.410000,0.001096,-0.952396,0.499901,0.369885,1.496145,0.000101,-1.693858,0.367957,-0.000100,1.303963,-0.670587,0.000109,7.316333,0.194470,-0.000738,0.999999,0.000769,-0.000092,-0.001228,-0.000778,0.000088,0.001155
2.420000,0.004710,-0.937416,0.499902,0.353013,1.499791,0.000100,-1.680446,0.361259,-0.000099,1.378715,-0.669073,0.000105,7.490516,0.140929,-0.000355,0.999999,0.000765,-0.000091,-0.001222,-0.000773,0.000087,0.001149
2.430000,0.008156,-0.922400,0.499903,0.336278,1.503371,0.000099,-1.666294,0.354577,-0.000098,1.450763,-0.667086,0.000097,6.914171,0.257287,-0.001135,0.999999,0.000761,-0.000091,-0.001216,-0.000769,0.000087,0.001143
2.440000,0.011436,-0.907349,0.499904,0.319689,1.506883,0.000098,-1.651442,0.347919,-0.000097,1.519885,-0.664589,0.000087,7.054454,0.209115,-0.000761,0.999999,0.000757,-0.000091,-0.001211,-0.000765,0.000087,0.001137
2.450000,0.014551,-0.892263,0.499905,0.303252,1.510329,0.000097,-1.635888,0.341283,-0.000097,1.590623,-0.662628,0.000080,6.949226,0.215731,-0.000793,0.999999,0.000753,-0.000090,-0.001205,-0.000761,0.000086,0.001131
2.460000,0.017502,-0.877143,0.499906,0.286974,1.513709,0.000096,-1.619636,0.334667,-0.000096,1.659584,-0.660611,0.000075,6.852405,0.215802,-0.000711,0.999999,0.000750,-0.000090,-0.001199,-0.000756,0.000086,0.001125
2.470000,0.020291,-0.861989,0.499907,0.270861,1.517023,0.000095,-1.602699,0.328073,-0.000095,1.727761,-0.658056,0.000060,6.774235,0.267481,-0.001697,0.999999,0.000746,-0.000089,-0.001194,-0.000752,0.000085,0.001119
2.480000,0.022919,-0.846803,0.499908,0.254922,1.520270,0.000094,-1.585085,0.321504,-0.000095,1.794887,-0.655844,0.000053,6.651035,0.173621,0.000270,0.999999,0.000742,-0.000089,-0.001188,-0.000748,0.000085,0.001113
2.490000,0.025390,-0.831584,0.499909,0.239162,1.523453,0.000093,-1.566805,0.314955,-0.000094,1.860975,-0.654032,0.000054,6.576384,0.216472,-0.000580,0.999999,0.000738,-0.000088,-0.001183,-0.000744,0.000084,0.001107
2.500000,0.027703,-0.816334,0.499910,0.223588,1.526570,0.000092,-1.547867,0.308426,-0.000094,1.926351,-0.651759,0.000047,6.490419,0.210282,-0.000435,0.999999,0.000735,-0.000088,-0.001177,-0.000740,0.000084,0.001101
2.510000,0.029862,-0.801053,0.499911,0.208207,1.529621,0.000091,-1.528263,0.301914,-0.000093,1.994873,-0.650625,0.000048,6.489692,0.185554,-0.000227,0.999999,0.000731,-0.000088,-0.001172,-0.000736,0.000083,0.001095
2.520000,0.031868,-0.785741,0.499912,0.193025,1.532608,0.000090,-1.508029,0.295426,-0.000093,2.049485,-0.646494,0.000034,5.136327,0.476312,-0.001699,0.999999,0.000727,-0.000087,-0.001166,-0.000732,0.000083,0.001089
2.530000,0.033723,-0.770401,0.499913,0.178048,1.535530,0.000089,-1.487241,0.288976,-0.000092,2.112369,-0.644550,0.000032,7.462265,-0.092791,0.001405,0.999999,0.000724,-0.000087,-0.001161,-0.000727,0.000082,0.001083
2.540000,0.035430,-0.755031,0.499914,0.163283,1.538387,0.000088,-1.465745,0.282526,-0.000092,2.184493,-0.645025,0.000044,6.251803,0.163961,0.000089,0.999999,0.000720,-0.000086,-0.001155,-0.000723,0.000082,0.001077
2.550000,0.036990,-0.739633,0.499914,0.148735,1.541180,0.000087,-1.443607,0.276088,-0.000091,2.243416,-0.642676,0.000042,6.239599,0.140698,0.000302,0.999999,0.000716,-0.000086,-0.001150,-0.000719,0.000082,0.001072
2.560000,0.038405,-0.724208,0.499915,0.134412,1.543909,0.000087,-1.420877,0.269672,-0.000091,2.301979,-0.640297,0.000038,6.103822,0.150419,0.000271,0.999999,0.000713,-0.000086,-0.001145,-0.000716,0.000081,0.001066
2.570000,0.039679,-0.708755,0.499916,0.120320,1.546574,0.000086,-1.397521,0.263267,-0.000091,2.371279,-0.641363,0.000060,7.141092,-0.183834,0.002747,0.999999,0.000709,-0.000085,-0.001139,-0.000712,0.000081,0.001061
2.580000,0.040812,-0.693276,0.499917,0.106464,1.549175,0.000085,-1.373485,0.256854,-0.000090,2.431889,-0.640195,0.000065,4.960221,0.423384,-0.001660,0.999999,0.000706,-0.000085,-0.001134,-0.000708,0.000080,0.001056
2.590000,0.041809,-0.677772,0.499918,0.092852,1.551711,0.000084,-1.348920,0.250473,-0.000089,2.482866,-0.636523,0.000053,5.853147,0.130120,0.000480,0.999999,0.000702,-0.000084,-0.001129,-0.000704,0.000080,0.001051
2.600000,0.042670,-0.662242,0.499919,0.079488,1.554184,0.000083,-1.323784,0.244110,-0.000089,2.543665,-0.636048,0.000065,5.687986,0.145860,0.000446,0.999999,0.000699,-0.000084,-0.001124,-0.000700,0.000079,0.001045
2.610000,0.043399,-0.646688,0.499920,0.066378,1.556593,0.000082,-1.298073,0.237759,-0.000088,2.598205,-0.633958,0.000067,5.521935,0.163365,0.000396,0.999999,0.000695,-0.000084,-0.001118,-0.000696,0.000079,0.001040
2.620000,0.043999,-0.631111,0.499920,0.053528,1.558939,0.000081,-1.271801,0.231422,-0.000087,2.656875,-0.633781,0.000076,5.917357,-0.022244,0.001025,0.999999,0.000692,-0.000083,-0.001113,-0.000692,0.000078,0.001034
2.630000,0.044471,-0.615510,0.499921,0.040944,1.561222,0.000080,-1.244955,0.225089,-0.000087,2.710370,-0.632184,0.000080,4.772116,0.344948,-0.000186,0.999999,0.000688,-0.000083,-0.001108,-0.000688,0.000078,0.001029
2.640000,0.044818,-0.599887,0.499922,0.028631,1.563441,0.000079,-1.217615,0.218785,-0.000086,2.758260,-0.629024,0.000080,5.102772,0.180214,0.000424,0.999999,0.000685,-0.000082,-0.001103,-0.000684,0.000078,0.001023
2.650000,0.045044,-0.584241,0.499923,0.016593,1.565598,0.000079,-1.189772,0.212501,-0.000085,2.809909,-0.627679,0.000086,4.931435,0.194830,0.000526,0.999999,0.000681,-0.000082,-0.001098,-0.000681,0.000077,0.001018
2.660000,0.045151,-0.568575,0.499924,0.004837,1.567691,0.000078,-1.161411,0.206229,-0.000084,2.862609,-0.626814,0.000098,4.864171,0.177910,0.000484,0.999999,0.000678,-0.000082,-0.001093,-0.000677,0.000077,0.001013
2.670000,0.045142,-0.552888,0.499924,-0.006633,1.569722,0.000077,-1.132583,0.199980,-0.000083,2.900346,-0.622295,0.000073,3.406282,0.531955,-0.003370,0.999999,0.000675,-0.000081,-0.001088,-0.000673,0.000076,0.001007
2.680000,0.045020,-0.537181,0.499925,-0.017813,1.571691,0.000076,-1.103372,0.193773,-0.000083,2.945913,-0.620248,0.000075,5.729752,-0.128964,0.003806,0.999999,0.000671,-0.000081,-0.001083,-0.000669,0.000076,0.001002
2.690000,0.044787,-0.521454,0.499926,-0.028699,1.573598,0.000075,-1.073629,0.187564,-0.000082,3.000316,-0.620963,0.000107,4.420715,0.181045,0.000403,0.999999,0.000668,-0.000080,-0.001078,-0.000666,0.000076,0.000997
2.700000,0.044447,-0.505709,0.499927,-0.039285,1.575442,0.000074,-1.043426,0.181369,-0.000081,3.040514,-0.618293,0.000100,4.345646,0.158050,0.000485,0.999999,0.000665,-0.000080,-0.001073,-0.000662,0.000075,0.000991
2.710000,0.044002,-0.489945,0.499927,-0.049566,1.577225,0.000074,-1.012826,0.175191,-0.000080,3.078717,-0.617238,0.000080,4.127210,0.137156,-0.000030,0.999999,0.000661,-0.000080,-0.001068,-0.000658,0.000075,0.000986
2.720000,0.043456,-0.474165,0.499928,-0.059540,1.578946,0.000073,-0.981791,0.169030,-0.000079,3.130709,-0.614774,0.000140,5.462417,0.273764,0.007657,0.999999,0.000658,-0.000079,-0.001063,-0.000654,0.000074,0.000981
2.730000,0.042812,-0.458367,0.499929,-0.069200,1.580606,0.000072,-0.950257,0.162891,-0.000077,3.170990,-0.613482,0.000144,2.568405,-0.017754,-0.006991,0.999999,0.000655,-0.000079,-0.001058,-0.000651,0.000074,0.000975
2.740000,0.042073,-0.442553,0.499929,-0.078544,1.582204,0.000071,-0.918421,0.156756,-0.000076,3.198430,-0.613468,0.000086,3.735847,0.103392,-0.000177,0.999999,0.000652,-0.000079,-0.001053,-0.000647,0.000074,0.000970
2.750000,0.041242,-0.426723,0.499930,-0.087567,1.583741,0.000071,-0.886231,0.150628,-0.000075,3.238789,-0.612111,0.000103,3.523479,0.086101,-0.000679,0.999999,0.000648,-0.000078,-0.001048,-0.000643,0.000073,0.000965
2.760000,0.040323,-0.410878,0.499931,-0.096267,1.585217,0.000070,-0.853650,0.144517,-0.000074,3.277594,-0.609909,0.000115,3.455637,0.104271,-0.000474,0.999999,0.000645,-0.000078,-0.001043,-0.000640,0.000073,0.000960
2.770000,0.039318,-0.395019,0.499932,-0.104639,1.586631,0.000069,-0.820745,0.138410,-0.000073,3.300718,-0.612323,0.000062,1.929694,-0.343755,-0.006682,0.999999,0.000642,-0.000077,-0.001039,-0.000636,0.000072,0.000955
2.780000,0.038231,-0.379146,0.499932,-0.112681,1.587985,0.000068,-0.787603,0.132283,-0.000073,3.332156,-0.611673,0.000052,4.382322,0.481663,0.004659,0.999999,0.000639,-0.000077,-0.001034,-0.000633,0.000072,0.000949
2.790000,0.037066,-0.363259,0.499933,-0.120390,1.589277,0.000068,-0.754064,0.126190,-0.000072,3.373006,-0.607604,0.000088,3.021099,0.086945,-0.000791,0.999999,0.000636,-0.000077,-0.001029,-0.000629,0.000072,0.000944
2.800000,0.035825,-0.347360,0.499934,-0.127762,1.590509,0.000067,-0.720205,0.120112,-0.000071,3.399096,-0.607849,0.000065,2.961588,0.108841,-0.000464,0.999999,0.000632,-0.000076,-0.001024,-0.000626,0.000071,0.000939
2.810000,0.034512,-0.331449,0.499934,-0.134793,1.591679,0.000066,-0.686069,0.114038,-0.000070,3.428008,-0.606851,0.000072,2.849317,0.112629,-0.000122,0.999999,0.000629,-0.000076,-0.001020,-0.000622,0.000071,0.000934
2.820000,0.033130,-0.315527,0.499935,-0.141482,1.592789,0.000065,-0.651647,0.107977,-0.000070,3.456339,-0.605397,0.000044,2.788440,0.156699,-0.003420,0.999999,0.000626,-0.000076,-0.001015,-0.000619,0.000070,0.000929
2.830000,0.031683,-0.299594,0.499936,-0.147825,1.593839,0.000065,-0.616947,0.101930,-0.000069,3.483176,-0.604168,0.000043,2.577277,0.088324,0.003215,0.999999,0.000623,-0.000075,-0.001010,-0.000615,0.000070,0.000924
2.840000,0.030175,-0.283650,0.499936,-0.153820,1.594828,0.000064,-0.581988,0.095892,-0.000069,3.508433,-0.603206,0.000070,2.501235,0.125163,0.000330,0.999999,0.000620,-0.000075,-0.001006,-0.000612,0.000070,0.000919
2.850000,0.028608,-0.267697,0.499937,-0.159464,1.595757,0.000063,-0.546780,0.089867,-0.000068,3.532938,-0.601854,0.000065,2.370452,0.123464,0.000567,0.999999,0.000617,-0.000075,-0.001001,-0.000608,0.000069,0.000914
2.860000,0.026987,-0.251735,0.499938,-0.164755,1.596625,0.000063,-0.511352,0.083849,-0.000068,3.552147,-0.601897,0.000046,2.157724,0.095569,0.000203,0.999999,0.000614,-0.000074,-0.000997,-0.000605,0.000069,0.000909
2.870000,0.025314,-0.235765,0.499938,-0.169690,1.597434,0.000062,-0.475689,0.077847,-0.000067,3.582398,-0.597852,0.000110,3.224256,0.491947,0.008212,0.999999,0.000611,-0.000074,-0.000992,-0.000601,0.000069,0.000904
2.880000,0.023594,-0.219787,0.499939,-0.174268,1.598182,0.000061,-0.439742,0.071881,-0.000066,3.602606,-0.596707,0.000119,0.795855,-0.270013,-0.006621,0.999999,0.000608,-0.000074,-0.000988,-0.000598,0.000068,0.000899
2.890000,0.021830,-0.203802,0.499939,-0.178485,1.598871,0.000061,-0.403679,0.065900,-0.000065,3.611805,-0.598780,0.000066,1.717329,0.078736,0.000455,0.999999,0.000605,-0.000073,-0.000983,-0.000595,0.000068,0.000894
2.900000,0.020025,-0.187810,0.499940,-0.182341,1.599500,0.000060,-0.367460,0.059922,-0.000064,3.631231,-0.597028,0.000090,1.496510,0.049088,0.000064,0.999999,0.000602,-0.000073,-0.000979,-0.000591,0.000067,0.000890
2.910000,0.018184,-0.171812,0.499941,-0.185834,1.600070,0.000059,-0.331064,0.053958,-0.000063,3.648114,-0.595630,0.000101,1.376354,0.054026,0.000106,0.999999,0.000599,-0.000073,-0.000974,-0.000588,0.000067,0.000885
2.920000,0.016310,-0.155808,0.499941,-0.188962,1.600580,0.000059,-0.294543,0.047995,-0.000062,3.654128,-0.597574,0.000073,0.316067,-0.270874,-0.003635,0.999999,0.000596,-0.000072,-0.000970,-0.000585,0.000067,0.000880
2.930000,0.014406,-0.139800,0.499942,-0.191724,1.601030,0.000058,-0.257962,0.042015,-0.000061,3.664715,-0.597437,0.000070,1.816996,0.303653,0.003062,0.999999,0.000593,-0.000072,-0.000965,-0.000581,0.000066,0.000875
2.940000,0.012477,-0.123788,0.499942,-0.194120,1.601420,0.000058,-0.221227,0.036055,-0.000061,3.680578,-0.594973,0.000094,0.861987,0.015965,-0.000265,0.999999,0.000590,-0.000072,-0.000961,-0.000578,0.000066,0.000870
2.950000,0.010525,-0.107772,0.499943,-0.196148,1.601751,0.000057,-0.184394,0.030102,-0.000060,3.686153,-0.595644,0.000082,0.745621,0.022830,-0.000129,0.999999,0.000587,-0.000071,-0.000957,-0.000575,0.000066,0.000866
2.960000,0.008555,-0.091753,0.499943,-0.197808,1.602022,0.000056,-0.147499,0.024146,-0.000059,3.692443,-0.595602,0.000081,0.589818,0.015590,-0.000143,0.999999,0.000585,-0.000071,-0.000952,-0.000571,0.000065,0.000861
2.970000,0.006570,-0.075732,0.499944,-0.199098,1.602234,0.000056,-0.110544,0.018192,-0.000058,3.698662,-0.595055,0.000079,0.578887,0.064698,-0.000122,0.999999,0.000582,-0.000071,-0.000948,-0.000568,0.000065,0.000856
2.980000,0.004574,-0.059709,0.499945,-0.200019,1.602386,0.000055,-0.073535,0.012243,-0.000057,3.702445,-0.594921,0.000078,0.175363,-0.038775,-0.000180,0.999999,0.000579,-0.000070,-0.000944,-0.000565,0.000065,0.000851
2.990000,0.002571,-0.043684,0.499945,-0.200569,1.602479,0.000055,-0.036504,0.006292,-0.000057,3.703688,-0.595240,0.000076,0.149055,0.004391,-0.000157,0.999999,0.000576,-0.000070,-0.000940,-0.000562,0.000064,0.000847
3.000000,0.000564,-0.027659,0.499946,-0.200749,1.602512,0.000054,0.000540,0.000340,-0.000056,3.704782,-0.595084,0.000075,-0.005768,-0.002427,-0.000156,0.999999,0.000573,-0.000070,-0.000935,-0.000558,0.000064,0.000842
3.010000,-0.001443,-0.011634,0.499946,-0.200558,1.602485,0.000054,0.037585,-0.005611,-0.000055,3.703868,-0.595175,0.000073,-0.157911,-0.008203,-0.000158,0.999999,0.000570,-0.000069,-0.000931,-0.000555,0.000063,0.000837
3.020000,-0.003446,0.004390,0.499947,-0.199997,1.602400,0.000053,0.074614,-0.011563,-0.000054,3.701801,-0.595178,0.000072,-0.274096,0.000162,-0.000074,0.999999,0.000568,-0.000069,-0.000927,-0.000552,0.000063,0.000833
3.030000,-0.005441,0.020413,0.499947,-0.199066,1.602254,0.000052,0.111615,-0.017515,-0.000054,3.697995,-0.595326,0.000070,-0.487791,-0.029913,-0.000213,0.999999,0.000565,-0.000069,-0.000923,-0.000549,0.000063,0.000828
3.040000,-0.007426,0.036435,0.499948,-0.197765,1.602049,0.000052,0.148568,-0.023470,-0.000053,3.692423,-0.595628,0.000069,-0.607703,-0.023097,-0.000117,0.999999,0.000562,-0.000068,-0.000919,-0.000546,0.000062,0.000824
3.050000,-0.009396,0.052454,0.499948,-0.196095,1.601785,0.000051,0.185460,-0.029427,-0.000052,3.685681,-0.595851,0.000067,-0.759416,-0.028881,-0.000139,0.999999,0.000560,-0.000068,-0.000915,-0.000543,0.000062,0.000819
3.060000,-0.011347,0.068471,0.499949,-0.194056,1.601461,0.000051,0.222276,-0.035387,-0.000052,3.677321,-0.596171,0.000066,-0.910034,-0.034265,-0.000136,0.999999,0.000557,-0.000068,-0.000910,-0.000540,0.000062,0.000815
3.070000,-0.013275,0.084483,0.499949,-0.191649,1.601077,0.000050,0.259001,-0.041351,-0.000051,3.667504,-0.596529,0.000065,-1.055791,-0.038150,-0.000084,0.999999,0.000554,-0.000067,-0.000906,-0.000536,0.000061,0.000810
3.080000,-0.015178,0.100492,0.499950,-0.188876,1.600634,0.000050,0.295621,-0.047318,-0.000050,3.656156,-0.596950,0.000063,-1.213862,-0.046060,-0.000177,0.999999,0.000551,-0.000067,-0.000902,-0.000533,0.000061,0.000806
3.090000,-0.017052,0.116496,0.499950,-0.185737,1.600131,0.000049,0.332119,-0.053290,-0.000050,3.643276,-0.597434,0.000062,-1.359521,-0.050076,-0.000168,0.999999,0.000549,-0.000067,-0.000898,-0.000530,0.000061,0.000801
3.100000,-0.018892,0.132494,0.499951,-0.182234,1.599568,0.000049,0.368482,-0.059267,-0.000049,3.628946,-0.597958,0.000061,-1.508924,-0.055374,-0.000114,0.999999,0.000546,-0.000067,-0.000894,-0.000527,0.000060,0.000797
3.110000,-0.020695,0.148487,0.499951,-0.178368,1.598945,0.000048,0.404693,-0.065249,-0.000048,3.613112,-0.598537,0.000060,-1.657758,-0.060567,-0.000111,0.999999,0.000544,-0.000066,-0.000890,-0.000524,0.000060,0.000792
3.120000,-0.022458,0.164473,0.499952,-0.174141,1.598263,0.000048,0.440739,-0.071238,-0.000048,3.595793,-0.599170,0.000059,-1.805998,-0.065978,-0.000083,0.999999,0.000541,-0.000066,-0.000886,-0.000521,0.000060,0.000788
3.130000,-0.024177,0.180452,0.499952,-0.169554,1.597520,0.000047,0.476604,-0.077233,-0.000047,3.576992,-0.599853,0.000058,-1.954041,-0.070614,-0.000131,0.999999,0.000538,-0.000066,-0.000883,-0.000518,0.000059,0.000783
3.140000,-0.025848,0.196423,0.499953,-0.164610,1.596718,0.000047,0.512274,-0.083235,-0.000047,3.556715,-0.600585,0.000057,-2.101195,-0.075897,-0.000112,0.999999,0.000536,-0.000065,-0.000879,-0.000515,0.000059,0.000779
3.150000,-0.027468,0.212386,0.499953,-0.159309,1.595856,0.000047,0.547733,-0.089245,-0.000046,3.534970,-0.601370,0.000056,-2.247830,-0.080905,-0.000102,0.999999,0.000533,-0.000065,-0.000875,-0.000512,0.000059,0.000775
3.160000,-0.029033,0.228340,0.499954,-0.153656,1.594933,0.000046,0.582968,-0.095262,-0.000046,3.511758,-0.602201,0.000055,-2.393868,-0.085715,-0.000097,0.999999,0.000531,-0.000065,-0.000871,-0.000509,0.000058,0.000770
3.170000,-0.030540,0.244285,0.499954,-0.147651,1.593950,0.000046,0.617964,-0.101289,-0.000045,3.487101,-0.603089,0.000054,-2.537911,-0.091386,-0.000088,0.999999,0.000528,-0.000064,-0.000867,-0.000506,0.000058,0.000766
3.180000,-0.031985,0.260219,0.499955,-0.141297,1.592907,0.000045,0.652705,-0.107324,-0.000044,3.460988,-0.604018,0.000053,-2.684610,-0.094531,-0.000107,0.999999,0.000526,-0.000064,-0.000863,-0.000503,0.000058,0.000762
3.190000,-0.033365,0.276143,0.499955,-0.134598,1.591804,0.000045,0.687179,-0.113369,-0.000044,3.433425,-0.604988,0.000052,-2.827173,-0.099939,-0.000106,0.999999,0.000523,-0.000064,-0.000859,-0.000500,0.000057,0.000757
3.200000,-0.034676,0.292055,0.499955,-0.127555,1.590640,0.000044,0.721369,-0.119424,-0.000043,3.404442,-0.606013,0.000051,-2.969977,-0.104470,-0.000099,0.999999,0.000521,-0.000064,-0.000856,-0.000498,0.000057,0.000753
3.210000,-0.035915,0.307955,0.499956,-0.120171,1.589415,0.000044,0.755263,-0.125490,-0.000043,3.374007,-0.607067,0.000050,-3.112293,-0.108670,-0.000102,1.000000,0.000518,-0.000063,-0.000852,-0.000495,0.000057,0.000749
3.220000,-0.037078,0.323843,0.499956,-0.112450,1.588130,0.000043,0.788845,-0.131566,-0.000042,3.342241,-0.608207,0.000049,-3.245141,-0.117091,-0.000114,1.000000,0.000516,-0.000063,-0.000848,-0.000492,0.000056,0.000745
3.230000,-0.038162,0.339718,0.499957,-0.104395,1.586784,0.000043,0.822103,-0.137654,-0.000042,3.309016,-0.609362,0.000048,-3.399842,-0.113724,-0.000133,1.000000,0.000513,-0.000063,-0.000844,-0.000489,0.000056,0.000740
3.240000,-0.039165,0.355578,0.499957,-0.096009,1.585377,0.000043,0.855020,-0.143753,-0.000042,3.274337,-0.610527,0.000046,-3.531340,-0.121519,-0.000211,1.000000,0.000511,-0.000062,-0.000841,-0.000486,0.000056,0.000736
3.250000,-0.040082,0.371425,0.499958,-0.087296,1.583909,0.000042,0.887585,-0.149865,-0.000041,3.238356,-0.611774,0.000045,-3.669095,-0.125465,-0.000124,1.000000,0.000508,-0.000062,-0.000837,-0.000483,0.000055,0.000732
3.260000,-0.040910,0.387256,0.499958,-0.078259,1.582380,0.000042,0.919782,-0.155989,-0.000041,3.200866,-0.612986,0.000044,-3.807557,-0.128244,-0.000132,1.000000,0.000506,-0.000062,-0.000833,-0.000480,0.000055,0.000728
3.270000,-0.041646,0.403072,0.499958,-0.068902,1.580789,0.000041,0.951600,-0.162125,-0.000040,3.162404,-0.614441,0.000043,-3.905107,-0.151895,-0.000161,1.000000,0.000503,-0.000062,-0.000830,-0.000478,0.000055,0.000724
3.280000,-0.042287,0.418872,0.499959,-0.059228,1.579137,0.000041,0.983025,-0.168277,-0.000040,3.122340,-0.615797,0.000041,-4.107951,-0.118985,-0.000139,1.000000,0.000501,-0.000061,-0.000826,-0.000475,0.000055,0.000720
3.290000,-0.042829,0.434655,0.499959,-0.049243,1.577424,0.000041,1.014041,-0.174441,-0.000039,3.080664,-0.617041,0.000040,-4.206179,-0.140658,-0.000183,1.000000,0.000499,-0.000061,-0.000823,-0.000472,0.000054,0.000716
3.300000,-0.043270,0.450420,0.499960,-0.038949,1.575648,0.000040,1.044635,-0.180619,-0.000039,3.038048,-0.618517,0.000038,-4.337339,-0.143875,-0.000179,1.000000,0.000496,-0.000061,-0.000819,-0.000469,0.000054,0.000712
3.310000,-0.043607,0.466168,0.499960,-0.028351,1.573811,0.000040,1.074800,-0.186812,-0.000039,2.994649,-0.620194,0.000035,-4.452778,-0.152421,-0.000224,1.000000,0.000494,-0.000061,-0.000815,-0.000466,0.000054,0.000707
3.320000,-0.043836,0.481896,0.499960,-0.017454,1.571912,0.000039,1.104516,-0.193020,-0.000038,2.947981,-0.621206,0.000036,-4.773248,-0.088036,0.000224,1.000000,0.000492,-0.000060,-0.000812,-0.000464,0.000053,0.000703
3.330000,-0.043955,0.497606,0.499961,-0.006263,1.569951,0.000039,1.133761,-0.199238,-0.000038,2.901445,-0.622751,0.000034,-4.530269,-0.222114,-0.000657,1.000000,0.000489,-0.000060,-0.000808,-0.000461,0.000053,0.000699
3.340000,-0.043961,0.513295,0.499961,0.005219,1.567927,0.000039,1.162546,-0.205477,-0.000038,2.855206,-0.624881,0.000028,-4.825724,-0.165530,-0.000233,1.000000,0.000487,-0.000060,-0.000805,-0.000458,0.000053,0.000695
3.350000,-0.043850,0.528964,0.499962,0.016987,1.565841,0.000038,1.190852,-0.211733,-0.000037,2.805854,-0.626386,0.000026,-4.936541,-0.173634,-0.000308,1.000000,0.000485,-0.000059,-0.000802,-0.000455,0.000052,0.000692
3.360000,-0.043620,0.544612,0.499962,0.029035,1.563692,0.000038,1.218661,-0.218006,-0.000037,2.755668,-0.628232,0.000023,-5.058556,-0.180517,-0.000328,1.000000,0.000483,-0.000059,-0.000798,-0.000453,0.000052,0.000688
3.370000,-0.043268,0.560238,0.499962,0.041358,1.561481,0.000038,1.245965,-0.224297,-0.000037,2.705071,-0.629858,0.000020,-5.101677,-0.159024,-0.000283,1.000000,0.000480,-0.000059,-0.000795,-0.000450,0.000052,0.000684
3.380000,-0.042792,0.575841,0.499963,0.053952,1.559206,0.000037,1.272757,-0.230604,-0.000037,2.652775,-0.631712,0.000017,-5.358832,-0.212014,-0.000386,1.000000,0.000478,-0.000059,-0.000791,-0.000447,0.000051,0.000680
3.390000,-0.042188,0.591421,0.499963,0.066812,1.556869,0.000037,1.299014,-0.236932,-0.000037,2.598721,-0.633803,0.000013,-5.410799,-0.191620,-0.000312,1.000000,0.000476,-0.000058,-0.000788,-0.000445,0.000051,0.000676
3.400000,-0.041455,0.606978,0.499964,0.079931,1.554468,0.000036,1.324730,-0.243279,-0.000036,2.544207,-0.635663,0.000010,-5.533222,-0.194625,-0.000252,1.000000,0.000474,-0.000058,-0.000784,-0.000442,0.000051,0.000672
3.410000,-0.040589,0.622511,0.499964,0.093304,1.552003,0.000036,1.349887,-0.249642,-0.000036,2.486756,-0.636848,0.000011,-5.683603,-0.179979,-0.000201,1.000000,0.000471,-0.000058,-0.000781,-0.000439,0.000051,0.000668
3.420000,-0.039588,0.638018,0.499964,0.106927,1.549475,0.000036,1.374482,-0.256027,-0.000036,2.433052,-0.640527,-0.000003,-5.322308,-0.422031,-0.001752,1.000000,0.000469,-0.000058,-0.000778,-0.000437,0.000050,0.000664
3.430000,-0.038450,0.653500,0.499965,0.120792,1.546882,0.000035,1.398531,-0.262446,-0.000036,2.374745,-0.642478,-0.000005,-6.346917,0.036194,0.001278,1.000000,0.000467,-0.000057,-0.000774,-0.000434,0.000050,0.000661
3.440000,-0.037171,0.668955,0.499965,0.134895,1.544226,0.000035,1.421959,-0.268869,-0.000036,2.311489,-0.642509,0.000005,-6.035867,-0.177425,-0.000075,1.000000,0.000465,-0.000057,-0.000771,-0.000432,0.000050,0.000657
3.450000,-0.035751,0.684384,0.499965,0.149229,1.541505,0.000035,1.444777,-0.275306,-0.000036,2.251767,-0.644881,0.000001,-6.174631,-0.162541,0.000050,1.000000,0.000463,-0.000057,-0.000768,-0.000429,0.000049,0.000653
3.460000,-0.034186,0.699785,0.499966,0.163789,1.538720,0.000034,1.466992,-0.281766,-0.000036,2.191310,-0.647129,-0.000001,-6.253607,-0.170066,0.000067,1.000000,0.000461,-0.000057,-0.000765,-0.000426,0.000049,0.000649
3.470000,-0.032474,0.715158,0.499966,0.178567,1.535870,0.000034,1.488573,-0.288240,-0.000036,2.123608,-0.647210,0.000007,-6.958314,0.040168,0.001042,1.000000,0.000458,-0.000056,-0.000761,-0.000424,0.000049,0.000645
3.480000,-0.030614,0.730503,0.499966,0.193558,1.532955,0.000034,1.509477,-0.294716,-0.000036,2.059039,-0.648712,0.000009,-5.944431,-0.344423,-0.000594,1.000000,0.000456,-0.000056,-0.000758,-0.000421,0.000049,0.000641
3.490000,-0.028603,0.745817,0.499967,0.208755,1.529975,0.000033,1.529769,-0.301220,-0.000036,1.998108,-0.651804,0.000005,-6.571663,-0.159498,0.000286,1.000000,0.000454,-0.000056,-0.000755,-0.000419,0.000048,0.000638
3.500000,-0.026438,0.761102,0.499967,0.224151,1.526930,0.000033,1.549411,-0.307743,-0.000036,1.930427,-0.652878,0.000010,-6.634144,-0.169588,0.000247,1.000000,0.000452,-0.000056,-0.000752,-0.000416,0.000048,0.000634
3.510000,-0.024119,0.776356,0.499967,0.239741,1.523820,0.000032,1.568383,-0.314282,-0.000036,1.863841,-0.654860,0.000010,-6.711215,-0.178285,0.000216,1.000000,0.000450,-0.000055,-0.000749,-0.000414,0.000048,0.000630
3.520000,-0.021643,0.791578,0.499968,0.255516,1.520645,0.000032,1.586683,-0.320837,-0.000036,1.795950,-0.655997,0.000018,-6.838991,-0.096181,0.001015,1.000000,0.000448,-0.000055,-0.000746,-0.000411,0.000048,0.000627
3.530000,-0.019008,0.806768,0.499968,0.271472,1.517404,0.000032,1.604301,-0.327404,-0.000036,1.727648,-0.657775,0.000021,-6.820236,-0.260844,-0.000464,1.000000,0.000446,-0.000055,-0.000742,-0.000409,0.000047,0.000623
3.540000,-0.016213,0.821926,0.499968,0.287600,1.514097,0.000031,1.621235,-0.333995,-0.000035,1.658990,-0.660257,0.000017,-6.939125,-0.187793,0.000215,1.000000,0.000444,-0.000055,-0.000739,-0.000406,0.000047,0.000619
3.550000,-0.013255,0.837050,0.499969,0.303894,1.510724,0.000031,1.637476,-0.340606,-0.000035,1.589104,-0.661933,0.000022,-7.010114,-0.194657,0.000198,1.000000,0.000442,-0.000055,-0.000736,-0.000404,0.000047,0.000616
3.560000,-0.010134,0.852140,0.499969,0.320347,1.507284,0.000031,1.653009,-0.347232,-0.000035,1.517206,-0.663251,0.000027,-7.111306,-0.184465,0.000238,1.000000,0.000440,-0.000054,-0.000733,-0.000401,0.000046,0.000612
3.570000,-0.006848,0.867196,0.499969,0.336952,1.503779,0.000030,1.667838,-0.353880,-0.000035,1.449255,-0.666683,0.000022,-6.729294,-0.389513,-0.000647,1.000000,0.000438,-0.000054,-0.000730,-0.000399,0.000046,0.000608
3.580000,-0.003395,0.882215,0.499969,0.353702,1.500207,0.000030,1.681979,-0.360560,-0.000034,1.377363,-0.668680,0.000024,-7.656775,-0.006209,0.000990,1.000000,0.000436,-0.000054,-0.000727,-0.000396,0.000046,0.000605
3.590000,0.000227,0.897199,0.499970,0.370589,1.496568,0.000030,1.695369,-0.367247,-0.000034,1.301193,-0.669076,0.000032,-7.323839,-0.186404,0.000223,1.000000,0.000434,-0.000054,-0.000724,-0.000394,0.000046,0.000601
3.600000,0.004017,0.912147,0.499970,0.387607,1.492862,0.000029,1.708020,-0.373950,-0.000034,1.228746,-0.671443,0.000032,-7.417292,-0.173888,0.000226,1.000000,0.000432,-0.000053,-0.000721,-0.000392,0.000045,0.000598
3.610000,0.007979,0.927056,0.499970,0.404747,1.489089,0.000029,1.719939,-0.380674,-0.000034,1.154990,-0.673450,0.000033,-7.475696,-0.174305,0.000197,1.000000,0.000430,-0.000053,-0.000718,-0.000389,0.000045,0.000594
3.620000,0.012113,0.941928,0.499971,0.422003,1.485248,0.000029,1.731106,-0.387415,-0.000033,1.077933,-0.674441,0.000038,-7.796987,-0.075402,0.000639,1.000000,0.000428,-0.000053,-0.000715,-0.000387,0.000045,0.000591
3.630000,0.016420,0.956761,0.499971,0.439367,1.481340,0.000028,1.741502,-0.394166,-0.000033,1.001964,-0.676038,0.000040,-7.391862,-0.245732,-0.000207,1.000000,0.000426,-0.000053,-0.000712,-0.000384,0.000044,0.000587
3.640000,0.020900,0.971555,0.499971,0.456831,1.477365,0.000028,1.751151,-0.400938,-0.000032,0.927311,-0.678313,0.000039,-7.677715,-0.157192,0.000184,1.000000,0.000424,-0.000053,-0.000709,-0.000382,0.000044,0.000584
3.650000,0.025556,0.986308,0.499972,0.474387,1.473321,0.000028,1.760035,-0.407728,-0.000032,0.849606,-0.679623,0.000042,-7.723661,-0.156542,0.000151,1.000000,0.000422,-0.000052,-0.000706,-0.000380,0.000044,0.000580
3.660000,0.030388,1.001021,0.499972,0.492029,1.469210,0.000027,1.768144,-0.414532,-0.000032,0.772028,-0.681148,0.000043,-7.776879,-0.152241,0.000121,1.000000,0.000420,-0.000052,-0.000703,-0.000377,0.000044,0.000577
3.670000,0.035397,1.015692,0.499972,0.509747,1.465031,0.000027,1.775476,-0.421351,-0.000031,0.694212,-0.682711,0.000044,-7.799977,-0.155870,0.000071,1.000000,0.000419,-0.000052,-0.000701,-0.000375,0.000043,0.000573
3.680000,0.040584,1.030321,0.499972,0.527536,1.460783,0.000027,1.782026,-0.428186,-0.000031,0.615746,-0.684173,0.000045,-7.893073,-0.136296,0.000094,1.000000,0.000417,-0.000052,-0.000698,-0.000373,0.000043,0.000570
3.690000,0.045948,1.044908,0.499973,0.545385,1.456467,0.000026,1.787788,-0.435034,-0.000030,0.536644,-0.685525,0.000045,-7.912686,-0.138501,0.000021,1.000000,0.000415,-0.000051,-0.000695,-0.000370,0.000043,0.000566
3.700000,0.051492,1.059450,0.499973,0.563289,1.452082,0.000026,1.792759,-0.441896,-0.000030,0.457383,-0.686903,0.000046,-7.953020,-0.132775,0.000033,1.000000,0.000413,-0.000051,-0.000692,-0.000368,0.000043,0.000563
3.710000,0.057214,1.073949,0.499973,0.581238,1.447629,0.000026,1.796934,-0.448772,-0.000029,0.377651,-0.688199,0.000046,-7.989542,-0.127023,0.000019,1.000000,0.000411,-0.000051,-0.000689,-0.000366,0.000042,0.000560
3.720000,0.063116,1.088403,0.499973,0.599225,1.443107,0.000026,1.800311,-0.455660,-0.000029,0.297633,-0.689448,0.000046,-8.016736,-0.122096,-0.000101,1.000000,0.000409,-0.000051,-0.000686,-0.000363,0.000042,0.000556
3.730000,0.069199,1.102811,0.499974,0.617241,1.438516,0.000025,1.802886,-0.462561,-0.000028,0.217262,-0.690628,0.000046,-8.056929,-0.113778,0.000079,1.000000,0.000407,-0.000051,-0.000684,-0.000361,0.000042,0.000553
3.740000,0.075461,1.117173,0.499974,0.635280,1.433856,0.000025,1.804655,-0.469472,-0.000028,0.136569,-0.691735,0.000046,-8.078040,-0.108161,0.000004,1.000000,0.000406,-0.000050,-0.000681,-0.000359,0.000042,0.000549
3.750000,0.081904,1.131488,0.499974,0.653332,1.429126,0.000025,1.805616,-0.476395,-0.000028,0.055686,-0.692783,0.000045,-8.101066,-0.101018,-0.000044,1.000000,0.000404,-0.000050,-0.000678,-0.000357,0.000041,0.000546
3.760000,0.088528,1.145755,0.499974,0.671389,1.424328,0.000024,1.805768,-0.483328,-0.000027,-0.025427,-0.693758,0.000045,-8.120471,-0.093709,-0.000052,1.000000,0.000402,-0.000050,-0.000675,-0.000354,0.000041,0.000543
3.770000,0.095332,1.159974,0.499975,0.689444,1.419460,0.000024,1.805107,-0.490270,-0.000027,-0.106707,-0.694652,0.000044,-8.135457,-0.085375,-0.000113,1.000000,0.000400,-0.000050,-0.000673,-0.000352,0.000041,0.000539
3.780000,0.102317,1.174144,0.499975,0.707489,1.414522,0.000024,1.803633,-0.497221,-0.000026,-0.188134,-0.695472,0.000043,-8.149330,-0.078537,-0.000024,1.000000,0.000399,-0.000050,-0.000670,-0.000350,0.000041,0.000536
3.790000,0.109482,1.188264,0.499975,0.725514,1.409515,0.000024,1.801344,-0.504179,-0.000026,-0.269673,-0.696215,0.000043,-8.157262,-0.069636,-0.000067,1.000000,0.000397,-0.000049,-0.000667,-0.000348,0.000040,0.000533
3.800000,0.116827,1.202334,0.499975,0.743513,1.404439,0.000023,1.798240,-0.511145,-0.000025,-0.351271,-0.696865,0.000042,-8.162309,-0.060780,-0.000082,1.000000,0.000395,-0.000049,-0.000665,-0.000345,0.000040,0.000530
3.810000,0.124352,1.216353,0.499976,0.761476,1.399292,0.000023,1.794319,-0.518116,-0.000025,-0.432919,-0.697409,0.000042,-8.163946,-0.051253,-0.000076,1.000000,0.000393,-0.000049,-0.000662,-0.000343,0.000040,0.000526
3.820000,0.132056,1.230320,0.499976,0.779397,1.394076,0.000023,1.789581,-0.525093,-0.000024,-0.514513,-0.697919,0.000040,-8.156768,-0.047481,-0.000225,1.000000,0.000392,-0.000049,-0.000659,-0.000341,0.000040,0.000523
3.830000,0.139940,1.244234,0.499976,0.797265,1.388791,0.000023,1.784028,-0.532074,-0.000024,-0.596097,-0.698290,0.000039,-8.159523,-0.026717,0.000040,1.000000,0.000390,-0.000049,-0.000657,-0.000339,0.000039,0.000520
3.840000,0.148001,1.258095,0.499976,0.815075,1.383435,0.000022,1.777660,-0.539058,-0.000024,-0.677637,-0.698516,0.000039,-8.145217,-0.021597,-0.000104,1.000000,0.000388,-0.000048,-0.000654,-0.000337,0.000039,0.000517
3.850000,0.156241,1.271903,0.499976,0.832816,1.378009,0.000022,1.770476,-0.546044,-0.000023,-0.759011,-0.698693,0.000038,-8.131484,-0.010572,-0.000082,1.000000,0.000387,-0.000048,-0.000652,-0.000334,0.000039,0.000513
3.860000,0.164658,1.285655,0.499977,0.850481,1.372514,0.000022,1.762480,-0.553031,-0.000023,-0.840222,-0.698730,0.000036,-8.113246,0.000790,-0.000099,1.000000,0.000385,-0.000048,-0.000649,-0.000332,0.000039,0.000510
3.870000,0.173250,1.299353,0.499977,0.868063,1.366949,0.000022,1.753672,-0.560019,-0.000023,-0.921291,-0.698698,0.000037,-8.096860,0.008012,0.000148,1.000000,0.000383,-0.000048,-0.000647,-0.000330,0.000038,0.000507
3.880000,0.182019,1.312994,0.499977,0.885552,1.361314,0.000021,1.744055,-0.567005,-0.000022,-1.002082,-0.698520,0.000036,-8.060431,0.027640,-0.000337,1.000000,0.000382,-0.000048,-0.000644,-0.000328,0.000038,0.000504
3.890000,0.190961,1.326579,0.499977,0.902941,1.355609,0.000021,1.733632,-0.573988,-0.000022,-1.082548,-0.698191,0.000033,-8.035232,0.035925,-0.000149,1.000000,0.000380,-0.000047,-0.000642,-0.000326,0.000038,0.000501
3.900000,0.200077,1.340106,0.499978,0.920222,1.349834,0.000021,1.722405,-0.580968,-0.000022,-1.162746,-0.697780,0.000032,-8.000660,0.048520,-0.000251,1.000000,0.000378,-0.000047,-0.000639,-0.000324,0.000038,0.000497
3.910000,0.209365,1.353575,0.499978,0.937387,1.343989,0.000021,1.710378,-0.587944,-0.000021,-1.242525,-0.697356,0.000031,-7.961305,0.058606,-0.000151,1.000000,0.000377,-0.000047,-0.000637,-0.000322,0.000037,0.000494
3.920000,0.218824,1.366986,0.499978,0.954427,1.338075,0.000021,1.697555,-0.594913,-0.000021,-1.322021,-0.696406,0.000031,-7.930506,0.110150,-0.000000,1.000000,0.000375,-0.000047,-0.000634,-0.000319,0.000037,0.000491
3.930000,0.228453,1.380336,0.499978,0.971335,1.332091,0.000020,1.683940,-0.601873,-0.000021,-1.400982,-0.695599,0.000029,-7.860894,0.050684,-0.000308,1.000000,0.000374,-0.000047,-0.000632,-0.000317,0.000037,0.000488
3.940000,0.238251,1.393627,0.499978,0.988103,1.326038,0.000020,1.669538,-0.608826,-0.000020,-1.479359,-0.694960,0.000026,-7.820286,0.098657,-0.000161,1.000000,0.000372,-0.000046,-0.000629,-0.000315,0.000037,0.000485
3.950000,0.248215,1.406857,0.499979,1.004723,1.319915,0.000020,1.654354,-0.615770,-0.000020,-1.557318,-0.693805,0.000025,-7.764160,0.110861,-0.000190,1.000000,0.000370,-0.000046,-0.000627,-0.000313,0.000036,0.000482
3.960000,0.258344,1.420025,0.499979,1.021188,1.313722,0.000020,1.638393,-0.622702,-0.000020,-1.634706,-0.692485,0.000024,-7.705064,0.127893,-0.000171,1.000000,0.000369,-0.000046,-0.000624,-0.000311,0.000036,0.000479
3.970000,0.268638,1.433131,0.499979,1.037489,1.307461,0.000020,1.621662,-0.629621,-0.000020,-1.711334,-0.691480,0.000020,-7.627207,0.097965,-0.000542,1.000000,0.000367,-0.000046,-0.000622,-0.000309,0.000036,0.000476
3.980000,0.279094,1.446174,0.499979,1.053618,1.301130,0.000019,1.604168,-0.636529,-0.000019,-1.787394,-0.690004,0.000018,-7.584384,0.198047,0.000176,1.000000,0.000366,-0.000046,-0.000620,-0.000307,0.000036,0.000473
3.990000,0.289710,1.459154,0.499979,1.069569,1.294730,0.000019,1.585916,-0.643419,-0.000019,-1.862855,-0.688017,0.000019,-7.499413,0.174540,-0.000105,1.000000,0.000364,-0.000046,-0.000617,-0.000305,0.000036,0.000470
4.000000,0.300484,1.472069,0.499980,1.085334,1.288261,0.000019,1.566914,-0.650291,-0.000019,-1.937432,-0.686301,0.000016,-7.422937,0.193840,-0.000135,1.000000,0.000363,-0.000045,-0.000615,-0.000303,0.000035,0.000467
4.010000,0.311416,1.484919,0.499980,1.100905,1.281724,0.000019,1.547171,-0.657144,-0.000019,-2.011166,-0.684231,0.000015,-7.339683,0.212924,-0.000109,1.000000,0.000361,-0.000045,-0.000613,-0.000301,0.000035,0.000464
4.020000,0.322502,1.497703,0.499980,1.116275,1.275119,0.000019,1.526692,-0.663976,-0.000019,-2.084364,-0.682108,0.000013,-7.283057,0.218822,-0.000223,1.000000,0.000360,-0.000045,-0.000610,-0.000299,0.000035,0.000461
4.030000,0.333741,1.510421,0.499980,1.131437,1.268445,0.000018,1.505487,-0.670785,-0.000019,-2.156474,-0.679705,0.000012,-7.137735,0.262102,0.000039,1.000000,0.000358,-0.000045,-0.000608,-0.000297,0.000035,0.000458
4.040000,0.345130,1.523072,0.499980,1.146382,1.261703,0.000018,1.483567,-0.677569,-0.000019,-2.227430,-0.677008,0.000012,-7.069032,0.270206,-0.000096,1.000000,0.000357,-0.000045,-0.000606,-0.000295,0.000034,0.000455
4.050000,0.356668,1.535655,0.499980,1.161106,1.254894,0.000018,1.460940,-0.684325,-0.000018,-2.297703,-0.674242,0.000012,-6.968447,0.290352,-0.000026,1.000000,0.000355,-0.000044,-0.000603,-0.000293,0.000034,0.000452
4.060000,0.368351,1.548169,0.499981,1.175599,1.248017,0.000018,1.437617,-0.691053,-0.000018,-2.366788,-0.671376,0.000011,-6.862985,0.307610,-0.000026,1.000000,0.000354,-0.000044,-0.000601,-0.000291,0.000034,0.000449
4.070000,0.380179,1.560615,0.499981,1.189856,1.241073,0.000018,1.413607,-0.697750,-0.000018,-2.435086,-0.667863,0.000013,-6.781395,0.371144,0.000269,1.000000,0.000352,-0.000044,-0.000599,-0.000289,0.000034,0.000446
4.080000,0.392148,1.572990,0.499981,1.203869,1.234062,0.000018,1.388920,-0.704411,-0.000018,-2.502098,-0.664455,0.000013,-6.619722,0.309645,-0.000260,1.000000,0.000351,-0.000044,-0.000597,-0.000287,0.000033,0.000443
4.090000,0.404255,1.585296,0.499981,1.217632,1.226984,0.000017,1.363570,-0.711040,-0.000018,-2.567762,-0.661185,0.000011,-6.527167,0.368642,-0.000026,1.000000,0.000350,-0.000044,-0.000595,-0.000285,0.000033,0.000440
4.100000,0.416499,1.597530,0.499981,1.231138,1.219841,0.000017,1.337567,-0.717632,-0.000018,-2.632503,-0.657287,0.000011,-6.405893,0.386952,-0.000066,1.000000,0.000348,-0.000044,-0.000592,-0.000283,0.000033,0.000437
4.110000,0.428877,1.609692,0.499982,1.244381,1.212632,0.000017,1.310924,-0.724185,-0.000018,-2.695994,-0.653237,0.000012,-6.283011,0.408828,0.000007,1.000000,0.000347,-0.000043,-0.000590,-0.000281,0.000033,0.000434
4.120000,0.441386,1.621782,0.499982,1.257354,1.205358,0.000017,1.283652,-0.730698,-0.000018,-2.758078,-0.649236,0.000013,-6.141136,0.404991,0.000116,1.000000,0.000345,-0.000043,-0.000588,-0.000279,0.000033,0.000431
4.130000,0.454023,1.633799,0.499982,1.270052,1.198018,0.000017,1.255766,-0.737169,-0.000017,-2.818972,-0.644853,0.000013,-6.037292,0.472043,-0.000086,1.000000,0.000344,-0.000043,-0.000586,-0.000277,0.000032,0.000428
4.140000,0.466786,1.645742,0.499982,1.282468,1.190614,0.000016,1.227277,-0.743593,-0.000017,-2.878652,-0.640067,0.000012,-5.890168,0.471674,0.000013,1.000000,0.000343,-0.000043,-0.000584,-0.000275,0.000032,0.000425
4.150000,0.479672,1.657611,0.499982,1.294596,1.183146,0.000016,1.198198,-0.749970,-0.000017,-2.936832,-0.635303,0.000012,-5.753306,0.494673,-0.000002,1.000000,0.000341,-0.000043,-0.000582,-0.000273,0.000032,0.000422
4.160000,0.492677,1.669405,0.499982,1.306430,1.175615,0.000016,1.168545,-0.756298,-0.000017,-2.993651,-0.630249,0.000013,-5.612390,0.517003,0.000004,1.000000,0.000340,-0.000043,-0.000580,-0.000272,0.000032,0.000419
4.170000,0.505799,1.681123,0.499982,1.317965,1.168021,0.000016,1.138330,-0.762574,-0.000017,-3.049093,-0.624955,0.000012,-5.473009,0.541096,-0.000145,1.000000,0.000338,-0.000043,-0.000577,-0.000270,0.000032,0.000417
4.180000,0.519035,1.692765,0.499983,1.329195,1.160364,0.000016,1.107568,-0.768797,-0.000017,-3.103049,-0.619443,0.000012,-5.317763,0.561322,0.000107,1.000000,0.000337,-0.000042,-0.000575,-0.000268,0.000031,0.000414
4.190000,0.532382,1.704330,0.499983,1.340114,1.152645,0.000016,1.076274,-0.774962,-0.000017,-3.155487,-0.613712,0.000012,-5.171801,0.585739,-0.000078,1.000000,0.000336,-0.000042,-0.000573,-0.000266,0.000031,0.000411
4.200000,0.545837,1.715818,0.499983,1.350718,1.144865,0.000015,1.044463,-0.781070,-0.000017,-3.206455,-0.607735,0.000012,-5.018768,0.608924,-0.000001,1.000000,0.000334,-0.000042,-0.000571,-0.000264,0.000031,0.000408
4.210000,0.559395,1.727228,0.499983,1.361002,1.137024,0.000015,1.012150,-0.787116,-0.000016,-3.255865,-0.601532,0.000012,-4.863036,0.632328,-0.000001,1.000000,0.000333,-0.000042,-0.000569,-0.000262,0.000031,0.000405
4.220000,0.573056,1.738558,0.499983,1.370960,1.129123,0.000015,0.979351,-0.793100,-0.000016,-3.303710,-0.595083,0.000012,-4.705181,0.656956,0.000011,1.000000,0.000332,-0.000042,-0.000567,-0.000260,0.000030,0.000402
4.230000,0.586814,1.749810,0.499983,1.380587,1.121162,0.000015,0.946081,-0.799017,-0.000016,-3.349953,-0.588404,0.000012,-4.543075,0.678855,-0.000014,1.000000,0.000330,-0.000042,-0.000565,-0.000258,0.000030,0.000400
4.240000,0.600666,1.760981,0.499984,1.389880,1.113142,0.000015,0.912357,-0.804867,-0.000016,-3.394569,-0.581494,0.000012,-4.379991,0.703618,-0.000003,1.000000,0.000329,-0.000041,-0.000563,-0.000257,0.000030,0.000397
4.250000,0.614610,1.772072,0.499984,1.398833,1.105065,0.000015,0.878195,-0.810646,-0.000016,-3.437543,-0.574335,0.000012,-4.213983,0.727661,-0.000001,1.000000,0.000328,-0.000041,-0.000561,-0.000255,0.000030,0.000394
4.260000,0.628642,1.783082,0.499984,1.407442,1.096930,0.000014,0.843612,-0.816353,-0.000016,-3.478844,-0.566938,0.000012,-4.045628,0.751789,-0.000001,1.000000,0.000327,-0.000041,-0.000559,-0.000253,0.000030,0.000391
4.270000,0.642758,1.794011,0.499984,1.415704,1.088738,0.000014,0.808624,-0.821984,-0.000016,-3.518447,-0.559298,0.000012,-3.874785,0.776180,-0.000003,1.000000,0.000325,-0.000041,-0.000557,-0.000251,0.000029,0.000389
4.280000,0.656955,1.804857,0.499984,1.423613,1.080490,0.000014,0.773249,-0.827538,-0.000016,-3.556335,-0.551416,0.000012,-3.702384,0.800214,-0.000017,1.000000,0.000324,-0.000041,-0.000555,-0.000249,0.000029,0.000386
4.290000,0.671229,1.815621,0.499984,1.431168,1.072188,0.000014,0.737503,-0.833012,-0.000015,-3.592485,-0.543291,0.000012,-3.527300,0.824763,-0.000073,1.000000,0.000323,-0.000041,-0.000553,-0.000247,0.000029,0.000383
4.300000,0.685577,1.826301,0.499984,1.438362,1.063830,0.000014,0.701405,-0.838403,-0.000015,-3.626876,-0.534922,0.000012,-3.350539,0.849150,0.000000,1.000000,0.000322,-0.000041,-0.000552,-0.000246,0.000029,0.000380
4.310000,0.699995,1.836897,0.499985,1.445195,1.055420,0.000014,0.664971,-0.843709,-0.000015,-3.659490,-0.526308,0.000012,-3.171819,0.873627,0.000000,1.000000,0.000320,-0.000040,-0.000550,-0.000244,0.000029,0.000378
4.320000,0.714479,1.847409,0.499985,1.451661,1.046956,0.000014,0.628221,-0.848928,-0.000015,-3.690307,-0.517449,0.000012,-2.991257,0.898157,-0.000000,1.000000,0.000319,-0.000040,-0.000548,-0.000242,0.000028,0.000375
4.330000,0.729027,1.857836,0.499985,1.457758,1.038441,0.000013,0.591171,-0.854058,-0.000015,-3.719310,-0.508345,0.000012,-2.809116,0.922630,0.000004,1.000000,0.000318,-0.000040,-0.000546,-0.000240,0.000028,0.000372
4.340000,0.743633,1.868178,0.499985,1.463483,1.029876,0.000013,0.553841,-0.859095,-0.000015,-3.746483,-0.498997,0.000012,-2.625242,0.947137,0.000026,1.000000,0.000317,-0.000040,-0.000544,-0.000239,0.000028,0.000370
4.350000,0.758295,1.878433,0.499985,1.468834,1.021260,0.000013,0.516248,-0.864037,-0.000015,-3.771810,-0.489402,0.000012,-2.439886,0.971671,0.000001,1.000000,0.000316,-0.000040,-0.000542,-0.000237,0.000028,0.000367
4.360000,0.773009,1.888603,0.499985,1.473807,1.012595,0.000013,0.478411,-0.868882,-0.000015,-3.795276,-0.479563,0.000012,-2.253095,0.996148,0.000001,1.000000,0.000314,-0.000040,-0.000540,-0.000235,0.000028,0.000364
4.370000,0.787770,1.898685,0.499985,1.478401,1.003883,0.000013,0.440349,-0.873627,-0.000014,-3.816867,-0.469479,0.000012,-2.064953,1.020590,-0.000000,1.000000,0.000313,-0.000040,-0.000539,-0.000233,0.000027,0.000362
4.380000,0.802575,1.908680,0.499985,1.482614,0.995123,0.000013,0.402080,-0.878271,-0.000014,-3.836571,-0.459152,0.000012,-1.875592,1.044941,-0.000007,1.000000,0.000312,-0.000039,-0.000537,-0.000231,0.000027,0.000359
4.390000,0.817421,1.918587,0.499986,1.486442,0.986318,0.000013,0.363624,-0.882809,-0.000014,-3.854375,-0.448581,0.000012,-1.685046,1.069227,-0.000029,1.000000,0.000311,-0.000039,-0.000535,-0.000230,0.000027,0.000356
4.400000,0.832303,1.928406,0.499986,1.489886,0.977467,0.000012,0.324999,-0.887241,-0.000014,-3.870269,-0.437766,0.000012,-1.493464,1.093504,0.000002,1.000000,0.000310,-0.000039,-0.000533,-0.000228,0.000027,0.000354
4.410000,0.847218,1.938136,0.499986,1.492942,0.968573,0.000012,0.286225,-0.891564,-0.000014,-3.884241,-0.426711,0.000012,-1.300892,1.117638,0.000002,1.000000,0.000309,-0.000039,-0.000531,-0.000226,0.000027,0.000351
4.420000,0.862161,1.947778,0.499986,1.495610,0.959636,0.000012,0.247320,-0.895775,-0.000014,-3.896284,-0.415414,0.000012,-1.107426,1.141686,0.000001,1.000000,0.000308,-0.000039,-0.000530,-0.000225,0.000026,0.000348
4.430000,0.877128,1.957329,0.499986,1.497888,0.950658,0.000012,0.208305,-0.899871,-0.000014,-3.906387,-0.403877,0.000012,-0.913194,1.165647,-0.000012,1.000000,0.000306,-0.000039,-0.000528,-0.000223,0.000026,0.000346
4.440000,0.892117,1.966791,0.499986,1.499775,0.941639,0.000012,0.169199,-0.903851,-0.000014,-3.914545,-0.392101,0.000012,-0.718238,1.189664,-0.000062,1.000000,0.000305,-0.000039,-0.000526,-0.000221,0.000026,0.000343
4.450000,0.907123,1.976162,0.499986,1.501272,0.932581,0.000012,0.130021,-0.907713,-0.000014,-3.920751,-0.380092,0.000012,-0.522713,1.212932,0.000003,1.000000,0.000304,-0.000039,-0.000524,-0.000219,0.000026,0.000341
4.460000,0.922141,1.985442,0.499986,1.502376,0.923485,0.000012,0.090791,-0.911453,-0.000013,-3.924998,-0.367845,0.000012,-0.326647,1.236377,0.000003,1.000000,0.000303,-0.000038,-0.000523,-0.000218,0.000026,0.000338
4.470000,0.937169,1.994631,0.499987,1.503087,0.914353,0.000011,0.051528,-0.915069,-0.000013,-3.927282,-0.355365,0.000013,-0.130166,1.259661,0.000006,1.000000,0.000302,-0.000038,-0.000521,-0.000216,0.000025,0.000335
4.480000,0.952202,2.003729,0.499987,1.503406,0.905184,0.000011,0.012251,-0.918559,-0.000013,-3.927600,-0.342653,0.000013,0.066690,1.282643,0.000019,1.000000,0.000301,-0.000038,-0.000519,-0.000214,0.000025,0.000333
4.490000,0.967236,2.012735,0.499987,1.503332,0.895982,0.000011,-0.027018,-0.921921,-0.000013,-3.925948,-0.329713,0.000013,0.263774,1.305362,0.000051,1.000000,0.000300,-0.000038,-0.000518,-0.000213,0.000025,0.000330
4.500000,0.982267,2.021649,0.499987,1.502866,0.886746,0.000011,-0.066261,-0.925153,-0.000013,-3.922325,-0.316542,0.000013,0.460931,1.328241,0.000003,1.000000,0.000299,-0.000038,-0.000516,-0.000211,0.000025,0.000328
4.510000,0.997292,2.030470,0.499987,1.502007,0.877479,0.000011,-0.105458,-0.928251,-0.000013,-3.916730,-0.303147,0.000013,0.658203,1.350652,0.000003,1.000000,0.000298,-0.000038,-0.000515,-0.000209,0.000025,0.000325
4.520000,1.012306,2.039198,0.499987,1.500757,0.868182,0.000011,-0.144589,-0.931215,-0.000013,-3.909161,-0.289529,0.000013,0.855446,1.372922,0.000002,1.000000,0.000297,-0.000038,-0.000513,-0.000208,0.000024,0.000323
4.530000,1.027305,2.047833,0.499987,1.499116,0.858855,0.000011,-0.183634,-0.934041,-0.000013,-3.899621,-0.275691,0.000013,1.052585,1.394596,-0.000006,1.000000,0.000296,-0.000038,-0.000511,-0.000206,0.000024,0.000320
4.540000,1.042287,2.056375,0.499987,1.497085,0.849502,0.000011,-0.222575,-0.936728,-0.000012,-3.888110,-0.261637,0.000012,1.249551,1.416203,-0.000023,1.000000,0.000295,-0.000037,-0.000510,-0.000204,0.000024,0.000318
4.550000,1.057246,2.064823,0.499987,1.494665,0.840121,0.000010,-0.261390,-0.939273,-0.000012,-3.874633,-0.247365,0.000013,1.446028,1.437720,0.000002,1.000000,0.000294,-0.000037,-0.000508,-0.000203,0.000024,0.000315
4.560000,1.072179,2.073177,0.499988,1.491857,0.830717,0.000010,-0.300061,-0.941674,-0.000012,-3.859192,-0.232883,0.000013,1.642217,1.458751,0.000002,1.000000,0.000293,-0.000037,-0.000507,-0.000201,0.000024,0.000313
4.570000,1.087082,2.081437,0.499988,1.488664,0.821288,0.000010,-0.338567,-0.943930,-0.000012,-3.841791,-0.218189,0.000013,1.837897,1.479788,0.000001,1.000000,0.000292,-0.000037,-0.000505,-0.000199,0.000023,0.000310
4.580000,1.101951,2.089603,0.499988,1.485087,0.811838,0.000010,-0.376890,-0.946038,-0.000012,-3.822436,-0.203292,0.000013,2.033041,1.499627,0.000008,1.000000,0.000291,-0.000037,-0.000503,-0.000198,0.000023,0.000308
4.590000,1.116782,2.097674,0.499988,1.481127,0.802368,0.000010,-0.415010,-0.947995,-0.000012,-3.801133,-0.188195,0.000013,2.227440,1.519989,0.000043,1.000000,0.000290,-0.000037,-0.000502,-0.000196,0.000023,0.000305
4.600000,1.131572,2.105650,0.499988,1.476787,0.792879,0.000010,-0.452906,-0.949801,-0.000012,-3.777889,-0.172895,0.000013,2.421137,1.539693,0.000001,1.000000,0.000289,-0.000037,-0.000500,-0.000195,0.000023,0.000303
4.610000,1.146317,2.113532,0.499988,1.472070,0.783373,0.000010,-0.490561,-0.951452,-0.000011,-3.752713,-0.157384,0.000013,2.613946,1.559377,0.000006,1.000000,0.000288,-0.000037,-0.000499,-0.000193,0.000023,0.000300
4.620000,1.161012,2.121318,0.499988,1.466977,0.773851,0.000010,-0.527954,-0.952948,-0.000011,-3.725612,-0.141736,0.000012,2.805945,1.573130,-0.000075,1.000000,0.000287,-0.000036,-0.000497,-0.000191,0.000022,0.000298
4.630000,1.175655,2.129009,0.499988,1.461511,0.764314,0.000009,-0.565067,-0.954286,-0.000011,-3.696599,-0.125863,0.000012,2.996536,1.601475,0.000076,1.000000,0.000286,-0.000036,-0.000496,-0.000190,0.000022,0.000295
4.640000,1.190241,2.136604,0.499988,1.455676,0.754765,0.000009,-0.601880,-0.955465,-0.000011,-3.665684,-0.109766,0.000013,3.186357,1.614922,0.000026,1.000000,0.000285,-0.000036,-0.000494,-0.000188,0.000022,0.000293
4.650000,1.204767,2.144104,0.499988,1.449475,0.745205,0.000009,-0.638374,-0.956481,-0.000011,-3.632877,-0.093539,0.000013,3.374802,1.632953,0.000004,1.000000,0.000284,-0.000036,-0.000493,-0.000187,0.000022,0.000290
4.660000,1.219229,2.151508,0.499989,1.442910,0.735636,0.000009,-0.674531,-0.957335,-0.000011,-3.598192,-0.077161,0.000012,3.561970,1.649459,-0.000015,1.000000,0.000283,-0.000036,-0.000492,-0.000185,0.000022,0.000288
4.670000,1.233624,2.158817,0.499989,1.435985,0.726059,0.000009,-0.710332,-0.958023,-0.000011,-3.561643,-0.060489,0.000014,3.747583,1.678307,0.000246,1.000000,0.000282,-0.000036,-0.000490,-0.000183,0.000022,0.000286
4.680000,1.247948,2.166029,0.499989,1.428705,0.716476,0.000009,-0.745758,-0.958544,-0.000011,-3.523243,-0.043737,0.000014,3.932134,1.671764,-0.000254,1.000000,0.000281,-0.000036,-0.000489,-0.000182,0.000021,0.000283
4.690000,1.262197,2.173146,0.499989,1.421072,0.706889,0.000009,-0.780791,-0.958898,-0.000010,-3.483007,-0.026921,0.000012,4.114700,1.698049,-0.000022,1.000000,0.000280,-0.000036,-0.000487,-0.000180,0.000021,0.000281
4.700000,1.276368,2.180167,0.499989,1.413090,0.697299,0.000009,-0.815412,-0.959082,-0.000010,-3.440956,-0.009830,0.000012,4.295639,1.712907,-0.000041,1.000000,0.000279,-0.000036,-0.000486,-0.000179,0.000021,0.000278
4.710000,1.290458,2.187092,0.499989,1.404765,0.687708,0.000009,-0.849604,-0.959094,-0.000010,-3.397104,0.007395,0.000013,4.474819,1.727932,-0.000033,1.000000,0.000279,-0.000035,-0.000484,-0.000177,0.000021,0.000276
4.720000,1.304462,2.193921,0.499989,1.396100,0.678118,0.000008,-0.883348,-0.958934,-0.000010,-3.351462,0.024690,0.000010,4.652834,1.734842,-0.000267,1.000000,0.000278,-0.000035,-0.000483,-0.000176,0.000021,0.000274
4.730000,1.318379,2.200654,0.499989,1.387099,0.668530,0.000008,-0.916627,-0.958600,-0.000010,-3.304061,0.042174,0.000010,4.827017,1.761977,0.000165,1.000000,0.000277,-0.000035,-0.000482,-0.000174,0.000020,0.000271
4.740000,1.332203,2.207292,0.499989,1.377769,0.658946,0.000008,-0.949423,-0.958090,-0.000010,-3.254921,0.059847,0.000011,5.000977,1.768613,-0.000031,1.000000,0.000276,-0.000035,-0.000480,-0.000172,0.000020,0.000269
4.750000,1.345933,2.213833,0.499989,1.368113,0.649369,0.000008,-0.981720,-0.957403,-0.000010,-3.204052,0.077582,0.000010,5.172143,1.781800,-0.000033,1.000000,0.000275,-0.000035,-0.000479,-0.000171,0.000020,0.000267
4.760000,1.359565,2.220279,0.499989,1.358136,0.639799,0.000008,-1.013499,-0.956537,-0.000010,-3.151477,0.095485,0.000010,5.341286,1.794509,-0.000022,1.000000,0.000274,-0.000035,-0.000478,-0.000169,0.000020,0.000264
4.770000,1.373095,2.226629,0.499989,1.347844,0.630238,0.000008,-1.044744,-0.955493,-0.000010,-3.097246,0.113432,0.000009,5.505703,1.798876,-0.000110,1.000000,0.000273,-0.000035,-0.000476,-0.000168,0.000020,0.000262
4.780000,1.386520,2.232884,0.499990,1.337243,0.620690,0.000008,-1.075438,-0.954268,-0.000009,-3.041345,0.131545,0.000009,5.674259,1.823784,0.000066,1.000000,0.000272,-0.000035,-0.000475,-0.000166,0.000020,0.000259
4.790000,1.399839,2.239043,0.499990,1.326338,0.611154,0.000008,-1.105565,-0.952861,-0.000009,-2.983795,0.149823,0.000009,5.834012,1.827705,-0.000011,1.000000,0.000272,-0.000035,-0.000474,-0.000165,0.000019,0.000257
4.800000,1.413046,2.245107,0.499990,1.315134,0.601633,0.000008,-1.135109,-0.951272,-0.000009,-2.924663,0.168131,0.000009,5.993263,1.837719,0.000021,1.000000,0.000271,-0.000035,-0.000473,-0.000163,0.000019,0.000255
4.810000,1.426140,2.251076,0.499990,1.303637,0.592129,0.000008,-1.164053,-0.949498,-0.000009,-2.863953,0.186523,0.000008,6.149640,1.846536,-0.000007,1.000000,0.000270,-0.000034,-0.000471,-0.000162,0.000019,0.000252
4.820000,1.439118,2.256950,0.499990,1.291855,0.582644,0.000008,-1.192383,-0.947540,-0.000009,-2.801666,0.205119,0.000010,6.305879,1.866345,0.000234,1.000000,0.000269,-0.000034,-0.000470,-0.000160,0.000019,0.000250
4.830000,1.451976,2.262729,0.499990,1.279792,0.573179,0.000007,-1.220082,-0.945396,-0.000009,-2.737874,0.223718,0.000010,6.452000,1.853073,-0.000217,1.000000,0.000268,-0.000034,-0.000469,-0.000159,0.000019,0.000248
4.840000,1.464713,2.268413,0.499990,1.267455,0.563736,0.000007,-1.247135,-0.943066,-0.000009,-2.672608,0.242304,0.000009,6.602168,1.870386,-0.000021,1.000000,0.000268,-0.000034,-0.000468,-0.000157,0.000019,0.000246
4.850000,1.477325,2.274004,0.499990,1.254851,0.554318,0.000007,-1.273529,-0.940549,-0.000009,-2.605855,0.261063,0.000009,6.746711,1.875834,-0.000008,1.000000,0.000267,-0.000034,-0.000466,-0.000156,0.000018,0.000243
4.860000,1.489809,2.279500,0.499990,1.241987,0.544926,0.000007,-1.299248,-0.937845,-0.000009,-2.537678,0.279863,0.000010,6.888299,1.881544,-0.000002,1.000000,0.000266,-0.000034,-0.000465,-0.000154,0.000018,0.000241
4.870000,1.502163,2.284902,0.499990,1.228869,0.535562,0.000007,-1.324278,-0.934952,-0.000009,-2.468099,0.298670,0.000009,7.026849,1.882014,-0.000146,1.000000,0.000265,-0.000034,-0.000464,-0.000153,0.000018,0.000239
4.880000,1.514386,2.290211,0.499990,1.215504,0.526227,0.000007,-1.348605,-0.931871,-0.000009,-2.397155,0.317550,0.000008,7.161498,1.894033,0.000120,1.000000,0.000265,-0.000034,-0.000463,-0.000151,0.000018,0.000236
4.890000,1.526473,2.295427,0.499990,1.201899,0.516925,0.000007,-1.372216,-0.928601,-0.000008,-2.324879,0.336500,0.000009,7.293149,1.893487,-0.000014,1.000000,0.000264,-0.000034,-0.000462,-0.000150,0.000018,0.000234
4.900000,1.538423,2.300550,0.499990,1.188062,0.507656,0.000007,-1.395098,-0.925141,-0.000008,-2.251301,0.355436,0.000009,7.421440,1.896162,-0.000002,1.000000,0.000263,-0.000034,-0.000460,-0.000148,0.000017,0.000232
4.910000,1.550233,2.305580,0.499990,1.173999,0.498423,0.000007,-1.417238,-0.921492,-0.000008,-2.176452,0.374406,0.000009,7.546135,1.897893,-0.000006,1.000000,0.000262,-0.000034,-0.000459,-0.000147,0.000017,0.000230
4.920000,1.561902,2.310518,0.499991,1.159719,0.489227,0.000007,-1.438623,-0.917653,-0.000008,-2.100404,0.393395,0.000009,7.664401,1.899536,0.000062,1.000000,0.000262,-0.000034,-0.000458,-0.000145,0.000017,0.000227
4.930000,1.573427,2.315365,0.499991,1.145230,0.480070,0.000007,-1.459242,-0.913624,-0.000008,-2.023147,0.412386,0.000009,7.786390,1.898488,-0.000082,1.000000,0.000261,-0.000033,-0.000457,-0.000144,0.000017,0.000225
4.940000,1.584806,2.320120,0.499991,1.130537,0.470955,0.000007,-1.479082,-0.909405,-0.000008,-1.944717,0.431370,0.000008,7.897384,1.898487,-0.000062,1.000000,0.000260,-0.000033,-0.000456,-0.000143,0.000017,0.000223
4.950000,1.596037,2.324784,0.499991,1.115651,0.461883,0.000006,-1.498133,-0.904997,-0.000008,-1.865203,0.450347,0.000009,8.006604,1.896848,-0.000010,1.000000,0.000259,-0.000033,-0.000455,-0.000141,0.000017,0.000221
4.960000,1.607118,2.329358,0.499991,1.100577,0.452856,0.000006,-1.516383,-0.900398,-0.000008,-1.784615,0.469308,0.000009,8.111665,1.894558,-0.000009,1.000000,0.000259,-0.000033,-0.000454,-0.000140,0.000016,0.000218
4.970000,1.618048,2.333841,0.499991,1.085326,0.443876,0.000006,-1.533822,-0.895611,-0.000008,-1.702972,0.488230,0.000008,8.215074,1.890361,-0.000046,1.000000,0.000258,-0.000033,-0.000453,-0.000138,0.000016,0.000216
4.980000,1.628824,2.338235,0.499991,1.069904,0.434944,0.000006,-1.550439,-0.890634,-0.000008,-1.620355,0.507123,0.000008,8.307389,1.888110,0.000024,1.000000,0.000257,-0.000033,-0.000451,-0.000137,0.000016,0.000214
4.990000,1.639446,2.342540,0.499991,1.054320,0.426063,0.000006,-1.566226,-0.885468,-0.000008,-1.536812,0.525979,0.000008,8.401791,1.882292,0.000004,1.000000,0.000257,-0.000033,-0.000450,-0.000135,0.000016,0.000212
5.000000,1.649910,2.346757,0.499991,1.038582,0.417235,0.000006,-1.581172,-0.880115,-0.000008,-1.452342,0.544771,0.000008,8.489871,1.876446,-0.000013,1.000000,0.000256,-0.000033,-0.000449,-0.000134,0.000016,0.000209
5.010000,1.660217,2.350885,0.499991,1.022699,0.408462,0.000006,-1.595270,-0.874573,-0.000007,-1.367019,0.563500,0.000008,8.573393,1.869622,-0.000014,1.000000,0.000255,-0.000033,-0.000448,-0.000132,0.000016,0.000207
5.020000,1.670364,2.354926,0.499991,1.006679,0.399745,0.000006,-1.608510,-0.868845,-0.000007,-1.280894,0.582163,0.000008,8.651320,1.862489,-0.000003,1.000000,0.000255,-0.000033,-0.000447,-0.000131,0.000015,0.000205
5.030000,1.680350,2.358880,0.499991,0.990532,0.391086,0.000006,-1.620885,-0.862930,-0.000007,-1.193998,0.600740,0.000008,8.727179,1.852686,-0.000011,1.000000,0.000254,-0.000033,-0.000446,-0.000130,0.000015,0.000203
5.040000,1.690174,2.362748,0.499991,0.974265,0.382487,0.000006,-1.632387,-0.856830,-0.000007,-1.106377,0.619220,0.000008,8.795637,1.843579,0.000038,1.000000,0.000253,-0.000033,-0.000445,-0.000128,0.000015,0.000201
5.050000,1.699835,2.366530,0.499991,0.957887,0.373950,0.000006,-1.643010,-0.850546,-0.000007,-1.018097,0.637606,0.000009,8.860016,1.833002,0.000146,1.000000,0.000253,-0.000032,-0.000444,-0.000127,0.000015,0.000198
5.060000,1.709331,2.370227,0.499991,0.941407,0.365476,0.000006,-1.652747,-0.844079,-0.000007,-0.929189,0.655877,0.000007,8.919846,1.821317,-0.000019,1.000000,0.000252,-0.000032,-0.000443,-0.000125,0.000015,0.000196
5.070000,1.718663,2.373840,0.499991,0.924835,0.357069,0.000006,-1.661592,-0.837429,-0.000007,-0.839714,0.674029,0.000007,8.974352,1.808824,-0.000008,1.000000,0.000251,-0.000032,-0.000442,-0.000124,0.000015,0.000194
5.080000,1.727828,2.377369,0.499992,0.908178,0.348728,0.000005,-1.669540,-0.830598,-0.000007,-0.749719,0.692050,0.000007,9.023642,1.795096,-0.000036,1.000000,0.000251,-0.000032,-0.000441,-0.000123,0.000014,0.000192
5.090000,1.736826,2.380815,0.499992,0.891447,0.340457,0.000005,-1.676585,-0.823588,-0.000007,-0.659258,0.709930,0.000006,9.067856,1.780845,-0.000032,1.000000,0.000250,-0.000032,-0.000440,-0.000121,0.000014,0.000190
5.100000,1.745656,2.384178,0.499992,0.874650,0.332257,0.000005,-1.682724,-0.816400,-0.000007,-0.568384,0.727653,0.000006,9.106395,1.764665,-0.000023,1.000000,0.000250,-0.000032,-0.000439,-0.000120,0.000014,0.000188
5.110000,1.754319,2.387460,0.499992,0.857796,0.324130,0.000005,-1.687951,-0.809036,-0.000007,-0.477149,0.745217,0.000006,9.139678,1.747908,-0.000022,1.000000,0.000249,-0.000032,-0.000438,-0.000118,0.000014,0.000185
5.120000,1.762812,2.390661,0.499992,0.840894,0.316077,0.000005,-1.692265,-0.801497,-0.000007,-0.385609,0.762606,0.000006,9.167484,1.729825,-0.000042,1.000000,0.000248,-0.000032,-0.000438,-0.000117,0.000014,0.000183
5.130000,1.771136,2.393782,0.499992,0.823953,0.308100,0.000005,-1.695663,-0.793784,-0.000007,-0.293819,0.779812,0.000006,9.189573,1.711277,0.000012,1.000000,0.000248,-0.000032,-0.000437,-0.000116,0.000014,0.000181
5.140000,1.779291,2.396824,0.499992,0.806984,0.300202,0.000005,-1.698141,-0.785901,-0.000007,-0.201836,0.796825,0.000006,9.206089,1.690787,0.000025,1.000000,0.000247,-0.000032,-0.000436,-0.000114,0.000013,0.000179
5.150000,1.787276,2.399786,0.499992,0.789994,0.292383,0.000005,-1.699699,-0.777849,-0.000006,-0.109718,0.813632,0.000005,9.216644,1.669988,-0.000021,1.000000,0.000247,-0.000032,-0.000435,-0.000113,0.000013,0.000177
5.160000,1.795091,2.402671,0.499992,0.772993,0.284645,0.000005,-1.700335,-0.769629,-0.000006,-0.017523,0.830222,0.000005,9.221390,1.647728,-0.000020,1.000000,0.000246,-0.000032,-0.000434,-0.000111,0.000013,0.000175
5.170000,1.802736,2.405480,0.499992,0.755990,0.276991,0.000005,-1.700050,-0.761245,-0.000006,0.074689,0.846583,0.000005,9.220096,1.624356,-0.000021,1.000000,0.000246,-0.000032,-0.000433,-0.000110,0.000013,0.000172
5.180000,1.810211,2.408212,0.499992,0.738995,0.269421,0.000005,-1.698842,-0.752698,-0.000006,0.166859,0.862705,0.000005,9.212854,1.599721,-0.000025,1.000000,0.000245,-0.000032,-0.000432,-0.000109,0.000013,0.000170
5.190000,1.817516,2.410868,0.499992,0.722016,0.261938,0.000005,-1.696713,-0.743992,-0.000006,0.258925,0.878574,0.000004,9.199245,1.573926,-0.000050,1.000000,0.000245,-0.000031,-0.000431,-0.000107,0.000013,0.000168
5.200000,1.824651,2.413451,0.499992,0.705064,0.254542,0.000005,-1.693664,-0.735128,-0.000006,0.350826,0.894182,0.000004,9.179614,1.547150,-0.000017,1.000000,0.000244,-0.000031,-0.000431,-0.000106,0.000012,0.000166
5.210000,1.831617,2.415959,0.499992,0.688146,0.247236,0.000005,-1.689697,-0.726109,-0.000006,0.442498,0.909514,0.000004,9.153548,1.519050,-0.000016,1.000000,0.000243,-0.000031,-0.000430,-0.000105,0.000012,0.000164
5.220000,1.838414,2.418396,0.499992,0.671273,0.240020,0.000005,-1.684815,-0.716938,-0.000006,0.533873,0.924559,0.000004,9.120662,1.489747,-0.000008,1.000000,0.000243,-0.000031,-0.000429,-0.000103,0.000012,0.000162
5.230000,1.845043,2.420760,0.499992,0.654453,0.232897,0.000004,-1.679021,-0.707619,-0.000006,0.624893,0.939304,0.000004,9.082254,1.459122,-0.000015,1.000000,0.000242,-0.000031,-0.000428,-0.000102,0.000012,0.000160
5.240000,1.851504,2.423054,0.499992,0.637695,0.225868,0.000004,-1.672318,-0.698153,-0.000006,0.715492,0.953737,0.000004,9.036232,1.427132,0.000026,1.000000,0.000242,-0.000031,-0.000427,-0.000100,0.000012,0.000158
5.250000,1.857797,2.425278,0.499992,0.621009,0.218935,0.000004,-1.664712,-0.688545,-0.000006,0.805598,0.967849,0.000004,8.983852,1.394421,-0.000013,1.000000,0.000241,-0.000031,-0.000427,-0.000099,0.000012,0.000156
5.260000,1.863924,2.427433,0.499992,0.604404,0.212098,0.000004,-1.656208,-0.678797,-0.000006,0.895138,0.981625,0.000003,8.924472,1.360171,-0.000013,1.000000,0.000241,-0.000031,-0.000426,-0.000098,0.000012,0.000153
5.270000,1.869885,2.429520,0.499992,0.587888,0.205359,0.000004,-1.646812,-0.668914,-0.000006,0.984077,0.995045,0.000003,8.860863,1.324057,-0.000006,1.000000,0.000240,-0.000031,-0.000425,-0.000096,0.000011,0.000151
5.280000,1.875682,2.431540,0.499992,0.571471,0.198720,0.000004,-1.636529,-0.658898,-0.000006,1.072303,1.008108,0.000003,8.783042,1.288224,-0.000031,1.000000,0.000240,-0.000031,-0.000424,-0.000095,0.000011,0.000149
5.290000,1.881315,2.433495,0.499993,0.555161,0.192182,0.000004,-1.625368,-0.648753,-0.000006,1.159743,1.020799,0.000003,8.705138,1.249548,-0.000066,1.000000,0.000240,-0.000031,-0.000424,-0.000094,0.000011,0.000147
5.300000,1.886786,2.435384,0.499993,0.538966,0.185745,0.000004,-1.613337,-0.638483,-0.000006,1.246370,1.033097,0.000002,8.617763,1.209987,-0.000183,1.000000,0.000239,-0.000031,-0.000423,-0.000092,0.000011,0.000145
5.310000,1.892095,2.437210,0.499993,0.522897,0.179412,0.000004,-1.600444,-0.628092,-0.000006,1.332089,1.044991,0.000003,8.523183,1.169190,-0.000010,1.000000,0.000239,-0.000031,-0.000422,-0.000091,0.000011,0.000143
5.320000,1.897244,2.438973,0.499993,0.506960,0.173184,0.000004,-1.586699,-0.617584,-0.000006,1.416786,1.056485,0.000003,8.417232,1.128518,-0.000013,1.000000,0.000238,-0.000031,-0.000421,-0.000090,0.000011,0.000141
5.330000,1.902235,2.440674,0.499993,0.491166,0.167061,0.000004,-1.572112,-0.606964,-0.000006,1.500455,1.067539,0.000003,8.315291,1.082125,-0.000008,1.000000,0.000238,-0.000031,-0.000421,-0.000088,0.000010,0.000139
5.340000,1.907068,2.442315,0.499993,0.475521,0.161045,0.000004,-1.556693,-0.596235,-0.000006,1.583023,1.078139,0.000003,8.194756,1.038519,-0.000018,1.000000,0.000237,-0.000031,-0.000420,-0.000087,0.000010,0.000137
5.350000,1.911746,2.443895,0.499993,0.460034,0.155137,0.000004,-1.540455,-0.585403,-0.000006,1.664346,1.088299,0.000003,8.070522,0.992159,-0.000006,1.000000,0.000237,-0.000031,-0.000419,-0.000086,0.000010,0.000135
5.360000,1.916269,2.445418,0.499993,0.444714,0.149337,0.000004,-1.523410,-0.574471,-0.000006,1.744394,1.097986,0.000003,7.938281,0.944483,-0.000004,1.000000,0.000236,-0.000031,-0.000419,-0.000084,0.000010,0.000133
5.370000,1.920640,2.446882,0.499993,0.429569,0.143648,0.000004,-1.505572,-0.563445,-0.000006,1.823088,1.107179,0.000002,7.798899,0.894413,-0.000015,1.000000,0.000236,-0.000030,-0.000418,-0.000083,0.000010,0.000131
5.380000,1.924861,2.448291,0.499993,0.414606,0.138069,0.000004,-1.486954,-0.552329,-0.000006,1.900339,1.115880,0.000002,7.649834,0.845703,0.000018,1.000000,0.000236,-0.000030,-0.000417,-0.000082,0.000010,0.000129
5.390000,1.928933,2.449644,0.499993,0.399832,0.132601,0.000004,-1.467570,-0.541129,-0.000006,1.976066,1.124078,0.000003,7.494677,0.793138,0.000013,1.000000,0.000235,-0.000030,-0.000417,-0.000080,0.000009,0.000126
5.400000,1.932858,2.450943,0.499993,0.385257,0.127246,0.000003,-1.447438,-0.529849,-0.000006,2.050195,1.131734,0.000002,7.330255,0.739355,0.000002,1.000000,0.000235,-0.000030,-0.000416,-0.000079,0.000009,0.000124
5.410000,1.936639,2.452190,0.499993,0.370886,0.122005,0.000003,-1.426572,-0.518496,-0.000006,2.122631,1.138858,0.000002,7.157720,0.684522,0.000003,1.000000,0.000234,-0.000030,-0.000415,-0.000078,0.000009,0.000122
5.420000,1.940277,2.453384,0.499993,0.356728,0.116877,0.000003,-1.404991,-0.507074,-0.000006,2.193343,1.145414,0.000003,6.981213,0.627018,0.000015,1.000000,0.000234,-0.000030,-0.000415,-0.000077,0.000009,0.000120
5.430000,1.943774,2.454527,0.499993,0.342788,0.111863,0.000003,-1.382711,-0.495589,-0.000006,2.262180,1.151406,0.000003,6.784631,0.571210,0.000008,1.000000,0.000234,-0.000030,-0.000414,-0.000075,0.000009,0.000118
5.440000,1.947133,2.455621,0.499993,0.329076,0.106965,0.000003,-1.359754,-0.484048,-0.000006,2.329053,1.156821,0.000003,6.590895,0.510768,0.000052,1.000000,0.000233,-0.000030,-0.000414,-0.000074,0.000009,0.000116
5.450000,1.950357,2.456667,0.499993,0.315596,0.102183,0.000003,-1.336137,-0.472455,-0.000005,2.393949,1.161624,0.000003,6.384640,0.449992,0.000008,1.000000,0.000233,-0.000030,-0.000413,-0.000073,0.000009,0.000114
5.460000,1.953446,2.457666,0.499993,0.302355,0.097516,0.000003,-1.311882,-0.460817,-0.000005,2.456740,1.165806,0.000003,6.170209,0.387400,0.000009,1.000000,0.000233,-0.000030,-0.000413,-0.000071,0.000008,0.000112
5.470000,1.956404,2.458618,0.499993,0.289360,0.092966,0.000003,-1.287010,-0.449141,-0.000005,2.517305,1.169378,0.000003,5.943346,0.325592,0.000027,1.000000,0.000232,-0.000030,-0.000412,-0.000070,0.000008,0.000110
5.480000,1.959234,2.459525,0.499993,0.276617,0.088533,0.000003,-1.261543,-0.437432,-0.000005,2.575618,1.172287,0.000003,5.717768,0.255877,0.000012,1.000000,0.000232,-0.000030,-0.000411,-0.000069,0.000008,0.000108
5.490000,1.961938,2.460389,0.499993,0.264131,0.084218,0.000003,-1.235505,-0.425697,-0.000005,2.631592,1.174515,0.000004,5.473603,0.190705,0.000083,1.000000,0.000231,-0.000030,-0.000411,-0.000067,0.000008,0.000106
5.500000,1.964518,2.461210,0.499993,0.251909,0.080020,0.000003,-1.208920,-0.413944,-0.000005,2.685077,1.176084,0.000003,5.223759,0.121727,0.000013,1.000000,0.000231,-0.000030,-0.000410,-0.000066,0.000008,0.000104
5.510000,1.966977,2.461990,0.499993,0.239954,0.075939,0.000003,-1.181812,-0.402178,-0.000005,2.736026,1.176951,0.000003,4.964675,0.051328,0.000015,1.000000,0.000231,-0.000030,-0.000410,-0.000065,0.000008,0.000102
