time,x,y,z,vx,vy,vz,ax,ay,az,jx,jy,jz,sx,sy,sz,roll,pitch,yaw,p,q,r
0.000000,-2.719173,0.311269,-1.473912,-0.000717,0.006043,0.001651,0.115871,-0.125608,-0.074189,5.257556,-5.442658,-2.706673,-43.791973,73.169547,88.077867,-0.012706,-0.011722,0.000000,-0.546958,-0.528590,-0.000000
0.010000,-2.719180,0.311329,-1.473895,0.000442,0.004787,0.000909,0.168447,-0.180034,-0.101256,4.819636,-4.710963,-1.825894,-188.004525,236.029041,188.619059,-0.018160,-0.016994,0.000000,-0.471595,-0.482929,-0.000000
0.020000,-2.719164,0.311365,-1.473894,0.002652,0.002443,-0.000375,0.212264,-0.219827,-0.110707,1.497465,-0.722077,1.065709,-293.382386,344.260839,224.742072,-0.022150,-0.021393,0.000000,-0.075039,-0.153134,0.000000
0.030000,-2.719127,0.311378,-1.473903,0.004687,0.000391,-0.001305,0.198396,-0.194476,-0.079941,-1.048012,2.174254,2.668947,-95.878277,111.653258,43.072308,-0.019658,-0.020058,0.000000,0.214373,0.100494,0.000000
0.040000,-2.719070,0.311372,-1.473920,0.006620,-0.001447,-0.001973,0.191304,-0.176342,-0.057328,-0.420100,1.510988,1.927155,58.080646,-60.789890,-67.289447,-0.017866,-0.019385,0.000000,0.149551,0.038768,0.000000
0.050000,-2.718995,0.311349,-1.473942,0.008514,-0.003136,-0.002452,0.189994,-0.164256,-0.041398,0.113601,0.958456,1.323159,49.152117,-50.315445,-54.377751,-0.016669,-0.019284,0.000000,0.095012,-0.014115,0.000000
0.060000,-2.718900,0.311310,-1.473969,0.010420,-0.004732,-0.002801,0.193576,-0.157173,-0.030865,0.562942,0.504679,0.839600,41.180675,-41.003810,-43.146407,-0.015967,-0.019668,0.000000,0.049917,-0.058853,0.000000
0.070000,-2.718786,0.311255,-1.473998,0.012385,-0.006279,-0.003069,0.201253,-0.154162,-0.024606,0.937215,0.138380,0.460230,34.110687,-32.784488,-33.484260,-0.015671,-0.020461,0.000000,0.013362,-0.096203,0.000000
0.080000,-2.718652,0.311184,-1.474030,0.014445,-0.007815,-0.003293,0.212320,-0.154405,-0.021660,1.245156,-0.151011,0.169914,27.886536,-25.586983,-25.280158,-0.015700,-0.021592,0.000000,-0.015581,-0.126946,-0.000000
0.090000,-2.718497,0.311098,-1.474064,0.016631,-0.009368,-0.003502,0.226156,-0.157183,-0.021208,1.494946,-0.373360,-0.045373,22.452588,-19.340803,-18.422940,-0.015983,-0.023000,0.000000,-0.037828,-0.151855,-0.000000
0.100000,-2.718320,0.310997,-1.474100,0.018968,-0.010959,-0.003718,0.242219,-0.161872,-0.022567,1.694208,-0.537827,-0.198544,17.753204,-13.975455,-12.801439,-0.016456,-0.024629,0.000000,-0.054265,-0.171681,0.000000
0.110000,-2.718118,0.310879,-1.474139,0.021476,-0.012605,-0.003954,0.260040,-0.167939,-0.025179,1.850010,-0.652869,-0.301402,13.732770,-9.420441,-8.304509,-0.017068,-0.026434,0.000000,-0.065731,-0.187133,0.000000
0.120000,-2.717890,0.310745,-1.474179,0.024169,-0.014318,-0.004221,0.279219,-0.174930,-0.028595,1.968863,-0.726236,-0.364634,10.335621,-5.605266,-4.821005,-0.017771,-0.028372,0.000000,-0.073003,-0.198873,-0.000000
0.130000,-2.717635,0.310593,-1.474223,0.027060,-0.016104,-0.004526,0.299417,-0.182464,-0.032472,2.056722,-0.764974,-0.397822,7.506125,-2.459437,-2.239760,-0.018528,-0.030412,0.000000,-0.076793,-0.207507,-0.000000
0.140000,-2.717349,0.310423,-1.474270,0.030158,-0.017967,-0.004871,0.320354,-0.190229,-0.036552,2.118986,-0.775425,-0.409430,5.188777,0.087544,-0.449593,-0.019307,-0.032523,0.000000,-0.077743,-0.213582,0.000000
0.150000,-2.717031,0.310233,-1.474320,0.033467,-0.019908,-0.005257,0.341797,-0.197972,-0.040660,2.160498,-0.763223,-0.406813,3.327853,2.106171,0.660629,-0.020083,-0.034684,0.000000,-0.076421,-0.217586,-0.000000
0.160000,-2.716680,0.310024,-1.474375,0.036993,-0.021926,-0.005684,0.363564,-0.205494,-0.044688,2.185543,-0.733301,-0.396217,1.867575,3.666933,1.202033,-0.020835,-0.036876,0.000000,-0.073322,-0.219946,-0.000000
0.170000,-2.716292,0.309795,-1.474434,0.040739,-0.024018,-0.006151,0.385508,-0.212638,-0.048585,2.197849,-0.689885,-0.382773,0.745548,4.849942,1.302999,-0.021549,-0.039084,0.000000,-0.068869,-0.221030,0.000000
0.180000,-2.715865,0.309544,-1.474498,0.044704,-0.026179,-0.006656,0.407521,-0.219291,-0.052344,2.200454,-0.636302,-0.370157,-0.215172,5.893638,1.374982,-0.022213,-0.041297,0.000000,-0.063395,-0.221134,0.000000
0.190000,-2.715397,0.309271,-1.474567,0.048889,-0.028404,-0.007197,0.429517,-0.225364,-0.055988,2.193546,-0.572012,-0.355273,-1.028376,6.810437,1.425271,-0.022817,-0.043508,0.000000,-0.056853,-0.220291,0.000000
0.200000,-2.714887,0.308976,-1.474642,0.053294,-0.030686,-0.007775,0.451391,-0.230732,-0.059449,2.179886,-0.500094,-0.341652,-0.854148,6.431585,-0.650769,-0.023350,-0.045704,0.000000,-0.049549,-0.218771,0.000000
0.210000,-2.714332,0.308658,-1.474723,0.057917,-0.033019,-0.008386,0.473115,-0.235366,-0.062821,2.176463,-0.443380,-0.368289,0.155967,4.960353,-4.504562,-0.023808,-0.047884,0.000000,-0.043696,-0.218100,-0.000000
0.220000,-2.713729,0.308316,-1.474810,0.062756,-0.035394,-0.009032,0.494921,-0.239599,-0.066815,2.183005,-0.400887,-0.431743,-0.622103,6.021154,-3.671647,-0.024224,-0.050067,0.000000,-0.039191,-0.218221,-0.000000
0.230000,-2.713076,0.307950,-1.474903,0.067815,-0.037811,-0.009723,0.516775,-0.243384,-0.071456,2.164021,-0.322957,-0.441722,-3.301868,9.758543,2.071847,-0.024592,-0.052250,0.000000,-0.031242,-0.216004,0.000000
0.240000,-2.712372,0.307559,-1.475004,0.073092,-0.040261,-0.010461,0.538201,-0.246058,-0.075649,2.116968,-0.205716,-0.390306,-4.370143,11.306488,4.017343,-0.024849,-0.054389,0.000000,-0.019499,-0.211304,-0.000000
0.250000,-2.711615,0.307144,-1.475113,0.078579,-0.042732,-0.011236,0.559114,-0.247498,-0.079262,2.076618,-0.096827,-0.361375,-3.424357,10.145780,1.366961,-0.024982,-0.056477,0.000000,-0.008564,-0.207194,-0.000000
0.260000,-2.710801,0.306705,-1.475229,0.084274,-0.045211,-0.012046,0.579733,-0.247995,-0.082877,2.048481,-0.002800,-0.362967,-2.895941,9.629812,0.086122,-0.025020,-0.058534,0.000000,0.000935,-0.204151,-0.000000
0.270000,-2.709929,0.306240,-1.475354,0.090174,-0.047692,-0.012893,0.600084,-0.247554,-0.086521,2.018699,0.095769,-0.359652,-3.263835,10.287565,0.688423,-0.024963,-0.060562,0.000000,0.010864,-0.200975,0.000000
0.280000,-2.708997,0.305751,-1.475487,0.096276,-0.050162,-0.013776,0.620107,-0.246079,-0.090070,1.983204,0.202951,-0.349198,-3.717714,10.985420,1.114580,-0.024803,-0.062555,0.000000,0.021628,-0.197278,0.000000
0.290000,-2.708004,0.305237,-1.475629,0.102576,-0.052613,-0.014695,0.639748,-0.243495,-0.093505,1.944345,0.315477,-0.337361,-3.849653,11.329996,1.228365,-0.024531,-0.064509,0.000000,0.032911,-0.193264,-0.000000
0.300000,-2.706946,0.304699,-1.475781,0.109071,-0.055032,-0.015647,0.658994,-0.239770,-0.096817,1.906211,0.429551,-0.324631,-3.701218,11.416830,1.319747,-0.024144,-0.066421,0.000000,0.044333,-0.189341,0.000000
0.310000,-2.705822,0.304136,-1.475942,0.115756,-0.057409,-0.016631,0.677872,-0.234904,-0.099998,1.870320,0.543814,-0.310966,-3.535866,11.484156,1.407827,-0.023644,-0.068296,0.000000,0.055759,-0.185663,-0.000000
0.320000,-2.704631,0.303551,-1.476113,0.122628,-0.059730,-0.017646,0.696401,-0.228894,-0.103036,1.835494,0.659234,-0.296474,-3.510653,11.659200,1.465095,-0.023029,-0.070136,0.000000,0.067286,-0.182111,0.000000
0.330000,-2.703370,0.302942,-1.476295,0.129684,-0.061986,-0.018692,0.714582,-0.221720,-0.105927,1.800107,0.776998,-0.281664,-3.552969,11.874898,1.488920,-0.022298,-0.071940,0.000000,0.079037,-0.178518,0.000000
0.340000,-2.702037,0.302311,-1.476487,0.136920,-0.064165,-0.019765,0.732403,-0.213354,-0.108670,1.764434,0.896732,-0.266696,-3.482364,11.985419,1.518254,-0.021449,-0.073707,0.000000,0.090975,-0.174911,0.000000
0.350000,-2.700631,0.301658,-1.476690,0.144332,-0.066254,-0.020865,0.749871,-0.203785,-0.111261,1.730460,1.016706,-0.251299,-3.270674,11.968458,1.564398,-0.020479,-0.075439,0.000000,0.102927,-0.171489,-0.000000
0.360000,-2.699150,0.300986,-1.476904,0.151917,-0.068241,-0.021990,0.767012,-0.193020,-0.113696,1.699021,1.136101,-0.235408,-3.047127,11.927029,1.601066,-0.019390,-0.077138,0.000000,0.114812,-0.168338,0.000000
0.370000,-2.697593,0.300294,-1.477130,0.159672,-0.070114,-0.023139,0.783851,-0.181063,-0.115969,1.669517,1.255247,-0.219277,-2.904771,11.935554,1.606244,-0.018183,-0.078806,0.000000,0.126666,-0.165393,0.000000
0.380000,-2.695957,0.299583,-1.477367,0.167594,-0.071862,-0.024310,0.800402,-0.167915,-0.118081,1.640926,1.374813,-0.203283,-2.809233,11.965754,1.588632,-0.016857,-0.080446,0.000000,0.138556,-0.162551,-0.000000
0.390000,-2.694241,0.298856,-1.477616,0.175680,-0.073472,-0.025501,0.816670,-0.153567,-0.120035,1.613333,1.494562,-0.187505,-2.651861,11.929196,1.577764,-0.015412,-0.082058,0.000000,0.150461,-0.159817,-0.000000
0.400000,-2.692443,0.298114,-1.477877,0.183928,-0.074933,-0.026710,0.832669,-0.138023,-0.121831,1.587888,1.613396,-0.171728,-2.414012,11.810777,1.579499,-0.013848,-0.083643,0.000000,0.162270,-0.157308,-0.000000
0.410000,-2.690562,0.297358,-1.478150,0.192334,-0.076233,-0.027937,0.848427,-0.121299,-0.123469,1.565053,1.730778,-0.155915,-2.174158,11.673159,1.575188,-0.012166,-0.085204,0.000000,0.173931,-0.155070,-0.000000
0.420000,-2.688597,0.296589,-1.478436,0.200896,-0.077359,-0.029180,0.863970,-0.103408,-0.124950,1.544405,1.846860,-0.140224,-1.990263,11.560449,1.553809,-0.010369,-0.086744,0.000000,0.185461,-0.153059,0.000000
0.430000,-2.686545,0.295811,-1.478734,0.209613,-0.078301,-0.030436,0.879316,-0.084362,-0.126274,1.525247,1.961987,-0.124839,-1.841843,11.455101,1.522711,-0.008457,-0.088266,0.000000,0.196894,-0.151202,-0.000000
0.440000,-2.684404,0.295023,-1.479045,0.218482,-0.079046,-0.031705,0.894475,-0.064168,-0.127446,1.507568,2.075962,-0.109770,-1.661218,11.304657,1.497531,-0.006431,-0.089769,0.000000,0.208211,-0.149497,0.000000
0.450000,-2.682175,0.294230,-1.479368,0.227503,-0.079584,-0.032985,0.909467,-0.042842,-0.128469,1.492023,2.188080,-0.094888,-1.436187,11.100679,1.479675,-0.004293,-0.091256,0.000000,0.219342,-0.148012,-0.000000
0.460000,-2.679854,0.293432,-1.479704,0.236672,-0.079903,-0.034275,0.924316,-0.020406,-0.129344,1.478845,2.297975,-0.080176,-1.215900,10.880118,1.460526,-0.002044,-0.092729,0.000000,0.230250,-0.146767,-0.000000
0.470000,-2.677441,0.292632,-1.480054,0.245989,-0.079992,-0.035572,0.939044,0.003117,-0.130073,1.467705,2.405682,-0.065677,-1.038168,10.667494,1.440625,0.000312,-0.094191,0.000000,0.240939,-0.145731,0.000000
0.480000,-2.674935,0.291832,-1.480416,0.255453,-0.079841,-0.036876,0.953670,0.027707,-0.130658,1.458081,2.511325,-0.051364,-0.890436,10.452174,1.424877,0.002775,-0.095644,0.000000,0.251422,-0.144849,0.000000
0.490000,-2.672332,0.291035,-1.480791,0.265062,-0.079438,-0.038185,0.968205,0.053344,-0.131100,1.449896,2.614726,-0.037180,-0.728430,10.205114,1.414104,0.005341,-0.097088,0.000000,0.261681,-0.144115,0.000000
0.500000,-2.669633,0.290243,-1.481180,0.274817,-0.078774,-0.039498,0.982668,0.080002,-0.131401,1.443513,2.715427,-0.023082,-0.543494,9.922318,1.405414,0.008008,-0.098526,0.000000,0.271669,-0.143565,0.000000
0.510000,-2.666836,0.289459,-1.481581,0.284716,-0.077838,-0.040813,0.997076,0.107652,-0.131562,1.439026,2.813172,-0.009072,-0.367894,9.624090,1.400457,0.010774,-0.099959,0.000000,0.281361,-0.143208,0.000000
0.520000,-2.663939,0.288686,-1.481996,0.294758,-0.076621,-0.042129,1.011448,0.136265,-0.131583,1.436155,2.907909,0.004927,-0.228125,9.322243,1.410481,0.013635,-0.101390,0.000000,0.290752,-0.143016,0.000000
0.530000,-2.660941,0.287927,-1.482424,0.304945,-0.075113,-0.043445,1.025799,0.165810,-0.131463,1.434464,2.999617,0.019138,-0.116142,9.010705,1.437596,0.016589,-0.102820,0.000000,0.299839,-0.142948,-0.000000
0.540000,-2.657840,0.287184,-1.482865,0.315274,-0.073305,-0.044759,1.040137,0.196257,-0.131200,1.433832,3.088123,0.033679,-0.000574,8.675774,1.468572,0.019632,-0.104250,0.000000,0.308606,-0.142993,-0.000000
0.550000,-2.654635,0.286461,-1.483319,0.325747,-0.071188,-0.046069,1.054475,0.227573,-0.130790,1.434452,3.173132,0.048509,0.125439,8.316368,1.496441,0.022761,-0.105680,0.000000,0.317023,-0.143169,-0.000000
0.560000,-2.651325,0.285760,-1.483786,0.336364,-0.068753,-0.047374,1.068826,0.259720,-0.130230,1.436341,3.254451,0.063608,0.239089,7.942006,1.532305,0.025973,-0.107114,0.000000,0.325071,-0.143478,0.000000
0.570000,-2.647908,0.285086,-1.484266,0.347124,-0.065993,-0.048673,1.083202,0.292662,-0.129517,1.439234,3.331972,0.079156,0.320057,7.556407,1.596980,0.029263,-0.108551,0.000000,0.332740,-0.143896,0.000000
0.580000,-2.644383,0.284440,-1.484760,0.358028,-0.062900,-0.049965,1.097611,0.326360,-0.128647,1.442742,3.405579,0.095548,0.373896,7.156611,1.689754,0.032627,-0.109993,0.000000,0.340020,-0.144388,-0.000000
0.590000,-2.640748,0.283828,-1.485266,0.369076,-0.059466,-0.051246,1.112057,0.360773,-0.127606,1.446712,3.475105,0.112951,0.425221,6.738778,1.784461,0.036063,-0.111440,0.000000,0.346896,-0.144941,0.000000
0.600000,-2.637001,0.283251,-1.485784,0.380269,-0.055685,-0.052517,1.126545,0.395862,-0.126388,1.451246,3.540354,0.131237,0.480323,6.303304,1.870140,0.039565,-0.112894,0.000000,0.353349,-0.145565,-0.000000
0.610000,-2.633142,0.282714,-1.486316,0.391607,-0.051549,-0.053774,1.141082,0.431581,-0.124982,1.456319,3.601171,0.150353,0.521465,5.852925,1.966343,0.043130,-0.114354,0.000000,0.359365,-0.146256,0.000000
0.620000,-2.629169,0.282220,-1.486860,0.403091,-0.047053,-0.055016,1.155672,0.467885,-0.123380,1.461676,3.657413,0.170564,0.530966,5.387502,2.102874,0.046753,-0.115822,0.000000,0.364931,-0.146993,0.000000
0.630000,-2.625080,0.281773,-1.487416,0.414720,-0.042191,-0.056242,1.170316,0.504729,-0.121570,1.466938,3.708921,0.192411,0.513123,4.906151,2.276241,0.050429,-0.117297,0.000000,0.370037,-0.147745,0.000000
0.640000,-2.620875,0.281376,-1.487985,0.426497,-0.036958,-0.057448,1.185011,0.542063,-0.119532,1.471938,3.755536,0.216088,0.490096,4.409659,2.447718,0.054153,-0.118780,0.000000,0.374671,-0.148499,0.000000
0.650000,-2.616550,0.281034,-1.488565,0.438421,-0.031350,-0.058632,1.199754,0.579839,-0.117249,1.476740,3.797114,0.241365,0.468288,3.899167,2.602784,0.057922,-0.120271,0.000000,0.378819,-0.149260,0.000000
0.660000,-2.612106,0.280749,-1.489157,0.450492,-0.025362,-0.059793,1.214545,0.618006,-0.114705,1.481304,3.833519,0.268144,0.432048,3.374291,2.768832,0.061730,-0.121770,0.000000,0.382472,-0.150023,-0.000000
0.670000,-2.607541,0.280527,-1.489761,0.462712,-0.018990,-0.060926,1.229380,0.656510,-0.111886,1.485381,3.864600,0.296742,0.364641,2.832766,2.982702,0.065572,-0.123278,0.000000,0.385618,-0.150769,0.000000
0.680000,-2.602852,0.280369,-1.490376,0.475080,-0.012231,-0.062031,1.244253,0.695298,-0.108770,1.488597,3.890175,0.327798,0.270064,2.274580,3.238046,0.069442,-0.124792,0.000000,0.388249,-0.151469,0.000000
0.690000,-2.598039,0.280282,-1.491002,0.487597,-0.005084,-0.063102,1.259152,0.734313,-0.105330,1.490782,3.910091,0.361503,0.169935,1.703245,3.485972,0.073337,-0.126314,0.000000,0.390355,-0.152112,0.000000
0.700000,-2.593100,0.280268,-1.491638,0.500263,0.002455,-0.064137,1.274069,0.773500,-0.101540,1.491995,3.924239,0.397518,0.070898,1.121198,3.708897,0.077249,-0.127843,0.000000,0.391928,-0.152699,-0.000000
0.710000,-2.588034,0.280331,-1.492284,0.513078,0.010386,-0.065133,1.288992,0.812798,-0.097379,1.492200,3.932515,0.435681,-0.041876,0.526200,3.940191,0.081175,-0.129378,0.000000,0.392960,-0.153228,-0.000000
0.720000,-2.582839,0.280476,-1.492941,0.526043,0.018711,-0.066085,1.303913,0.852150,-0.092826,1.491158,3.934763,0.476321,-0.184743,-0.087455,4.222351,0.085109,-0.130918,0.000000,0.393444,-0.153680,0.000000
0.730000,-2.577513,0.280705,-1.493606,0.539156,0.027429,-0.066989,1.318815,0.891493,-0.087853,1.488505,3.930766,0.520128,-0.353655,-0.719331,4.546349,0.089044,-0.132462,0.000000,0.393371,-0.154030,0.000000
0.740000,-2.572055,0.281024,-1.494280,0.552419,0.036541,-0.067842,1.333683,0.930765,-0.082424,1.484085,3.920377,0.567248,-0.526805,-1.361169,4.854604,0.092976,-0.134011,0.000000,0.392732,-0.154268,-0.000000
0.750000,-2.566465,0.281436,-1.494963,0.565830,0.046044,-0.068638,1.348497,0.969901,-0.076508,1.477969,3.903543,0.617220,-0.697236,-2.009066,5.128447,0.096899,-0.135561,0.000000,0.391525,-0.154395,-0.000000
0.760000,-2.560739,0.281945,-1.495653,0.579389,0.055939,-0.069372,1.363242,1.008836,-0.070079,1.470140,3.880195,0.669817,-0.879504,-2.668397,5.405950,0.100807,-0.137113,0.000000,0.389747,-0.154410,0.000000
0.770000,-2.554877,0.282555,-1.496350,0.593095,0.066221,-0.070039,1.377900,1.047505,-0.063112,1.460379,3.850175,0.725339,-1.089682,-3.348026,5.729198,0.104694,-0.138665,0.000000,0.387390,-0.154296,0.000000
0.780000,-2.548877,0.283269,-1.497054,0.606947,0.076889,-0.070634,1.392450,1.085840,-0.055573,1.448346,3.813235,0.784401,-1.323331,-4.046765,6.086110,0.108555,-0.140216,0.000000,0.384442,-0.154032,0.000000
0.790000,-2.542738,0.284093,-1.497763,0.620944,0.087938,-0.071151,1.406867,1.123770,-0.047424,1.433912,3.769239,0.847061,-1.558472,-4.751937,6.418663,0.112383,-0.141764,0.000000,0.380897,-0.153606,0.000000
0.800000,-2.536458,0.285028,-1.498477,0.635084,0.099364,-0.071583,1.421128,1.161224,-0.038631,1.417177,3.718196,0.912775,-1.788440,-5.456528,6.711303,0.116173,-0.143308,0.000000,0.376755,-0.153023,-0.000000
0.810000,-2.530036,0.286080,-1.499195,0.649366,0.111162,-0.071923,1.435210,1.198133,-0.029168,1.398144,3.660109,0.981287,-2.027378,-6.168851,7.000905,0.119919,-0.144846,0.000000,0.372018,-0.152282,0.000000
0.820000,-2.523471,0.287251,-1.499915,0.663788,0.123327,-0.072166,1.449091,1.234427,-0.019006,1.376629,3.594819,1.052793,-2.289673,-6.905725,7.318659,0.123614,-0.146376,0.000000,0.366678,-0.151370,-0.000000
0.830000,-2.516760,0.288546,-1.500638,0.678348,0.135851,-0.072303,1.462743,1.270030,-0.008112,1.352350,3.521994,1.127660,-2.570659,-7.665503,7.651470,0.127252,-0.147896,0.000000,0.360711,-0.150265,0.000000
0.840000,-2.509904,0.289968,-1.501362,0.693043,0.148727,-0.072328,1.476138,1.304866,0.003547,1.325216,3.441509,1.205822,-2.850002,-8.424237,7.954876,0.130828,-0.149405,0.000000,0.354107,-0.148958,0.000000
0.850000,-2.502900,0.291521,-1.502085,0.707871,0.161948,-0.072233,1.489247,1.338860,0.016004,1.295350,3.353510,1.286758,-3.120978,-9.169973,8.215305,0.134335,-0.150901,0.000000,0.346876,-0.147456,-0.000000
0.860000,-2.495746,0.293207,-1.502806,0.722828,0.175505,-0.072008,1.502045,1.371937,0.029283,1.262797,3.258110,1.370128,-3.396217,-9.918513,8.459304,0.137766,-0.152382,0.000000,0.339027,-0.145759,-0.000000
0.870000,-2.488443,0.295031,-1.503525,0.737912,0.189387,-0.071647,1.514503,1.404022,0.043407,1.227426,3.155139,1.455944,-3.689691,-10.697930,8.713071,0.141116,-0.153844,0.000000,0.330545,-0.143855,-0.000000
0.880000,-2.480988,0.296995,-1.504239,0.753118,0.203585,-0.071140,1.526593,1.435039,0.058401,1.189003,3.044151,1.544390,-3.996796,-11.504378,8.964853,0.144377,-0.155288,0.000000,0.321386,-0.141722,0.000000
0.890000,-2.473381,0.299103,-1.504948,0.768444,0.218088,-0.070479,1.538283,1.464905,0.074294,1.147490,2.925052,1.635241,-4.297111,-12.298198,9.175361,0.147543,-0.156709,0.000000,0.311538,-0.139355,0.000000
0.900000,-2.465619,0.301357,-1.505649,0.783884,0.232883,-0.069654,1.549543,1.493540,0.091106,1.103061,2.798187,1.727897,-4.584503,-13.062680,9.341033,0.150608,-0.158105,0.000000,0.301022,-0.136760,0.000000
0.910000,-2.457703,0.303760,-1.506341,0.799434,0.247959,-0.068657,1.560344,1.520869,0.108852,1.055800,2.663798,1.822062,-4.871189,-13.823734,9.483443,0.153564,-0.159475,0.000000,0.289854,-0.133940,0.000000
0.920000,-2.449631,0.306316,-1.507022,0.815091,0.263301,-0.067477,1.570659,1.546816,0.127548,1.005637,2.521712,1.917566,-5.168347,-14.619207,9.598126,0.156405,-0.160816,0.000000,0.278009,-0.130884,-0.000000
0.930000,-2.441401,0.309026,-1.507690,0.830848,0.278895,-0.066106,1.580457,1.571303,0.147204,0.952433,2.371414,2.014024,-5.470851,-15.441917,9.671758,0.159124,-0.162125,0.000000,0.265421,-0.127569,0.000000
0.940000,-2.433014,0.311894,-1.508344,0.846700,0.294727,-0.064533,1.589708,1.594245,0.167828,0.896220,2.212874,2.111001,-5.761668,-16.238344,9.706536,0.161714,-0.163400,0.000000,0.252071,-0.123990,-0.000000
0.950000,-2.424467,0.314921,-1.508981,0.862642,0.310780,-0.062749,1.598382,1.615561,0.189424,0.837199,2.046647,2.208155,-6.036807,-16.986777,9.715558,0.164166,-0.164638,0.000000,0.237999,-0.120156,0.000000
0.960000,-2.415761,0.318110,-1.509599,0.878668,0.327038,-0.060745,1.606452,1.635178,0.211991,0.775484,1.873139,2.305312,-6.305669,-17.721693,9.691200,0.166474,-0.165836,0.000000,0.223227,-0.116073,-0.000000
0.970000,-2.406894,0.321462,-1.510196,0.894771,0.343483,-0.058509,1.613891,1.653024,0.235530,0.711086,1.692213,2.401979,-6.573214,-18.491537,9.589134,0.168631,-0.166992,0.000000,0.207721,-0.111729,0.000000
0.980000,-2.397865,0.324979,-1.510769,0.910945,0.360098,-0.056034,1.620673,1.669022,0.260031,0.644019,1.503308,2.497095,-6.834595,-19.285454,9.403523,0.170628,-0.168103,0.000000,0.191389,-0.107102,0.000000
0.990000,-2.388675,0.328664,-1.511316,0.927184,0.376864,-0.053309,1.626772,1.683090,0.285472,0.574394,1.306504,2.590049,-7.080764,-20.034584,9.189781,0.172458,-0.169166,0.000000,0.174211,-0.102188,0.000000
1.000000,-2.379322,0.332517,-1.511835,0.943481,0.393760,-0.050325,1.632161,1.695152,0.311832,0.502404,1.102616,2.680890,-7.310278,-20.716790,8.976270,0.174112,-0.170178,0.000000,0.156246,-0.097000,-0.000000
1.010000,-2.369805,0.336539,-1.512323,0.959828,0.410767,-0.047072,1.636820,1.705142,0.339090,0.428189,0.892168,2.769575,-7.526814,-21.375456,8.719631,0.175583,-0.171136,0.000000,0.137526,-0.091544,0.000000
1.020000,-2.360125,0.340732,-1.512777,0.976217,0.427863,-0.043543,1.640725,1.712995,0.367223,0.351868,0.675107,2.855283,-7.728828,-22.055283,8.341166,0.176863,-0.172037,0.000000,0.118006,-0.085811,0.000000
1.030000,-2.350281,0.345096,-1.513194,0.992642,0.445027,-0.039728,1.643857,1.718644,0.396195,0.273612,0.451063,2.936398,-7.912370,-22.740255,7.845985,0.177943,-0.172879,0.000000,0.097596,-0.079782,-0.000000
1.040000,-2.340272,0.349632,-1.513571,1.009094,0.462236,-0.035619,1.646197,1.722017,0.425951,0.193620,0.220302,3.012203,-8.076896,-23.365916,7.335884,0.178814,-0.173658,0.000000,0.076282,-0.073456,-0.000000
1.050000,-2.330099,0.354341,-1.513906,1.025566,0.479467,-0.031209,1.647729,1.723050,0.456439,0.112074,-0.016255,3.083116,-8.226961,-23.916775,6.852783,0.179468,-0.174372,0.000000,0.054135,-0.066848,-0.000000
1.060000,-2.319761,0.359222,-1.514195,1.042049,0.496697,-0.026490,1.648439,1.721691,0.487613,0.029081,-0.258034,3.149258,-8.360094,-24.431308,6.323399,0.179896,-0.175017,0.000000,0.031189,-0.059965,-0.000000
1.070000,-2.309258,0.364275,-1.514436,1.058535,0.513901,-0.021456,1.648311,1.717890,0.519425,-0.055128,-0.504882,3.209584,-8.458553,-24.934454,5.639189,0.180091,-0.175590,0.000000,0.007410,-0.052801,-0.000000
1.080000,-2.298590,0.369500,-1.514625,1.075015,0.531055,-0.016102,1.647336,1.711594,0.551805,-0.140090,-0.756723,3.262042,-8.520089,-25.408074,4.814927,0.180044,-0.176090,0.000000,-0.017262,-0.045357,-0.000000
1.090000,-2.287758,0.374896,-1.514758,1.091481,0.548133,-0.010420,1.645509,1.702755,0.584665,-0.225530,-1.013043,3.305882,-8.566136,-25.813589,3.994381,0.179745,-0.176512,0.000000,-0.042817,-0.037638,0.000000
1.100000,-2.276761,0.380462,-1.514833,1.107925,0.565110,-0.004408,1.642826,1.691333,0.617923,-0.311413,-1.272994,3.341930,-8.602586,-26.153738,3.234229,0.179186,-0.176855,0.000000,-0.069182,-0.029654,0.000000
1.110000,-2.265599,0.386198,-1.514846,1.124338,0.581960,0.001938,1.639281,1.677295,0.651504,-0.397581,-1.536118,3.370567,-8.612467,-26.447341,2.434975,0.178360,-0.177115,0.000000,-0.096328,-0.021419,0.000000
1.120000,-2.254274,0.392102,-1.514794,1.140711,0.598656,0.008622,1.634874,1.660611,0.685334,-0.483662,-1.801941,3.390629,-8.578942,-26.670064,1.456441,0.177259,-0.177290,0.000000,-0.124253,-0.012944,0.000000
1.130000,-2.242785,0.398171,-1.514674,1.157035,0.615172,0.015645,1.629608,1.641256,0.719317,-0.569160,-2.069519,3.399696,-8.502801,-26.807856,0.321982,0.175874,-0.177377,0.000000,-0.152929,-0.004226,-0.000000
1.140000,-2.231133,0.404405,-1.514481,1.173303,0.631481,0.023008,1.623491,1.619220,0.753328,-0.653718,-2.338098,3.397069,-8.404070,-26.887991,-0.778567,0.174199,-0.177375,0.000000,-0.182306,0.004716,0.000000
1.150000,-2.219319,0.410801,-1.514214,1.189505,0.647556,0.030711,1.616533,1.594494,0.787258,-0.737242,-2.607279,3.384124,-8.306016,-26.923549,-1.769745,0.172226,-0.177281,0.000000,-0.212333,0.013852,-0.000000
1.160000,-2.207343,0.417356,-1.513867,1.205634,0.663371,0.038753,1.608746,1.567075,0.821011,-0.819838,-2.876569,3.361674,-8.191900,-26.888758,-2.779400,0.169951,-0.177094,0.000000,-0.242952,0.023182,-0.000000
1.170000,-2.195206,0.424068,-1.513439,1.221680,0.678898,0.047132,1.600137,1.536963,0.854491,-0.901080,-3.145054,3.328536,-7.993455,-26.741258,-3.987227,0.167366,-0.176810,0.000000,-0.274094,0.032686,-0.000000
1.180000,-2.182909,0.430934,-1.512924,1.237636,0.694110,0.055843,1.590724,1.504174,0.887581,-0.979707,-3.411394,3.281929,-7.712681,-26.469548,-5.352157,0.164467,-0.176430,0.000000,-0.305669,0.042284,-0.000000
1.190000,-2.170454,0.437950,-1.512322,1.253495,0.708981,0.064883,1.580543,1.468735,0.920130,-1.055333,-3.674445,3.221493,-7.441209,-26.126008,-6.628396,0.161251,-0.175953,0.000000,-0.337549,0.051938,0.000000
1.200000,-2.157840,0.445114,-1.511627,1.269247,0.723485,0.074246,1.569618,1.430685,0.952011,-1.128532,-3.933915,3.149362,-7.191113,-25.819348,-7.778653,0.157715,-0.175378,0.000000,-0.369645,0.061666,0.000000
1.210000,-2.145069,0.452420,-1.510837,1.284887,0.737595,0.083923,1.557972,1.390057,0.983117,-1.199155,-4.190832,3.065920,-6.899856,-25.501064,-8.960314,0.153857,-0.174704,0.000000,-0.402039,0.071440,-0.000000
1.220000,-2.132142,0.459866,-1.509948,1.300407,0.751286,0.093908,1.545635,1.346868,1.013330,-1.266529,-4.443936,2.970155,-6.550101,-24.855757,-10.224396,0.149673,-0.173931,0.000000,-0.434586,0.081198,-0.000000
1.230000,-2.119060,0.467446,-1.508959,1.315800,0.764532,0.104190,1.532641,1.301178,1.042520,-1.330157,-4.687947,2.861432,-6.157628,-23.886631,-11.505023,0.145164,-0.173061,0.000000,-0.466676,0.090889,0.000000
1.240000,-2.105826,0.475156,-1.507865,1.331060,0.777309,0.114758,1.519031,1.253109,1.070558,-1.389681,-4.921669,2.740055,-5.742889,-23.021517,-12.733246,0.140339,-0.172094,0.000000,-0.498114,0.100455,-0.000000
1.250000,-2.092439,0.482992,-1.506663,1.346180,0.789594,0.125601,1.504848,1.202745,1.097321,-1.445015,-5.148378,2.606767,-5.347711,-22.301754,-13.937915,0.135201,-0.171032,0.000000,-0.529188,0.109857,0.000000
1.260000,-2.078902,0.490948,-1.505353,1.361157,0.801364,0.136705,1.490131,1.150142,1.122694,-1.496635,-5.367704,2.461296,-4.956397,-21.438922,-15.149839,0.129754,-0.169877,0.000000,-0.559794,0.119135,0.000000
1.270000,-2.065216,0.499019,-1.503929,1.375983,0.812597,0.148055,1.474915,1.095391,1.146547,-1.544143,-5.577156,2.303771,-4.445941,-20.406004,-16.268542,0.124005,-0.168629,0.000000,-0.589578,0.128228,-0.000000
1.280000,-2.051383,0.507200,-1.502391,1.390655,0.823272,0.159636,1.459248,1.038598,1.168769,-1.585554,-5.775824,2.135926,-3.817122,-19.299490,-17.268212,0.117963,-0.167292,0.000000,-0.618335,0.136858,0.000000
1.290000,-2.037403,0.515485,-1.500737,1.405168,0.833369,0.171430,1.443204,0.979874,1.189266,-1.620486,-5.963146,1.958406,-3.241148,-18.136634,-18.276230,0.111639,-0.165873,0.000000,-0.645905,0.144948,0.000000
1.300000,-2.023279,0.523867,-1.498963,1.419519,0.842870,0.183421,1.426839,0.919335,1.207937,-1.650377,-6.138556,1.770401,-2.746588,-16.953545,-19.322897,0.105045,-0.164375,0.000000,-0.672140,0.152651,0.000000
1.310000,-2.009013,0.532342,-1.497068,1.433705,0.851756,0.195589,1.410196,0.857103,1.224674,-1.675417,-6.302217,1.571948,-2.219912,-15.742954,-20.309840,0.098197,-0.162803,0.000000,-0.696959,0.159963,-0.000000
1.320000,-1.994605,0.540903,-1.495051,1.447723,0.860012,0.207915,1.393330,0.793291,1.239376,-1.694775,-6.453415,1.364204,-1.622227,-14.373035,-21.161696,0.091107,-0.161161,0.000000,-0.720172,0.166746,-0.000000
1.330000,-1.980058,0.549542,-1.492910,1.461571,0.867622,0.220377,1.376301,0.728035,1.251958,-1.707862,-6.589677,1.148714,-0.998696,-12.835869,-21.898637,0.083794,-0.159454,0.000000,-0.741383,0.172880,-0.000000
1.340000,-1.965374,0.558255,-1.490643,1.475249,0.874572,0.232954,1.359173,0.661498,1.262350,-1.714749,-6.710133,0.926232,-0.397583,-11.322947,-22.604999,0.076281,-0.157691,0.000000,-0.760389,0.178338,0.000000
1.350000,-1.950553,0.567034,-1.488251,1.488755,0.880852,0.245624,1.342006,0.593832,1.270483,-1.715814,-6.816136,0.696614,0.204721,-9.926815,-23.314702,0.068588,-0.155878,0.000000,-0.777256,0.183141,-0.000000
1.360000,-1.935599,0.575872,-1.485731,1.502089,0.886449,0.258363,1.324857,0.525175,1.276283,-1.710655,-6.908669,0.459937,0.832586,-8.519419,-23.961309,0.060738,-0.154020,0.000000,-0.792012,0.187224,-0.000000
1.370000,-1.920511,0.584763,-1.483084,1.515252,0.891355,0.271149,1.307793,0.455659,1.279681,-1.699162,-6.986525,0.217388,1.412680,-6.891965,-24.435692,0.052750,-0.152127,0.000000,-0.804431,0.190534,-0.000000
1.380000,-1.905294,0.593699,-1.480308,1.528245,0.895562,0.283957,1.290873,0.385444,1.280630,-1.682401,-7.046508,-0.028776,1.932252,-5.098320,-24.744171,0.044652,-0.150205,0.000000,-0.814063,0.193138,-0.000000
1.390000,-1.889947,0.602674,-1.477404,1.541069,0.899064,0.296762,1.274145,0.314729,1.279106,-1.660517,-7.088491,-0.277495,2.487830,-3.425664,-25.024488,0.036472,-0.148261,0.000000,-0.820835,0.195023,-0.000000
1.400000,-1.874472,0.611680,-1.474373,1.553728,0.901857,0.309539,1.257663,0.243675,1.275080,-1.632645,-7.115022,-0.529266,3.072724,-1.834141,-25.340830,0.028238,-0.146302,0.000000,-0.825008,0.196090,0.000000
1.410000,-1.858872,0.620711,-1.471214,1.566223,0.903937,0.322264,1.241492,0.172428,1.268521,-1.599062,-7.125174,-0.784312,3.618350,-0.148078,-25.591014,0.019975,-0.144338,0.000000,-0.826445,0.196369,-0.000000
1.420000,-1.843148,0.629759,-1.467928,1.578558,0.905305,0.334910,1.225682,0.101171,1.259394,-1.560278,-7.117983,-1.041086,4.160783,1.445269,-25.600728,0.011712,-0.142375,0.000000,-0.825015,0.195890,0.000000
1.430000,-1.827301,0.638817,-1.464515,1.590736,0.905961,0.347451,1.210286,0.030068,1.247699,-1.515847,-7.096269,-1.296326,4.720063,2.868169,-25.388998,0.003477,-0.140420,0.000000,-0.821044,0.194549,-0.000000
1.440000,-1.811333,0.647878,-1.460978,1.602763,0.905907,0.359864,1.195365,-0.040754,1.233468,-1.465876,-7.060620,-1.548866,5.235532,4.378613,-25.184822,-0.004706,-0.138484,0.000000,-0.814626,0.192349,0.000000
1.450000,-1.795246,0.656935,-1.457318,1.614644,0.905146,0.372121,1.180969,-0.111144,1.216721,-1.411136,-7.008696,-1.800023,5.713679,6.003299,-25.062035,-0.012813,-0.136574,0.000000,-0.805525,0.189408,-0.000000
1.460000,-1.779040,0.665981,-1.453536,1.626383,0.903684,0.384198,1.167142,-0.180928,1.197467,-1.351603,-6.940554,-2.050107,6.191066,7.554596,-24.861153,-0.020814,-0.134696,0.000000,-0.793792,0.185740,-0.000000
1.470000,-1.762718,0.675009,-1.449634,1.637986,0.901527,0.396070,1.153937,-0.249955,1.175719,-1.287315,-6.857604,-2.297246,6.617136,9.016100,-24.404381,-0.028686,-0.132859,0.000000,-0.779650,0.181337,-0.000000
1.480000,-1.746280,0.684012,-1.445615,1.649461,0.898685,0.407712,1.141396,-0.318080,1.151522,-1.219260,-6.760232,-2.538195,6.972419,10.441794,-23.736273,-0.036405,-0.131068,0.000000,-0.763226,0.176278,0.000000
1.490000,-1.729729,0.692983,-1.441480,1.660814,0.895166,0.419101,1.129551,-0.385160,1.124955,-1.147866,-6.648768,-2.771971,7.325039,11.825678,-23.091180,-0.043949,-0.129331,0.000000,-0.744649,0.170622,0.000000
1.500000,-1.713064,0.701915,-1.437233,1.672052,0.890981,0.430212,1.118439,-0.451056,1.096083,-1.072759,-6.523718,-3.000018,7.693470,13.184191,-22.528368,-0.051296,-0.127653,0.000000,-0.724064,0.164369,-0.000000
1.510000,-1.696288,0.710802,-1.432876,1.683183,0.886145,0.441022,1.108096,-0.515634,1.064955,-0.993997,-6.385085,-3.222539,8.026660,14.512583,-21.891395,-0.058429,-0.126040,0.000000,-0.701559,0.157554,0.000000
1.520000,-1.679400,0.719638,-1.428412,1.694214,0.880669,0.451511,1.098559,-0.578757,1.031632,-0.912226,-6.233467,-3.437846,8.284349,15.717252,-21.048056,-0.065327,-0.124497,0.000000,-0.677312,0.150248,0.000000
1.530000,-1.662403,0.728416,-1.423845,1.705154,0.874569,0.461655,1.089852,-0.640303,0.996198,-0.828310,-6.070740,-3.643500,8.477076,16.783579,-20.052904,-0.071974,-0.123028,0.000000,-0.651652,0.142540,0.000000
1.540000,-1.645297,0.737129,-1.419179,1.716011,0.867863,0.471435,1.081993,-0.700172,0.958762,-0.742685,-5.897795,-3.838904,8.652790,17.831159,-19.082138,-0.078359,-0.121638,0.000000,-0.624789,0.134496,0.000000
1.550000,-1.628083,0.745773,-1.414417,1.726794,0.860566,0.480830,1.074998,-0.758259,0.919420,-0.655254,-5.714116,-4.025143,8.839336,18.914711,-18.147943,-0.084470,-0.120330,0.000000,-0.596752,0.126143,-0.000000
1.560000,-1.610761,0.754341,-1.409563,1.737511,0.852698,0.489823,1.068887,-0.814454,0.878259,-0.565898,-5.519501,-4.201863,9.000429,19.942565,-17.140605,-0.090294,-0.119106,0.000000,-0.567618,0.117487,0.000000
1.570000,-1.593333,0.762827,-1.404620,1.748172,0.844277,0.498395,1.063680,-0.868649,0.835383,-0.475246,-5.315265,-4.367955,9.054510,20.768562,-16.059201,-0.095822,-0.117971,0.000000,-0.537635,0.108606,0.000000
1.580000,-1.575798,0.771226,-1.399595,1.758785,0.835325,0.506531,1.059383,-0.920760,0.790900,-0.384808,-5.104130,-4.523047,9.007688,21.409848,-14.949619,-0.101048,-0.116924,0.000000,-0.507191,0.099678,-0.000000
1.590000,-1.558157,0.779534,-1.394490,1.769360,0.825862,0.514213,1.055984,-0.970732,0.744922,-0.295092,-4.887068,-4.666947,8.967871,22.054004,-13.814560,-0.105967,-0.115967,0.000000,-0.476469,0.090774,0.000000
1.600000,-1.540411,0.787744,-1.389310,1.779905,0.815910,0.521429,1.053481,-1.018501,0.697561,-0.205450,-4.663050,-4.799338,8.961118,22.752735,-12.646910,-0.110578,-0.115098,0.000000,-0.445426,0.081832,-0.000000
1.610000,-1.522559,0.795852,-1.384061,1.790429,0.805492,0.528165,1.051875,-1.063993,0.648935,-0.115869,-4.432013,-4.919885,8.912872,23.373384,-11.455616,-0.114877,-0.114320,0.000000,-0.414122,0.072861,0.000000
1.620000,-1.504602,0.803853,-1.378747,1.800942,0.794630,0.534408,1.051163,-1.107141,0.599164,-0.027193,-4.195582,-5.028451,8.766243,23.788991,-10.265041,-0.118862,-0.113631,0.000000,-0.382789,0.063961,0.000000
1.630000,-1.486540,0.811744,-1.373373,1.811452,0.783349,0.540148,1.051331,-1.147905,0.548366,0.059455,-3.956234,-5.125186,8.544677,24.036413,-9.080158,-0.122534,-0.113031,0.000000,-0.351733,0.055262,0.000000
1.640000,-1.468373,0.819520,-1.367944,1.821969,0.771672,0.545375,1.052352,-1.186266,0.496660,0.143701,-3.714854,-5.210054,8.320755,24.277488,-7.879931,-0.125898,-0.112517,0.000000,-0.321079,0.046806,0.000000
1.650000,-1.450101,0.827178,-1.362465,1.832499,0.759623,0.550081,1.054205,-1.222202,0.444165,0.225871,-3.470684,-5.282785,8.105186,24.547617,-6.663439,-0.128957,-0.112087,0.000000,-0.290777,0.038557,-0.000000
1.660000,-1.431723,0.834713,-1.356942,1.843053,0.747228,0.554258,1.056870,-1.255680,0.391004,0.305804,-3.223901,-5.343323,7.850432,24.736712,-5.453662,-0.131715,-0.111739,0.000000,-0.260865,0.030532,0.000000
1.670000,-1.413240,0.842122,-1.351380,1.853637,0.734510,0.557901,1.060321,-1.286680,0.337299,0.382879,-2.975950,-5.391858,7.533991,24.760667,-4.267859,-0.134176,-0.111470,0.000000,-0.231505,0.022799,-0.000000
1.680000,-1.394650,0.849403,-1.345784,1.864259,0.721494,0.561004,1.064527,-1.315199,0.283167,0.456484,-2.728688,-5.428680,7.169869,24.652246,-3.110041,-0.136347,-0.111278,0.000000,-0.202890,0.015418,-0.000000
1.690000,-1.375955,0.856552,-1.340160,1.874927,0.708206,0.563564,1.069451,-1.341253,0.228725,0.526277,-2.482905,-5.454059,6.788062,24.520484,-1.968432,-0.138236,-0.111159,0.000000,-0.175091,0.008423,-0.000000
1.700000,-1.357152,0.863567,-1.334513,1.885648,0.694669,0.565579,1.075053,-1.364857,0.174086,0.592245,-2.238278,-5.468048,6.413319,24.399350,-0.810712,-0.139850,-0.111108,0.000000,-0.148066,0.001808,-0.000000
1.710000,-1.338242,0.870446,-1.328849,1.896429,0.680909,0.567046,1.081296,-1.386019,0.119364,0.654543,-1.994918,-5.470273,6.026263,24.216798,0.344476,-0.141199,-0.111122,0.000000,-0.121819,-0.004456,0.000000
1.720000,-1.319223,0.877185,-1.323172,1.907274,0.666949,0.567966,1.088144,-1.404755,0.064680,0.712771,-1.753942,-5.461159,5.560230,23.889768,1.386384,-0.142288,-0.111197,0.000000,-0.096441,-0.010332,-0.000000
1.730000,-1.300096,0.883785,-1.317489,1.918191,0.652814,0.568340,1.095551,-1.421098,0.010141,0.765748,-1.517122,-5.442545,5.021906,23.444070,2.308402,-0.143129,-0.111330,0.000000,-0.072063,-0.015692,0.000000
1.740000,-1.280859,0.890242,-1.311805,1.929185,0.638527,0.568169,1.103459,-1.435098,-0.044171,0.813209,-1.285061,-5.414991,4.505366,22.992813,3.252859,-0.143731,-0.111514,0.000000,-0.048711,-0.020517,0.000000
1.750000,-1.261512,0.896555,-1.306126,1.940261,0.624112,0.567456,1.111815,-1.446799,-0.098159,0.855855,-1.057266,-5.377488,4.019055,22.540344,4.254797,-0.144104,-0.111745,0.000000,-0.026321,-0.024900,-0.000000
1.760000,-1.242054,0.902724,-1.300456,1.951422,0.609591,0.566206,1.120576,-1.456243,-0.151720,0.893590,-0.834254,-5.329895,3.503159,22.016199,5.210021,-0.144259,-0.112017,0.000000,-0.004917,-0.028845,0.000000
1.770000,-1.222484,0.908747,-1.294802,1.962672,0.594987,0.564422,1.129687,-1.463484,-0.204757,0.925918,-0.616942,-5.273288,2.959648,21.433541,6.034380,-0.144204,-0.112327,0.000000,0.015455,-0.032305,-0.000000
1.780000,-1.202801,0.914624,-1.289168,1.974015,0.580321,0.562111,1.139094,-1.468582,-0.257186,0.952783,-0.405583,-5.209207,2.415886,20.820607,6.752814,-0.143951,-0.112670,0.000000,0.034826,-0.035269,0.000000
1.790000,-1.183004,0.920353,-1.283560,1.985454,0.565615,0.559278,1.148743,-1.471596,-0.308941,0.974236,-0.200530,-5.138231,1.868330,20.160347,7.466920,-0.143508,-0.113040,0.000000,0.053200,-0.037749,-0.000000
1.800000,-1.163092,0.925936,-1.277982,1.996990,0.550889,0.555932,1.158579,-1.472592,-0.359951,0.990149,-0.002376,-5.059869,1.292637,19.458288,8.215195,-0.142887,-0.113433,0.000000,0.070545,-0.039750,-0.000000
1.810000,-1.143064,0.931371,-1.272441,2.008626,0.536163,0.552079,1.168546,-1.471643,-0.410138,1.000089,0.188636,-4.973927,0.697930,18.731675,8.923794,-0.142098,-0.113843,0.000000,0.086867,-0.041244,0.000000
1.820000,-1.122919,0.936659,-1.266941,2.020361,0.521456,0.547729,1.178581,-1.468820,-0.459429,1.004108,0.372257,-4.881393,0.153790,17.962196,9.482634,-0.141151,-0.114266,0.000000,0.102188,-0.042238,-0.000000
1.830000,-1.102657,0.941800,-1.261486,2.032197,0.506787,0.542891,1.188628,-1.464198,-0.507766,1.003164,0.547880,-4.784275,-0.337498,17.147769,9.907624,-0.140055,-0.114696,0.000000,0.116509,-0.042811,-0.000000
1.840000,-1.082275,0.946795,-1.256083,2.044134,0.492173,0.537574,1.198644,-1.457862,-0.555115,0.997358,0.715213,-4.683241,-0.866242,16.322600,10.342138,-0.138821,-0.115131,0.000000,0.129841,-0.042975,0.000000
1.850000,-1.061774,0.951644,-1.250735,2.056170,0.477630,0.531788,1.208575,-1.449894,-0.601431,0.985839,0.874332,-4.577432,-1.440297,15.490508,10.826140,-0.137459,-0.115564,0.000000,0.142206,-0.042666,0.000000
1.860000,-1.041152,0.956347,-1.245447,2.068305,0.463175,0.525545,1.218361,-1.440375,-0.646663,0.968552,1.025023,-4.466718,-1.995581,14.634046,11.260205,-0.135977,-0.115992,0.000000,0.153611,-0.041890,-0.000000
1.870000,-1.020408,0.960907,-1.240224,2.080537,0.448822,0.518855,1.227946,-1.429393,-0.690765,0.945928,1.167013,-4.352228,-2.522572,13.764438,11.549671,-0.134387,-0.116410,0.000000,0.164070,-0.040683,0.000000
1.880000,-0.999541,0.965324,-1.235070,2.092864,0.434587,0.511730,1.237279,-1.417035,-0.733708,0.918101,1.300312,-4.235724,-3.040969,12.896464,11.726126,-0.132696,-0.116813,0.000000,0.173632,-0.039045,0.000000
1.890000,-0.978551,0.969599,-1.229989,2.105283,0.420482,0.504181,1.246308,-1.403387,-0.775480,0.885108,1.424942,-4.117705,-3.554976,12.019877,11.912043,-0.130914,-0.117198,0.000000,0.182325,-0.036980,-0.000000
1.900000,-0.957436,0.973734,-1.224986,2.117790,0.406519,0.496220,1.254981,-1.388536,-0.816062,0.847001,1.540709,-3.997483,-4.064965,11.108253,12.116658,-0.129050,-0.117560,0.000000,0.190143,-0.034505,0.000000
1.910000,-0.936195,0.977729,-1.220065,2.130382,0.392711,0.487860,1.263248,-1.372573,-0.855430,0.803809,1.647107,-3.875372,-4.566396,10.176588,12.259934,-0.127111,-0.117894,0.000000,0.197063,-0.031624,0.000000
1.920000,-0.914828,0.981588,-1.215229,2.143055,0.379068,0.479112,1.271058,-1.355594,-0.893570,0.755673,1.744241,-3.752285,-5.045574,9.308173,12.332840,-0.125108,-0.118197,0.000000,0.203124,-0.028344,-0.000000
1.930000,-0.893334,0.985311,-1.210483,2.155804,0.365599,0.469988,1.278362,-1.337688,-0.930475,0.702898,1.833270,-3.628715,-5.499656,8.505605,12.363465,-0.123049,-0.118466,0.000000,0.208453,-0.024691,0.000000
1.940000,-0.871712,0.988900,-1.205829,2.168622,0.352314,0.460502,1.285116,-1.318929,-0.966144,0.645680,1.914353,-3.505015,-5.945009,7.661873,12.360862,-0.120939,-0.118695,0.000000,0.213081,-0.020680,-0.000000
1.950000,-0.849961,0.992357,-1.201273,2.181506,0.339220,0.450665,1.291275,-1.299401,-1.000576,0.583998,1.986508,-3.381498,-6.398924,6.763055,12.334672,-0.118787,-0.118882,0.000000,0.216935,-0.016309,-0.000000
1.960000,-0.828082,0.995684,-1.196816,2.194448,0.326326,0.440491,1.296796,-1.279199,-1.033774,0.517702,2.049614,-3.258322,-6.847194,5.886136,12.281670,-0.116600,-0.119024,0.000000,0.220016,-0.011562,0.000000
1.970000,-0.806072,0.998883,-1.192463,2.207442,0.313636,0.429990,1.301629,-1.258409,-1.065742,0.447054,2.104231,-3.135865,-7.239197,5.057833,12.170737,-0.114386,-0.119115,0.000000,0.222389,-0.006461,0.000000
1.980000,-0.783933,1.001957,-1.188216,2.220481,0.301158,0.419176,1.305737,-1.237114,-1.096491,0.372918,2.150771,-3.014907,-7.576079,4.257017,12.003838,-0.112152,-0.119154,0.000000,0.224108,-0.001075,-0.000000
1.990000,-0.761663,1.004907,-1.184079,2.233557,0.288894,0.408060,1.309088,-1.215393,-1.126040,0.295532,2.189371,-2.895788,-7.924757,3.457879,11.828091,-0.109904,-0.119137,0.000000,0.225195,0.004579,0.000000
2.000000,-0.739262,1.007735,-1.180055,2.246662,0.276850,0.396655,1.311647,-1.193327,-1.154407,0.214423,2.219928,-2.778345,-8.296942,2.646887,11.652367,-0.107648,-0.119062,0.000000,0.225645,0.010544,-0.000000
2.010000,-0.716729,1.010444,-1.176146,2.259790,0.265028,0.384972,1.313376,-1.170995,-1.181607,0.129593,2.242309,-2.662741,-8.646123,1.844807,11.448016,-0.105391,-0.118925,0.000000,0.225451,0.016821,0.000000
2.020000,-0.694066,1.013035,-1.172356,2.272930,0.253430,0.373023,1.314239,-1.148480,-1.207662,0.041500,2.256824,-2.549385,-8.950014,1.101814,11.207130,-0.103139,-0.118724,0.000000,0.224648,0.023375,0.000000
2.030000,-0.671271,1.015512,-1.168686,2.286074,0.242058,0.360819,1.314206,-1.125858,-1.232595,-0.049407,2.264345,-2.438598,-9.223096,0.415923,10.942957,-0.100898,-0.118455,0.000000,0.223322,0.030173,-0.000000
2.040000,-0.648344,1.017876,-1.165139,2.299214,0.230913,0.348371,1.313251,-1.103194,-1.256434,-0.142962,2.265143,-2.330526,-9.491575,-0.277317,10.668779,-0.098672,-0.118117,0.000000,0.221497,0.037201,0.000000
2.050000,-0.625287,1.020130,-1.161718,2.312339,0.219994,0.335690,1.311347,-1.080556,-1.279205,-0.239239,2.258799,-2.225223,-9.761180,-0.992908,10.382638,-0.096467,-0.117708,0.000000,0.219139,0.044471,-0.000000
2.060000,-0.602098,1.022276,-1.158426,2.325441,0.209302,0.322787,1.308466,-1.058018,-1.300938,-0.338185,2.245285,-2.122873,-10.014381,-1.684715,10.080153,-0.094289,-0.117224,0.000000,0.216245,0.051981,-0.000000
2.070000,-0.578778,1.024316,-1.155263,2.338509,0.198834,0.309671,1.304583,-1.035650,-1.321663,-0.439526,2.225104,-2.023619,-10.234241,-2.317277,9.774267,-0.092142,-0.116664,0.000000,0.212862,0.059711,0.000000
2.080000,-0.555327,1.026253,-1.152232,2.351533,0.188589,0.296354,1.299676,-1.013516,-1.341410,-0.542870,2.198939,-1.927388,-10.426251,-2.903363,9.471015,-0.090032,-0.116025,0.000000,0.209049,0.067628,-0.000000
2.090000,-0.531747,1.028088,-1.149336,2.364502,0.178563,0.282843,1.293726,-0.991671,-1.360211,-0.648051,2.167037,-1.834199,-10.612523,-3.486259,9.157228,-0.087961,-0.115306,0.000000,0.204825,0.075721,0.000000
2.100000,-0.508037,1.029824,-1.146575,2.377407,0.168755,0.269149,1.286715,-0.970175,-1.378094,-0.755121,2.129214,-1.744243,-10.796037,-4.075392,8.826162,-0.085935,-0.114504,0.000000,0.200174,0.083997,0.000000
2.110000,-0.484199,1.031463,-1.143953,2.390236,0.159160,0.255281,1.278623,-0.949087,-1.395095,-0.863972,2.085529,-1.657676,-10.962448,-4.640573,8.491186,-0.083957,-0.113619,0.000000,0.195100,0.092452,-0.000000
2.120000,-0.460233,1.033008,-1.141470,2.402980,0.149773,0.241247,1.269435,-0.928464,-1.411248,-0.974370,2.036403,-1.574420,-11.106756,-5.156297,8.176210,-0.082033,-0.112649,0.000000,0.189638,0.101066,0.000000
2.130000,-0.436139,1.034459,-1.139128,2.415625,0.140591,0.227056,1.259136,-0.908359,-1.426584,-1.086107,1.982403,-1.494152,-11.234398,-5.631351,7.881306,-0.080164,-0.111591,0.000000,0.183831,0.109821,0.000000
2.140000,-0.411920,1.035819,-1.136928,2.428162,0.131606,0.212716,1.247713,-0.888816,-1.441131,-1.199058,1.923776,-1.416794,-11.351844,-6.097792,7.579281,-0.078356,-0.110445,0.000000,0.177698,0.118707,0.000000
2.150000,-0.387576,1.037091,-1.134873,2.440579,0.122814,0.198234,1.235155,-0.869883,-1.454920,-1.313144,1.860447,-1.342566,-11.458522,-6.560962,7.261864,-0.076610,-0.109210,0.000000,0.171232,0.127721,-0.000000
2.160000,-0.363109,1.038276,-1.132964,2.452865,0.114209,0.183617,1.221450,-0.851607,-1.467982,-1.428228,1.792556,-1.271556,-11.551021,-6.999161,6.951270,-0.074931,-0.107883,0.000000,0.164440,0.136855,0.000000
2.170000,-0.338519,1.039375,-1.131201,2.465008,0.105782,0.168874,1.206590,-0.834032,-1.480351,-1.544164,1.720464,-1.203541,-11.632036,-7.399930,6.674013,-0.073321,-0.106465,0.000000,0.157352,0.146094,-0.000000
2.180000,-0.313808,1.040391,-1.129586,2.476997,0.097528,0.154010,1.190567,-0.817198,-1.492053,-1.660869,1.644558,-1.138076,-11.703622,-7.770559,6.426431,-0.071784,-0.104954,0.000000,0.149994,0.155430,-0.000000
2.190000,-0.288979,1.041326,-1.128121,2.488820,0.089438,0.139033,1.173373,-0.801141,-1.503112,-1.778237,1.565053,-1.075012,-11.762719,-8.126537,6.177796,-0.070321,-0.103348,0.000000,0.142381,0.164853,-0.000000
2.200000,-0.264032,1.042180,-1.126806,2.500465,0.081505,0.123948,1.155002,-0.785897,-1.513553,-1.896123,1.482027,-1.014520,-11.807876,-8.468463,5.921666,-0.068936,-0.101648,0.000000,0.134518,0.174355,0.000000
2.210000,-0.238970,1.042956,-1.125642,2.511920,0.073720,0.108762,1.135450,-0.771500,-1.523403,-2.014394,1.395684,-0.956579,-11.842038,-8.786505,5.681729,-0.067631,-0.099853,0.000000,0.126420,0.183924,-0.000000
2.220000,-0.213794,1.043654,-1.124630,2.523174,0.066075,0.093480,1.114714,-0.757983,-1.532685,-2.132964,1.306297,-0.900885,-11.869807,-9.080205,5.478316,-0.066408,-0.097961,0.000000,0.118106,0.193552,0.000000
2.230000,-0.188506,1.044277,-1.123772,2.534214,0.058561,0.078108,1.092791,-0.745374,-1.541420,-2.251790,1.214080,-0.847012,-11.891184,-9.353669,5.306478,-0.065269,-0.095973,0.000000,0.109589,0.203233,-0.000000
2.240000,-0.163109,1.044826,-1.123068,2.545029,0.051168,0.062652,1.069679,-0.733702,-1.549625,-2.370788,1.119223,-0.794756,-11.900935,-9.607190,5.143336,-0.064216,-0.093888,0.000000,0.100882,0.212959,0.000000
2.250000,-0.137606,1.045301,-1.122519,2.555608,0.043887,0.047116,1.045375,-0.722990,-1.557316,-2.489809,1.021936,-0.744146,-11.896520,-9.838035,4.983458,-0.063251,-0.091705,0.000000,0.092001,0.222719,-0.000000
2.260000,-0.111997,1.045703,-1.122126,2.565937,0.036708,0.031505,1.019882,-0.713263,-1.564508,-2.608718,0.922463,-0.695087,-11.882268,-10.046811,4.844601,-0.062376,-0.089425,0.000000,0.082964,0.232501,0.000000
2.270000,-0.086287,1.046035,-1.121889,2.576005,0.029621,0.015826,0.993201,-0.704541,-1.571217,-2.727454,0.821000,-0.647254,-11.866125,-10.241180,4.744991,-0.061591,-0.087046,0.000000,0.073783,0.242299,-0.000000
2.280000,-0.060477,1.046296,-1.121809,2.585801,0.022617,0.000081,0.965333,-0.696843,-1.577453,-2.846040,0.717639,-0.600187,-11.848166,-10.422199,4.681513,-0.060900,-0.084569,0.000000,0.064463,0.252112,0.000000
2.290000,-0.034571,1.046487,-1.121888,2.595312,0.015684,-0.015724,0.936280,-0.690188,-1.583221,-2.964418,0.612556,-0.553623,-11.818324,-10.579763,4.632896,-0.060302,-0.081994,0.000000,0.055016,0.261935,0.000000
2.300000,-0.008571,1.046609,-1.122124,2.604527,0.008813,-0.031583,0.906045,-0.684592,-1.588526,-3.082407,0.506044,-0.507529,-11.769656,-10.708325,4.591695,-0.059799,-0.079321,0.000000,0.045463,0.271754,0.000000
2.310000,0.017520,1.046663,-1.122519,2.613433,0.001993,-0.047494,0.874632,-0.680067,-1.593372,-3.199811,0.398389,-0.461790,-11.709862,-10.815444,4.574296,-0.059393,-0.076550,0.000000,0.035829,0.281552,0.000000
2.320000,0.043698,1.046649,-1.123074,2.622019,-0.004788,-0.063451,0.842049,-0.676624,-1.597761,-3.316604,0.289735,-0.416043,-11.658304,-10.915681,4.603324,-0.059083,-0.073680,0.000000,0.026121,0.291325,0.000000
2.330000,0.069960,1.046568,-1.123788,2.630274,-0.011540,-0.079449,0.808300,-0.674272,-1.601692,-3.432977,0.180075,-0.369723,-11.614227,-11.007847,4.676932,-0.058870,-0.070713,0.000000,0.016334,0.301089,0.000000
2.340000,0.096303,1.046419,-1.124663,2.638185,-0.018274,-0.095485,0.773389,-0.673022,-1.605156,-3.548889,0.069578,-0.322504,-11.551672,-11.072582,4.766700,-0.058756,-0.067648,0.000000,0.006480,0.310840,-0.000000
2.350000,0.122724,1.046202,-1.125698,2.645742,-0.025000,-0.111552,0.737322,-0.672881,-1.608143,-3.664010,-0.041376,-0.274389,-11.460938,-11.102743,4.856571,-0.058741,-0.064485,0.000000,-0.003411,0.320553,0.000000
2.360000,0.149218,1.045919,-1.126894,2.652932,-0.031731,-0.127648,0.700109,-0.673850,-1.610644,-3.778107,-0.152477,-0.225373,-11.360110,-11.111812,4.967803,-0.058824,-0.061225,0.000000,-0.013312,0.330208,0.000000
2.370000,0.175782,1.045568,-1.128251,2.659744,-0.038477,-0.143765,0.661760,-0.675930,-1.612650,-3.891213,-0.263612,-0.175033,-11.272462,-11.117089,5.144929,-0.059007,-0.057869,0.000000,-0.023218,0.339810,0.000000
2.380000,0.202413,1.045149,-1.129769,2.666167,-0.045250,-0.159901,0.622285,-0.679122,-1.614144,-4.003557,-0.374819,-0.122474,-11.192844,-11.115018,5.385100,-0.059289,-0.054417,0.000000,-0.033139,0.349378,0.000000
2.390000,0.229106,1.044663,-1.131449,2.672190,-0.052060,-0.176048,0.581689,-0.683427,-1.615100,-4.115069,-0.485913,-0.067331,-11.090201,-11.082493,5.628849,-0.059670,-0.050869,0.000000,-0.043063,0.358906,0.000000
2.400000,0.255857,1.044108,-1.133290,2.677801,-0.058918,-0.192203,0.539983,-0.688840,-1.615491,-4.225361,-0.596468,-0.009897,-10.958145,-11.012618,5.853292,-0.060150,-0.047226,0.000000,-0.052953,0.368368,-0.000000
2.410000,0.282662,1.043484,-1.135293,2.682989,-0.065837,-0.208358,0.497182,-0.695356,-1.615297,-4.334232,-0.706165,0.049735,-10.817261,-10.920825,6.100000,-0.060729,-0.043488,0.000000,-0.062783,0.377750,0.000000
2.420000,0.309517,1.042791,-1.137457,2.687744,-0.072825,-0.224509,0.453299,-0.702964,-1.614496,-4.441706,-0.814885,0.112103,-10.680325,-10.822712,6.424740,-0.061406,-0.039657,0.000000,-0.072547,0.387057,-0.000000
2.430000,0.336417,1.042028,-1.139783,2.692055,-0.079896,-0.240648,0.408348,-0.711654,-1.613055,-4.547839,-0.922619,0.178230,-10.540148,-10.713345,6.816073,-0.062180,-0.035732,0.000000,-0.082253,0.396296,-0.000000
2.440000,0.363358,1.041193,-1.142270,2.695911,-0.087059,-0.256770,0.362342,-0.721416,-1.610932,-4.652509,-1.029152,0.248424,-10.379719,-10.571614,7.199345,-0.063051,-0.031715,0.000000,-0.091886,0.405461,-0.000000
2.450000,0.390335,1.040286,-1.144918,2.699302,-0.094324,-0.272867,0.315297,-0.732237,-1.608087,-4.755433,-1.134052,0.322216,-10.196409,-10.392743,7.557140,-0.064018,-0.027607,0.000000,-0.101410,0.414536,0.000000
2.460000,0.417344,1.039307,-1.147728,2.702217,-0.101703,-0.288931,0.267233,-0.744097,-1.604487,-4.856437,-1.237007,0.399567,-10.000599,-10.190182,7.939119,-0.065079,-0.023407,0.000000,-0.110800,0.423512,-0.000000
2.470000,0.444379,1.038252,-1.150697,2.704647,-0.109206,-0.304956,0.218169,-0.756977,-1.600096,-4.955445,-1.337855,0.480999,-9.796738,-9.973269,8.381420,-0.066234,-0.019118,0.000000,-0.120048,0.432389,-0.000000
2.480000,0.471437,1.037123,-1.153827,2.706581,-0.116843,-0.320933,0.168124,-0.770854,-1.594867,-5.052372,-1.436472,0.567195,-9.580546,-9.736739,8.867338,-0.067480,-0.014740,0.000000,-0.129151,0.441166,-0.000000
2.490000,0.498511,1.035916,-1.157116,2.708009,-0.124623,-0.336854,0.117121,-0.785706,-1.588752,-5.147056,-1.532590,0.658346,-9.345256,-9.467508,9.348544,-0.068817,-0.010275,0.000000,-0.138090,0.449837,0.000000
2.500000,0.525597,1.034630,-1.160564,2.708923,-0.132557,-0.352708,0.065183,-0.801506,-1.581700,-5.239277,-1.625822,0.754166,-9.089508,-9.165003,9.814678,-0.070242,-0.005722,0.000000,-0.146834,0.458394,0.000000
2.510000,0.552689,1.033264,-1.164170,2.709313,-0.140653,-0.368488,0.012336,-0.818223,-1.573668,-5.328846,-1.715890,0.854639,-8.816565,-8.836680,10.295865,-0.071753,-0.001084,0.000000,-0.155363,0.466827,-0.000000
2.520000,0.579783,1.031817,-1.167934,2.709170,-0.148921,-0.384182,-0.041394,-0.835824,-1.564608,-5.415608,-1.802556,0.960083,-8.527734,-8.480561,10.812693,-0.073349,0.003639,0.000000,-0.163662,0.475134,-0.000000
2.530000,0.606873,1.030286,-1.171854,2.708485,-0.157370,-0.399780,-0.095976,-0.854274,-1.554467,-5.499401,-1.885501,1.070893,-8.220886,-8.092159,11.354141,-0.075027,0.008445,0.000000,-0.171711,0.483310,-0.000000
2.540000,0.633953,1.028670,-1.175929,2.707250,-0.166007,-0.415271,-0.151382,-0.873534,-1.543190,-5.580026,-1.964399,1.187166,-7.892794,-7.673413,11.890260,-0.076784,0.013333,0.000000,-0.179488,0.491349,0.000000
2.550000,0.661018,1.026966,-1.180159,2.705457,-0.174840,-0.430644,-0.207577,-0.893562,-1.530723,-5.657257,-2.038970,1.308698,-7.542990,-7.230414,12.410321,-0.078617,0.018302,0.000000,-0.186970,0.499242,0.000000
2.560000,0.688062,1.025173,-1.184542,2.703099,-0.183878,-0.445885,-0.264527,-0.914313,-1.517016,-5.730886,-2.109007,1.435373,-7.172271,-6.760031,12.931561,-0.080523,0.023349,0.000000,-0.194145,0.506982,0.000000
2.570000,0.715080,1.023288,-1.189077,2.700167,-0.193127,-0.460984,-0.322195,-0.935742,-1.502016,-5.800702,-2.174170,1.567329,-6.778993,-6.243504,13.475636,-0.082500,0.028475,0.000000,-0.200989,0.514563,0.000000
2.580000,0.742065,1.021310,-1.193762,2.696655,-0.202593,-0.475926,-0.380541,-0.957797,-1.485669,-5.866466,-2.233877,1.704885,-6.361042,-5.678623,14.036655,-0.084543,0.033676,0.000000,-0.207457,0.521975,0.000000
2.590000,0.769013,1.019236,-1.198595,2.692556,-0.212283,-0.490697,-0.439524,-0.980420,-1.467918,-5.927923,-2.287743,1.848063,-5.919179,-5.089980,14.580852,-0.086649,0.038952,0.000000,-0.213523,0.529209,-0.000000
2.600000,0.795916,1.017065,-1.203576,2.687864,-0.222201,-0.505284,-0.499099,-1.003552,-1.448708,-5.984849,-2.335677,1.996502,-5.458404,-4.492362,15.088314,-0.088814,0.044301,0.000000,-0.219179,0.536256,-0.000000
2.610000,0.822770,1.014792,-1.208701,2.682574,-0.232354,-0.519671,-0.559221,-1.027133,-1.427988,-6.037091,-2.377590,2.149829,-4.976442,-3.867255,15.579007,-0.091033,0.049721,0.000000,-0.224421,0.543115,-0.000000
2.620000,0.849568,1.012418,-1.213969,2.676680,-0.242744,-0.533844,-0.619841,-1.051103,-1.405711,-6.084378,-2.413022,2.308083,-4.456417,-3.175195,16.097009,-0.093303,0.055209,0.000000,-0.229213,0.549772,0.000000
2.630000,0.876304,1.009938,-1.219378,2.670177,-0.253376,-0.547786,-0.680909,-1.075394,-1.381827,-6.126220,-2.441094,2.471769,-3.895756,-2.418186,16.635674,-0.095618,0.060765,0.000000,-0.233485,0.556200,-0.000000
2.640000,0.902971,1.007350,-1.224925,2.663062,-0.264252,-0.561480,-0.742366,-1.099925,-1.356276,-6.162293,-2.461386,2.640796,-3.316416,-1.649126,17.129414,-0.097973,0.066385,0.000000,-0.237205,0.562382,-0.000000
2.650000,0.929565,1.004653,-1.230607,2.655330,-0.275374,-0.574911,-0.804154,-1.124621,-1.329011,-6.192548,-2.474076,2.814357,-2.733474,-0.891843,17.554525,-0.100362,0.072068,0.000000,-0.240385,0.568322,-0.000000
2.660000,0.956078,1.001843,-1.236423,2.646979,-0.286744,-0.588061,-0.866217,-1.149407,-1.299989,-6.216963,-2.479223,2.991887,-2.130081,-0.109205,17.951442,-0.102781,0.077810,0.000000,-0.243028,0.574026,-0.000000
2.670000,0.982504,0.998918,-1.242369,2.638005,-0.298362,-0.600911,-0.928494,-1.174206,-1.269173,-6.235150,-2.476260,3.173386,-1.465331,0.758232,18.366016,-0.105223,0.083610,0.000000,-0.245085,0.579470,0.000000
2.680000,1.008838,0.995875,-1.248441,2.628409,-0.310228,-0.613444,-0.990920,-1.198932,-1.236521,-6.246269,-2.464058,3.359207,-0.740671,1.702381,18.781211,-0.107683,0.089465,0.000000,-0.246461,0.584593,0.000000
2.690000,1.035073,0.992713,-1.254637,2.618187,-0.322341,-0.625641,-1.053419,-1.223487,-1.201989,-6.249963,-2.442213,3.549010,-0.010892,2.642652,19.129781,-0.110152,0.095371,0.000000,-0.247118,0.589370,0.000000
2.700000,1.061202,0.989428,-1.260954,2.607340,-0.334698,-0.637484,-1.115919,-1.247776,-1.165541,-6.246487,-2.411205,3.741802,0.701132,3.548064,19.405095,-0.112625,0.101325,0.000000,-0.247089,0.593827,0.000000
2.710000,1.087219,0.986019,-1.267387,2.595869,-0.347297,-0.648952,-1.178349,-1.271711,-1.127153,-6.235940,-2.371252,3.937112,1.433802,4.473173,19.645841,-0.115094,0.107324,0.000000,-0.246384,0.597975,0.000000
2.720000,1.113119,0.982483,-1.273933,2.583773,-0.360132,-0.660027,-1.240638,-1.295201,-1.086799,-6.217811,-2.321742,4.134719,2.243257,5.491228,19.848308,-0.117553,0.113365,0.000000,-0.244946,0.601773,0.000000
2.730000,1.138895,0.978816,-1.280588,2.571056,-0.373201,-0.670688,-1.302705,-1.318146,-1.044458,-6.191075,-2.261427,4.334078,3.120225,6.587335,19.990749,-0.119994,0.119444,0.000000,-0.242652,0.605131,0.000000
2.740000,1.164540,0.975019,-1.287347,2.557719,-0.386495,-0.680916,-1.364459,-1.340430,-1.000117,-6.155407,-2.189995,4.534534,3.989155,7.661122,20.073626,-0.122407,0.125557,0.000000,-0.239460,0.608014,0.000000
2.750000,1.190049,0.971087,-1.294206,2.543767,-0.400009,-0.690691,-1.425813,-1.361946,-0.953768,-6.111292,-2.108205,4.735551,4.824902,8.678734,20.117109,-0.124783,0.131697,0.000000,-0.235424,0.610464,0.000000
2.760000,1.215416,0.967018,-1.301161,2.529203,-0.413734,-0.699991,-1.486685,-1.382594,-0.905406,-6.058909,-2.016420,4.936876,5.678325,9.706046,20.112042,-0.127115,0.137863,0.000000,-0.230562,0.612493,0.000000
2.770000,1.240633,0.962812,-1.308206,2.514033,-0.427661,-0.708799,-1.546991,-1.402274,-0.855030,-5.997726,-1.914084,5.137792,6.607425,10.818551,19.991666,-0.129395,0.144048,0.000000,-0.224805,0.614046,0.000000
2.780000,1.265696,0.958465,-1.315337,2.498263,-0.441780,-0.717092,-1.606639,-1.420876,-0.802650,-5.926760,-1.800049,5.336710,7.597259,11.995340,19.747137,-0.131612,0.150248,0.000000,-0.218017,0.615007,-0.000000
2.790000,1.290599,0.953976,-1.322548,2.481900,-0.456079,-0.724852,-1.665526,-1.438275,-0.748296,-5.845780,-1.674177,5.532735,8.568815,13.131349,19.462663,-0.133755,0.156457,0.000000,-0.210155,0.615333,-0.000000
2.800000,1.315334,0.949344,-1.329834,2.464953,-0.470545,-0.732058,-1.723555,-1.454359,-0.691996,-5.755384,-1.537422,5.725963,9.497849,14.195984,19.178571,-0.135815,0.162667,0.000000,-0.201287,0.615071,0.000000
2.810000,1.339898,0.944565,-1.337189,2.447429,-0.485166,-0.738692,-1.780634,-1.469024,-0.633777,-5.655823,-1.390257,5.916306,10.435714,15.255738,18.829718,-0.137781,0.168873,0.000000,-0.191433,0.614232,-0.000000
2.820000,1.364283,0.939640,-1.344607,2.429340,-0.499926,-0.744734,-1.836672,-1.482164,-0.573670,-5.546670,-1.232307,6.102557,11.435423,16.372778,18.306005,-0.139643,0.175070,0.000000,-0.180520,0.612744,0.000000
2.830000,1.388484,0.934567,-1.352084,2.410696,-0.514809,-0.750165,-1.891568,-1.493670,-0.511725,-5.427115,-1.062802,6.282426,12.480048,17.522536,17.617145,-0.141391,0.181250,0.000000,-0.168421,0.610476,-0.000000
2.840000,1.412497,0.929344,-1.359611,2.391509,-0.529799,-0.754968,-1.945214,-1.503420,-0.448021,-5.297069,-0.881857,6.454900,13.495487,18.616038,16.905013,-0.143011,0.187403,0.000000,-0.155100,0.607377,-0.000000
2.850000,1.436315,0.923971,-1.367183,2.371791,-0.544877,-0.759125,-1.997509,-1.511307,-0.382627,-5.157205,-0.690481,6.620526,14.460174,19.633446,16.221166,-0.144493,0.193523,0.000000,-0.140624,0.603491,-0.000000
2.860000,1.459933,0.918446,-1.374793,2.351558,-0.560025,-0.762621,-2.048358,-1.517230,-0.315610,-5.007865,-0.489188,6.779324,15.420355,20.627673,15.464101,-0.145823,0.199601,0.000000,-0.125004,0.598823,0.000000
2.870000,1.483346,0.912770,-1.382435,2.330824,-0.575222,-0.765438,-2.097666,-1.521091,-0.247041,-4.848798,-0.277927,6.929808,16.419292,21.629593,14.501996,-0.146992,0.205629,0.000000,-0.108181,0.593290,0.000000
2.880000,1.506549,0.906942,-1.390102,2.309605,-0.590447,-0.767561,-2.145334,-1.522788,-0.177014,-4.679479,-0.056596,7.069363,17.439357,22.614897,13.357937,-0.147986,0.211597,0.000000,-0.090066,0.586754,-0.000000
2.890000,1.529538,0.900961,-1.397787,2.287918,-0.605678,-0.768978,-2.191256,-1.522223,-0.105654,-4.500011,0.174371,7.196967,18.417794,23.535002,12.204809,-0.148793,0.217494,0.000000,-0.070642,0.579157,-0.000000
2.900000,1.552307,0.894828,-1.405482,2.265780,-0.620891,-0.769674,-2.235334,-1.519301,-0.033075,-4.311123,0.414104,7.313460,19.340759,24.388402,11.103697,-0.149398,0.223310,0.000000,-0.049957,0.570537,0.000000
2.910000,1.574854,0.888544,-1.413180,2.243211,-0.636064,-0.769639,-2.277478,-1.513940,0.040615,-4.113196,0.662139,7.419041,20.244932,25.198395,9.935469,-0.149791,0.229033,0.000000,-0.028010,0.560888,-0.000000
2.920000,1.597172,0.882107,-1.420874,2.220230,-0.651170,-0.768862,-2.317598,-1.506058,0.115306,-3.906225,0.918072,7.512169,21.150253,25.947641,8.549901,-0.149957,0.234654,0.000000,-0.004769,0.550124,-0.000000
2.930000,1.619258,0.875520,-1.428557,2.196859,-0.666185,-0.767333,-2.355603,-1.495579,0.190859,-3.690191,1.181091,7.590039,22.039009,26.617325,6.978106,-0.149885,0.240161,0.000000,0.019776,0.538121,-0.000000
2.940000,1.641109,0.868784,-1.436221,2.173118,-0.681082,-0.765045,-2.391402,-1.482436,0.267107,-3.465445,1.450419,7.651731,22.878776,27.222564,5.421826,-0.149560,0.245539,0.000000,0.045613,0.524823,0.000000
2.950000,1.662720,0.861899,-1.443858,2.149031,-0.695834,-0.761991,-2.424912,-1.466571,0.343893,-3.232615,1.725543,7.698476,23.670508,27.785674,3.948361,-0.148971,0.250775,0.000000,0.072726,0.510253,0.000000
2.960000,1.684090,0.854867,-1.451461,2.124620,-0.710413,-0.758167,-2.456054,-1.447926,0.421076,-2.992034,2.006132,7.730698,24.428671,28.285641,2.423003,-0.148104,0.255857,0.000000,0.101126,0.494389,0.000000
2.970000,1.705213,0.847690,-1.459022,2.099910,-0.724792,-0.753570,-2.484752,-1.426448,0.498507,-2.744042,2.291256,7.746936,25.134397,28.646588,0.689939,-0.146946,0.260772,0.000000,0.130791,0.477159,0.000000
2.980000,1.726088,0.840371,-1.466532,2.074925,-0.738942,-0.748197,-2.510935,-1.402101,0.576015,-2.489346,2.579064,7.744497,25.774095,28.861071,-1.209858,-0.145486,0.265504,0.000000,0.161621,0.458487,0.000000
2.990000,1.746711,0.832911,-1.473985,2.049691,-0.752834,-0.742049,-2.534539,-1.374867,0.653397,-2.228560,2.868477,7.722739,26.366851,29.022648,-3.063000,-0.143711,0.270038,0.000000,0.193555,0.438337,0.000000
3.000000,1.767082,0.825314,-1.481373,2.024234,-0.766440,-0.735129,-2.555506,-1.344731,0.730470,-1.962009,3.159517,7.683237,26.931741,29.178491,-4.809897,-0.141612,0.274360,0.000000,0.226610,0.416707,-0.000000
3.010000,1.787196,0.817583,-1.488688,1.998581,-0.779729,-0.727440,-2.573779,-1.311676,0.807062,-1.689925,3.452047,7.626541,27.447636,29.255002,-6.587923,-0.139177,0.278455,0.000000,0.260797,0.393562,0.000000
3.020000,1.807053,0.809720,-1.495922,1.972759,-0.792673,-0.718988,-2.589305,-1.275690,0.883000,-1.413057,3.744617,7.551479,27.852145,29.119295,-8.521135,-0.136394,0.282306,0.000000,0.296014,0.368868,0.000000
3.030000,1.826651,0.801729,-1.503068,1.946795,-0.805243,-0.709780,-2.602041,-1.236784,0.958092,-1.132882,4.034433,7.456118,28.141369,28.780206,-10.560292,-0.133254,0.285899,0.000000,0.332015,0.342646,0.000000
3.040000,1.845989,0.793615,-1.510118,1.920718,-0.817409,-0.699826,-2.611962,-1.195001,1.032123,-0.850229,4.320221,7.340273,28.392635,28.408811,-12.531346,-0.129751,0.289219,0.000000,0.368670,0.314901,0.000000
3.050000,1.865066,0.785381,-1.517064,1.894556,-0.829143,-0.689137,-2.619045,-1.150380,1.104897,-0.565029,4.602609,7.205491,28.642106,28.072190,-14.398597,-0.125878,0.292249,0.000000,0.406019,0.285605,0.000000
3.060000,1.883880,0.777032,-1.523900,1.868337,-0.840416,-0.677728,-2.623263,-1.102949,1.176233,-0.277387,4.881665,7.052301,28.829925,27.646916,-16.267259,-0.121628,0.294974,0.000000,0.444050,0.254725,-0.000000
3.070000,1.902432,0.768573,-1.530619,1.842090,-0.851202,-0.665613,-2.624593,-1.052746,1.245943,0.011569,5.155547,6.880146,28.855261,26.959274,-18.193804,-0.116994,0.297378,0.000000,0.482551,0.222303,-0.000000
3.080000,1.920722,0.760008,-1.537213,1.815845,-0.861471,-0.652809,-2.623032,-0.999838,1.313836,0.299718,5.420850,6.688425,28.726797,26.036422,-20.131258,-0.111974,0.299448,0.000000,0.521119,0.188497,-0.000000
3.090000,1.938749,0.751343,-1.543675,1.789630,-0.871198,-0.639336,-2.618599,-0.944329,1.379712,0.586105,5.676276,6.477521,28.574177,25.106529,-21.992875,-0.106569,0.301169,0.000000,0.559541,0.153385,-0.000000
3.100000,1.956515,0.742584,-1.549999,1.763473,-0.880358,-0.625215,-2.611309,-0.886313,1.443386,0.871202,5.922981,6.248567,28.445085,24.245836,-23.779161,-0.100781,0.302530,0.000000,0.597852,0.116926,-0.000000
3.110000,1.974019,0.733736,-1.556179,1.737404,-0.888925,-0.610468,-2.601175,-0.825870,1.504683,1.155007,6.161192,6.001937,28.246492,23.296891,-25.531955,-0.094610,0.303517,0.000000,0.635988,0.079114,0.000000
3.120000,1.991263,0.724806,-1.562209,1.711450,-0.896875,-0.595121,-2.588209,-0.763089,1.563425,1.436131,6.388919,5.737928,27.855765,22.074748,-27.213731,-0.088059,0.304117,0.000000,0.673619,0.040106,0.000000
3.130000,2.008248,0.715799,-1.568082,1.685639,-0.904187,-0.579200,-2.572452,-0.698091,1.619442,1.712122,6.602687,5.457663,27.294286,20.622850,-28.790667,-0.081136,0.304319,0.000000,0.710220,0.000221,0.000000
3.140000,2.024975,0.706722,-1.573793,1.660001,-0.910837,-0.562732,-2.553967,-0.631035,1.672578,1.982017,6.801376,5.162115,26.722709,19.187867,-30.299716,-0.073854,0.304118,0.000000,0.745503,-0.040371,0.000000
3.150000,2.041448,0.697582,-1.579336,1.634560,-0.916807,-0.545748,-2.532812,-0.562064,1.722684,2.246576,6.986445,4.851668,26.193827,17.840409,-31.784872,-0.066226,0.303507,0.000000,0.779475,-0.081698,0.000000
3.160000,2.057667,0.688386,-1.584708,1.609344,-0.922078,-0.528279,-2.509035,-0.491306,1.769611,2.505894,7.158184,4.526417,25.596896,16.416551,-33.202361,-0.058265,0.302478,0.000000,0.812004,-0.123712,0.000000
3.170000,2.073635,0.679140,-1.589902,1.584379,-0.926633,-0.510356,-2.482694,-0.418900,1.813212,2.758514,7.314776,4.187621,24.803398,14.757505,-34.408605,-0.049986,0.301027,0.000000,0.842691,-0.166135,0.000000
3.180000,2.089354,0.669853,-1.594915,1.559690,-0.930456,-0.492015,-2.453865,-0.345011,1.853364,3.001962,7.453334,3.838245,23.844286,12.916240,-35.394314,-0.041412,0.299150,0.000000,0.870991,-0.208491,-0.000000
3.190000,2.104828,0.660531,-1.599742,1.535302,-0.933534,-0.473289,-2.422654,-0.269833,1.889977,3.235400,7.573100,3.479735,22.891051,11.108627,-36.337753,-0.032568,0.296852,0.000000,0.896611,-0.250527,0.000000
3.200000,2.120060,0.651182,-1.604381,1.511237,-0.935853,-0.454215,-2.389157,-0.193549,1.922958,3.459783,7.675506,3.111490,21.991091,9.385623,-37.313495,-0.023482,0.294135,0.000000,0.919532,-0.292256,-0.000000
3.210000,2.135053,0.641814,-1.608827,1.487519,-0.937405,-0.434830,-2.353459,-0.116323,1.952207,3.675222,7.760813,2.733465,21.030602,7.610297,-38.184388,-0.014180,0.291004,0.000000,0.939594,-0.333569,-0.000000
3.220000,2.149811,0.632434,-1.613077,1.464168,-0.938179,-0.415171,-2.315653,-0.038332,1.977628,3.880395,7.827712,2.347803,19.904187,5.682362,-38.744433,-0.004693,0.287463,0.000000,0.956449,-0.374102,-0.000000
3.230000,2.164337,0.623051,-1.617130,1.441206,-0.938171,-0.395277,-2.275851,0.040231,1.999163,4.073305,7.874460,1.958576,18.650765,3.654411,-39.014342,0.004945,0.283522,0.000000,0.969708,-0.413336,0.000000
3.240000,2.178635,0.613671,-1.620983,1.418651,-0.937375,-0.375188,-2.234187,0.119157,2.016799,4.253410,7.900801,1.567516,17.413107,1.668527,-39.256538,0.014697,0.279196,0.000000,0.979195,-0.451002,-0.000000
3.250000,2.192710,0.604303,-1.624634,1.396522,-0.935788,-0.354941,-2.190783,0.198247,2.030513,4.421568,7.907831,1.173446,16.211876,-0.256442,-39.577366,0.024524,0.274501,0.000000,0.984914,-0.487098,0.000000
3.260000,2.206565,0.594955,-1.628082,1.374836,-0.933410,-0.334577,-2.145755,0.277313,2.040268,4.577647,7.895672,0.775968,14.957889,-2.202273,-39.786762,0.034390,0.269452,0.000000,0.986767,-0.521478,-0.000000
3.270000,2.220206,0.585635,-1.631325,1.353607,-0.930242,-0.314136,-2.099230,0.356160,2.046033,4.720725,7.863785,0.377710,13.622139,-4.182468,-39.603810,0.044254,0.264067,0.000000,0.984608,-0.553807,0.000000
3.280000,2.233637,0.576350,-1.634364,1.332851,-0.926287,-0.293657,-2.051341,0.434589,2.047822,4.850090,7.812022,-0.016108,12.238363,-6.154317,-39.072346,0.054077,0.258367,0.000000,0.978400,-0.583704,-0.000000
3.290000,2.246863,0.567109,-1.637198,1.312580,-0.921550,-0.273179,-2.002228,0.512401,2.045711,4.965493,7.740699,-0.403736,10.849700,-8.088557,-38.560760,0.063817,0.252378,0.000000,0.968192,-0.610979,0.000000
3.300000,2.259889,0.557919,-1.639828,1.292806,-0.916039,-0.252742,-1.952031,0.589403,2.039748,5.067084,7.650251,-0.787323,9.478038,-10.006478,-38.166293,0.073436,0.246125,0.000000,0.954047,-0.635627,0.000000
3.310000,2.272719,0.548788,-1.642253,1.273540,-0.909762,-0.232384,-1.900886,0.665406,2.029964,5.155053,7.540569,-1.167062,8.102263,-11.910333,-37.636212,0.082893,0.239634,0.000000,0.935996,-0.657594,-0.000000
3.320000,2.285360,0.539724,-1.644476,1.254789,-0.902731,-0.212143,-1.848930,0.740214,2.016406,5.229130,7.412045,-1.540047,6.674334,-13.713080,-36.746935,0.092151,0.232931,0.000000,0.914190,-0.676700,0.000000
3.330000,2.297815,0.530734,-1.646496,1.236561,-0.894958,-0.192056,-1.796304,0.813647,1.999163,5.288540,7.266308,-1.902001,5.211083,-15.393510,-35.573095,0.101172,0.226045,0.000000,0.888992,-0.692694,-0.000000
3.340000,2.310091,0.521825,-1.648317,1.218863,-0.886458,-0.172160,-1.743159,0.885541,1.978366,5.333351,7.104174,-2.251509,3.787961,-17.054744,-34.407417,0.109926,0.219009,0.000000,0.860667,-0.705540,0.000000
3.350000,2.322192,0.513005,-1.649939,1.201698,-0.877247,-0.152489,-1.689637,0.955730,1.954133,5.364299,6.925213,-2.590149,2.384437,-18.747370,-33.330652,0.118382,0.211852,0.000000,0.829308,-0.715385,0.000000
3.360000,2.334125,0.504280,-1.651366,1.185070,-0.867343,-0.133077,-1.635873,1.024045,1.926563,5.381040,6.729227,-2.918122,0.961663,-20.384735,-32.149439,0.126510,0.204604,0.000000,0.795059,-0.722219,-0.000000
3.370000,2.345894,0.495658,-1.652601,1.168980,-0.856766,-0.113958,-1.582016,1.090315,1.895770,5.383532,6.517518,-3.233138,-0.386963,-21.816976,-30.675788,0.134281,0.197295,0.000000,0.758299,-0.726027,0.000000
3.380000,2.357505,0.487145,-1.653646,1.153430,-0.845537,-0.095162,-1.528202,1.154395,1.861901,5.373301,6.292888,-3.531638,-1.634390,-23.050716,-28.973252,0.141674,0.189955,0.000000,0.719629,-0.726978,0.000000
3.390000,2.368962,0.478747,-1.654504,1.138416,-0.833678,-0.076720,-1.474550,1.216173,1.825138,5.350845,6.056504,-3.812603,-2.901304,-24.271878,-27.297908,0.148672,0.182611,0.000000,0.679412,-0.725203,0.000000
3.400000,2.380273,0.470471,-1.655180,1.123939,-0.821213,-0.058659,-1.421185,1.275525,1.785649,5.315275,5.807450,-4.077596,-4.217463,-25.557788,-25.704526,0.155261,0.175291,0.000000,0.637701,-0.720733,0.000000
3.410000,2.391441,0.462323,-1.655677,1.109993,-0.808168,-0.041007,-1.368244,1.332322,1.743586,5.266495,5.545348,-4.326694,-5.490605,-26.768541,-24.031514,0.161426,0.168023,0.000000,0.594638,-0.713670,-0.000000
3.420000,2.402473,0.454308,-1.656000,1.096574,-0.794567,-0.023787,-1.315856,1.386432,1.699115,5.205463,5.272079,-4.558226,-6.650144,-27.690662,-22.177378,0.167154,0.160832,0.000000,0.550660,-0.704210,-0.000000
3.430000,2.413373,0.446431,-1.656153,1.083676,-0.780439,-0.007024,-1.264135,1.437763,1.652421,5.133493,4.991535,-4.770241,-7.717164,-28.350246,-20.206596,0.172440,0.153742,0.000000,0.506436,-0.692599,0.000000
3.440000,2.424146,0.438699,-1.656141,1.071291,-0.765812,0.009261,-1.213186,1.486263,1.603710,5.051119,4.705074,-4.962358,-8.771621,-29.022095,-18.263620,0.177284,0.146773,0.000000,0.462276,-0.679026,-0.000000
3.450000,2.434798,0.431115,-1.655968,1.059412,-0.750714,0.025050,-1.163113,1.531865,1.553174,4.958060,4.411093,-5.135514,-9.836011,-29.793166,-16.357423,0.181687,0.139946,0.000000,0.418098,-0.663601,0.000000
3.460000,2.445334,0.423685,-1.655640,1.048029,-0.735174,0.040325,-1.114024,1.574485,1.501000,4.854399,4.109211,-5.289507,-10.849202,-30.469063,-14.408259,0.185648,0.133280,0.000000,0.373975,-0.646459,0.000000
3.470000,2.455759,0.416412,-1.655161,1.037131,-0.719224,0.055070,-1.066025,1.614049,1.447384,4.741076,3.801712,-5.423679,-11.737905,-30.832309,-12.433497,0.189169,0.126791,0.000000,0.330280,-0.627822,0.000000
3.480000,2.466077,0.409300,-1.654538,1.026708,-0.702893,0.069272,-1.019203,1.650519,1.392526,4.619641,3.492565,-5.538177,-12.508799,-30.936750,-10.479250,0.192256,0.120495,0.000000,0.287539,-0.607987,-0.000000
3.490000,2.476293,0.402354,-1.653776,1.016747,-0.686214,0.082920,-0.973632,1.683900,1.336620,4.490900,3.182977,-5.633264,-13.252256,-31.064195,-8.535182,0.194922,0.114403,0.000000,0.245925,-0.587156,0.000000
3.500000,2.486412,0.395576,-1.652880,1.007236,-0.669215,0.096005,-0.929385,1.714179,1.279861,4.354596,2.871281,-5.708880,-14.028982,-31.269848,-6.568548,0.197178,0.108525,0.000000,0.205281,-0.565397,0.000000
3.510000,2.496438,0.388969,-1.651856,0.998160,-0.651930,0.108518,-0.886540,1.741326,1.222443,4.210320,2.557580,-5.764635,-14.769629,-31.363585,-4.606577,0.199031,0.102871,0.000000,0.165642,-0.542750,0.000000
3.520000,2.506375,0.382537,-1.650709,0.989505,-0.634389,0.120453,-0.845179,1.765330,1.164568,4.059203,2.244009,-5.801012,-15.301826,-31.225607,-2.765022,0.200493,0.097450,0.000000,0.127243,-0.519433,0.000000
3.530000,2.516228,0.376282,-1.649447,0.981256,-0.616623,0.131809,-0.805356,1.786206,1.106423,3.904284,1.933068,-5.819935,-15.638308,-30.918381,-1.061618,0.201578,0.092269,0.000000,0.090307,-0.495877,0.000000
3.540000,2.526000,0.370205,-1.648073,0.973398,-0.598665,0.142582,-0.767093,1.803991,1.048169,3.746437,1.625642,-5.822244,-16.007891,-30.595526,0.642783,0.202302,0.087327,0.000000,0.054883,-0.472237,0.000000
3.550000,2.535696,0.364308,-1.646595,0.965914,-0.580544,0.152772,-0.730427,1.818719,0.989978,3.584126,1.321157,-5.807080,-16.451454,-30.283233,2.433727,0.202678,0.082626,0.000000,0.020887,-0.448378,-0.000000
3.560000,2.545319,0.358594,-1.645018,0.958789,-0.562290,0.162382,-0.695410,1.830415,0.932028,3.417408,1.019977,-5.773570,-16.812355,-29.883749,4.196720,0.202722,0.078170,0.000000,-0.011666,-0.424342,0.000000
3.570000,2.554872,0.353063,-1.643347,0.952006,-0.543935,0.171413,-0.662079,1.839118,0.874506,3.247879,0.723482,-5.723145,-17.013264,-29.340956,5.682915,0.202447,0.073960,0.000000,-0.042707,-0.400348,-0.000000
3.580000,2.564359,0.347715,-1.641590,0.945548,-0.525508,0.179872,-0.630453,1.844884,0.817565,3.077143,0.433158,-5.659911,-17.101604,-28.690343,6.906118,0.201870,0.069995,0.000000,-0.072221,-0.376624,-0.000000
3.590000,2.573783,0.342552,-1.639750,0.939397,-0.507038,0.187764,-0.600536,1.847781,0.761308,2.905847,0.149675,-5.585023,-17.172688,-28.009887,8.185655,0.201004,0.066270,0.000000,-0.100221,-0.353251,-0.000000
3.600000,2.583147,0.337574,-1.637834,0.933537,-0.488552,0.195098,-0.572336,1.847878,0.705864,2.733689,-0.127040,-5.496198,-17.269043,-27.318425,9.601352,0.199867,0.062783,0.000000,-0.126729,-0.330183,0.000000
3.610000,2.592453,0.332781,-1.635848,0.927950,-0.470080,0.201881,-0.545862,1.845241,0.651384,2.560466,-0.396693,-5.392996,-17.327223,-26.570853,10.924832,0.198471,0.059531,0.000000,-0.151767,-0.307396,-0.000000
3.620000,2.601706,0.328173,-1.633797,0.922620,-0.451648,0.208125,-0.521127,1.839944,0.598005,2.387144,-0.658457,-5.277702,-17.229169,-25.732618,11.963708,0.196833,0.056510,0.000000,-0.175360,-0.285003,-0.000000
3.630000,2.610906,0.323748,-1.631686,0.917528,-0.433281,0.213842,-0.498120,1.832071,0.545830,2.215883,-0.911346,-5.153722,-16.996655,-24.826220,12.779458,0.194965,0.053717,0.000000,-0.197535,-0.263241,0.000000
3.640000,2.620056,0.319507,-1.629520,0.912657,-0.415006,0.219042,-0.476809,1.821717,0.494930,2.047211,-1.154981,-5.022112,-16.791606,-23.905873,13.610825,0.192883,0.051142,0.000000,-0.218333,-0.242149,0.000000
3.650000,2.629159,0.315448,-1.627305,0.907991,-0.396847,0.223740,-0.457175,1.808972,0.445388,1.880051,-1.389463,-4.881505,-16.620395,-22.966400,14.518952,0.190599,0.048781,0.000000,-0.237794,-0.221585,0.000000
3.660000,2.638216,0.311570,-1.625045,0.903514,-0.378827,0.227950,-0.439208,1.793928,0.397300,1.714803,-1.614309,-4.731733,-16.379783,-21.981244,15.337775,0.188127,0.046627,0.000000,-0.255921,-0.201569,0.000000
3.670000,2.647229,0.307872,-1.622746,0.899207,-0.360968,0.231686,-0.422879,1.776686,0.350753,1.552455,-1.829088,-4.574750,-16.089945,-20.989590,15.906386,0.185481,0.044676,0.000000,-0.272761,-0.182191,-0.000000
3.680000,2.656200,0.304351,-1.620411,0.895056,-0.343293,0.234965,-0.408159,1.757346,0.305805,1.393005,-2.034101,-4.413606,-15.795378,-20.013535,16.270730,0.182672,0.042919,0.000000,-0.288449,-0.163439,-0.000000
3.690000,2.665130,0.301006,-1.618046,0.891044,-0.325821,0.237802,-0.395019,1.736004,0.262481,1.236547,-2.229359,-4.249335,-15.465866,-19.007097,16.638206,0.179712,0.041350,0.000000,-0.303047,-0.145298,0.000000
3.700000,2.674021,0.297835,-1.615655,0.887156,-0.308573,0.240215,-0.383428,1.712759,0.220818,1.083687,-2.414243,-4.080842,-15.073325,-17.934616,17.062187,0.176612,0.039964,0.000000,-0.316510,-0.127801,-0.000000
3.710000,2.682873,0.294834,-1.613242,0.883376,-0.291566,0.242219,-0.373345,1.687719,0.180864,0.935081,-2.588051,-3.908091,-14.647030,-16.838533,17.402403,0.173382,0.038753,0.000000,-0.328803,-0.110987,-0.000000
3.720000,2.691689,0.292003,-1.610811,0.879689,-0.274819,0.243832,-0.364726,1.660998,0.142656,0.790747,-2.751014,-3.732794,-14.258821,-15.824980,17.531617,0.170035,0.037710,0.000000,-0.340014,-0.094839,-0.000000
3.730000,2.700467,0.289338,-1.608365,0.876081,-0.258346,0.245072,-0.357530,1.632698,0.106208,0.649904,-2.904551,-3.557459,-13.906639,-14.892049,17.494888,0.166581,0.036828,0.000000,-0.350356,-0.079260,-0.000000
3.740000,2.709210,0.286836,-1.605909,0.872538,-0.242165,0.245956,-0.351728,1.602907,0.071507,0.512614,-3.048855,-3.382896,-13.500478,-13.906099,17.460184,0.163028,0.036102,0.000000,-0.359883,-0.064236,0.000000
3.750000,2.717918,0.284495,-1.603446,0.869046,-0.226288,0.246502,-0.347278,1.571721,0.038550,0.379895,-3.182673,-3.208255,-13.022867,-12.834428,17.453475,0.159383,0.035525,0.000000,-0.368474,-0.049843,-0.000000
3.760000,2.726591,0.282310,-1.600979,0.865593,-0.210730,0.246727,-0.344130,1.539253,0.007342,0.252157,-3.305543,-3.033826,-12.539680,-11.775113,17.366682,0.155658,0.035091,0.000000,-0.376105,-0.036101,-0.000000
3.770000,2.735230,0.280280,-1.598512,0.862164,-0.195503,0.246649,-0.342235,1.505611,-0.022126,0.129101,-3.418175,-2.860922,-12.094103,-10.810849,17.154035,0.151861,0.034794,0.000000,-0.382883,-0.022963,0.000000
3.780000,2.743834,0.278400,-1.596046,0.858748,-0.180618,0.246284,-0.341548,1.470890,-0.049876,0.010274,-3.521760,-2.690746,-11.669550,-9.916243,16.856442,0.148000,0.034626,0.000000,-0.388954,-0.010368,-0.000000
3.790000,2.752405,0.276668,-1.593586,0.855333,-0.166085,0.245651,-0.342030,1.435175,-0.075941,-0.104290,-3.616500,-2.523793,-11.216613,-8.992036,16.535805,0.144081,0.034584,0.000000,-0.394351,0.001697,0.000000
3.800000,2.760941,0.275079,-1.591133,0.851907,-0.151914,0.244766,-0.343634,1.398560,-0.100352,-0.214058,-3.701601,-2.360029,-10.719408,-8.019381,16.196906,0.140112,0.034660,0.000000,-0.398999,0.013196,-0.000000
3.810000,2.769443,0.273630,-1.588691,0.848460,-0.138114,0.243644,-0.346311,1.361143,-0.123142,-0.318678,-3.776887,-2.199855,-10.214734,-7.069299,15.806163,0.136101,0.034850,0.000000,-0.402889,0.024106,-0.000000
3.820000,2.777910,0.272316,-1.586261,0.844981,-0.124692,0.242303,-0.350008,1.323022,-0.144349,-0.418352,-3.842987,-2.043906,-9.752499,-6.195177,15.363604,0.132054,0.035147,0.000000,-0.406093,0.034462,0.000000
3.830000,2.786343,0.271136,-1.583845,0.841460,-0.111654,0.240757,-0.354678,1.284284,-0.164020,-0.513728,-3.900791,-1.892583,-9.324005,-5.378090,14.888820,0.127978,0.035545,0.000000,-0.408702,0.044337,0.000000
3.840000,2.794739,0.270083,-1.581445,0.837888,-0.099006,0.239022,-0.360282,1.245006,-0.182201,-0.604833,-3.950549,-1.746130,-8.866660,-4.554185,14.388183,0.123879,0.036041,0.000000,-0.410741,0.053744,-0.000000
3.850000,2.803100,0.269156,-1.579064,0.834254,-0.086753,0.237113,-0.366774,1.205273,-0.198942,-0.691061,-3.991875,-1.604819,-8.373514,-3.709131,13.848686,0.119763,0.036628,0.000000,-0.412168,0.062632,-0.000000
3.860000,2.811425,0.268348,-1.576703,0.830552,-0.074900,0.235044,-0.374103,1.165169,-0.214297,-0.772303,-4.024731,-1.469156,-7.888528,-2.888415,13.275163,0.115635,0.037302,0.000000,-0.412980,0.070997,-0.000000
3.870000,2.819711,0.267658,-1.574363,0.826772,-0.063450,0.232827,-0.382220,1.124778,-0.228325,-0.848832,-4.049643,-1.339316,-7.426179,-2.133202,12.717688,0.111503,0.038058,0.000000,-0.413223,0.078871,0.000000
3.880000,2.827960,0.267079,-1.572047,0.822908,-0.052405,0.230477,-0.391080,1.084176,-0.241084,-0.920826,-4.067396,-1.214802,-6.973426,-1.431230,12.185236,0.107370,0.038890,0.000000,-0.412960,0.086281,0.000000
3.890000,2.836170,0.266609,-1.569754,0.818951,-0.041767,0.228006,-0.400637,1.043430,-0.252621,-0.988300,-4.078267,-1.095611,-6.515745,-0.731549,11.617961,0.103243,0.039793,0.000000,-0.412211,0.093232,-0.000000
3.900000,2.844339,0.266244,-1.567487,0.814895,-0.031536,0.225425,-0.410846,1.002611,-0.262996,-1.051141,-4.082026,-0.982443,-6.048237,-0.024881,10.989686,0.099126,0.040764,0.000000,-0.410950,0.099716,0.000000
3.910000,2.852467,0.265979,-1.565245,0.810734,-0.021714,0.222746,-0.421660,0.961790,-0.272270,-1.109265,-4.078765,-0.875817,-5.581775,0.653321,10.349449,0.095024,0.041798,0.000000,-0.409181,0.105724,0.000000
3.920000,2.860554,0.265810,-1.563032,0.806462,-0.012300,0.219979,-0.433031,0.921035,-0.280512,-1.162777,-4.068960,-0.775454,-5.135643,1.279553,9.773856,0.090942,0.042888,0.000000,-0.406937,0.111269,0.000000
3.930000,2.868597,0.265733,-1.560846,0.802073,-0.003294,0.217135,-0.444915,0.880410,-0.287779,-1.211978,-4.053174,-0.680340,-4.707484,1.864440,9.255279,0.086885,0.044032,0.000000,-0.404253,0.116388,-0.000000
3.940000,2.876595,0.265744,-1.558689,0.797563,0.005308,0.214224,-0.457271,0.839972,-0.294119,-1.256927,-4.031671,-0.590349,-4.272590,2.436664,8.699631,0.082856,0.045225,0.000000,-0.401147,0.121088,0.000000
3.950000,2.884548,0.265839,-1.556561,0.792928,0.013506,0.211253,-0.470054,0.799777,-0.299586,-1.297430,-4.004441,-0.506347,-3.828789,3.000929,8.086408,0.078861,0.046462,0.000000,-0.397613,0.125345,-0.000000
3.960000,2.892454,0.266014,-1.554464,0.788162,0.021303,0.208232,-0.483219,0.759883,-0.304246,-1.333502,-3.971653,-0.428620,-3.393376,3.537774,7.484953,0.074904,0.047740,0.000000,-0.393659,0.129160,0.000000
3.970000,2.900311,0.266265,-1.552397,0.783263,0.028703,0.205168,-0.496724,0.720344,-0.308159,-1.365297,-3.933685,-0.356648,-2.969609,4.034828,6.950099,0.070988,0.049053,0.000000,-0.389309,0.132550,-0.000000
3.980000,2.908119,0.266588,-1.550360,0.778228,0.035710,0.202069,-0.510525,0.681209,-0.311379,-1.392894,-3.890956,-0.289618,-2.551489,4.498203,6.465000,0.067118,0.050398,0.000000,-0.384588,0.135524,0.000000
3.990000,2.915876,0.266979,-1.548355,0.773053,0.042328,0.198941,-0.524582,0.642525,-0.313951,-1.416327,-3.843721,-0.227348,-2.136812,4.943371,5.965120,0.063296,0.051770,0.000000,-0.379511,0.138086,0.000000
4.000000,2.923580,0.267435,-1.546382,0.767736,0.048561,0.195790,-0.538852,0.604335,-0.315926,-1.435631,-3.792089,-0.170316,-1.729070,5.373077,5.432372,0.059527,0.053165,0.000000,-0.374083,0.140236,-0.000000
4.010000,2.931230,0.267950,-1.544440,0.762276,0.054414,0.192622,-0.553294,0.566683,-0.317357,-1.450908,-3.736260,-0.118701,-1.329679,5.777165,4.914226,0.055814,0.054579,0.000000,-0.368317,0.141980,-0.000000
4.020000,2.938826,0.268523,-1.542529,0.756670,0.059894,0.189443,-0.567870,0.529610,-0.318300,-1.462224,-3.676545,-0.072031,-0.931334,6.149023,4.464802,0.052161,0.056009,0.000000,-0.362232,0.143325,0.000000
4.030000,2.946364,0.269148,-1.540651,0.750918,0.065007,0.186256,-0.582539,0.493152,-0.318798,-1.469535,-3.613279,-0.029405,-0.533533,6.492079,4.073672,0.048570,0.057450,0.000000,-0.355849,0.144270,-0.000000
4.040000,2.953844,0.269823,-1.538804,0.745020,0.069757,0.183067,-0.597261,0.457344,-0.318888,-1.472895,-3.546704,0.009442,-0.147053,6.815092,3.673320,0.045044,0.058898,0.000000,-0.349184,0.144819,-0.000000
4.050000,2.961264,0.270543,-1.536989,0.738973,0.074153,0.179878,-0.611997,0.422218,-0.318609,-1.472476,-3.476977,0.044061,0.226320,7.119876,3.244419,0.041586,0.060349,0.000000,-0.342249,0.144986,-0.000000
4.060000,2.968623,0.271306,-1.535207,0.732780,0.078202,0.176694,-0.626710,0.387804,-0.318007,-1.468369,-3.404306,0.074330,0.593491,7.401002,2.835239,0.038199,0.061800,0.000000,-0.335059,0.144775,0.000000
4.070000,2.975920,0.272107,-1.533455,0.726439,0.081910,0.173518,-0.641364,0.354132,-0.317123,-1.460606,-3.328957,0.100766,0.955848,7.654781,2.496754,0.034885,0.063247,0.000000,-0.327632,0.144191,-0.000000
4.080000,2.983152,0.272944,-1.531736,0.719952,0.085284,0.170352,-0.655922,0.321225,-0.315991,-1.449252,-3.251211,0.124265,1.310580,7.883059,2.216226,0.031646,0.064686,0.000000,-0.319989,0.143244,0.000000
4.090000,2.990319,0.273813,-1.530048,0.713321,0.088334,0.167198,-0.670349,0.289108,-0.314637,-1.434395,-3.171296,0.145091,1.655789,8.091268,1.928822,0.028485,0.066113,0.000000,-0.312148,0.141942,0.000000
4.100000,2.997419,0.274711,-1.528392,0.706545,0.091067,0.164059,-0.684610,0.257799,-0.313090,-1.416136,-3.089385,0.162842,1.991263,8.282479,1.620765,0.025403,0.067526,0.000000,-0.304123,0.140292,0.000000
4.110000,3.004450,0.275634,-1.526767,0.699628,0.093490,0.160936,-0.698672,0.227320,-0.311381,-1.394569,-3.005647,0.177506,2.317517,8.453490,1.336691,0.022402,0.068920,0.000000,-0.295928,0.138301,0.000000
4.120000,3.011411,0.276581,-1.525173,0.692572,0.095613,0.157832,-0.712502,0.197686,-0.309539,-1.369785,-2.920315,0.189576,2.634305,8.597178,1.109450,0.019484,0.070293,0.000000,-0.287582,0.135979,-0.000000
4.130000,3.018301,0.277547,-1.523611,0.685378,0.097444,0.154746,-0.726068,0.168914,-0.307589,-1.341883,-2.833703,0.199695,2.940955,8.714718,0.925294,0.016651,0.071640,0.000000,-0.279112,0.133340,-0.000000
4.140000,3.025119,0.278530,-1.522079,0.678051,0.098991,0.151680,-0.739339,0.141012,-0.305546,-1.310966,-2.746021,0.208082,3.237265,8.816646,0.742559,0.013902,0.072960,0.000000,-0.270537,0.130393,0.000000
4.150000,3.031862,0.279527,-1.520577,0.670592,0.100264,0.148635,-0.752287,0.113993,-0.303427,-1.277138,-2.657370,0.214546,3.523102,8.905820,0.553813,0.011240,0.074248,0.000000,-0.261867,0.127148,-0.000000
4.160000,3.038531,0.280535,-1.519106,0.663005,0.101271,0.145611,-0.764882,0.087865,-0.301255,-1.240504,-2.567905,0.219158,3.797911,8.975798,0.386622,0.008665,0.075503,0.000000,-0.253116,0.123613,0.000000
4.170000,3.045122,0.281552,-1.517665,0.655294,0.102021,0.142610,-0.777097,0.062635,-0.299044,-1.201180,-2.477854,0.222279,4.061000,9.021898,0.258024,0.006178,0.076721,0.000000,-0.244303,0.119802,-0.000000
4.180000,3.051636,0.282575,-1.516254,0.647463,0.102524,0.139630,-0.788906,0.038308,-0.296809,-1.159284,-2.387467,0.224318,4.311785,9.046786,0.158748,0.003779,0.077899,0.000000,-0.235454,0.115730,0.000000
4.190000,3.058072,0.283602,-1.514872,0.639516,0.102787,0.136674,-0.800283,0.014886,-0.294558,-1.114944,-2.296918,0.225454,4.550427,9.057544,0.066457,0.001469,0.079035,0.000000,-0.226585,0.111409,0.000000
4.200000,3.064427,0.284631,-1.513520,0.631457,0.102821,0.133739,-0.811205,-0.007630,-0.292300,-1.068276,-2.206316,0.225647,4.778909,9.055696,-0.023319,-0.000753,0.080127,0.000000,-0.217707,0.106850,-0.000000
4.210000,3.070701,0.285659,-1.512197,0.623292,0.102635,0.130828,-0.821648,-0.029241,-0.290045,-1.019366,-2.115804,0.224987,4.996365,9.037414,-0.096688,-0.002886,0.081172,0.000000,-0.208833,0.102063,0.000000
4.220000,3.076893,0.286684,-1.510904,0.615024,0.102237,0.127938,-0.831592,-0.049947,-0.287800,-0.968348,-2.025568,0.223714,5.195831,9.000955,-0.144395,-0.004930,0.082168,0.000000,-0.199983,0.097062,-0.000000
4.230000,3.083001,0.287704,-1.509639,0.606660,0.101636,0.125072,-0.841015,-0.069752,-0.285571,-0.915449,-1.935785,0.222099,5.376568,8.948194,-0.171935,-0.006885,0.083113,0.000000,-0.191174,0.091871,-0.000000
4.240000,3.089026,0.288716,-1.508402,0.598204,0.100842,0.122227,-0.849901,-0.088662,-0.283358,-0.860817,-1.846604,0.220275,5.547486,8.882575,-0.192636,-0.008753,0.084006,0.000000,-0.182420,0.086506,-0.000000
4.250000,3.094965,0.289720,-1.507194,0.589662,0.099863,0.119404,-0.858232,-0.106684,-0.281165,-0.804499,-1.758134,0.218247,5.711966,8.806034,-0.208233,-0.010534,0.084844,0.000000,-0.173734,0.080972,-0.000000
4.260000,3.100819,0.290714,-1.506014,0.581039,0.098708,0.116604,-0.865991,-0.123825,-0.278993,-0.746578,-1.670483,0.216110,5.863305,8.717218,-0.211305,-0.012228,0.085625,0.000000,-0.165126,0.075278,-0.000000
4.270000,3.106586,0.291695,-1.504862,0.572342,0.097386,0.113824,-0.873163,-0.140094,-0.276843,-0.687233,-1.583790,0.214021,5.992712,8.612933,-0.201035,-0.013836,0.086349,0.000000,-0.156611,0.069441,-0.000000
4.280000,3.112266,0.292661,-1.503738,0.563576,0.095906,0.111067,-0.879735,-0.155501,-0.274713,-0.626724,-1.498224,0.212090,6.101515,8.494436,-0.181558,-0.015360,0.087014,0.000000,-0.148205,0.063490,0.000000
4.290000,3.117858,0.293613,-1.502641,0.554747,0.094276,0.108330,-0.885698,-0.170058,-0.272601,-0.565203,-1.413901,0.210389,6.200886,8.367449,-0.155327,-0.016800,0.087619,0.000000,-0.139920,0.057439,0.000000
4.300000,3.123361,0.294547,-1.501571,0.545862,0.092505,0.105615,-0.891040,-0.183779,-0.270505,-0.502706,-1.330875,0.208983,6.294657,8.232489,-0.120327,-0.018158,0.088163,0.000000,-0.131763,0.051292,0.000000
4.310000,3.128775,0.295463,-1.500528,0.536927,0.090601,0.102920,-0.895752,-0.196676,-0.268421,-0.439310,-1.249251,0.207983,6.374858,8.086852,-0.076777,-0.019435,0.088645,0.000000,-0.123743,0.045059,0.000000
4.320000,3.134099,0.296359,-1.499513,0.527947,0.088571,0.100246,-0.899826,-0.208764,-0.266345,-0.375209,-1.169138,0.207448,6.431538,7.932490,-0.033326,-0.020633,0.089065,0.000000,-0.115872,0.038758,0.000000
4.330000,3.139334,0.297234,-1.498523,0.518930,0.086425,0.097593,-0.903256,-0.220058,-0.264273,-0.310679,-1.090601,0.207316,6.466710,7.771435,0.008054,-0.021753,0.089421,0.000000,-0.108157,0.032416,0.000000
4.340000,3.144478,0.298087,-1.497561,0.509882,0.084170,0.094961,-0.906039,-0.230576,-0.262199,-0.245874,-1.013710,0.207609,6.493332,7.602241,0.057353,-0.022796,0.089713,0.000000,-0.100604,0.026048,0.000000
4.350000,3.149531,0.298918,-1.496624,0.500809,0.081814,0.092349,-0.908173,-0.240333,-0.260120,-0.180812,-0.938556,0.208463,6.514763,7.424268,0.118716,-0.023765,0.089942,0.000000,-0.093223,0.019657,0.000000
4.360000,3.154494,0.299724,-1.495714,0.491718,0.079364,0.089758,-0.909656,-0.249347,-0.258030,-0.115579,-0.865224,0.209983,6.522159,7.239728,0.183616,-0.024661,0.090106,0.000000,-0.086022,0.013252,-0.000000
4.370000,3.159366,0.300505,-1.494829,0.482616,0.076827,0.087189,-0.910485,-0.257637,-0.255921,-0.050369,-0.793762,0.212136,6.507681,7.052104,0.239336,-0.025485,0.090207,0.000000,-0.079006,0.006852,-0.000000
4.380000,3.164146,0.301260,-1.493970,0.473509,0.074211,0.084640,-0.910663,-0.265222,-0.253787,0.014574,-0.724182,0.214770,6.473999,6.861774,0.286968,-0.026241,0.090243,0.000000,-0.072176,0.000479,0.000000
4.390000,3.168836,0.301989,-1.493136,0.464403,0.071522,0.082113,-0.910193,-0.272121,-0.251625,0.079111,-0.656526,0.217875,6.431401,6.665572,0.341625,-0.026929,0.090216,0.000000,-0.065535,-0.005854,-0.000000
4.400000,3.173435,0.302691,-1.492328,0.455305,0.068768,0.079608,-0.909081,-0.278353,-0.249430,0.143202,-0.590871,0.221602,6.382433,6.462498,0.406860,-0.027552,0.090126,0.000000,-0.059092,-0.012141,0.000000
4.410000,3.177942,0.303365,-1.491544,0.446221,0.065955,0.077124,-0.907329,-0.283938,-0.247193,0.206759,-0.527276,0.226012,6.320356,6.255834,0.471139,-0.028111,0.089973,0.000000,-0.052852,-0.018374,-0.000000
4.420000,3.182359,0.304010,-1.490785,0.437158,0.063090,0.074664,-0.904946,-0.288898,-0.244909,0.269610,-0.465754,0.231025,6.239436,6.050273,0.524020,-0.028609,0.089759,0.000000,-0.046817,-0.024537,-0.000000
4.430000,3.186685,0.304626,-1.490051,0.428122,0.060177,0.072226,-0.901937,-0.293253,-0.242573,0.331548,-0.406271,0.236493,6.141889,5.845933,0.567831,-0.029047,0.089482,0.000000,-0.040982,-0.030611,0.000000
4.440000,3.190921,0.305213,-1.489341,0.419120,0.057225,0.069812,-0.898315,-0.297024,-0.240180,0.392447,-0.348835,0.242382,6.035558,5.637920,0.614726,-0.029428,0.089146,0.000000,-0.035347,-0.036585,0.000000
4.450000,3.195068,0.305771,-1.488655,0.410156,0.054237,0.067423,-0.894088,-0.300230,-0.237725,0.452259,-0.293513,0.248787,5.922500,5.424107,0.668867,-0.029754,0.088750,0.000000,-0.029920,-0.042453,-0.000000
4.460000,3.199125,0.306298,-1.487992,0.401238,0.051220,0.065058,-0.889269,-0.302894,-0.235204,0.510897,-0.240353,0.255759,5.797794,5.208901,0.720977,-0.030027,0.088297,0.000000,-0.024705,-0.048206,0.000000
4.470000,3.203092,0.306795,-1.487353,0.392371,0.048179,0.062718,-0.883870,-0.305037,-0.232610,0.568215,-0.189334,0.263207,5.657284,4.999794,0.758382,-0.030248,0.087786,0.000000,-0.019699,-0.053832,-0.000000
4.480000,3.206972,0.307262,-1.486738,0.383560,0.045119,0.060406,-0.877905,-0.306681,-0.229940,0.624043,-0.140357,0.270927,5.502887,4.796507,0.782907,-0.030421,0.087219,0.000000,-0.014892,-0.059315,-0.000000
4.490000,3.210764,0.307698,-1.486145,0.374813,0.042045,0.058120,-0.871389,-0.307844,-0.227191,0.678273,-0.093404,0.278865,5.340571,4.590202,0.810336,-0.030546,0.086599,0.000000,-0.010282,-0.064646,0.000000
4.500000,3.214468,0.308103,-1.485576,0.366133,0.038962,0.055862,-0.864340,-0.308549,-0.224362,0.730854,-0.048553,0.287133,5.171459,4.378405,0.844497,-0.030626,0.085926,0.000000,-0.005876,-0.069819,0.000000
4.510000,3.218086,0.308477,-1.485028,0.357526,0.035874,0.053632,-0.856772,-0.308815,-0.221449,0.781702,-0.005836,0.295755,4.992118,4.168013,0.874032,-0.030663,0.085202,0.000000,-0.001679,-0.074826,0.000000
4.520000,3.221619,0.308820,-1.484503,0.348997,0.032786,0.051433,-0.848706,-0.308665,-0.218447,0.830697,0.034807,0.304614,4.801074,3.966430,0.888959,-0.030660,0.084429,0.000000,0.002318,-0.079655,-0.000000
4.530000,3.225066,0.309133,-1.483999,0.340552,0.029701,0.049263,-0.840158,-0.308119,-0.215356,0.877724,0.073492,0.313534,4.599892,3.772385,0.892289,-0.030617,0.083608,0.000000,0.006125,-0.084298,0.000000
4.540000,3.228430,0.309414,-1.483518,0.332194,0.026624,0.047126,-0.831151,-0.307195,-0.212177,0.922695,0.110255,0.322460,4.391147,3.577130,0.896306,-0.030537,0.082742,0.000000,0.009747,-0.088745,-0.000000
4.550000,3.231710,0.309665,-1.483057,0.323929,0.023557,0.045020,-0.821705,-0.305914,-0.208907,0.965546,0.145035,0.331460,4.175500,3.378014,0.903517,-0.030422,0.081832,0.000000,0.013177,-0.092990,0.000000
4.560000,3.234908,0.309885,-1.482617,0.315760,0.020505,0.042947,-0.811840,-0.304295,-0.205547,1.006205,0.177815,0.340530,3.951864,3.181664,0.905318,-0.030274,0.080881,0.000000,0.016413,-0.097026,-0.000000
4.570000,3.238025,0.310075,-1.482198,0.307692,0.017471,0.040909,-0.801580,-0.302358,-0.202097,1.044584,0.208668,0.349566,3.719796,2.995974,0.895096,-0.030094,0.079891,0.000000,0.019463,-0.100845,-0.000000
4.580000,3.241062,0.310235,-1.481799,0.299728,0.014458,0.038905,-0.790949,-0.300121,-0.198556,1.080601,0.237734,0.358432,3.480257,2.819645,0.875218,-0.029884,0.078863,0.000000,0.022342,-0.104438,0.000000
4.590000,3.244020,0.310364,-1.481420,0.291873,0.011469,0.036938,-0.779968,-0.297603,-0.194928,1.114189,0.265061,0.367071,3.234620,2.642963,0.853892,-0.029647,0.077801,0.000000,0.025054,-0.107801,0.000000
4.600000,3.246900,0.310464,-1.481060,0.284129,0.008506,0.035007,-0.768665,-0.294820,-0.191215,1.145293,0.290594,0.375510,2.982639,2.462997,0.833401,-0.029383,0.076706,0.000000,0.027592,-0.110926,-0.000000
4.610000,3.249702,0.310534,-1.480720,0.276500,0.005573,0.033114,-0.757063,-0.291791,-0.187418,1.173842,0.314321,0.383739,2.724093,2.286842,0.808074,-0.029095,0.075582,0.000000,0.029957,-0.113807,-0.000000
4.620000,3.252430,0.310576,-1.480398,0.268988,0.002670,0.031259,-0.745188,-0.288534,-0.183540,1.199775,0.336330,0.391671,2.461263,2.122504,0.771855,-0.028784,0.074429,0.000000,0.032156,-0.116437,-0.000000
4.630000,3.255082,0.310588,-1.480095,0.261596,-0.000198,0.029443,-0.733067,-0.285065,-0.179584,1.223067,0.356771,0.399176,2.194946,1.968352,0.726479,-0.028452,0.073252,0.000000,0.034205,-0.118814,0.000000
4.640000,3.257662,0.310572,-1.479809,0.254326,-0.003031,0.027667,-0.720727,-0.281398,-0.175556,1.243674,0.375697,0.406201,1.922802,1.814278,0.679826,-0.028100,0.072052,0.000000,0.036109,-0.120933,0.000000
4.650000,3.260169,0.310527,-1.479541,0.247181,-0.005826,0.025932,-0.708194,-0.277551,-0.171460,1.261523,0.393057,0.412772,1.644314,1.657320,0.632663,-0.027730,0.070832,0.000000,0.037862,-0.122787,0.000000
4.660000,3.262605,0.310455,-1.479291,0.240162,-0.008582,0.024238,-0.695496,-0.273537,-0.167301,1.276560,0.408844,0.418854,1.361805,1.504612,0.579786,-0.027343,0.069595,0.000000,0.039463,-0.124369,0.000000
4.670000,3.264972,0.310356,-1.479057,0.233271,-0.011297,0.022586,-0.682662,-0.269374,-0.163083,1.288759,0.423149,0.424368,1.077367,1.363800,0.520215,-0.026940,0.068344,0.000000,0.040922,-0.125676,-0.000000
4.680000,3.267271,0.310229,-1.478839,0.226509,-0.013969,0.020976,-0.669721,-0.265074,-0.158814,1.298107,0.436120,0.429258,0.790697,1.233117,0.455747,-0.026524,0.067081,0.000000,0.042252,-0.126707,-0.000000
4.690000,3.269502,0.310076,-1.478637,0.219877,-0.016598,0.019409,-0.656700,-0.260651,-0.154498,1.304573,0.447811,0.433483,0.499994,1.102657,0.387479,-0.026095,0.065809,0.000000,0.043459,-0.127458,-0.000000
4.700000,3.271668,0.309897,-1.478451,0.213375,-0.019182,0.017886,-0.643630,-0.256118,-0.150144,1.308107,0.458173,0.437008,0.205460,0.968967,0.316114,-0.025655,0.064531,0.000000,0.044537,-0.127922,0.000000
4.710000,3.273770,0.309693,-1.478279,0.207004,-0.021721,0.016406,-0.630538,-0.251488,-0.145758,1.308682,0.467191,0.439805,-0.091142,0.838864,0.241084,-0.025205,0.063250,0.000000,0.045486,-0.128097,-0.000000
4.720000,3.275808,0.309463,-1.478123,0.200764,-0.024212,0.014971,-0.617456,-0.246774,-0.141348,1.306284,0.474950,0.441830,-0.389151,0.721035,0.160229,-0.024745,0.061968,0.000000,0.046312,-0.127980,0.000000
4.730000,3.277785,0.309208,-1.477980,0.194655,-0.026656,0.013580,-0.604412,-0.241989,-0.136921,1.300899,0.481611,0.443010,-0.688487,0.613848,0.073900,-0.024278,0.060689,0.000000,0.047031,-0.127569,-0.000000
4.740000,3.279701,0.308930,-1.477851,0.188676,-0.029052,0.012232,-0.591438,-0.237142,-0.132488,1.292515,0.487227,0.443308,-0.989202,0.505598,-0.014732,-0.023805,0.059416,0.000000,0.047650,-0.126862,-0.000000
4.750000,3.281558,0.308627,-1.477735,0.182826,-0.031399,0.010930,-0.578562,-0.232244,-0.128055,1.281115,0.491723,0.442715,-1.292422,0.391403,-0.105952,-0.023325,0.058151,0.000000,0.048159,-0.125856,-0.000000
4.760000,3.283358,0.308302,-1.477632,0.177105,-0.033697,0.009671,-0.565816,-0.227307,-0.123633,1.266666,0.495055,0.441189,-1.597453,0.279165,-0.201631,-0.022842,0.056898,0.000000,0.048554,-0.124546,-0.000000
4.770000,3.285101,0.307953,-1.477542,0.171510,-0.035945,0.008457,-0.553229,-0.222343,-0.119231,1.249166,0.497307,0.438683,-1.899623,0.180771,-0.299856,-0.022354,0.055660,0.000000,0.048842,-0.122933,0.000000
4.780000,3.286788,0.307583,-1.477463,0.166040,-0.038144,0.007287,-0.540832,-0.217361,-0.114860,1.228674,0.498671,0.435192,-2.198332,0.094602,-0.399489,-0.021865,0.054439,0.000000,0.049044,-0.121020,0.000000
4.790000,3.288421,0.307190,-1.477396,0.160694,-0.040292,0.006160,-0.528655,-0.212370,-0.110528,1.205199,0.499199,0.430693,-2.499419,0.004158,-0.503091,-0.021374,0.053239,0.000000,0.049163,-0.118807,0.000000
4.800000,3.290002,0.306777,-1.477340,0.155467,-0.042391,0.005076,-0.516728,-0.207377,-0.106246,1.178685,0.498754,0.425130,-2.805016,-0.099593,-0.612686,-0.020882,0.052062,0.000000,0.049185,-0.116289,0.000000
4.810000,3.291531,0.306343,-1.477295,0.150359,-0.044440,0.004035,-0.505082,-0.202395,-0.102025,1.149099,0.497207,0.418439,-3.110441,-0.205544,-0.726200,-0.020390,0.050912,0.000000,0.049098,-0.113460,-0.000000
4.820000,3.293009,0.305888,-1.477259,0.145366,-0.046439,0.003036,-0.493746,-0.197433,-0.097877,1.116477,0.494643,0.410606,-3.409598,-0.291481,-0.838260,-0.019900,0.049793,0.000000,0.048909,-0.110325,0.000000
4.830000,3.294438,0.305414,-1.477234,0.140484,-0.048389,0.002077,-0.482752,-0.192502,-0.093813,1.080907,0.491377,0.401674,-3.703570,-0.361095,-0.949280,-0.019412,0.048706,0.000000,0.048649,-0.106889,0.000000
4.840000,3.295819,0.304920,-1.477218,0.135711,-0.050289,0.001159,-0.472128,-0.187606,-0.089843,1.042405,0.487421,0.391620,-3.999992,-0.445143,-1.066251,-0.018927,0.047654,0.000000,0.048320,-0.103155,-0.000000
4.850000,3.297152,0.304408,-1.477211,0.131041,-0.052141,0.000281,-0.461904,-0.182753,-0.085980,1.000907,0.482474,0.380349,-4.299287,-0.546626,-1.189697,-0.018445,0.046642,0.000000,0.047891,-0.099116,0.000000
4.860000,3.298440,0.303877,-1.477212,0.126473,-0.053944,-0.000560,-0.452110,-0.177956,-0.082237,0.956419,0.476489,0.367826,-4.595904,-0.645912,-1.314837,-0.017969,0.045672,0.000000,0.047356,-0.094771,0.000000
4.870000,3.299682,0.303329,-1.477222,0.121999,-0.055700,-0.001364,-0.442776,-0.173224,-0.078624,0.908989,0.469556,0.354052,-4.889191,-0.742035,-1.441249,-0.017498,0.044746,0.000000,0.046725,-0.090125,-0.000000
4.880000,3.300880,0.302763,-1.477239,0.117617,-0.057409,-0.002133,-0.433930,-0.168565,-0.075155,0.858636,0.461648,0.339001,-5.180873,-0.842806,-1.570539,-0.017034,0.043869,0.000000,0.045995,-0.085179,0.000000
4.890000,3.302034,0.302181,-1.477264,0.113321,-0.059071,-0.002867,-0.425603,-0.163991,-0.071844,0.805372,0.452700,0.322641,-5.470909,-0.949449,-1.702800,-0.016578,0.043043,0.000000,0.045158,-0.079935,0.000000
4.900000,3.303146,0.301582,-1.477297,0.109105,-0.060688,-0.003570,-0.417823,-0.159511,-0.068703,0.749217,0.442659,0.304945,-5.758879,-1.061779,-1.837807,-0.016131,0.042270,0.000000,0.044209,-0.074393,0.000000
4.910000,3.304216,0.300967,-1.477336,0.104964,-0.062261,-0.004241,-0.410619,-0.155138,-0.065745,0.690194,0.431464,0.285885,-6.044609,-1.180517,-1.975505,-0.015694,0.041555,0.000000,0.043142,-0.068557,-0.000000
4.920000,3.305245,0.300337,-1.477382,0.100893,-0.063791,-0.004884,-0.404019,-0.150882,-0.062985,0.628325,0.419049,0.265435,-6.327937,-1.306441,-2.115867,-0.015268,0.040899,0.000000,0.041949,-0.062429,0.000000
4.930000,3.306234,0.299691,-1.477434,0.096884,-0.065279,-0.005501,-0.398052,-0.146757,-0.060436,0.563635,0.405336,0.243568,-6.608706,-1.440331,-2.258897,-0.014855,0.040306,0.000000,0.040623,-0.056011,0.000000
4.940000,3.307183,0.299031,-1.477492,0.092932,-0.066726,-0.006093,-0.392746,-0.142775,-0.058114,0.496151,0.390242,0.220257,-6.886754,-1.582960,-2.404567,-0.014456,0.039779,0.000000,0.039155,-0.049307,-0.000000
4.950000,3.308093,0.298357,-1.477555,0.089029,-0.068135,-0.006663,-0.388129,-0.138952,-0.056031,0.425900,0.373676,0.195477,-7.161921,-1.735096,-2.552842,-0.014072,0.039320,0.000000,0.037536,-0.042319,0.000000
4.960000,3.308964,0.297669,-1.477625,0.085169,-0.069505,-0.007214,-0.384228,-0.135302,-0.054204,0.352913,0.355540,0.169200,-7.434048,-1.897525,-2.703718,-0.013705,0.038932,0.000000,0.035756,-0.035052,-0.000000
4.970000,3.309796,0.296967,-1.477700,0.081344,-0.070841,-0.007747,-0.381071,-0.131841,-0.052647,0.277219,0.335726,0.141402,227.368614,74.621868,28.186534,-0.013357,0.038619,0.000000,0.033803,-0.027511,0.000000
4.980000,3.310590,0.296252,-1.477780,0.077548,-0.072142,-0.008267,-0.378684,-0.128587,-0.051376,4.900285,1.847977,0.732931,461.738603,147.809694,58.461388,-0.013029,0.038382,0.000000,0.186011,-0.493294,-0.000000
4.990000,3.311347,0.295524,-1.477865,0.073771,-0.073412,-0.008775,-0.283065,-0.094881,-0.037989,9.511991,3.291920,1.310630,228.091412,68.264650,27.479326,-0.009630,0.028736,0.000000,0.332557,-0.961218,0.000000
5.000000,3.312066,0.294784,-1.477955,0.071886,-0.074040,-0.009027,-0.188444,-0.062749,-0.025163,9.462113,3.213270,1.282518,-4.987823,-7.864940,-2.811248,-0.006379,0.019158,0.000000,0.325690,-0.959200,-0.000000
