time,x,y,z,vx,vy,vz,ax,ay,az,jx,jy,jz,sx,sy,sz,roll,pitch,yaw,p,q,r
0.000000,-3.010158,-0.814505,-1.304647,0.001347,0.005593,-0.005060,0.059955,-0.181653,0.110594,2.544418,1.392093,-3.719710,-12.281060,-3.115551,83.759395,-0.018726,-0.006181,0.000000,0.150680,-0.259901,0.000000
0.010000,-3.010141,-0.814458,-1.304693,0.002072,0.003845,-0.004127,0.084871,-0.167895,0.077350,2.446896,1.358599,-2.951943,-7.362382,-3.568966,70.044025,-0.017248,-0.008720,0.000000,0.144813,-0.248710,-0.000000
0.020000,-3.010115,-0.814428,-1.304731,0.003042,0.002233,-0.003490,0.109043,-0.154494,0.051123,2.394475,1.320988,-2.313957,-3.252145,-3.939928,57.790270,-0.015829,-0.011173,0.000000,0.139116,-0.242654,0.000000
0.030000,-3.010079,-0.814413,-1.304763,0.004251,0.000754,-0.003085,0.132884,-0.141487,0.030686,2.379330,1.280058,-1.791523,0.101184,-4.233646,46.920748,-0.014466,-0.013587,0.000000,0.133552,-0.240743,-0.000000
0.040000,-3.010029,-0.814412,-1.304793,0.005699,-0.000598,-0.002861,0.156730,-0.128902,0.014952,2.394148,1.236555,-1.371186,2.749194,-4.455339,37.358100,-0.013157,-0.016000,0.000000,0.128098,-0.242101,0.000000
0.050000,-3.009964,-0.814424,-1.304821,0.007387,-0.001826,-0.002774,0.180844,-0.116762,0.002964,2.432131,1.191175,-1.040264,4.743037,-4.610064,29.024787,-0.011903,-0.018438,0.000000,0.122740,-0.245941,-0.000000
0.060000,-3.009881,-0.814448,-1.304849,0.009318,-0.002934,-0.002792,0.205428,-0.105082,-0.006111,2.487000,1.144560,-0.786850,6.134663,-4.703193,21.843592,-0.010702,-0.020925,0.000000,0.117475,-0.251557,-0.000000
0.070000,-3.009777,-0.814483,-1.304877,0.011498,-0.003929,-0.002889,0.230621,-0.093873,-0.012994,2.552988,1.097300,-0.599810,6.975438,-4.739861,15.737071,-0.009554,-0.023473,0.000000,0.112308,-0.258311,-0.000000
0.080000,-3.009650,-0.814527,-1.304907,0.013933,-0.004814,-0.003046,0.256508,-0.083137,-0.018294,2.624844,1.049934,-0.468784,7.316891,-4.725274,10.627855,-0.008456,-0.026093,0.000000,0.107246,-0.265635,0.000000
0.090000,-3.009497,-0.814579,-1.304938,0.016630,-0.005593,-0.003251,0.283122,-0.072873,-0.022524,2.697833,1.002948,-0.384187,7.210578,-4.664655,6.438603,-0.007408,-0.028786,0.000000,0.102303,-0.273020,0.000000
0.100000,-3.009317,-0.814638,-1.304972,0.019597,-0.006273,-0.003495,0.310454,-0.063075,-0.026103,2.767733,0.956778,-0.337208,6.707812,-4.563078,3.091575,-0.006409,-0.031552,0.000000,0.097496,-0.280018,-0.000000
0.110000,-3.009105,-0.814704,-1.305008,0.022841,-0.006856,-0.003772,0.338454,-0.053733,-0.029367,2.830839,0.911805,-0.319806,5.860355,-4.425886,0.509815,-0.005458,-0.034384,0.000000,0.092843,-0.286244,-0.000000
0.120000,-3.008859,-0.814775,-1.305047,0.026368,-0.007349,-0.004082,0.367037,-0.044834,-0.032574,2.883962,0.868362,-0.324719,4.719645,-4.258222,-1.384231,-0.004552,-0.037274,0.000000,0.088362,-0.291370,0.000000
0.130000,-3.008576,-0.814850,-1.305090,0.030184,-0.007754,-0.004424,0.396091,-0.036360,-0.035914,2.924427,0.826725,-0.345456,3.337229,-4.065264,-2.667957,-0.003690,-0.040207,0.000000,0.084071,-0.295128,0.000000
0.140000,-3.008254,-0.814930,-1.305136,0.034291,-0.008077,-0.004801,0.425476,-0.028293,-0.039517,2.950073,0.787124,-0.376302,1.764662,-3.852161,-3.418750,-0.002870,-0.043171,0.000000,0.079986,-0.297308,-0.000000
0.150000,-3.007889,-0.815012,-1.305186,0.038694,-0.008321,-0.005215,0.455037,-0.020610,-0.043457,2.959258,0.749732,-0.412313,0.053480,-3.624018,-3.713984,-0.002089,-0.046148,0.000000,0.076123,-0.297759,-0.000000
0.160000,-3.007479,-0.815096,-1.305240,0.043392,-0.008491,-0.005671,0.484603,-0.013290,-0.047766,2.950843,0.714666,-0.449319,-1.745468,-3.386875,-3.630988,-0.001347,-0.049120,0.000000,0.072491,-0.296385,-0.000000
0.170000,-3.007021,-0.815181,-1.305300,0.048385,-0.008588,-0.006172,0.513994,-0.006309,-0.052435,2.924225,0.682006,-0.483929,-3.579727,-3.144857,-3.247271,-0.000639,-0.052069,0.000000,0.069099,-0.293148,0.000000
0.180000,-3.006511,-0.815267,-1.305364,0.053671,-0.008618,-0.006721,0.543026,0.000358,-0.057428,2.879301,0.651767,-0.513520,-5.398202,-2.903577,-2.640156,0.000036,-0.054977,0.000000,0.065950,-0.288062,-0.000000
0.190000,-3.005946,-0.815353,-1.305434,0.059244,-0.008582,-0.007321,0.571520,0.006734,-0.062683,2.816485,0.623915,-0.536245,-7.149474,-2.668251,-1.887015,0.000681,-0.057824,0.000000,0.063042,-0.281194,-0.000000
0.200000,-3.005325,-0.815439,-1.305511,0.065099,-0.008484,-0.007975,0.599299,0.012844,-0.068126,2.736716,0.598366,-0.551033,-8.781237,-2.443921,-1.065411,0.001298,-0.060595,0.000000,0.060370,-0.272660,-0.000000
0.210000,-3.004643,-0.815523,-1.305594,0.071228,-0.008326,-0.008685,0.626499,0.018685,-0.074027,2.709165,0.569463,-0.637918,-8.904027,-2.345100,-1.840530,0.001887,-0.063300,0.000000,0.057345,-0.268923,-0.000000
0.220000,-3.003899,-0.815605,-1.305684,0.077625,-0.008111,-0.009456,0.652490,0.024317,-0.079735,2.446923,0.560557,-0.454759,-31.677180,-0.403850,24.425540,0.002453,-0.065881,0.000000,0.056405,-0.243327,0.000000
0.230000,-3.003090,-0.815685,-1.305783,0.084269,-0.007840,-0.010273,0.675991,0.029854,-0.083802,2.324758,0.541068,-0.444357,7.640283,-3.527058,-22.789545,0.003010,-0.068219,0.000000,0.054377,-0.230824,-0.000000
0.240000,-3.002213,-0.815762,-1.305890,0.091146,-0.007515,-0.011138,0.699606,0.035090,-0.089375,2.360694,0.509477,-0.626565,-12.383094,-1.819845,0.519856,0.003536,-0.070554,0.000000,0.051055,-0.232832,0.000000
0.250000,-3.001266,-0.815835,-1.306006,0.098257,-0.007139,-0.012061,0.722272,0.040122,-0.095238,2.179060,0.496343,-0.554449,-12.009070,-1.781120,-0.233329,0.004040,-0.072789,0.000000,0.049686,-0.214765,0.000000
0.260000,-3.000247,-0.815904,-1.306131,0.105587,-0.006713,-0.013042,0.743437,0.044996,-0.100797,2.052984,0.478701,-0.557236,-12.376710,-1.702020,-0.123676,0.004527,-0.074873,0.000000,0.047842,-0.201791,-0.000000
0.270000,-2.999154,-0.815969,-1.306267,0.113122,-0.006240,-0.014077,0.763387,0.049702,-0.106363,1.939319,0.462690,-0.555101,-11.129532,-1.549220,0.352184,0.004997,-0.076831,0.000000,0.046168,-0.190129,0.000000
0.280000,-2.997984,-0.816029,-1.306413,0.120851,-0.005720,-0.015169,0.782179,0.054250,-0.111905,1.814127,0.446691,-0.554357,-13.919895,-1.654480,-0.211516,0.005451,-0.078671,0.000000,0.044499,-0.177331,0.000000
0.290000,-2.996736,-0.816083,-1.306571,0.128761,-0.005155,-0.016316,0.799624,0.058635,-0.117458,1.677129,0.430488,-0.555397,-12.671540,-1.541759,0.199953,0.005887,-0.080373,0.000000,0.042815,-0.163369,0.000000
0.300000,-2.995408,-0.816132,-1.306740,0.136839,-0.004547,-0.017518,0.815782,0.062864,-0.122995,1.554167,0.415409,-0.552080,-12.703497,-1.523204,0.263894,0.006308,-0.081945,0.000000,0.041250,-0.150880,-0.000000
0.310000,-2.993999,-0.816174,-1.306921,0.145072,-0.003898,-0.018775,0.830674,0.066941,-0.128504,1.423827,0.399902,-0.549566,-12.697411,-1.522347,0.320120,0.006712,-0.083388,0.000000,0.039648,-0.137677,-0.000000
0.320000,-2.992507,-0.816210,-1.307115,0.153448,-0.003209,-0.020088,0.844313,0.070867,-0.133978,1.306421,0.385456,-0.544956,-11.410699,-1.425862,0.520382,0.007101,-0.084704,0.000000,0.038157,-0.125815,-0.000000
0.330000,-2.990930,-0.816238,-1.307323,0.161955,-0.002481,-0.021455,0.856776,0.074647,-0.139405,1.182433,0.370148,-0.540868,-13.398865,-1.639740,0.293170,0.007475,-0.085901,0.000000,0.036584,-0.113320,0.000000
0.340000,-2.989267,-0.816259,-1.307545,0.170579,-0.001717,-0.022876,0.867934,0.078266,-0.144798,1.051447,0.353769,-0.537505,-12.149920,-1.580572,0.458718,0.007832,-0.086968,0.000000,0.034910,-0.100150,-0.000000
0.350000,-2.987518,-0.816273,-1.307781,0.179309,-0.000917,-0.024351,0.877861,0.081725,-0.150148,0.934117,0.338005,-0.532402,-11.949780,-1.630965,0.479812,0.008173,-0.087910,0.000000,0.033302,-0.088385,-0.000000
0.360000,-2.985681,-0.816278,-1.308032,0.188133,-0.000083,-0.025879,0.886600,0.085022,-0.155449,0.813773,0.321187,-0.527699,-11.718251,-1.693229,0.494944,0.008498,-0.088734,0.000000,0.031593,-0.076341,0.000000
0.370000,-2.983755,-0.816274,-1.308299,0.197037,0.000783,-0.027459,0.894177,0.088150,-0.160699,0.703492,0.304483,-0.522198,-10.716749,-1.689089,0.570074,0.008805,-0.089441,0.000000,0.029901,-0.065331,0.000000
0.380000,-2.981740,-0.816262,-1.308581,0.206012,0.001680,-0.029092,0.900661,0.091107,-0.165894,0.591474,0.286537,-0.517036,-11.694609,-1.902991,0.460527,0.009095,-0.090040,0.000000,0.028088,-0.054167,0.000000
0.390000,-2.979634,-0.816240,-1.308881,0.215047,0.002605,-0.030777,0.905997,0.093876,-0.171041,0.477441,0.267201,-0.512307,-10.721000,-1.925359,0.519134,0.009367,-0.090524,0.000000,0.026142,-0.042821,-0.000000
0.400000,-2.977438,-0.816210,-1.309197,0.224129,0.003556,-0.032513,0.910251,0.096451,-0.176137,0.373833,0.247661,-0.506958,-10.383258,-2.023868,0.515713,0.009618,-0.090900,0.000000,0.024179,-0.032536,0.000000
0.410000,-2.975152,-0.816169,-1.309531,0.233248,0.004533,-0.034300,0.913471,0.098824,-0.181181,0.270578,0.226843,-0.501779,-10.028817,-2.128166,0.512945,0.009850,-0.091174,0.000000,0.022093,-0.022302,-0.000000
0.420000,-2.972773,-0.816119,-1.309883,0.242395,0.005532,-0.036137,0.915694,0.100985,-0.186174,0.175482,0.205194,-0.496767,-9.216912,-2.214839,0.496027,0.010060,-0.091350,0.000000,0.019928,-0.012894,-0.000000
0.430000,-2.970304,-0.816058,-1.310254,0.251559,0.006552,-0.038023,0.916983,0.102924,-0.191116,0.081474,0.182271,-0.491721,-9.589767,-2.370988,0.513319,0.010248,-0.091432,0.000000,0.017640,-0.003608,0.000000
0.440000,-2.967742,-0.815988,-1.310644,0.260731,0.007590,-0.039959,0.917325,0.104626,-0.196008,-0.011638,0.158009,-0.486633,-8.799426,-2.469619,0.497759,0.010412,-0.091422,0.000000,0.015223,0.005575,-0.000000
0.450000,-2.965089,-0.815907,-1.311053,0.269903,0.008644,-0.041943,0.916782,0.106081,-0.200850,-0.096453,0.132762,-0.481705,-8.392001,-2.592613,0.494915,0.010552,-0.091324,0.000000,0.012711,0.013924,0.000000
0.460000,-2.962344,-0.815815,-1.311483,0.279064,0.009711,-0.043975,0.915401,0.107277,-0.205641,-0.178992,0.106283,-0.476554,-7.976641,-2.715860,0.498062,0.010666,-0.091144,0.000000,0.010080,0.022035,0.000000
0.470000,-2.959508,-0.815712,-1.311933,0.288208,0.010788,-0.046056,0.913227,0.108202,-0.210384,-0.254695,0.078325,-0.472080,-7.296824,-2.863872,0.433748,0.010753,-0.090886,0.000000,0.007306,0.029465,0.000000
0.480000,-2.956580,-0.815599,-1.312404,0.297326,0.011874,-0.048183,0.910315,0.108840,-0.215081,-0.327718,0.049256,-0.467098,-7.311131,-2.949531,0.564551,0.010812,-0.090555,0.000000,0.004425,0.036617,-0.000000
0.490000,-2.953561,-0.815475,-1.312897,0.306412,0.012964,-0.050357,0.906680,0.109183,-0.219723,-0.398199,0.019091,-0.461514,-6.649454,-3.095583,0.516121,0.010841,-0.090154,0.000000,0.001439,0.043503,0.000000
0.500000,-2.950452,-0.815340,-1.313411,0.315458,0.014056,-0.052577,0.902377,0.109217,-0.224313,-0.461843,-0.012548,-0.456449,-6.213617,-3.219969,0.535178,0.010840,-0.089688,0.000000,-0.001690,0.049712,0.000000
0.510000,-2.947252,-0.815194,-1.313948,0.324457,0.015147,-0.054843,0.897453,0.108929,-0.228849,-0.522199,-0.045200,-0.450678,-5.776371,-3.339991,0.564049,0.010807,-0.089161,0.000000,-0.004915,0.055584,0.000000
0.520000,-2.943963,-0.815037,-1.314508,0.333405,0.016234,-0.057154,0.891954,0.108306,-0.233330,-0.576623,-0.079616,-0.445660,-5.186919,-3.513651,0.494877,0.010741,-0.088578,0.000000,-0.008314,0.060871,0.000000
0.530000,-2.940585,-0.814869,-1.315092,0.342295,0.017312,-0.059510,0.885931,0.107334,-0.237759,-0.627585,-0.114849,-0.439621,-5.007978,-3.531517,0.715690,0.010641,-0.087945,0.000000,-0.011789,0.065803,-0.000000
0.540000,-2.937117,-0.814691,-1.315699,0.351122,0.018379,-0.061909,0.879413,0.106007,-0.242118,-0.675196,-0.150823,-0.432418,-4.435228,-3.691983,0.671564,0.010505,-0.087263,0.000000,-0.015333,0.070390,-0.000000
0.550000,-2.933562,-0.814502,-1.316330,0.359881,0.019431,-0.064352,0.872448,0.104312,-0.246410,-0.716975,-0.188422,-0.425698,-3.999042,-3.797748,0.727897,0.010333,-0.086539,0.000000,-0.019035,0.074404,-0.000000
0.560000,-2.929920,-0.814302,-1.316986,0.368569,0.020464,-0.066837,0.865085,0.102237,-0.250628,-0.755053,-0.226696,-0.417774,-3.565484,-3.895807,0.795501,0.010124,-0.085776,0.000000,-0.022800,0.078040,-0.000000
0.570000,-2.926191,-0.814092,-1.317667,0.377182,0.021475,-0.069364,0.857366,0.099771,-0.254768,-0.787821,-0.266683,-0.410339,-3.038550,-4.062122,0.753792,0.009877,-0.084980,0.000000,-0.026733,0.081155,0.000000
0.580000,-2.922377,-0.813873,-1.318373,0.385716,0.022458,-0.071932,0.849340,0.096902,-0.258829,-0.816885,-0.307110,-0.401392,-2.776495,-4.021045,1.038931,0.009590,-0.084154,0.000000,-0.030705,0.083892,-0.000000
0.590000,-2.918477,-0.813643,-1.319106,0.394168,0.023411,-0.074540,0.841040,0.093629,-0.262790,-0.842353,-0.347859,-0.390765,-2.267422,-4.166251,1.026304,0.009263,-0.083303,0.000000,-0.034704,0.086261,-0.000000
0.600000,-2.914494,-0.813405,-1.319864,0.402536,0.024330,-0.077188,0.832511,0.089939,-0.266646,-0.862677,-0.390081,-0.380315,-1.848512,-4.238294,1.126372,0.008895,-0.082431,0.000000,-0.038848,0.088125,-0.000000
0.610000,-2.910427,-0.813157,-1.320649,0.410817,0.025209,-0.079873,0.823798,0.085826,-0.270390,-0.879259,-0.432582,-0.368207,-1.435348,-4.300991,1.237311,0.008486,-0.081542,0.000000,-0.043015,0.089608,0.000000
0.620000,-2.906277,-0.812901,-1.321462,0.419011,0.026045,-0.082595,0.814942,0.081282,-0.274011,-0.891106,-0.476455,-0.356089,-0.966532,-4.432419,1.245297,0.008034,-0.080640,0.000000,-0.047317,0.090627,-0.000000
0.630000,-2.902047,-0.812636,-1.322302,0.427116,0.026833,-0.085353,0.805988,0.076297,-0.277505,-0.899274,-0.520364,-0.342062,-0.669210,-4.346605,1.563173,0.007539,-0.079730,0.000000,-0.051619,0.091271,-0.000000
0.640000,-2.897735,-0.812364,-1.323169,0.435131,0.027569,-0.088145,0.796968,0.070876,-0.280845,-0.903870,-0.564167,-0.325967,-0.219103,-4.453017,1.598845,0.007002,-0.078816,0.000000,-0.055908,0.091551,0.000000
0.650000,-2.893344,-0.812085,-1.324064,0.443055,0.028249,-0.090969,0.787926,0.065010,-0.284024,-0.903952,-0.609050,-0.309564,0.169951,-4.482086,1.740904,0.006421,-0.077901,0.000000,-0.060303,0.091388,0.000000
0.660000,-2.888875,-0.811799,-1.324988,0.450889,0.028868,-0.093824,0.778901,0.058696,-0.287029,-0.900448,-0.653786,-0.291158,0.551668,-4.500699,1.891927,0.005796,-0.076989,0.000000,-0.064683,0.090862,0.000000
0.670000,-2.884327,-0.811508,-1.325941,0.458633,0.029421,-0.096709,0.769932,0.051931,-0.289846,-0.892740,-0.699376,-0.272160,0.967314,-4.579648,1.956854,0.005127,-0.076085,0.000000,-0.069147,0.089922,-0.000000
0.680000,-2.879702,-0.811211,-1.326923,0.466288,0.029905,-0.099621,0.761058,0.044710,-0.292465,-0.881576,-0.744592,-0.250987,1.263567,-4.460872,2.280243,0.004413,-0.075192,0.000000,-0.073574,0.088631,0.000000
0.690000,-2.875001,-0.810910,-1.327934,0.473855,0.030314,-0.102557,0.752311,0.037041,-0.294858,-0.867061,-0.789291,-0.227511,1.659702,-4.513887,2.367305,0.003656,-0.074313,0.000000,-0.077952,0.087000,-0.000000
0.700000,-2.870225,-0.810605,-1.328974,0.481335,0.030644,-0.105517,0.743730,0.028921,-0.297013,-0.848606,-0.834530,-0.203211,2.010083,-4.495935,2.542153,0.002854,-0.073453,0.000000,-0.082386,0.084981,0.000000
0.710000,-2.865375,-0.810297,-1.330044,0.488730,0.030891,-0.108497,0.735350,0.020352,-0.298914,-0.826891,-0.879211,-0.176706,2.351800,-4.467726,2.722781,0.002008,-0.072615,0.000000,-0.086767,0.082632,-0.000000
0.720000,-2.860451,-0.809988,-1.331144,0.496043,0.031050,-0.111494,0.727205,0.011336,-0.300544,-0.801410,-0.924120,-0.149080,2.723218,-4.484406,2.838712,0.001118,-0.071802,0.000000,-0.091176,0.079912,-0.000000
0.730000,-2.855454,-0.809677,-1.332274,0.503275,0.031116,-0.114507,0.719331,0.001873,-0.301888,-0.772873,-0.968278,-0.119170,2.982114,-4.344820,3.144967,0.000185,-0.071018,0.000000,-0.095516,0.076881,0.000000
0.740000,-2.850386,-0.809366,-1.333434,0.510431,0.031086,-0.117531,0.711757,-0.008026,-0.302919,-0.741396,-1.011555,-0.086894,3.331859,-4.337369,3.274630,-0.000792,-0.070265,0.000000,-0.099776,0.073552,-0.000000
0.750000,-2.845246,-0.809055,-1.334625,0.517512,0.030954,-0.120564,0.704515,-0.018359,-0.303622,-0.706437,-1.054754,-0.053367,3.638507,-4.272723,3.467254,-0.001811,-0.069548,0.000000,-0.104037,0.069878,0.000000
0.760000,-2.840036,-0.808747,-1.335845,0.524522,0.030717,-0.123602,0.697638,-0.029118,-0.303979,-0.668592,-1.097019,-0.017629,3.936485,-4.198777,3.661221,-0.002872,-0.068868,0.000000,-0.108216,0.065912,-0.000000
0.770000,-2.834756,-0.808441,-1.337097,0.531466,0.030371,-0.126642,0.691154,-0.040298,-0.303970,-0.627669,-1.138885,0.019682,4.239319,-4.153578,3.819697,-0.003975,-0.068230,0.000000,-0.112366,0.061638,0.000000
0.780000,-2.829407,-0.808140,-1.338378,0.538347,0.029910,-0.129681,0.685094,-0.051892,-0.303578,-0.583991,-1.179653,0.059157,4.494452,-3.998072,4.075927,-0.005119,-0.067637,0.000000,-0.116421,0.057084,-0.000000
0.790000,-2.823989,-0.807843,-1.339690,0.545169,0.029331,-0.132713,0.679483,-0.063887,-0.302779,-0.537662,-1.219212,0.100818,4.777176,-3.931952,4.237148,-0.006303,-0.067090,0.000000,-0.120370,0.052260,0.000000
0.800000,-2.818504,-0.807554,-1.341032,0.551938,0.028631,-0.135735,0.674350,-0.076274,-0.301557,-0.488553,-1.258098,0.144054,5.036811,-3.824342,4.428535,-0.007526,-0.066592,0.000000,-0.124270,0.047155,-0.000000
0.810000,-2.812951,-0.807271,-1.342405,0.558658,0.027805,-0.138742,0.669720,-0.089044,-0.299891,-0.436913,-1.295723,0.189273,5.287849,-3.708982,4.616082,-0.008788,-0.066147,0.000000,-0.128063,0.041791,-0.000000
0.820000,-2.807331,-0.806998,-1.343807,0.565334,0.026849,-0.141731,0.665619,-0.102186,-0.297765,-0.382846,-1.332340,0.236375,5.525694,-3.603917,4.802418,-0.010087,-0.065757,0.000000,-0.131775,0.036178,-0.000000
0.830000,-2.801644,-0.806735,-1.345239,0.571972,0.025760,-0.144696,0.662071,-0.115687,-0.295158,-0.326396,-1.367580,0.285284,5.762593,-3.442520,4.978787,-0.011423,-0.065425,0.000000,-0.135373,0.030318,0.000000
0.840000,-2.795891,-0.806483,-1.346701,0.578577,0.024534,-0.147632,0.659099,-0.129532,-0.292053,-0.267662,-1.401356,0.335956,5.980926,-3.320899,5.155840,-0.012794,-0.065152,0.000000,-0.138849,0.024221,-0.000000
0.850000,-2.790073,-0.806244,-1.348192,0.585156,0.023168,-0.150535,0.656725,-0.143710,-0.288433,-0.206795,-1.433895,0.388373,6.192494,-3.176449,5.325271,-0.014200,-0.064941,0.000000,-0.142227,0.017899,-0.000000
0.860000,-2.784188,-0.806020,-1.349712,0.591714,0.021659,-0.153399,0.654970,-0.158205,-0.284280,-0.143861,-1.464902,0.442386,6.391848,-3.025243,5.487055,-0.015639,-0.064794,0.000000,-0.145479,0.011359,0.000000
0.870000,-2.778238,-0.805812,-1.351260,0.598257,0.020003,-0.156219,0.653854,-0.173003,-0.279579,-0.079044,-1.494381,0.498187,6.573844,-2.869021,5.661646,-0.017109,-0.064714,0.000000,-0.148608,0.004614,-0.000000
0.880000,-2.772223,-0.805621,-1.352836,0.604793,0.018198,-0.158989,0.653395,-0.188087,-0.274312,-0.012331,-1.522249,0.555375,6.767034,-2.703478,5.774102,-0.018610,-0.064703,0.000000,-0.151606,-0.002335,0.000000
0.890000,-2.766142,-0.805448,-1.354439,0.611328,0.016240,-0.161703,0.653613,-0.203442,-0.268467,0.056175,-1.548443,0.613850,6.928108,-2.534901,5.930023,-0.020141,-0.064762,0.000000,-0.154468,-0.009482,-0.000000
0.900000,-2.759996,-0.805296,-1.356070,0.617868,0.014128,-0.164356,0.654524,-0.219050,-0.262030,0.126237,-1.572923,0.673851,7.085946,-2.359602,6.058524,-0.021699,-0.064893,0.000000,-0.157193,-0.016806,-0.000000
0.910000,-2.753785,-0.805166,-1.357726,0.624420,0.011858,-0.166942,0.656144,-0.234895,-0.254987,0.197951,-1.595642,0.734879,7.234283,-2.179271,6.174537,-0.023284,-0.065099,0.000000,-0.159775,-0.024317,-0.000000
0.920000,-2.747508,-0.805060,-1.359408,0.630993,0.009429,-0.169454,0.658486,-0.250957,-0.247326,0.270695,-1.616455,0.797575,7.332681,-1.986254,6.334383,-0.024894,-0.065380,0.000000,-0.162203,-0.031960,-0.000000
0.930000,-2.741165,-0.804978,-1.361115,0.637593,0.006839,-0.171886,0.661563,-0.267218,-0.239034,0.344985,-1.635431,0.860935,7.523999,-1.808365,6.334868,-0.026528,-0.065739,0.000000,-0.164482,-0.039784,-0.000000
0.940000,-2.734756,-0.804924,-1.362846,0.644227,0.004084,-0.174233,0.665391,-0.283659,-0.230106,0.420731,-1.652528,0.924805,7.602852,-1.606324,6.465652,-0.028183,-0.066177,0.000000,-0.166607,-0.047781,0.000000
0.950000,-2.728280,-0.804897,-1.364599,0.650903,0.001165,-0.176486,0.669980,-0.300261,-0.220533,0.497176,-1.667575,0.989966,7.703985,-1.406252,6.535707,-0.029859,-0.066695,0.000000,-0.168566,-0.055884,0.000000
0.960000,-2.721738,-0.804901,-1.366375,0.657629,-0.001921,-0.178641,0.675338,-0.317004,-0.210306,0.574755,-1.680670,1.055371,7.793073,-1.202633,6.589446,-0.031554,-0.067295,0.000000,-0.170365,-0.064134,-0.000000
0.970000,-2.715128,-0.804936,-1.368172,0.664412,-0.005176,-0.180690,0.681476,-0.333867,-0.199420,0.652842,-1.691527,1.122135,7.838373,-0.977271,6.716227,-0.033266,-0.067979,0.000000,-0.171979,-0.072479,-0.000000
0.980000,-2.708449,-0.805005,-1.369989,0.671261,-0.008599,-0.182627,0.688398,-0.350828,-0.187865,0.731816,-1.700393,1.188709,7.954611,-0.795608,6.594837,-0.034993,-0.068746,0.000000,-0.173428,-0.080950,-0.000000
0.990000,-2.701702,-0.805109,-1.371824,0.678183,-0.012192,-0.184445,0.696115,-0.367868,-0.175648,0.811564,-1.707242,1.254892,7.976384,-0.564300,6.684571,-0.036734,-0.069599,0.000000,-0.174709,-0.089538,-0.000000
1.000000,-2.694885,-0.805249,-1.373677,0.685186,-0.015957,-0.186138,0.704630,-0.384965,-0.162763,0.891441,-1.711746,1.321972,8.012360,-0.344992,6.683527,-0.038487,-0.070538,0.000000,-0.175791,-0.098190,0.000000
1.010000,-2.687998,-0.805428,-1.375546,0.692278,-0.019892,-0.187698,0.713945,-0.402096,-0.149210,0.971740,-1.714120,1.388511,8.034045,-0.122367,6.665769,-0.040249,-0.071565,0.000000,-0.176693,-0.106930,-0.000000
1.020000,-2.681040,-0.805648,-1.377431,0.699468,-0.023999,-0.189120,0.724064,-0.419239,-0.134990,1.051971,-1.714119,1.455642,8.020467,0.116451,6.715439,-0.042020,-0.072679,0.000000,-0.177391,-0.115720,0.000000
1.030000,-2.674008,-0.805909,-1.379328,0.706762,-0.028277,-0.190396,0.734985,-0.436371,-0.120101,1.132325,-1.711920,1.521875,8.048105,0.323550,6.527322,-0.043796,-0.073881,0.000000,-0.177897,-0.124571,-0.000000
1.040000,-2.666904,-0.806214,-1.381238,0.714170,-0.032726,-0.191520,0.746711,-0.453471,-0.104557,1.212666,-1.707502,1.587002,8.006611,0.567271,6.538522,-0.045577,-0.075173,0.000000,-0.178206,-0.133470,-0.000000
1.050000,-2.659725,-0.806564,-1.383158,0.721699,-0.037346,-0.192485,0.759237,-0.470513,-0.088360,1.292488,-1.700624,1.652226,7.966983,0.802349,6.461443,-0.047360,-0.076553,0.000000,-0.178298,-0.142381,0.000000
1.060000,-2.652470,-0.806961,-1.385087,0.729357,-0.042136,-0.193285,0.772559,-0.487475,-0.071517,1.371938,-1.691448,1.716139,7.911774,1.039965,6.366891,-0.049142,-0.078024,0.000000,-0.178180,-0.151308,-0.000000
1.070000,-2.645137,-0.807407,-1.387023,0.737153,-0.047095,-0.193913,0.786673,-0.504334,-0.054036,1.450590,-1.679754,1.779959,7.824014,1.292669,6.347688,-0.050923,-0.079583,0.000000,-0.177835,-0.160221,0.000000
1.080000,-2.637726,-0.807904,-1.388965,0.745093,-0.052222,-0.194364,0.801569,-0.521063,-0.035924,1.528534,-1.665721,1.842060,7.762274,1.514196,6.068638,-0.052698,-0.081232,0.000000,-0.177269,-0.169119,0.000000
1.090000,-2.630235,-0.808452,-1.390910,0.753187,-0.057516,-0.194630,0.817241,-0.537640,-0.017202,1.605610,-1.649332,1.902231,7.641597,1.770541,6.010418,-0.054467,-0.082970,0.000000,-0.176477,-0.177985,-0.000000
1.100000,-2.622662,-0.809055,-1.392857,0.761441,-0.062974,-0.194706,0.833676,-0.554041,0.002120,1.681374,-1.630357,1.961815,7.516769,2.018246,5.857270,-0.056227,-0.084797,0.000000,-0.175440,-0.186786,0.000000
1.110000,-2.615005,-0.809712,-1.394803,0.769863,-0.068596,-0.194585,0.850863,-0.570239,0.022026,1.755649,-1.608995,2.019185,7.369314,2.267202,5.685233,-0.057975,-0.086711,0.000000,-0.174166,-0.195492,0.000000
1.120000,-2.607264,-0.810427,-1.396748,0.778461,-0.074378,-0.194263,0.868787,-0.586211,0.042503,1.829012,-1.584890,2.076125,7.267030,2.541875,5.631868,-0.059709,-0.088713,0.000000,-0.172626,-0.204178,0.000000
1.130000,-2.599436,-0.811200,-1.398688,0.787241,-0.080319,-0.193733,0.887436,-0.601929,0.063539,1.900228,-1.558406,2.130335,6.971982,2.754873,5.205735,-0.061427,-0.090802,0.000000,-0.170840,-0.212699,-0.000000
1.140000,-2.591518,-0.812034,-1.400622,0.796212,-0.086416,-0.192991,0.906783,-0.617371,0.085099,1.969058,-1.529539,2.181588,6.824178,3.031337,5.112211,-0.063125,-0.092975,0.000000,-0.168801,-0.221027,0.000000
1.150000,-2.583511,-0.812929,-1.402547,0.805379,-0.092666,-0.192030,0.926812,-0.632511,0.107169,2.036370,-1.497878,2.231949,6.600577,3.288893,4.888777,-0.064802,-0.095231,0.000000,-0.166478,-0.229268,-0.000000
1.160000,-2.575410,-0.813888,-1.404462,0.814750,-0.099065,-0.190846,0.947497,-0.647322,0.129729,2.100013,-1.464004,2.279575,6.335761,3.543100,4.655874,-0.066454,-0.097568,0.000000,-0.163914,-0.237185,0.000000
1.170000,-2.567215,-0.814911,-1.406363,0.824331,-0.105611,-0.189434,0.968821,-0.661778,0.152754,2.164961,-1.426486,2.325225,6.446129,3.905816,4.451807,-0.068079,-0.099986,0.000000,-0.160961,-0.245291,0.000000
1.180000,-2.558923,-0.816000,-1.408250,0.834129,-0.112299,-0.187789,0.990777,-0.675846,0.176224,2.224578,-1.387037,2.368143,5.467719,3.982707,4.129542,-0.069673,-0.102484,0.000000,-0.157788,-0.252899,0.000000
1.190000,-2.550532,-0.817157,-1.410118,0.844148,-0.119127,-0.185908,1.013291,-0.689513,0.200108,2.278397,-1.345708,2.408202,5.499828,4.339371,3.901411,-0.071234,-0.105054,0.000000,-0.154396,-0.259954,-0.000000
1.200000,-2.542039,-0.818383,-1.411967,0.854396,-0.126088,-0.183786,1.036350,-0.702747,0.224381,2.332764,-1.300712,2.445966,5.165013,4.604804,3.629191,-0.072759,-0.107697,0.000000,-0.150596,-0.267110,0.000000
1.210000,-2.533443,-0.819680,-1.413793,0.864877,-0.133180,-0.181419,1.059933,-0.715514,0.249017,2.383137,-1.252122,2.480862,4.835616,4.900249,3.349112,-0.074244,-0.110409,0.000000,-0.146390,-0.273890,0.000000
1.220000,-2.524741,-0.821047,-1.415594,0.875596,-0.140397,-0.178804,1.083996,-0.727797,0.273988,2.428776,-1.204670,2.512905,4.358548,4.798326,3.059518,-0.075688,-0.113188,0.000000,-0.142263,-0.280214,-0.000000
1.230000,-2.515930,-0.822488,-1.417368,0.886559,-0.147734,-0.175938,1.108500,-0.739588,0.299266,2.471702,-1.151788,2.542055,4.226506,5.784667,2.769505,-0.077088,-0.116029,0.000000,-0.137529,-0.286285,-0.000000
1.240000,-2.507009,-0.824003,-1.419112,0.897768,-0.155187,-0.172818,1.133422,-0.750812,0.324820,2.511869,-1.093174,2.568248,3.735022,5.728534,2.466704,-0.078436,-0.118930,0.000000,-0.132150,-0.292091,0.000000
1.250000,-2.497974,-0.825592,-1.420824,0.909228,-0.162749,-0.169441,1.158719,-0.761458,0.350620,2.546944,-1.035437,2.591382,3.347353,6.027982,2.160404,-0.079731,-0.121887,0.000000,-0.126808,-0.297384,-0.000000
1.260000,-2.488823,-0.827258,-1.422500,0.920943,-0.170414,-0.165805,1.184339,-0.771514,0.376642,2.576273,-0.975647,2.612661,2.900068,6.275269,1.873156,-0.080971,-0.124895,0.000000,-0.121208,-0.302104,0.000000
1.270000,-2.479554,-0.829001,-1.424139,0.932916,-0.178177,-0.161907,1.210260,-0.780934,0.402846,2.608438,-0.906754,2.626790,3.159066,7.168113,1.166469,-0.082151,-0.127950,0.000000,-0.114553,-0.307068,0.000000
1.280000,-2.470164,-0.830822,-1.425738,0.945149,-0.186030,-0.157747,1.236476,-0.789657,0.429178,2.631609,-0.839320,2.640481,1.462238,6.308418,1.577508,-0.083263,-0.131053,0.000000,-0.108009,-0.311126,0.000000
1.290000,-2.460650,-0.832722,-1.427293,0.957646,-0.193968,-0.153323,1.262858,-0.797730,0.455656,2.645192,-0.773801,2.653973,1.629279,7.134001,0.902916,-0.084312,-0.134191,0.000000,-0.101631,-0.314212,0.000000
1.300000,-2.451010,-0.834701,-1.428803,0.970407,-0.201982,-0.148634,1.289393,-0.805098,0.482230,2.660997,-0.699505,2.660357,1.156017,7.388455,0.588887,-0.085291,-0.137361,0.000000,-0.094216,-0.317455,0.000000
1.310000,-2.441241,-0.836761,-1.430265,0.983434,-0.210067,-0.143679,1.316056,-0.811715,0.508858,2.670893,-0.623321,2.664728,0.717170,7.685981,0.256452,-0.086196,-0.140561,0.000000,-0.086537,-0.320070,0.000000
1.320000,-2.431341,-0.838903,-1.431676,0.996729,-0.218214,-0.138457,1.342788,-0.817567,0.535511,2.674370,-0.547271,2.665204,0.081394,7.682920,-0.135929,-0.087022,-0.143784,0.000000,-0.078788,-0.321966,-0.000000
1.330000,-2.421306,-0.841126,-1.433033,1.010290,-0.226416,-0.132968,1.369534,-0.822643,0.562152,2.674692,-0.466330,2.662541,-0.013051,8.510800,-0.397481,-0.087769,-0.147024,0.000000,-0.070439,-0.323488,-0.000000
1.340000,-2.411134,-0.843431,-1.434334,1.024119,-0.234664,-0.127214,1.396273,-0.826876,0.588752,2.672045,-0.380238,2.656681,-0.619045,8.548795,-0.803153,-0.088429,-0.150277,0.000000,-0.061455,-0.324649,-0.000000
1.350000,-2.400823,-0.845819,-1.435577,1.038215,-0.242951,-0.121194,1.422952,-0.830250,0.615271,2.663215,-0.293983,2.646671,-1.041967,8.861817,-1.173546,-0.088998,-0.153539,0.000000,-0.052359,-0.325084,-0.000000
1.360000,-2.390369,-0.848290,-1.436757,1.052578,-0.251266,-0.114909,1.449533,-0.832728,0.641670,2.652544,-0.200916,2.632224,-1.425643,9.226587,-1.572660,-0.089473,-0.156804,0.000000,-0.042429,-0.325238,-0.000000
1.370000,-2.379770,-0.850845,-1.437874,1.067206,-0.259602,-0.108361,1.475963,-0.834298,0.667914,2.631651,-0.114279,2.616516,-2.426384,8.610752,-1.711590,-0.089850,-0.160066,0.000000,-0.033121,-0.324268,0.000000
1.380000,-2.369024,-0.853483,-1.438924,1.082096,-0.267949,-0.101551,1.502169,-0.834978,0.693980,2.610875,-0.017996,2.594999,-1.716972,10.661490,-2.598078,-0.090131,-0.163316,0.000000,-0.022657,-0.323184,0.000000
1.390000,-2.358127,-0.856204,-1.439904,1.097248,-0.276298,-0.094482,1.528186,-0.834620,0.719793,2.590768,0.088625,2.567366,-2.630877,10.147352,-2.788090,-0.090298,-0.166556,0.000000,-0.010946,-0.322031,0.000000
1.400000,-2.347078,-0.859008,-1.440812,1.112659,-0.284638,-0.087156,1.553947,-0.833234,0.745324,2.561075,0.189302,2.537989,-2.978622,10.499974,-3.230384,-0.090353,-0.169779,0.000000,0.000202,-0.319785,0.000000
1.410000,-2.335873,-0.861896,-1.441646,1.128326,-0.292959,-0.079577,1.579399,-0.830815,0.770534,2.528613,0.295044,2.503457,-3.354467,10.794634,-3.674491,-0.090292,-0.172976,0.000000,0.012016,-0.317102,-0.000000
1.420000,-2.324511,-0.864868,-1.442403,1.144246,-0.301251,-0.071747,1.604520,-0.827312,0.795378,2.495470,0.406518,2.464494,-3.425158,11.354589,-4.123116,-0.090110,-0.176146,0.000000,0.024569,-0.314210,0.000000
1.430000,-2.312988,-0.867921,-1.443080,1.160415,-0.309502,-0.063670,1.629289,-0.822682,0.819809,2.456940,0.519080,2.420894,-4.283513,11.150942,-4.598634,-0.089800,-0.179284,0.000000,0.037352,-0.310594,0.000000
1.440000,-2.301302,-0.871057,-1.443676,1.176830,-0.317701,-0.055352,1.653639,-0.816929,0.843780,2.412933,0.632389,2.372550,-4.361602,11.653063,-5.068808,-0.089362,-0.182380,0.000000,0.050328,-0.306231,-0.000000
1.450000,-2.289450,-0.874275,-1.444187,1.193487,-0.325837,-0.046797,1.677549,-0.810014,0.867244,2.368443,0.750855,2.319456,-4.687748,11.892720,-5.554818,-0.088791,-0.185432,0.000000,0.063983,-0.301649,0.000000
1.460000,-2.277431,-0.877574,-1.444611,1.210380,-0.333897,-0.038009,1.701001,-0.801904,0.890150,2.321590,0.871755,2.260742,-4.958282,12.138708,-6.063871,-0.088081,-0.188436,0.000000,0.078026,-0.296622,0.000000
1.470000,-2.265242,-0.880953,-1.444946,1.227505,-0.341871,-0.028996,1.723949,-0.792583,0.912452,2.266781,0.992221,2.199318,-5.732395,12.091728,-6.345608,-0.087231,-0.191384,0.000000,0.092102,-0.290598,0.000000
1.480000,-2.252880,-0.884411,-1.445190,1.244857,-0.349745,-0.019762,1.746340,-0.782046,0.934113,2.212631,1.116471,2.131216,-5.086978,12.758555,-7.279953,-0.086237,-0.194270,0.000000,0.106721,-0.284416,0.000000
1.490000,-2.240344,-0.887947,-1.445341,1.262430,-0.357507,-0.010316,1.768208,-0.770240,0.955052,2.159652,1.244451,2.056183,-5.777769,12.690352,-7.603768,-0.085094,-0.197094,0.000000,0.121877,-0.278121,0.000000
1.500000,-2.227631,-0.891561,-1.445396,1.280219,-0.365145,-0.000664,1.789505,-0.757163,0.975228,2.099427,1.371388,1.978063,-5.995105,12.834172,-8.145334,-0.083800,-0.199849,0.000000,0.136989,-0.270876,-0.000000
1.510000,-2.214739,-0.895250,-1.445353,1.298218,-0.372646,0.009186,1.810197,-0.742806,0.994588,2.038828,1.500170,1.892766,-6.207952,12.934967,-8.708008,-0.082353,-0.202529,0.000000,0.152415,-0.263333,0.000000
1.520000,-2.201666,-0.899013,-1.445211,1.316421,-0.379997,0.019225,1.830267,-0.727155,1.013082,1.974522,1.630141,1.805793,-6.568656,13.035502,-8.888047,-0.080751,-0.205131,0.000000,0.168022,-0.255246,-0.000000
1.530000,-2.188410,-0.902849,-1.444968,1.334821,-0.387185,0.029445,1.849685,-0.710202,1.030675,1.909229,1.760381,1.710777,-6.485634,13.005451,-10.121613,-0.078992,-0.207650,0.000000,0.183759,-0.246764,0.000000
1.540000,-2.174969,-0.906756,-1.444622,1.353413,-0.394197,0.039835,1.868450,-0.691948,1.047268,1.843168,1.890479,1.607421,-6.808529,13.025279,-10.346818,-0.077076,-0.210081,0.000000,0.199570,-0.237899,-0.000000
1.550000,-2.161341,-0.910732,-1.444171,1.372188,-0.401020,0.050387,1.886536,-0.672392,1.062821,1.773795,2.020592,1.502127,-6.981107,12.972117,-10.914426,-0.075001,-0.212420,0.000000,0.215401,-0.228518,0.000000
1.560000,-2.147524,-0.914776,-1.443614,1.391141,-0.407640,0.061088,1.903920,-0.651546,1.077283,1.702538,2.148273,1.389150,-7.162574,12.843679,-11.487366,-0.072769,-0.214662,0.000000,0.231017,-0.218642,0.000000
1.570000,-2.133517,-0.918885,-1.442949,1.410264,-0.414046,0.071929,1.920590,-0.629408,1.090601,1.631546,2.279952,1.274173,-7.137779,13.205761,-11.693907,-0.070379,-0.216804,0.000000,0.247077,-0.208639,0.000000
1.580000,-2.119319,-0.923056,-1.442175,1.429550,-0.420224,0.082896,1.936540,-0.605966,1.102739,1.557641,2.406382,1.151373,-7.645361,12.063530,-12.870109,-0.067829,-0.218843,0.000000,0.262578,-0.198025,-0.000000
1.590000,-2.104926,-0.927288,-1.441290,1.448992,-0.426162,0.093979,1.951732,-0.581303,1.113600,1.480749,2.526695,1.020593,-7.627832,12.272125,-13.094888,-0.065129,-0.220772,0.000000,0.277399,-0.186785,0.000000
1.600000,-2.090338,-0.931579,-1.440295,1.468583,-0.431846,0.105164,1.966158,-0.555420,1.123147,1.404213,2.649275,0.887920,-7.781111,11.954746,-13.625256,-0.062280,-0.222587,0.000000,0.292421,-0.175437,0.000000
1.610000,-2.075554,-0.935924,-1.439187,1.488313,-0.437266,0.116437,1.979808,-0.528345,1.131338,1.325482,2.764933,0.749446,-7.925509,11.561676,-14.120108,-0.059284,-0.224286,0.000000,0.306624,-0.163611,0.000000
1.620000,-2.060572,-0.940323,-1.437966,1.508176,-0.442409,0.127786,1.992666,-0.500103,1.138116,1.246077,2.883960,0.605093,-7.991783,11.854155,-14.694792,-0.056146,-0.225864,0.000000,0.321141,-0.151475,0.000000
1.630000,-2.045390,-0.944772,-1.436631,1.528164,-0.447264,0.139195,2.004723,-0.470699,1.143427,1.164879,2.993845,0.456718,-8.248095,10.102840,-14.974652,-0.052865,-0.227319,0.000000,0.334538,-0.138960,0.000000
1.640000,-2.030008,-0.949267,-1.435182,1.548268,-0.451820,0.150649,2.015957,-0.440263,1.147238,1.081892,3.093574,0.304634,-8.310608,10.220265,-15.490112,-0.049459,-0.228646,0.000000,0.346682,-0.126083,-0.000000
1.650000,-2.014424,-0.953807,-1.433618,1.568480,-0.456066,0.162134,2.026360,-0.408816,1.149502,0.998362,3.194824,0.147457,-8.431876,9.638260,-15.888230,-0.045931,-0.229843,0.000000,0.358870,-0.112952,-0.000000
1.660000,-1.998638,-0.958387,-1.431939,1.588792,-0.459993,0.173634,2.035921,-0.376403,1.150179,0.913801,3.286435,-0.012515,-8.538749,9.000056,-16.243377,-0.042287,-0.230906,0.000000,0.369822,-0.099584,0.000000
1.670000,-1.982648,-0.963006,-1.430145,1.609196,-0.463591,0.185133,2.044627,-0.343083,1.149229,0.827058,3.377659,-0.178613,-8.751441,8.924074,-16.832345,-0.038535,-0.231834,0.000000,0.380572,-0.085778,-0.000000
1.680000,-1.966454,-0.967658,-1.428236,1.629682,-0.466852,0.196613,2.052462,-0.308888,1.146603,0.739994,3.458193,-0.346142,-8.658818,7.166379,-16.663177,-0.034680,-0.232623,0.000000,0.389929,-0.071871,0.000000
1.690000,-1.950054,-0.972342,-1.426213,1.650242,-0.469766,0.208059,2.059427,-0.273960,1.142304,0.652733,3.527212,-0.514553,-8.850940,6.948290,-17.152450,-0.030741,-0.233273,0.000000,0.397788,-0.057904,0.000000
1.700000,-1.933449,-0.977052,-1.424075,1.670867,-0.472328,0.219454,2.065509,-0.238344,1.136293,0.563481,3.594353,-0.687877,-8.940962,6.158548,-17.366738,-0.026725,-0.233780,0.000000,0.405232,-0.043590,0.000000
1.710000,-1.916637,-0.981787,-1.421824,1.691549,-0.474531,0.230779,2.070690,-0.202112,1.128548,0.472407,3.650541,-0.861308,-9.055837,5.329343,-17.526117,-0.022642,-0.234144,0.000000,0.411218,-0.029089,0.000000
1.720000,-1.899618,-0.986542,-1.419460,1.712278,-0.476369,0.242019,2.074971,-0.165341,1.119045,0.384364,3.703193,-1.040224,-8.762094,4.949486,-18.043341,-0.018502,-0.234363,0.000000,0.416586,-0.014803,-0.000000
1.730000,-1.882391,-0.991313,-1.416984,1.733046,-0.477836,0.253154,2.078364,-0.128089,1.107750,0.292769,3.744257,-1.217692,-9.562592,3.251940,-17.436772,-0.014315,-0.234439,0.000000,0.420411,-0.000212,0.000000
1.740000,-1.864957,-0.996097,-1.414397,1.753842,-0.478930,0.264168,2.080812,-0.090498,1.094700,0.197377,3.773173,-1.393002,-9.303104,2.778020,-17.827022,-0.010100,-0.234366,0.000000,0.422637,0.014676,-0.000000
1.750000,-1.847314,-1.000890,-1.411701,1.774659,-0.479645,0.275042,2.082325,-0.052636,1.079873,0.104923,3.797644,-1.572314,-9.397682,1.865205,-17.819912,-0.005865,-0.234147,0.000000,0.424135,0.029274,-0.000000
1.760000,-1.829463,-1.005689,-1.408897,1.795486,-0.479982,0.285759,2.082903,-0.014580,1.063263,0.010742,3.812088,-1.749530,-9.468776,0.963684,-17.765915,-0.001622,-0.233781,0.000000,0.424280,0.043914,-0.000000
1.770000,-1.811404,-1.010489,-1.405987,1.816314,-0.479937,0.296302,2.082535,0.023571,1.044873,-0.084718,3.816357,-1.928864,-9.591492,-0.054091,-17.948267,0.002616,-0.233268,0.000000,0.423068,0.058640,0.000000
1.780000,-1.793137,-1.015286,-1.402972,1.837133,-0.479510,0.306651,2.081208,0.061719,1.024696,-0.180424,3.812184,-2.105298,-9.547425,-0.779057,-17.326563,0.006836,-0.232609,0.000000,0.420702,0.073197,-0.000000
1.790000,-1.774662,-1.020078,-1.399854,1.857935,-0.478703,0.316790,2.078926,0.099787,1.002780,-0.276255,3.799632,-2.278191,-9.648189,-1.788014,-17.391458,0.011027,-0.231805,0.000000,0.417208,0.087543,-0.000000
1.800000,-1.755978,-1.024859,-1.396637,1.878708,-0.477515,0.326701,2.075679,0.137677,0.979128,-0.373099,3.776922,-2.451733,-9.688352,-2.695918,-17.163770,0.015176,-0.230858,0.000000,0.412404,0.101866,-0.000000
1.810000,-1.737088,-1.029627,-1.393321,1.899445,-0.475950,0.336367,2.071467,0.175296,0.953759,-0.469342,3.745349,-2.621471,-9.705237,-3.601235,-16.889662,0.019271,-0.229768,0.000000,0.406457,0.115869,0.000000
1.820000,-1.717990,-1.034377,-1.389910,1.920135,-0.474010,0.345770,2.066280,0.212555,0.926699,-0.568524,3.705084,-2.790423,-9.987418,-4.464936,-16.784087,0.023301,-0.228539,0.000000,0.399407,0.129994,0.000000
1.830000,-1.698685,-1.039106,-1.386407,1.940767,-0.471700,0.354895,2.060103,0.249368,0.897967,-0.666073,3.655777,-2.954709,-9.516560,-5.394005,-16.062540,0.027255,-0.227170,0.000000,0.391244,0.143646,0.000000
1.840000,-1.679175,-1.043810,-1.382813,1.961333,-0.469025,0.363724,2.052966,0.285641,0.867623,-0.761705,3.597582,-3.113754,-9.752190,-6.225810,-15.850467,0.031122,-0.225667,0.000000,0.382017,0.156776,-0.000000
1.850000,-1.659459,-1.048485,-1.379133,1.981823,-0.465990,0.372242,2.044858,0.321292,0.835697,-0.859869,3.531207,-3.270643,-9.735989,-7.060662,-15.409914,0.034892,-0.224032,0.000000,0.371824,0.169925,-0.000000
1.860000,-1.639538,-1.053128,-1.375370,2.002227,-0.462601,0.380433,2.035771,0.356240,0.802233,-0.957615,3.457168,-3.421229,-9.730124,-7.854968,-14.912899,0.038556,-0.222268,0.000000,0.360763,0.182674,-0.000000
1.870000,-1.619415,-1.057736,-1.371526,2.022536,-0.458867,0.388282,2.025713,0.390400,0.767273,-1.053692,3.373173,-3.570725,-9.563442,-8.829340,-14.774083,0.042104,-0.220377,0.000000,0.348592,0.195013,-0.000000
1.880000,-1.599088,-1.062304,-1.367605,2.042738,-0.454796,0.395774,2.014694,0.423684,0.730847,-1.150523,3.282990,-3.712266,-9.803840,-9.197958,-13.521773,0.045526,-0.218365,0.000000,0.335780,0.207033,-0.000000
1.890000,-1.578560,-1.066831,-1.363611,2.062826,-0.450397,0.402894,2.002699,0.456042,0.693058,-1.248137,3.187126,-3.845208,-9.637398,-10.078581,-13.268711,0.048818,-0.216233,0.000000,0.322417,0.218723,0.000000
1.900000,-1.557832,-1.071311,-1.359548,2.082789,-0.445679,0.409630,1.989738,0.487395,0.653947,-1.343923,3.082488,-3.975763,-9.598287,-10.731838,-12.629949,0.051971,-0.213987,0.000000,0.308164,0.229957,-0.000000
1.910000,-1.536905,-1.075743,-1.355420,2.102618,-0.440652,0.415969,1.975820,0.517681,0.613572,-1.439601,2.973879,-4.098019,-9.544570,-11.312223,-11.957724,0.054980,-0.211629,0.000000,0.293596,0.240781,-0.000000
1.920000,-1.515780,-1.080123,-1.351230,2.122302,-0.435329,0.421898,1.960948,0.546828,0.571998,-1.534864,2.853361,-4.216124,-9.498171,-12.463715,-11.521366,0.057839,-0.209165,0.000000,0.277876,0.251263,-0.000000
1.930000,-1.494459,-1.084449,-1.346984,2.141834,-0.429720,0.427405,1.945126,0.574746,0.529280,-1.629360,2.731478,-4.325475,-9.399199,-11.894949,-10.340443,0.060538,-0.206597,0.000000,0.262171,0.261269,0.000000
1.940000,-1.472944,-1.088717,-1.342684,2.161202,-0.423838,0.432480,1.928363,0.601458,0.485520,-1.722987,2.609153,-4.425631,-9.333207,-12.884849,-9.825714,0.063083,-0.203932,0.000000,0.246599,0.270792,0.000000
1.950000,-1.451236,-1.092925,-1.338335,2.180398,-0.417695,0.437112,1.910668,0.626890,0.440782,-1.815922,2.476690,-4.520741,-9.243905,-13.277262,-9.054805,0.065466,-0.201172,0.000000,0.230141,0.279948,-0.000000
1.960000,-1.429337,-1.097070,-1.333943,2.199412,-0.411305,0.441292,1.892050,0.650991,0.395136,-1.907494,2.343080,-4.607119,-9.137864,-13.618705,-8.268383,0.067686,-0.198322,0.000000,0.213778,0.288601,-0.000000
1.970000,-1.407248,-1.101150,-1.329511,2.218236,-0.404680,0.445012,1.872516,0.673726,0.348662,-1.999276,2.202818,-4.686516,-9.150755,-14.248505,-7.560032,0.069740,-0.195387,0.000000,0.196947,0.296959,0.000000
1.980000,-1.384973,-1.105163,-1.325044,2.236859,-0.397835,0.448263,1.852072,0.695047,0.301435,-2.089087,2.061990,-4.757256,-8.808027,-13.902750,-6.584421,0.071626,-0.192371,0.000000,0.180301,0.304780,-0.000000
1.990000,-1.362512,-1.109106,-1.320547,2.255274,-0.390784,0.451039,1.830742,0.714968,0.253546,-2.176748,1.921369,-4.819154,-8.789683,-14.390592,-5.842847,0.073347,-0.189278,0.000000,0.163929,0.312059,-0.000000
2.000000,-1.339868,-1.112978,-1.316025,2.273471,-0.383540,0.453332,1.808536,0.733455,0.205075,-2.264284,1.775872,-4.873672,-8.649451,-14.522559,-5.010747,0.074903,-0.186113,0.000000,0.147312,0.319044,-0.000000
2.010000,-1.317043,-1.116776,-1.311482,2.291442,-0.376119,0.455138,1.785463,0.750492,0.156101,-2.349934,1.631552,-4.919860,-8.502768,-14.584309,-4.182043,0.076295,-0.182881,0.000000,0.131079,0.325554,0.000000
2.020000,-1.294040,-1.120500,-1.306924,2.309178,-0.368535,0.456453,1.761540,0.766064,0.106709,-2.434531,1.482047,-4.956899,-8.392374,-15.063626,-3.268599,0.077524,-0.179585,0.000000,0.114598,0.331674,-0.000000
2.030000,-1.270860,-1.124146,-1.302355,2.326670,-0.360803,0.457272,1.736779,0.780145,0.056988,-2.517277,1.335587,-4.986137,-8.154958,-14.211864,-2.580556,0.078589,-0.176229,0.000000,0.098693,0.337366,0.000000
2.040000,-1.247507,-1.127715,-1.297780,2.343911,-0.352937,0.457592,1.711201,0.792791,0.007012,-2.598069,1.193039,-5.007652,-8.025345,-14.535979,-1.679835,0.079500,-0.172818,0.000000,0.083443,0.342639,0.000000
2.050000,-1.223983,-1.131205,-1.293205,2.360891,-0.344952,0.457411,1.684822,0.803990,-0.043134,-2.677565,1.047134,-5.020121,-7.849897,-14.390606,-0.858410,0.080257,-0.169356,0.000000,0.068130,0.347551,0.000000
2.060000,-1.200290,-1.134614,-1.288634,2.377604,-0.336862,0.456729,1.657657,0.813749,-0.093367,-2.755113,0.905153,-5.025196,-7.668570,-14.189817,-0.054051,0.080865,-0.165846,0.000000,0.053463,0.352083,-0.000000
2.070000,-1.176432,-1.137942,-1.284072,2.394042,-0.328682,0.455544,1.629725,0.822085,-0.143603,-2.831015,0.761724,-5.020283,-7.500757,-14.300969,0.933993,0.081327,-0.162292,0.000000,0.038924,0.356239,0.000000
2.080000,-1.152410,-1.141187,-1.279525,2.410196,-0.320425,0.453857,1.601043,0.829002,-0.193751,-2.904897,0.623217,-5.008671,-7.274484,-13.386797,1.383084,0.081646,-0.158698,0.000000,0.025109,0.360055,0.000000
2.090000,-1.128229,-1.144350,-1.274997,2.426060,-0.312106,0.451669,1.571634,0.834570,-0.243755,-2.976692,0.490353,-4.990633,-7.093977,-13.367628,2.323423,0.081832,-0.155068,0.000000,0.012072,0.363541,-0.000000
2.100000,-1.103890,-1.147429,-1.270493,2.441627,-0.303738,0.448983,1.541515,0.838806,-0.293530,-3.046675,0.357613,-4.963120,-6.891543,-12.985119,3.075024,0.081888,-0.151404,0.000000,-0.000714,0.366695,0.000000
2.110000,-1.079397,-1.150425,-1.266019,2.456888,-0.295334,0.445800,1.510707,0.841743,-0.342998,-3.114572,0.230518,-4.929391,-6.685644,-12.558987,3.800155,0.081820,-0.147710,0.000000,-0.012746,0.369555,0.000000
2.120000,-1.054753,-1.153336,-1.261578,2.471839,-0.286908,0.442124,1.479231,0.843420,-0.392083,-3.180360,0.105349,-4.885964,-6.472927,-12.340681,4.753279,0.081634,-0.143990,0.000000,-0.024372,0.372084,0.000000
2.130000,-1.029962,-1.156163,-1.257178,2.486471,-0.278470,0.437960,1.447107,0.843872,-0.440700,-3.244052,-0.013488,-4.837095,-6.264868,-11.416838,5.012765,0.081335,-0.140245,0.000000,-0.035212,0.374360,0.000000
2.140000,-1.005025,-1.158905,-1.252821,2.500779,-0.270034,0.433312,1.414357,0.843174,-0.488809,-3.305616,-0.125463,-4.783182,-6.046009,-11.101911,5.895803,0.080933,-0.136478,0.000000,-0.045236,0.376395,-0.000000
2.150000,-0.979947,-1.161564,-1.248513,2.514756,-0.261610,0.428185,1.381002,0.841370,-0.536332,-3.364977,-0.234329,-4.720364,-5.827229,-10.537010,6.534813,0.080432,-0.132693,0.000000,-0.054787,0.378146,-0.000000
2.160000,-0.954731,-1.164138,-1.244259,2.528397,-0.253210,0.422587,1.347064,0.838511,-0.583202,-3.422222,-0.336449,-4.652666,-5.607605,-9.944668,7.141735,0.079840,-0.128892,0.000000,-0.063564,0.379685,0.000000
2.170000,-0.929380,-1.166628,-1.240063,2.541695,-0.244843,0.416524,1.312566,0.834657,-0.629354,-3.476997,-0.433707,-4.576315,-5.360478,-9.442588,7.987181,0.079163,-0.125076,0.000000,-0.071733,0.380946,0.000000
2.180000,-0.903898,-1.169035,-1.235930,2.554646,-0.236520,0.410003,1.277531,0.829861,-0.674716,-3.529706,-0.523959,-4.495888,-5.181384,-8.602224,8.089439,0.078407,-0.121249,0.000000,-0.079140,0.382034,0.000000
2.190000,-0.878289,-1.171358,-1.231864,2.567244,-0.228249,0.403032,1.241979,0.824202,-0.719261,-3.580352,-0.606903,-4.411843,-4.934269,-8.044349,8.853469,0.077582,-0.117412,0.000000,-0.085775,0.382963,0.000000
2.200000,-0.852555,-1.173600,-1.227871,2.579484,-0.220039,0.395620,1.205933,0.817741,-0.762924,-3.628503,-0.684272,-4.320082,-4.709103,-7.365997,9.355780,0.076694,-0.113568,0.000000,-0.091786,0.383655,0.000000
2.210000,-0.826700,-1.175759,-1.223953,2.591361,-0.211897,0.387777,1.169416,0.810541,-0.805653,-3.674501,-0.754508,-4.224966,-4.483291,-6.677139,9.821552,0.075749,-0.109717,0.000000,-0.097073,0.384202,0.000000
2.220000,-0.800729,-1.177838,-1.220117,2.602871,-0.203830,0.379511,1.132451,0.802674,-0.847396,-3.718102,-0.817758,-4.122282,-4.243768,-5.973054,10.556590,0.074755,-0.105862,0.000000,-0.101632,0.384545,-0.000000
2.230000,-0.774644,-1.179836,-1.216364,2.614009,-0.195845,0.370832,1.095061,0.794209,-0.888092,-3.759524,-0.873978,-4.017160,-4.040850,-5.269642,10.458475,0.073719,-0.102005,0.000000,-0.105510,0.384766,-0.000000
2.240000,-0.748450,-1.181755,-1.212701,2.624771,-0.187948,0.361752,1.057268,0.785218,-0.927734,-3.798779,-0.923094,-3.910087,-3.803205,-4.550986,11.107196,0.072647,-0.098146,0.000000,-0.108713,0.384874,0.000000
2.250000,-0.722150,-1.183596,-1.209131,2.635153,-0.180142,0.352281,1.019094,0.775771,-0.966269,-3.835649,-0.965001,-3.796427,-3.578096,-3.832136,11.465380,0.071547,-0.094288,0.000000,-0.111214,0.384813,-0.000000
2.260000,-0.695748,-1.185358,-1.205657,2.645152,-0.172434,0.342431,0.980562,0.765941,-1.003658,-3.870314,-1.000001,-3.680889,-3.353652,-3.118213,11.790347,0.070425,-0.090431,0.000000,-0.113080,0.384649,0.000000
2.270000,-0.669248,-1.187045,-1.202283,2.654763,-0.164825,0.332212,0.941695,0.755799,-1.039864,-3.902713,-1.026915,-3.559303,-3.127764,-2.313347,12.374945,0.069288,-0.086576,0.000000,-0.114189,0.384347,-0.000000
2.280000,-0.642654,-1.188655,-1.199014,2.663984,-0.157318,0.321638,0.902515,0.745424,-1.074841,-3.932903,-1.047298,-3.436577,-2.910617,-1.765828,12.161488,0.068143,-0.082726,0.000000,-0.114723,0.383958,0.000000
2.290000,-0.615970,-1.190191,-1.195852,2.672813,-0.149917,0.310719,0.863044,0.734874,-1.108594,-3.960904,-1.061278,-3.313158,-2.688355,-0.982895,12.667850,0.066995,-0.078880,0.000000,-0.114702,0.383488,0.000000
2.300000,-0.589199,-1.191654,-1.192800,2.681244,-0.142621,0.299470,0.823304,0.724225,-1.141084,-3.986689,-1.067403,-3.184563,-2.470454,-0.292463,12.898796,0.065851,-0.075039,0.000000,-0.113975,0.382907,-0.000000
2.310000,-0.562346,-1.193044,-1.189863,2.689278,-0.135432,0.287902,0.783317,0.713546,-1.172283,-4.010481,-1.067363,-3.054820,-2.258186,0.379833,13.111182,0.064717,-0.071205,0.000000,-0.112726,0.382266,0.000000
2.320000,-0.535415,-1.194363,-1.187043,2.696910,-0.128350,0.276029,0.743104,0.702907,-1.202169,-4.031583,-1.059105,-2.921811,-1.991924,1.190002,13.424785,0.063599,-0.067378,0.000000,-0.110763,0.381493,0.000000
2.330000,-0.508409,-1.195611,-1.184344,2.704139,-0.121374,0.263863,0.702691,0.692382,-1.230716,-4.050944,-1.045278,-2.787701,-1.881705,1.569973,13.392341,0.062504,-0.063560,0.000000,-0.108342,0.380690,0.000000
2.340000,-0.481333,-1.196791,-1.181767,2.710963,-0.114502,0.251419,0.662091,0.682018,-1.257921,-4.068633,-1.026169,-2.652752,-1.626974,2.328360,13.658088,0.061434,-0.059749,0.000000,-0.105494,0.379864,0.000000
2.350000,-0.454191,-1.197902,-1.179316,2.717380,-0.107733,0.238709,0.621327,0.671885,-1.283761,-4.083744,-0.999456,-2.515129,-1.425294,2.930726,13.801114,0.060396,-0.055948,0.000000,-0.102002,0.378927,-0.000000
2.360000,-0.426987,-1.198946,-1.176994,2.723389,-0.101063,0.225748,0.580421,0.662045,-1.308218,-4.097178,-0.967734,-2.376073,-1.228443,3.504736,13.941648,0.059395,-0.052157,0.000000,-0.098108,0.377967,-0.000000
2.370000,-0.399725,-1.199923,-1.174802,2.728988,-0.094491,0.212550,0.539393,0.652557,-1.331283,-4.108014,-0.928570,-2.236948,-0.971779,4.231758,13.945616,0.058436,-0.048376,0.000000,-0.093604,0.376911,-0.000000
2.380000,-0.372409,-1.200836,-1.172744,2.734177,-0.088011,0.199127,0.498266,0.643487,-1.352950,-4.117308,-0.885121,-2.095850,-0.888470,4.450552,14.274189,0.057524,-0.044606,0.000000,-0.088762,0.375845,0.000000
2.390000,-0.345043,-1.201684,-1.170820,2.738953,-0.081619,0.185495,0.457051,0.634867,-1.373193,-4.125134,-0.837787,-1.952799,-0.644341,5.104538,14.269334,0.056662,-0.040847,0.000000,-0.083618,0.374776,0.000000
2.400000,-0.317631,-1.202469,-1.169034,2.743318,-0.075312,0.171668,0.415772,0.626755,-1.392008,-4.130483,-0.783918,-1.809943,-0.458762,5.571438,14.365072,0.055854,-0.037099,0.000000,-0.077946,0.373625,-0.000000
2.410000,-0.290178,-1.203190,-1.167388,2.747269,-0.069082,0.157660,0.374447,0.619199,-1.409385,-4.134141,-0.726509,-1.665249,-0.273963,6.002166,14.460349,0.055104,-0.033363,0.000000,-0.072000,0.372454,0.000000
2.420000,-0.262687,-1.203850,-1.165882,2.750806,-0.062926,0.143485,0.333095,0.612246,-1.425319,-4.135985,-0.663103,-1.521798,-0.094069,6.580531,14.337750,0.054415,-0.029638,0.000000,-0.065576,0.371262,0.000000
2.430000,-0.235163,-1.204449,-1.164518,2.753931,-0.056835,0.129158,0.291733,0.605945,-1.439813,-4.136005,-0.596965,-1.376230,0.089572,6.638532,14.778136,0.053793,-0.025926,0.000000,-0.058945,0.370038,-0.000000
2.440000,-0.207610,-1.204987,-1.163299,2.756641,-0.050805,0.114694,0.250381,0.600313,-1.452836,-4.134227,-0.528563,-1.228464,0.264423,7.129936,14.663860,0.053237,-0.022227,0.000000,-0.052145,0.368787,0.000000
2.450000,-0.180032,-1.205465,-1.162225,2.758938,-0.044827,0.100107,0.209055,0.595392,-1.464389,-4.130715,-0.455282,-1.082041,0.438797,7.426509,14.729649,0.052751,-0.018540,0.000000,-0.044957,0.367522,-0.000000
2.460000,-0.152432,-1.205884,-1.161297,2.760822,-0.038894,0.085411,0.167773,0.591213,-1.474470,-4.125379,-0.380176,-0.934112,0.612308,7.682209,14.789662,0.052338,-0.014866,0.000000,-0.037634,0.366228,0.000000
2.470000,-0.124816,-1.206243,-1.160517,2.762294,-0.033000,0.070622,0.126552,0.587804,-1.483075,-4.118624,-0.300900,-0.786869,0.753643,8.075888,14.721499,0.052000,-0.011206,0.000000,-0.029975,0.364944,-0.000000
2.480000,-0.097188,-1.206544,-1.159885,2.763354,-0.027136,0.055754,0.085407,0.585197,-1.490203,-4.109992,-0.220693,-0.638369,0.972777,7.956269,14.979551,0.051739,-0.007558,0.000000,-0.022253,0.363628,-0.000000
2.490000,-0.069551,-1.206786,-1.159402,2.764002,-0.021293,0.040823,0.044358,0.583391,-1.495837,-4.099488,-0.140064,-0.488580,1.112061,8.254918,14.913166,0.051555,-0.003923,0.000000,-0.014506,0.362281,-0.000000
2.500000,-0.041909,-1.206970,-1.159069,2.764241,-0.015465,0.025843,0.003421,0.582407,-1.499978,-4.087628,-0.056506,-0.339579,1.274930,8.358795,14.950005,0.051450,-0.000302,0.000000,-0.006519,0.360949,0.000000
2.510000,-0.014267,-1.207096,-1.158885,2.764071,-0.009642,0.010828,-0.037389,0.582259,-1.502626,-4.074060,0.026942,-0.189814,1.434523,8.418622,14.979788,0.051424,0.003305,0.000000,0.001453,0.359599,-0.000000
2.520000,0.013371,-1.207163,-1.158852,2.763494,-0.003817,-0.004205,-0.078055,0.582955,-1.503776,-4.058981,0.112603,-0.040205,1.584405,8.615342,14.962651,0.051479,0.006899,0.000000,0.009616,0.358248,0.000000
2.530000,0.041001,-1.207172,-1.158969,2.762511,0.002020,-0.019242,-0.118563,0.584507,-1.503428,-4.042306,0.197191,0.109874,1.750231,8.292677,15.052954,0.051616,0.010479,0.000000,0.017690,0.356888,-0.000000
2.540000,0.068620,-1.207122,-1.159237,2.761123,0.007876,-0.034268,-0.158896,0.586893,-1.501576,-4.024059,0.280177,0.260400,1.895091,8.390495,15.029541,0.051833,0.014046,0.000000,0.025633,0.355522,0.000000
2.550000,0.096222,-1.207014,-1.159655,2.759333,0.013760,-0.049269,-0.199040,0.590115,-1.498221,-4.004384,0.364082,0.410633,2.043108,8.291406,15.037859,0.052129,0.017599,0.000000,0.033669,0.354160,-0.000000
2.560000,0.123805,-1.206847,-1.160222,2.757143,0.019681,-0.064228,-0.238979,0.594166,-1.493362,-3.983324,0.445803,0.561260,2.185963,8.146931,15.044065,0.052505,0.021139,0.000000,0.041533,0.352807,-0.000000
2.570000,0.151364,-1.206620,-1.160939,2.754555,0.025646,-0.079131,-0.278700,0.599034,-1.486999,-3.960514,0.527816,0.711106,2.358563,8.151204,14.965335,0.052960,0.024665,0.000000,0.049445,0.351426,-0.000000
2.580000,0.178895,-1.206334,-1.161805,2.751570,0.031664,-0.093963,-0.318186,0.604711,-1.479138,-3.936520,0.606642,0.861413,2.439269,7.604355,15.096515,0.053493,0.028178,0.000000,0.057108,0.350070,-0.000000
2.590000,0.206394,-1.205987,-1.162818,2.748192,0.037743,-0.108709,-0.357427,0.611154,-1.469769,-3.911394,0.681752,1.012182,2.602414,7.510056,15.014693,0.054101,0.031677,0.000000,0.064481,0.348744,-0.000000
2.600000,0.233857,-1.205579,-1.163978,2.744422,0.043890,-0.123353,-0.396408,0.618345,-1.458898,-3.884628,0.755875,1.162041,2.733509,7.209731,14.997361,0.054783,0.035163,0.000000,0.071803,0.347396,0.000000
2.610000,0.261281,-1.205109,-1.165285,2.740264,0.050112,-0.137882,-0.435115,0.626256,-1.446525,-3.856689,0.825728,1.312582,2.861941,6.865501,14.984702,0.055536,0.038635,0.000000,0.078795,0.346073,-0.000000
2.620000,0.288661,-1.204576,-1.166736,2.735721,0.056417,-0.152279,-0.473537,0.634856,-1.432657,-3.827321,0.894082,1.460561,3.003134,6.691505,14.731244,0.056359,0.042095,0.000000,0.085692,0.344740,0.000000
2.630000,0.315994,-1.203980,-1.168330,2.730795,0.062812,-0.166530,-0.511658,0.644119,-1.417309,-3.796805,0.957179,1.609726,3.099381,5.918653,15.104025,0.057249,0.045541,0.000000,0.092182,0.343432,0.000000
2.640000,0.343276,-1.203320,-1.170066,2.725489,0.069302,-0.180620,-0.549469,0.653980,-1.400458,-3.765179,1.014514,1.760160,3.233530,5.651215,14.858837,0.058201,0.048975,0.000000,0.098225,0.342155,-0.000000
2.650000,0.370503,-1.202594,-1.171942,2.719806,0.075893,-0.194534,-0.586957,0.664402,-1.382117,-3.732213,1.069167,1.907910,3.351291,5.165629,14.811506,0.059213,0.052396,0.000000,0.104076,0.340870,-0.000000
2.660000,0.397671,-1.201802,-1.173956,2.713751,0.082591,-0.208257,-0.624109,0.675341,-1.362295,-3.698017,1.117631,2.056406,3.469087,4.640692,14.759419,0.060281,0.055804,0.000000,0.109443,0.339601,0.000000
2.670000,0.424777,-1.200942,-1.176106,2.707325,0.089402,-0.221775,-0.660915,0.686747,-1.341001,-3.663010,1.162968,2.201891,3.549867,4.306475,14.458372,0.061401,0.059200,0.000000,0.114581,0.338365,-0.000000
2.680000,0.451816,-1.200013,-1.178391,2.700534,0.096328,-0.235072,-0.697365,0.698576,-1.318254,-3.626651,1.201242,2.348109,3.721961,3.339817,14.786690,0.062570,0.062584,0.000000,0.119160,0.337131,-0.000000
2.690000,0.478786,-1.199015,-1.180807,2.693379,0.103374,-0.248135,-0.733443,0.710745,-1.294036,-3.588942,1.232001,2.495088,3.801477,2.923793,14.482274,0.063782,0.065956,0.000000,0.123139,0.335900,0.000000
2.700000,0.505683,-1.197945,-1.183352,2.685866,0.110544,-0.260948,-0.769141,0.723204,-1.268366,-3.550479,1.258642,2.638750,3.908955,2.284072,14.371252,0.065032,0.069316,0.000000,0.126797,0.334699,0.000000
2.710000,0.532502,-1.196803,-1.186025,2.677998,0.117839,-0.273498,-0.804449,0.735891,-1.241262,-3.510770,1.277566,2.781782,4.014751,1.614048,14.233857,0.066316,0.072664,0.000000,0.129827,0.333498,0.000000
2.720000,0.559241,-1.195588,-1.188821,2.669778,0.125262,-0.285769,-0.839355,0.748742,-1.212735,-3.470356,1.291927,2.923379,4.084836,1.140802,14.080169,0.067628,0.076001,0.000000,0.132505,0.332339,-0.000000
2.730000,0.585897,-1.194298,-1.191739,2.661212,0.132814,-0.297748,-0.873852,0.761701,-1.182800,-3.428723,1.297924,3.063273,4.241771,0.051724,13.894955,0.068963,0.079326,0.000000,0.134483,0.331171,0.000000
2.740000,0.612464,-1.192931,-1.194775,2.652303,0.140496,-0.309420,-0.907925,0.774671,-1.151476,-3.385877,1.295204,3.201239,4.309690,-0.483504,13.696255,0.070315,0.082640,0.000000,0.135722,0.329991,-0.000000
2.750000,0.638942,-1.191487,-1.197927,2.643055,0.148307,-0.320773,-0.941567,0.787590,-1.118782,-3.342393,1.287223,3.337103,4.403876,-1.229560,13.469916,0.071677,0.085943,0.000000,0.136529,0.328848,-0.000000
2.760000,0.665324,-1.189965,-1.201190,2.633473,0.156247,-0.331791,-0.974770,0.800385,-1.084745,-3.297946,1.270621,3.469888,4.492965,-1.992718,13.204163,0.073043,0.089234,0.000000,0.136586,0.327699,-0.000000
2.770000,0.691610,-1.188362,-1.204561,2.623561,0.164315,-0.342463,-1.007523,0.812984,-1.049384,-3.252471,1.248254,3.602212,4.593710,-2.579525,13.138273,0.074407,0.092514,0.000000,0.136161,0.326559,-0.000000
2.780000,0.717795,-1.186678,-1.208038,2.613324,0.172506,-0.352775,-1.039817,0.825320,-1.012716,-3.206245,1.216966,3.730088,4.650702,-3.682235,12.428359,0.075763,0.095783,0.000000,0.134935,0.325416,0.000000
2.790000,0.743875,-1.184912,-1.211616,2.602766,0.180820,-0.362713,-1.071645,0.837293,-0.974799,-3.159312,1.176555,3.853065,4.743107,-4.302409,12.281217,0.077103,0.099041,0.000000,0.132871,0.324264,0.000000
2.800000,0.769849,-1.183061,-1.215291,2.591893,0.189251,-0.372267,-1.103000,0.848833,-0.935658,-3.111460,1.130079,3.974603,4.818899,-5.090998,11.902733,0.078419,0.102288,0.000000,0.130263,0.323111,-0.000000
2.810000,0.795712,-1.181126,-1.219060,2.580708,0.197795,-0.381422,-1.133873,0.859864,-0.895327,-3.063034,1.074908,4.090742,4.889073,-5.879906,11.483303,0.079705,0.105523,0.000000,0.126830,0.321947,-0.000000
2.820000,0.821462,-1.179105,-1.222918,2.569217,0.206446,-0.390169,-1.164256,0.870310,-0.853844,-3.013476,1.013071,4.205669,4.999316,-6.547690,11.338504,0.080954,0.108747,0.000000,0.122778,0.320757,-0.000000
2.830000,0.847095,-1.176997,-1.226861,2.557424,0.215199,-0.398496,-1.194141,0.880097,-0.811236,-2.963534,0.942696,4.314083,4.987879,-7.527897,10.334169,0.082158,0.111959,0.000000,0.117878,0.319551,0.000000
2.840000,0.872609,-1.174801,-1.230886,2.545336,0.224045,-0.406391,-1.223526,0.889135,-0.767587,-2.913273,0.863780,4.415455,5.086583,-8.191745,10.095041,0.083308,0.115160,0.000000,0.112110,0.318323,0.000000
2.850000,0.898001,-1.172516,-1.234988,2.532956,0.232979,-0.413844,-1.252403,0.897352,-0.722932,-2.862007,0.778377,4.514523,5.143300,-8.947398,9.553934,0.084398,0.118348,0.000000,0.105685,0.317052,-0.000000
2.860000,0.923268,-1.170141,-1.239162,2.520289,0.241990,-0.420846,-1.280765,0.904676,-0.677322,-2.810370,0.685183,4.606421,5.196739,-9.683456,8.975303,0.085419,0.121523,0.000000,0.098428,0.315738,0.000000
2.870000,0.948406,-1.167676,-1.243403,2.507342,0.251069,-0.427387,-1.308607,0.911032,-0.630811,-2.757962,0.584820,4.695352,5.271556,-10.390634,8.655881,0.086364,0.124686,0.000000,0.090412,0.314384,-0.000000
2.880000,0.973414,-1.165119,-1.247708,2.494119,0.260207,-0.433459,-1.335923,0.916348,-0.583443,-2.705216,0.477339,4.776290,5.276759,-11.101613,7.522205,0.087225,0.127834,0.000000,0.081583,0.312965,0.000000
2.890000,0.998287,-1.162471,-1.252071,2.480625,0.269392,-0.439054,-1.362711,0.920555,-0.535315,-2.652179,0.362974,4.848737,5.343014,-11.761911,7.114002,0.087993,0.130969,0.000000,0.071940,0.311467,0.000000
2.900000,1.023025,-1.159731,-1.256487,2.466867,0.278614,-0.444163,-1.388964,0.923586,-0.486479,-2.598474,0.242154,4.917191,5.384732,-12.402063,6.421185,0.088661,0.134088,0.000000,0.061542,0.309903,-0.000000
2.910000,1.047624,-1.156899,-1.260952,2.452848,0.287860,-0.448781,-1.414679,0.925379,-0.437001,-2.544449,0.115448,4.977016,5.423971,-13.002499,5.694570,0.089221,0.137191,0.000000,0.050386,0.308238,0.000000
2.920000,1.072081,-1.153974,-1.265461,2.438575,0.297117,-0.452901,-1.439852,0.925870,-0.386951,-2.489970,-0.018411,5.032434,5.467806,-13.696567,5.233793,0.089666,0.140277,0.000000,0.038366,0.306503,-0.000000
2.930000,1.096395,-1.150957,-1.270009,2.424053,0.306373,-0.456518,-1.464478,0.924996,-0.336385,-2.435177,-0.156961,5.078439,5.490346,-14.004917,3.958783,0.089986,0.143345,0.000000,0.025658,0.304637,0.000000
2.940000,1.120562,-1.147847,-1.274590,2.409287,0.315612,-0.459628,-1.488554,0.922718,-0.285416,-2.380097,-0.299721,5.114594,5.528853,-14.607424,3.421098,0.090177,0.146394,0.000000,0.012287,0.302621,-0.000000
2.950000,1.144580,-1.144645,-1.279200,2.394283,0.324822,-0.462226,-1.512078,0.918981,-0.234108,-2.324640,-0.448396,5.145498,5.558883,-15.052988,2.604409,0.090229,0.149422,0.000000,-0.001890,0.300500,0.000000
2.960000,1.168446,-1.141350,-1.283833,2.379047,0.333987,-0.464309,-1.535047,0.913741,-0.182540,-2.268938,-0.600165,5.166583,5.586699,-15.440784,1.762016,0.090137,0.152428,0.000000,-0.016655,0.298209,-0.000000
2.970000,1.192160,-1.137965,-1.288484,2.363584,0.343092,-0.465876,-1.557456,0.906953,-0.130792,-2.212862,-0.758411,5.182087,5.622894,-16.056846,1.188392,0.089893,0.155410,0.000000,-0.032317,0.295788,-0.000000
2.980000,1.215717,-1.134489,-1.293149,2.347900,0.352121,-0.466925,-1.579303,0.898569,-0.078934,-2.156597,-0.918127,5.187198,5.629791,-15.873363,-0.172879,0.089489,0.158367,0.000000,-0.048443,0.293169,0.000000
2.990000,1.239117,-1.130923,-1.297821,2.332000,0.361058,-0.467455,-1.600587,0.888589,-0.027085,-2.100165,-1.078604,5.181583,5.661694,-16.357910,-0.802471,0.088923,0.161296,0.000000,-0.064972,0.290332,-0.000000
3.000000,1.262357,-1.127268,-1.302496,2.315890,0.369887,-0.467467,-1.621305,0.876978,0.024680,-2.043409,-1.243876,5.169851,5.683527,-16.543182,-1.694285,0.088187,0.164196,0.000000,-0.082276,0.287322,0.000000
3.010000,1.285434,-1.123526,-1.307168,2.299576,0.378592,-0.466962,-1.641455,0.863715,0.076276,-1.986489,-1.408842,5.147895,5.704039,-16.657980,-2.594441,0.087277,0.167064,0.000000,-0.099890,0.284075,-0.000000
3.020000,1.308348,-1.119697,-1.311833,2.283063,0.387156,-0.465942,-1.661034,0.848781,0.127616,-1.929298,-1.578846,5.118900,5.730370,-17.122414,-3.305075,0.086186,0.169898,0.000000,-0.118329,0.280620,0.000000
3.030000,1.331095,-1.115783,-1.316486,2.266357,0.395562,-0.464410,-1.680040,0.832147,0.178619,-1.871957,-1.746669,5.079688,5.737702,-16.425800,-4.540423,0.084910,0.172696,0.000000,-0.136898,0.276901,0.000000
3.040000,1.353674,-1.111786,-1.321120,2.249464,0.403793,-0.462371,-1.698473,0.813859,0.229174,-1.814475,-1.911433,5.030127,5.762124,-16.730180,-5.269979,0.083448,0.175455,0.000000,-0.155502,0.272901,0.000000
3.050000,1.376083,-1.107708,-1.325731,2.232390,0.411833,-0.459829,-1.716329,0.793904,0.279200,-1.756750,-2.079269,4.973445,5.779874,-16.614337,-6.165863,0.081797,0.178173,0.000000,-0.174735,0.268653,-0.000000
3.060000,1.398321,-1.103550,-1.330315,2.215139,0.419666,-0.456789,-1.733607,0.772290,0.328611,-1.698853,-2.243194,4.907253,5.798033,-16.422996,-7.049224,0.079954,0.180846,0.000000,-0.193898,0.264107,-0.000000
3.070000,1.420386,-1.099315,-1.334865,2.197719,0.427274,-0.453259,-1.750306,0.749026,0.377317,-1.640803,-2.409942,4.832698,5.813341,-16.662310,-7.880596,0.077917,0.183471,0.000000,-0.213665,0.259273,-0.000000
3.080000,1.442275,-1.095005,-1.339378,2.180135,0.434641,-0.449245,-1.766423,0.724112,0.425235,-1.582554,-2.570899,4.749248,5.836523,-15.511232,-8.807382,0.075682,0.186046,0.000000,-0.233141,0.254123,-0.000000
3.090000,1.463988,-1.090623,-1.343849,2.162393,0.441751,-0.444757,-1.781956,0.697633,0.472273,-1.524102,-2.725119,4.657034,5.852558,-15.579840,-9.610994,0.073256,0.188567,0.000000,-0.252199,0.248647,-0.000000
3.100000,1.485522,-1.086171,-1.348272,2.144498,0.448588,-0.439803,-1.796904,0.669602,0.518350,-1.465484,-2.880122,4.556920,5.872019,-15.154812,-10.429596,0.070636,0.191031,0.000000,-0.271602,0.242852,-0.000000
3.110000,1.506877,-1.081652,-1.352643,2.126457,0.455138,-0.434394,-1.811265,0.640057,0.563386,-1.406583,-3.027890,4.449049,5.893531,-14.659000,-11.214956,0.067826,0.193435,0.000000,-0.290484,0.236720,-0.000000
3.120000,1.528051,-1.077070,-1.356958,2.108275,0.461384,-0.428539,-1.825036,0.609040,0.607299,-1.347747,-3.175597,4.332023,5.888225,-14.611726,-12.113206,0.064825,0.195775,0.000000,-0.309588,0.230246,-0.000000
3.130000,1.549042,-1.072426,-1.361213,2.089958,0.467314,-0.422252,-1.838218,0.576577,0.650005,-1.288514,-3.314451,4.208402,5.958939,-13.142160,-12.603567,0.061637,0.198048,0.000000,-0.327936,0.223426,-0.000000
3.140000,1.569850,-1.067724,-1.365402,2.071512,0.472912,-0.415543,-1.850805,0.542786,0.691447,-1.228855,-3.443560,4.078594,5.958610,-12.935134,-13.425624,0.058270,0.200251,0.000000,-0.345393,0.216258,0.000000
3.150000,1.590472,-1.062969,-1.369522,2.052944,0.478165,-0.408427,-1.862796,0.507708,0.731548,-1.169215,-3.570744,3.940626,5.984059,-12.230292,-14.089215,0.054728,0.202380,0.000000,-0.362775,0.208740,0.000000
3.160000,1.610908,-1.058162,-1.373569,2.034258,0.483062,-0.400917,-1.874188,0.471407,0.770243,-1.109275,-3.688073,3.797337,6.009120,-11.468751,-14.704028,0.051018,0.204431,0.000000,-0.379179,0.200894,0.000000
3.170000,1.631157,-1.053309,-1.377539,2.015462,0.487589,-0.393027,-1.884980,0.433953,0.807464,-1.048986,-3.802201,3.645388,6.044467,-11.114912,-15.542648,0.047145,0.206401,0.000000,-0.395304,0.192637,0.000000
3.180000,1.651217,-1.048412,-1.381429,1.996561,0.491737,-0.384773,-1.895167,0.395401,0.843138,-0.988477,-3.905301,3.489485,6.057356,-9.491097,-15.626663,0.043116,0.208287,0.000000,-0.410240,0.184083,-0.000000
3.190000,1.671088,-1.043475,-1.385234,1.977561,0.495494,-0.376170,-1.904749,0.355888,0.877243,-0.927741,-3.996648,3.330241,6.094836,-9.009269,-16.352368,0.038945,0.210086,0.000000,-0.423865,0.175247,0.000000
3.200000,1.690768,-1.038503,-1.388951,1.958468,0.498852,-0.367233,-1.913721,0.315479,0.909717,-0.866614,-4.083356,3.163757,6.126247,-8.090504,-16.799492,0.034640,0.211793,0.000000,-0.436933,0.166021,-0.000000
3.210000,1.710257,-1.033500,-1.392577,1.939288,0.501801,-0.357981,-1.922080,0.274260,0.940514,-0.805069,-4.158783,2.995137,6.162099,-7.139077,-17.179394,0.030211,0.213407,0.000000,-0.448661,0.156523,-0.000000
3.220000,1.729554,-1.028469,-1.396109,1.920028,0.504335,-0.348429,-1.929823,0.232324,0.969586,-0.743557,-4.227418,2.817910,6.160859,-6.438917,-18.002908,0.025669,0.214924,0.000000,-0.459526,0.146652,-0.000000
3.230000,1.748657,-1.023414,-1.399545,1.900694,0.506446,-0.338595,-1.936948,0.189752,0.996873,-0.681421,-4.284447,2.640595,6.267368,-4.958866,-17.444085,0.021026,0.216340,0.000000,-0.468935,0.136542,-0.000000
3.240000,1.767567,-1.018341,-1.402881,1.881292,0.508128,-0.328497,-1.943449,0.146676,1.022403,-0.618613,-4.329456,2.464033,6.274086,-4.186027,-18.117502,0.016296,0.217655,0.000000,-0.476813,0.126218,0.000000
3.250000,1.786283,-1.013253,-1.406114,1.861827,0.509378,-0.318153,-1.949321,0.103185,1.046127,-0.555757,-4.366874,2.280601,6.317584,-3.150104,-18.304536,0.011493,0.218864,0.000000,-0.483635,0.115570,-0.000000
3.260000,1.804804,-1.008155,-1.409243,1.842307,0.510191,-0.307581,-1.954559,0.059378,1.068021,-0.491742,-4.392828,2.098196,6.373906,-2.105112,-18.429526,0.006629,0.219965,0.000000,-0.488933,0.104679,-0.000000
3.270000,1.823129,-1.003051,-1.412265,1.822738,0.510564,-0.296799,-1.959163,0.015358,1.088066,-0.429302,-4.409561,1.909769,6.222712,-1.176714,-18.994194,0.001718,0.220957,0.000000,-0.492939,0.093678,0.000000
3.280000,1.841258,-0.997945,-1.415178,1.803126,0.510497,-0.285826,-1.963138,-0.028775,1.106227,-0.365008,-4.415009,1.723801,6.639684,0.089203,-18.183369,-0.003225,0.221838,0.000000,-0.495395,0.082414,0.000000
3.290000,1.859191,-0.992842,-1.417981,1.783478,0.509989,-0.274680,-1.966455,-0.072903,1.122555,-0.298701,-4.409079,1.541128,6.512192,1.031388,-18.599515,-0.008185,0.222605,0.000000,-0.496288,0.070903,0.000000
3.300000,1.876928,-0.987747,-1.420671,1.763799,0.509040,-0.263381,-1.969119,-0.116927,1.137030,-0.233836,-4.393852,1.354145,6.570039,2.076995,-18.534392,-0.013146,0.223256,0.000000,-0.495831,0.059346,-0.000000
3.310000,1.894467,-0.982663,-1.423248,1.744097,0.507651,-0.251946,-1.971131,-0.160745,1.149649,-0.168495,-4.368157,1.169873,6.607987,3.102975,-18.427312,-0.018096,0.223792,0.000000,-0.493894,0.047721,-0.000000
3.320000,1.911810,-0.977595,-1.425710,1.724379,0.505826,-0.240394,-1.972479,-0.204252,1.160423,-0.100667,-4.331444,0.984691,6.850623,4.194870,-18.490402,-0.023019,0.224209,0.000000,-0.490409,0.035731,0.000000
3.330000,1.928955,-0.972548,-1.428056,1.704650,0.503568,-0.228744,-1.973148,-0.247343,1.169354,-0.033727,-4.285205,0.802545,6.533958,5.048235,-17.928177,-0.027900,0.224507,0.000000,-0.485551,0.023859,-0.000000
3.340000,1.945903,-0.967525,-1.430284,1.684918,0.500881,-0.217013,-1.973158,-0.289926,1.176487,0.032168,-4.229708,0.624014,6.752582,6.089145,-17.883694,-0.032726,0.224687,0.000000,-0.479364,0.012151,-0.000000
3.350000,1.962653,-0.962532,-1.432396,1.665189,0.497771,-0.205220,-1.972495,-0.331902,1.181834,0.100403,-4.163874,0.445959,6.787210,7.030712,-17.608643,-0.037482,0.224749,0.000000,-0.471727,0.000170,0.000000
3.360000,1.979206,-0.957571,-1.434389,1.645470,0.494245,-0.193382,-1.971145,-0.373180,1.185421,0.169800,-4.090477,0.272173,6.854050,7.913819,-17.286318,-0.042157,0.224691,0.000000,-0.462981,-0.011846,-0.000000
3.370000,1.995563,-0.952648,-1.436263,1.625768,0.490310,-0.181517,-1.969116,-0.413660,1.187277,0.235288,-4.003223,0.099029,6.474060,9.268543,-17.196887,-0.046735,0.224514,0.000000,-0.452410,-0.023416,-0.000000
3.380000,2.011722,-0.947766,-1.438019,1.606090,0.485975,-0.169642,-1.966426,-0.453229,1.187421,0.304118,-3.910745,-0.068716,7.298446,9.212367,-16.342087,-0.051202,0.224221,0.000000,-0.441039,-0.035208,-0.000000
3.390000,2.027684,-0.942930,-1.439656,1.586442,0.481249,-0.157774,-1.963020,-0.491862,1.185923,0.376572,-3.813796,-0.230534,6.958638,10.435534,-16.157468,-0.055554,0.223808,0.000000,-0.428983,-0.047226,-0.000000
3.400000,2.043451,-0.938143,-1.441174,1.566832,0.476141,-0.145929,-1.958911,-0.529459,1.182814,0.445251,-3.704428,-0.390568,7.008296,11.166490,-15.703950,-0.059776,0.223277,0.000000,-0.415334,-0.058750,-0.000000
3.410000,2.059021,-0.933408,-1.442575,1.547266,0.470663,-0.134123,-1.954108,-0.565941,1.178134,0.515438,-3.591048,-0.544454,7.035290,11.832882,-15.215027,-0.063859,0.222630,0.000000,-0.401100,-0.070242,0.000000
3.420000,2.074396,-0.928731,-1.443857,1.527752,0.464826,-0.122372,-1.948601,-0.601232,1.171930,0.586001,-3.464878,-0.696113,7.068320,13.072013,-14.972515,-0.067792,0.221869,0.000000,-0.385291,-0.081665,-0.000000
3.430000,2.089577,-0.924113,-1.445022,1.508297,0.458643,-0.110690,-1.942388,-0.635234,1.164236,0.656614,-3.336513,-0.840883,7.052502,12.583103,-13.973788,-0.071564,0.220994,0.000000,-0.369158,-0.092860,-0.000000
3.440000,2.104562,-0.919559,-1.446071,1.488907,0.452126,-0.099092,-1.935469,-0.667960,1.155137,0.727167,-3.206878,-0.978366,7.063694,13.659936,-13.661605,-0.075175,0.220008,0.000000,-0.352835,-0.103798,0.000000
3.450000,2.119355,-0.915072,-1.447005,1.469590,0.445288,-0.087591,-1.927844,-0.699329,1.144676,0.797781,-3.066232,-1.112859,7.049779,14.137593,-13.093320,-0.078616,0.218913,0.000000,-0.335223,-0.114593,-0.000000
3.460000,2.133955,-0.910654,-1.447823,1.450352,0.438144,-0.076202,-1.919519,-0.729282,1.132902,0.867110,-2.923752,-1.240974,7.002549,14.562449,-12.521892,-0.081879,0.217711,0.000000,-0.317400,-0.125010,-0.000000
3.470000,2.148362,-0.906310,-1.448529,1.431202,0.430707,-0.064938,-1.910489,-0.757773,1.119876,0.939524,-2.773195,-1.363210,7.294813,15.334547,-11.929560,-0.084961,0.216403,0.000000,-0.298698,-0.135536,-0.000000
3.480000,2.162579,-0.902041,-1.449123,1.412145,0.422994,-0.053809,-1.900739,-0.784744,1.105657,1.009113,-2.621556,-1.479664,6.614897,14.978532,-11.360541,-0.087853,0.214992,0.000000,-0.279910,-0.145523,-0.000000
3.490000,2.176605,-0.897851,-1.449606,1.393189,0.415018,-0.042828,-1.890319,-0.810205,1.090303,1.075481,-2.469620,-1.590291,6.841379,15.608303,-10.758644,-0.090559,0.213484,0.000000,-0.261141,-0.154928,-0.000000
3.500000,2.190443,-0.893741,-1.449980,1.374341,0.406795,-0.032006,-1.879218,-0.834111,1.073872,1.144322,-2.311320,-1.694881,6.739993,15.835887,-10.165495,-0.093074,0.211880,0.000000,-0.241753,-0.164367,0.000000
3.510000,2.204093,-0.889716,-1.450246,1.355607,0.398341,-0.021354,-1.867438,-0.856433,1.056418,1.211635,-2.152761,-1.795006,6.644392,16.011572,-9.602243,-0.095394,0.210183,0.000000,-0.222416,-0.173440,-0.000000
3.520000,2.217556,-0.885775,-1.450407,1.336994,0.389671,-0.010881,-1.854995,-0.877150,1.038011,1.276461,-1.989927,-1.884568,6.391947,16.407768,-8.561020,-0.097521,0.208398,0.000000,-0.202765,-0.181905,-0.000000
3.530000,2.230833,-0.881923,-1.450465,1.318509,0.380803,-0.000597,-1.841909,-0.896234,1.018734,1.340970,-1.827694,-1.971492,6.509513,16.026569,-8.832495,-0.099450,0.206528,0.000000,-0.183276,-0.190185,0.000000
3.540000,2.243926,-0.878160,-1.450420,1.300158,0.371752,0.009491,-1.828176,-0.913709,0.998587,1.405107,-1.666728,-2.056185,6.240800,16.299772,-7.855122,-0.101187,0.204576,0.000000,-0.164025,-0.198282,-0.000000
3.550000,2.256837,-0.874488,-1.450275,1.281948,0.362534,0.019372,-1.813818,-0.929557,0.977648,1.466365,-1.503046,-2.130769,6.081718,16.288584,-7.314258,-0.102730,0.202545,0.000000,-0.144667,-0.205751,-0.000000
3.560000,2.269566,-0.870910,-1.450033,1.263884,0.353166,0.029041,-1.798858,-0.943778,0.955977,1.525143,-1.341363,-2.202796,5.877808,16.221782,-6.799269,-0.104082,0.200440,0.000000,-0.125646,-0.212811,0.000000
3.570000,2.282115,-0.867425,-1.449695,1.245973,0.343664,0.038490,-1.783305,-0.956373,0.933633,1.585765,-1.177087,-2.264085,6.043328,16.450803,-5.745134,-0.105243,0.198265,0.000000,-0.106568,-0.219753,-0.000000
3.580000,2.294486,-0.864037,-1.449264,1.228220,0.334044,0.047712,-1.767160,-0.967333,0.910699,1.641744,-1.016174,-2.323717,5.143292,15.719491,-6.191766,-0.106215,0.196023,0.000000,-0.087974,-0.226083,-0.000000
3.590000,2.306680,-0.860745,-1.448742,1.210631,0.324323,0.056702,-1.750489,-0.976711,0.887161,1.692634,-0.859272,-2.382190,5.234573,15.832005,-5.216930,-0.107004,0.193720,0.000000,-0.069927,-0.231768,-0.000000
3.600000,2.318699,-0.857551,-1.448131,1.193212,0.314515,0.065453,-1.733300,-0.984511,0.863094,1.744663,-0.701166,-2.430528,4.967003,15.606343,-4.739636,-0.107613,0.191361,0.000000,-0.051980,-0.237293,-0.000000
3.610000,2.330545,-0.854455,-1.447434,1.175967,0.304638,0.073962,-1.715612,-0.990749,0.838562,1.792462,-0.546902,-2.474961,4.686725,15.345282,-4.243732,-0.108046,0.188949,0.000000,-0.034599,-0.242221,-0.000000
3.620000,2.342219,-0.851458,-1.446653,1.158901,0.294705,0.082223,-1.697452,-0.995450,0.813603,1.839239,-0.393408,-2.516311,4.572768,15.246832,-3.935788,-0.108306,0.186489,0.000000,-0.017448,-0.246919,-0.000000
3.630000,2.353723,-0.848561,-1.445790,1.142019,0.284734,0.090233,-1.678841,-0.998632,0.788256,1.881909,-0.244197,-2.551777,3.956211,14.587349,-3.156280,-0.108397,0.183984,0.000000,-0.000932,-0.251006,-0.000000
3.640000,2.365060,-0.845764,-1.444849,1.125326,0.274738,0.097987,-1.659829,-1.000350,0.762588,1.920215,-0.099703,-2.581339,3.797696,14.409463,-2.851207,-0.108327,0.181441,0.000000,0.014906,-0.254467,0.000000
3.650000,2.376230,-0.843066,-1.443831,1.108824,0.264732,0.105483,-1.640440,-1.000630,0.736637,1.957023,0.043038,-2.608049,3.467787,14.032460,-2.399901,-0.108100,0.178865,0.000000,0.030418,-0.257672,-0.000000
3.660000,2.387237,-0.840469,-1.442740,1.092518,0.254730,0.112719,-1.620705,-0.999505,0.710445,1.989338,0.181399,-2.629675,3.120363,13.638393,-1.963592,-0.107721,0.176260,0.000000,0.045305,-0.260269,-0.000000
3.670000,2.398081,-0.837972,-1.441578,1.076411,0.244746,0.119692,-1.600655,-0.997015,0.684055,2.020575,0.315752,-2.647712,3.002354,13.227286,-1.609711,-0.107195,0.173630,0.000000,0.059623,-0.262654,-0.000000
3.680000,2.408766,-0.835574,-1.440347,1.060506,0.234794,0.126400,-1.580311,-0.993204,0.657506,2.046768,0.445847,-2.661155,2.231352,12.788711,-1.080146,-0.106530,0.170979,0.000000,0.073347,-0.264398,-0.000000
3.690000,2.419292,-0.833275,-1.439051,1.044805,0.224886,0.132841,-1.559738,-0.988113,0.630847,2.067685,0.571510,-2.670095,2.075997,12.343256,-0.746927,-0.105731,0.168314,0.000000,0.086464,-0.265487,0.000000
3.700000,2.429663,-0.831076,-1.437691,1.029312,0.215036,0.139016,-1.538960,-0.981789,0.604114,2.087212,0.692655,-2.675838,1.705343,11.881651,-0.367336,-0.104803,0.165640,0.000000,0.098980,-0.266362,-0.000000
3.710000,2.439879,-0.828975,-1.436271,1.014027,0.205254,0.144924,-1.518009,-0.974274,0.577339,2.102406,0.809618,-2.678709,1.340394,11.419114,-0.025968,-0.103753,0.162959,0.000000,0.110946,-0.266726,-0.000000
3.720000,2.449944,-0.826971,-1.434793,0.998952,0.195554,0.150563,-1.496924,-0.965619,0.550566,2.114084,0.920177,-2.674722,0.988475,10.778879,0.642760,-0.102587,0.160278,0.000000,0.122087,-0.266602,0.000000
3.730000,2.459859,-0.825063,-1.433261,0.984089,0.185946,0.155935,-1.475740,-0.955882,0.523847,2.122040,1.027013,-2.669646,0.602988,10.590214,0.364193,-0.101312,0.157600,0.000000,0.132759,-0.266078,0.000000
3.740000,2.469626,-0.823251,-1.431676,0.969437,0.176440,0.161040,-1.454495,-0.945090,0.497174,2.126291,1.130192,-2.663886,0.254820,9.956421,0.965047,-0.099933,0.154930,0.000000,0.142975,-0.265164,0.000000
3.750000,2.479248,-0.821534,-1.430041,0.954999,0.167047,0.165879,-1.433225,-0.933301,0.470593,2.127097,1.226883,-2.651923,-0.099660,9.469669,1.245838,-0.098456,0.152272,0.000000,0.152388,-0.263803,0.000000
3.760000,2.488727,-0.819910,-1.428359,0.940773,0.157777,0.170452,-1.411964,-0.920563,0.444138,2.124549,1.320127,-2.638668,-0.443143,8.996361,1.511441,-0.096887,0.149630,0.000000,0.161375,-0.262093,-0.000000
3.770000,2.498064,-0.818378,-1.426633,0.926759,0.148639,0.174762,-1.390749,-0.906929,0.417837,2.117946,1.405128,-2.620742,-0.842557,8.181344,1.966226,-0.095232,0.147007,0.000000,0.169408,-0.259912,-0.000000
3.780000,2.507263,-0.816937,-1.424865,0.912958,0.139641,0.178810,-1.369615,-0.892468,0.391727,2.108432,1.487482,-2.601601,-1.057451,8.295252,1.856523,-0.093499,0.144409,0.000000,0.177111,-0.257438,0.000000
3.790000,2.516324,-0.815585,-1.423057,0.899367,0.130792,0.182597,-1.348589,-0.877186,0.365807,2.096160,1.567453,-2.581520,-1.428637,7.520234,2.264092,-0.091690,0.141837,0.000000,0.184519,-0.254695,0.000000
3.800000,2.525251,-0.814320,-1.421214,0.885985,0.122100,0.186127,-1.327705,-0.861148,0.340112,2.080189,1.639417,-2.557262,-1.729617,7.051855,2.479696,-0.089812,0.139295,0.000000,0.191023,-0.251542,0.000000
3.810000,2.534045,-0.813142,-1.419336,0.872812,0.113572,0.189400,-1.306991,-0.844408,0.314668,2.062122,1.708028,-2.531059,-2.004799,6.585502,2.698243,-0.087871,0.136786,0.000000,0.197133,-0.248181,0.000000
3.820000,2.542708,-0.812048,-1.417426,0.859845,0.105214,0.192421,-1.286481,-0.827010,0.289493,2.039010,1.770355,-2.503891,-2.495258,5.963655,2.792853,-0.085872,0.134314,0.000000,0.202563,-0.244327,0.000000
3.830000,2.551242,-0.811037,-1.415488,0.847082,0.097033,0.195191,-1.266214,-0.809012,0.264600,2.014785,1.829062,-2.473992,-2.343190,5.781305,3.187311,-0.083821,0.131882,0.000000,0.207576,-0.240363,-0.000000
3.840000,2.559650,-0.810107,-1.413523,0.834520,0.089036,0.197714,-1.246187,-0.790440,0.240023,1.989782,1.884320,-2.441371,-2.775307,5.187344,3.275632,-0.081722,0.129490,0.000000,0.212193,-0.236327,0.000000
3.850000,2.567933,-0.809256,-1.411535,0.822157,0.081226,0.199993,-1.226435,-0.771347,0.215774,1.960362,1.933542,-2.407995,-2.984705,4.741779,3.457132,-0.079580,0.127141,0.000000,0.216175,-0.231874,-0.000000
3.860000,2.576094,-0.808482,-1.409524,0.809990,0.073610,0.202031,-1.206979,-0.751782,0.191872,1.930583,1.978824,-2.371978,-3.161589,4.299313,3.638363,-0.077400,0.124837,0.000000,0.219723,-0.227397,-0.000000
3.870000,2.584134,-0.807783,-1.407495,0.798016,0.066192,0.203831,-1.187845,-0.731787,0.168332,1.895411,2.019401,-2.336236,-3.681788,3.833253,3.612205,-0.075187,0.122581,0.000000,0.222792,-0.222422,0.000000
3.880000,2.592055,-0.807157,-1.405448,0.786232,0.058976,0.205399,-1.169067,-0.711407,0.145158,1.860955,2.055849,-2.297587,-3.200466,3.458069,4.119407,-0.072945,0.120376,0.000000,0.225415,-0.217533,0.000000
3.890000,2.599859,-0.806603,-1.403388,0.774634,0.051965,0.206736,-1.150620,-0.690683,0.122391,1.827663,2.088267,-2.255968,-3.644657,3.010866,4.098572,-0.070680,0.118219,0.000000,0.227608,-0.212777,-0.000000
3.900000,2.607548,-0.806117,-1.401315,0.763218,0.045163,0.207848,-1.132533,-0.669657,0.100036,1.789734,2.116231,-2.214756,-3.749011,2.599376,4.246669,-0.068395,0.116112,0.000000,0.229362,-0.207606,0.000000
3.910000,2.615124,-0.805699,-1.399231,0.751982,0.038573,0.208738,-1.114823,-0.648371,0.078102,1.752032,2.140321,-2.171744,-3.841288,2.198267,4.377820,-0.066094,0.114056,0.000000,0.230721,-0.202487,-0.000000
3.920000,2.622588,-0.805345,-1.397140,0.740921,0.032197,0.209411,-1.097499,-0.626866,0.056607,1.712484,2.160029,-2.126999,-4.014440,1.765852,4.546038,-0.063782,0.112054,0.000000,0.231639,-0.197213,0.000000
3.930000,2.629943,-0.805054,-1.395044,0.730031,0.026036,0.209872,-1.080573,-0.605182,0.035565,1.672872,2.176111,-2.081347,-3.903568,1.452954,4.582279,-0.061462,0.110104,0.000000,0.232201,-0.191974,-0.000000
3.940000,2.637190,-0.804824,-1.392944,0.719308,0.020093,0.210124,-1.064041,-0.583355,0.014983,1.633436,2.188696,-2.034902,-4.032247,1.044390,4.729352,-0.059139,0.108207,0.000000,0.232425,-0.186795,0.000000
3.950000,2.644330,-0.804652,-1.390842,0.708749,0.014369,0.210173,-1.047910,-0.561422,-0.005128,1.592716,2.197215,-1.986987,-4.057433,0.682213,4.828161,-0.056815,0.106362,0.000000,0.232254,-0.181519,0.000000
3.960000,2.651365,-0.804536,-1.388741,0.698348,0.008865,0.210023,-1.032185,-0.539421,-0.024755,1.552271,2.202377,-1.938342,-4.065944,0.331481,4.918415,-0.054495,0.104570,0.000000,0.231766,-0.176313,-0.000000
3.970000,2.658297,-0.804474,-1.386642,0.688103,0.003581,0.209679,-1.016868,-0.517388,-0.043890,1.511109,2.203692,-1.888471,-4.128250,-0.046855,5.036234,-0.052181,0.102831,0.000000,0.230912,-0.171071,0.000000
3.980000,2.665128,-0.804463,-1.384548,0.678010,-0.001483,0.209147,-1.001961,-0.495358,-0.062523,1.470506,2.201896,-1.838026,-3.988677,-0.309712,5.050817,-0.049878,0.101144,0.000000,0.229772,-0.165927,0.000000
3.990000,2.671858,-0.804503,-1.382460,0.668063,-0.006326,0.208431,-0.987455,-0.473360,-0.080649,1.430658,2.197131,-1.787108,-4.014954,-0.661513,5.150074,-0.047587,0.099507,0.000000,0.228364,-0.160899,-0.000000
4.000000,2.678489,-0.804589,-1.380380,0.658259,-0.010950,0.207536,-0.973349,-0.451427,-0.098261,1.390556,2.188876,-1.735209,-3.966882,-0.967613,5.210519,-0.045311,0.097922,0.000000,0.226636,-0.155881,-0.000000
4.010000,2.685024,-0.804721,-1.378310,0.648595,-0.015355,0.206467,-0.959641,-0.429591,-0.115352,1.351240,2.177884,-1.682758,-3.906930,-1.259812,5.266629,-0.043055,0.096386,0.000000,0.224666,-0.150980,-0.000000
4.020000,2.691462,-0.804895,-1.376251,0.639065,-0.019542,0.205230,-0.946323,-0.407882,-0.131916,1.312340,2.163433,-1.630010,-3.858716,-1.598326,5.293433,-0.040819,0.094899,0.000000,0.222385,-0.146159,0.000000
4.030000,2.697805,-0.805111,-1.374206,0.629667,-0.023513,0.203831,-0.933391,-0.386330,-0.147950,1.274361,2.146591,-1.576667,-3.734869,-1.767013,5.374372,-0.038608,0.093460,0.000000,0.219900,-0.141466,-0.000000
4.040000,2.704056,-0.805365,-1.372175,0.620396,-0.027269,0.202273,-0.920832,-0.364957,-0.163447,1.237430,2.127522,-1.522780,-3.662083,-2.075298,5.390142,-0.036422,0.092067,0.000000,0.217229,-0.136911,0.000000
4.050000,2.710214,-0.805656,-1.370161,0.611249,-0.030813,0.200564,-0.908640,-0.343790,-0.178405,1.201251,2.105382,-1.468786,-3.558942,-2.320046,5.419378,-0.034264,0.090720,0.000000,0.214291,-0.132467,-0.000000
4.060000,2.716281,-0.805981,-1.368164,0.602222,-0.034146,0.198707,-0.896803,-0.322856,-0.192822,1.166224,2.081108,-1.414452,-3.446931,-2.552370,5.441870,-0.032136,0.089416,0.000000,0.211179,-0.128170,0.000000
4.070000,2.722258,-0.806338,-1.366187,0.593312,-0.037271,0.196709,-0.885312,-0.302177,-0.206694,1.132324,2.054193,-1.360009,-3.329949,-2.809500,5.449933,-0.030041,0.088155,0.000000,0.207843,-0.124019,-0.000000
4.080000,2.728148,-0.806725,-1.364231,0.584515,-0.040191,0.194575,-0.874153,-0.281779,-0.220021,1.099688,2.025360,-1.305387,-3.195886,-2.954520,5.473624,-0.027980,0.086934,0.000000,0.204357,-0.120024,-0.000000
4.090000,2.733949,-0.807141,-1.362296,0.575828,-0.042908,0.192310,-0.863313,-0.261676,-0.232801,1.068393,1.994756,-1.250642,-3.063867,-3.183703,5.470010,-0.025955,0.085753,0.000000,0.200734,-0.116191,0.000000
4.100000,2.739664,-0.807583,-1.360385,0.567247,-0.045425,0.189921,-0.852780,-0.241891,-0.245034,1.038447,1.961890,-1.195971,-2.922593,-3.368318,5.467361,-0.023966,0.084609,0.000000,0.196926,-0.112522,0.000000
4.110000,2.745294,-0.808049,-1.358498,0.558771,-0.047746,0.187411,-0.842540,-0.222443,-0.256721,1.009873,1.927400,-1.141426,-2.776996,-3.540532,5.457213,-0.022016,0.083501,0.000000,0.192998,-0.109018,0.000000
4.120000,2.750840,-0.808537,-1.356637,0.550396,-0.049875,0.184788,-0.832577,-0.203350,-0.267862,0.983066,1.891005,-1.086678,-2.598475,-3.724329,5.474111,-0.020107,0.082427,0.000000,0.188919,-0.105712,0.000000
4.130000,2.756303,-0.809046,-1.354803,0.542119,-0.051815,0.182056,-0.822874,-0.184628,-0.278456,0.957610,1.853205,-1.032326,-2.492492,-3.833500,5.394895,-0.018238,0.081386,0.000000,0.184740,-0.102568,-0.000000
4.140000,2.761683,-0.809573,-1.352996,0.533937,-0.053569,0.179221,-0.813420,-0.166290,-0.288510,0.933525,1.814131,-0.978449,-2.309199,-3.991483,5.397067,-0.016412,0.080375,0.000000,0.180473,-0.099587,-0.000000
4.150000,2.766982,-0.810116,-1.351219,0.525850,-0.055142,0.176288,-0.804197,-0.148351,-0.298025,0.911316,1.773516,-0.924549,-2.147478,-4.117455,5.364455,-0.014629,0.079393,0.000000,0.176091,-0.096812,0.000000
4.160000,2.772200,-0.810675,-1.349471,0.517853,-0.056537,0.173262,-0.795189,-0.130823,-0.307002,0.890590,1.731868,-0.871076,-1.984122,-4.230558,5.327971,-0.012891,0.078438,0.000000,0.171644,-0.094207,-0.000000
4.170000,2.777339,-0.811247,-1.347754,0.509945,-0.057760,0.170149,-0.786379,-0.113719,-0.315448,0.871762,1.688755,-0.818019,-1.794042,-4.370458,5.283953,-0.011197,0.077508,0.000000,0.167086,-0.091811,0.000000
4.180000,2.782399,-0.811830,-1.346068,0.502125,-0.058813,0.166955,-0.777749,-0.097050,-0.323364,0.854443,1.644909,-0.765383,-1.670173,-4.396280,5.242417,-0.009549,0.076601,0.000000,0.162491,-0.089585,0.000000
4.190000,2.787382,-0.812422,-1.344415,0.494390,-0.059702,0.163684,-0.769285,-0.080822,-0.330757,0.838622,1.600467,-0.713213,-1.480910,-4.510310,5.189564,-0.007947,0.075716,0.000000,0.157869,-0.087527,-0.000000
4.200000,2.792287,-0.813023,-1.342795,0.486738,-0.060431,0.160341,-0.760970,-0.065045,-0.337630,0.824721,1.554905,-0.661600,-1.313005,-4.580224,5.134285,-0.006392,0.074850,0.000000,0.153169,-0.085678,-0.000000
4.210000,2.797117,-0.813630,-1.341208,0.479170,-0.061005,0.156933,-0.752785,-0.049726,-0.343991,0.812419,1.508839,-0.610550,-1.145176,-4.640030,5.074958,-0.004884,0.074002,0.000000,0.148449,-0.084005,-0.000000
4.220000,2.801871,-0.814243,-1.339656,0.471682,-0.061427,0.153463,-0.744715,-0.034871,-0.349843,0.801835,1.462058,-0.560115,-0.973931,-4.706103,5.011404,-0.003423,0.073169,0.000000,0.143687,-0.082519,-0.000000
4.230000,2.806551,-0.814858,-1.338139,0.464275,-0.061704,0.149938,-0.736743,-0.020486,-0.355195,0.792888,1.414927,-0.510332,-0.815842,-4.718035,4.944567,-0.002010,0.072351,0.000000,0.138918,-0.081212,0.000000
4.240000,2.811157,-0.815476,-1.336658,0.456947,-0.061838,0.146361,-0.728852,-0.006573,-0.360052,0.785557,1.367557,-0.461238,-0.648551,-4.763004,4.873513,-0.000645,0.071544,0.000000,0.134151,-0.080081,-0.000000
4.250000,2.815690,-0.816095,-1.335212,0.449698,-0.061837,0.142738,-0.721026,0.006864,-0.364422,0.779891,1.319771,-0.412874,-0.487533,-4.784178,4.799091,0.000673,0.070748,0.000000,0.129366,-0.079130,-0.000000
4.260000,2.820151,-0.816713,-1.333803,0.442526,-0.061703,0.139074,-0.713250,0.019822,-0.368312,0.775659,1.271902,-0.365251,-0.332444,-4.796000,4.721710,0.001943,0.069961,0.000000,0.124597,-0.078337,0.000000
4.270000,2.824541,-0.817328,-1.332431,0.435433,-0.061442,0.135374,-0.705506,0.032301,-0.371730,0.773477,1.223807,-0.318478,-0.130682,-4.813835,4.635390,0.003165,0.069181,0.000000,0.119826,-0.077761,0.000000
4.280000,2.828860,-0.817941,-1.331096,0.428416,-0.061058,0.131641,-0.697777,0.044299,-0.374684,0.772486,1.175814,-0.272490,-0.068978,-4.783200,4.561798,0.004339,0.068405,0.000000,0.115084,-0.077317,-0.000000
4.290000,2.833109,-0.818549,-1.329798,0.421477,-0.060557,0.127881,-0.690053,0.055818,-0.377183,0.772610,1.128016,-0.227312,0.119262,-4.782843,4.470404,0.005467,0.067634,0.000000,0.110379,-0.076998,0.000000
4.300000,2.837290,-0.819152,-1.328538,0.414615,-0.059944,0.124099,-0.682318,0.066859,-0.379234,0.774628,1.080248,-0.183070,0.257878,-4.761670,4.381058,0.006547,0.066865,0.000000,0.105693,-0.076881,-0.000000
4.310000,2.841402,-0.819748,-1.327316,0.407831,-0.059222,0.120298,-0.674557,0.077424,-0.380847,0.777812,1.032793,-0.139711,0.391756,-4.732869,4.289344,0.007581,0.066096,0.000000,0.101053,-0.076893,-0.000000
4.320000,2.845447,-0.820336,-1.326132,0.401124,-0.058397,0.116483,-0.666756,0.087516,-0.382031,0.782571,0.985570,-0.097302,0.545774,-4.705845,4.193031,0.008568,0.065326,0.000000,0.096448,-0.077074,-0.000000
4.330000,2.849425,-0.820915,-1.324986,0.394496,-0.057473,0.112659,-0.658902,0.097137,-0.382796,0.788430,0.938797,-0.055833,0.624680,-4.647576,4.100519,0.009510,0.064554,0.000000,0.091899,-0.077379,0.000000
4.340000,2.853337,-0.821485,-1.323879,0.387946,-0.056455,0.108829,-0.650984,0.106294,-0.383151,0.795313,0.892546,-0.015322,0.764373,-4.606146,4.000143,0.010406,0.063778,0.000000,0.087412,-0.077799,-0.000000
4.350000,2.857184,-0.822044,-1.322810,0.381477,-0.055349,0.104997,-0.642991,0.114990,-0.383106,0.803572,0.846734,0.024173,0.874084,-4.550522,3.899787,0.011258,0.062997,0.000000,0.082976,-0.078368,-0.000000
4.360000,2.860967,-0.822592,-1.321779,0.375087,-0.054157,0.101168,-0.634910,0.123230,-0.382671,0.812749,0.801539,0.062664,0.976544,-4.489140,3.797654,0.012066,0.062210,0.000000,0.078609,-0.079043,-0.000000
4.370000,2.864686,-0.823127,-1.320786,0.368779,-0.052886,0.097345,-0.626731,0.131022,-0.381856,0.823230,0.756957,0.100116,1.102700,-4.424881,3.693003,0.012831,0.061416,0.000000,0.074308,-0.079861,-0.000000
4.380000,2.868342,-0.823649,-1.319832,0.362553,-0.051538,0.093532,-0.618443,0.138372,-0.380672,0.834444,0.713088,0.136528,1.138261,-4.348112,3.589259,0.013553,0.060613,0.000000,0.070081,-0.080765,0.000000
4.390000,2.871937,-0.824158,-1.318916,0.356410,-0.050120,0.089733,-0.610040,0.145287,-0.379129,0.846293,0.669983,0.171887,1.246460,-4.273469,3.481808,0.014233,0.059800,0.000000,0.065934,-0.081747,0.000000
4.400000,2.875471,-0.824651,-1.318037,0.350352,-0.048634,0.085951,-0.601513,0.151774,-0.377238,0.859206,0.627647,0.206168,1.319241,-4.191763,3.374222,0.014871,0.058977,0.000000,0.061864,-0.082848,-0.000000
4.410000,2.878945,-0.825130,-1.317197,0.344380,-0.047086,0.082189,-0.592854,0.157842,-0.375009,0.872630,0.586141,0.239409,1.383190,-4.106247,3.266271,0.015470,0.058143,0.000000,0.057878,-0.084015,0.000000
4.420000,2.882359,-0.825593,-1.316393,0.338496,-0.045478,0.078452,-0.584057,0.163500,-0.372454,0.887016,0.545558,0.271420,1.474303,-4.012232,3.143126,0.016029,0.057296,0.000000,0.053982,-0.085292,-0.000000
4.430000,2.885715,-0.826039,-1.315627,0.332700,-0.043817,0.074741,-0.575113,0.168756,-0.369584,0.901703,0.505859,0.302425,1.461221,-3.927073,3.057933,0.016550,0.056437,0.000000,0.050173,-0.086613,0.000000
4.440000,2.889013,-0.826469,-1.314899,0.326994,-0.042105,0.071061,-0.566022,0.173620,-0.366409,0.916583,0.467075,0.332426,1.531900,-3.826695,2.934801,0.017033,0.055564,0.000000,0.046453,-0.087968,0.000000
4.450000,2.892255,-0.826881,-1.314206,0.321380,-0.040346,0.067414,-0.556779,0.178101,-0.362940,0.932154,0.429314,0.361184,1.562408,-3.727431,2.823864,0.017479,0.054677,0.000000,0.042832,-0.089406,-0.000000
4.460000,2.895441,-0.827276,-1.313550,0.315859,-0.038544,0.063803,-0.547379,0.182210,-0.359189,0.947820,0.392524,0.388901,1.583856,-3.625854,2.712672,0.017890,0.053775,0.000000,0.039303,-0.090869,-0.000000
4.470000,2.898572,-0.827652,-1.312930,0.310433,-0.036703,0.060231,-0.537821,0.185956,-0.355166,0.963936,0.356844,0.415372,1.623784,-3.513909,2.588226,0.018266,0.052859,0.000000,0.035879,-0.092391,0.000000
4.480000,2.901650,-0.828010,-1.312345,0.305103,-0.034826,0.056701,-0.528101,0.189350,-0.350885,0.979969,0.322165,0.440805,1.580909,-3.421734,2.498345,0.018608,0.051927,0.000000,0.032551,-0.093920,-0.000000
4.490000,2.904675,-0.828348,-1.311796,0.299871,-0.032917,0.053214,-0.518222,0.192402,-0.346353,0.995812,0.288500,0.465204,1.600467,-3.306897,2.374681,0.018917,0.050980,0.000000,0.029317,-0.095445,-0.000000
4.500000,2.907648,-0.828668,-1.311281,0.294739,-0.030979,0.049774,-0.508184,0.195124,-0.341585,1.011816,0.255997,0.488355,1.585902,-3.197716,2.262283,0.019195,0.050018,0.000000,0.026193,-0.097002,0.000000
4.510000,2.910570,-0.828968,-1.310800,0.289708,-0.029015,0.046383,-0.497987,0.197526,-0.336590,1.027477,0.224530,0.510442,1.561801,-3.087960,2.149908,0.019441,0.049040,0.000000,0.023165,-0.098538,-0.000000
4.520000,2.913442,-0.829248,-1.310353,0.284780,-0.027029,0.043043,-0.487634,0.199619,-0.331380,1.043180,0.194309,0.531305,1.560698,-2.963315,2.027626,0.019658,0.048047,0.000000,0.020255,-0.100094,0.000000
4.530000,2.916266,-0.829509,-1.309939,0.279956,-0.025024,0.039756,-0.477126,0.201415,-0.325967,1.058311,0.165113,0.551102,1.463461,-2.876066,1.932035,0.019847,0.047038,0.000000,0.017439,-0.101607,0.000000
4.540000,2.919042,-0.829749,-1.309558,0.275238,-0.023002,0.036525,-0.466470,0.202924,-0.320362,1.072755,0.136936,0.569842,1.440620,-2.751991,1.810784,0.020007,0.046014,0.000000,0.014718,-0.103066,0.000000
4.550000,2.921771,-0.829969,-1.309208,0.270627,-0.020967,0.033350,-0.455671,0.204158,-0.314575,1.086958,0.110013,0.587362,1.380930,-2.640110,1.698405,0.020141,0.044976,0.000000,0.012113,-0.104514,0.000000
4.560000,2.924455,-0.830168,-1.308891,0.266125,-0.018920,0.030234,-0.444734,0.205128,-0.308618,1.100339,0.084116,0.603823,1.311088,-2.529090,1.586573,0.020250,0.043924,0.000000,0.009604,-0.105895,-0.000000
4.570000,2.927094,-0.830347,-1.308604,0.261733,-0.016865,0.027178,-0.433665,0.205845,-0.302502,1.113311,0.059523,0.619028,1.264926,-2.399425,1.461329,0.020334,0.042858,0.000000,0.007216,-0.107248,-0.000000
4.580000,2.929690,-0.830505,-1.308347,0.257452,-0.014804,0.024184,-0.422471,0.206322,-0.296241,1.125254,0.035919,0.633198,1.121680,-2.321871,1.372961,0.020395,0.041779,0.000000,0.004920,-0.108511,0.000000
4.590000,2.932243,-0.830643,-1.308120,0.253284,-0.012739,0.021254,-0.411164,0.206567,-0.289842,1.136057,0.013283,0.646345,1.054541,-2.195581,1.249456,0.020433,0.040687,0.000000,0.002712,-0.109673,0.000000
4.600000,2.934756,-0.830760,-1.307922,0.249229,-0.010673,0.018388,-0.399752,0.206592,-0.283318,1.146175,-0.008080,0.658247,0.950310,-2.087093,1.138068,0.020449,0.039585,0.000000,0.000623,-0.110778,0.000000
4.610000,2.937228,-0.830856,-1.307752,0.245289,-0.008608,0.015588,-0.388245,0.206408,-0.276680,1.155063,-0.028481,0.669096,0.837335,-1.980537,1.026933,0.020445,0.038472,0.000000,-0.001377,-0.111771,-0.000000
4.620000,2.939662,-0.830932,-1.307610,0.241464,-0.006546,0.012854,-0.376654,0.206027,-0.269940,1.163001,-0.047579,0.678742,0.737752,-1.851596,0.906867,0.020422,0.037349,0.000000,-0.003254,-0.112681,0.000000
4.630000,2.942058,-0.830987,-1.307494,0.237756,-0.004488,0.010189,-0.364990,0.205459,-0.263109,1.169556,-0.065776,0.687332,0.571541,-1.788427,0.811469,0.020381,0.036218,0.000000,-0.005049,-0.113462,-0.000000
4.640000,2.944417,-0.831022,-1.307406,0.234165,-0.002437,0.007593,-0.353268,0.204714,-0.256197,1.174632,-0.083104,0.694876,0.453860,-1.665122,0.692493,0.020321,0.035080,0.000000,-0.006763,-0.114104,-0.000000
4.650000,2.946742,-0.831036,-1.307342,0.230691,-0.000394,0.005065,-0.341501,0.203802,-0.249216,1.178508,-0.099187,0.701225,0.309049,-1.564401,0.581834,0.020246,0.033936,0.000000,-0.008361,-0.114635,-0.000000
4.660000,2.949032,-0.831030,-1.307304,0.227335,0.001638,0.002608,-0.329703,0.202733,-0.242176,1.180746,-0.114416,0.706537,0.155602,-1.466501,0.471767,0.020154,0.032787,0.000000,-0.009879,-0.115009,0.000000
4.670000,2.951289,-0.831003,-1.307290,0.224097,0.003660,0.000222,-0.317890,0.201518,-0.235089,1.181764,-0.128384,0.710580,0.029118,-1.342141,0.345290,0.020049,0.031636,0.000000,-0.011278,-0.115269,0.000000
4.680000,2.953514,-0.830957,-1.307299,0.220977,0.005668,-0.002093,-0.306074,0.200168,-0.227967,1.180932,-0.141574,0.713621,-0.197209,-1.296768,0.263197,0.019929,0.030482,0.000000,-0.012605,-0.115349,0.000000
4.690000,2.955709,-0.830890,-1.307332,0.217975,0.007663,-0.004337,-0.294278,0.198689,-0.220820,1.178157,-0.154028,0.715671,-0.341112,-1.179505,0.138151,0.019797,0.029329,0.000000,-0.013864,-0.115239,0.000000
4.700000,2.957874,-0.830804,-1.307386,0.215091,0.009642,-0.006510,-0.282516,0.197091,-0.213658,1.173939,-0.165296,0.716460,-0.521588,-1.089382,0.027757,0.019652,0.028177,0.000000,-0.015010,-0.114989,-0.000000
4.710000,2.960011,-0.830697,-1.307461,0.212325,0.011604,-0.008610,-0.270806,0.195385,-0.206494,1.167671,-0.175851,0.716228,-0.709747,-1.002644,-0.082704,0.019497,0.027029,0.000000,-0.016089,-0.114536,-0.000000
4.720000,2.962121,-0.830571,-1.307558,0.209675,0.013549,-0.010639,-0.259167,0.193579,-0.199338,1.159939,-0.185177,0.714727,-0.860207,-0.881753,-0.209408,0.019331,0.025887,0.000000,-0.017050,-0.113939,0.000000
4.730000,2.964205,-0.830426,-1.307674,0.207141,0.015475,-0.012597,-0.247615,0.191683,-0.192203,1.149976,-0.193888,0.712211,-1.134064,-0.861309,-0.293543,0.019156,0.024751,0.000000,-0.017954,-0.113119,-0.000000
4.740000,2.966264,-0.830262,-1.307809,0.204722,0.017382,-0.014484,-0.236175,0.189703,-0.185097,1.137697,-0.202030,0.708687,-1.299817,-0.748429,-0.419623,0.018972,0.023625,0.000000,-0.018805,-0.112067,-0.000000
4.750000,2.968300,-0.830079,-1.307963,0.202417,0.019269,-0.016299,-0.224866,0.187647,-0.178033,1.123779,-0.209022,0.703886,-1.508031,-0.669530,-0.532374,0.018780,0.022510,0.000000,-0.019545,-0.110850,0.000000
4.760000,2.970313,-0.829877,-1.308135,0.200225,0.021135,-0.018044,-0.213707,0.185524,-0.171023,1.107568,-0.215483,0.698053,-1.720885,-0.594534,-0.645263,0.018581,0.021408,0.000000,-0.020234,-0.109401,-0.000000
4.770000,2.972304,-0.829656,-1.308324,0.198143,0.022980,-0.019720,-0.202720,0.183342,-0.164077,1.089478,-0.220657,0.690878,-1.911290,-0.468061,-0.779448,0.018376,0.020322,0.000000,-0.020798,-0.107760,0.000000
4.780000,2.974276,-0.829417,-1.308529,0.196170,0.024802,-0.021326,-0.191926,0.181112,-0.157209,1.069047,-0.225429,0.682682,-2.175826,-0.487505,-0.859686,0.018165,0.019253,0.000000,-0.021324,-0.105881,0.000000
4.790000,2.976228,-0.829160,-1.308750,0.194303,0.026602,-0.022864,-0.181348,0.178834,-0.150427,1.046227,-0.229853,0.673467,-2.374892,-0.369624,-0.994190,0.017950,0.018205,0.000000,-0.021818,-0.103756,0.000000
4.800000,2.978162,-0.828885,-1.308986,0.192542,0.028378,-0.024335,-0.171007,0.176519,-0.143744,1.021426,-0.233062,0.662883,-2.599224,-0.300162,-1.112183,0.017729,0.017179,0.000000,-0.022192,-0.101427,0.000000
4.810000,2.980079,-0.828593,-1.309237,0.190882,0.030132,-0.025740,-0.160928,0.174173,-0.137172,0.994152,-0.236017,0.651321,-2.828250,-0.235721,-1.229248,0.017506,0.016177,0.000000,-0.022543,-0.098843,0.000000
4.820000,2.981980,-0.828283,-1.309501,0.189322,0.031862,-0.027079,-0.151130,0.171806,-0.130724,0.965094,-0.237268,0.638030,-3.008957,-0.068310,-1.401747,0.017279,0.015202,0.000000,-0.022724,-0.096072,-0.000000
4.830000,2.983866,-0.827956,-1.309778,0.187859,0.033568,-0.028355,-0.141635,0.169428,-0.124414,0.933436,-0.238511,0.623860,-3.323299,-0.181930,-1.431669,0.017051,0.014256,0.000000,-0.022906,-0.093032,0.000000
4.840000,2.985738,-0.827611,-1.310068,0.186489,0.035250,-0.029568,-0.132470,0.167035,-0.118249,0.899142,-0.239818,0.608827,-3.509836,-0.025084,-1.603411,0.016821,0.013342,0.000000,-0.023095,-0.089717,-0.000000
4.850000,2.987596,-0.827251,-1.310369,0.185208,0.036909,-0.030720,-0.123657,0.164638,-0.112244,0.863024,-0.239471,0.592023,-3.739344,0.040744,-1.730438,0.016590,0.012462,0.000000,-0.023119,-0.086210,0.000000
4.860000,2.989442,-0.826873,-1.310682,0.184014,0.038543,-0.031813,-0.115218,0.162246,-0.106413,0.824496,-0.238710,0.574060,-3.965962,0.111584,-1.862628,0.016359,0.011618,0.000000,-0.023102,-0.082450,-0.000000
4.870000,2.991277,-0.826480,-1.311005,0.182903,0.040154,-0.032849,-0.107175,0.159866,-0.100767,0.783710,-0.237232,0.554758,-4.190726,0.184464,-1.998405,0.016128,0.010814,0.000000,-0.023013,-0.078452,-0.000000
4.880000,2.993101,-0.826070,-1.311339,0.181869,0.041740,-0.033829,-0.099551,0.157504,-0.095322,0.740689,-0.235013,0.534079,-4.413037,0.259879,-2.138084,0.015899,0.010050,0.000000,-0.022850,-0.074218,0.000000
4.890000,2.994914,-0.825645,-1.311682,0.180910,0.043304,-0.034756,-0.092369,0.155168,-0.090090,0.695460,-0.232024,0.511982,-4.632308,0.338320,-2.281966,0.015671,0.009330,0.000000,-0.022609,-0.069751,-0.000000
4.900000,2.996719,-0.825204,-1.312034,0.180020,0.044844,-0.035632,-0.085649,0.152866,-0.085087,0.648056,-0.228235,0.488424,-4.847811,0.420231,-2.430432,0.015447,0.008656,0.000000,-0.022288,-0.065053,-0.000000
4.910000,2.998515,-0.824748,-1.312394,0.179195,0.046361,-0.036459,-0.079415,0.150606,-0.080327,0.598518,-0.223607,0.463358,-5.059073,0.506167,-2.583738,0.015226,0.008029,0.000000,-0.021882,-0.060128,0.000000
4.920000,3.000303,-0.824277,-1.312763,0.178430,0.047856,-0.037239,-0.073686,0.148397,-0.075825,0.546891,-0.218097,0.436732,-5.265439,0.596598,-2.742220,0.015010,0.007454,0.000000,-0.021387,-0.054982,-0.000000
4.930000,3.002084,-0.823791,-1.313139,0.177720,0.049329,-0.037976,-0.068483,0.146248,-0.071598,0.493228,-0.211658,0.408495,-5.466288,0.692037,-2.906178,0.014799,0.006930,0.000000,-0.020797,-0.049619,-0.000000
4.940000,3.003858,-0.823291,-1.313522,0.177059,0.050781,-0.038672,-0.063828,0.144167,-0.067661,0.437586,-0.204237,0.378589,-5.660966,0.793039,-3.075894,0.014594,0.006462,0.000000,-0.020108,-0.044046,0.000000
4.950000,3.005625,-0.822776,-1.313912,0.176442,0.052213,-0.039330,-0.059738,0.142166,-0.064032,0.380030,-0.195781,0.346954,-5.849046,0.899711,-3.251958,0.014397,0.006050,0.000000,-0.019314,-0.038270,-0.000000
4.960000,3.007387,-0.822246,-1.314309,0.175862,0.053625,-0.039954,-0.056233,0.140255,-0.060728,0.320629,-0.186223,0.313528,-6.029726,1.013001,-3.434356,0.014208,0.005697,0.000000,-0.018408,-0.032298,0.000000
4.970000,3.009142,-0.821703,-1.314711,0.175315,0.055018,-0.040546,-0.053331,0.138446,-0.057767,0.259462,-0.175498,0.278244,-6.202445,1.133236,-3.623531,0.014029,0.005405,0.000000,-0.017384,-0.026138,0.000000
4.980000,3.010893,-0.821146,-1.315120,0.174793,0.056394,-0.041110,-0.051050,0.136749,-0.055169,0.196609,-0.163533,0.241034,-6.366543,1.260923,-3.819795,0.013861,0.005175,0.000000,-0.016233,-0.019801,0.000000
4.990000,3.012638,-0.820575,-1.315533,0.174292,0.057754,-0.041651,-0.049405,0.135179,-0.052953,0.132162,-0.150253,0.201824,-6.521314,1.396587,-4.023450,0.013705,0.005009,0.000000,-0.014950,-0.013296,0.000000
5.000000,3.014379,-0.819991,-1.315953,0.173803,0.059098,-0.042171,-0.048411,0.133749,-0.051140,0.066217,-0.135573,0.160539,-6.666006,1.540791,-4.234776,0.013562,0.004909,0.000000,-0.013524,-0.006634,-0.000000
