time,x,y,z,vx,vy,vz,ax,ay,az,jx,jy,jz,sx,sy,sz,roll,pitch,yaw,p,q,r
0.000000,-3.022842,0.833797,-1.313276,-0.003005,0.005575,0.000898,0.324226,-0.180887,-0.109560,-5.482826,1.389731,3.038666,169.580506,-1.966391,-68.439169,-0.018224,-0.032674,0.000000,0.134075,0.542047,-0.000000
0.010000,-3.022856,0.833844,-1.313272,-0.000009,0.003836,-0.000057,0.277482,-0.167107,-0.082424,-3.904505,1.364686,2.405252,146.443085,-3.018333,-58.419776,-0.016884,-0.028043,0.000000,0.133571,0.387516,0.000000
0.020000,-3.022843,0.833874,-1.313276,0.002594,0.002232,-0.000770,0.245400,-0.153626,-0.061139,-2.546948,1.329836,1.866837,125.410552,-3.928619,-49.430296,-0.015557,-0.024855,0.000000,0.131606,0.253131,-0.000000
0.030000,-3.022805,0.833889,-1.313287,0.004941,0.000762,-0.001296,0.225876,-0.140538,-0.044804,-1.389614,1.286560,1.413393,106.381784,-4.704975,-41.416582,-0.014256,-0.022916,0.000000,0.128401,0.137635,-0.000000
0.040000,-3.022745,0.833889,-1.313302,0.007147,-0.000580,-0.001680,0.217005,-0.127919,-0.032619,-0.412970,1.236157,1.035433,89.255650,-5.355154,-34.324502,-0.012993,-0.022044,0.000000,0.124163,0.039615,0.000000
0.050000,-3.022663,0.833877,-1.313320,0.009311,-0.001798,-0.001960,0.217076,-0.115834,-0.023874,0.401509,1.179855,0.724010,73.931515,-5.886513,-28.100047,-0.011776,-0.022071,0.000000,0.119077,-0.042431,-0.000000
0.060000,-3.022559,0.833854,-1.313341,0.011513,-0.002899,-0.002167,0.224554,-0.104338,-0.017945,1.071330,1.118798,0.470721,60.307682,-6.307175,-22.688907,-0.010613,-0.022845,0.000000,0.113314,-0.110039,-0.000000
0.070000,-3.022432,0.833820,-1.313363,0.013822,-0.003887,-0.002327,0.238075,-0.093471,-0.014292,1.612994,1.054056,0.267701,48.283274,-6.624690,-18.037015,-0.009511,-0.024229,0.000000,0.107028,-0.164740,-0.000000
0.080000,-3.022282,0.833776,-1.313387,0.016291,-0.004770,-0.002459,0.256438,-0.083266,-0.012448,2.041990,0.986622,0.107630,37.757141,-6.846776,-14.090217,-0.008474,-0.026101,0.000000,0.100357,-0.208027,-0.000000
0.090000,-3.022106,0.833725,-1.313413,0.018963,-0.005555,-0.002580,0.278588,-0.073744,-0.012019,2.372794,0.917412,-0.016273,28.628035,-6.981161,-10.794303,-0.007505,-0.028356,0.000000,0.093425,-0.241331,-0.000000
0.100000,-3.021902,0.833666,-1.313439,0.021872,-0.006248,-0.002703,0.303612,-0.064920,-0.012674,2.618879,0.847267,-0.110249,20.795776,-7.035356,-8.095507,-0.006606,-0.030899,0.000000,0.086340,-0.266009,-0.000000
0.110000,-3.021667,0.833600,-1.313467,0.025042,-0.006856,-0.002837,0.330725,-0.056799,-0.014143,2.792696,0.776947,-0.179993,14.158190,-7.017298,-5.939280,-0.005778,-0.033652,0.000000,0.079199,-0.283326,0.000000
0.120000,-3.021400,0.833529,-1.313496,0.028491,-0.007386,-0.002988,0.359263,-0.049380,-0.016210,2.905690,0.707137,-0.230663,8.614570,-6.934603,-4.271638,-0.005022,-0.036545,0.000000,0.072086,-0.294452,-0.000000
0.130000,-3.021096,0.833453,-1.313526,0.032230,-0.007846,-0.003162,0.388671,-0.042653,-0.018708,2.968296,0.638445,-0.266874,4.063789,-6.794975,-3.038446,-0.004336,-0.039524,0.000000,0.065074,-0.300456,0.000000
0.140000,-3.020754,0.833372,-1.313559,0.036266,-0.008241,-0.003363,0.418492,-0.036605,-0.021513,2.989938,0.571402,-0.292699,0.404614,-6.606118,-2.185565,-0.003720,-0.042541,0.000000,0.058225,-0.302301,0.000000
0.150000,-3.020370,0.833288,-1.313594,0.040600,-0.008580,-0.003593,0.448361,-0.031218,-0.024539,2.979023,0.506461,-0.311672,-2.464413,-6.375747,-1.658844,-0.003171,-0.045559,0.000000,0.051588,-0.300843,-0.000000
0.160000,-3.019941,0.833201,-1.313631,0.045232,-0.008868,-0.003854,0.477989,-0.026468,-0.027734,2.942969,0.444000,-0.326783,-4.642092,-6.111507,-1.404201,-0.002687,-0.048549,0.000000,0.045207,-0.296835,-0.000000
0.170000,-3.019464,0.833111,-1.313671,0.050159,-0.009111,-0.004148,0.507158,-0.022329,-0.031070,2.888149,0.384318,-0.340482,-6.232257,-5.821164,-1.367470,-0.002266,-0.051489,0.000000,0.039113,-0.290923,-0.000000
0.180000,-3.018937,0.833019,-1.313714,0.055374,-0.009316,-0.004476,0.535708,-0.018772,-0.034545,2.819949,0.327638,-0.354679,-7.334957,-5.512399,-1.494553,-0.001904,-0.054363,0.000000,0.033330,-0.283647,-0.000000
0.190000,-3.018356,0.832925,-1.313761,0.060870,-0.009489,-0.004840,0.563527,-0.015765,-0.038170,2.742738,0.274106,-0.370739,-8.051189,-5.192916,-1.731372,-0.001598,-0.057159,0.000000,0.027873,-0.275446,-0.000000
0.200000,-3.017719,0.832829,-1.313811,0.066641,-0.009633,-0.005240,0.590544,-0.013279,-0.041969,2.659869,0.223790,-0.389487,-8.482752,-4.870421,-2.023392,-0.001345,-0.059870,0.000000,0.022749,-0.266655,-0.000000
0.210000,-3.017022,0.832732,-1.313866,0.072677,-0.009756,-0.005679,0.616324,-0.011317,-0.045717,2.484603,0.167931,-0.353437,-10.490989,-4.725585,-1.174929,-0.001146,-0.062453,0.000000,0.017065,-0.248882,0.000000
0.220000,-3.016264,0.832634,-1.313925,0.078965,-0.009861,-0.006156,0.641476,-0.009787,-0.049855,2.598237,0.143764,-0.508726,17.668182,-1.638226,-19.782669,-0.000991,-0.064968,0.000000,0.014618,-0.259063,0.000000
0.230000,-3.015442,0.832535,-1.313989,0.085511,-0.009952,-0.006682,0.667506,-0.008508,-0.055394,2.511411,0.103031,-0.537010,-35.500139,-6.557238,14.443672,-0.000860,-0.067558,0.000000,0.010481,-0.249741,-0.000000
0.240000,-3.014553,0.832435,-1.314059,0.092305,-0.010033,-0.007260,0.690845,-0.007801,-0.060045,2.203668,0.043548,-0.424124,-10.308194,-3.795722,-2.060729,-0.000788,-0.069880,0.000000,0.004447,-0.219187,0.000000
0.250000,-3.013595,0.832334,-1.314134,0.099324,-0.010110,-0.007883,0.712774,-0.007511,-0.064656,2.172057,0.013988,-0.491619,-11.669770,-3.656184,-1.274089,-0.000759,-0.072057,0.000000,0.001462,-0.215248,-0.000000
0.260000,-3.012566,0.832233,-1.314216,0.106558,-0.010185,-0.008554,0.733872,-0.007549,-0.069637,2.046199,-0.021207,-0.504440,-12.085424,-3.416601,-1.154242,-0.000762,-0.074145,0.000000,-0.002090,-0.202204,-0.000000
0.270000,-3.011464,0.832130,-1.314305,0.113997,-0.010262,-0.009276,0.753799,-0.007930,-0.074729,1.943540,-0.054656,-0.513467,-9.789729,-3.240737,-0.785067,-0.000800,-0.076112,0.000000,-0.005460,-0.191545,0.000000
0.280000,-3.010286,0.832027,-1.314402,0.121630,-0.010344,-0.010049,0.772670,-0.008633,-0.079908,1.822168,-0.085340,-0.522954,-14.513857,-2.894995,-1.117735,-0.000870,-0.077969,0.000000,-0.008545,-0.179021,-0.000000
0.290000,-3.009030,0.831923,-1.314507,0.129446,-0.010435,-0.010874,0.790166,-0.009627,-0.085192,1.680993,-0.113215,-0.533158,-12.337960,-2.712866,-0.790209,-0.000970,-0.079684,0.000000,-0.011340,-0.164528,-0.000000
0.300000,-3.007696,0.831819,-1.314620,0.137430,-0.010538,-0.011753,0.806395,-0.010892,-0.090558,1.563990,-0.139316,-0.539922,-12.418860,-2.474503,-0.697480,-0.001096,-0.081270,0.000000,-0.013952,-0.152516,-0.000000
0.310000,-3.006281,0.831713,-1.314742,0.145570,-0.010654,-0.012686,0.821399,-0.012402,-0.095993,1.436444,-0.162370,-0.547109,-12.425955,-2.227445,-0.617717,-0.001248,-0.082730,0.000000,-0.016252,-0.139469,-0.000000
0.320000,-3.004784,0.831606,-1.314874,0.153853,-0.010787,-0.013673,0.835177,-0.014138,-0.101487,1.321647,-0.184704,-0.551173,-11.157783,-2.150379,-0.315340,-0.001421,-0.084065,0.000000,-0.018475,-0.127752,0.000000
0.330000,-3.003204,0.831497,-1.315016,0.162269,-0.010938,-0.014716,0.847805,-0.016084,-0.107020,1.200162,-0.203511,-0.555942,-13.151321,-1.608099,-0.643437,-0.001616,-0.085282,0.000000,-0.020340,-0.115384,-0.000000
0.340000,-3.001538,0.831387,-1.315168,0.170805,-0.011109,-0.015814,0.859152,-0.018196,-0.112610,1.071571,-0.218658,-0.561652,-11.920858,-1.510675,-0.379223,-0.001827,-0.086370,0.000000,-0.021835,-0.102325,0.000000
0.350000,-2.999787,0.831275,-1.315332,0.179448,-0.011302,-0.016968,0.869292,-0.020456,-0.118242,0.956441,-0.232964,-0.564571,-11.735607,-1.260690,-0.325362,-0.002053,-0.087335,0.000000,-0.023242,-0.090661,0.000000
0.360000,-2.997949,0.831161,-1.315508,0.188187,-0.011518,-0.018179,0.878264,-0.022843,-0.123904,0.838212,-0.243968,-0.567886,-11.517940,-1.007967,-0.276288,-0.002291,-0.088182,0.000000,-0.024317,-0.078709,0.000000
0.370000,-2.996023,0.831044,-1.315696,0.197010,-0.011759,-0.019446,0.886095,-0.025332,-0.129593,0.729743,-0.253746,-0.569542,-10.546324,-0.881731,-0.116062,-0.002539,-0.088913,0.000000,-0.025267,-0.067771,0.000000
0.380000,-2.994009,0.830925,-1.315897,0.205906,-0.012025,-0.020771,0.892851,-0.027906,-0.135296,0.619496,-0.260219,-0.571487,-11.510554,-0.410734,-0.275392,-0.002795,-0.089536,0.000000,-0.025885,-0.056675,0.000000
0.390000,-2.991905,0.830804,-1.316111,0.214863,-0.012317,-0.022152,0.898476,-0.030525,-0.141024,0.507206,-0.263295,-0.573842,-10.564703,-0.271006,-0.135422,-0.003055,-0.090046,0.000000,-0.026163,-0.045393,0.000000
0.400000,-2.989711,0.830679,-1.316340,0.223871,-0.012636,-0.023591,0.903035,-0.033169,-0.146767,0.405044,-0.265075,-0.574725,-10.241063,-0.019058,-0.101729,-0.003318,-0.090448,0.000000,-0.026311,-0.035156,0.000000
0.410000,-2.987427,0.830551,-1.316583,0.232920,-0.012981,-0.025087,0.906574,-0.035816,-0.152519,0.303177,-0.263844,-0.575627,-9.899942,0.231267,-0.067397,-0.003580,-0.090749,0.000000,-0.026159,-0.024967,0.000000
0.420000,-2.985053,0.830419,-1.316842,0.242000,-0.013352,-0.026641,0.909129,-0.038440,-0.158278,0.209211,-0.260765,-0.575970,-9.113428,0.416949,-0.012706,-0.003840,-0.090951,0.000000,-0.025824,-0.015588,-0.000000
0.430000,-2.982587,0.830284,-1.317116,0.251100,-0.013749,-0.028253,0.910760,-0.041021,-0.164038,0.116277,-0.254826,-0.576119,-9.478153,0.771628,-0.017377,-0.004096,-0.091061,0.000000,-0.025204,-0.006331,-0.000000
0.440000,-2.980031,0.830144,-1.317407,0.260212,-0.014172,-0.029922,0.911455,-0.043527,-0.169800,0.024195,-0.246004,-0.576090,-8.711657,0.959241,0.034671,-0.004343,-0.091077,0.000000,-0.024298,0.002824,-0.000000
0.450000,-2.977383,0.830000,-1.317715,0.269326,-0.014620,-0.031649,0.911275,-0.045936,-0.175558,-0.059829,-0.235371,-0.575518,-8.316084,1.199599,0.068533,-0.004581,-0.091007,0.000000,-0.023214,0.011158,0.000000
0.460000,-2.974644,0.829852,-1.318040,0.278434,-0.015091,-0.033433,0.910264,-0.048226,-0.181308,-0.141661,-0.222181,-0.574503,-7.912905,1.434399,0.107866,-0.004807,-0.090855,0.000000,-0.021877,0.019257,-0.000000
0.470000,-2.971814,0.829698,-1.318384,0.287529,-0.015584,-0.035275,0.908466,-0.050372,-0.187049,-0.216812,-0.206729,-0.573601,-7.248259,1.658559,0.099247,-0.005018,-0.090625,0.000000,-0.020318,0.026681,0.000000
0.480000,-2.968894,0.829540,-1.318746,0.296601,-0.016097,-0.037174,0.905935,-0.052353,-0.192778,-0.289379,-0.188959,-0.571958,-7.268474,1.894655,0.230617,-0.005212,-0.090322,0.000000,-0.018531,0.033831,-0.000000
0.490000,-2.965882,0.829376,-1.319128,0.305645,-0.016630,-0.039131,0.902685,-0.054144,-0.198485,-0.359497,-0.168919,-0.569505,-6.621299,2.108959,0.234302,-0.005388,-0.089949,0.000000,-0.016522,0.040720,0.000000
0.500000,-2.962781,0.829207,-1.319529,0.314653,-0.017180,-0.041144,0.898770,-0.055724,-0.204168,-0.422912,-0.146772,-0.567034,-6.195585,2.322677,0.287109,-0.005542,-0.089510,0.000000,-0.014307,0.046935,-0.000000
0.510000,-2.959590,0.829033,-1.319951,0.323618,-0.017744,-0.043214,0.894237,-0.057072,-0.209822,-0.483138,-0.122607,-0.563612,-5.768718,2.527480,0.348689,-0.005673,-0.089011,0.000000,-0.011895,0.052817,0.000000
0.520000,-2.956309,0.828852,-1.320393,0.332536,-0.018320,-0.045340,0.889128,-0.058168,-0.215442,-0.537541,-0.096078,-0.560496,-5.189820,2.759369,0.323288,-0.005779,-0.088456,0.000000,-0.009252,0.058118,0.000000
0.530000,-2.952939,0.828666,-1.320858,0.341399,-0.018906,-0.047523,0.883497,-0.058988,-0.221028,-0.588575,-0.067819,-0.556120,-5.019424,2.890569,0.554460,-0.005858,-0.087850,0.000000,-0.006442,0.063068,0.000000
0.540000,-2.949481,0.828474,-1.321344,0.350204,-0.019499,-0.049761,0.877367,-0.059519,-0.226560,-0.636348,-0.037934,-0.550356,-4.456426,3.102956,0.550954,-0.005908,-0.087195,0.000000,-0.003476,0.067678,-0.000000
0.550000,-2.945935,0.828276,-1.321853,0.358945,-0.020096,-0.052054,0.870790,-0.059740,-0.232036,-0.678380,-0.005941,-0.544668,-4.028618,3.276327,0.636057,-0.005927,-0.086498,0.000000,-0.000305,0.071717,-0.000000
0.560000,-2.942302,0.828072,-1.322385,0.367618,-0.020693,-0.054401,0.863811,-0.059633,-0.237448,-0.716773,0.027488,-0.537555,-3.602758,3.438392,0.731175,-0.005913,-0.085762,0.000000,0.003004,0.075380,-0.000000
0.570000,-2.938583,0.827862,-1.322941,0.376220,-0.021287,-0.056802,0.856473,-0.059182,-0.242788,-0.750006,0.063077,-0.530542,-3.090487,3.648236,0.727395,-0.005866,-0.084992,0.000000,0.006522,0.078532,0.000000
0.580000,-2.934778,0.827647,-1.323521,0.384747,-0.021875,-0.059257,0.848823,-0.058368,-0.248053,-0.779561,0.099797,-0.521830,-2.822546,3.693130,1.018059,-0.005783,-0.084193,0.000000,0.010147,0.081304,0.000000
0.590000,-2.930888,0.827425,-1.324127,0.393196,-0.022453,-0.061763,0.840893,-0.057183,-0.253218,-0.805536,0.137507,-0.511269,-2.326571,3.877089,1.039781,-0.005663,-0.083367,0.000000,0.013864,0.083707,0.000000
0.600000,-2.926914,0.827197,-1.324757,0.401564,-0.023018,-0.064321,0.832729,-0.055611,-0.258278,-0.826502,0.177050,-0.500539,-1.913806,3.999966,1.162631,-0.005505,-0.082520,0.000000,0.017759,0.085615,0.000000
0.610000,-2.922857,0.826965,-1.325413,0.409850,-0.023564,-0.066928,0.824375,-0.053640,-0.263222,-0.843750,0.217431,-0.487960,-1.505620,4.110054,1.296147,-0.005307,-0.081656,0.000000,0.021732,0.087141,-0.000000
0.620000,-2.918718,0.826726,-1.326096,0.418051,-0.024089,-0.069585,0.815871,-0.051256,-0.268038,-0.856330,0.259540,-0.475114,-1.042523,4.275527,1.329632,-0.005069,-0.080779,0.000000,0.025871,0.088207,-0.000000
0.630000,-2.914497,0.826483,-1.326805,0.426167,-0.024588,-0.072289,0.807260,-0.048447,-0.272717,-0.865277,0.302186,-0.460182,-0.748878,4.250751,1.659522,-0.004790,-0.079893,0.000000,0.030059,0.088901,0.000000
0.640000,-2.910195,0.826235,-1.327542,0.434196,-0.025057,-0.075038,0.798577,-0.045212,-0.277233,-0.870692,0.345212,-0.443021,-0.303350,4.387208,1.717917,-0.004468,-0.079002,0.000000,0.034280,0.089233,-0.000000
0.650000,-2.905813,0.825982,-1.328306,0.442138,-0.025491,-0.077833,0.789862,-0.041538,-0.281577,-0.871643,0.389597,-0.425327,0.081514,4.453701,1.877516,-0.004104,-0.078110,0.000000,0.038632,0.089125,0.000000
0.660000,-2.901352,0.825725,-1.329098,0.449993,-0.025886,-0.080669,0.781155,-0.037419,-0.285732,-0.869050,0.434246,-0.405484,0.459555,4.507531,2.044844,-0.003695,-0.077221,0.000000,0.043007,0.088657,-0.000000
0.670000,-2.896813,0.825464,-1.329919,0.457761,-0.026238,-0.083547,0.772495,-0.032849,-0.289684,-0.862256,0.480017,-0.384847,0.875100,4.612449,2.129386,-0.003243,-0.076338,0.000000,0.047491,0.087775,-0.000000
0.680000,-2.892197,0.825200,-1.330769,0.465443,-0.026541,-0.086462,0.763921,-0.027819,-0.293421,-0.852056,0.525779,-0.361915,1.162950,4.537006,2.459202,-0.002746,-0.075467,0.000000,0.051972,0.086547,0.000000
0.690000,-2.887505,0.824934,-1.331649,0.473040,-0.026792,-0.089414,0.755465,-0.022334,-0.296914,-0.838555,0.571374,-0.336575,1.559252,4.612914,2.563128,-0.002204,-0.074609,0.000000,0.056435,0.084983,-0.000000
0.700000,-2.882737,0.824665,-1.332558,0.480553,-0.026986,-0.092400,0.747164,-0.016389,-0.300150,-0.821099,0.617723,-0.310243,1.907983,4.622350,2.750010,-0.001617,-0.073768,0.000000,0.060973,0.083030,0.000000
0.710000,-2.877894,0.824394,-1.333497,0.487984,-0.027119,-0.095416,0.739053,-0.009981,-0.303111,-0.800386,0.663809,-0.281607,2.248777,4.619912,2.941559,-0.000984,-0.072949,0.000000,0.065485,0.080747,-0.000000
0.720000,-2.872977,0.824123,-1.334466,0.495335,-0.027184,-0.098461,0.731168,-0.003111,-0.305779,-0.776010,0.710332,-0.251734,2.610096,4.656888,3.068605,-0.000307,-0.072155,0.000000,0.070043,0.078103,0.000000
0.730000,-2.867988,0.823851,-1.335466,0.502608,-0.027179,-0.101531,0.723544,0.004224,-0.308138,-0.748524,0.756363,-0.219490,2.885263,4.546825,3.381496,0.000416,-0.071388,0.000000,0.074556,0.075145,-0.000000
0.740000,-2.862925,0.823579,-1.336497,0.509807,-0.027098,-0.104623,0.716208,0.012014,-0.310160,-0.718032,0.801761,-0.184808,3.226729,4.557292,3.519879,0.001184,-0.070653,0.000000,0.079011,0.071883,0.000000
0.750000,-2.857792,0.823309,-1.337559,0.516933,-0.026937,-0.107733,0.709194,0.020260,-0.311830,-0.684149,0.847252,-0.148786,3.533739,4.512904,3.719609,0.001997,-0.069952,0.000000,0.083481,0.068286,0.000000
0.760000,-2.852587,0.823041,-1.338652,0.523992,-0.026692,-0.110858,0.702534,0.028957,-0.313128,-0.647365,0.892033,-0.110508,3.831855,4.458294,3.919176,0.002854,-0.069288,0.000000,0.087888,0.064396,0.000000
0.770000,-2.847312,0.822775,-1.339776,0.530985,-0.026357,-0.113994,0.696258,0.038100,-0.314035,-0.607448,0.936539,-0.070557,4.140018,4.425138,4.087129,0.003754,-0.068665,0.000000,0.092277,0.060195,-0.000000
0.780000,-2.841967,0.822514,-1.340932,0.537918,-0.025928,-0.117137,0.690394,0.047685,-0.314532,-0.564803,0.980164,-0.028429,4.387099,4.297741,4.338740,0.004699,-0.068085,0.000000,0.096589,0.055717,0.000000
0.790000,-2.836554,0.822257,-1.342119,0.544795,-0.025402,-0.120283,0.684970,0.057700,-0.314596,-0.519538,1.022791,0.015883,4.674386,4.242558,4.506964,0.005686,-0.067551,0.000000,0.100815,0.050974,-0.000000
0.800000,-2.831072,0.822006,-1.343337,0.551619,-0.024773,-0.123428,0.680013,0.068139,-0.314209,-0.471420,1.064845,0.061844,4.936259,4.150649,4.700550,0.006715,-0.067066,0.000000,0.104999,0.045945,0.000000
0.810000,-2.825522,0.821762,-1.344587,0.558397,-0.024038,-0.126566,0.675550,0.078993,-0.313352,-0.420775,1.105822,0.109784,5.188922,4.050407,4.889289,0.007786,-0.066633,0.000000,0.109091,0.040659,0.000000
0.820000,-2.819904,0.821526,-1.345868,0.565132,-0.023192,-0.129693,0.671606,0.090252,-0.312007,-0.367695,1.145891,0.159637,5.427698,3.955040,5.078277,0.008897,-0.066254,0.000000,0.113112,0.035124,0.000000
0.830000,-2.814219,0.821299,-1.347181,0.571831,-0.022231,-0.132804,0.668205,0.101907,-0.310154,-0.312208,1.184753,0.211286,5.668125,3.815871,5.250426,0.010047,-0.065931,0.000000,0.117032,0.029342,0.000000
0.840000,-2.808467,0.821082,-1.348524,0.578498,-0.021152,-0.135894,0.665370,0.113943,-0.307775,-0.254410,1.222321,0.264673,5.887619,3.703429,5.428391,0.011237,-0.065668,0.000000,0.120845,0.023322,0.000000
0.850000,-2.802649,0.820876,-1.349899,0.585140,-0.019951,-0.138958,0.663123,0.126349,-0.304854,-0.194470,1.258738,0.319812,6.100731,3.571963,5.596015,0.012464,-0.065466,0.000000,0.124567,0.017079,0.000000
0.860000,-2.796765,0.820683,-1.351304,0.591763,-0.018624,-0.141990,0.661487,0.139113,-0.301374,-0.132397,1.293781,0.376525,6.304212,3.433918,5.755606,0.013728,-0.065327,0.000000,0.128177,0.010611,0.000000
0.870000,-2.790814,0.820504,-1.352738,0.598372,-0.017168,-0.144984,0.660481,0.152220,-0.297318,-0.068502,1.327378,0.434993,6.481480,3.286011,5.926654,0.015027,-0.065254,0.000000,0.131670,0.003948,0.000000
0.880000,-2.784797,0.820340,-1.354203,0.604974,-0.015579,-0.147934,0.660124,0.165656,-0.292670,-0.002629,1.359515,0.494819,6.691446,3.140474,6.036742,0.016361,-0.065249,0.000000,0.135046,-0.002927,-0.000000
0.890000,-2.778715,0.820193,-1.355697,0.611577,-0.013854,-0.150835,0.660435,0.179405,-0.287417,0.065124,1.390133,0.555900,6.849175,2.980355,6.187985,0.017728,-0.065313,0.000000,0.138300,-0.010006,-0.000000
0.900000,-2.772566,0.820063,-1.357220,0.618185,-0.011989,-0.153680,0.661431,0.193453,-0.281546,0.134382,1.419118,0.618459,7.009601,2.817408,6.312121,0.019126,-0.065449,0.000000,0.141422,-0.017256,0.000000
0.910000,-2.766351,0.819954,-1.358770,0.624808,-0.009984,-0.156464,0.663128,0.207783,-0.275045,0.205307,1.446511,0.681974,7.160064,2.649961,6.422647,0.020556,-0.065659,0.000000,0.144418,-0.024692,0.000000
0.920000,-2.760070,0.819864,-1.360349,0.631450,-0.007833,-0.159179,0.665541,0.222377,-0.267901,0.277422,1.472005,0.747185,7.273947,2.457899,6.585107,0.022014,-0.065944,0.000000,0.147259,-0.032275,-0.000000
0.930000,-2.753722,0.819797,-1.361954,0.638121,-0.005535,-0.161820,0.668682,0.237217,-0.260100,0.351021,1.495864,0.812950,7.444400,2.313518,6.564813,0.023501,-0.066305,0.000000,0.149971,-0.040031,0.000000
0.940000,-2.747307,0.819754,-1.363585,0.644826,-0.003088,-0.164379,0.672566,0.252289,-0.251641,0.426006,1.518056,0.879103,7.537287,2.113858,6.696797,0.025013,-0.066745,0.000000,0.152550,-0.047951,0.000000
0.950000,-2.740825,0.819736,-1.365241,0.651575,-0.000489,-0.166850,0.677205,0.267571,-0.242513,0.501839,1.538213,0.946560,7.640371,1.926973,6.759891,0.026551,-0.067265,0.000000,0.154963,-0.055991,-0.000000
0.960000,-2.734275,0.819745,-1.366921,0.658373,0.002264,-0.169227,0.682607,0.283047,-0.232709,0.578833,1.556598,1.014193,7.732707,1.736638,6.807355,0.028112,-0.067866,0.000000,0.157234,-0.064179,0.000000
0.970000,-2.727657,0.819782,-1.368625,0.665229,0.005173,-0.171502,0.688782,0.298696,-0.222224,0.656232,1.572814,1.083058,7.767893,1.518404,6.921645,0.029695,-0.068549,0.000000,0.159326,-0.072451,-0.000000
0.980000,-2.720971,0.819849,-1.370351,0.672151,0.008239,-0.173669,0.695735,0.314497,-0.211049,0.734629,1.587214,1.151705,7.909964,1.361177,6.804228,0.031298,-0.069316,0.000000,0.161272,-0.080858,0.000000
0.990000,-2.714214,0.819947,-1.372098,0.679147,0.011463,-0.175721,0.703478,0.330434,-0.199192,0.813920,1.599775,1.219938,7.922759,1.138019,6.882055,0.032920,-0.070168,0.000000,0.163067,-0.089393,-0.000000
1.000000,-2.707387,0.820079,-1.373865,0.686223,0.014848,-0.177651,0.712013,0.346485,-0.186647,0.893244,1.610070,1.288943,7.961660,0.932700,6.874387,0.034559,-0.071105,0.000000,0.164673,-0.097982,0.000000
1.010000,-2.700489,0.820245,-1.375651,0.693390,0.018393,-0.179452,0.721345,0.362629,-0.173415,0.973046,1.618449,1.357329,7.985426,0.725201,6.849359,0.036213,-0.072129,0.000000,0.166120,-0.106663,-0.000000
1.020000,-2.693519,0.820447,-1.377454,0.700653,0.022101,-0.181117,0.731474,0.378846,-0.159498,1.052804,1.624402,1.426332,7.974111,0.481743,6.901315,0.037880,-0.073240,0.000000,0.167361,-0.115395,-0.000000
1.030000,-2.686476,0.820687,-1.379273,0.708022,0.025970,-0.182639,0.742401,0.395111,-0.144893,1.132697,1.628431,1.494308,8.002322,0.324249,6.689947,0.039560,-0.074439,0.000000,0.168439,-0.124189,-0.000000
1.040000,-2.679358,0.820967,-1.381106,0.715504,0.030003,-0.184012,0.754128,0.411408,-0.129616,1.212584,1.630532,1.561044,7.961825,0.078294,6.702750,0.041249,-0.075726,0.000000,0.169350,-0.133031,0.000000
1.050000,-2.672165,0.821288,-1.382952,0.723107,0.034198,-0.185229,0.766651,0.427713,-0.113670,1.291980,1.630133,1.627906,7.924006,-0.141467,6.619408,0.042946,-0.077102,0.000000,0.170043,-0.141886,-0.000000
1.060000,-2.664896,0.821651,-1.384810,0.730839,0.038557,-0.186283,0.779967,0.444004,-0.097063,1.371003,1.627693,1.693342,7.869328,-0.363296,6.518609,0.044649,-0.078566,0.000000,0.170555,-0.150757,0.000000
1.070000,-2.657548,0.822060,-1.386677,0.738709,0.043078,-0.187168,0.794068,0.460258,-0.079803,1.449233,1.622708,1.758720,7.781820,-0.618334,6.502905,0.046356,-0.080120,0.000000,0.170839,-0.159615,0.000000
1.080000,-2.650121,0.822514,-1.388553,0.746723,0.047762,-0.187877,0.808949,0.476451,-0.061895,1.526753,1.615648,1.822268,7.719586,-0.793571,6.202751,0.048065,-0.081762,0.000000,0.170934,-0.168456,-0.000000
1.090000,-2.642613,0.823015,-1.390434,0.754890,0.052607,-0.188404,0.824601,0.492564,-0.043365,1.603399,1.606508,1.883774,7.598455,-1.050948,6.148225,0.049774,-0.083493,0.000000,0.170833,-0.177263,-0.000000
1.100000,-2.635023,0.823566,-1.392320,0.763218,0.057613,-0.188743,0.841012,0.508573,-0.024221,1.678720,1.594758,1.944742,7.471940,-1.283862,5.991384,0.051481,-0.085311,0.000000,0.170490,-0.186005,0.000000
1.110000,-2.627348,0.824168,-1.394209,0.771713,0.062778,-0.188887,0.858168,0.524452,-0.004477,1.752205,1.580784,2.003735,7.316006,-1.519740,5.822622,0.053183,-0.087217,0.000000,0.169934,-0.194619,-0.000000
1.120000,-2.619588,0.824822,-1.396097,0.780384,0.068102,-0.188830,0.876058,0.540180,0.015850,1.825843,1.564277,2.061312,7.317044,-1.773941,5.673610,0.054879,-0.089210,0.000000,0.169131,-0.203311,-0.000000
1.130000,-2.611740,0.825531,-1.397984,0.789237,0.073581,-0.188568,0.894675,0.555730,0.036742,1.896564,1.545465,2.116807,6.821096,-1.988817,5.422841,0.056565,-0.091289,0.000000,0.168100,-0.211767,-0.000000
1.140000,-2.603803,0.826294,-1.399868,0.798279,0.079215,-0.188094,0.913978,0.571081,0.058178,1.964050,1.524328,2.170072,6.765160,-2.247073,5.245340,0.058240,-0.093451,0.000000,0.166834,-0.219951,-0.000000
1.150000,-2.595774,0.827115,-1.401746,0.807519,0.085002,-0.187402,0.933956,0.586208,0.080138,2.031015,1.500584,2.221525,6.533360,-2.494326,5.026398,0.059901,-0.095695,0.000000,0.165302,-0.228141,0.000000
1.160000,-2.587652,0.827995,-1.403615,0.816961,0.090939,-0.186489,0.954590,0.601084,0.102598,2.095375,1.474247,2.270117,6.293275,-2.747908,4.786482,0.061545,-0.098021,0.000000,0.163496,-0.236114,0.000000
1.170000,-2.579434,0.828935,-1.405475,0.826612,0.097023,-0.185349,0.975851,0.615686,0.125540,2.156428,1.445852,2.318104,5.955145,-2.956312,4.715799,0.063170,-0.100426,0.000000,0.161481,-0.243820,-0.000000
1.180000,-2.571119,0.829936,-1.407321,0.836480,0.103252,-0.183977,0.997711,0.629991,0.148948,2.215273,1.414588,2.362437,5.811790,-3.297850,4.146240,0.064774,-0.102907,0.000000,0.159152,-0.251338,-0.000000
1.190000,-2.562704,0.831000,-1.409153,0.846569,0.109622,-0.182369,1.020149,0.643968,0.172775,2.271771,1.380391,2.402889,5.443216,-3.516816,4.037013,0.066352,-0.105462,0.000000,0.156493,-0.258647,-0.000000
1.200000,-2.554186,0.832129,-1.410968,0.856885,0.116130,-0.180520,1.043133,0.657593,0.197004,2.324422,1.344029,2.442348,5.124952,-3.780991,3.759509,0.067903,-0.108090,0.000000,0.153601,-0.265621,-0.000000
1.210000,-2.545565,0.833323,-1.412763,0.867433,0.122772,-0.178427,1.066616,0.670846,0.221613,2.371315,1.306394,2.479172,4.731175,-4.016479,3.492847,0.069424,-0.110785,0.000000,0.150554,-0.272042,0.000000
1.220000,-2.536837,0.834585,-1.414536,0.878219,0.129545,-0.176087,1.090585,0.683691,0.246569,2.423404,1.261200,2.511160,5.217687,-4.760791,3.011504,0.070911,-0.113546,0.000000,0.146673,-0.279007,0.000000
1.230000,-2.528000,0.835915,-1.416284,0.889246,0.136444,-0.173495,1.115049,0.696074,0.271832,2.465828,1.216669,2.541642,3.250002,-4.138219,3.087206,0.072358,-0.116376,0.000000,0.142838,-0.285020,0.000000
1.240000,-2.519051,0.837314,-1.418005,0.900521,0.143465,-0.170649,1.139863,0.708029,0.297398,2.497788,1.173111,2.570703,3.610502,-4.839266,2.615085,0.073768,-0.119258,0.000000,0.139083,-0.289993,0.000000
1.250000,-2.509989,0.838784,-1.419696,0.912045,0.150603,-0.167546,1.165027,0.719507,0.323228,2.534010,1.122107,2.594846,3.162401,-5.098912,2.321162,0.075136,-0.122194,0.000000,0.134489,-0.295397,-0.000000
1.260000,-2.500810,0.840326,-1.421355,0.923822,0.157854,-0.164184,1.190522,0.730459,0.349290,2.564533,1.067613,2.617096,2.755771,-5.425654,2.025650,0.076456,-0.125181,0.000000,0.129493,-0.300234,-0.000000
1.270000,-2.491511,0.841942,-1.422979,0.935856,0.165211,-0.160559,1.216289,0.740879,0.375552,2.587400,1.017022,2.634398,1.996158,-5.058588,1.532805,0.077728,-0.128213,0.000000,0.124840,-0.304255,-0.000000
1.280000,-2.482092,0.843631,-1.424565,0.948149,0.172670,-0.156672,1.242265,0.750771,0.401972,2.608209,0.958759,2.649814,2.170585,-6.606618,1.552444,0.078950,-0.131284,0.000000,0.119339,-0.308072,-0.000000
1.290000,-2.472547,0.845395,-1.426111,0.960702,0.180224,-0.152520,1.268448,0.760023,0.428543,2.627165,0.892239,2.663418,1.438684,-6.330650,1.067117,0.080111,-0.134393,0.000000,0.112919,-0.311704,-0.000000
1.300000,-2.462877,0.847236,-1.427615,0.973518,0.187868,-0.148101,1.294780,0.768633,0.455222,2.638509,0.828998,2.671980,1.011048,-6.685474,0.744333,0.081210,-0.137535,0.000000,0.106766,-0.314498,-0.000000
1.310000,-2.453076,0.849153,-1.429072,0.986598,0.195595,-0.143415,1.321208,0.776580,0.481975,2.646473,0.759762,2.677983,0.571638,-7.036630,0.412672,0.082244,-0.140703,0.000000,0.099918,-0.316921,-0.000000
1.320000,-2.443144,0.851148,-1.430482,0.999943,0.203397,-0.138461,1.347694,0.783827,0.508767,2.649849,0.689409,2.679818,0.113229,-7.156881,-0.005837,0.083208,-0.143893,0.000000,0.092871,-0.318815,0.000000
1.330000,-2.433077,0.853221,-1.431841,1.013552,0.211269,-0.133239,1.374191,0.790351,0.535561,2.648944,0.614048,2.678700,-0.293493,-7.919564,-0.218078,0.084099,-0.147099,0.000000,0.085222,-0.320222,-0.000000
1.340000,-2.422872,0.855374,-1.433146,1.027426,0.219202,-0.127750,1.400658,0.796090,0.562332,2.643790,0.533483,2.674598,-0.746759,-8.070322,-0.645203,0.084910,-0.150318,0.000000,0.076942,-0.321138,-0.000000
1.350000,-2.412527,0.857605,-1.434395,1.041565,0.227188,-0.121993,1.427051,0.801018,0.589038,2.634109,0.451592,2.666118,-1.179414,-8.430852,-1.011255,0.085637,-0.153544,0.000000,0.068428,-0.321501,0.000000
1.360000,-2.402040,0.859917,-1.435585,1.055967,0.235219,-0.115970,1.453321,0.805110,0.615642,2.618955,0.366150,2.653983,-1.631996,-8.770336,-1.392546,0.086277,-0.156770,0.000000,0.059449,-0.321215,-0.000000
1.370000,-2.391407,0.862310,-1.436713,1.070631,0.243287,-0.109681,1.479433,0.808321,0.642107,2.603503,0.275151,2.638463,-1.669044,-9.319474,-1.737389,0.086824,-0.159992,0.000000,0.049779,-0.320823,0.000000
1.380000,-2.380626,0.864783,-1.437778,1.085555,0.251382,-0.103128,1.505367,0.810607,0.668397,2.581157,0.182071,2.618692,-2.804986,-9.292674,-2.219314,0.087272,-0.163207,0.000000,0.039788,-0.319604,0.000000
1.390000,-2.369695,0.867338,-1.438775,1.100737,0.259496,-0.096313,1.531031,0.811957,0.694466,2.551729,0.087090,2.594529,-2.864344,-9.813618,-2.590548,0.087619,-0.166405,0.000000,0.029494,-0.317523,-0.000000
1.400000,-2.358611,0.869973,-1.439703,1.116175,0.267618,-0.089240,1.556404,0.812329,0.720275,2.522104,-0.013248,2.566633,-3.271696,-10.142971,-3.014683,0.087859,-0.169582,0.000000,0.018518,-0.315315,0.000000
1.410000,-2.347371,0.872690,-1.440559,1.131864,0.275739,-0.081909,1.581468,0.811673,0.745780,2.490465,-0.118766,2.533467,-3.589605,-10.522833,-3.465723,0.087987,-0.172735,0.000000,0.006863,-0.312752,-0.000000
1.420000,-2.335972,0.875488,-1.441340,1.147803,0.283848,-0.074325,1.606160,0.809976,0.770942,2.445435,-0.219661,2.498704,-4.893237,-10.078696,-3.638860,0.087999,-0.175856,0.000000,-0.004362,-0.308678,0.000000
1.430000,-2.324414,0.878367,-1.442045,1.163986,0.291935,-0.066491,1.630392,0.807248,0.795731,2.403585,-0.329206,2.457503,-3.457670,-11.841673,-4.607856,0.087895,-0.178933,0.000000,-0.016660,-0.304762,-0.000000
1.440000,-2.312692,0.881327,-1.442669,1.180409,0.299989,-0.058412,1.654249,0.803358,0.820068,2.365808,-0.447877,2.409547,-4.620308,-11.462110,-4.833500,0.087661,-0.181976,0.000000,-0.030097,-0.301087,-0.000000
1.450000,-2.300805,0.884367,-1.443212,1.197069,0.307999,-0.050092,1.677657,0.798313,0.843918,2.315693,-0.562030,2.359512,-4.876362,-11.792061,-5.326284,0.087296,-0.184973,0.000000,-0.043119,-0.295979,-0.000000
1.460000,-2.288750,0.887486,-1.443670,1.213961,0.315952,-0.041535,1.700566,0.792099,0.867238,2.265517,-0.681141,2.303686,-5.149896,-12.069869,-5.819870,0.086796,-0.187917,0.000000,-0.056808,-0.290672,0.000000
1.470000,-2.276525,0.890685,-1.444042,1.231079,0.323837,-0.032749,1.722960,0.784678,0.889977,2.212834,-0.803733,2.243303,-5.392874,-12.403877,-6.280317,0.086158,-0.190807,0.000000,-0.070989,-0.284921,-0.000000
1.480000,-2.264127,0.893963,-1.444325,1.248418,0.331641,-0.023738,1.744814,0.776018,0.912086,2.157528,-0.928282,2.177586,-5.666219,-12.500137,-6.865035,0.085376,-0.193636,0.000000,-0.085499,-0.278691,0.000000
1.490000,-2.251556,0.897318,-1.444516,1.265973,0.339353,-0.014509,1.766102,0.766107,0.933510,2.099730,-1.054463,2.106426,-5.882254,-12.772225,-7.345919,0.084447,-0.196399,0.000000,-0.100300,-0.271986,0.000000
1.500000,-2.238807,0.900750,-1.444614,1.283738,0.346959,-0.005070,1.786802,0.754919,0.954199,2.039858,-1.183274,2.030455,-6.098883,-12.943803,-7.871703,0.083368,-0.199093,0.000000,-0.115492,-0.264859,-0.000000
1.510000,-2.225880,0.904257,-1.444617,1.301707,0.354447,0.004572,1.806894,0.742440,0.974097,1.978458,-1.312831,1.947972,-6.289386,-13.072107,-8.424641,0.082136,-0.201714,0.000000,-0.130878,-0.257327,-0.000000
1.520000,-2.212773,0.907838,-1.444522,1.319874,0.361803,0.014409,1.826356,0.728650,0.993157,1.913096,-1.445612,1.863798,-6.673807,-13.370755,-8.606158,0.080749,-0.204255,0.000000,-0.146676,-0.249227,0.000000
1.530000,-2.199482,0.911492,-1.444328,1.338232,0.369015,0.024432,1.845156,0.713530,1.011345,1.847273,-1.577869,1.771737,-6.485481,-13.070693,-9.812644,0.079203,-0.206713,0.000000,-0.162527,-0.240797,-0.000000
1.540000,-2.186007,0.915218,-1.444033,1.356775,0.376070,0.034633,1.863301,0.697097,1.028563,1.781253,-1.709057,1.671490,-6.825038,-13.268195,-10.039706,0.077499,-0.209085,0.000000,-0.178362,-0.232053,-0.000000
1.550000,-2.172346,0.919013,-1.443635,1.375496,0.382953,0.045000,1.880767,0.679340,1.044771,1.711726,-1.842174,1.569271,-6.970914,-13.239666,-10.600858,0.075635,-0.211366,0.000000,-0.194440,-0.222777,0.000000
1.560000,-2.158497,0.922876,-1.443132,1.394388,0.389652,0.055524,1.897532,0.660262,1.059920,1.640950,-1.973175,1.459301,-7.121509,-13.151215,-11.172077,0.073611,-0.213552,0.000000,-0.210355,-0.213076,-0.000000
1.570000,-2.144458,0.926805,-1.442524,1.413444,0.396154,0.066195,1.913586,0.639865,1.073956,1.569890,-2.106867,1.347874,-7.148828,-13.387044,-11.326431,0.071426,-0.215639,0.000000,-0.226578,-0.203204,0.000000
1.580000,-2.130227,0.930799,-1.441808,1.432657,0.402445,0.077000,1.928922,0.618139,1.086848,1.496746,-2.236720,1.228303,-7.480499,-12.569549,-12.593050,0.069080,-0.217625,0.000000,-0.242418,-0.192809,-0.000000
1.590000,-2.115804,0.934854,-1.440983,1.452020,0.408512,0.087928,1.943514,0.595147,1.098493,1.421510,-2.361986,1.100375,-7.505335,-12.669473,-12.774469,0.066580,-0.219503,0.000000,-0.257772,-0.181880,0.000000
1.600000,-2.101186,0.938968,-1.440049,1.471525,0.414344,0.098965,1.957353,0.570893,1.108855,1.346149,-2.488292,0.971021,-7.625842,-12.390193,-13.309407,0.063924,-0.221270,0.000000,-0.273202,-0.170803,-0.000000
1.610000,-2.086373,0.943140,-1.439004,1.491165,0.419926,0.110100,1.970431,0.545404,1.117892,1.269169,-2.608579,0.835518,-7.739752,-12.031541,-13.812158,0.061118,-0.222924,0.000000,-0.287936,-0.159305,0.000000
1.620000,-2.071363,0.947366,-1.437847,1.510931,0.425248,0.121319,1.982735,0.518704,1.125547,1.191643,-2.732185,0.694619,-7.793159,-12.319621,-14.341072,0.058164,-0.224461,0.000000,-0.302994,-0.147524,0.000000
1.630000,-2.056154,0.951644,-1.436577,1.530817,0.430296,0.132606,1.994259,0.490792,1.131769,1.112723,-2.847210,0.549255,-7.990797,-10.665876,-14.727305,0.055062,-0.225879,0.000000,-0.317018,-0.135398,0.000000
1.640000,-2.040746,0.955971,-1.435195,1.550814,0.435060,0.143949,2.004985,0.461794,1.136518,1.032419,-2.952657,0.399683,-8.040541,-10.780630,-15.206193,0.051828,-0.227172,0.000000,-0.329875,-0.122940,0.000000
1.650000,-2.025137,0.960344,-1.433698,1.570914,0.439528,0.155332,2.014906,0.431728,1.139747,0.951684,-3.059560,0.245418,-8.134730,-10.228002,-15.618765,0.048464,-0.228340,0.000000,-0.342785,-0.110251,0.000000
1.660000,-2.009327,0.964760,-1.432088,1.591109,0.443691,0.166739,2.024015,0.400639,1.141418,0.869902,-3.156928,0.088230,-8.223205,-9.610760,-15.984746,0.044976,-0.229379,0.000000,-0.354489,-0.097318,0.000000
1.670000,-1.993315,0.969217,-1.430363,1.611391,0.447538,0.178155,2.032301,0.368580,1.141486,0.787211,-3.255056,-0.075745,-8.312445,-9.646008,-16.639136,0.041373,-0.230287,0.000000,-0.366141,-0.084067,0.000000
1.680000,-1.977099,0.973710,-1.428525,1.631752,0.451060,0.189563,2.039756,0.335578,1.139900,0.703707,-3.342115,-0.240960,-8.387736,-7.747745,-16.392951,0.037659,-0.231061,0.000000,-0.376371,-0.070662,-0.000000
1.690000,-1.960680,0.978237,-1.426572,1.652184,0.454247,0.200947,2.046373,0.301781,1.136666,0.619422,-3.417197,-0.406843,-8.471161,-7.627363,-16.945207,0.033851,-0.231701,0.000000,-0.385064,-0.057134,0.000000
1.700000,-1.944055,0.982794,-1.424506,1.672677,0.457093,0.212291,2.052142,0.267230,1.131742,0.534310,-3.491441,-0.578320,-8.548676,-6.851716,-17.177060,0.029958,-0.232204,0.000000,-0.393474,-0.043365,-0.000000
1.710000,-1.927226,0.987377,-1.422327,1.693224,0.459589,0.223576,2.057052,0.231990,1.125099,0.447372,-3.555202,-0.750402,-8.646721,-6.049274,-17.366468,0.025987,-0.232568,0.000000,-0.400490,-0.029387,-0.000000
1.720000,-1.910191,0.991984,-1.420035,1.713815,0.461730,0.234787,2.061102,0.196141,1.116717,0.363132,-3.613746,-0.926744,-8.385841,-5.505225,-17.765902,0.021950,-0.232793,0.000000,-0.406707,-0.015615,-0.000000
1.730000,-1.892950,0.996611,-1.417631,1.734443,0.463510,0.245905,2.064303,0.159750,1.106566,0.275780,-3.662081,-1.102869,-9.090049,-4.153098,-17.448143,0.017857,-0.232879,0.000000,-0.411543,-0.001544,0.000000
1.740000,-1.875502,1.001253,-1.415117,1.755098,0.464924,0.256912,2.066605,0.122936,1.094663,0.185083,-3.699757,-1.278185,-8.861931,-3.529566,-17.738597,0.013724,-0.232823,0.000000,-0.414950,0.012818,-0.000000
1.750000,-1.857848,1.005908,-1.412493,1.775772,0.465968,0.267792,2.068016,0.085773,1.080990,0.096963,-3.731325,-1.456395,-8.947183,-2.631051,-17.765440,0.009561,-0.232624,0.000000,-0.417445,0.026908,-0.000000
1.760000,-1.839986,1.010571,-1.409762,1.796456,0.466639,0.278526,2.068537,0.048347,1.065544,0.007009,-3.752131,-1.632807,-9.018775,-1.707292,-17.732296,0.005380,-0.232284,0.000000,-0.418503,0.041070,0.000000
1.770000,-1.821918,1.015240,-1.406923,1.817140,0.466934,0.289097,2.068156,0.010746,1.048318,-0.083175,-3.767086,-1.812944,-9.040451,-1.108144,-18.071781,0.001194,-0.231803,0.000000,-0.418681,0.055256,-0.000000
1.780000,-1.803644,1.019909,-1.403980,1.837816,0.466853,0.299487,2.066870,-0.026955,1.029298,-0.174271,-3.770618,-1.989562,-9.178551,0.407803,-17.237826,-0.002988,-0.231179,0.000000,-0.417365,0.069340,-0.000000
1.790000,-1.785162,1.024575,-1.400934,1.858474,0.466395,0.309677,2.064667,-0.064626,1.008543,-0.266253,-3.762445,-2.161925,-9.193165,1.051112,-17.445657,-0.007148,-0.230416,0.000000,-0.414545,0.083287,0.000000
1.800000,-1.766474,1.029236,-1.397787,1.879106,0.465561,0.319652,2.061545,-0.102187,0.986048,-0.358310,-3.748113,-2.336474,-9.240605,1.989573,-17.240060,-0.011276,-0.229514,0.000000,-0.410845,0.097159,-0.000000
1.810000,-1.747580,1.033885,-1.394542,1.899702,0.464352,0.329393,2.057503,-0.139556,0.961828,-0.449986,-3.724360,-2.507238,-9.260532,2.894657,-16.995544,-0.015361,-0.228474,0.000000,-0.405927,0.110746,0.000000
1.820000,-1.728480,1.038521,-1.391200,1.920253,0.462771,0.338883,2.052531,-0.176633,0.935905,-0.545035,-3.689014,-2.677070,-9.585783,4.041155,-16.876586,-0.019390,-0.227298,0.000000,-0.399572,0.124508,0.000000
1.830000,-1.709175,1.043140,-1.387765,1.940749,0.460821,0.348105,2.046610,-0.213313,0.908301,-0.638266,-3.646342,-2.842799,-9.054042,4.486352,-16.259354,-0.023350,-0.225985,0.000000,-0.392276,0.137801,0.000000
1.840000,-1.689666,1.047737,-1.384239,1.961182,0.458506,0.357043,2.039774,-0.249537,0.879065,-0.729377,-3.596697,-3.003884,-9.330862,5.571543,-16.038967,-0.027233,-0.224543,0.000000,-0.384104,0.150575,-0.000000
1.850000,-1.669952,1.052309,-1.380625,1.981542,0.455832,0.365681,2.032009,-0.285208,0.848229,-0.823470,-3.536114,-3.162694,-9.322841,6.409237,-15.628434,-0.031027,-0.222972,0.000000,-0.374646,0.163422,0.000000
1.860000,-1.650035,1.056852,-1.376927,2.001819,0.452804,0.374003,2.023307,-0.320240,0.815832,-0.917002,-3.468993,-3.315900,-9.324721,7.207278,-15.165809,-0.034723,-0.221274,0.000000,-0.364419,0.175879,0.000000
1.870000,-1.629916,1.061363,-1.373146,2.022005,0.449430,0.381993,2.013674,-0.354546,0.781914,-1.009410,-3.390253,-3.467349,-9.211827,8.344349,-14.962886,-0.038311,-0.219453,0.000000,-0.352885,0.187975,-0.000000
1.880000,-1.609595,1.065839,-1.369288,2.042090,0.445716,0.389636,2.003117,-0.388029,0.746509,-1.102393,-3.306228,-3.611779,-9.385265,8.449057,-13.912095,-0.041779,-0.217513,0.000000,-0.340783,0.199761,-0.000000
1.890000,-1.589074,1.070277,-1.365355,2.062064,0.441672,0.396918,1.991624,-0.420656,0.709705,-1.195959,-3.217521,-3.748605,-9.270146,9.479335,-13.603587,-0.045125,-0.215456,0.000000,-0.328207,0.211227,0.000000
1.900000,-1.568354,1.074672,-1.361351,2.081919,0.437306,0.403825,1.979203,-0.452341,0.671544,-1.288254,-3.118408,-3.882409,-9.243996,10.144455,-12.995371,-0.048339,-0.213285,0.000000,-0.314551,0.222284,0.000000
1.910000,-1.547436,1.079022,-1.357280,2.101645,0.432628,0.410345,1.965858,-0.483010,0.632087,-1.380774,-3.014351,-4.007943,-9.212108,10.769505,-12.338497,-0.051415,-0.211006,0.000000,-0.300454,0.232972,0.000000
1.920000,-1.526322,1.083323,-1.353145,2.121233,0.427649,0.416463,1.951592,-0.512599,0.591389,-1.472042,-2.902154,-4.131213,-9.085458,11.556460,-12.085358,-0.054346,-0.208621,0.000000,-0.285571,0.243274,0.000000
1.930000,-1.505012,1.087574,-1.348952,2.140674,0.422380,0.422168,1.936416,-0.541039,0.549496,-1.563408,-2.785600,-4.244825,-9.187722,11.743405,-10.625441,-0.057125,-0.206135,0.000000,-0.270371,0.253173,-0.000000
1.940000,-1.483509,1.091770,-1.344703,2.159958,0.416833,0.427449,1.920324,-0.568299,0.506529,-1.654853,-2.665295,-4.348197,-9.054337,12.416576,-10.272376,-0.059752,-0.203551,0.000000,-0.254946,0.262665,-0.000000
1.950000,-1.461814,1.095910,-1.340404,2.179077,0.411018,0.432296,1.903325,-0.594321,0.462539,-1.744853,-2.538342,-4.448265,-8.989761,12.859001,-9.510846,-0.062222,-0.200873,0.000000,-0.238972,0.271749,-0.000000
1.960000,-1.439928,1.099990,-1.336059,2.198022,0.404950,0.436697,1.885430,-0.619062,0.417594,-1.833786,-2.409462,-4.539525,-8.901816,13.222029,-8.743682,-0.064532,-0.198107,0.000000,-0.222996,0.280357,-0.000000
1.970000,-1.417854,1.104008,-1.331672,2.216783,0.398642,0.440645,1.866643,-0.642474,0.371774,-1.923843,-2.271199,-4.623139,-9.004557,14.118288,-7.970578,-0.066679,-0.195255,0.000000,-0.206258,0.288749,0.000000
1.980000,-1.395593,1.107962,-1.327248,2.235352,0.392106,0.444130,1.846962,-0.664491,0.325158,-2.011673,-2.133646,-4.698765,-8.556777,13.373911,-7.152310,-0.068658,-0.192321,0.000000,-0.189822,0.296588,-0.000000
1.990000,-1.373147,1.111849,-1.322791,2.253719,0.385356,0.447145,1.826419,-0.685154,0.277826,-2.097046,-1.997758,-4.766265,-8.621046,14.101343,-6.351942,-0.070477,-0.189311,0.000000,-0.173792,0.303863,0.000000
2.000000,-1.350519,1.115668,-1.318306,2.271877,0.378407,0.449684,1.805016,-0.704416,0.229859,-2.183177,-1.854398,-4.825723,-8.499678,14.255651,-5.532439,-0.072132,-0.186229,0.000000,-0.157245,0.310916,-0.000000
2.010000,-1.327711,1.119417,-1.313799,2.289817,0.371273,0.451741,1.782762,-0.722250,0.181339,-2.267522,-1.712441,-4.877023,-8.376173,14.350681,-4.708988,-0.073624,-0.183078,0.000000,-0.141098,0.317502,0.000000
2.020000,-1.304724,1.123093,-1.309273,2.307530,0.363967,0.453309,1.759670,-0.738644,0.132348,-2.350752,-1.565503,-4.919727,-8.260522,14.810854,-3.848614,-0.074953,-0.179863,0.000000,-0.124710,0.323696,-0.000000
2.030000,-1.281561,1.126695,-1.304734,2.325007,0.356505,0.454386,1.735752,-0.753570,0.082971,-2.432539,-1.420962,-4.954354,-8.095418,14.081765,-3.077335,-0.076120,-0.176588,0.000000,-0.108831,0.329491,0.000000
2.040000,-1.258224,1.130223,-1.300187,2.342242,0.348900,0.454968,1.711024,-0.767076,0.033287,-2.512799,-1.279648,-4.980930,-7.963602,14.391823,-2.220918,-0.077132,-0.173256,0.000000,-0.093538,0.334894,-0.000000
2.050000,-1.234717,1.133673,-1.295636,2.359225,0.341168,0.455051,1.685500,-0.779148,-0.016619,-2.591719,-1.135160,-4.998933,-7.811120,14.278453,-1.398042,-0.077990,-0.169871,0.000000,-0.078194,0.339933,-0.000000
2.060000,-1.211041,1.137046,-1.291088,2.375949,0.333322,0.454635,1.659195,-0.789793,-0.066667,-2.668917,-0.994194,-5.009358,-7.650070,14.106339,-0.591428,-0.078698,-0.166437,0.000000,-0.063457,0.344603,-0.000000
2.070000,-1.187199,1.140339,-1.286545,2.392407,0.325377,0.453718,1.632125,-0.799023,-0.116771,-2.744906,-0.851356,-5.009901,-7.524776,14.259106,0.387283,-0.079259,-0.162959,0.000000,-0.048806,0.348933,0.000000
2.080000,-1.163194,1.143553,-1.282015,2.408589,0.317346,0.452300,1.604304,-0.806838,-0.166843,-2.818936,-0.713246,-5.003620,-7.279647,13.349033,0.864087,-0.079676,-0.159438,0.000000,-0.034863,0.352916,0.000000
2.090000,-1.139028,1.146686,-1.277501,2.424490,0.309245,0.450381,1.575754,-0.813307,-0.216823,-2.890921,-0.580602,-4.990764,-7.138512,13.368410,1.799443,-0.079959,-0.155879,0.000000,-0.021684,0.356563,-0.000000
2.100000,-1.114705,1.149738,-1.273009,2.440102,0.301085,0.447964,1.546490,-0.818445,-0.266625,-2.961502,-0.447691,-4.968485,-6.954892,13.011312,2.559092,-0.080110,-0.152285,0.000000,-0.008722,0.359909,-0.000000
2.110000,-1.090227,1.152707,-1.268543,2.455418,0.292880,0.445050,1.516530,-0.822281,-0.316172,-3.030132,-0.320239,-4.939857,-6.768229,12.609504,3.293405,-0.080136,-0.148659,0.000000,0.003499,0.362961,0.000000
2.120000,-1.065597,1.155595,-1.264110,2.470430,0.284643,0.441641,1.485894,-0.824853,-0.365387,-3.096831,-0.194372,-4.901485,-6.572929,12.424331,4.251895,-0.080041,-0.145003,0.000000,0.015341,0.365689,0.000000
2.130000,-1.040819,1.158400,-1.259712,2.485133,0.276387,0.437743,1.454600,-0.826190,-0.414184,-3.161624,-0.074671,-4.857531,-6.385256,11.505630,4.531522,-0.079832,-0.141322,0.000000,0.026406,0.368171,0.000000
2.140000,-1.015896,1.161123,-1.255356,2.499520,0.268123,0.433359,1.422668,-0.826370,-0.462522,-3.224479,0.038316,-4.808377,-6.182761,11.220578,5.422589,-0.079516,-0.137617,0.000000,0.036660,0.370418,0.000000
2.150000,-0.990830,1.163763,-1.251047,2.513585,0.259863,0.428495,1.390117,-0.825431,-0.510320,-3.285289,0.148488,-4.750235,-5.980941,10.675013,6.075250,-0.079100,-0.133891,0.000000,0.046463,0.372385,0.000000
2.160000,-0.965625,1.166320,-1.246788,2.527321,0.251618,0.423155,1.356968,-0.823423,-0.557511,-3.344129,0.252044,-4.687056,-5.777042,10.100499,6.696569,-0.078590,-0.130147,0.000000,0.055496,0.374143,0.000000
2.170000,-0.940285,1.168795,-1.242585,2.540722,0.243398,0.417347,1.323242,-0.820404,-0.604029,-3.400735,0.351044,-4.615097,-5.552945,9.628163,7.555164,-0.077992,-0.126386,0.000000,0.063941,0.375634,0.000000
2.180000,-0.914812,1.171188,-1.238443,2.553784,0.235213,0.411077,1.288960,-0.816426,-0.649800,-3.455372,0.443116,-4.538894,-5.374473,8.780258,7.676943,-0.077313,-0.122612,0.000000,0.071623,0.376951,-0.000000
2.190000,-0.889210,1.173500,-1.234365,2.566500,0.227073,0.404353,1.254141,-0.811566,-0.694795,-3.508033,0.527936,-4.458894,-5.148169,8.248164,8.455840,-0.076562,-0.118825,0.000000,0.078529,0.378105,0.000000
2.200000,-0.863483,1.175730,-1.230357,2.578865,0.218985,0.397184,1.218807,-0.805884,-0.738949,-3.558406,0.607434,-4.371034,-4.935695,7.581814,8.975020,-0.075745,-0.115028,0.000000,0.084826,0.379033,-0.000000
2.210000,-0.837634,1.177879,-1.226423,2.590874,0.210958,0.389577,1.182980,-0.799442,-0.782206,-3.606700,0.679844,-4.279647,-4.721568,6.903483,9.458111,-0.074868,-0.111223,0.000000,0.090394,0.379812,-0.000000
2.220000,-0.811667,1.179949,-1.222567,2.602523,0.202998,0.381543,1.146681,-0.792309,-0.824513,-3.652823,0.745513,-4.180488,-4.504117,6.222705,10.213643,-0.073939,-0.107411,0.000000,0.095249,0.380398,0.000000
2.230000,-0.785585,1.181940,-1.218793,2.613806,0.195113,0.373090,1.109931,-0.784555,-0.865808,-3.696805,0.804148,-4.078730,-4.292287,5.502638,10.128683,-0.072965,-0.103595,0.000000,0.099414,0.380856,0.000000
2.240000,-0.759392,1.183852,-1.215107,2.624720,0.187309,0.364230,1.072752,-0.776250,-0.906082,-3.738643,0.855653,-3.974859,-4.074083,4.802912,10.798017,-0.071953,-0.099774,0.000000,0.102894,0.381195,0.000000
2.250000,-0.733092,1.185686,-1.211510,2.635260,0.179590,0.354972,1.035165,-0.767465,-0.945280,-3.778295,0.900145,-3.864189,-3.857665,4.089253,11.174727,-0.070910,-0.095952,0.000000,0.105681,0.381374,-0.000000
2.260000,-0.706688,1.187444,-1.208008,2.645422,0.171961,0.345328,0.997193,-0.758270,-0.983361,-3.815802,0.937722,-3.751488,-3.641722,3.379205,11.517764,-0.069842,-0.092128,0.000000,0.107827,0.381448,0.000000
2.270000,-0.680184,1.189126,-1.204605,2.655203,0.164426,0.335309,0.958856,-0.748738,-1.020286,-3.851113,0.967302,-3.632477,-3.422550,2.582555,12.128268,-0.068756,-0.088304,0.000000,0.109215,0.381382,0.000000
2.280000,-0.653585,1.190733,-1.201303,2.664598,0.156987,0.324926,0.920178,-0.738946,-1.056007,-3.884296,0.990337,-3.512195,-3.214413,2.026705,11.919389,-0.067659,-0.084482,0.000000,0.110021,0.381230,-0.000000
2.290000,-0.626894,1.192266,-1.198108,2.673605,0.149647,0.314193,0.881178,-0.728953,-1.090529,-3.915365,1.006938,-3.391093,-2.997649,1.248859,12.450636,-0.066557,-0.080663,0.000000,0.110264,0.380998,-0.000000
2.300000,-0.600114,1.193726,-1.195021,2.682221,0.142408,0.303120,0.841878,-0.718834,-1.123809,-3.944270,1.015734,-3.264560,-2.785527,0.557433,12.699404,-0.065456,-0.076846,0.000000,0.109799,0.380652,-0.000000
2.310000,-0.573251,1.195114,-1.192046,2.690442,0.135271,0.291721,0.802299,-0.708658,-1.155817,-3.971228,1.018319,-3.136746,-2.578157,-0.117146,12.929120,-0.064363,-0.073033,0.000000,0.108803,0.380246,0.000000
2.320000,-0.546307,1.196432,-1.189187,2.698266,0.128235,0.280008,0.762462,-0.698496,-1.186530,-3.995579,1.012709,-3.005408,-2.319841,-0.925913,13.268215,-0.063283,-0.069226,0.000000,0.107090,0.379708,0.000000
2.330000,-0.519287,1.197679,-1.186447,2.705690,0.121301,0.267995,0.722392,-0.688422,-1.215921,-4.018207,1.001461,-2.872851,-2.206971,-1.318538,13.238119,-0.062223,-0.065424,0.000000,0.104909,0.379138,-0.000000
2.340000,-0.492194,1.198858,-1.183828,2.712713,0.114466,0.255694,0.682103,-0.678484,-1.243985,-4.039171,0.984848,-2.739346,-1.958569,-2.078172,13.527819,-0.061186,-0.061628,0.000000,0.102289,0.378542,-0.000000
2.350000,-0.465034,1.199969,-1.181334,2.719332,0.107730,0.243119,0.641618,-0.668752,-1.270697,-4.057622,0.960621,-2.602923,-1.759441,-2.686744,13.687025,-0.060179,-0.057840,0.000000,0.099022,0.377836,-0.000000
2.360000,-0.437809,1.201013,-1.178967,2.725545,0.101090,0.230285,0.600956,-0.659288,-1.296038,-4.074406,0.931295,-2.464953,-1.564648,-3.268008,13.843089,-0.059207,-0.054058,0.000000,0.095342,0.377106,0.000000
2.370000,-0.410524,1.201991,-1.176729,2.731350,0.094544,0.217203,0.560139,-0.650152,-1.319996,-4.088617,0.894482,-2.326671,-1.310256,-4.000047,13.870955,-0.058275,-0.050285,0.000000,0.091044,0.376277,0.000000
2.380000,-0.383183,1.202904,-1.174624,2.736747,0.088086,0.203889,0.519189,-0.641412,-1.342564,-4.101295,0.853281,-2.186320,-1.226732,-4.232891,14.199216,-0.057387,-0.046520,0.000000,0.086399,0.375437,-0.000000
2.390000,-0.355791,1.203753,-1.172652,2.741733,0.081714,0.190357,0.478118,-0.633099,-1.363716,-4.112509,0.808082,-2.043931,-0.983839,-4.893568,14.216422,-0.056548,-0.042763,0.000000,0.081439,0.374593,0.000000
2.400000,-0.328350,1.204539,-1.170817,2.746309,0.075422,0.176620,0.436947,-0.625274,-1.383444,-4.121256,0.756282,-1.901513,-0.798410,-5.370396,14.325855,-0.055760,-0.039016,0.000000,0.075943,0.373664,0.000000
2.410000,-0.300866,1.205262,-1.169120,2.750472,0.069207,0.162693,0.395698,-0.617985,-1.401738,-4.128318,0.700819,-1.757155,-0.613454,-5.812401,14.434902,-0.055030,-0.035279,0.000000,0.070163,0.372715,-0.000000
2.420000,-0.273342,1.205923,-1.167564,2.754223,0.063061,0.148590,0.354387,-0.611279,-1.418592,-4.133530,0.639256,-1.613842,-0.429785,-6.401852,14.331983,-0.054359,-0.031551,0.000000,0.063895,0.371741,0.000000
2.430000,-0.245783,1.206523,-1.166149,2.757560,0.056979,0.134326,0.313033,-0.605209,-1.434007,-4.136931,0.574844,-1.468325,-0.250829,-6.471970,14.773541,-0.053752,-0.027833,0.000000,0.057408,0.370735,-0.000000
2.440000,-0.218192,1.207063,-1.164878,2.760483,0.050954,0.119915,0.271655,-0.599790,-1.447950,-4.138544,0.508048,-1.320531,-0.071761,-6.975419,14.677435,-0.053211,-0.024125,0.000000,0.050742,0.369702,0.000000
2.450000,-0.190575,1.207542,-1.163751,2.762993,0.044981,0.105371,0.230268,-0.595066,-1.460423,-4.138378,0.436251,-1.173896,0.104279,-7.284468,14.755057,-0.052739,-0.020428,0.000000,0.043678,0.368650,-0.000000
2.460000,-0.162934,1.207963,-1.162771,2.765089,0.039051,0.090711,0.188893,-0.591070,-1.471422,-4.136384,0.362504,-1.025666,0.279771,-7.552954,14.826555,-0.052338,-0.016742,0.000000,0.036468,0.367570,0.000000
2.470000,-0.135274,1.208324,-1.161937,2.766771,0.033157,0.075948,0.147545,-0.587832,-1.480940,-4.132922,0.284449,-0.877968,0.426251,-7.960557,14.773345,-0.052011,-0.013067,0.000000,0.028910,0.366496,-0.000000
2.480000,-0.107600,1.208626,-1.161252,2.768040,0.027291,0.061097,0.106241,-0.585384,-1.488976,-4.127574,0.205337,-0.728928,0.643244,-7.852655,15.035699,-0.051760,-0.009402,0.000000,0.021279,0.365389,0.000000
2.490000,-0.079915,1.208869,-1.160716,2.768896,0.021447,0.046173,0.065000,-0.583726,-1.495513,-4.120346,0.125675,-0.578518,0.788048,-8.165522,14.983275,-0.051585,-0.005749,0.000000,0.013614,0.364252,-0.000000
2.500000,-0.052223,1.209055,-1.160329,2.769340,0.015614,0.031192,0.023839,-0.582882,-1.500550,-4.111703,0.042943,-0.428755,0.954292,-8.282736,15.030269,-0.051489,-0.002108,0.000000,0.005696,0.363125,0.000000
2.510000,-0.024529,1.209182,-1.160092,2.769373,0.009786,0.016167,-0.017228,-0.582866,-1.504085,-4.101324,-0.039808,-0.278141,1.117636,-8.355988,15.070094,-0.051471,0.001523,0.000000,-0.002218,0.361979,0.000000
2.520000,0.003163,1.209250,-1.160006,2.768996,0.003954,0.001115,-0.058183,-0.583688,-1.506113,-4.089389,-0.124918,-0.127571,1.272242,-8.567060,15.063900,-0.051534,0.005142,0.000000,-0.010334,0.360830,-0.000000
2.530000,0.030849,1.209261,-1.160070,2.768210,-0.001890,-0.013950,-0.099010,-0.585361,-1.506634,-4.075819,-0.209081,0.023559,1.441356,-8.256036,15.161871,-0.051678,0.008749,0.000000,-0.018370,0.359672,-0.000000
2.540000,0.058526,1.209213,-1.160285,2.767016,-0.007756,-0.029012,-0.139694,-0.587864,-1.505640,-4.060636,-0.291769,0.175224,1.591512,-8.367862,15.148930,-0.051901,0.012345,0.000000,-0.026286,0.358505,-0.000000
2.550000,0.086188,1.209106,-1.160650,2.765416,-0.013651,-0.044058,-0.180218,-0.591201,-1.503131,-4.043971,-0.375515,0.326699,1.744554,-8.281756,15.166437,-0.052204,0.015929,0.000000,-0.034306,0.357340,-0.000000
2.560000,0.113833,1.208939,-1.161166,2.763412,-0.019583,-0.059070,-0.220568,-0.595366,-1.499104,-4.025872,-0.457201,0.478661,1.892731,-8.149968,15.181878,-0.052586,0.019501,0.000000,-0.042165,0.356182,0.000000
2.570000,0.141455,1.208714,-1.161831,2.761006,-0.025561,-0.074035,-0.260729,-0.600349,-1.493561,-4.005961,-0.539314,0.629921,2.071627,-8.167624,15.110989,-0.053048,0.023062,0.000000,-0.050082,0.354994,0.000000
2.580000,0.169051,1.208428,-1.162646,2.758198,-0.031592,-0.088936,-0.300684,-0.606142,-1.486504,-3.984812,-0.618356,0.781741,2.157119,-7.631062,15.253392,-0.053587,0.026611,0.000000,-0.057759,0.353830,-0.000000
2.590000,0.196618,1.208082,-1.163610,2.754993,-0.037686,-0.103760,-0.340422,-0.612703,-1.477924,-3.962476,-0.693793,0.934122,2.327094,-7.549199,15.179374,-0.054202,0.030149,0.000000,-0.065155,0.352693,-0.000000
2.600000,0.224150,1.207674,-1.164721,2.751391,-0.043849,-0.118490,-0.379927,-0.620016,-1.467825,-3.938428,-0.768368,1.085669,2.464736,-7.260167,15.170967,-0.054890,0.033675,0.000000,-0.072511,0.351532,-0.000000
2.610000,0.251644,1.207205,-1.165979,2.747395,-0.050089,-0.133111,-0.419186,-0.628055,-1.456207,-3.913153,-0.838775,1.238002,2.599859,-6.926549,15.167385,-0.055651,0.037190,0.000000,-0.079546,0.350395,-0.000000
2.620000,0.279097,1.206672,-1.167383,2.743008,-0.056412,-0.147609,-0.458185,-0.636789,-1.443075,-3.886349,-0.907802,1.387822,2.750945,-6.764146,14.918858,-0.056481,0.040694,0.000000,-0.086496,0.349243,0.000000
2.630000,0.306503,1.206076,-1.168931,2.738232,-0.062827,-0.161968,-0.496909,-0.646193,-1.428445,-3.858343,-0.971660,1.538943,2.849522,-5.998096,15.307724,-0.057379,0.044186,0.000000,-0.093047,0.348116,0.000000
2.640000,0.333860,1.205415,-1.170622,2.733071,-0.069338,-0.176172,-0.535348,-0.656203,-1.412291,-3.829172,-1.029837,1.691451,2.993865,-5.740740,15.067785,-0.058340,0.047668,0.000000,-0.099159,0.347019,0.000000
2.650000,0.361163,1.204689,-1.172454,2.727526,-0.075953,-0.190208,-0.573488,-0.666783,-1.394627,-3.798555,-1.085429,1.841324,3.119533,-5.262947,15.029179,-0.059362,0.051138,0.000000,-0.105088,0.345910,-0.000000
2.660000,0.388409,1.203896,-1.174425,2.721602,-0.082676,-0.204060,-0.611315,-0.677890,-1.375460,-3.766639,-1.134903,1.992070,3.245677,-4.745731,14.986911,-0.060441,0.054598,0.000000,-0.110541,0.344815,-0.000000
2.670000,0.415594,1.203035,-1.176534,2.715301,-0.089512,-0.217713,-0.648818,-0.689473,-1.354798,-3.733811,-1.181346,2.139828,3.336672,-4.420923,14.688756,-0.061572,0.058048,0.000000,-0.115774,0.343749,0.000000
2.680000,0.442714,1.202105,-1.178779,2.708627,-0.096467,-0.231151,-0.685986,-0.701492,-1.332660,-3.699554,-1.220768,2.288451,3.514994,-3.454953,15.037440,-0.062754,0.061486,0.000000,-0.120452,0.342684,0.000000
2.690000,0.469765,1.201105,-1.181156,2.701582,-0.103543,-0.244361,-0.722804,-0.713863,-1.309025,-3.663865,-1.252709,2.437972,3.605223,-3.046337,14.736561,-0.063979,0.064915,0.000000,-0.124537,0.341619,0.000000
2.700000,0.496744,1.200034,-1.183665,2.694172,-0.110745,-0.257327,-0.759261,-0.726535,-1.283913,-3.627311,-1.280603,2.584207,3.722470,-2.410508,14.634884,-0.065244,0.068333,0.000000,-0.128309,0.340581,0.000000
2.710000,0.523648,1.198890,-1.186302,2.686398,-0.118075,-0.270034,-0.795345,-0.739448,-1.257341,-3.589412,-1.300793,2.729941,3.838514,-1.743298,14.506956,-0.066543,0.071741,0.000000,-0.131457,0.339541,0.000000
2.720000,0.550471,1.197672,-1.189065,2.678266,-0.125534,-0.282469,-0.831047,-0.752538,-1.229319,-3.550720,-1.316492,2.874263,3.917499,-1.276574,14.355707,-0.067872,0.075139,0.000000,-0.134260,0.338539,-0.000000
2.730000,0.577212,1.196379,-1.191951,2.669779,-0.133126,-0.294616,-0.866355,-0.765749,-1.199861,-3.510691,-1.323812,3.017019,4.088436,-0.180375,14.191811,-0.069226,0.078527,0.000000,-0.136367,0.337526,-0.000000
2.740000,0.603866,1.195009,-1.194956,2.660940,-0.140849,-0.306461,-0.901256,-0.778984,-1.168985,-3.469324,-1.322388,3.157988,4.166235,0.350848,13.996111,-0.070597,0.081906,0.000000,-0.137737,0.336495,-0.000000
2.750000,0.630429,1.193561,-1.198079,2.651755,-0.148705,-0.317991,-0.935740,-0.792181,-1.136709,-3.427221,-1.315741,3.296876,4.272253,1.098059,13.778840,-0.071980,0.085274,0.000000,-0.138680,0.335498,0.000000
2.760000,0.656900,1.192034,-1.201315,2.642227,-0.156693,-0.329191,-0.969797,-0.805269,-1.103058,-3.384019,-1.300425,3.432812,4.373734,1.863674,13.522111,-0.073368,0.088633,0.000000,-0.138874,0.334492,-0.000000
2.770000,0.683273,1.190427,-1.204661,2.632361,-0.164810,-0.340047,-1.003416,-0.818172,-1.068052,-3.339700,-1.279381,3.568315,4.483676,2.447283,13.459155,-0.074756,0.091982,0.000000,-0.138594,0.333491,0.000000
2.780000,0.709546,1.188738,-1.208115,2.622160,-0.173055,-0.350547,-1.036588,-0.830826,-1.031707,-3.294478,-1.249337,3.699493,4.560067,3.566050,12.767945,-0.076137,0.095321,0.000000,-0.137509,0.332482,-0.000000
2.790000,0.735715,1.186966,-1.211671,2.611630,-0.181425,-0.360677,-1.069303,-0.843128,-0.994079,-3.248390,-1.210074,3.825897,4.662884,4.185775,12.623910,-0.077503,0.098651,0.000000,-0.135584,0.331456,-0.000000
2.800000,0.761777,1.185109,-1.215327,2.600776,-0.189916,-0.370425,-1.101552,-0.855009,-0.955191,-3.201281,-1.164745,3.950884,4.752606,4.981315,12.253174,-0.078847,0.101970,0.000000,-0.133120,0.330427,-0.000000
2.810000,0.787729,1.183167,-1.219078,2.589601,-0.198524,-0.379777,-1.133326,-0.866392,-0.915080,-3.153433,-1.110607,4.070575,4.837303,5.778365,11.841264,-0.080162,0.105280,0.000000,-0.129826,0.329379,0.000000
2.820000,0.813568,1.181138,-1.222921,2.578111,-0.207242,-0.388722,-1.164616,-0.877200,-0.873781,-3.104354,-1.049809,4.189090,4.957742,6.446320,11.700036,-0.081442,0.108579,0.000000,-0.125918,0.328303,0.000000
2.830000,0.839290,1.179022,-1.226851,2.566310,-0.216066,-0.397249,-1.195412,-0.887359,-0.831321,-3.054712,-0.980320,4.301183,4.969601,7.452348,10.708291,-0.082678,0.111868,0.000000,-0.121154,0.327203,-0.000000
2.840000,0.864893,1.176816,-1.230865,2.554204,-0.224987,-0.405345,-1.225709,-0.896777,-0.787782,-3.004565,-0.902120,4.406320,5.079677,8.119543,10.472061,-0.083862,0.115146,0.000000,-0.115512,0.326069,0.000000
2.850000,0.890374,1.174522,-1.234957,2.541798,-0.233999,-0.413001,-1.255499,-0.905381,-0.743200,-2.953301,-0.817405,4.509176,5.152303,8.887342,9.936341,-0.084986,0.118412,0.000000,-0.109216,0.324890,0.000000
2.860000,0.915728,1.172136,-1.239123,2.529096,-0.243092,-0.420206,-1.284773,-0.913098,-0.697624,-2.901479,-0.724715,4.604921,5.222062,9.637016,9.362311,-0.086043,0.121667,0.000000,-0.102076,0.323657,0.000000
2.870000,0.940955,1.169660,-1.243359,2.516104,-0.252257,-0.426950,-1.313525,-0.919851,-0.651108,-2.848773,-0.624826,4.697744,5.308463,10.347999,9.047010,-0.087025,0.124909,0.000000,-0.094180,0.322380,0.000000
2.880000,0.966049,1.167091,-1.247661,2.502827,-0.261485,-0.433225,-1.341747,-0.925570,-0.603697,-2.795531,-0.517604,4.782608,5.339098,11.092868,7.915985,-0.087924,0.128138,0.000000,-0.085457,0.321026,0.000000
2.890000,0.991010,1.164430,-1.252022,2.489271,-0.270765,-0.439022,-1.369434,-0.930179,-0.555485,-2.741795,-0.403265,4.859005,5.417954,11.759865,7.510175,-0.088731,0.131354,0.000000,-0.075902,0.319581,0.000000
2.900000,1.015834,1.161675,-1.256439,2.475440,-0.280085,-0.444332,-1.396580,-0.933613,-0.506527,-2.687268,-0.282409,4.931427,5.476918,12.417115,6.818493,-0.089440,0.134555,0.000000,-0.065590,0.318063,0.000000
2.910000,1.040518,1.158828,-1.260907,2.461341,-0.289433,-0.449150,-1.423178,-0.935808,-0.456887,-2.632225,-0.155433,4.995221,5.533435,13.035647,6.092459,-0.090041,0.137741,0.000000,-0.054502,0.316431,-0.000000
2.920000,1.065060,1.155887,-1.265421,2.446979,-0.298797,-0.453468,-1.449223,-0.936697,-0.406634,-2.576598,-0.021230,5.054654,5.590292,13.737887,5.636034,-0.090527,0.140909,0.000000,-0.042548,0.314723,-0.000000
2.930000,1.089457,1.152852,-1.269975,2.432359,-0.308162,-0.457281,-1.474708,-0.936216,-0.355827,-2.520454,0.117920,5.104630,5.638054,14.083744,4.350332,-0.090889,0.144060,0.000000,-0.029884,0.312868,0.000000
2.940000,1.113706,1.149723,-1.274565,2.417486,-0.317516,-0.460583,-1.499630,-0.934324,-0.304576,-2.463818,0.261548,5.144695,5.690072,14.696700,3.814372,-0.091122,0.147192,0.000000,-0.016531,0.310848,0.000000
2.950000,1.137806,1.146502,-1.279185,2.402368,-0.326844,-0.463371,-1.523983,-0.930964,-0.252948,-2.406672,0.411187,5.179528,5.737695,15.162440,2.993717,-0.091217,0.150303,0.000000,-0.002366,0.308713,0.000000
2.960000,1.161753,1.143187,-1.283830,2.387009,-0.336131,-0.465641,-1.547762,-0.926090,-0.201020,-2.349086,0.564176,5.204452,5.782965,15.570947,2.145812,-0.091167,0.153391,0.000000,0.012412,0.306393,-0.000000
2.970000,1.185545,1.139779,-1.288496,2.371414,-0.345361,-0.467391,-1.570963,-0.919656,-0.148874,-2.290984,0.723766,5.223837,5.833434,16.199882,1.575444,-0.090966,0.156456,0.000000,0.028098,0.303932,-0.000000
2.980000,1.209180,1.136280,-1.293176,2.355591,-0.354518,-0.468618,-1.593581,-0.911610,-0.096580,-2.232501,0.885087,5.232697,5.862778,16.051340,0.189344,-0.090604,0.159494,0.000000,0.044276,0.301254,0.000000
2.990000,1.232656,1.132689,-1.297867,2.339545,-0.363588,-0.469322,-1.615612,-0.901952,-0.044258,-2.173659,1.047434,5.230678,5.909050,16.549733,-0.440400,-0.090079,0.162505,0.000000,0.060887,0.298340,-0.000000
3.000000,1.255970,1.129008,-1.302561,2.323281,-0.372552,-0.469503,-1.637052,-0.890643,0.008016,-2.114360,1.214710,5.222542,5.947139,16.756164,-1.342360,-0.089383,0.165485,0.000000,0.078289,0.295241,-0.000000
3.010000,1.279121,1.125239,-1.307255,2.306806,-0.381395,-0.469162,-1.657898,-0.877660,0.060157,-2.054720,1.381920,5.204013,5.983811,16.891785,-2.254290,-0.088512,0.168432,0.000000,0.096030,0.291885,-0.000000
3.020000,1.302106,1.121381,-1.311943,2.290125,-0.390099,-0.468301,-1.678145,-0.862983,0.112075,-1.994659,1.554339,5.178455,6.025124,17.373269,-2.964884,-0.087460,0.171345,0.000000,0.114618,0.288307,0.000000
3.030000,1.324923,1.117437,-1.316619,2.273245,-0.398649,-0.466922,-1.697790,-0.846581,0.163690,-1.934287,1.724801,5.142464,6.049012,16.702816,-4.236624,-0.086219,0.174220,0.000000,0.133366,0.284444,-0.000000
3.040000,1.347570,1.113409,-1.321279,2.256171,-0.407025,-0.465028,-1.716830,-0.828498,0.214888,-1.873620,1.892428,5.095889,6.087375,17.023779,-4.969914,-0.084792,0.177054,0.000000,0.152183,0.280279,-0.000000
3.050000,1.370046,1.109297,-1.325918,2.238910,-0.415213,-0.462626,-1.735261,-0.808718,0.265586,-1.812569,2.063285,5.042164,6.119514,16.926892,-5.881922,-0.083173,0.179845,0.000000,0.171652,0.275849,0.000000
3.060000,1.392348,1.105105,-1.330530,2.221468,-0.423194,-0.459719,-1.753080,-0.787248,0.315698,-1.751212,2.230419,4.978688,6.151114,16.753575,-6.782969,-0.081360,0.182589,0.000000,0.191083,0.271101,0.000000
3.070000,1.414474,1.100834,-1.335111,2.203851,-0.430952,-0.456314,-1.770284,-0.764095,0.365132,-1.689555,2.400580,4.906805,6.180879,17.012656,-7.619619,-0.079349,0.185284,0.000000,0.211150,0.266046,-0.000000
3.080000,1.436424,1.096487,-1.339655,2.186064,-0.438470,-0.452419,-1.786870,-0.739257,0.413803,-1.627584,2.565100,4.825754,6.213250,15.873419,-8.589006,-0.077138,0.187926,0.000000,0.230954,0.260654,0.000000
3.090000,1.458195,1.092065,-1.344158,2.168115,-0.445732,-0.448041,-1.802835,-0.712817,0.461617,-1.565304,2.723024,4.735647,6.242137,15.959597,-9.400980,-0.074731,0.190511,0.000000,0.250373,0.254913,0.000000
3.100000,1.479786,1.087573,-1.348614,2.150010,-0.452722,-0.443189,-1.818175,-0.684789,0.508490,-1.502737,2.881901,4.637558,6.271827,15.548553,-10.241113,-0.072128,0.193037,0.000000,0.270166,0.248835,-0.000000
3.110000,1.501195,1.083012,-1.353020,2.131754,-0.459423,-0.437874,-1.832888,-0.655206,0.554341,-1.439810,3.033637,4.531422,6.302509,15.064942,-11.048923,-0.069330,0.195500,0.000000,0.289465,0.242399,-0.000000
3.120000,1.522421,1.078386,-1.357370,2.113354,-0.465821,-0.432106,-1.846972,-0.624111,0.599087,-1.376788,3.185549,4.416052,6.312533,15.040298,-11.955739,-0.066338,0.197895,0.000000,0.309025,0.235597,-0.000000
3.130000,1.543462,1.073697,-1.361660,2.094817,-0.471900,-0.425897,-1.860423,-0.591527,0.642640,-1.313335,3.328637,4.293765,6.378459,13.560035,-12.494562,-0.063152,0.200221,0.000000,0.327851,0.228431,0.000000
3.140000,1.564316,1.068949,-1.365887,2.076148,-0.477647,-0.419258,-1.873237,-0.557572,0.684941,-1.249435,3.461988,4.164954,6.390853,13.371564,-13.327486,-0.059784,0.202472,0.000000,0.345804,0.220901,0.000000
3.150000,1.584984,1.064145,-1.370044,2.057354,-0.483047,-0.412202,-1.885411,-0.522288,0.725910,-1.185425,3.593602,4.027886,6.421826,12.673447,-14.014807,-0.056236,0.204645,0.000000,0.363717,0.212996,0.000000
3.160000,1.605463,1.059289,-1.374129,2.038442,-0.488088,-0.404744,-1.896944,-0.485736,0.765481,-1.121058,3.715403,3.885258,6.451748,11.917228,-14.653659,-0.052513,0.206738,0.000000,0.380673,0.204743,0.000000
3.170000,1.625753,1.054384,-1.378138,2.019417,-0.492758,-0.396897,-1.907832,-0.447986,0.803583,-1.056404,3.833990,3.733553,6.480221,11.560982,-15.534404,-0.048623,0.208744,0.000000,0.397365,0.196067,0.000000
3.180000,1.645851,1.049435,-1.382066,2.000287,-0.497044,-0.388678,-1.918071,-0.409094,0.840139,-0.991429,3.941616,3.577776,6.514806,9.950173,-15.609238,-0.044570,0.210662,0.000000,0.412890,0.187072,-0.000000
3.190000,1.665758,1.044445,-1.385910,1.981058,-0.500936,-0.380100,-1.927659,-0.369195,0.875128,-0.926129,4.037545,3.418555,6.544170,9.462921,-16.375163,-0.040369,0.212489,0.000000,0.427122,0.177773,0.000000
3.200000,1.685472,1.039418,-1.389667,1.961736,-0.504425,-0.371180,-1.936593,-0.328355,0.908482,-0.860533,4.128766,3.251675,6.576028,8.542438,-16.845832,-0.036029,0.214219,0.000000,0.440805,0.168076,0.000000
3.210000,1.704992,1.034358,-1.393333,1.942328,-0.507501,-0.361936,-1.944869,-0.286660,0.940155,-0.794621,4.208484,3.082334,6.608088,7.582839,-17.252522,-0.031558,0.215852,0.000000,0.453134,0.158100,0.000000
3.220000,1.724318,1.029269,-1.396904,1.922841,-0.510155,-0.352383,-1.952484,-0.244203,0.970097,-0.728355,4.282045,2.904594,6.643759,6.943321,-18.056419,-0.026968,0.217382,0.000000,0.464678,0.147705,0.000000
3.230000,1.743449,1.024156,-1.400379,1.903281,-0.512382,-0.342540,-1.959435,-0.201061,0.998247,-0.661777,4.343458,2.726220,6.672004,5.329809,-17.603004,-0.022270,0.218806,0.000000,0.474717,0.137084,-0.000000
3.240000,1.762384,1.019023,-1.403754,1.883655,-0.514175,-0.332424,-1.965718,-0.157377,1.024624,-0.594880,4.392239,2.548026,6.708975,4.606233,-18.260693,-0.017480,0.220123,0.000000,0.483162,0.126265,0.000000
3.250000,1.781122,1.013874,-1.407027,1.863969,-0.515528,-0.322053,-1.971331,-0.113237,1.049181,-0.527615,4.433973,2.363153,6.743540,3.555331,-18.472737,-0.012609,0.221330,0.000000,0.490615,0.115084,-0.000000
3.260000,1.799663,1.008714,-1.410195,1.844230,-0.516438,-0.311447,-1.976266,-0.068738,1.071893,-0.459324,4.463945,2.179084,6.792805,2.496756,-18.617475,-0.007673,0.222424,0.000000,0.496512,0.103661,0.000000
3.270000,1.818006,1.003547,-1.413255,1.824446,-0.516902,-0.300622,-1.980526,-0.023989,1.092736,-0.392880,4.484426,1.988351,6.614396,1.540801,-19.244461,-0.002683,0.223403,0.000000,0.501087,0.092135,0.000000
3.280000,1.836152,0.998377,-1.416206,1.804622,-0.516918,-0.289598,-1.984117,0.020912,1.111670,-0.324551,4.493540,1.800162,7.054978,0.279993,-18.376633,0.002344,0.224266,0.000000,0.504101,0.080339,-0.000000
3.290000,1.854099,0.993210,-1.419047,1.784766,-0.516484,-0.278395,-1.987009,0.065844,1.128752,-0.254177,4.491192,1.615392,6.900144,-0.691103,-18.848319,0.007393,0.225009,0.000000,0.505535,0.068290,-0.000000
3.300000,1.871847,0.988049,-1.421774,1.764884,-0.515601,-0.267029,-1.989208,0.110705,1.143957,-0.185536,4.479243,1.425730,6.946763,-1.755526,-18.798597,0.012450,0.225632,0.000000,0.505581,0.056207,0.000000
3.310000,1.889396,0.982899,-1.424387,1.744984,-0.514270,-0.255522,-1.990718,0.155394,1.157279,-0.116511,4.456950,1.238831,6.971347,-2.796273,-18.705418,0.017500,0.226133,0.000000,0.504152,0.044065,0.000000
3.320000,1.906747,0.977765,-1.426884,1.725072,-0.512494,-0.243890,-1.991529,0.199802,1.168727,-0.045073,4.422488,1.050562,7.205827,-4.001241,-18.812979,0.022527,0.226512,0.000000,0.501034,0.031551,0.000000
3.330000,1.923898,0.972651,-1.429264,1.705156,-0.510276,-0.232153,-1.991624,0.243814,1.178301,0.025290,4.378922,0.865402,6.863059,-4.705798,-18.207811,0.027516,0.226765,0.000000,0.496581,0.019175,0.000000
3.340000,1.940850,0.967561,-1.431527,1.685242,-0.507619,-0.220330,-1.991028,0.287351,1.186048,0.094406,4.326577,0.683962,7.070801,-5.852441,-18.202189,0.032455,0.226896,0.000000,0.490839,0.006987,-0.000000
3.350000,1.957603,0.962500,-1.433670,1.665338,-0.504531,-0.208439,-1.989727,0.330306,1.191978,0.165754,4.262748,0.502593,7.088177,-6.815678,-17.936425,0.037328,0.226904,0.000000,0.483504,-0.005473,-0.000000
3.360000,1.974156,0.957472,-1.435695,1.645450,-0.501016,-0.196497,-1.987709,0.372581,1.196115,0.237992,4.190817,0.325347,7.135382,-7.736592,-17.626154,0.042121,0.226787,0.000000,0.474984,-0.017941,-0.000000
3.370000,1.990512,0.952481,-1.437600,1.625586,-0.497082,-0.184522,-1.984984,0.414078,1.198487,0.306396,4.106550,0.149092,6.761732,-8.944957,-17.502412,0.046821,0.226547,0.000000,0.464797,-0.029962,-0.000000
3.380000,2.006668,0.947532,-1.439386,1.605752,-0.492737,-0.172533,-1.981570,0.454691,1.199115,0.377768,4.015523,-0.022141,7.518874,-9.248988,-16.734878,0.051414,0.226186,0.000000,0.453620,-0.042171,0.000000
3.390000,2.022627,0.942628,-1.441051,1.585957,-0.487991,-0.160545,-1.977416,0.494369,1.198063,0.452368,3.918340,-0.187847,7.181072,-10.348547,-16.518322,0.055891,0.225701,0.000000,0.441549,-0.054570,0.000000
3.400000,2.038388,0.937773,-1.442597,1.566206,-0.482853,-0.148577,-1.972539,0.533018,1.195363,0.523229,3.810116,-0.351407,7.208243,-11.121987,-16.071688,0.060240,0.225095,0.000000,0.428029,-0.066466,-0.000000
3.410000,2.053951,0.932972,-1.444023,1.546508,-0.477334,-0.136644,-1.966946,0.570558,1.191058,0.595250,3.696936,-0.508748,7.212272,-11.826678,-15.581517,0.064449,0.224370,0.000000,0.413802,-0.078285,0.000000
3.420000,2.069318,0.928228,-1.445330,1.526870,-0.471446,-0.124761,-1.960632,0.606908,1.185189,0.667612,3.570780,-0.664664,7.241186,-13.085187,-15.415903,0.068510,0.223526,0.000000,0.397959,-0.090049,-0.000000
3.430000,2.084489,0.923544,-1.446518,1.507298,-0.465200,-0.112945,-1.953595,0.641967,1.177790,0.739673,3.441933,-0.813177,7.168798,-12.666469,-14.277449,0.072408,0.222565,0.000000,0.381726,-0.101527,0.000000
3.440000,2.099464,0.918925,-1.447589,1.487800,-0.458611,-0.101210,-1.945840,0.675743,1.168954,0.811306,3.311312,-0.953819,7.173629,-13.763857,-14.031123,0.076144,0.221491,0.000000,0.365240,-0.112688,-0.000000
3.450000,2.114245,0.914373,-1.448543,1.468384,-0.451690,-0.089570,-1.937369,0.708150,1.158718,0.882952,3.169494,-1.092187,7.136304,-14.277655,-13.457170,0.079707,0.220305,0.000000,0.347426,-0.123714,0.000000
3.460000,2.128832,0.909892,-1.449381,1.449055,-0.444452,-0.078040,-1.928187,0.739131,1.147132,0.953085,3.026045,-1.224035,7.067664,-14.724755,-12.884030,0.083092,0.219011,0.000000,0.329414,-0.134327,-0.000000
3.470000,2.143226,0.905485,-1.450104,1.429822,-0.436912,-0.066632,-1.918295,0.768631,1.134259,1.025914,2.872216,-1.349590,7.321663,-15.721087,-12.251095,0.086291,0.217609,0.000000,0.310260,-0.144990,-0.000000
3.480000,2.157429,0.901155,-1.450714,1.410692,-0.429085,-0.055359,-1.907680,0.796577,1.120159,1.095814,2.718337,-1.469566,6.650797,-15.036448,-11.743828,0.089297,0.216102,0.000000,0.291127,-0.155103,0.000000
3.490000,2.171441,0.896904,-1.451211,1.391671,-0.420986,-0.044233,-1.896391,0.823003,1.104886,1.162410,2.565352,-1.583936,6.841878,-15.866694,-11.103779,0.092115,0.214497,0.000000,0.272138,-0.164623,0.000000
3.500000,2.185263,0.892736,-1.451599,1.372766,-0.412630,-0.033265,-1.884422,0.847851,1.088502,1.231116,2.403844,-1.691853,6.721421,-16.113159,-10.505427,0.094737,0.212795,0.000000,0.252286,-0.174123,-0.000000
3.510000,2.198896,0.888652,-1.451877,1.353985,-0.404034,-0.022466,-1.871773,0.871082,1.071062,1.298506,2.242136,-1.795461,6.613899,-16.319136,-9.937293,0.097161,0.211000,0.000000,0.232489,-0.183278,-0.000000
3.520000,2.212343,0.884656,-1.452049,1.335333,-0.395214,-0.011847,-1.858467,0.892679,1.052635,1.362054,2.076713,-1.888039,6.229511,-16.661407,-8.849752,0.099386,0.209115,0.000000,0.212439,-0.191660,0.000000
3.530000,2.225603,0.880749,-1.452115,1.316818,-0.386186,-0.001417,-1.844530,0.912616,1.033307,1.425908,1.911085,-1.978161,6.543023,-16.453250,-9.184025,0.101410,0.207148,0.000000,0.192460,-0.199925,-0.000000
3.540000,2.238680,0.876933,-1.452078,1.298445,-0.376967,0.008816,-1.829947,0.930903,1.013076,1.490105,1.745862,-2.066257,6.155889,-16.680609,-8.162613,0.103235,0.205096,0.000000,0.172624,-0.208084,0.000000
3.550000,2.251573,0.873210,-1.451939,1.280221,-0.367574,0.018842,-1.814744,0.947524,0.992022,1.550140,1.578451,-2.143765,5.985382,-16.697287,-7.612700,0.104862,0.202967,0.000000,0.152743,-0.215460,-0.000000
3.560000,2.264285,0.869582,-1.451702,1.262152,-0.358022,0.028654,-1.798953,0.962476,0.970208,1.607525,1.411969,-2.218338,5.758760,-16.666671,-7.078420,0.106291,0.200765,0.000000,0.133087,-0.222396,0.000000
3.570000,2.276816,0.866050,-1.451367,1.244244,-0.348330,0.038244,-1.782580,0.975759,0.947691,1.667742,1.244575,-2.283295,6.019699,-16.732179,-6.132733,0.107524,0.198493,0.000000,0.113552,-0.229341,0.000000
3.580000,2.289170,0.862616,-1.450937,1.226502,-0.338513,0.047606,-1.765619,0.987374,0.924549,1.722361,1.078995,-2.345603,4.893279,-16.374524,-6.337260,0.108563,0.196154,0.000000,0.094344,-0.235546,-0.000000
3.590000,2.301347,0.859280,-1.450416,1.208933,-0.328588,0.056733,-1.748155,0.997348,0.900785,1.770853,0.915752,-2.405659,5.067013,-16.340710,-5.455343,0.109412,0.193757,0.000000,0.075516,-0.240966,0.000000
3.600000,2.313349,0.856044,-1.449804,1.191541,-0.318571,0.065620,-1.730191,1.005689,0.876470,1.821398,0.752938,-2.456621,4.776211,-16.142201,-4.957250,0.110074,0.191305,0.000000,0.056962,-0.246345,0.000000
3.610000,2.325178,0.852909,-1.449104,1.174331,-0.308479,0.074261,-1.711745,1.012422,0.851666,1.867104,0.594054,-2.503331,4.475175,-15.881689,-4.448023,0.110554,0.188803,0.000000,0.038992,-0.251052,0.000000
3.620000,2.336837,0.849875,-1.448319,1.157307,-0.298328,0.082651,-1.692850,1.017559,0.826415,1.911891,0.433096,-2.546183,4.370717,-16.058224,-4.064367,0.110853,0.186254,0.000000,0.020961,-0.255521,0.000000
3.630000,2.348325,0.846943,-1.447452,1.140475,-0.288133,0.090788,-1.673523,1.021105,0.800761,1.952185,0.278161,-2.583401,3.682656,-14.915650,-3.379370,0.110976,0.183663,0.000000,0.003757,-0.259343,-0.000000
3.640000,2.359647,0.844112,-1.446504,1.123838,-0.277911,0.098665,-1.653823,1.023147,0.774766,1.987713,0.129917,-2.615017,3.531429,-14.976321,-3.006110,0.110932,0.181037,0.000000,-0.012554,-0.262500,0.000000
3.650000,2.370803,0.841384,-1.445479,1.107400,-0.267675,0.106282,-1.633772,1.023697,0.748472,2.021842,-0.019164,-2.643052,3.182837,-14.588118,-2.542930,0.110724,0.178381,0.000000,-0.028801,-0.265397,0.000000
3.660000,2.381795,0.838759,-1.444380,1.091164,-0.257442,0.113634,-1.613403,1.022784,0.721921,2.051276,-0.162742,-2.666367,2.820092,-14.182288,-2.099066,0.110358,0.175699,0.000000,-0.044300,-0.267670,-0.000000
3.670000,2.392627,0.836235,-1.443208,1.075133,-0.247225,0.120720,-1.592749,1.020451,0.695161,2.079317,-0.303251,-2.684867,2.671704,-13.860625,-1.625565,0.109840,0.172996,0.000000,-0.059309,-0.269677,0.000000
3.680000,2.403299,0.833814,-1.441966,1.059310,-0.237037,0.127537,-1.571834,1.016736,0.668237,2.102271,-0.438729,-2.699394,1.914756,-13.230289,-1.283001,0.109175,0.170275,0.000000,-0.073640,-0.271050,0.000000
3.690000,2.413814,0.831495,-1.440658,1.043697,-0.226894,0.134084,-1.550722,1.011695,0.641186,2.119932,-0.568915,-2.710123,1.733272,-12.860052,-0.842524,0.108370,0.167545,0.000000,-0.087275,-0.271779,-0.000000
3.700000,2.424173,0.829276,-1.439285,1.028296,-0.216808,0.140360,-1.529439,1.005369,0.614049,2.135943,-0.695410,-2.716487,1.352659,-12.381180,-0.455312,0.107431,0.164808,0.000000,-0.100375,-0.272247,-0.000000
3.710000,2.434380,0.827158,-1.437851,1.013108,-0.206791,0.146365,-1.508018,0.997798,0.586866,2.147658,-0.818001,-2.719708,0.980458,-11.918413,-0.092861,0.106364,0.162070,0.000000,-0.112945,-0.272204,0.000000
3.720000,2.444436,0.825140,-1.436359,0.998136,-0.196856,0.152097,-1.486499,0.989042,0.559675,2.155467,-0.931751,-2.717489,0.591456,-11.040619,0.438451,0.105176,0.159335,0.000000,-0.124442,-0.271660,0.000000
3.730000,2.454344,0.823221,-1.434810,0.983379,-0.187014,0.157558,-1.464921,0.979169,0.532523,2.159701,-1.043210,-2.712999,0.256389,-11.256645,0.454048,0.103876,0.156608,0.000000,-0.135601,-0.270711,-0.000000
3.740000,2.464105,0.821399,-1.433209,0.968837,-0.177276,0.162748,-1.443317,0.968183,0.505421,2.160417,-1.152606,-2.706525,-0.121852,-10.409174,0.934760,0.102465,0.153892,0.000000,-0.146453,-0.269374,0.000000
3.750000,2.473721,0.819675,-1.431556,0.954512,-0.167654,0.167667,-1.421725,0.956150,0.478410,2.157371,-1.253187,-2.695175,-0.476491,-9.918279,1.236360,0.100951,0.151193,0.000000,-0.156265,-0.267582,0.000000
3.760000,2.483195,0.818046,-1.429856,0.940403,-0.158156,0.172317,-1.400179,0.943128,0.451522,2.151333,-1.350580,-2.682016,-0.813771,-9.426128,1.515430,0.099340,0.148514,0.000000,-0.165667,-0.265471,0.000000
3.770000,2.492530,0.816511,-1.428111,0.926508,-0.148794,0.176698,-1.378716,0.929166,0.424789,2.140353,-1.440474,-2.663789,-1.298621,-8.682543,2.008777,0.097640,0.145860,0.000000,-0.174184,-0.262795,-0.000000
3.780000,2.501726,0.815070,-1.426323,0.912828,-0.139576,0.180813,-1.357379,0.914329,0.398249,2.127118,-1.526956,-2.644381,-1.343866,-8.617920,1.866736,0.095858,0.143234,0.000000,-0.182288,-0.259899,0.000000
3.790000,2.510787,0.813719,-1.424496,0.899360,-0.130511,0.184664,-1.336180,0.898637,0.371903,2.111863,-1.610209,-2.624096,-1.787382,-7.901893,2.308123,0.093996,0.140638,0.000000,-0.190003,-0.256813,-0.000000
3.800000,2.519714,0.812459,-1.422631,0.886104,-0.121606,0.188252,-1.315158,0.882151,0.345785,2.092112,-1.686116,-2.599277,-2.077270,-7.410241,2.533745,0.092061,0.138077,0.000000,-0.196876,-0.253232,0.000000
3.810000,2.528510,0.811287,-1.420731,0.873056,-0.112870,0.191580,-1.294343,0.864927,0.319922,2.070475,-1.758045,-2.572798,-2.346018,-6.919318,2.755549,0.090060,0.135553,0.000000,-0.203290,-0.249473,-0.000000
3.820000,2.537176,0.810201,-1.418800,0.860216,-0.104310,0.194651,-1.273765,0.847011,0.294336,2.044340,-1.823991,-2.544246,-2.782587,-6.325730,2.957504,0.087998,0.133069,0.000000,-0.209043,-0.245266,-0.000000
3.830000,2.545715,0.809200,-1.416839,0.847580,-0.095932,0.197468,-1.253460,0.828460,0.269045,2.016884,-1.885734,-2.513588,-2.702911,-6.025296,3.172522,0.085880,0.130629,0.000000,-0.214320,-0.240939,-0.000000
3.840000,2.554128,0.808282,-1.414851,0.835146,-0.087743,0.200033,-1.233430,0.809310,0.244071,1.988410,-1.943398,-2.480920,-3.085146,-5.452827,3.355004,0.083713,0.128232,0.000000,-0.219141,-0.236527,0.000000
3.850000,2.562418,0.807444,-1.412839,0.822911,-0.079747,0.202350,-1.213706,0.789613,0.219432,1.956062,-1.995283,-2.446478,-3.285353,-4.980765,3.536211,0.081500,0.125883,0.000000,-0.223343,-0.231744,0.000000
3.860000,2.570587,0.806686,-1.410805,0.810871,-0.071952,0.204423,-1.194309,0.769418,0.195150,1.923295,-2.042954,-2.409523,-3.452027,-4.516098,3.722818,0.079247,0.123582,0.000000,-0.227082,-0.226936,0.000000
3.870000,2.578637,0.806005,-1.408752,0.799023,-0.064361,0.206255,-1.175261,0.748772,0.171237,1.885364,-2.085274,-2.373251,-3.949416,-3.986508,3.656854,0.076960,0.121332,0.000000,-0.230279,-0.221661,0.000000
3.880000,2.586568,0.805398,-1.406681,0.787364,-0.056978,0.207849,-1.156597,0.727726,0.147697,1.848181,-2.123497,-2.333754,-3.478288,-3.660617,4.245047,0.074643,0.119135,0.000000,-0.233029,-0.216474,-0.000000
3.890000,2.594384,0.804864,-1.404596,0.775890,-0.049807,0.209210,-1.138292,0.706315,0.124574,1.812189,-2.157756,-2.290941,-3.900399,-3.154843,4.188343,0.072301,0.116990,0.000000,-0.235354,-0.211422,-0.000000
3.900000,2.602087,0.804401,-1.402498,0.764597,-0.042853,0.210342,-1.120372,0.684588,0.101873,1.771792,-2.186944,-2.248929,-3.993178,-2.721857,4.339945,0.069938,0.114897,0.000000,-0.237179,-0.205985,0.000000
3.910000,2.609677,0.804007,-1.400389,0.753481,-0.036116,0.211249,-1.102854,0.662589,0.079602,1.731694,-2.212212,-2.205012,-4.074065,-2.300256,4.471504,0.067559,0.112859,0.000000,-0.238603,-0.200610,-0.000000
3.920000,2.617157,0.803678,-1.398273,0.742539,-0.029602,0.211935,-1.085744,0.640360,0.057780,1.689900,-2.232694,-2.159259,-4.232440,-1.828710,4.649275,0.065167,0.110876,0.000000,-0.239545,-0.195096,-0.000000
3.930000,2.624528,0.803414,-1.396151,0.731765,-0.023310,0.212406,-1.069055,0.617947,0.036420,1.648141,-2.249466,-2.112652,-4.114873,-1.528300,4.669827,0.062769,0.108949,0.000000,-0.240124,-0.189629,-0.000000
3.940000,2.631793,0.803211,-1.394026,0.721156,-0.017243,0.212665,-1.052780,0.595383,0.015529,1.606658,-2.262673,-2.065315,-4.228956,-1.083976,4.824754,0.060366,0.107076,0.000000,-0.240360,-0.184234,-0.000000
3.950000,2.638952,0.803068,-1.391899,0.710708,-0.011403,0.212718,-1.036927,0.572709,-0.004881,1.564038,-2.271445,-2.016424,-4.242329,-0.703271,4.923090,0.057963,0.105258,0.000000,-0.240163,-0.178759,-0.000000
3.960000,2.646007,0.802982,-1.389772,0.700416,-0.005789,0.212569,-1.021498,0.549965,-0.024797,1.521750,-2.276800,-1.966768,-4.240014,-0.335688,5.014179,0.055564,0.103495,0.000000,-0.239644,-0.173361,-0.000000
3.970000,2.652961,0.802952,-1.387648,0.690277,-0.000403,0.212224,-1.006493,0.527188,-0.044213,1.479037,-2.277886,-1.916099,-4.273652,0.083652,5.111115,0.053172,0.101785,0.000000,-0.238720,-0.167960,0.000000
3.980000,2.659813,0.802974,-1.385528,0.680285,0.004755,0.211687,-0.991915,0.504417,-0.063117,1.436882,-2.275856,-1.864722,-4.154055,0.319293,5.162849,0.050790,0.100130,0.000000,-0.237511,-0.162656,0.000000
3.990000,2.666567,0.803046,-1.383415,0.670437,0.009685,0.210963,-0.977753,0.481680,-0.081505,1.395466,-2.270875,-1.812723,-4.153709,0.708054,5.242854,0.048422,0.098528,0.000000,-0.236036,-0.157467,0.000000
4.000000,2.673223,0.803166,-1.381310,0.660729,0.014388,0.210059,-0.964006,0.459013,-0.099369,1.354076,-2.262019,-1.759948,-4.094981,1.028290,5.303381,0.046071,0.096977,0.000000,-0.234205,-0.152319,0.000000
4.010000,2.679782,0.803333,-1.379214,0.651156,0.018866,0.208978,-0.950668,0.436449,-0.116702,1.313611,-2.250281,-1.706658,-4.022287,1.336207,5.356621,0.043739,0.095478,0.000000,-0.232119,-0.147303,-0.000000
4.020000,2.686246,0.803543,-1.377131,0.641714,0.023118,0.207726,-0.937733,0.414019,-0.133500,1.273428,-2.235161,-1.652811,-3.986931,1.667236,5.408555,0.041430,0.094028,0.000000,-0.229732,-0.142353,0.000000
4.030000,2.692617,0.803795,-1.375060,0.632400,0.027147,0.206310,-0.925195,0.391755,-0.149757,1.234446,-2.217366,-1.598573,-3.806904,1.889024,5.437807,0.039145,0.092628,0.000000,-0.227115,-0.137560,-0.000000
4.040000,2.698895,0.804085,-1.373005,0.623209,0.030954,0.204733,-0.913040,0.369680,-0.165471,1.196808,-2.197049,-1.544016,-3.744834,2.190920,5.475402,0.036888,0.091274,0.000000,-0.224286,-0.132937,-0.000000
4.050000,2.705081,0.804413,-1.370966,0.614137,0.034541,0.203002,-0.901258,0.347824,-0.180636,1.159801,-2.173749,-1.489111,-3.629394,2.448377,5.501389,0.034660,0.089967,0.000000,-0.221199,-0.128412,0.000000
4.060000,2.711178,0.804775,-1.368946,0.605182,0.037911,0.201122,-0.889839,0.326212,-0.195252,1.124032,-2.148162,-1.433909,-3.508426,2.691428,5.522769,0.032465,0.088704,0.000000,-0.217925,-0.124043,0.000000
4.070000,2.717185,0.805170,-1.366944,0.596340,0.041066,0.199099,-0.878772,0.304871,-0.209315,1.089793,-2.119737,-1.378816,-3.352245,2.967606,5.509599,0.030303,0.087484,0.000000,-0.214412,-0.119862,0.000000
4.080000,2.723105,0.805596,-1.364964,0.587606,0.044009,0.196938,-0.868040,0.283824,-0.222827,1.056717,-2.089354,-1.323430,-3.262231,3.106012,5.566971,0.028177,0.086305,0.000000,-0.210745,-0.115825,0.000000
4.090000,2.728938,0.806050,-1.363006,0.578978,0.046744,0.194644,-0.857633,0.263089,-0.235783,1.024855,-2.057177,-1.267793,-3.094740,3.351524,5.544536,0.026088,0.085166,0.000000,-0.206941,-0.111938,-0.000000
4.100000,2.734685,0.806530,-1.361072,0.570452,0.049272,0.192224,-0.847537,0.242689,-0.248184,0.994722,-2.022571,-1.212434,-2.945110,3.543327,5.541148,0.024039,0.084065,0.000000,-0.202939,-0.108254,-0.000000
4.110000,2.740347,0.807035,-1.359162,0.562026,0.051599,0.189682,-0.837735,0.222643,-0.260032,0.965969,-1.986364,-1.157121,-2.791256,3.721240,5.530075,0.022030,0.083000,0.000000,-0.198819,-0.104734,0.000000
4.120000,2.745926,0.807561,-1.357278,0.553696,0.053726,0.187025,-0.828211,0.202970,-0.271326,0.939022,-1.947955,-1.101757,-2.609293,3.933901,5.532021,0.020063,0.081969,0.000000,-0.194523,-0.101418,-0.000000
4.130000,2.751421,0.808109,-1.355422,0.545461,0.055659,0.184258,-0.818949,0.183688,-0.282068,0.913547,-1.908244,-1.046706,-2.485561,4.005300,5.476882,0.018140,0.080970,0.000000,-0.190138,-0.098274,-0.000000
4.140000,2.756835,0.808674,-1.353593,0.537317,0.057401,0.181386,-0.809935,0.164808,-0.292262,0.889564,-1.867392,-0.992039,-2.298536,4.188079,5.465531,0.016260,0.080003,0.000000,-0.185681,-0.095304,0.000000
4.150000,2.762168,0.809256,-1.351794,0.529261,0.058957,0.178414,-0.801151,0.146347,-0.301909,0.867484,-1.824734,-0.937492,-2.128955,4.316615,5.432510,0.014426,0.079063,0.000000,-0.181084,-0.092543,-0.000000
4.160000,2.767421,0.809852,-1.350025,0.521293,0.060330,0.175349,-0.792580,0.128317,-0.311013,0.847047,-1.781023,-0.883422,-1.956572,4.433646,5.393319,0.012639,0.078151,0.000000,-0.176422,-0.089968,0.000000
4.170000,2.772594,0.810462,-1.348288,0.513409,0.061525,0.172196,-0.784205,0.110731,-0.319578,0.828373,-1.736008,-0.829526,-1.779564,4.557662,5.372738,0.010898,0.077263,0.000000,-0.171667,-0.087587,0.000000
4.180000,2.777689,0.811082,-1.346582,0.505608,0.062546,0.168959,-0.776007,0.093600,-0.327606,0.811426,-1.690112,-0.776239,-1.609680,4.619289,5.283478,0.009206,0.076398,0.000000,-0.166861,-0.085398,-0.000000
4.190000,2.782707,0.811712,-1.344909,0.497888,0.063398,0.165645,-0.767970,0.076931,-0.335105,0.796212,-1.643463,-0.723625,-1.431688,4.718445,5.251053,0.007561,0.075555,0.000000,-0.162016,-0.083401,-0.000000
4.200000,2.787647,0.812350,-1.343269,0.490248,0.064086,0.162259,-0.760077,0.060734,-0.342079,0.782782,-1.595864,-0.671335,-1.256244,4.789815,5.193610,0.005966,0.074730,0.000000,-0.157110,-0.081598,-0.000000
4.210000,2.792512,0.812993,-1.341664,0.482686,0.064614,0.158806,-0.752309,0.045015,-0.348533,0.770976,-1.547729,-0.619624,-1.084021,4.849410,5.134270,0.004419,0.073922,0.000000,-0.152182,-0.079972,0.000000
4.220000,2.797301,0.813642,-1.340093,0.475202,0.064988,0.155290,-0.744650,0.029782,-0.354475,0.761293,-1.498783,-0.568788,-0.873391,4.924482,5.045642,0.002922,0.073129,0.000000,-0.147204,-0.078575,0.000000
4.230000,2.802016,0.814293,-1.338558,0.467793,0.065212,0.151718,-0.737079,0.015040,-0.359911,0.753068,-1.449558,-0.518447,-0.772500,4.918438,5.022196,0.001475,0.072350,0.000000,-0.142228,-0.077337,0.000000
4.240000,2.806657,0.814945,-1.337059,0.460460,0.065290,0.148094,-0.729584,0.000791,-0.364845,0.746252,-1.400174,-0.468622,-0.570393,4.970384,4.929045,0.000078,0.071582,0.000000,-0.137262,-0.076253,-0.000000
4.250000,2.811226,0.815598,-1.335596,0.453201,0.065229,0.144422,-0.722147,-0.012961,-0.369287,0.741477,-1.350300,-0.419768,-0.406211,4.989323,4.854711,-0.001270,0.070824,0.000000,-0.132273,-0.075388,-0.000000
4.260000,2.815722,0.816249,-1.334171,0.446017,0.065033,0.140709,-0.714750,-0.026215,-0.373243,0.738157,-1.300388,-0.371625,-0.245552,4.998912,4.776071,-0.002568,0.070074,0.000000,-0.127304,-0.074681,0.000000
4.270000,2.820146,0.816898,-1.332782,0.438906,0.064707,0.136959,-0.707377,-0.038968,-0.376722,0.736671,-1.250283,-0.324234,-0.064797,5.013386,4.699092,-0.003816,0.069330,0.000000,-0.122338,-0.074169,-0.000000
4.280000,2.824500,0.817543,-1.331432,0.431869,0.064255,0.133177,-0.700012,-0.051221,-0.379730,0.736588,-1.200302,-0.277706,0.047052,4.981037,4.605961,-0.005015,0.068590,0.000000,-0.117404,-0.073810,0.000000
4.290000,2.828784,0.818183,-1.330119,0.424906,0.063684,0.129366,-0.692641,-0.062975,-0.382279,0.737847,-1.150543,-0.232073,0.216544,4.976772,4.522550,-0.006164,0.067853,0.000000,-0.112510,-0.073599,-0.000000
4.300000,2.832998,0.818816,-1.328844,0.418017,0.062997,0.125532,-0.685249,-0.074232,-0.384375,0.740792,-1.100857,-0.187284,0.359492,4.951839,4.432255,-0.007265,0.067117,0.000000,-0.107640,-0.073567,0.000000
4.310000,2.837144,0.819443,-1.327608,0.411201,0.062201,0.121680,-0.677821,-0.084993,-0.386027,0.744962,-1.051515,-0.143412,0.495518,4.919189,4.339738,-0.008317,0.066381,0.000000,-0.102819,-0.073671,-0.000000
4.320000,2.841223,0.820060,-1.326411,0.404460,0.061299,0.117813,-0.670344,-0.095263,-0.387246,0.750884,-1.002464,-0.100515,0.666620,4.886168,4.241228,-0.009322,0.065643,0.000000,-0.098040,-0.073961,-0.000000
4.330000,2.845234,0.820668,-1.325252,0.397795,0.060297,0.113937,-0.662800,-0.105044,-0.388041,0.757829,-0.953893,-0.058556,0.720629,4.826757,4.150300,-0.010278,0.064902,0.000000,-0.093321,-0.074366,0.000000
4.340000,2.849179,0.821266,-1.324132,0.391205,0.059200,0.110054,-0.655184,-0.114343,-0.388421,0.765705,-0.905877,-0.017553,0.874845,4.779060,4.047926,-0.011188,0.064156,0.000000,-0.088666,-0.074878,0.000000
4.350000,2.853058,0.821852,-1.323051,0.384691,0.058012,0.106170,-0.647481,-0.123163,-0.388395,0.775118,-0.858363,0.022411,0.985716,4.718716,3.946682,-0.012052,0.063403,0.000000,-0.084069,-0.075554,0.000000
4.360000,2.856873,0.822426,-1.322009,0.378255,0.056738,0.102287,-0.639679,-0.131512,-0.387976,0.785416,-0.811506,0.061362,1.089215,4.652425,3.843580,-0.012870,0.062644,0.000000,-0.079545,-0.076333,-0.000000
4.370000,2.860624,0.822986,-1.321005,0.371898,0.055383,0.098411,-0.631768,-0.139396,-0.387172,0.797030,-0.765328,0.099280,1.216244,4.581506,3.739353,-0.013643,0.061876,0.000000,-0.075094,-0.077255,0.000000
4.380000,2.864311,0.823533,-1.320041,0.365620,0.053952,0.094545,-0.623736,-0.146821,-0.385994,0.809381,-0.719905,0.136139,1.252161,4.502248,3.632251,-0.014372,0.061098,0.000000,-0.070721,-0.078264,0.000000
4.390000,2.867936,0.824065,-1.319114,0.359424,0.052448,0.090693,-0.615578,-0.153797,-0.384452,0.822372,-0.675289,0.171925,1.360953,4.420823,3.525124,-0.015058,0.060310,0.000000,-0.066431,-0.079352,-0.000000
4.400000,2.871500,0.824582,-1.318227,0.353309,0.050877,0.086857,-0.607285,-0.160330,-0.382559,0.836424,-0.631509,0.206636,1.433386,4.333765,3.416409,-0.015701,0.059511,0.000000,-0.062227,-0.080558,-0.000000
4.410000,2.875003,0.825083,-1.317377,0.347278,0.049243,0.083043,-0.598848,-0.166430,-0.380323,0.851010,-0.588614,0.240301,1.497518,4.242626,3.307628,-0.016303,0.058699,0.000000,-0.058110,-0.081832,0.000000
4.420000,2.878446,0.825567,-1.316566,0.341333,0.047550,0.079252,-0.590261,-0.172105,-0.377757,0.866486,-0.546687,0.272703,1.581588,4.144036,3.181321,-0.016863,0.057874,0.000000,-0.054089,-0.083210,-0.000000
4.430000,2.881830,0.826033,-1.315792,0.335474,0.045802,0.075489,-0.581517,-0.177367,-0.374872,0.882304,-0.505708,0.304106,1.580276,4.051237,3.099306,-0.017385,0.057034,0.000000,-0.050160,-0.084635,-0.000000
4.440000,2.885155,0.826482,-1.315056,0.329703,0.044004,0.071756,-0.572615,-0.182223,-0.371678,0.898360,-0.465710,0.334513,1.644176,3.946072,2.973310,-0.017867,0.056181,0.000000,-0.046327,-0.086099,-0.000000
4.450000,2.888424,0.826913,-1.314357,0.324022,0.042159,0.068056,-0.563548,-0.186684,-0.368186,0.915030,-0.426780,0.363642,1.673891,3.841103,2.861289,-0.018312,0.055312,0.000000,-0.042596,-0.087640,0.000000
4.460000,2.891636,0.827325,-1.313695,0.318432,0.040272,0.064393,-0.554314,-0.190762,-0.364409,0.931780,-0.388872,0.391718,1.693592,3.734031,2.748870,-0.018719,0.054427,0.000000,-0.038962,-0.089203,0.000000
4.470000,2.894793,0.827719,-1.313069,0.312936,0.038345,0.060769,-0.544910,-0.194466,-0.360356,0.949047,-0.352163,0.418570,1.739931,3.613403,2.626438,-0.019091,0.053527,0.000000,-0.035443,-0.090833,0.000000
4.480000,2.897895,0.828092,-1.312479,0.307535,0.036384,0.057186,-0.535334,-0.197808,-0.356041,0.966159,-0.316488,0.444351,1.680396,3.521334,2.529703,-0.019428,0.052610,0.000000,-0.032021,-0.092462,0.000000
4.490000,2.900944,0.828446,-1.311925,0.302230,0.034390,0.053649,-0.525588,-0.200799,-0.351473,0.983000,-0.281860,0.469063,1.704918,3.398227,2.407741,-0.019732,0.051678,0.000000,-0.028697,-0.094080,0.000000
4.500000,2.903940,0.828780,-1.311406,0.297024,0.032369,0.050158,-0.515673,-0.203450,-0.346664,1.000063,-0.248477,0.492544,1.688066,3.283804,2.293867,-0.020003,0.050728,0.000000,-0.025490,-0.095736,-0.000000
4.510000,2.906885,0.829093,-1.310922,0.291917,0.030322,0.046716,-0.505588,-0.205772,-0.341625,1.016745,-0.216171,0.514944,1.661804,3.168835,2.180310,-0.020242,0.049763,0.000000,-0.022384,-0.097368,0.000000
4.520000,2.909779,0.829386,-1.310471,0.286912,0.028254,0.043326,-0.495338,-0.207778,-0.336369,1.033407,-0.185181,0.536097,1.654524,3.037260,2.055939,-0.020451,0.048780,0.000000,-0.019401,-0.099014,0.000000
4.530000,2.912623,0.829658,-1.310055,0.282011,0.026168,0.039990,-0.484922,-0.209479,-0.330907,1.049498,-0.155255,0.556179,1.561616,2.948081,1.960638,-0.020630,0.047782,0.000000,-0.016516,-0.100617,-0.000000
4.540000,2.915419,0.829910,-1.309671,0.277215,0.024066,0.036709,-0.474350,-0.210886,-0.325249,1.064905,-0.126386,0.575197,1.533098,2.817444,1.837364,-0.020781,0.046768,0.000000,-0.013729,-0.102167,-0.000000
4.550000,2.918168,0.830140,-1.309321,0.272525,0.021951,0.033485,-0.463625,-0.212012,-0.319407,1.080002,-0.098837,0.592976,1.470249,2.700766,1.723778,-0.020905,0.045738,0.000000,-0.011066,-0.103701,0.000000
4.560000,2.920870,0.830349,-1.309002,0.267943,0.019826,0.030321,-0.452753,-0.212867,-0.313393,1.094259,-0.072354,0.609684,1.397444,2.585068,1.610651,-0.021003,0.044694,0.000000,-0.008500,-0.105165,0.000000
4.570000,2.923527,0.830536,-1.308714,0.263470,0.017695,0.027218,-0.441741,-0.213463,-0.307218,1.108084,-0.047235,0.625124,1.348815,2.449343,1.484345,-0.021076,0.043635,0.000000,-0.006062,-0.106600,-0.000000
4.580000,2.926140,0.830703,-1.308457,0.259108,0.015558,0.024177,-0.430595,-0.213815,-0.300894,1.120845,-0.023141,0.639516,1.201449,2.369945,1.394214,-0.021125,0.042562,0.000000,-0.003718,-0.107942,0.000000
4.590000,2.928710,0.830847,-1.308230,0.254858,0.013419,0.021200,-0.419328,-0.213929,-0.294431,1.132431,-0.000048,0.652869,1.131706,2.238060,1.269532,-0.021150,0.041476,0.000000,-0.001467,-0.109179,0.000000
4.600000,2.931238,0.830971,-1.308033,0.250722,0.011280,0.018289,-0.407948,-0.213820,-0.287841,1.143304,0.021713,0.664968,1.024017,2.125300,1.156942,-0.021154,0.040378,0.000000,0.000661,-0.110357,0.000000
4.610000,2.933725,0.831073,-1.307864,0.246700,0.009143,0.015444,-0.396466,-0.213498,-0.281135,1.152905,0.042479,0.676000,0.907572,2.014706,1.044515,-0.021138,0.039268,0.000000,0.002696,-0.111420,0.000000
4.620000,2.936172,0.831154,-1.307724,0.242793,0.007011,0.012667,-0.384893,-0.212975,-0.274325,1.161545,0.061889,0.685812,0.806680,1.880523,0.922846,-0.021101,0.038149,0.000000,0.004605,-0.112399,0.000000
4.630000,2.938581,0.831213,-1.307611,0.239002,0.004885,0.009958,-0.373240,-0.212264,-0.267422,1.168752,0.080367,0.694560,0.633036,1.815824,0.826758,-0.021046,0.037020,0.000000,0.006428,-0.113244,0.000000
4.640000,2.940952,0.831251,-1.307524,0.235328,0.002766,0.007318,-0.361523,-0.211371,-0.260437,1.174428,0.097948,0.702250,0.513349,1.687599,0.706387,-0.020973,0.035884,0.000000,0.008168,-0.113946,-0.000000
4.650000,2.943288,0.831269,-1.307464,0.231772,0.000658,0.004749,-0.349756,-0.210309,-0.253382,1.178895,0.114237,0.708726,0.365517,1.583448,0.594192,-0.020883,0.034741,0.000000,0.009787,-0.114536,0.000000
4.660000,2.945588,0.831265,-1.307429,0.228333,-0.001439,0.002251,-0.337951,-0.209089,-0.246266,1.181694,0.129645,0.714157,0.208896,1.482212,0.482853,-0.020777,0.033593,0.000000,0.011324,-0.114967,-0.000000
4.670000,2.947855,0.831240,-1.307419,0.225013,-0.003524,-0.000176,-0.326126,-0.207721,-0.239103,1.183194,0.143738,0.718301,0.074561,1.352513,0.354725,-0.020657,0.032442,0.000000,0.012737,-0.115275,-0.000000
4.680000,2.950089,0.831194,-1.307432,0.221811,-0.005593,-0.002531,-0.314294,-0.206217,-0.231904,1.182841,0.157034,0.721434,-0.146742,1.307633,0.272091,-0.020523,0.031288,0.000000,0.014076,-0.115405,-0.000000
4.690000,2.952291,0.831128,-1.307469,0.218727,-0.007648,-0.004814,-0.302475,-0.204583,-0.224678,1.180547,0.169577,0.723566,-0.297690,1.185366,0.145562,-0.020375,0.030134,0.000000,0.015345,-0.115344,0.000000
4.700000,2.954464,0.831041,-1.307528,0.215761,-0.009685,-0.007024,-0.290688,-0.202830,-0.217437,1.176731,0.180886,0.724418,-0.481560,1.092451,0.033712,-0.020216,0.028981,0.000000,0.016497,-0.115137,0.000000
4.710000,2.956607,0.830934,-1.307609,0.212913,-0.011704,-0.009163,-0.278948,-0.200967,-0.210192,1.170845,0.191462,0.724241,-0.672959,1.002896,-0.078001,-0.020046,0.027831,0.000000,0.017580,-0.114724,0.000000
4.720000,2.958722,0.830807,-1.307711,0.210182,-0.013704,-0.011228,-0.267275,-0.199005,-0.202956,1.163471,0.200765,0.722777,-0.825816,0.877717,-0.206301,-0.019865,0.026687,0.000000,0.018541,-0.114166,-0.000000
4.730000,2.960811,0.830660,-1.307834,0.207567,-0.015684,-0.013222,-0.255686,-0.196954,-0.195740,1.153829,0.209435,0.720290,-1.104087,0.857237,-0.291078,-0.019675,0.025548,0.000000,0.019444,-0.113381,0.000000
4.740000,2.962874,0.830494,-1.307976,0.205068,-0.017642,-0.015143,-0.244207,-0.194818,-0.188554,1.141837,0.217520,0.716784,-1.271817,0.740331,-0.418685,-0.019476,0.024419,0.000000,0.020291,-0.112361,0.000000
4.750000,2.964913,0.830308,-1.308136,0.202683,-0.019580,-0.016993,-0.232855,-0.192608,-0.181409,1.128178,0.224415,0.711984,-1.483618,0.658868,-0.532729,-0.019270,0.023301,0.000000,0.021024,-0.111173,-0.000000
4.760000,2.966928,0.830102,-1.308315,0.200410,-0.021494,-0.018772,-0.221651,-0.190331,-0.174318,1.112188,0.230761,0.706146,-1.699584,0.581355,-0.646794,-0.019056,0.022196,0.000000,0.021704,-0.109749,-0.000000
4.770000,2.968921,0.829878,-1.308512,0.198249,-0.023386,-0.020480,-0.210617,-0.187997,-0.167291,1.094315,0.235778,0.698938,-1.890482,0.450705,-0.783657,-0.018836,0.021107,0.000000,0.022256,-0.108134,0.000000
4.780000,2.970894,0.829635,-1.308725,0.196197,-0.025254,-0.022118,-0.199773,-0.185617,-0.160342,1.074056,0.240378,0.690706,-2.162340,0.470517,-0.862487,-0.018611,0.020034,0.000000,0.022767,-0.106276,0.000000
4.790000,2.972846,0.829373,-1.308954,0.194253,-0.027098,-0.023687,-0.189144,-0.183191,-0.153480,1.051361,0.244617,0.681455,-2.361999,0.348656,-0.999453,-0.018381,0.018981,0.000000,0.023245,-0.104168,0.000000
4.800000,2.974779,0.829093,-1.309198,0.192414,-0.028918,-0.025188,-0.178752,-0.180729,-0.146718,1.026682,0.247599,0.670809,-2.589100,0.276754,-1.118460,-0.018147,0.017951,0.000000,0.023600,-0.101855,-0.000000
4.810000,2.976694,0.828795,-1.309457,0.190677,-0.030713,-0.026621,-0.168619,-0.178239,-0.140067,0.999518,0.250316,0.659171,-2.820215,0.209701,-1.237228,-0.017909,0.016945,0.000000,0.023929,-0.099286,-0.000000
4.820000,2.978593,0.828479,-1.309730,0.189040,-0.032483,-0.027989,-0.158768,-0.175730,-0.133541,0.970475,0.251262,0.645794,-3.010140,0.035481,-1.410848,-0.017669,0.015966,0.000000,0.024083,-0.096522,0.000000
4.830000,2.980475,0.828145,-1.310017,0.187501,-0.034227,-0.029293,-0.149218,-0.173214,-0.127154,0.938858,0.252200,0.631525,-3.314040,0.153828,-1.442590,-0.017427,0.015015,0.000000,0.024237,-0.093490,-0.000000
4.840000,2.982343,0.827794,-1.310316,0.186055,-0.035947,-0.030533,-0.139999,-0.170685,-0.120913,0.904633,0.253204,0.616376,-3.508992,-0.009680,-1.615483,-0.017184,0.014096,0.000000,0.024398,-0.090186,0.000000
4.850000,2.984197,0.827426,-1.310627,0.184700,-0.037641,-0.031712,-0.131132,-0.168156,-0.114833,0.868499,0.252485,0.599442,-3.739999,-0.078347,-1.744114,-0.016940,0.013212,0.000000,0.024388,-0.086682,-0.000000
4.860000,2.986037,0.827041,-1.310950,0.183431,-0.039310,-0.032830,-0.122637,-0.165637,-0.108928,0.829955,0.251332,0.581335,-3.968503,-0.152463,-1.877852,-0.016696,0.012363,0.000000,0.024334,-0.082925,-0.000000
4.870000,2.987866,0.826640,-1.311284,0.182246,-0.040954,-0.033891,-0.114540,-0.163132,-0.103211,0.789135,0.249428,0.561873,-4.195071,-0.228843,-2.015241,-0.016453,0.011554,0.000000,0.024205,-0.078928,0.000000
4.880000,2.989683,0.826222,-1.311628,0.181139,-0.042573,-0.034895,-0.106862,-0.160651,-0.097695,0.746062,0.246746,0.541017,-4.419099,-0.308006,-2.156622,-0.016212,0.010785,0.000000,0.023998,-0.074694,0.000000
4.890000,2.991489,0.825789,-1.311981,0.180107,-0.044167,-0.035845,-0.099626,-0.158200,-0.092395,0.700763,0.243257,0.518726,-4.640016,-0.390476,-2.302347,-0.015974,0.010060,0.000000,0.023710,-0.070224,0.000000
4.900000,2.993285,0.825339,-1.312344,0.179145,-0.045737,-0.036744,-0.092854,-0.155788,-0.087325,0.653273,0.238924,0.494958,-4.857258,-0.476746,-2.452461,-0.015738,0.009381,0.000000,0.023337,-0.065522,0.000000
4.910000,2.995072,0.824874,-1.312716,0.178248,-0.047283,-0.037593,-0.086568,-0.153424,-0.082501,0.603632,0.233708,0.469662,-5.070127,-0.567365,-2.607647,-0.015507,0.008751,0.000000,0.022874,-0.060592,-0.000000
4.920000,2.996850,0.824393,-1.313096,0.177412,-0.048806,-0.038395,-0.080789,-0.151117,-0.077937,0.551887,0.227561,0.442787,-5.278085,-0.662838,-2.768091,-0.015281,0.008170,0.000000,0.022317,-0.055438,0.000000
4.930000,2.998620,0.823898,-1.313484,0.176631,-0.050305,-0.039152,-0.075537,-0.148876,-0.073651,0.498088,0.220433,0.414281,-5.480590,-0.763672,-2.934112,-0.015061,0.007642,0.000000,0.021660,-0.050066,-0.000000
4.940000,3.000383,0.823387,-1.313879,0.175899,-0.051783,-0.039869,-0.070834,-0.146712,-0.069657,0.442295,0.212268,0.384086,-5.677153,-0.870355,-3.106020,-0.014848,0.007170,0.000000,0.020898,-0.044482,0.000000
4.950000,3.002138,0.822862,-1.314281,0.175212,-0.053240,-0.040547,-0.066698,-0.144635,-0.065975,0.384577,0.203003,0.352139,-5.866295,-0.983601,-3.284239,-0.014644,0.006753,0.000000,0.020024,-0.038694,0.000000
4.960000,3.003887,0.822323,-1.314690,0.174563,-0.054676,-0.041189,-0.063148,-0.142656,-0.062621,0.324996,0.192572,0.318379,-6.048509,-1.103693,-3.468967,-0.014448,0.006396,0.000000,0.019032,-0.032708,0.000000
4.970000,3.005630,0.821769,-1.315105,0.173947,-0.056093,-0.041800,-0.060204,-0.140787,-0.059614,0.263633,0.180904,0.282737,-6.222812,-1.231233,-3.660576,-0.014264,0.006100,0.000000,0.017914,-0.026533,0.000000
4.980000,3.007366,0.821201,-1.315526,0.173357,-0.057493,-0.042383,-0.057881,-0.139042,-0.056973,0.200568,0.167921,0.245143,-6.388662,-1.366723,-3.859387,-0.014091,0.005866,0.000000,0.016663,-0.020179,-0.000000
4.990000,3.009097,0.820619,-1.315952,0.172787,-0.058875,-0.042941,-0.056198,-0.137434,-0.054717,0.135889,0.153541,0.205524,-6.545546,-1.510643,-4.065724,-0.013931,0.005697,0.000000,0.015270,-0.013655,-0.000000
5.000000,3.010822,0.820023,-1.316384,0.172231,-0.060242,-0.043478,-0.055168,-0.135976,-0.052869,0.069689,0.137678,0.163802,-6.692962,-1.663440,-4.279915,-0.013786,0.005593,0.000000,0.013727,-0.006972,-0.000000
