time,x,y,z,vx,vy,vz,ax,ay,az,jx,jy,jz,sx,sy,sz,qw,qx,qy,qz,wx,wy,wz
0.000000,0.015207,-2.999418,0.493698,0.005783,-0.000876,0.001750,-0.193356,0.195538,0.014481,1.764569,-1.456331,-0.117790,-14.168298,16.874210,3.858141,0.999983,-0.002363,-0.001018,-0.005202,-0.010992,0.009641,-0.005804
0.010000,0.015256,-2.999417,0.493717,0.003935,0.001010,0.001889,-0.176402,0.181807,0.013494,1.627900,-1.290922,-0.079877,-13.175298,16.211537,3.724957,0.999983,-0.002388,-0.000990,-0.005207,-0.005419,0.005963,-0.001442
0.020000,0.015287,-2.999398,0.493736,0.002251,0.002766,0.002021,-0.160766,0.169698,0.012879,1.500874,-1.132022,-0.043285,-12.239055,15.572140,3.593772,0.999983,-0.002415,-0.000960,-0.005214,-0.001832,0.003591,0.001403
0.030000,0.015301,-2.999362,0.493757,0.000716,0.004409,0.002148,-0.146354,0.159146,0.012624,1.382936,-0.979403,-0.007995,-11.357631,14.955420,3.464571,0.999983,-0.002441,-0.000931,-0.005220,0.000354,0.002140,0.003167
0.040000,0.015301,-2.999310,0.493779,-0.000680,0.005954,0.002274,-0.133078,0.150090,0.012715,1.273545,-0.832840,0.026013,-10.529088,14.360820,3.337339,0.999983,-0.002461,-0.000905,-0.005222,0.001584,0.001318,0.004188
0.050000,0.015288,-2.999243,0.493802,-0.001949,0.007415,0.002403,-0.120856,0.142469,0.013140,1.172184,-0.692120,0.058759,-9.751488,13.787272,3.212085,0.999983,-0.002472,-0.000886,-0.005216,0.002194,0.000903,0.004719
0.060000,0.015263,-2.999162,0.493827,-0.003101,0.008808,0.002538,-0.109610,0.136228,0.013886,1.078352,-0.557027,0.090262,-9.022893,13.234698,3.088772,0.999983,-0.002472,-0.000874,-0.005201,0.002425,0.000738,0.004945
0.070000,0.015226,-2.999067,0.493853,-0.004144,0.010144,0.002682,-0.099266,0.131311,0.014941,0.991569,-0.427359,0.120541,-8.341366,12.702266,2.967395,0.999983,-0.002462,-0.000869,-0.005178,0.002449,0.000709,0.004997
0.080000,0.015180,-2.998959,0.493881,-0.005089,0.011438,0.002838,-0.089756,0.127664,0.016293,0.911374,-0.302917,0.149616,-7.704968,12.189304,2.847941,0.999983,-0.002447,-0.000867,-0.005151,0.002378,0.000743,0.004962
0.090000,0.015125,-2.998839,0.493910,-0.005942,0.012702,0.003009,-0.081018,0.125236,0.017929,0.837326,-0.183510,0.177506,-7.111761,11.695064,2.730395,0.999984,-0.002431,-0.000867,-0.005123,0.002281,0.000794,0.004897
0.100000,0.015062,-2.998706,0.493941,-0.006712,0.013947,0.003197,-0.072991,0.123977,0.019839,0.769002,-0.068948,0.204230,-6.559810,11.219663,2.614760,0.999984,-0.002418,-0.000864,-0.005097,0.002196,0.000837,0.004831
0.110000,0.014991,-2.998560,0.493974,-0.007404,0.015185,0.003407,-0.065620,0.123841,0.022010,0.705999,0.040944,0.229808,-6.047174,10.761605,2.501006,0.999984,-0.002407,-0.000860,-0.005073,0.002140,0.000862,0.004781
0.120000,0.014914,-2.998402,0.494009,-0.008026,0.016427,0.003639,-0.058854,0.124781,0.024431,0.647934,0.146341,0.254257,-5.571916,10.320581,2.389126,0.999984,-0.002396,-0.000856,-0.005049,0.002114,0.000867,0.004749
0.130000,0.014831,-2.998231,0.494047,-0.008583,0.017684,0.003896,-0.052646,0.126754,0.027091,0.594442,0.247410,0.277596,-5.132098,9.895939,2.279100,0.999984,-0.002385,-0.000852,-0.005025,0.002111,0.000857,0.004731
0.140000,0.014742,-2.998048,0.494087,-0.009081,0.018966,0.004181,-0.046951,0.129716,0.029979,0.545180,0.344312,0.299845,-4.725783,9.486930,2.170902,0.999984,-0.002374,-0.000847,-0.005001,0.002121,0.000838,0.004723
0.150000,0.014649,-2.997852,0.494131,-0.009524,0.020281,0.004496,-0.041729,0.133626,0.033085,0.499821,0.437198,0.321020,-4.351033,9.092607,2.064492,0.999984,-0.002363,-0.000843,-0.004977,0.002134,0.000817,0.004717
0.160000,0.014552,-2.997642,0.494177,-0.009917,0.021641,0.004843,-0.036943,0.138447,0.036396,0.458061,0.526231,0.341143,-4.005906,8.714352,1.960112,0.999985,-0.002353,-0.000839,-0.004954,0.002142,0.000800,0.004708
0.170000,0.014451,-2.997419,0.494228,-0.010264,0.023053,0.005225,-0.032557,0.144139,0.039904,0.419611,0.611537,0.360230,-3.688470,8.349162,1.857422,0.999985,-0.002342,-0.000835,-0.004930,0.002139,0.000790,0.004691
0.180000,0.014347,-2.997181,0.494282,-0.010569,0.024527,0.005642,-0.028540,0.150666,0.043598,0.384205,0.693258,0.378298,-3.396785,7.997312,1.756536,0.999985,-0.002332,-0.000831,-0.004907,0.002125,0.000787,0.004667
0.190000,0.014240,-2.996928,0.494341,-0.010836,0.026069,0.006097,-0.024864,0.157992,0.047467,0.351596,0.771526,0.395366,-3.128912,7.658212,1.657447,0.999985,-0.002321,-0.000827,-0.004884,0.002102,0.000791,0.004636
0.200000,0.014130,-2.996659,0.494404,-0.011067,0.027689,0.006592,-0.021500,0.166085,0.051502,0.321554,0.846458,0.411452,-2.882915,7.330800,1.560100,0.999985,-0.002311,-0.000823,-0.004861,0.002072,0.000799,0.004601
0.210000,0.014019,-2.996374,0.494473,-0.011267,0.029393,0.007128,-0.018422,0.174910,0.055693,0.294537,0.918023,0.426576,-2.643690,7.011978,1.464574,0.999985,-0.002301,-0.000819,-0.004838,0.002060,0.000795,0.004578
0.220000,0.013905,-2.996071,0.494547,-0.011437,0.031190,0.007706,-0.015611,0.184437,0.060030,0.267515,0.986990,0.440746,-2.647367,6.756148,1.370154,0.999985,-0.002290,-0.000815,-0.004815,0.002048,0.000791,0.004556
0.230000,0.013790,-2.995750,0.494627,-0.011580,0.033084,0.008329,-0.013059,0.194639,0.064504,0.243977,1.052615,0.453992,-2.059255,6.369659,1.279201,0.999986,-0.002280,-0.000811,-0.004792,0.002037,0.000787,0.004533
0.240000,0.013674,-2.995409,0.494713,-0.011698,0.035084,0.008997,-0.010719,0.205478,0.069107,0.223921,1.114964,0.466329,-2.071958,6.129203,1.188285,0.999986,-0.002270,-0.000807,-0.004770,0.002025,0.000784,0.004510
0.250000,0.013556,-2.995048,0.494807,-0.011795,0.037196,0.009712,-0.008584,0.216930,0.073828,0.203488,1.174982,0.477767,-1.899992,5.850663,1.099702,0.999986,-0.002260,-0.000803,-0.004747,0.002013,0.000780,0.004488
0.260000,0.013438,-2.994665,0.494908,-0.011871,0.039425,0.010474,-0.006640,0.228968,0.078659,0.185697,1.232029,0.488327,-1.740127,5.581361,1.012753,0.999986,-0.002250,-0.000800,-0.004725,0.002001,0.000777,0.004465
0.270000,0.013319,-2.994259,0.495017,-0.011928,0.041777,0.011285,-0.004871,0.241564,0.083592,0.167908,1.286832,0.498028,-1.742120,5.360112,0.927524,0.999986,-0.002240,-0.000796,-0.004703,0.001989,0.000773,0.004443
0.280000,0.013199,-2.993829,0.495134,-0.011969,0.044258,0.012146,-0.003273,0.254695,0.088617,0.152444,1.338830,0.506883,-1.350240,5.040164,0.843843,0.999986,-0.002230,-0.000792,-0.004681,0.001978,0.000769,0.004421
0.290000,0.013079,-2.993373,0.495260,-0.011994,0.046873,0.013058,-0.001814,0.268331,0.093727,0.139300,1.388075,0.514910,-1.358483,4.830685,0.761917,0.999986,-0.002220,-0.000788,-0.004658,0.001966,0.000766,0.004399
0.300000,0.012959,-2.992891,0.495395,-0.012006,0.049626,0.014021,-0.000489,0.282450,0.098912,0.125906,1.435292,0.522127,-1.243882,4.593341,0.681575,0.999987,-0.002210,-0.000784,-0.004637,0.001955,0.000762,0.004377
0.310000,0.012839,-2.992380,0.495540,-0.012004,0.052523,0.015036,0.000711,0.297029,0.104166,0.114276,1.480007,0.528547,-1.137351,4.364412,0.602882,0.999987,-0.002201,-0.000780,-0.004615,0.001943,0.000759,0.004355
0.320000,0.012719,-2.991840,0.495696,-0.011992,0.055568,0.016104,0.001795,0.312044,0.109481,0.102635,1.522760,0.534192,-1.139921,4.171626,0.526177,0.999987,-0.002191,-0.000777,-0.004593,0.001932,0.000755,0.004333
0.330000,0.012599,-2.991268,0.495863,-0.011969,0.058766,0.017226,0.002769,0.327476,0.114848,0.092549,1.563133,0.539071,-0.876918,3.903628,0.449961,0.999987,-0.002181,-0.000773,-0.004571,0.001920,0.000752,0.004312
0.340000,0.012480,-2.990664,0.496041,-0.011937,0.062119,0.018401,0.003652,0.343299,0.120260,0.084016,1.601171,0.543201,-0.883649,3.720902,0.376392,0.999987,-0.002172,-0.000769,-0.004550,0.001909,0.000748,0.004290
0.350000,0.012361,-2.990026,0.496231,-0.011896,0.065633,0.019631,0.004448,0.359493,0.125709,0.075302,1.637429,0.546602,-0.807531,3.516789,0.304022,0.999987,-0.002162,-0.000765,-0.004528,0.001898,0.000745,0.004269
0.360000,0.012242,-2.989351,0.496433,-0.011848,0.069310,0.020916,0.005162,0.376040,0.131189,0.067768,1.671539,0.549287,-0.736802,3.318530,0.233223,0.999987,-0.002153,-0.000762,-0.004507,0.001887,0.000742,0.004248
0.370000,0.012124,-2.988639,0.496649,-0.011793,0.073155,0.022255,0.005802,0.392919,0.136693,0.060211,1.703932,0.551272,-0.740003,3.148969,0.164047,0.999987,-0.002143,-0.000758,-0.004486,0.001875,0.000738,0.004226
0.380000,0.012006,-2.987887,0.496879,-0.011732,0.077170,0.023650,0.006370,0.410112,0.142212,0.053695,1.734285,0.552572,-0.563027,2.922129,0.096187,0.999987,-0.002134,-0.000754,-0.004465,0.001864,0.000735,0.004205
0.390000,0.011889,-2.987095,0.497122,-0.011666,0.081358,0.025099,0.006880,0.427598,0.147742,0.048218,1.762635,0.553202,-0.568930,2.760738,0.030041,0.999988,-0.002125,-0.000751,-0.004444,0.001853,0.000731,0.004184
0.400000,0.011773,-2.986260,0.497381,-0.011595,0.085723,0.026604,0.007334,0.445359,0.153274,0.042605,1.789412,0.553178,-0.518587,2.583627,-0.034642,0.999988,-0.002115,-0.000747,-0.004423,0.001842,0.000728,0.004163
0.410000,0.011657,-2.985380,0.497655,-0.011519,0.090266,0.028165,0.007735,0.463380,0.158803,0.037780,1.814334,0.552515,-0.471847,2.411096,-0.097829,0.999988,-0.002106,-0.000743,-0.004402,0.001831,0.000725,0.004143
0.420000,0.011543,-2.984454,0.497944,-0.011440,0.094991,0.029780,0.008089,0.481641,0.164323,0.032928,1.837736,0.551225,-0.475141,2.260847,-0.159803,0.999988,-0.002097,-0.000740,-0.004382,0.001820,0.000722,0.004122
0.430000,0.011429,-2.983479,0.498251,-0.011358,0.099900,0.031451,0.008396,0.500128,0.169826,0.028770,1.859373,0.549327,-0.356335,2.066952,-0.219586,0.999988,-0.002088,-0.000736,-0.004361,0.001809,0.000718,0.004101
0.440000,0.011315,-2.982455,0.498574,-0.011272,0.104994,0.033177,0.008667,0.518823,0.175307,0.025305,1.879275,0.546835,-0.361370,1.923326,-0.278627,0.999988,-0.002079,-0.000732,-0.004341,0.001798,0.000715,0.004081
0.450000,0.011203,-2.981379,0.498914,-0.011185,0.110277,0.034957,0.008901,0.537709,0.180761,0.021739,1.897779,0.543761,-0.328259,1.768479,-0.335959,0.999988,-0.002070,-0.000729,-0.004320,0.001788,0.000712,0.004060
0.460000,0.011092,-2.980249,0.499273,-0.011094,0.115749,0.036792,0.009103,0.556773,0.186180,0.018695,1.914669,0.540118,-0.297562,1.617170,-0.391932,0.999988,-0.002061,-0.000725,-0.004300,0.001777,0.000709,0.004040
0.470000,0.010981,-2.979063,0.499650,-0.011003,0.121413,0.038681,0.009275,0.575998,0.191561,0.015626,1.930200,0.535930,-0.300509,1.482777,-0.445787,0.999988,-0.002052,-0.000722,-0.004280,0.001766,0.000705,0.004020
0.480000,0.010872,-2.977820,0.500047,-0.010909,0.127269,0.040623,0.009417,0.595372,0.196897,0.013016,1.944194,0.531200,-0.221274,1.316417,-0.500146,0.999989,-0.002043,-0.000718,-0.004260,0.001756,0.000702,0.004000
0.490000,0.010763,-2.976517,0.500463,-0.010814,0.133321,0.042619,0.009537,0.614877,0.202183,0.010866,1.956677,0.525939,-0.225348,1.187653,-0.551274,0.999989,-0.002035,-0.000715,-0.004240,0.001745,0.000699,0.003980
0.500000,0.010655,-2.975153,0.500899,-0.010718,0.139567,0.044667,0.009634,0.634501,0.207414,0.008641,1.967907,0.520175,-0.203732,1.051205,-0.601670,0.999989,-0.002026,-0.000711,-0.004220,0.001734,0.000696,0.003960
0.510000,0.010549,-2.973725,0.501356,-0.010622,0.146011,0.046767,0.009711,0.654231,0.212585,0.006762,1.977721,0.513911,-0.183712,0.917606,-0.650686,0.999989,-0.002017,-0.000708,-0.004200,0.001724,0.000693,0.003940
0.520000,0.010443,-2.972232,0.501835,-0.010524,0.152652,0.048918,0.009769,0.674052,0.217691,0.004858,1.986319,0.507168,-0.186399,0.797341,-0.697908,0.999989,-0.002009,-0.000704,-0.004181,0.001713,0.000689,0.003920
0.530000,0.010338,-2.970671,0.502335,-0.010426,0.159492,0.051120,0.009809,0.693952,0.222727,0.003258,1.993568,0.499953,-0.133521,0.652687,-0.744977,0.999989,-0.002000,-0.000701,-0.004161,0.001703,0.000686,0.003901
0.540000,0.010234,-2.969041,0.502857,-0.010328,0.166532,0.053372,0.009835,0.713919,0.227689,0.001962,1.999489,0.492278,-0.136911,0.537394,-0.789599,0.999989,-0.001992,-0.000697,-0.004142,0.001693,0.000683,0.003881
0.550000,0.010132,-2.967340,0.503403,-0.010230,0.173771,0.055674,0.009848,0.733939,0.232571,0.000609,2.004283,0.484164,-0.122916,0.416213,-0.833194,0.999989,-0.001983,-0.000694,-0.004122,0.001682,0.000680,0.003862
0.560000,0.010030,-2.965565,0.503971,-0.010131,0.181210,0.058024,0.009849,0.754000,0.237370,-0.000516,2.007828,0.475623,-0.109959,0.297613,-0.875444,0.999989,-0.001975,-0.000691,-0.004103,0.001672,0.000677,0.003842
0.570000,0.009929,-2.963715,0.504563,-0.010033,0.188851,0.060421,0.009838,0.774092,0.242082,-0.001665,2.010284,0.466654,-0.112530,0.189851,-0.917448,0.999989,-0.001967,-0.000687,-0.004084,0.001662,0.000674,0.003823
0.580000,0.009829,-2.961788,0.505180,-0.009934,0.196692,0.062865,0.009816,0.794202,0.246702,-0.002613,2.011546,0.457290,-0.076963,0.062822,-0.955282,0.999990,-0.001958,-0.000684,-0.004065,0.001651,0.000671,0.003804
0.590000,0.009730,-2.959781,0.505821,-0.009836,0.204735,0.065355,0.009786,0.814318,0.251227,-0.003359,2.011634,0.447542,-0.079940,-0.040364,-0.994591,0.999990,-0.001950,-0.000681,-0.004046,0.001641,0.000668,0.003785
0.600000,0.009632,-2.957692,0.506487,-0.009739,0.212979,0.067889,0.009748,0.834431,0.255652,-0.004150,2.010712,0.437407,-0.070960,-0.147697,-1.031677,0.999990,-0.001942,-0.000677,-0.004027,0.001631,0.000665,0.003766
0.610000,0.009536,-2.955520,0.507179,-0.009642,0.221424,0.070467,0.009704,0.854529,0.259974,-0.004792,2.008677,0.426908,-0.062683,-0.254177,-1.067633,0.999990,-0.001934,-0.000674,-0.004008,0.001621,0.000662,0.003747
0.620000,0.009440,-2.953263,0.507896,-0.009545,0.230069,0.073088,0.009652,0.874601,0.264189,-0.005454,2.005659,0.416058,-0.064713,-0.351832,-1.102189,0.999990,-0.001926,-0.000671,-0.003989,0.001611,0.000659,0.003728
0.630000,0.009345,-2.950918,0.508640,-0.009448,0.238915,0.075751,0.009595,0.894639,0.268294,-0.005984,2.001587,0.404867,-0.041400,-0.462332,-1.135823,0.999990,-0.001918,-0.000667,-0.003971,0.001601,0.000656,0.003710
0.640000,0.009251,-2.948484,0.509411,-0.009353,0.247962,0.078454,0.009533,0.914630,0.272285,-0.006384,1.996479,0.393347,-0.043687,-0.555974,-1.167961,0.999990,-0.001910,-0.000664,-0.003952,0.001591,0.000653,0.003691
0.650000,0.009158,-2.945959,0.510210,-0.009258,0.257208,0.081196,0.009467,0.934565,0.276159,-0.006817,1.990452,0.381512,-0.038026,-0.652280,-1.198990,0.999990,-0.001902,-0.000661,-0.003934,0.001582,0.000650,0.003672
0.660000,0.009065,-2.943339,0.511036,-0.009164,0.266653,0.083976,0.009397,0.954435,0.279914,-0.007154,1.983446,0.369374,-0.032813,-0.746514,-1.228785,0.999990,-0.001894,-0.000657,-0.003916,0.001572,0.000647,0.003654
0.670000,0.008974,-2.940625,0.511889,-0.009070,0.276296,0.086794,0.009324,0.974231,0.283546,-0.007507,1.975546,0.356936,-0.034594,-0.835106,-1.258200,0.999990,-0.001886,-0.000654,-0.003897,0.001562,0.000644,0.003636
0.680000,0.008884,-2.937813,0.512772,-0.008977,0.286137,0.089647,0.009247,0.993943,0.287052,-0.007776,1.966712,0.344222,-0.019121,-0.931318,-1.284315,0.999990,-0.001878,-0.000651,-0.003879,0.001552,0.000641,0.003617
0.690000,0.008795,-2.934901,0.513682,-0.008885,0.296175,0.092534,0.009169,1.013562,0.290430,-0.007959,1.956963,0.331245,-0.021046,-1.016422,-1.311364,0.999991,-0.001870,-0.000648,-0.003861,0.001543,0.000638,0.003599
0.700000,0.008706,-2.931889,0.514622,-0.008794,0.306408,0.095455,0.009088,1.033080,0.293676,-0.008169,1.946381,0.318003,-0.017549,-1.102173,-1.336548,0.999991,-0.001863,-0.000645,-0.003843,0.001533,0.000635,0.003581
0.710000,0.008619,-2.928773,0.515592,-0.008703,0.316836,0.098408,0.009006,1.052487,0.296789,-0.008320,1.934921,0.304506,-0.014412,-1.186543,-1.360853,0.999991,-0.001855,-0.000641,-0.003825,0.001524,0.000633,0.003563
0.720000,0.008532,-2.925551,0.516591,-0.008614,0.327457,0.101390,0.008922,1.071776,0.299765,-0.008475,1.922686,0.290805,-0.014880,-1.263169,-1.380892,0.999991,-0.001847,-0.000638,-0.003808,0.001514,0.000630,0.003545
0.730000,0.008447,-2.922223,0.517619,-0.008525,0.338271,0.104402,0.008836,1.090938,0.302604,-0.008582,1.909600,0.276858,-0.006684,-1.353674,-1.408414,0.999991,-0.001840,-0.000635,-0.003790,0.001505,0.000627,0.003527
0.740000,0.008362,-2.918785,0.518679,-0.008437,0.349276,0.107442,0.008750,1.109965,0.305302,-0.008644,1.895680,0.262673,-0.007337,-1.426858,-1.426601,0.999991,-0.001832,-0.000632,-0.003772,0.001495,0.000624,0.003510
0.750000,0.008278,-2.915237,0.519768,-0.008350,0.360470,0.110508,0.008663,1.128849,0.307857,-0.008715,1.881030,0.248315,-0.005292,-1.504459,-1.446532,0.999991,-0.001825,-0.000629,-0.003755,0.001486,0.000621,0.003492
0.760000,0.008195,-2.911575,0.520889,-0.008264,0.371852,0.113599,0.008576,1.147583,0.310267,-0.008747,1.865603,0.233757,-0.003321,-1.579625,-1.465229,0.999991,-0.001818,-0.000626,-0.003737,0.001477,0.000618,0.003474
0.770000,0.008113,-2.907799,0.522040,-0.008178,0.383421,0.116713,0.008488,1.166159,0.312531,-0.008803,1.849453,0.219011,-0.005656,-1.651200,-1.483476,0.999991,-0.001810,-0.000623,-0.003720,0.001467,0.000616,0.003457
0.780000,0.008031,-2.903906,0.523223,-0.008094,0.395175,0.119849,0.008400,1.184569,0.314647,-0.008816,1.832565,0.204098,0.003005,-1.726183,-1.498971,0.999991,-0.001803,-0.000620,-0.003703,0.001458,0.000613,0.003439
0.790000,0.007951,-2.899895,0.524438,-0.008010,0.407112,0.123005,0.008312,1.202808,0.316613,-0.008786,1.814954,0.189029,0.000777,-1.794745,-1.515000,0.999991,-0.001796,-0.000617,-0.003686,0.001449,0.000610,0.003422
0.800000,0.007871,-2.895763,0.525683,-0.007928,0.419230,0.126181,0.008224,1.220866,0.318427,-0.008783,1.796672,0.173803,0.002059,-1.862924,-1.529493,0.999991,-0.001788,-0.000614,-0.003669,0.001440,0.000607,0.003405
0.810000,0.007792,-2.891510,0.526961,-0.007846,0.431529,0.129373,0.008137,1.238739,0.320089,-0.008751,1.777715,0.158464,0.003185,-1.929488,-1.542464,0.999992,-0.001781,-0.000611,-0.003652,0.001431,0.000604,0.003387
0.820000,0.007714,-2.887132,0.528271,-0.007765,0.444005,0.132582,0.008049,1.256418,0.321596,-0.008729,1.758074,0.142918,0.002233,-1.997092,-1.562451,0.999992,-0.001774,-0.000607,-0.003635,0.001422,0.000602,0.003370
0.830000,0.007637,-2.882629,0.529613,-0.007685,0.456656,0.135805,0.007962,1.273898,0.322947,-0.008686,1.737807,0.127306,0.006468,-2.056115,-1.559660,0.999992,-0.001767,-0.000604,-0.003618,0.001413,0.000599,0.003353
0.840000,0.007560,-2.877998,0.530987,-0.007606,0.469482,0.139040,0.007876,1.291172,0.324142,-0.008621,1.716929,0.111644,0.005505,-2.120651,-1.576833,0.999992,-0.001760,-0.000601,-0.003601,0.001405,0.000596,0.003336
0.850000,0.007485,-2.873239,0.532394,-0.007527,0.482479,0.142287,0.007790,1.308235,0.325179,-0.008567,1.695409,0.095808,0.006180,-2.181851,-1.585907,0.999992,-0.001753,-0.000599,-0.003585,0.001396,0.000594,0.003319
0.860000,0.007410,-2.868348,0.533833,-0.007450,0.495646,0.145543,0.007704,1.325079,0.326057,-0.008502,1.673296,0.079870,0.006707,-2.240110,-1.595197,0.999992,-0.001746,-0.000596,-0.003568,0.001387,0.000591,0.003303
0.870000,0.007336,-2.863325,0.535305,-0.007373,0.508980,0.148808,0.007620,1.341699,0.326777,-0.008434,1.650654,0.063964,0.007093,-2.291459,-1.591833,0.999992,-0.001739,-0.000593,-0.003552,0.001378,0.000588,0.003286
0.880000,0.007262,-2.858168,0.536809,-0.007297,0.522479,0.152078,0.007536,1.358090,0.327336,-0.008360,1.627399,0.047909,0.007567,-2.359364,-1.619291,0.999992,-0.001732,-0.000590,-0.003535,0.001370,0.000586,0.003269
0.890000,0.007190,-2.852875,0.538346,-0.007222,0.536141,0.155354,0.007452,1.374245,0.327734,-0.008283,1.603542,0.031704,0.007825,-2.408307,-1.615392,0.999992,-0.001725,-0.000587,-0.003519,0.001361,0.000583,0.003253
0.900000,0.007118,-2.847445,0.539916,-0.007148,0.549963,0.158632,0.007370,1.390159,0.327970,-0.008204,1.579199,0.015551,0.008081,-2.462512,-1.621031,0.999992,-0.001719,-0.000584,-0.003503,0.001353,0.000580,0.003236
0.910000,0.007047,-2.841875,0.541519,-0.007075,0.563943,0.161913,0.007288,1.405827,0.328045,-0.008112,1.554307,-0.000676,0.008482,-2.514797,-1.625242,0.999992,-0.001712,-0.000581,-0.003487,0.001344,0.000578,0.003220
0.920000,0.006976,-2.836165,0.543154,-0.007003,0.578079,0.165193,0.007208,1.421243,0.327957,-0.008050,1.528916,-0.016960,0.005551,-2.563971,-1.630479,0.999992,-0.001705,-0.000578,-0.003471,0.001336,0.000575,0.003204
0.930000,0.006907,-2.830313,0.544823,-0.006931,0.592367,0.168471,0.007128,1.436404,0.327706,-0.007965,1.503013,-0.033262,0.011501,-2.616401,-1.629624,0.999992,-0.001698,-0.000575,-0.003455,0.001328,0.000572,0.003187
0.940000,0.006838,-2.824318,0.546524,-0.006860,0.606806,0.171746,0.007048,1.451302,0.327292,-0.007855,1.476612,-0.049570,0.008832,-2.662664,-1.632899,0.999992,-0.001692,-0.000572,-0.003439,0.001320,0.000570,0.003171
0.950000,0.006770,-2.818177,0.548258,-0.006790,0.621392,0.175017,0.006970,1.465934,0.326714,-0.007774,1.449745,-0.065907,0.009041,-2.710108,-1.633510,0.999993,-0.001685,-0.000569,-0.003423,0.001313,0.000567,0.003155
0.960000,0.006702,-2.811889,0.550024,-0.006721,0.636124,0.178280,0.006893,1.480295,0.325973,-0.007691,1.422410,-0.082223,0.008943,-2.755733,-1.632965,0.999993,-0.001679,-0.000567,-0.003407,0.001305,0.000565,0.003139
0.970000,0.006635,-2.805454,0.551823,-0.006652,0.650997,0.181535,0.006817,1.494381,0.325069,-0.007583,1.394644,-0.098595,0.011318,-2.798116,-1.638034,0.999993,-0.001672,-0.000564,-0.003391,0.001297,0.000562,0.003123
0.980000,0.006569,-2.798869,0.553655,-0.006584,0.666010,0.184781,0.006741,1.508187,0.324002,-0.007492,1.366431,-0.114910,0.006829,-2.844447,-1.624665,0.999993,-0.001666,-0.000561,-0.003376,0.001289,0.000560,0.003107
0.990000,0.006503,-2.792133,0.555519,-0.006517,0.681160,0.188015,0.006667,1.521708,0.322772,-0.007420,1.337780,-0.131154,0.008868,-2.884500,-1.627354,0.999993,-0.001659,-0.000558,-0.003360,0.001281,0.000557,0.003091
1.000000,0.006439,-2.785245,0.557415,-0.006451,0.696444,0.191236,0.006593,1.534941,0.321379,-0.007326,1.308739,-0.147426,0.008650,-2.924782,-1.623542,0.999993,-0.001653,-0.000555,-0.003345,0.001273,0.000555,0.003076
1.010000,0.006374,-2.778204,0.559343,-0.006385,0.711858,0.194442,0.006520,1.547881,0.319823,-0.007231,1.279271,-0.163668,0.008676,-2.964285,-1.619674,0.999993,-0.001647,-0.000553,-0.003330,0.001266,0.000552,0.003060
1.020000,0.006311,-2.771008,0.561304,-0.006321,0.727400,0.197632,0.006448,1.560526,0.318106,-0.007167,1.249497,-0.179772,0.005679,-2.994383,-1.605841,0.999993,-0.001640,-0.000550,-0.003314,0.001258,0.000550,0.003044
1.030000,0.006248,-2.763655,0.563296,-0.006256,0.743068,0.200804,0.006377,1.572870,0.316228,-0.007085,1.219299,-0.195882,0.010828,-3.045214,-1.616156,0.999993,-0.001634,-0.000547,-0.003299,0.001250,0.000547,0.003029
1.040000,0.006186,-2.756146,0.565320,-0.006193,0.758857,0.203956,0.006307,1.584910,0.314188,-0.006982,1.188682,-0.211996,0.008117,-3.073661,-1.601710,0.999993,-0.001628,-0.000544,-0.003284,0.001243,0.000545,0.003013
1.050000,0.006124,-2.748478,0.567375,-0.006130,0.774765,0.207087,0.006237,1.596643,0.311988,-0.006909,1.157799,-0.227956,0.008055,-3.107535,-1.594727,0.999993,-0.001622,-0.000542,-0.003269,0.001235,0.000542,0.002998
1.060000,0.006063,-2.740650,0.569461,-0.006068,0.790789,0.210195,0.006168,1.608065,0.309629,-0.006830,1.126637,-0.243895,0.007856,-3.138493,-1.587218,0.999993,-0.001615,-0.000539,-0.003254,0.001227,0.000540,0.002982
1.070000,0.006003,-2.732662,0.571579,-0.006007,0.806925,0.213279,0.006100,1.619173,0.307111,-0.006751,1.094908,-0.259644,0.007848,-3.193780,-1.568112,0.999993,-0.001609,-0.000536,-0.003239,0.001220,0.000537,0.002967
1.080000,0.005943,-2.724511,0.573727,-0.005946,0.823171,0.216337,0.006033,1.629963,0.304436,-0.006676,1.063045,-0.275371,0.007223,-3.178136,-1.577351,0.999993,-0.001603,-0.000534,-0.003224,0.001213,0.000535,0.002952
1.090000,0.005884,-2.716198,0.575906,-0.005886,0.839523,0.219367,0.005967,1.640434,0.301604,-0.006605,1.031079,-0.291075,0.007135,-3.228302,-1.557608,0.999993,-0.001597,-0.000531,-0.003210,0.001205,0.000532,0.002937
1.100000,0.005825,-2.707721,0.578114,-0.005827,0.855979,0.222368,0.005901,1.650583,0.298615,-0.006534,0.998601,-0.306570,0.006823,-3.254137,-1.546583,0.999993,-0.001591,-0.000528,-0.003195,0.001198,0.000530,0.002922
1.110000,0.005767,-2.699078,0.580353,-0.005768,0.872534,0.225339,0.005836,1.660405,0.295473,-0.006500,0.965841,-0.321972,0.005854,-3.281658,-1.534122,0.999994,-0.001585,-0.000526,-0.003180,0.001192,0.000527,0.002907
1.120000,0.005710,-2.690270,0.582621,-0.005710,0.889186,0.228277,0.005772,1.669900,0.292176,-0.006364,0.933119,-0.337253,0.015663,-3.278146,-1.521526,0.999994,-0.001579,-0.000523,-0.003166,0.001185,0.000525,0.002892
1.130000,0.005653,-2.681294,0.584918,-0.005653,0.905931,0.231182,0.005709,1.679066,0.288728,-0.006304,0.899956,-0.352389,-0.003782,-3.354631,-1.505533,0.999994,-0.001573,-0.000520,-0.003152,0.001178,0.000522,0.002877
1.140000,0.005597,-2.672151,0.587244,-0.005596,0.922766,0.234051,0.005645,1.687897,0.285129,-0.006326,0.866344,-0.367369,0.004941,-3.351878,-1.490761,0.999994,-0.001567,-0.000518,-0.003137,0.001171,0.000520,0.002863
1.150000,0.005541,-2.662838,0.589599,-0.005540,0.939687,0.236884,0.005582,1.696393,0.281381,-0.006253,0.832787,-0.382196,0.004162,-3.374720,-1.474036,0.999994,-0.001562,-0.000515,-0.003123,0.001164,0.000517,0.002848
1.160000,0.005486,-2.653357,0.591982,-0.005484,0.956692,0.239678,0.005519,1.704553,0.277487,-0.006540,0.799117,-0.396558,-0.002610,-3.391599,-1.450506,0.999994,-0.001556,-0.000513,-0.003109,0.001157,0.000514,0.002834
1.170000,0.005432,-2.643704,0.594393,-0.005429,0.973777,0.242433,0.005456,1.712372,0.273447,-0.005761,0.764659,-0.411684,0.101216,-3.468219,-1.523850,0.999994,-0.001550,-0.000510,-0.003095,0.001150,0.000511,0.002820
1.180000,0.005378,-2.633881,0.596830,-0.005375,0.990939,0.245147,0.005401,1.719847,0.269257,-0.005714,0.730420,-0.425967,-0.093312,-3.378577,-1.331001,0.999994,-0.001544,-0.000507,-0.003081,0.001142,0.000508,0.002806
1.190000,0.005324,-2.623885,0.599295,-0.005321,1.008173,0.247818,0.005339,1.726982,0.264931,-0.006467,0.696451,-0.439329,0.000498,-3.446854,-1.392666,0.999994,-0.001539,-0.000505,-0.003067,0.001134,0.000506,0.002792
1.200000,0.005271,-2.613717,0.601787,-0.005268,1.025477,0.250445,0.005276,1.733773,0.260467,-0.006189,0.661755,-0.453384,-0.002140,-3.460487,-1.367216,0.999994,-0.001533,-0.000502,-0.003053,0.001125,0.000503,0.002778
1.210000,0.005219,-2.603375,0.604304,-0.005216,1.042848,0.253027,0.005220,1.740216,0.255865,-0.004668,0.626839,-0.467014,0.030950,-3.479840,-1.346537,0.999994,-0.001527,-0.000500,-0.003039,0.001116,0.000501,0.002763
1.220000,0.005167,-2.592860,0.606847,-0.005164,1.060280,0.255562,0.005161,1.746313,0.251128,-0.008104,0.592562,-0.480206,-0.450596,-3.417590,-1.303532,0.999994,-0.001522,-0.000497,-0.003025,0.001106,0.000498,0.002748
1.230000,0.005115,-2.582170,0.609415,-0.005113,1.077773,0.258049,0.005072,1.752065,0.246261,-0.008063,0.557604,-0.493332,0.467121,-3.575326,-1.322123,0.999994,-0.001516,-0.000495,-0.003011,0.001097,0.000496,0.002734
1.240000,0.005065,-2.571304,0.612008,-0.005062,1.095321,0.260487,0.005015,1.757462,0.241262,-0.004177,0.521912,-0.506414,0.039544,-3.520311,-1.282612,0.999994,-0.001511,-0.000492,-0.002998,0.001088,0.000494,0.002720
1.250000,0.005014,-2.560263,0.614625,-0.005013,1.112921,0.262874,0.004968,1.762506,0.236134,-0.004986,0.486837,-0.519088,0.067498,-3.536759,-1.263987,0.999994,-0.001505,-0.000490,-0.002984,0.001079,0.000491,0.002707
1.260000,0.004964,-2.549046,0.617265,-0.004963,1.130570,0.265209,0.004913,1.767197,0.230878,-0.006301,0.451446,-0.532148,0.034479,-3.548655,-1.255722,0.999994,-0.001500,-0.000487,-0.002971,0.001071,0.000488,0.002696
1.270000,0.004915,-2.537652,0.619929,-0.004914,1.148263,0.267491,0.004871,1.771534,0.225499,-0.000945,0.415800,-0.543353,0.681606,-3.573280,-1.075154,0.999994,-0.001495,-0.000485,-0.002957,0.001063,0.000485,0.002686
1.280000,0.004866,-2.526080,0.622615,-0.004866,1.165999,0.269718,0.004876,1.775513,0.220007,-0.000123,0.380134,-0.555538,-0.528744,-3.559445,-1.364791,0.999994,-0.001489,-0.000483,-0.002944,0.001056,0.000482,0.002675
1.290000,0.004818,-2.514331,0.625323,-0.004817,1.183773,0.271891,0.004848,1.779137,0.214384,-0.004352,0.344470,-0.568833,0.040793,-3.580362,-1.203450,0.999994,-0.001484,-0.000480,-0.002930,0.001050,0.000479,0.002664
1.300000,0.004770,-2.502405,0.628052,-0.004769,1.201581,0.274006,0.004816,1.782402,0.208638,-0.002350,0.308592,-0.580376,0.002478,-3.587853,-1.195588,0.999995,-0.001479,-0.000478,-0.002917,0.001045,0.000476,0.002651
1.310000,0.004722,-2.490300,0.630803,-0.004721,1.219419,0.276063,0.004793,1.785309,0.202775,-0.002216,0.272914,-0.592152,-0.009175,-3.589936,-1.179296,0.999995,-0.001474,-0.000475,-0.002904,0.001041,0.000473,0.002636
1.320000,0.004675,-2.478016,0.633573,-0.004673,1.237286,0.278061,0.004769,1.787857,0.196794,-0.002840,0.236408,-0.604141,-0.082715,-3.670009,-1.199195,0.999995,-0.001468,-0.000473,-0.002891,0.001037,0.000471,0.002620
1.330000,0.004629,-2.465554,0.636364,-0.004625,1.255175,0.279998,0.004738,1.790040,0.190693,-0.003180,0.200378,-0.615730,0.015995,-3.534530,-1.117739,0.999995,-0.001463,-0.000471,-0.002878,0.001034,0.000469,0.002603
1.340000,0.004583,-2.452913,0.639173,-0.004578,1.273085,0.281874,0.004707,1.791867,0.184481,-0.003172,0.164890,-0.626880,-0.046913,-3.604485,-1.131474,0.999995,-0.001458,-0.000468,-0.002865,0.001032,0.000467,0.002587
1.350000,0.004537,-2.440092,0.642001,-0.004531,1.291011,0.283688,0.004671,1.793334,0.178155,-0.003829,0.128644,-0.638191,-0.051091,-3.603534,-1.111007,0.999995,-0.001453,-0.000466,-0.002852,0.001029,0.000465,0.002571
1.360000,0.004492,-2.427092,0.644847,-0.004485,1.308951,0.285437,0.004639,1.794439,0.171720,-0.002453,0.092288,-0.648808,-0.016212,-3.611103,-1.082446,0.999995,-0.001448,-0.000464,-0.002839,0.001025,0.000462,0.002558
1.370000,0.004447,-2.413913,0.647710,-0.004438,1.326899,0.287122,0.004596,1.795184,0.165174,-0.007301,0.056943,-0.660481,-0.620169,-3.512628,-1.183809,0.999995,-0.001443,-0.000461,-0.002826,0.001022,0.000459,0.002545
1.380000,0.004403,-2.400554,0.650589,-0.004393,1.344853,0.288740,0.004510,1.795575,0.158514,-0.007863,0.020886,-0.671048,0.518442,-3.700240,-0.927194,0.999995,-0.001438,-0.000459,-0.002813,0.001018,0.000456,0.002533
1.390000,0.004360,-2.387016,0.653484,-0.004348,1.362809,0.290292,0.004457,1.795599,0.151758,-0.003664,-0.015951,-0.680401,-0.014825,-3.611847,-1.011994,0.999995,-0.001433,-0.000457,-0.002801,0.001013,0.000452,0.002522
1.400000,0.004316,-2.373298,0.656395,-0.004304,1.380764,0.291775,0.004411,1.795260,0.144902,-0.005308,-0.051820,-0.690700,0.020754,-3.616606,-0.979068,0.999995,-0.001428,-0.000455,-0.002788,0.001009,0.000449,0.002511
1.410000,0.004274,-2.359401,0.659319,-0.004260,1.398713,0.293189,0.004351,1.794562,0.137946,-0.006865,-0.087831,-0.700343,-0.003430,-3.613694,-0.949743,0.999995,-0.001422,-0.000452,-0.002776,0.001004,0.000446,0.002499
1.420000,0.004231,-2.345324,0.662258,-0.004217,1.416654,0.294534,0.004300,1.793501,0.130896,-0.002356,-0.124351,-0.709695,0.585540,-3.662667,-0.920264,0.999995,-0.001417,-0.000450,-0.002763,0.001000,0.000443,0.002488
1.430000,0.004189,-2.331068,0.665210,-0.004174,1.434582,0.295807,0.004288,1.792076,0.123753,-0.001863,-0.160505,-0.718743,-0.497053,-3.567199,-0.889214,0.999995,-0.001412,-0.000448,-0.002751,0.000996,0.000440,0.002475
1.440000,0.004148,-2.316632,0.668174,-0.004131,1.452494,0.297008,0.004245,1.790293,0.116522,-0.005843,-0.196246,-0.727483,0.023230,-3.608579,-0.859058,0.999995,-0.001408,-0.000446,-0.002739,0.000991,0.000437,0.002463
1.450000,0.004107,-2.302018,0.671150,-0.004089,1.470387,0.298137,0.004196,1.788149,0.109205,-0.004137,-0.232438,-0.735922,-0.003392,-3.602040,-0.828517,0.999995,-0.001403,-0.000444,-0.002726,0.000987,0.000434,0.002450
1.460000,0.004066,-2.287225,0.674137,-0.004047,1.488256,0.299192,0.004157,1.785645,0.101803,-0.003638,-0.268494,-0.744377,0.001946,-3.597887,-0.804308,0.999995,-0.001398,-0.000441,-0.002714,0.000983,0.000432,0.002438
1.470000,0.004026,-2.272253,0.677133,-0.004006,1.506098,0.300173,0.004115,1.782780,0.094323,-0.005029,-0.304298,-0.751470,-0.181716,-3.573010,-0.670911,0.999995,-0.001393,-0.000439,-0.002702,0.000979,0.000429,0.002425
1.480000,0.003986,-2.257103,0.680140,-0.003965,1.523910,0.301078,0.004061,1.779558,0.086772,-0.005205,-0.340166,-0.758986,0.149702,-3.600596,-0.834035,0.999995,-0.001388,-0.000437,-0.002690,0.000976,0.000427,0.002413
1.490000,0.003946,-2.241775,0.683155,-0.003924,1.541688,0.301908,0.004016,1.775977,0.079141,-0.004023,-0.376101,-0.767002,-0.012395,-3.576038,-0.711968,0.999995,-0.001383,-0.000435,-0.002678,0.000972,0.000424,0.002400
1.500000,0.003907,-2.226269,0.686178,-0.003884,1.559429,0.302661,0.003973,1.772037,0.071437,-0.004607,-0.411771,-0.773710,-0.005494,-3.567955,-0.686588,0.999995,-0.001378,-0.000433,-0.002666,0.000969,0.000422,0.002388
1.510000,0.003869,-2.210586,0.689208,-0.003845,1.577128,0.303337,0.003928,1.767742,0.063667,-0.004415,-0.447231,-0.780399,0.000467,-3.554846,-0.656361,0.999995,-0.001373,-0.000431,-0.002654,0.000967,0.000419,0.002376
1.520000,0.003830,-2.194727,0.692244,-0.003806,1.594782,0.303934,0.003881,1.763091,0.055830,-0.004997,-0.483149,-0.786885,-0.074545,-3.598648,-0.635563,0.999995,-0.001368,-0.000429,-0.002642,0.000966,0.000417,0.002364
1.530000,0.003793,-2.178691,0.695286,-0.003767,1.612389,0.304453,0.003830,1.758081,0.047930,-0.005019,-0.518571,-0.792996,0.071541,-3.484787,-0.586374,0.999996,-0.001364,-0.000427,-0.002630,0.000964,0.000414,0.002352
1.540000,0.003755,-2.162479,0.698333,-0.003729,1.629943,0.304892,0.003783,1.752721,0.039971,-0.004421,-0.553449,-0.798716,0.005486,-3.520977,-0.562733,0.999996,-0.001359,-0.000424,-0.002619,0.000964,0.000412,0.002340
1.550000,0.003718,-2.146092,0.701384,-0.003692,1.647442,0.305252,0.003738,1.747010,0.031956,-0.004548,-0.588734,-0.804201,0.011514,-3.505452,-0.528915,0.999996,-0.001354,-0.000422,-0.002607,0.000964,0.000409,0.002328
1.560000,0.003681,-2.129531,0.704438,-0.003654,1.664882,0.305531,0.003692,1.740946,0.023891,-0.004661,-0.624065,-0.808871,0.009601,-3.498291,-0.485479,0.999996,-0.001349,-0.000420,-0.002595,0.000965,0.000407,0.002317
1.570000,0.003645,-2.112795,0.707494,-0.003618,1.682260,0.305730,0.003649,1.734534,0.015774,-0.003955,-0.658124,-0.814649,0.089035,-3.373984,-0.591715,0.999996,-0.001344,-0.000418,-0.002584,0.000966,0.000404,0.002306
1.580000,0.003609,-2.095886,0.710552,-0.003581,1.699571,0.305847,0.003611,1.727781,0.007603,-0.003772,-0.692813,-0.819063,-0.053981,-3.565668,-0.288566,0.999996,-0.001339,-0.000416,-0.002572,0.000967,0.000402,0.002295
1.590000,0.003573,-2.078804,0.713611,-0.003546,1.716814,0.305882,0.003571,1.720675,-0.000602,-0.004177,-0.728210,-0.822000,0.015840,-3.452323,-0.377685,0.999996,-0.001335,-0.000414,-0.002561,0.000968,0.000399,0.002283
1.600000,0.003538,-2.061550,0.716669,-0.003510,1.733984,0.305835,0.003531,1.713222,-0.008842,-0.003821,-0.762379,-0.825947,0.012642,-3.441766,-0.333078,0.999996,-0.001330,-0.000412,-0.002549,0.000969,0.000397,0.002272
1.610000,0.003503,-2.044124,0.719727,-0.003475,1.751077,0.305705,0.003493,1.705427,-0.017118,-0.003749,-0.796526,-0.829213,0.010849,-3.422103,-0.296463,0.999996,-0.001325,-0.000410,-0.002538,0.000970,0.000394,0.002261
1.620000,0.003468,-2.026528,0.722783,-0.003440,1.768091,0.305492,0.003457,1.697290,-0.025423,-0.003520,-0.831134,-0.831659,0.026021,-3.465743,-0.215997,0.999996,-0.001320,-0.000408,-0.002527,0.000969,0.000392,0.002250
1.630000,0.003434,-2.008763,0.725837,-0.003406,1.785022,0.305196,0.003422,1.688807,-0.033751,-0.003417,-0.865132,-0.834020,-0.005628,-3.332482,-0.257018,0.999996,-0.001315,-0.000406,-0.002515,0.000969,0.000389,0.002239
1.640000,0.003400,-1.990828,0.728887,-0.003372,1.801866,0.304817,0.003388,1.679989,-0.042104,-0.003452,-0.898458,-0.836336,0.007469,-3.366312,-0.183168,0.999996,-0.001310,-0.000405,-0.002504,0.000968,0.000387,0.002227
1.650000,0.003367,-1.972726,0.731933,-0.003338,1.818621,0.304354,0.003354,1.670836,-0.050475,-0.003344,-0.932170,-0.837884,0.005299,-3.341637,-0.149871,0.999996,-0.001306,-0.000403,-0.002493,0.000967,0.000385,0.002216
1.660000,0.003334,-1.954456,0.734974,-0.003305,1.835282,0.303807,0.003321,1.661350,-0.058862,-0.003161,-0.964935,-0.839532,0.006504,-3.307022,-0.122772,0.999996,-0.001301,-0.000401,-0.002482,0.000965,0.000382,0.002205
1.670000,0.003301,-1.936020,0.738009,-0.003272,1.851847,0.303177,0.003289,1.651531,-0.067260,-0.003441,-0.999190,-0.839818,-0.038534,-3.450796,0.009900,0.999996,-0.001296,-0.000399,-0.002471,0.000964,0.000380,0.002194
1.680000,0.003268,-1.917419,0.741037,-0.003239,1.868311,0.302462,0.003254,1.641372,-0.075660,-0.003427,-1.031995,-0.840502,0.042104,-3.107287,-0.148625,0.999996,-0.001291,-0.000397,-0.002460,0.000962,0.000378,0.002182
1.690000,0.003236,-1.898654,0.744058,-0.003207,1.884673,0.301664,0.003221,1.630897,-0.084072,-0.003085,-1.063218,-0.841672,0.001998,-3.231315,-0.029694,0.999996,-0.001286,-0.000395,-0.002449,0.000960,0.000376,0.002171
1.700000,0.003204,-1.879726,0.747070,-0.003174,1.900928,0.300781,0.003190,1.620101,-0.092488,-0.003181,-1.095825,-0.841574,0.002913,-3.196479,-0.006656,0.999996,-0.001281,-0.000393,-0.002439,0.000958,0.000373,0.002160
1.710000,0.003172,-1.860636,0.750073,-0.003143,1.917074,0.299814,0.003157,1.608979,-0.100904,-0.003469,-1.128564,-0.841588,-0.004069,-3.186964,0.017813,0.999996,-0.001277,-0.000391,-0.002428,0.000957,0.000371,0.002149
1.720000,0.003141,-1.841385,0.753066,-0.003111,1.933107,0.298763,0.003125,1.597543,-0.109318,-0.002745,-1.158057,-0.841087,0.094291,-2.871068,0.068322,0.999996,-0.001272,-0.000389,-0.002417,0.000955,0.000369,0.002138
1.730000,0.003110,-1.821974,0.756048,-0.003080,1.949024,0.297627,0.003099,1.585811,-0.117726,-0.002730,-1.189333,-0.840514,-0.092972,-3.389206,0.045765,0.999996,-0.001267,-0.000388,-0.002406,0.000952,0.000367,0.002127
1.740000,0.003080,-1.802405,0.759018,-0.003049,1.964822,0.296408,0.003067,1.573749,-0.126128,-0.003497,-1.222618,-0.839892,-0.005171,-3.106878,0.092754,0.999996,-0.001262,-0.000386,-0.002396,0.000950,0.000365,0.002115
1.750000,0.003049,-1.782678,0.761976,-0.003019,1.980498,0.295105,0.003034,1.561372,-0.134522,-0.003299,-1.252839,-0.838778,-0.010172,-3.097252,0.115986,0.999996,-0.001258,-0.000384,-0.002385,0.000947,0.000363,0.002104
1.760000,0.003019,-1.762796,0.764920,-0.002989,1.996048,0.293718,0.003003,1.548689,-0.142904,-0.002757,-1.283615,-0.837551,0.002152,-3.074703,0.139205,0.999996,-0.001253,-0.000382,-0.002375,0.000944,0.000361,0.002093
1.770000,0.002989,-1.742758,0.767850,-0.002959,2.011470,0.292247,0.002969,1.535699,-0.151271,-0.004326,-1.314484,-0.835904,-0.202675,-3.082546,0.180918,0.999996,-0.001248,-0.000380,-0.002364,0.000940,0.000359,0.002082
1.780000,0.002960,-1.722567,0.770765,-0.002929,2.026761,0.290692,0.002922,1.522401,-0.159621,-0.004435,-1.344918,-0.834127,0.184410,-3.003577,0.174227,0.999996,-0.001244,-0.000378,-0.002354,0.000937,0.000358,0.002071
1.790000,0.002931,-1.702223,0.773663,-0.002900,2.041918,0.289055,0.002887,1.508802,-0.167954,-0.002925,-1.374880,-0.832226,0.003445,-3.004938,0.215622,0.999996,-0.001239,-0.000377,-0.002344,0.000934,0.000356,0.002060
1.800000,0.002902,-1.681729,0.776545,-0.002872,2.056936,0.287333,0.002855,1.494903,-0.176264,-0.003398,-1.404874,-0.829893,0.015697,-2.976645,0.241914,0.999996,-0.001234,-0.000375,-0.002333,0.000930,0.000354,0.002050
1.810000,0.002873,-1.661085,0.779410,-0.002843,2.071815,0.285529,0.002820,1.480710,-0.184549,-0.003669,-1.433666,-0.826838,0.011001,-2.930677,0.280080,0.999996,-0.001230,-0.000373,-0.002323,0.000928,0.000352,0.002039
1.820000,0.002845,-1.640293,0.782256,-0.002815,2.086549,0.283643,0.002788,1.466219,-0.192807,-0.002434,-1.464854,-0.825108,0.157206,-3.161898,0.152683,0.999997,-0.001225,-0.000371,-0.002313,0.000925,0.000350,0.002029
1.830000,0.002817,-1.619354,0.785082,-0.002787,2.101138,0.281673,0.002767,1.451421,-0.201045,-0.002181,-1.493859,-0.821964,-0.109217,-2.634447,0.479021,0.999997,-0.001220,-0.000370,-0.002303,0.000923,0.000348,0.002019
1.840000,0.002789,-1.598271,0.787889,-0.002760,2.115577,0.279622,0.002740,1.436351,-0.209241,-0.003028,-1.520469,-0.817276,0.019179,-2.833616,0.371319,0.999997,-0.001216,-0.000368,-0.002293,0.000921,0.000345,0.002008
1.850000,0.002762,-1.577043,0.790675,-0.002733,2.129864,0.277489,0.002713,1.421002,-0.217396,-0.002475,-1.549288,-0.813794,0.012141,-2.784447,0.412332,0.999997,-0.001211,-0.000366,-0.002283,0.000920,0.000343,0.001998
1.860000,0.002735,-1.555674,0.793438,-0.002706,2.143996,0.275274,0.002688,1.405368,-0.225513,-0.002627,-1.577445,-0.809501,0.004435,-2.755037,0.447852,0.999997,-0.001206,-0.000364,-0.002273,0.000918,0.000341,0.001988
1.870000,0.002708,-1.534164,0.796180,-0.002679,2.157970,0.272978,0.002664,1.389461,-0.233585,-0.001954,-1.603543,-0.804821,0.084506,-2.553885,0.486431,0.999997,-0.001202,-0.000363,-0.002263,0.000916,0.000340,0.001977
1.880000,0.002681,-1.512515,0.798898,-0.002652,2.171784,0.270602,0.002646,1.373294,-0.241609,-0.001896,-1.630400,-0.799806,-0.074364,-2.820447,0.516470,0.999997,-0.001197,-0.000361,-0.002253,0.000914,0.000338,0.001967
1.890000,0.002655,-1.490729,0.801592,-0.002626,2.185435,0.268146,0.002623,1.356850,-0.249580,-0.002516,-1.658146,-0.794462,-0.003376,-2.638674,0.553986,0.999997,-0.001193,-0.000359,-0.002243,0.000912,0.000337,0.001956
1.900000,0.002629,-1.468807,0.804260,-0.002600,2.198921,0.265611,0.002599,1.340139,-0.257496,-0.002353,-1.683941,-0.788740,-0.009938,-2.610300,0.588330,0.999997,-0.001188,-0.000358,-0.002233,0.000911,0.000335,0.001946
1.910000,0.002603,-1.446751,0.806904,-0.002574,2.212237,0.262997,0.002578,1.323169,-0.265355,-0.001854,-1.710145,-0.783052,-0.000470,-2.581937,0.614596,0.999997,-0.001184,-0.000356,-0.002224,0.000909,0.000333,0.001935
1.920000,0.002577,-1.424563,0.809520,-0.002548,2.225383,0.260304,0.002553,1.305941,-0.273151,-0.003375,-1.735133,-0.775849,-0.196598,-2.462817,0.762380,0.999997,-0.001179,-0.000354,-0.002214,0.000908,0.000332,0.001925
1.930000,0.002552,-1.402244,0.812109,-0.002523,2.238355,0.257534,0.002516,1.288465,-0.280875,-0.003535,-1.760393,-0.769139,0.168086,-2.590557,0.577434,0.999997,-0.001175,-0.000353,-0.002204,0.000907,0.000330,0.001915
1.940000,0.002527,-1.379796,0.814671,-0.002498,2.251152,0.254687,0.002489,1.270732,-0.288537,-0.002179,-1.785989,-0.763018,-0.005044,-2.480893,0.710815,0.999997,-0.001170,-0.000351,-0.002195,0.000906,0.000328,0.001905
1.950000,0.002502,-1.357221,0.817203,-0.002473,2.263769,0.251763,0.002464,1.252750,-0.296129,-0.002718,-1.810413,-0.755469,0.005150,-2.451394,0.735076,0.999997,-0.001165,-0.000349,-0.002185,0.000906,0.000327,0.001895
1.960000,0.002477,-1.334521,0.819706,-0.002449,2.276206,0.248765,0.002435,1.234525,-0.303646,-0.003027,-1.834443,-0.747841,0.000672,-2.411945,0.765836,0.999997,-0.001161,-0.000348,-0.002176,0.000906,0.000325,0.001885
1.970000,0.002453,-1.311698,0.822178,-0.002424,2.288459,0.245691,0.002409,1.216057,-0.311087,-0.002082,-1.859181,-0.740380,0.122527,-2.479507,0.750227,0.999997,-0.001156,-0.000346,-0.002167,0.000906,0.000323,0.001875
1.980000,0.002429,-1.288753,0.824619,-0.002400,2.300526,0.242543,0.002390,1.197345,-0.318451,-0.001958,-1.882855,-0.732335,-0.099814,-2.253442,0.859554,0.999997,-0.001152,-0.000345,-0.002157,0.000907,0.000322,0.001865
1.990000,0.002405,-1.265688,0.827029,-0.002377,2.312405,0.239322,0.002366,1.178405,-0.325731,-0.002749,-1.905380,-0.723674,0.007921,-2.307988,0.848317,0.999997,-0.001147,-0.000343,-0.002148,0.000909,0.000320,0.001855
2.000000,0.002381,-1.242505,0.829405,-0.002353,2.324093,0.236029,0.002341,1.159235,-0.332926,-0.002364,-1.928534,-0.715162,0.002990,-2.266176,0.877975,0.999997,-0.001143,-0.000341,-0.002139,0.000910,0.000319,0.001845
2.010000,0.002358,-1.219207,0.831749,-0.002330,2.335589,0.232664,0.002317,1.139836,-0.340033,-0.002248,-1.951049,-0.706215,0.004035,-2.228324,0.906253,0.999997,-0.001138,-0.000340,-0.002129,0.000913,0.000317,0.001835
2.020000,0.002335,-1.195794,0.834058,-0.002307,2.346889,0.229228,0.002294,1.120216,-0.347050,-0.002431,-1.973021,-0.697084,-0.024896,-2.174311,0.924761,0.999997,-0.001134,-0.000338,-0.002120,0.000915,0.000316,0.001825
2.030000,0.002312,-1.172270,0.836333,-0.002284,2.357993,0.225723,0.002270,1.100377,-0.353973,-0.002419,-1.994704,-0.687618,0.027616,-2.162468,0.968534,0.999997,-0.001129,-0.000337,-0.002111,0.000918,0.000314,0.001815
2.040000,0.002289,-1.148635,0.838573,-0.002261,2.368896,0.222149,0.002247,1.080322,-0.360801,-0.002193,-2.016104,-0.677814,0.001944,-2.109252,0.987260,0.999997,-0.001124,-0.000335,-0.002102,0.000922,0.000313,0.001805
2.050000,0.002266,-1.124892,0.840776,-0.002239,2.379598,0.218507,0.002224,1.060057,-0.367529,-0.002247,-2.036958,-0.667833,0.002928,-2.069496,1.013853,0.999997,-0.001120,-0.000333,-0.002093,0.000926,0.000311,0.001796
2.060000,0.002244,-1.101044,0.842943,-0.002217,2.390097,0.214799,0.002202,1.039584,-0.374156,-0.002226,-2.057447,-0.657549,0.002754,-2.029052,1.040246,0.999997,-0.001115,-0.000332,-0.002084,0.000931,0.000310,0.001786
2.070000,0.002222,-1.077091,0.845072,-0.002195,2.400389,0.211025,0.002180,1.018909,-0.380680,-0.002179,-2.077552,-0.647046,0.005188,-1.990499,1.062302,0.999997,-0.001111,-0.000330,-0.002075,0.000936,0.000308,0.001776
2.080000,0.002200,-1.053037,0.847163,-0.002173,2.410474,0.207186,0.002158,0.998035,-0.387096,-0.002150,-2.097229,-0.636266,0.000528,-1.944942,1.093617,0.999997,-0.001106,-0.000329,-0.002066,0.000941,0.000307,0.001767
2.090000,0.002179,-1.028882,0.849215,-0.002152,2.420349,0.203283,0.002137,0.976966,-0.393404,-0.002141,-2.116476,-0.625213,0.002678,-1.905564,1.114881,0.999997,-0.001101,-0.000327,-0.002058,0.000947,0.000306,0.001757
2.100000,0.002157,-1.004630,0.851228,-0.002131,2.430013,0.199318,0.002116,0.955707,-0.399600,-0.002108,-2.135327,-0.613953,0.002512,-1.863567,1.138826,0.999997,-0.001096,-0.000326,-0.002049,0.000954,0.000304,0.001748
2.110000,0.002136,-0.980283,0.853201,-0.002110,2.439463,0.195291,0.002095,0.934261,-0.405682,-0.002078,-2.153788,-0.602521,0.002545,-1.822195,1.160492,0.999997,-0.001092,-0.000324,-0.002040,0.000961,0.000303,0.001738
2.120000,0.002115,-0.955842,0.855134,-0.002089,2.448697,0.191205,0.002074,0.912633,-0.411649,-0.002066,-2.171711,-0.590626,0.000802,-1.768505,1.205692,0.999997,-0.001087,-0.000323,-0.002031,0.000968,0.000301,0.001729
2.130000,0.002094,-0.931310,0.857025,-0.002068,2.457715,0.187059,0.002054,0.890828,-0.417495,-0.002043,-2.189289,-0.578673,0.003904,-1.747304,1.184547,0.999997,-0.001082,-0.000321,-0.002023,0.000976,0.000300,0.001719
2.140000,0.002074,-0.906688,0.858875,-0.002048,2.466513,0.182855,0.002033,0.868848,-0.423222,-0.002007,-2.206529,-0.566684,0.002362,-1.694364,1.225844,0.999997,-0.001077,-0.000320,-0.002014,0.000984,0.000299,0.001710
2.150000,0.002053,-0.881980,0.860682,-0.002027,2.475091,0.178595,0.002013,0.846699,-0.428827,-0.001988,-2.223231,-0.554264,0.002405,-1.651977,1.245154,0.999997,-0.001072,-0.000318,-0.002006,0.000993,0.000297,0.001701
2.160000,0.002033,-0.857187,0.862447,-0.002007,2.483447,0.174279,0.001994,0.824384,-0.434307,-0.001964,-2.239568,-0.541824,0.002378,-1.609492,1.262495,0.999997,-0.001067,-0.000317,-0.001997,0.001002,0.000296,0.001691
2.170000,0.002013,-0.832312,0.864168,-0.001987,2.491578,0.169909,0.001974,0.801909,-0.439661,-0.001939,-2.255365,-0.528835,0.002508,-1.555597,1.316179,0.999997,-0.001062,-0.000315,-0.001989,0.001011,0.000294,0.001682
2.180000,0.001993,-0.807356,0.865845,-0.001968,2.499484,0.165486,0.001955,0.779278,-0.444884,-0.001916,-2.270800,-0.515902,0.002203,-1.531457,1.269715,0.999997,-0.001057,-0.000314,-0.001980,0.001020,0.000293,0.001673
2.190000,0.001974,-0.782323,0.867477,-0.001948,2.507163,0.161012,0.001936,0.756495,-0.449980,-0.001894,-2.285876,-0.503055,0.002306,-1.478007,1.318978,0.999997,-0.001052,-0.000312,-0.001972,0.001030,0.000292,0.001664
2.200000,0.001954,-0.757214,0.869065,-0.001929,2.514614,0.156487,0.001917,0.733563,-0.454943,-0.001870,-2.300408,-0.489688,0.002262,-1.434013,1.335424,0.999997,-0.001047,-0.000311,-0.001964,0.001040,0.000290,0.001655
2.210000,0.001935,-0.732031,0.870607,-0.001910,2.521834,0.151913,0.001898,0.710488,-0.459773,-0.001853,-2.314472,-0.476180,0.002115,-1.388111,1.354511,0.999997,-0.001041,-0.000309,-0.001956,0.001050,0.000289,0.001646
2.220000,0.001916,-0.706778,0.872103,-0.001891,2.528823,0.147292,0.001880,0.687274,-0.464467,-0.001820,-2.328256,-0.462704,0.003660,-1.359468,1.351956,0.999998,-0.001036,-0.000308,-0.001947,0.001060,0.000287,0.001637
2.230000,0.001897,-0.681456,0.873552,-0.001872,2.535579,0.142625,0.001862,0.663925,-0.469026,-0.001798,-2.341467,-0.448902,0.000598,-1.282247,1.408832,0.999998,-0.001031,-0.000307,-0.001939,0.001070,0.000286,0.001628
2.240000,0.001879,-0.656067,0.874955,-0.001854,2.542101,0.137912,0.001844,0.640447,-0.473444,-0.001790,-2.354086,-0.434755,0.001959,-1.250819,1.409104,0.999998,-0.001025,-0.000305,-0.001931,0.001081,0.000285,0.001619
2.250000,0.001860,-0.630615,0.876310,-0.001836,2.548388,0.133156,0.001826,0.616844,-0.477721,-0.001767,-2.366402,-0.420621,0.001819,-1.203170,1.429229,0.999998,-0.001020,-0.000304,-0.001923,0.001091,0.000283,0.001610
2.260000,0.001842,-0.605100,0.877618,-0.001817,2.554438,0.128358,0.001809,0.593121,-0.481855,-0.001744,-2.378107,-0.405974,0.001836,-1.153932,1.454066,0.999998,-0.001014,-0.000302,-0.001915,0.001102,0.000282,0.001601
2.270000,0.001824,-0.579527,0.878878,-0.001799,2.560250,0.123520,0.001791,0.569282,-0.485844,-0.001738,-2.389629,-0.391963,0.000289,-1.134631,1.392854,0.999998,-0.001009,-0.000301,-0.001907,0.001112,0.000280,0.001592
2.280000,0.001806,-0.553896,0.880088,-0.001782,2.565823,0.118642,0.001774,0.545331,-0.489691,-0.001721,-2.400469,-0.377175,0.003018,-1.032943,1.566106,0.999998,-0.001003,-0.000300,-0.001899,0.001123,0.000279,0.001584
2.290000,0.001788,-0.528211,0.881250,-0.001764,2.571156,0.113726,0.001757,0.521275,-0.493384,-0.001694,-2.410605,-0.361548,0.001655,-1.010037,1.514201,0.999998,-0.000998,-0.000298,-0.001891,0.001133,0.000277,0.001575
2.300000,0.001771,-0.502474,0.882363,-0.001746,2.576248,0.108775,0.001740,0.497119,-0.496925,-0.001681,-2.420535,-0.346508,0.001694,-0.960181,1.538790,0.999998,-0.000992,-0.000297,-0.001883,0.001144,0.000276,0.001566
2.310000,0.001753,-0.476687,0.883426,-0.001729,2.581098,0.103788,0.001723,0.472866,-0.500312,-0.001664,-2.429960,-0.330897,0.001685,-0.912741,1.562319,0.999998,-0.000986,-0.000295,-0.001876,0.001154,0.000275,0.001557
2.320000,0.001736,-0.450853,0.884438,-0.001712,2.585705,0.098769,0.001707,0.448522,-0.503543,-0.001647,-2.438679,-0.315455,0.001670,-0.842727,1.546167,0.999998,-0.000980,-0.000294,-0.001868,0.001165,0.000273,0.001549
2.330000,0.001719,-0.424973,0.885401,-0.001695,2.590068,0.093718,0.001690,0.424094,-0.506619,-0.001631,-2.447063,-0.299553,0.001682,-0.834443,1.634772,0.999998,-0.000975,-0.000293,-0.001860,0.001175,0.000272,0.001540
2.340000,0.001702,-0.399052,0.886313,-0.001678,2.594187,0.088637,0.001674,0.399582,-0.509533,-0.001614,-2.455130,-0.283173,0.001670,-0.767223,1.620624,0.999998,-0.000969,-0.000291,-0.001852,0.001185,0.000270,0.001532
2.350000,0.001686,-0.373091,0.887174,-0.001662,2.598060,0.083528,0.001658,0.374994,-0.512284,-0.001597,-2.462509,-0.266976,0.001666,-0.720360,1.639161,0.999998,-0.000963,-0.000290,-0.001845,0.001195,0.000269,0.001523
2.360000,0.001669,-0.347092,0.887983,-0.001645,2.601686,0.078392,0.001642,0.350333,-0.514873,-0.001582,-2.469592,-0.250790,0.001631,-0.675278,1.649076,0.999998,-0.000957,-0.000289,-0.001837,0.001204,0.000267,0.001515
2.370000,0.001653,-0.321058,0.888741,-0.001629,2.605066,0.073231,0.001626,0.325605,-0.517295,-0.001562,-2.475822,-0.233530,0.002097,-0.591166,1.752790,0.999998,-0.000951,-0.000287,-0.001830,0.001213,0.000266,0.001506
2.380000,0.001636,-0.294991,0.889448,-0.001612,2.608198,0.068047,0.001611,0.300817,-0.519545,-0.001546,-2.481843,-0.216784,0.001198,-0.613566,1.594613,0.999998,-0.000945,-0.000286,-0.001822,0.001222,0.000264,0.001498
2.390000,0.001620,-0.268894,0.890102,-0.001596,2.611082,0.062841,0.001595,0.275968,-0.521633,-0.001533,-2.487682,-0.200639,0.001608,-0.533783,1.684074,0.999998,-0.000939,-0.000285,-0.001815,0.001230,0.000263,0.001490
2.400000,0.001605,-0.242770,0.890704,-0.001581,2.613718,0.057614,0.001580,0.251066,-0.523554,-0.001516,-2.492693,-0.183535,0.001572,-0.488744,1.686507,0.999998,-0.000932,-0.000283,-0.001807,0.001237,0.000261,0.001481
2.410000,0.001589,-0.216621,0.891254,-0.001565,2.616103,0.052370,0.001565,0.226116,-0.525306,-0.001500,-2.497310,-0.166987,0.001558,-0.441590,1.683394,0.999998,-0.000926,-0.000282,-0.001800,0.001244,0.000260,0.001473
2.420000,0.001573,-0.190449,0.891752,-0.001549,2.618240,0.047109,0.001550,0.201121,-0.526889,-0.001485,-2.501592,-0.149316,0.001447,-0.407814,1.791865,0.999998,-0.000920,-0.000281,-0.001792,0.001250,0.000258,0.001465
2.430000,0.001558,-0.164257,0.892196,-0.001534,2.620126,0.041833,0.001535,0.176086,-0.528296,-0.001470,-2.505316,-0.132389,0.001602,-0.336693,1.591495,0.999998,-0.000914,-0.000280,-0.001785,0.001255,0.000257,0.001457
2.440000,0.001543,-0.138047,0.892588,-0.001519,2.621761,0.036544,0.001521,0.151017,-0.529540,-0.001454,-2.508469,-0.116301,0.001503,-0.300923,1.685264,0.999998,-0.000907,-0.000278,-0.001778,0.001260,0.000255,0.001448
2.450000,0.001527,-0.111823,0.892927,-0.001503,2.623146,0.031243,0.001506,0.125918,-0.530617,-0.001439,-2.511274,-0.099190,0.001491,-0.252771,1.677589,0.999998,-0.000901,-0.000277,-0.001771,0.001264,0.000253,0.001440
2.460000,0.001512,-0.085585,0.893213,-0.001488,2.624280,0.025932,0.001492,0.100793,-0.531525,-0.001424,-2.513460,-0.082390,0.001484,-0.202675,1.674144,0.999998,-0.000895,-0.000276,-0.001763,0.001267,0.000252,0.001432
2.470000,0.001498,-0.059338,0.893446,-0.001474,2.625162,0.020613,0.001478,0.075649,-0.532266,-0.001410,-2.515494,-0.065785,0.001352,-0.186386,1.654890,0.999998,-0.000888,-0.000274,-0.001756,0.001270,0.000250,0.001424
2.480000,0.001483,-0.033083,0.893625,-0.001459,2.625792,0.015287,0.001464,0.050486,-0.532840,-0.001396,-2.516815,-0.049121,0.001560,-0.077253,1.678106,0.999998,-0.000882,-0.000273,-0.001749,0.001272,0.000249,0.001416
2.490000,0.001469,-0.006823,0.893752,-0.001444,2.626171,0.009956,0.001450,0.025315,-0.533248,-0.001380,-2.517397,-0.032386,0.001442,-0.056864,1.660964,0.999998,-0.000876,-0.000272,-0.001742,0.001273,0.000247,0.001408
2.500000,0.001454,0.019440,0.893825,-0.001430,2.626299,0.004623,0.001436,0.000138,-0.533489,-0.001366,-2.517801,-0.015831,0.001435,-0.006072,1.658225,0.999998,-0.000869,-0.000271,-0.001735,0.001273,0.000245,0.001400
2.510000,0.001440,0.045702,0.893844,-0.001416,2.626174,-0.000713,0.001423,-0.025039,-0.533563,-0.001352,-2.517588,0.001100,0.001419,0.044172,1.662991,0.999998,-0.000863,-0.000270,-0.001728,0.001273,0.000244,0.001392
2.520000,0.001426,0.071962,0.893810,-0.001401,2.625798,-0.006048,0.001409,-0.050212,-0.533472,-0.001338,-2.516960,0.016832,0.001477,0.085870,1.546779,0.999998,-0.000857,-0.000268,-0.001721,0.001272,0.000242,0.001384
2.530000,0.001412,0.098217,0.893723,-0.001387,2.625170,-0.011382,0.001396,-0.075376,-0.533223,-0.001324,-2.515778,0.033365,0.001330,0.150623,1.761915,0.999998,-0.000850,-0.000267,-0.001714,0.001270,0.000240,0.001377
2.540000,0.001398,0.124465,0.893583,-0.001374,2.624290,-0.016712,0.001383,-0.100526,-0.532801,-0.001310,-2.514037,0.050794,0.001378,0.192959,1.660270,0.999998,-0.000844,-0.000266,-0.001707,0.001268,0.000239,0.001369
2.550000,0.001384,0.150702,0.893389,-0.001360,2.623160,-0.022037,0.001370,-0.125656,-0.532212,-0.001296,-2.511882,0.067111,0.001359,0.242555,1.667149,0.999998,-0.000838,-0.000265,-0.001701,0.001265,0.000237,0.001361
2.560000,0.001371,0.176927,0.893142,-0.001346,2.621777,-0.027356,0.001357,-0.150762,-0.531456,-0.001283,-2.509316,0.084102,0.001334,0.289492,1.676521,0.999998,-0.000831,-0.000264,-0.001694,0.001261,0.000235,0.001353
2.570000,0.001357,0.203137,0.892842,-0.001333,2.620144,-0.032666,0.001344,-0.175839,-0.530534,-0.001269,-2.505921,0.100140,0.001431,0.371243,1.583940,0.999998,-0.000825,-0.000262,-0.001687,0.001256,0.000234,0.001346
2.580000,0.001344,0.229329,0.892489,-0.001319,2.618261,-0.037966,0.001331,-0.200880,-0.529451,-0.001256,-2.502275,0.116892,0.001193,0.357233,1.768064,0.999998,-0.000819,-0.000261,-0.001680,0.001251,0.000232,0.001338
2.590000,0.001331,0.255501,0.892083,-0.001306,2.616127,-0.043254,0.001319,-0.225884,-0.528193,-0.001244,-2.498408,0.134428,0.001277,0.434578,1.685530,0.999998,-0.000813,-0.000260,-0.001674,0.001245,0.000230,0.001330
2.600000,0.001318,0.281651,0.891624,-0.001293,2.613743,-0.048529,0.001306,-0.250845,-0.526766,-0.001231,-2.493742,0.151053,0.001251,0.480318,1.692599,0.999998,-0.000806,-0.000259,-0.001667,0.001239,0.000229,0.001323
2.610000,0.001305,0.307775,0.891112,-0.001280,2.611110,-0.053789,0.001294,-0.275758,-0.525172,-0.001218,-2.488774,0.167790,0.001232,0.525655,1.690854,0.999998,-0.000800,-0.000258,-0.001660,0.001231,0.000227,0.001315
2.620000,0.001293,0.333872,0.890548,-0.001267,2.608228,-0.059032,0.001282,-0.300618,-0.523407,-0.001206,-2.483116,0.185199,0.001186,0.594005,1.755365,0.999998,-0.000794,-0.000257,-0.001654,0.001223,0.000225,0.001307
2.630000,0.001280,0.359939,0.889931,-0.001254,2.605098,-0.064257,0.001270,-0.325419,-0.521469,-0.001194,-2.477147,0.202152,0.001214,0.599289,1.633706,0.999998,-0.000788,-0.000256,-0.001647,0.001215,0.000223,0.001300
2.640000,0.001267,0.385974,0.889263,-0.001242,2.601720,-0.069461,0.001258,-0.350160,-0.519366,-0.001182,-2.470887,0.218579,0.001173,0.665041,1.687085,0.999998,-0.000782,-0.000254,-0.001641,0.001205,0.000222,0.001292
2.650000,0.001255,0.411973,0.888542,-0.001229,2.598095,-0.074643,0.001246,-0.374835,-0.517095,-0.001171,-2.463949,0.235584,0.001157,0.710287,1.677980,0.999998,-0.000776,-0.000253,-0.001634,0.001195,0.000220,0.001285
2.660000,0.001243,0.437935,0.887770,-0.001217,2.594224,-0.079802,0.001235,-0.399437,-0.514658,-0.001159,-2.456539,0.251886,0.001152,0.757835,1.660022,0.999998,-0.000770,-0.000252,-0.001628,0.001185,0.000218,0.001277
2.670000,0.001231,0.463856,0.886946,-0.001204,2.590107,-0.084936,0.001223,-0.423965,-0.512052,-0.001149,-2.448926,0.269489,0.000986,0.778867,1.785059,0.999998,-0.000764,-0.000251,-0.001622,0.001174,0.000217,0.001270
2.680000,0.001219,0.489736,0.886071,-0.001192,2.585745,-0.090043,0.001212,-0.448414,-0.509272,-0.001137,-2.440669,0.286000,0.001259,0.872890,1.514431,0.999998,-0.000758,-0.000250,-0.001615,0.001162,0.000215,0.001262
2.690000,0.001207,0.515571,0.885146,-0.001180,2.581139,-0.095121,0.001201,-0.472776,-0.506337,-0.001125,-2.431749,0.301294,0.001113,0.897178,1.620127,0.999998,-0.000753,-0.000249,-0.001609,0.001150,0.000213,0.001255
2.700000,0.001195,0.541358,0.884169,-0.001168,2.576289,-0.100169,0.001189,-0.497048,-0.503241,-0.001114,-2.422606,0.317754,0.001111,0.945469,1.595609,0.999998,-0.000747,-0.000248,-0.001603,0.001137,0.000211,0.001248
2.710000,0.001184,0.567096,0.883142,-0.001156,2.571198,-0.105185,0.001178,-0.521226,-0.499984,-0.001103,-2.412820,0.333552,0.001107,0.994930,1.573554,0.999998,-0.000741,-0.000247,-0.001597,0.001125,0.000210,0.001240
2.720000,0.001172,0.592781,0.882066,-0.001145,2.565865,-0.110168,0.001167,-0.545304,-0.496570,-0.001092,-2.402862,0.349311,0.001056,1.013072,1.568732,0.999998,-0.000736,-0.000246,-0.001590,0.001112,0.000208,0.001233
2.730000,0.001161,0.618412,0.880939,-0.001133,2.560292,-0.115116,0.001156,-0.569281,-0.492999,-0.001082,-2.392216,0.364726,0.001130,1.116604,1.513901,0.999998,-0.000730,-0.000245,-0.001584,0.001098,0.000206,0.001226
2.740000,0.001149,0.643986,0.879763,-0.001121,2.554480,-0.120027,0.001146,-0.593146,-0.489277,-0.001070,-2.380860,0.379778,0.001083,1.138085,1.505999,0.999998,-0.000725,-0.000244,-0.001578,0.001085,0.000204,0.001218
2.750000,0.001138,0.669501,0.878539,-0.001110,2.548430,-0.124901,0.001135,-0.616897,-0.485404,-0.001060,-2.369314,0.394768,0.001076,1.187475,1.482093,0.999998,-0.000719,-0.000243,-0.001572,0.001071,0.000203,0.001211
2.760000,0.001127,0.694954,0.877265,-0.001099,2.542142,-0.129735,0.001124,-0.640531,-0.481381,-0.001049,-2.357221,0.409727,0.001059,1.235120,1.463882,0.999998,-0.000714,-0.000242,-0.001566,0.001058,0.000201,0.001204
2.770000,0.001116,0.720343,0.875944,-0.001088,2.535619,-0.134528,0.001114,-0.664040,-0.477213,-0.001038,-2.344575,0.423625,0.001158,1.290052,1.360207,0.999999,-0.000709,-0.000241,-0.001560,0.001044,0.000199,0.001197
2.780000,0.001105,0.745665,0.874575,-0.001076,2.528862,-0.139279,0.001104,-0.687421,-0.472907,-0.001027,-2.331504,0.437866,0.000935,1.324104,1.489544,0.999999,-0.000703,-0.000240,-0.001554,0.001031,0.000197,0.001189
2.790000,0.001095,0.770919,0.873159,-0.001065,2.521871,-0.143986,0.001093,-0.710669,-0.468454,-0.001018,-2.318015,0.452517,0.001018,1.377438,1.395699,0.999999,-0.000698,-0.000239,-0.001548,0.001017,0.000196,0.001182
2.800000,0.001084,0.796102,0.871695,-0.001055,2.514649,-0.148647,0.001083,-0.733779,-0.463861,-0.001008,-2.303989,0.466164,0.000995,1.423690,1.378513,0.999999,-0.000693,-0.000238,-0.001542,0.001004,0.000194,0.001175
2.810000,0.001074,0.821212,0.870186,-0.001044,2.507196,-0.153263,0.001073,-0.756747,-0.459130,-0.000998,-2.289605,0.480039,0.000967,1.467997,1.362523,0.999999,-0.000688,-0.000237,-0.001536,0.000990,0.000192,0.001168
2.820000,0.001063,0.846245,0.868630,-0.001033,2.499515,-0.157830,0.001063,-0.779569,-0.454263,-0.000988,-2.274494,0.493103,0.001041,1.539704,1.283353,0.999999,-0.000683,-0.000236,-0.001531,0.000977,0.000190,0.001161
2.830000,0.001053,0.871201,0.867029,-0.001023,2.491606,-0.162347,0.001054,-0.802237,-0.449267,-0.000978,-2.259117,0.506398,0.000835,1.535173,1.376534,0.999999,-0.000678,-0.000235,-0.001525,0.000963,0.000189,0.001154
2.840000,0.001043,0.896077,0.865384,-0.001012,2.483470,-0.166815,0.001044,-0.824750,-0.444134,-0.000970,-2.243499,0.519968,0.000895,1.602859,1.304271,0.999999,-0.000674,-0.000234,-0.001519,0.000950,0.000187,0.001147
2.850000,0.001033,0.920870,0.863693,-0.001002,2.475111,-0.171230,0.001034,-0.847104,-0.438871,-0.000961,-2.227184,0.532766,0.000863,1.645410,1.288305,0.999999,-0.000669,-0.000233,-0.001513,0.000937,0.000185,0.001140
2.860000,0.001023,0.945578,0.861959,-0.000991,2.466529,-0.175591,0.001025,-0.869293,-0.433479,-0.000952,-2.210527,0.545493,0.000836,1.688186,1.268602,0.999999,-0.000664,-0.000232,-0.001508,0.000924,0.000184,0.001133
2.870000,0.001013,0.970200,0.860182,-0.000981,2.457726,-0.179899,0.001015,-0.891313,-0.427960,-0.000944,-2.193402,0.558242,0.000782,1.734608,1.269923,0.999999,-0.000660,-0.000231,-0.001502,0.000911,0.000182,0.001126
2.880000,0.001003,0.994732,0.858361,-0.000971,2.448703,-0.184150,0.001006,-0.913160,-0.422315,-0.000936,-2.175880,0.570657,0.000799,1.769708,1.212581,0.999999,-0.000655,-0.000230,-0.001496,0.000898,0.000180,0.001119
2.890000,0.000993,1.019173,0.856499,-0.000961,2.439463,-0.188345,0.000996,-0.934829,-0.416549,-0.000929,-2.157967,0.582717,0.000748,1.814955,1.210579,0.999999,-0.000651,-0.000230,-0.001491,0.000886,0.000179,0.001112
2.900000,0.000984,1.043520,0.854595,-0.000951,2.430007,-0.192481,0.000987,-0.956317,-0.410661,-0.000921,-2.139600,0.594771,0.000720,1.856241,1.188971,0.999999,-0.000646,-0.000229,-0.001485,0.000873,0.000177,0.001105
2.910000,0.000974,1.067772,0.852649,-0.000941,2.420337,-0.196558,0.000978,-0.977620,-0.404655,-0.000914,-2.120788,0.606430,0.000695,1.898494,1.164630,0.999999,-0.000642,-0.000228,-0.001480,0.000861,0.000175,0.001098
2.920000,0.000965,1.091927,0.850664,-0.000932,2.410455,-0.200574,0.000969,-0.998732,-0.398531,-0.000908,-2.101697,0.618256,0.000621,1.926721,1.179793,0.999999,-0.000638,-0.000227,-0.001474,0.000849,0.000174,0.001092
2.930000,0.000956,1.115981,0.848638,-0.000922,2.400363,-0.204528,0.000960,-1.019652,-0.392291,-0.000901,-2.082106,0.629588,0.000681,1.991574,1.085748,0.999999,-0.000634,-0.000226,-0.001469,0.000838,0.000172,0.001085
2.940000,0.000947,1.139933,0.846573,-0.000912,2.390063,-0.208419,0.000951,-1.040373,-0.385942,-0.000895,-2.062009,0.640389,0.000613,2.020709,1.095345,0.999999,-0.000629,-0.000225,-0.001463,0.000826,0.000171,0.001078
2.950000,0.000938,1.163781,0.844470,-0.000903,2.379557,-0.212246,0.000942,-1.060891,-0.379483,-0.000889,-2.041634,0.651312,0.000589,2.061545,1.068626,0.999999,-0.000625,-0.000224,-0.001458,0.000815,0.000169,0.001071
2.960000,0.000929,1.187524,0.842329,-0.000894,2.368846,-0.216008,0.000933,-1.081204,-0.372917,-0.000883,-2.020802,0.661857,0.000565,2.101993,1.042511,0.999999,-0.000621,-0.000224,-0.001453,0.000804,0.000168,0.001065
2.970000,0.000920,1.211158,0.840150,-0.000884,2.357933,-0.219704,0.000924,-1.101306,-0.366246,-0.000877,-1.999621,0.672183,0.000534,2.136850,1.020327,0.999999,-0.000617,-0.000223,-0.001447,0.000794,0.000166,0.001058
2.980000,0.000911,1.234682,0.837935,-0.000875,2.346821,-0.223333,0.000915,-1.121195,-0.359474,-0.000872,-1.978009,0.682213,0.000522,2.185633,0.985599,0.999999,-0.000613,-0.000222,-0.001442,0.000784,0.000165,0.001051
2.990000,0.000902,1.258093,0.835684,-0.000866,2.335510,-0.226893,0.000907,-1.140865,-0.352603,-0.000867,-1.955965,0.691940,0.000494,2.220301,0.962086,0.999999,-0.000609,-0.000221,-0.001437,0.000774,0.000163,0.001045
3.000000,0.000894,1.281391,0.833397,-0.000857,2.324004,-0.230385,0.000898,-1.160313,-0.345636,-0.000862,-1.933580,0.701432,0.000472,2.259301,0.934068,0.999999,-0.000606,-0.000220,-0.001432,0.000764,0.000162,0.001038
3.010000,0.000885,1.304573,0.831076,-0.000848,2.312305,-0.233806,0.000890,-1.179535,-0.338575,-0.000858,-1.910798,0.710653,0.000451,2.297623,0.906358,0.999999,-0.000602,-0.000219,-0.001426,0.000755,0.000160,0.001031
3.020000,0.000877,1.327637,0.828721,-0.000839,2.300414,-0.237156,0.000881,-1.198528,-0.331424,-0.000853,-1.887624,0.719524,0.000412,2.336467,0.871374,0.999999,-0.000598,-0.000219,-0.001421,0.000746,0.000159,0.001025
3.030000,0.000868,1.350580,0.826333,-0.000830,2.288335,-0.240434,0.000872,-1.217286,-0.324186,-0.000849,-1.864080,0.728155,0.000426,2.372258,0.855000,0.999999,-0.000594,-0.000218,-0.001416,0.000737,0.000157,0.001018
3.040000,0.000860,1.373403,0.823913,-0.000822,2.276069,-0.243639,0.000864,-1.235808,-0.316862,-0.000845,-1.840171,0.736550,0.000389,2.410097,0.820210,0.999999,-0.000591,-0.000217,-0.001411,0.000729,0.000156,0.001012
3.050000,0.000852,1.396101,0.821461,-0.000813,2.263619,-0.246771,0.000856,-1.254089,-0.309456,-0.000841,-1.815886,0.744589,0.000371,2.446439,0.791357,0.999999,-0.000587,-0.000216,-0.001406,0.000721,0.000155,0.001005
3.060000,0.000844,1.418674,0.818978,-0.000805,2.250988,-0.249828,0.000847,-1.272125,-0.301971,-0.000838,-1.791253,0.752378,0.000353,2.482154,0.762497,0.999999,-0.000583,-0.000216,-0.001401,0.000713,0.000153,0.000999
3.070000,0.000836,1.441120,0.816464,-0.000796,2.238178,-0.252810,0.000839,-1.289912,-0.294410,-0.000834,-1.766226,0.759802,0.000325,2.521162,0.726056,0.999999,-0.000580,-0.000215,-0.001396,0.000705,0.000152,0.000992
3.080000,0.000828,1.463437,0.813922,-0.000788,2.225191,-0.255716,0.000831,-1.307448,-0.286776,-0.000831,-1.740873,0.766979,0.000325,2.549272,0.709431,0.999999,-0.000576,-0.000214,-0.001391,0.000698,0.000151,0.000986
3.090000,0.000820,1.485624,0.811350,-0.000780,2.212030,-0.258545,0.000822,-1.324729,-0.279071,-0.000828,-1.715202,0.773913,0.000299,2.586825,0.673396,0.999999,-0.000573,-0.000213,-0.001386,0.000691,0.000150,0.000980
3.100000,0.000812,1.507677,0.808751,-0.000771,2.198697,-0.261297,0.000814,-1.341751,-0.271299,-0.000825,-1.689158,0.780479,0.000282,2.620256,0.643662,0.999999,-0.000569,-0.000213,-0.001381,0.000685,0.000148,0.000973
3.110000,0.000805,1.529597,0.806125,-0.000763,2.185196,-0.263971,0.000806,-1.358511,-0.263462,-0.000826,-1.662772,0.786773,0.000187,2.653701,0.613686,0.999999,-0.000566,-0.000212,-0.001376,0.000678,0.000147,0.000967
3.120000,0.000797,1.551381,0.803472,-0.000755,2.171528,-0.266566,0.000797,-1.375005,-0.255564,-0.000815,-1.636116,0.792738,0.001422,2.680496,0.580676,0.999999,-0.000563,-0.000211,-0.001372,0.000672,0.000146,0.000961
3.130000,0.000789,1.573027,0.800794,-0.000747,2.157696,-0.269082,0.000789,-1.391232,-0.247608,-0.000812,-1.609098,0.798417,-0.000939,2.723086,0.555124,0.999999,-0.000559,-0.000210,-0.001367,0.000666,0.000145,0.000954
3.140000,0.000782,1.594534,0.798091,-0.000739,2.143704,-0.271518,0.000781,-1.407186,-0.239597,-0.000820,-1.581720,0.803810,0.000172,2.749214,0.521932,0.999999,-0.000556,-0.000210,-0.001362,0.000660,0.000144,0.000948
3.150000,0.000775,1.615901,0.795364,-0.000732,2.129554,-0.273874,0.000773,-1.422865,-0.231533,-0.000815,-1.554089,0.808867,0.000117,2.779993,0.490923,0.999999,-0.000553,-0.000209,-0.001357,0.000655,0.000143,0.000942
3.160000,0.000767,1.637125,0.792613,-0.000724,2.115248,-0.276149,0.000765,-1.438267,-0.223420,-0.000786,-1.526235,0.813678,0.000669,2.808175,0.461158,0.999999,-0.000549,-0.000208,-0.001353,0.000650,0.000141,0.000935
3.170000,0.000760,1.658205,0.789841,-0.000716,2.100789,-0.278342,0.000757,-1.453388,-0.215262,-0.000847,-1.497762,0.818007,-0.008055,2.868854,0.413470,0.999999,-0.000546,-0.000208,-0.001348,0.000645,0.000140,0.000929
3.180000,0.000753,1.679140,0.787047,-0.000709,2.086181,-0.280454,0.000748,-1.468222,-0.207061,-0.000846,-1.469222,0.822136,0.008379,2.838583,0.412539,0.999999,-0.000543,-0.000207,-0.001343,0.000640,0.000139,0.000923
3.190000,0.000746,1.699928,0.784232,-0.000701,2.071426,-0.282483,0.000740,-1.482772,-0.198819,-0.000777,-1.440643,0.826074,0.000585,2.894663,0.366049,0.999999,-0.000540,-0.000206,-0.001339,0.000635,0.000138,0.000917
3.200000,0.000739,1.720568,0.781397,-0.000694,2.056526,-0.284430,0.000732,-1.497033,-0.190541,-0.000793,-1.411482,0.829532,0.000963,2.920484,0.334510,0.999999,-0.000537,-0.000205,-0.001334,0.000630,0.000137,0.000911
3.210000,0.000732,1.741058,0.778544,-0.000687,2.041486,-0.286294,0.000724,-1.511002,-0.182230,-0.000860,-1.382212,0.832568,-0.000563,2.945814,0.299046,0.999999,-0.000533,-0.000205,-0.001330,0.000626,0.000136,0.000905
3.220000,0.000725,1.761397,0.775672,-0.000680,2.026307,-0.288075,0.000716,-1.524675,-0.173889,-0.000679,-1.352451,0.835754,0.023466,2.994251,0.312463,0.999999,-0.000530,-0.000204,-0.001325,0.000622,0.000135,0.000899
3.230000,0.000719,1.781584,0.772782,-0.000672,2.010993,-0.289772,0.000710,-1.538050,-0.165518,-0.000669,-1.322582,0.838279,-0.022030,2.979158,0.191736,0.999999,-0.000527,-0.000203,-0.001321,0.000617,0.000134,0.000892
3.240000,0.000712,1.801617,0.769877,-0.000665,1.995547,-0.291385,0.000702,-1.551127,-0.157126,-0.000850,-1.292623,0.840105,-0.000717,3.024845,0.199261,0.999999,-0.000524,-0.000203,-0.001316,0.000612,0.000133,0.000886
3.250000,0.000705,1.821494,0.766955,-0.000658,1.979972,-0.292914,0.000694,-1.563901,-0.148715,-0.000797,-1.262185,0.842045,-0.002060,3.050299,0.162905,0.999999,-0.000521,-0.000202,-0.001312,0.000607,0.000132,0.000881
3.260000,0.000699,1.841216,0.764019,-0.000652,1.964270,-0.294359,0.000686,-1.576368,-0.140288,-0.000781,-1.231061,0.843275,-0.001624,3.086307,0.123643,0.999999,-0.000518,-0.000201,-0.001307,0.000601,0.000132,0.000875
3.270000,0.000692,1.860779,0.761068,-0.000645,1.948446,-0.295720,0.000678,-1.588528,-0.131847,-0.000894,-1.201269,0.844893,-0.014211,2.957605,0.160632,0.999999,-0.000515,-0.000201,-0.001303,0.000595,0.000131,0.000869
3.280000,0.000686,1.880184,0.758104,-0.000638,1.932501,-0.296996,0.000668,-1.600388,-0.123393,-0.000921,-1.170115,0.845661,0.009211,3.275816,-0.008213,0.999999,-0.000512,-0.000200,-0.001299,0.000588,0.000130,0.000863
3.290000,0.000679,1.899429,0.755129,-0.000631,1.916439,-0.298188,0.000660,-1.611925,-0.114937,-0.000848,-1.137484,0.845530,-0.001571,3.163943,0.021988,0.999999,-0.000509,-0.000199,-0.001294,0.000581,0.000129,0.000857
3.300000,0.000673,1.918513,0.752141,-0.000625,1.900263,-0.299295,0.000651,-1.623143,-0.106480,-0.000893,-1.106107,0.845765,-0.000419,3.197427,-0.014294,0.999999,-0.000506,-0.000199,-0.001290,0.000575,0.000129,0.000851
3.310000,0.000667,1.937434,0.749143,-0.000618,1.883977,-0.300317,0.000643,-1.634048,-0.098022,-0.000727,-1.074825,0.845979,0.003784,3.207744,-0.036269,0.999999,-0.000503,-0.000198,-0.001286,0.000568,0.000128,0.000845
3.320000,0.000661,1.956192,0.746135,-0.000612,1.867583,-0.301255,0.000634,-1.644627,-0.089569,-0.001091,-1.040583,0.844183,-0.047652,3.495869,-0.232012,0.999999,-0.000501,-0.000198,-0.001282,0.000562,0.000127,0.000840
3.330000,0.000655,1.974785,0.743118,-0.000606,1.851086,-0.302109,0.000622,-1.654866,-0.081134,-0.001073,-1.007948,0.843251,0.052158,3.026553,0.048744,0.999999,-0.000498,-0.000197,-0.001278,0.000555,0.000126,0.000834
3.340000,0.000649,1.993213,0.740093,-0.000599,1.834487,-0.302878,0.000614,-1.664794,-0.072700,-0.000633,-0.977126,0.843323,0.006478,3.283993,-0.126045,0.999999,-0.000495,-0.000196,-0.001273,0.000548,0.000125,0.000828
3.350000,0.000643,2.011475,0.737061,-0.000593,1.817791,-0.303563,0.000608,-1.674396,-0.064276,-0.000696,-0.943508,0.841512,0.009969,3.294102,-0.144509,0.999999,-0.000492,-0.000196,-0.001269,0.000541,0.000124,0.000822
3.360000,0.000637,2.029569,0.734022,-0.000587,1.801000,-0.304164,0.000600,-1.683662,-0.055868,-0.000845,-0.909452,0.840140,0.006063,3.334436,-0.164479,0.999999,-0.000490,-0.000195,-0.001265,0.000534,0.000123,0.000816
3.370000,0.000631,2.047494,0.730978,-0.000581,1.784119,-0.304680,0.000594,-1.692599,-0.047477,-0.000154,-0.878499,0.837904,0.087596,3.033633,-0.249181,0.999999,-0.000487,-0.000194,-0.001261,0.000526,0.000122,0.000810
3.380000,0.000625,2.065251,0.727929,-0.000575,1.767149,-0.305113,0.000595,-1.701222,-0.039109,-0.000030,-0.845056,0.835863,-0.064351,3.660425,-0.157989,0.999999,-0.000484,-0.000194,-0.001257,0.000519,0.000122,0.000804
3.390000,0.000619,2.082837,0.724876,-0.000569,1.750095,-0.305462,0.000591,-1.709490,-0.030758,-0.000540,-0.808878,0.834061,0.007340,3.396023,-0.236509,0.999999,-0.000482,-0.000193,-0.001253,0.000511,0.000121,0.000799
3.400000,0.000614,2.100252,0.721820,-0.000564,1.732961,-0.305728,0.000587,-1.717413,-0.022431,-0.000266,-0.775618,0.831418,0.002586,3.434229,-0.258311,0.999999,-0.000479,-0.000193,-0.001249,0.000504,0.000120,0.000793
3.410000,0.000608,2.117496,0.718762,-0.000558,1.715748,-0.305911,0.000585,-1.724998,-0.014132,-0.000263,-0.741463,0.828261,0.000415,3.453056,-0.292738,0.999999,-0.000477,-0.000192,-0.001245,0.000497,0.000119,0.000787
3.420000,0.000603,2.134567,0.715702,-0.000552,1.698462,-0.306011,0.000582,-1.732237,-0.005860,-0.000237,-0.706050,0.826296,0.002567,3.574852,-0.178361,0.999999,-0.000474,-0.000191,-0.001241,0.000490,0.000118,0.000781
3.430000,0.000597,2.151465,0.712642,-0.000546,1.681105,-0.306028,0.000580,-1.739121,0.002389,-0.000257,-0.671114,0.823054,-0.006573,3.410286,-0.472628,0.999999,-0.000472,-0.000191,-0.001237,0.000483,0.000117,0.000775
3.440000,0.000592,2.168189,0.709582,-0.000540,1.663681,-0.305963,0.000577,-1.745662,0.010596,-0.000323,-0.636754,0.818414,-0.004367,3.516132,-0.377060,0.999999,-0.000470,-0.000190,-0.001233,0.000475,0.000117,0.000769
3.450000,0.000586,2.184738,0.706523,-0.000535,1.646193,-0.305817,0.000574,-1.751852,0.018762,-0.000362,-0.601258,0.814841,-0.005502,3.527092,-0.416078,0.999999,-0.000467,-0.000190,-0.001230,0.000467,0.000116,0.000764
3.460000,0.000581,2.201113,0.703465,-0.000529,1.628645,-0.305588,0.000571,-1.757692,0.026888,-0.000116,-0.566874,0.810121,0.000035,3.519750,-0.458843,0.999999,-0.000465,-0.000189,-0.001226,0.000458,0.000115,0.000758
3.470000,0.000576,2.217311,0.700411,-0.000523,1.611040,-0.305279,0.000567,-1.763176,0.034969,-0.000863,-0.529302,0.806298,-0.096278,3.829012,-0.373054,0.999999,-0.000463,-0.000189,-0.001222,0.000448,0.000114,0.000752
3.480000,0.000571,2.233333,0.697360,-0.000517,1.593382,-0.304889,0.000556,-1.768286,0.043009,-0.000927,-0.493772,0.801249,0.085165,3.271561,-0.638786,0.999999,-0.000460,-0.000188,-0.001218,0.000438,0.000113,0.000747
3.490000,0.000565,2.249179,0.694314,-0.000512,1.575675,-0.304419,0.000551,-1.773060,0.050989,-0.000232,-0.460527,0.794880,0.000108,3.544248,-0.567314,0.999999,-0.000458,-0.000187,-0.001215,0.000427,0.000112,0.000741
3.500000,0.000560,2.264847,0.691272,-0.000506,1.557922,-0.303870,0.000548,-1.777484,0.058911,-0.000470,-0.424304,0.789330,0.005730,3.533798,-0.610178,0.999999,-0.000456,-0.000187,-0.001211,0.000417,0.000111,0.000735
3.510000,0.000555,2.280337,0.688236,-0.000501,1.540127,-0.303241,0.000543,-1.781545,0.066774,-0.000568,-0.387831,0.783284,0.004333,3.556983,-0.643067,0.999999,-0.000454,-0.000186,-0.001207,0.000408,0.000110,0.000730
3.520000,0.000550,2.295649,0.685207,-0.000496,1.522293,-0.302534,0.000539,-1.785256,0.074572,-0.000111,-0.355039,0.776067,0.058112,3.199445,-0.757395,0.999999,-0.000452,-0.000186,-0.001204,0.000399,0.000110,0.000724
3.530000,0.000545,2.310783,0.682186,-0.000490,1.504423,-0.301750,0.000539,-1.788636,0.082296,-0.000013,-0.319688,0.769040,-0.039436,3.876904,-0.646276,0.999999,-0.000450,-0.000185,-0.001200,0.000390,0.000109,0.000718
3.540000,0.000540,2.325737,0.679173,-0.000485,1.486521,-0.300889,0.000537,-1.791639,0.089954,-0.000318,-0.281503,0.762279,0.007469,3.560344,-0.748906,0.999999,-0.000448,-0.000185,-0.001196,0.000382,0.000108,0.000712
3.550000,0.000536,2.340513,0.676168,-0.000479,1.468591,-0.299951,0.000535,-1.794281,0.097537,-0.000112,-0.246790,0.754435,0.004516,3.581533,-0.776561,0.999999,-0.000446,-0.000184,-0.001193,0.000374,0.000108,0.000707
3.560000,0.000531,2.355109,0.673174,-0.000474,1.450637,-0.298938,0.000533,-1.796572,0.105046,-0.000378,-0.211479,0.747237,-0.003057,3.578271,-0.791041,0.999999,-0.000444,-0.000184,-0.001189,0.000367,0.000107,0.000701
3.570000,0.000526,2.369526,0.670190,-0.000469,1.432661,-0.297850,0.000531,-1.798503,0.112471,0.000328,-0.174329,0.737438,0.091139,3.756716,-1.044022,0.999999,-0.000443,-0.000183,-0.001186,0.000360,0.000106,0.000696
3.580000,0.000522,2.383762,0.667217,-0.000463,1.414668,-0.296689,0.000536,-1.800063,0.119800,0.000333,-0.138341,0.728974,-0.091592,3.437753,-0.644867,0.999999,-0.000441,-0.000183,-0.001182,0.000353,0.000106,0.000690
3.590000,0.000517,2.397819,0.664256,-0.000458,1.396661,-0.295455,0.000535,-1.801275,0.127057,-0.000432,-0.103657,0.722024,-0.008084,3.594604,-0.870768,0.999999,-0.000439,-0.000182,-0.001179,0.000346,0.000105,0.000685
3.600000,0.000512,2.411696,0.661308,-0.000453,1.378644,-0.294148,0.000532,-1.802129,0.134230,-0.000280,-0.067267,0.712627,-0.014656,3.588103,-0.883464,0.999999,-0.000437,-0.000181,-0.001176,0.000340,0.000104,0.000680
3.610000,0.000508,2.425392,0.658374,-0.000447,1.360620,-0.292770,0.000530,-1.802621,0.141309,-0.000031,-0.031187,0.703120,-0.008917,3.591179,-0.916100,0.999999,-0.000436,-0.000181,-0.001172,0.000334,0.000103,0.000675
3.620000,0.000503,2.438908,0.655453,-0.000442,1.342593,-0.291322,0.000525,-1.802755,0.148299,-0.001133,0.004218,0.695242,-0.139951,3.525256,-0.758630,0.999999,-0.000434,-0.000180,-0.001169,0.000329,0.000101,0.000669
3.630000,0.000499,2.452244,0.652548,-0.000437,1.324566,-0.289805,0.000511,-1.802535,0.155208,-0.001329,0.040061,0.685866,0.103099,3.644283,-1.119833,0.999999,-0.000432,-0.000180,-0.001165,0.000323,0.000100,0.000664
3.640000,0.000495,2.465399,0.649657,-0.000432,1.306543,-0.288218,0.000503,-1.801952,0.162010,-0.000513,0.076384,0.674846,-0.011914,3.584312,-0.984202,0.999999,-0.000431,-0.000179,-0.001162,0.000317,0.000099,0.000659
3.650000,0.000490,2.478375,0.646783,-0.000427,1.288528,-0.286565,0.000495,-1.801010,0.168712,-0.000954,0.112049,0.665331,-0.004307,3.584302,-1.018665,0.999999,-0.000429,-0.000179,-0.001159,0.000311,0.000098,0.000654
3.660000,0.000486,2.491170,0.643926,-0.000422,1.270524,-0.284845,0.000486,-1.799711,0.175312,-0.000884,0.147743,0.654669,0.000885,3.578312,-1.053950,0.999999,-0.000428,-0.000178,-0.001156,0.000306,0.000097,0.000648
3.670000,0.000482,2.503785,0.641087,-0.000417,1.252535,-0.283059,0.000476,-1.798054,0.181809,-0.001096,0.183827,0.644797,-0.026340,3.615544,-0.978098,0.999999,-0.000426,-0.000178,-0.001152,0.000300,0.000096,0.000643
3.680000,0.000478,2.516221,0.638265,-0.000413,1.234564,-0.281209,0.000465,-1.796036,0.188204,-0.001058,0.219572,0.633896,0.034367,3.532645,-1.203936,0.999999,-0.000425,-0.000178,-0.001149,0.000294,0.000095,0.000637
3.690000,0.000474,2.528476,0.635463,-0.000408,1.216615,-0.279295,0.000456,-1.793664,0.194483,-0.000750,0.254939,0.621888,0.010072,3.563542,-1.139277,0.999999,-0.000423,-0.000177,-0.001146,0.000289,0.000094,0.000631
3.700000,0.000470,2.540553,0.632680,-0.000403,1.198692,-0.277319,0.000449,-1.790936,0.200646,-0.000714,0.290645,0.610617,0.014007,3.554700,-1.172643,0.999999,-0.000422,-0.000177,-0.001143,0.000283,0.000094,0.000626
3.710000,0.000466,2.552450,0.629917,-0.000399,1.180798,-0.275283,0.000440,-1.787851,0.206694,-0.000970,0.326313,0.599044,0.007988,3.549876,-1.195097,0.999999,-0.000420,-0.000176,-0.001140,0.000278,0.000093,0.000620
3.720000,0.000462,2.564169,0.627174,-0.000395,1.162936,-0.273186,0.000435,-1.784412,0.212621,0.000118,0.361373,0.586229,0.138357,3.490090,-1.315881,0.999999,-0.000419,-0.000176,-0.001137,0.000273,0.000093,0.000615
3.730000,0.000458,2.575709,0.624453,-0.000390,1.145111,-0.271031,0.000439,-1.780622,0.218420,0.000301,0.396704,0.573818,-0.103983,3.576859,-1.164418,0.999999,-0.000418,-0.000175,-0.001134,0.000269,0.000093,0.000610
3.740000,0.000454,2.587071,0.621754,-0.000386,1.127325,-0.268818,0.000437,-1.776477,0.224100,-0.000524,0.432338,0.561899,0.010718,3.521314,-1.271394,0.999999,-0.000416,-0.000175,-0.001131,0.000264,0.000092,0.000604
3.750000,0.000450,2.598256,0.619077,-0.000381,1.109582,-0.266549,0.000434,-1.771978,0.229654,-0.000095,0.467364,0.548839,0.003434,3.512696,-1.288198,0.999999,-0.000415,-0.000174,-0.001128,0.000260,0.000092,0.000599
3.760000,0.000446,2.609263,0.616423,-0.000377,1.091887,-0.264225,0.000434,-1.767129,0.235079,0.000056,0.502373,0.536221,0.003295,3.500109,-1.299545,0.999999,-0.000414,-0.000174,-0.001125,0.000256,0.000091,0.000594
3.770000,0.000442,2.620094,0.613793,-0.000373,1.074241,-0.261848,0.000433,-1.761930,0.240372,-0.000244,0.537467,0.522260,-0.040415,3.507529,-1.429838,0.999999,-0.000412,-0.000173,-0.001122,0.000252,0.000090,0.000589
3.780000,0.000439,2.630748,0.611186,-0.000368,1.056649,-0.259418,0.000430,-1.756381,0.245527,-0.000276,0.572289,0.508940,0.034585,3.456384,-1.232175,0.999999,-0.000411,-0.000173,-0.001119,0.000248,0.000089,0.000583
3.790000,0.000435,2.641227,0.608604,-0.000364,1.039115,-0.256938,0.000429,-1.750486,0.250554,-0.000010,0.606813,0.496356,-0.004067,3.459246,-1.347482,0.999999,-0.000410,-0.000172,-0.001116,0.000246,0.000088,0.000578
3.800000,0.000431,2.651531,0.606048,-0.000360,1.021641,-0.254408,0.000428,-1.744244,0.255448,-0.000163,0.641370,0.482530,-0.003669,3.441668,-1.355043,0.999999,-0.000409,-0.000172,-0.001113,0.000243,0.000087,0.000573
3.810000,0.000428,2.661660,0.603516,-0.000356,1.004231,-0.251829,0.000427,-1.737660,0.260205,-0.000096,0.675493,0.468843,-0.002306,3.419658,-1.367933,0.999999,-0.000407,-0.000172,-0.001110,0.000242,0.000086,0.000568
3.820000,0.000424,2.671616,0.601011,-0.000351,0.986889,-0.249204,0.000425,-1.730732,0.264826,-0.000386,0.710101,0.455303,-0.036958,3.465862,-1.353940,0.999999,-0.000406,-0.000171,-0.001107,0.000241,0.000085,0.000562
3.830000,0.000421,2.681398,0.598532,-0.000347,0.969617,-0.246533,0.000420,-1.723460,0.269310,-0.000439,0.744051,0.441473,0.027017,3.322760,-1.412650,0.999999,-0.000405,-0.000171,-0.001104,0.000241,0.000084,0.000557
3.840000,0.000417,2.691008,0.596081,-0.000343,0.952420,-0.243818,0.000417,-1.715854,0.273654,-0.000226,0.777282,0.427330,-0.003396,3.359769,-1.401852,0.999999,-0.000404,-0.000170,-0.001102,0.000240,0.000084,0.000552
3.850000,0.000414,2.700447,0.593656,-0.000339,0.935301,-0.241061,0.000414,-1.707913,0.277858,-0.000345,0.810932,0.413314,-0.001509,3.334224,-1.415317,0.999999,-0.000403,-0.000170,-0.001099,0.000240,0.000083,0.000547
3.860000,0.000411,2.709714,0.591260,-0.000335,0.918263,-0.238262,0.000410,-1.699636,0.281918,-0.000399,0.844470,0.398634,-0.001626,3.316808,-1.437638,0.999999,-0.000401,-0.000169,-0.001096,0.000238,0.000082,0.000542
3.870000,0.000407,2.718812,0.588891,-0.000331,0.901310,-0.235423,0.000407,-1.691028,0.285836,-0.000309,0.876748,0.385326,0.012267,3.193333,-1.304777,0.999999,-0.000400,-0.000169,-0.001094,0.000237,0.000081,0.000537
3.880000,0.000404,2.727741,0.586551,-0.000327,0.884444,-0.232545,0.000404,-1.682099,0.289620,-0.000306,0.909484,0.370842,-0.011878,3.355469,-1.594588,0.999999,-0.000399,-0.000169,-0.001091,0.000235,0.000080,0.000532
3.890000,0.000401,2.736501,0.584240,-0.000323,0.867669,-0.229631,0.000400,-1.672837,0.293248,-0.000400,0.942747,0.355068,0.000471,3.241807,-1.478650,0.999999,-0.000398,-0.000168,-0.001088,0.000233,0.000080,0.000527
3.900000,0.000398,2.745095,0.581959,-0.000319,0.850988,-0.226681,0.000396,-1.663249,0.296727,-0.000359,0.974786,0.340577,0.000338,3.220852,-1.500697,0.999999,-0.000397,-0.000168,-0.001086,0.000230,0.000079,0.000522
3.910000,0.000394,2.753521,0.579707,-0.000315,0.834405,-0.223697,0.000393,-1.653341,0.300058,-0.000367,1.006729,0.325670,0.000360,3.192345,-1.513281,0.999999,-0.000396,-0.000167,-0.001083,0.000227,0.000078,0.000517
3.920000,0.000391,2.761783,0.577485,-0.000311,0.817922,-0.220680,0.000389,-1.643113,0.303237,-0.000330,1.038849,0.310017,0.004836,3.207871,-1.585755,0.999999,-0.000394,-0.000167,-0.001080,0.000224,0.000077,0.000511
3.930000,0.000388,2.769880,0.575293,-0.000307,0.801544,-0.217633,0.000386,-1.632566,0.306260,-0.000320,1.070391,0.294617,-0.002956,3.099643,-1.493156,0.999999,-0.000393,-0.000167,-0.001078,0.000222,0.000077,0.000506
3.940000,0.000385,2.777814,0.573132,-0.000303,0.785272,-0.214556,0.000383,-1.621708,0.309131,-0.000342,1.101310,0.279522,0.000938,3.107512,-1.557427,0.999999,-0.000392,-0.000166,-0.001075,0.000219,0.000076,0.000501
3.950000,0.000382,2.785586,0.571002,-0.000299,0.769111,-0.211451,0.000379,-1.610539,0.311847,-0.000321,1.132346,0.263740,0.000785,3.074881,-1.567055,0.999999,-0.000391,-0.000166,-0.001073,0.000216,0.000075,0.000496
3.960000,0.000379,2.793197,0.568903,-0.000295,0.753062,-0.208319,0.000376,-1.599063,0.314407,-0.000337,1.162912,0.248133,0.000264,3.041641,-1.575346,0.999999,-0.000390,-0.000166,-0.001070,0.000212,0.000075,0.000491
3.970000,0.000376,2.800648,0.566836,-0.000292,0.737130,-0.205163,0.000373,-1.587282,0.316808,-0.000277,1.193209,0.232043,0.007701,3.014013,-1.622056,0.999999,-0.000389,-0.000165,-0.001068,0.000209,0.000074,0.000486
3.980000,0.000373,2.807940,0.564800,-0.000288,0.721318,-0.201984,0.000370,-1.575200,0.319048,-0.000270,1.223113,0.216124,-0.006547,2.966616,-1.560854,0.999999,-0.000388,-0.000165,-0.001066,0.000206,0.000073,0.000481
3.990000,0.000370,2.815074,0.562796,-0.000284,0.705627,-0.198782,0.000367,-1.562821,0.321131,-0.000324,1.252609,0.200415,0.000040,2.935947,-1.601413,0.999999,-0.000387,-0.000164,-0.001063,0.000203,0.000072,0.000476
4.000000,0.000368,2.822053,0.560825,-0.000281,0.690062,-0.195561,0.000364,-1.550148,0.323055,-0.000305,1.281794,0.184273,-0.000430,2.897673,-1.606208,0.999999,-0.000386,-0.000164,-0.001061,0.000200,0.000072,0.000472
4.010000,0.000365,2.828876,0.558885,-0.000277,0.674625,-0.192322,0.000361,-1.537186,0.324817,-0.000272,1.310615,0.168168,0.000181,2.859360,-1.611733,0.999999,-0.000385,-0.000164,-0.001058,0.000197,0.000071,0.000467
4.020000,0.000362,2.835546,0.556978,-0.000273,0.659320,-0.189066,0.000358,-1.523938,0.326418,-0.000364,1.338914,0.152067,-0.011986,2.807003,-1.611078,0.999999,-0.000384,-0.000163,-0.001056,0.000194,0.000070,0.000462
4.030000,0.000359,2.842063,0.555104,-0.000270,0.644148,-0.185794,0.000354,-1.510409,0.327858,-0.000372,1.366890,0.135890,0.010721,2.788267,-1.624230,0.999999,-0.000383,-0.000163,-0.001054,0.000191,0.000069,0.000457
4.040000,0.000357,2.848429,0.553262,-0.000266,0.629112,-0.182509,0.000351,-1.496601,0.329136,-0.000285,1.394541,0.119642,0.000002,2.734980,-1.622603,0.999999,-0.000382,-0.000163,-0.001052,0.000188,0.000069,0.000452
4.050000,0.000354,2.854646,0.551454,-0.000263,0.614216,-0.179212,0.000348,-1.482520,0.330251,-0.000315,1.421637,0.103417,0.000694,2.691302,-1.624971,0.999999,-0.000381,-0.000162,-0.001049,0.000185,0.000068,0.000447
4.060000,0.000351,2.860714,0.549678,-0.000259,0.599463,-0.175905,0.000345,-1.468170,0.331204,-0.000310,1.448295,0.087091,0.000887,2.645532,-1.627796,0.999999,-0.000380,-0.000162,-0.001047,0.000182,0.000067,0.000442
4.070000,0.000349,2.866635,0.547936,-0.000256,0.584854,-0.172588,0.000342,-1.453555,0.331994,-0.000291,1.474594,0.070977,0.002177,2.608659,-1.606856,0.999999,-0.000379,-0.000162,-0.001045,0.000179,0.000066,0.000437
4.080000,0.000346,2.872412,0.546226,-0.000252,0.570393,-0.169265,0.000339,-1.438680,0.332622,-0.000278,1.500352,0.054707,0.000409,2.542696,-1.647507,0.999999,-0.000378,-0.000161,-0.001043,0.000176,0.000066,0.000432
4.090000,0.000344,2.878044,0.544550,-0.000249,0.556081,-0.165937,0.000336,-1.423550,0.333087,-0.000272,1.525551,0.038271,0.001507,2.502136,-1.627335,0.999999,-0.000378,-0.000161,-0.001041,0.000174,0.000065,0.000427
4.100000,0.000341,2.883534,0.542908,-0.000246,0.541922,-0.162604,0.000334,-1.408170,0.333389,-0.000253,1.550346,0.022061,0.001563,2.451301,-1.626615,0.999999,-0.000377,-0.000161,-0.001038,0.000171,0.000064,0.000422
4.110000,0.000339,2.888883,0.541298,-0.000242,0.527919,-0.159269,0.000331,-1.392545,0.333528,-0.000270,1.574565,0.005857,0.000956,2.398318,-1.623331,0.999999,-0.000376,-0.000160,-0.001036,0.000168,0.000064,0.000418
4.120000,0.000337,2.894093,0.539722,-0.000239,0.514072,-0.155934,0.000329,-1.376680,0.333505,-0.000181,1.598350,-0.010492,0.011157,2.353658,-1.636893,0.999999,-0.000375,-0.000160,-0.001034,0.000165,0.000063,0.000413
4.130000,0.000334,2.899165,0.538180,-0.000236,0.500386,-0.152600,0.000327,-1.360580,0.333319,-0.000165,1.621533,-0.026682,-0.008137,2.282471,-1.600781,0.999999,-0.000374,-0.000160,-0.001032,0.000163,0.000062,0.000408
4.140000,0.000332,2.904101,0.536670,-0.000233,0.486861,-0.149268,0.000325,-1.344252,0.332972,-0.000230,1.644092,-0.042693,0.000860,2.233982,-1.610463,0.999999,-0.000373,-0.000159,-0.001030,0.000160,0.000061,0.000403
4.150000,0.000329,2.908902,0.535194,-0.000229,0.473501,-0.145941,0.000323,-1.327700,0.332465,-0.000196,1.666176,-0.058810,0.000226,2.176762,-1.603318,0.999999,-0.000373,-0.000159,-0.001028,0.000158,0.000061,0.000399
4.160000,0.000327,2.913571,0.533752,-0.000226,0.460308,-0.142619,0.000321,-1.310930,0.331797,-0.000166,1.687684,-0.074790,0.000555,2.118875,-1.595477,0.999999,-0.000372,-0.000159,-0.001026,0.000156,0.000060,0.000394
4.170000,0.000325,2.918109,0.532342,-0.000223,0.447284,-0.139305,0.000319,-1.293949,0.330969,-0.000232,1.708496,-0.090742,-0.008755,2.049028,-1.592009,0.999999,-0.000371,-0.000159,-0.001024,0.000153,0.000059,0.000389
4.180000,0.000323,2.922518,0.530965,-0.000220,0.434430,-0.136001,0.000317,-1.276762,0.329982,-0.000236,1.728778,-0.106570,0.008215,2.007307,-1.573241,0.999999,-0.000370,-0.000158,-0.001022,0.000151,0.000058,0.000384
4.190000,0.000321,2.926798,0.529622,-0.000217,0.421749,-0.132706,0.000315,-1.259375,0.328838,-0.000170,1.748525,-0.122259,-0.000012,1.936381,-1.567369,0.999999,-0.000370,-0.000158,-0.001020,0.000149,0.000058,0.000379
4.200000,0.000318,2.930953,0.528311,-0.000213,0.409243,-0.129424,0.000313,-1.241794,0.327537,-0.000193,1.767544,-0.137892,0.000362,1.873410,-1.556019,0.999999,-0.000369,-0.000158,-0.001018,0.000147,0.000057,0.000375
4.210000,0.000316,2.934984,0.527033,-0.000210,0.396914,-0.126156,0.000311,-1.224026,0.326080,-0.000197,1.785979,-0.153434,0.000256,1.809544,-1.544769,0.999999,-0.000368,-0.000157,-0.001017,0.000145,0.000056,0.000370
4.220000,0.000314,2.938892,0.525788,-0.000207,0.384763,-0.122903,0.000309,-1.206077,0.324470,-0.000175,1.803696,-0.168715,0.002825,1.737352,-1.518636,0.999999,-0.000367,-0.000157,-0.001015,0.000143,0.000055,0.000365
4.230000,0.000312,2.942680,0.524575,-0.000204,0.372793,-0.119667,0.000308,-1.187954,0.322706,-0.000170,1.820799,-0.183956,-0.001881,1.683237,-1.529674,0.999999,-0.000367,-0.000157,-0.001013,0.000141,0.000055,0.000360
4.240000,0.000310,2.946349,0.523395,-0.000201,0.361005,-0.116450,0.000306,-1.169663,0.320790,-0.000184,1.837282,-0.199158,0.000393,1.609451,-1.503238,0.999999,-0.000366,-0.000157,-0.001011,0.000139,0.000054,0.000356
4.250000,0.000308,2.949900,0.522246,-0.000198,0.349400,-0.113252,0.000304,-1.151211,0.318724,-0.000174,1.853010,-0.214081,0.000284,1.540268,-1.488427,0.999999,-0.000365,-0.000156,-0.001009,0.000137,0.000053,0.000351
4.260000,0.000306,2.953337,0.521130,-0.000195,0.337981,-0.110076,0.000302,-1.132605,0.316509,-0.000174,1.868045,-0.228888,0.000215,1.469421,-1.472210,0.999999,-0.000365,-0.000156,-0.001008,0.000135,0.000053,0.000346
4.270000,0.000304,2.956661,0.520045,-0.000192,0.326748,-0.106922,0.000301,-1.113852,0.314147,-0.000166,1.882423,-0.243518,0.000931,1.403001,-1.454034,0.999999,-0.000364,-0.000156,-0.001006,0.000133,0.000052,0.000342
4.280000,0.000302,2.959873,0.518991,-0.000189,0.315704,-0.103793,0.000299,-1.094959,0.311639,-0.000164,1.896037,-0.257976,-0.000485,1.319620,-1.437557,0.999999,-0.000363,-0.000156,-0.001004,0.000131,0.000051,0.000337
4.290000,0.000300,2.962975,0.517969,-0.000186,0.304850,-0.100690,0.000297,-1.075934,0.308988,-0.000167,1.908871,-0.272255,0.000152,1.249977,-1.417464,0.999999,-0.000363,-0.000155,-0.001003,0.000129,0.000050,0.000332
4.300000,0.000299,2.965970,0.516977,-0.000183,0.294186,-0.097614,0.000296,-1.056784,0.306195,-0.000164,1.921005,-0.286327,0.000096,1.173674,-1.397255,0.999999,-0.000362,-0.000155,-0.001001,0.000127,0.000050,0.000328
4.310000,0.000297,2.968860,0.516016,-0.000180,0.283714,-0.094566,0.000294,-1.037517,0.303262,-0.000159,1.932352,-0.300187,0.000152,1.096232,-1.375790,0.999999,-0.000361,-0.000155,-0.000999,0.000126,0.000049,0.000323
4.320000,0.000295,2.971645,0.515086,-0.000177,0.273436,-0.091549,0.000292,-1.018140,0.300192,-0.000167,1.942931,-0.313851,-0.001112,1.018691,-1.355647,0.999999,-0.000361,-0.000155,-0.000998,0.000124,0.000048,0.000318
4.330000,0.000293,2.974329,0.514185,-0.000174,0.263352,-0.088563,0.000291,-0.998661,0.296986,-0.000167,1.952708,-0.327270,0.001234,0.936398,-1.327904,0.999999,-0.000360,-0.000154,-0.000996,0.000122,0.000048,0.000313
4.340000,0.000292,2.976913,0.513314,-0.000171,0.253463,-0.085610,0.000289,-0.979088,0.293647,-0.000157,1.961668,-0.340431,0.000122,0.856080,-1.305325,0.999999,-0.000359,-0.000154,-0.000995,0.000120,0.000047,0.000309
4.350000,0.000290,2.979399,0.512473,-0.000168,0.243770,-0.082691,0.000288,-0.959430,0.290178,-0.000159,1.969816,-0.353361,0.000192,0.773029,-1.279433,0.999999,-0.000359,-0.000154,-0.000993,0.000118,0.000046,0.000304
4.360000,0.000288,2.981789,0.511660,-0.000166,0.234275,-0.079807,0.000286,-0.939695,0.286581,-0.000156,1.977129,-0.365999,0.000230,0.688849,-1.252063,0.999999,-0.000358,-0.000154,-0.000992,0.000116,0.000045,0.000300
4.370000,0.000287,2.984085,0.510877,-0.000163,0.224977,-0.076959,0.000284,-0.919890,0.282859,-0.000155,1.983583,-0.378436,0.000064,0.602195,-1.231167,0.999999,-0.000358,-0.000153,-0.000990,0.000115,0.000045,0.000295
4.380000,0.000285,2.986289,0.510121,-0.000160,0.215877,-0.074150,0.000283,-0.900026,0.279014,-0.000152,1.989181,-0.390536,0.000442,0.517115,-1.188465,0.999999,-0.000357,-0.000153,-0.000989,0.000113,0.000044,0.000290
4.390000,0.000283,2.988403,0.509393,-0.000157,0.206976,-0.071379,0.000281,-0.880110,0.275049,-0.000148,1.993909,-0.402282,0.000288,0.427869,-1.164458,0.999999,-0.000357,-0.000153,-0.000987,0.000111,0.000043,0.000286
4.400000,0.000282,2.990429,0.508693,-0.000154,0.198275,-0.068649,0.000280,-0.860151,0.270969,-0.000146,1.997737,-0.413788,0.000304,0.338051,-1.132632,0.999999,-0.000356,-0.000153,-0.000986,0.000109,0.000043,0.000281
4.410000,0.000280,2.992370,0.508020,-0.000151,0.189774,-0.065960,0.000278,-0.840158,0.266775,-0.000148,2.000661,-0.424970,0.000206,0.246824,-1.100275,0.999999,-0.000356,-0.000153,-0.000984,0.000108,0.000042,0.000277
4.420000,0.000279,2.994226,0.507374,-0.000149,0.181472,-0.063314,0.000277,-0.820140,0.262471,-0.000134,2.002671,-0.435759,0.001750,0.154747,-1.060551,0.999999,-0.000355,-0.000152,-0.000983,0.000106,0.000041,0.000272
4.430000,0.000277,2.996000,0.506754,-0.000146,0.173371,-0.060711,0.000276,-0.800108,0.258060,-0.000131,2.003745,-0.446246,-0.001192,0.059779,-1.036657,0.999999,-0.000354,-0.000152,-0.000982,0.000104,0.000040,0.000267
4.440000,0.000276,2.997694,0.506160,-0.000143,0.165470,-0.058153,0.000274,-0.780069,0.253547,-0.000140,2.003869,-0.456423,0.000163,-0.034963,-0.995367,0.999999,-0.000354,-0.000152,-0.000980,0.000102,0.000040,0.000263
4.450000,0.000274,2.999310,0.505591,-0.000140,0.157769,-0.055641,0.000273,-0.760033,0.248933,-0.000135,2.003033,-0.466175,0.000052,-0.132162,-0.958346,0.999999,-0.000353,-0.000152,-0.000979,0.000101,0.000039,0.000258
4.460000,0.000273,3.000850,0.505047,-0.000138,0.150269,-0.053175,0.000272,-0.740011,0.244224,-0.000131,2.001218,-0.475566,0.000065,-0.230539,-0.919975,0.999999,-0.000353,-0.000152,-0.000978,0.000099,0.000038,0.000254
4.470000,0.000272,3.002316,0.504527,-0.000135,0.142969,-0.050757,0.000270,-0.720012,0.239423,-0.000139,1.998422,-0.484574,-0.001078,-0.329390,-0.881038,0.999999,-0.000352,-0.000151,-0.000976,0.000097,0.000038,0.000249
4.480000,0.000270,3.003710,0.504031,-0.000132,0.135869,-0.048387,0.000269,-0.700046,0.234534,-0.000140,1.994614,-0.493176,0.000921,-0.432381,-0.839216,0.999999,-0.000352,-0.000151,-0.000975,0.000095,0.000037,0.000245
4.490000,0.000269,3.005034,0.503559,-0.000130,0.128968,-0.046066,0.000268,-0.680123,0.229561,-0.000133,1.989779,-0.501361,-0.000096,-0.534368,-0.797778,0.999999,-0.000351,-0.000151,-0.000974,0.000094,0.000036,0.000240
4.500000,0.000268,3.006290,0.503110,-0.000127,0.122266,-0.043796,0.000266,-0.660254,0.224508,-0.000137,1.983923,-0.509126,-0.000087,-0.638240,-0.754634,0.999999,-0.000351,-0.000151,-0.000973,0.000092,0.000035,0.000235
4.510000,0.000266,3.007480,0.502683,-0.000124,0.115763,-0.041576,0.000265,-0.640448,0.219380,-0.000138,1.977013,-0.516447,-0.000125,-0.743795,-0.710166,0.999999,-0.000351,-0.000151,-0.000972,0.000090,0.000035,0.000231
4.520000,0.000265,3.008606,0.502278,-0.000122,0.109457,-0.039408,0.000263,-0.620717,0.214181,-0.000139,1.969044,-0.523332,-0.000047,-0.850472,-0.665862,0.999999,-0.000350,-0.000150,-0.000970,0.000088,0.000034,0.000226
4.530000,0.000264,3.009670,0.501895,-0.000119,0.103348,-0.037293,0.000262,-0.601071,0.208915,-0.000140,1.959995,-0.529745,-0.000293,-0.959535,-0.616512,0.999999,-0.000350,-0.000150,-0.000969,0.000086,0.000033,0.000222
4.540000,0.000263,3.010673,0.501532,-0.000116,0.097435,-0.035230,0.000261,-0.581521,0.203588,-0.000143,1.949852,-0.535673,-0.000235,-1.069296,-0.569544,0.999999,-0.000349,-0.000150,-0.000968,0.000085,0.000033,0.000217
4.550000,0.000262,3.011619,0.501190,-0.000114,0.091717,-0.033221,0.000259,-0.562078,0.198203,-0.000146,1.938608,-0.541126,-0.000285,-1.180410,-0.520131,0.999999,-0.000349,-0.000150,-0.000967,0.000083,0.000032,0.000213
4.560000,0.000261,3.012508,0.500868,-0.000111,0.086193,-0.031266,0.000258,-0.542753,0.192767,-0.000149,1.926231,-0.546081,-0.000337,-1.293388,-0.469582,0.999999,-0.000348,-0.000150,-0.000966,0.000081,0.000031,0.000208
4.570000,0.000260,3.013343,0.500564,-0.000109,0.080862,-0.029366,0.000256,-0.523557,0.187283,-0.000152,1.912752,-0.550504,-0.000383,-1.404367,-0.415920,0.999999,-0.000348,-0.000150,-0.000965,0.000079,0.000031,0.000204
4.580000,0.000258,3.014126,0.500280,-0.000106,0.075722,-0.027521,0.000255,-0.504502,0.181758,-0.000157,1.898101,-0.554415,-0.000461,-1.526214,-0.365991,0.999999,-0.000348,-0.000149,-0.000964,0.000077,0.000030,0.000199
4.590000,0.000257,3.014859,0.500014,-0.000103,0.070771,-0.025731,0.000253,-0.485599,0.176197,-0.000162,1.882259,-0.557801,-0.000519,-1.640710,-0.309996,0.999999,-0.000347,-0.000149,-0.000963,0.000076,0.000029,0.000195
4.600000,0.000256,3.015542,0.499765,-0.000101,0.066009,-0.023997,0.000251,-0.466860,0.170604,-0.000167,1.865275,-0.560617,-0.000592,-1.758998,-0.254209,0.999999,-0.000347,-0.000149,-0.000962,0.000074,0.000029,0.000190
4.610000,0.000255,3.016179,0.499534,-0.000098,0.061434,-0.022319,0.000250,-0.448297,0.164986,-0.000173,1.847106,-0.562865,-0.000668,-1.878572,-0.196913,0.999999,-0.000347,-0.000149,-0.000961,0.000072,0.000028,0.000186
4.620000,0.000254,3.016772,0.499319,-0.000096,0.057043,-0.020697,0.000248,-0.429922,0.159349,-0.000181,1.827666,-0.564567,-0.000803,-2.006303,-0.141665,0.999999,-0.000346,-0.000149,-0.000960,0.000070,0.000027,0.000181
4.630000,0.000253,3.017321,0.499120,-0.000094,0.052834,-0.019132,0.000246,-0.411748,0.153697,-0.000189,1.807049,-0.565657,-0.000803,-2.117214,-0.075935,0.999999,-0.000346,-0.000149,-0.000959,0.000069,0.000026,0.000177
4.640000,0.000253,3.017829,0.498936,-0.000091,0.048807,-0.017623,0.000244,-0.393785,0.148038,-0.000197,1.785245,-0.566117,-0.000949,-2.247296,-0.017661,0.999999,-0.000345,-0.000149,-0.000959,0.000067,0.000026,0.000172
4.650000,0.000252,3.018298,0.498767,-0.000089,0.044958,-0.016171,0.000242,-0.376047,0.142377,-0.000207,1.762134,-0.565991,-0.001056,-2.372328,0.044915,0.999999,-0.000345,-0.000148,-0.000958,0.000065,0.000025,0.000168
4.660000,0.000251,3.018729,0.498612,-0.000086,0.041285,-0.014776,0.000240,-0.358547,0.136720,-0.000218,1.737772,-0.565237,-0.001163,-2.499426,0.108459,0.999999,-0.000345,-0.000148,-0.000957,0.000063,0.000024,0.000163
4.670000,0.000250,3.019124,0.498471,-0.000084,0.037786,-0.013437,0.000238,-0.341296,0.131074,-0.000232,1.712149,-0.563795,-0.001470,-2.626249,0.177882,0.999999,-0.000345,-0.000148,-0.000956,0.000061,0.000024,0.000159
4.680000,0.000249,3.019485,0.498343,-0.000081,0.034458,-0.012154,0.000235,-0.324308,0.125446,-0.000245,1.685224,-0.561725,-0.001273,-2.759078,0.236350,0.999999,-0.000344,-0.000148,-0.000955,0.000060,0.000023,0.000154
4.690000,0.000248,3.019814,0.498228,-0.000079,0.031299,-0.010928,0.000233,-0.307596,0.119842,-0.000259,1.656982,-0.559016,-0.001583,-2.888493,0.308013,0.999999,-0.000344,-0.000148,-0.000955,0.000058,0.000022,0.000150
4.700000,0.000247,3.020111,0.498125,-0.000077,0.028306,-0.009757,0.000230,-0.291173,0.114268,-0.000276,1.627426,-0.555580,-0.001739,-3.022206,0.377054,0.999999,-0.000344,-0.000148,-0.000954,0.000056,0.000022,0.000145
4.710000,0.000247,3.020380,0.498033,-0.000075,0.025475,-0.008642,0.000227,-0.275052,0.108733,-0.000294,1.596497,-0.551456,-0.001906,-3.157336,0.447670,0.999999,-0.000343,-0.000148,-0.000953,0.000054,0.000021,0.000141
4.720000,0.000246,3.020621,0.497951,-0.000072,0.022803,-0.007583,0.000224,-0.259247,0.103242,-0.000315,1.564334,-0.546624,-0.002252,-3.281741,0.519217,0.999999,-0.000343,-0.000148,-0.000952,0.000053,0.000020,0.000136
4.730000,0.000245,3.020837,0.497881,-0.000070,0.020289,-0.006577,0.000221,-0.243770,0.097803,-0.000337,1.530724,-0.541062,-0.002172,-3.440820,0.593512,0.999999,-0.000343,-0.000148,-0.000952,0.000051,0.000020,0.000132
4.740000,0.000245,3.021028,0.497820,-0.000068,0.017927,-0.005626,0.000218,-0.228637,0.092423,-0.000360,1.495640,-0.534754,-0.002539,-3.569793,0.667957,0.999999,-0.000343,-0.000148,-0.000951,0.000049,0.000019,0.000128
4.750000,0.000244,3.021196,0.497768,-0.000066,0.015715,-0.004729,0.000214,-0.213862,0.087110,-0.000387,1.459282,-0.527694,-0.002780,-3.709952,0.744390,0.999999,-0.000342,-0.000147,-0.000950,0.000047,0.000018,0.000123
4.760000,0.000243,3.021343,0.497725,-0.000064,0.013648,-0.003884,0.000210,-0.199456,0.081872,-0.000416,1.421496,-0.519855,-0.003041,-3.851211,0.822366,0.999999,-0.000342,-0.000147,-0.000950,0.000045,0.000018,0.000119
4.770000,0.000243,3.021469,0.497690,-0.000061,0.011724,-0.003091,0.000206,-0.185437,0.076715,-0.000449,1.382217,-0.511254,-0.003482,-4.001084,0.899461,0.999999,-0.000342,-0.000147,-0.000949,0.000043,0.000017,0.000114
4.780000,0.000242,3.021577,0.497663,-0.000059,0.009938,-0.002349,0.000201,-0.171817,0.071649,-0.000484,1.341550,-0.501835,-0.003526,-4.132480,0.984448,0.999999,-0.000342,-0.000147,-0.000949,0.000041,0.000016,0.000110
4.790000,0.000241,3.021668,0.497643,-0.000057,0.008287,-0.001658,0.000196,-0.158610,0.066682,-0.000521,1.299487,-0.491584,-0.004005,-4.284149,1.064739,0.999999,-0.000341,-0.000147,-0.000948,0.000040,0.000015,0.000105
4.800000,0.000241,3.021744,0.497630,-0.000056,0.006765,-0.001015,0.000190,-0.145832,0.061820,-0.000564,1.255895,-0.480525,-0.004377,-4.430533,1.148558,0.999999,-0.000341,-0.000147,-0.000948,0.000038,0.000015,0.000101
4.810000,0.000240,3.021804,0.497623,-0.000054,0.005368,-0.000421,0.000185,-0.133497,0.057074,-0.000608,1.210838,-0.468606,-0.004762,-4.579046,1.234219,0.999999,-0.000341,-0.000147,-0.000947,0.000036,0.000014,0.000096
4.820000,0.000240,3.021851,0.497621,-0.000052,0.004093,0.000127,0.000178,-0.121620,0.052451,-0.000661,1.164321,-0.455842,-0.005588,-4.725931,1.319541,0.999999,-0.000341,-0.000147,-0.000947,0.000034,0.000013,0.000092
4.830000,0.000239,3.021886,0.497625,-0.000050,0.002934,0.000628,0.000171,-0.110216,0.047960,-0.000716,1.116286,-0.442192,-0.005353,-4.881253,1.410902,0.999999,-0.000341,-0.000147,-0.000946,0.000032,0.000013,0.000088
4.840000,0.000239,3.021910,0.497634,-0.000048,0.001887,0.001086,0.000164,-0.099300,0.043610,-0.000772,1.066720,-0.427637,-0.006215,-5.030882,1.499454,0.999999,-0.000341,-0.000147,-0.000946,0.000031,0.000012,0.000083
4.850000,0.000238,3.021925,0.497647,-0.000047,0.000947,0.001501,0.000156,-0.088887,0.039410,-0.000838,1.015650,-0.412191,-0.006764,-5.184274,1.590962,0.999999,-0.000340,-0.000147,-0.000945,0.000029,0.000011,0.000079
4.860000,0.000238,3.021930,0.497663,-0.000045,0.000108,0.001875,0.000147,-0.078992,0.035369,-0.000909,0.963036,-0.395817,-0.007373,-5.338693,1.683961,0.999999,-0.000340,-0.000147,-0.000945,0.000027,0.000011,0.000074
4.870000,0.000237,3.021927,0.497684,-0.000044,-0.000635,0.002209,0.000138,-0.069631,0.031497,-0.000986,0.908872,-0.378506,-0.008035,-5.494302,1.778485,0.999999,-0.000340,-0.000147,-0.000945,0.000025,0.000010,0.000070
4.880000,0.000237,3.021917,0.497707,-0.000043,-0.001287,0.002505,0.000127,-0.060820,0.027802,-0.001070,0.853147,-0.360242,-0.008751,-5.651015,1.874546,0.999999,-0.000340,-0.000147,-0.000944,0.000024,0.000009,0.000066
4.890000,0.000237,3.021902,0.497734,-0.000041,-0.001853,0.002766,0.000116,-0.052573,0.024295,-0.001161,0.795849,-0.341010,-0.009525,-5.808626,1.972168,0.999999,-0.000340,-0.000146,-0.000944,0.000022,0.000009,0.000061
4.900000,0.000236,3.021881,0.497763,-0.000040,-0.002340,0.002992,0.000104,-0.044908,0.020986,-0.001261,0.736960,-0.320795,-0.010359,-5.968260,2.071224,0.999999,-0.000340,-0.000146,-0.000944,0.000020,0.000008,0.000057
4.910000,0.000236,3.021855,0.497794,-0.000039,-0.002753,0.003186,0.000091,-0.037839,0.017883,-0.001369,0.676477,-0.299581,-0.011258,-6.128543,2.171867,0.999999,-0.000340,-0.000146,-0.000943,0.000019,0.000007,0.000052
4.920000,0.000235,3.021826,0.497826,-0.000038,-0.003099,0.003350,0.000077,-0.031384,0.014997,-0.001486,0.614385,-0.277353,-0.012224,-6.289944,2.274044,0.999999,-0.000340,-0.000146,-0.000943,0.000017,0.000007,0.000048
4.930000,0.000235,3.021793,0.497861,-0.000038,-0.003383,0.003487,0.000061,-0.025557,0.012339,-0.001613,0.550674,-0.254095,-0.013261,-6.452412,2.377754,0.999999,-0.000340,-0.000146,-0.000943,0.000015,0.000006,0.000043
4.940000,0.000235,3.021758,0.497896,-0.000037,-0.003612,0.003598,0.000044,-0.020376,0.009919,-0.001751,0.485334,-0.229792,-0.014371,-6.615830,2.482991,0.999999,-0.000339,-0.000146,-0.000943,0.000014,0.000005,0.000039
4.950000,0.000234,3.021721,0.497932,-0.000037,-0.003793,0.003686,0.000026,-0.015856,0.007747,-0.001901,0.418349,-0.204429,-0.015558,-6.780772,2.589820,0.999999,-0.000339,-0.000146,-0.000943,0.000012,0.000005,0.000035
4.960000,0.000234,3.021683,0.497970,-0.000037,-0.003932,0.003754,0.000006,-0.012014,0.005834,-0.002063,0.349713,-0.177991,-0.016825,-6.946524,2.698165,0.999999,-0.000339,-0.000146,-0.000942,0.000011,0.000004,0.000030
4.970000,0.000234,3.021643,0.498007,-0.000037,-0.004035,0.003804,-0.000015,-0.008867,0.004191,-0.002238,0.279415,-0.150461,-0.018175,-7.113338,2.808060,0.999999,-0.000339,-0.000146,-0.000942,0.000009,0.000003,0.000026
4.980000,0.000233,3.021602,0.498046,-0.000037,-0.004111,0.003839,-0.000038,-0.006432,0.002828,-0.002427,0.207443,-0.121824,-0.019611,-7.281247,2.919516,0.999999,-0.000339,-0.000146,-0.000942,0.000008,0.000003,0.000021
4.990000,0.000233,3.021560,0.498084,-0.000037,-0.004166,0.003861,-0.000064,-0.004724,0.001758,-0.002630,0.133786,-0.092065,-0.021136,-7.450335,3.032559,0.999999,-0.000339,-0.000146,-0.000942,0.000007,0.000002,0.000017
5.000000,0.000232,3.021519,0.498123,-0.000038,-0.004208,0.003875,-0.000091,-0.003761,0.000991,-0.002850,0.058432,-0.061168,-0.022754,-7.620730,3.147228,0.999999,-0.000339,-0.000146,-0.000942,0.000006,0.000002,0.000012
