time,x,y,z,vx,vy,vz,ax,ay,az,jx,jy,jz,sx,sy,sz,roll,pitch,yaw,p,q,r
0.000000,-3.027482,-0.688217,-1.391037,-0.021481,-0.005047,0.012172,1.031625,-0.281629,-0.255310,-16.504028,4.706115,7.666353,298.475372,-61.530493,-180.390582,-0.027827,-0.102136,0.000000,0.439172,1.544797,0.000000
0.010000,-3.027648,-0.688281,-1.390927,-0.011942,-0.007638,0.009974,0.880925,-0.237524,-0.187199,-13.693250,4.126490,6.001502,264.156981,-54.494227,-153.061955,-0.023663,-0.087890,0.000000,0.394018,1.306299,-0.000000
0.020000,-3.027725,-0.688369,-1.390836,-0.003774,-0.009816,0.008377,0.756663,-0.198874,-0.134417,-11.211558,3.614278,4.595714,232.637704,-48.043519,-128.553378,-0.019938,-0.075943,0.000000,0.351397,1.085755,-0.000000
0.030000,-3.027727,-0.688476,-1.390758,0.003269,-0.011632,0.007242,0.655688,-0.165033,-0.094512,-9.031577,3.163754,3.421527,203.794283,-42.152392,-106.717036,-0.016625,-0.066104,0.000000,0.311924,0.884994,0.000000
0.040000,-3.027663,-0.688600,-1.390690,0.009407,-0.013131,0.006451,0.575113,-0.135412,-0.065301,-7.127164,2.769452,2.452958,177.503433,-36.794860,-87.405111,-0.013688,-0.058172,0.000000,0.275954,0.704794,-0.000000
0.050000,-3.027541,-0.688738,-1.390628,0.014831,-0.014352,0.005907,0.512309,-0.109474,-0.044850,-5.473411,2.426165,1.665502,153.641914,-31.944941,-70.469862,-0.011093,-0.051939,0.000000,0.243639,0.545110,-0.000000
0.060000,-3.027368,-0.688886,-1.390571,0.019705,-0.015331,0.005531,0.464889,-0.086735,-0.031464,-4.046639,2.128948,1.036131,132.086475,-27.576677,-55.763383,-0.008803,-0.047203,0.000000,0.214971,0.405289,0.000000
0.070000,-3.027148,-0.689044,-1.390517,0.024173,-0.016096,0.005259,0.430695,-0.066757,-0.023672,-2.824405,1.873113,0.543298,112.713846,-23.664083,-43.137898,-0.006782,-0.043770,0.000000,0.189829,0.284246,-0.000000
0.080000,-3.026886,-0.689208,-1.390465,0.028356,-0.016674,0.005043,0.407790,-0.049150,-0.020210,-1.785497,1.654234,0.166930,95.400779,-20.181191,-32.445580,-0.004996,-0.041460,0.000000,0.168010,0.180616,-0.000000
0.090000,-3.026582,-0.689377,-1.390416,0.032360,-0.017086,0.004844,0.394441,-0.033563,-0.020007,-0.909935,1.468143,-0.111565,80.024063,-17.102055,-23.538564,-0.003412,-0.040105,0.000000,0.149257,0.092872,-0.000000
0.100000,-3.026239,-0.689549,-1.390369,0.036272,-0.017351,0.004635,0.389109,-0.019691,-0.022172,-0.178974,1.310935,-0.309302,66.460242,-14.400519,-16.269295,-0.002001,-0.039554,0.000000,0.133288,0.019417,0.000000
0.110000,-3.025857,-0.689723,-1.390323,0.040165,-0.017485,0.004395,0.390438,-0.007261,-0.025977,0.424902,1.178961,-0.441917,54.586267,-12.050816,-10.489672,-0.000738,-0.039674,0.000000,0.119802,-0.041350,0.000000
0.120000,-3.025435,-0.689898,-1.390281,0.044099,-0.017500,0.004112,0.397238,0.003961,-0.030841,0.917973,1.068833,-0.523569,44.278801,-10.026891,-6.051987,0.000402,-0.040344,0.000000,0.108501,-0.090986,-0.000000
0.130000,-3.024974,-0.690073,-1.390241,0.048124,-0.017409,0.003777,0.408478,0.014178,-0.036321,1.315289,0.977424,-0.566938,35.414542,-8.302758,-2.808451,0.001439,-0.041462,0.000000,0.099092,-0.130968,0.000000
0.140000,-3.024472,-0.690246,-1.390206,0.052280,-0.017219,0.003385,0.423271,0.023563,-0.042090,1.630664,0.901865,-0.583226,27.870098,-6.852416,-0.611311,0.002389,-0.042936,0.000000,0.091297,-0.162670,-0.000000
0.150000,-3.023928,-0.690417,-1.390174,0.056599,-0.016940,0.002935,0.440860,0.032260,-0.047927,1.876678,0.839549,-0.582159,21.521910,-5.649837,0.687121,0.003269,-0.044692,0.000000,0.084858,-0.187356,0.000000
0.160000,-3.023340,-0.690585,-1.390147,0.061105,-0.016576,0.002426,0.460611,0.040390,-0.053703,2.064702,0.788125,-0.571976,16.248901,-4.669442,1.235636,0.004090,-0.046664,0.000000,0.079537,-0.206164,-0.000000
0.170000,-3.022705,-0.690748,-1.390126,0.065816,-0.016134,0.001861,0.481995,0.048052,-0.059359,2.204831,0.745506,-0.559453,11.925109,-3.884751,1.180814,0.004863,-0.048799,0.000000,0.075118,-0.220106,-0.000000
0.180000,-3.022023,-0.690907,-1.390110,0.070748,-0.015616,0.001239,0.504578,0.055323,-0.064902,2.305960,0.709863,-0.549876,8.428258,-3.269980,0.670926,0.005595,-0.051053,0.000000,0.071412,-0.230068,-0.000000
0.190000,-3.021290,-0.691060,-1.390101,0.075911,-0.015028,0.000563,0.528010,0.062267,-0.070379,2.375742,0.679627,-0.547058,5.635080,-2.799172,-0.146194,0.006293,-0.053389,0.000000,0.068257,-0.236811,0.000000
0.200000,-3.020504,-0.691207,-1.390099,0.081311,-0.014372,-0.000168,0.552010,0.068929,-0.075873,2.420598,0.653487,-0.553332,3.422448,-2.446252,-1.122787,0.006962,-0.055780,0.000000,0.065514,-0.240972,-0.000000
0.210000,-3.019663,-0.691348,-1.390104,0.086951,-0.013650,-0.000953,0.576006,0.075423,-0.080803,2.365655,0.647763,-0.414892,0.084332,-1.842021,0.946259,0.007612,-0.058171,0.000000,0.064953,-0.235927,0.000000
0.220000,-3.018764,-0.691480,-1.390118,0.092832,-0.012864,-0.001785,0.600391,0.081649,-0.086366,2.556314,0.587592,-0.790721,24.114795,-7.168711,-49.074110,0.008235,-0.060594,0.000000,0.058477,-0.252523,0.000000
0.230000,-3.017805,-0.691605,-1.390140,0.098965,-0.012019,-0.002693,0.626390,0.087332,-0.095292,2.555255,0.567906,-0.828641,-24.711092,3.315807,42.340559,0.008799,-0.063154,0.000000,0.056339,-0.251662,-0.000000
0.240000,-3.016784,-0.691720,-1.390172,0.105353,-0.011117,-0.003680,0.650692,0.093178,-0.101473,2.346199,0.592290,-0.490744,-2.925844,-1.513129,-2.050586,0.009381,-0.065556,0.000000,0.059017,-0.232453,-0.000000
0.250000,-3.015697,-0.691827,-1.390214,0.111978,-0.010156,-0.004722,0.674362,0.098947,-0.107199,2.377595,0.563502,-0.637799,-4.839892,-1.196779,-0.149829,0.009954,-0.067895,0.000000,0.055885,-0.234276,-0.000000
0.260000,-3.014543,-0.691923,-1.390267,0.118839,-0.009139,-0.005826,0.697773,0.104547,-0.113581,2.300193,0.557280,-0.638300,-6.127764,-1.014082,0.016154,0.010509,-0.070199,0.000000,0.055170,-0.226137,-0.000000
0.270000,-3.013320,-0.692009,-1.390331,0.125931,-0.008066,-0.006994,0.720690,0.110020,-0.119962,2.296888,0.534261,-0.637802,1.152745,-2.665166,0.112595,0.011050,-0.072450,0.000000,0.052765,-0.225446,-0.000000
0.280000,-3.012024,-0.692084,-1.390407,0.133253,-0.006939,-0.008225,0.743475,0.115279,-0.126331,2.232598,0.523405,-0.635436,-14.120203,0.517783,0.359910,0.011569,-0.074685,0.000000,0.051593,-0.218666,0.000000
0.290000,-3.010654,-0.692148,-1.390496,0.140797,-0.005760,-0.009520,0.765090,0.120539,-0.132665,2.102863,0.525682,-0.631259,-7.418089,-1.006932,0.442646,0.012087,-0.076799,0.000000,0.051749,-0.205382,-0.000000
0.300000,-3.009207,-0.692200,-1.390598,0.148552,-0.004528,-0.010878,0.785857,0.125721,-0.138954,2.047406,0.511159,-0.626352,-8.026499,-0.964931,0.568287,0.012597,-0.078825,0.000000,0.050219,-0.199557,0.000000
0.310000,-3.007682,-0.692238,-1.390713,0.156511,-0.003246,-0.012299,0.805872,0.130794,-0.145188,1.953682,0.503635,-0.620364,-8.492524,-0.960249,0.675983,0.013095,-0.080774,0.000000,0.049399,-0.189942,-0.000000
0.320000,-3.006076,-0.692264,-1.390844,0.164666,-0.001913,-0.013782,0.825096,0.135759,-0.151354,1.898197,0.488046,-0.612441,-4.733769,-1.756127,0.861796,0.013581,-0.082641,0.000000,0.047776,-0.184183,-0.000000
0.330000,-3.004388,-0.692277,-1.390989,0.173011,-0.000531,-0.015326,0.843725,0.140572,-0.157436,1.814267,0.476947,-0.604108,-12.106646,-0.453863,0.801676,0.014052,-0.084447,0.000000,0.046610,-0.175613,0.000000
0.340000,-3.002616,-0.692275,-1.391151,0.181537,0.000898,-0.016930,0.861262,0.145318,-0.163436,1.699663,0.470727,-0.595522,-8.639279,-1.201249,0.959728,0.014515,-0.086142,0.000000,0.045941,-0.164022,-0.000000
0.350000,-3.000757,-0.692258,-1.391328,0.190233,0.002375,-0.018594,0.877884,0.149953,-0.169340,1.623298,0.456345,-0.585327,-8.782355,-1.270257,1.032035,0.014967,-0.087744,0.000000,0.044459,-0.156279,0.000000
0.360000,-2.998810,-0.692227,-1.391523,0.199092,0.003897,-0.020317,0.893651,0.154455,-0.175141,1.529487,0.444105,-0.574796,-8.860686,-1.358359,1.096223,0.015406,-0.089260,0.000000,0.043200,-0.146831,-0.000000
0.370000,-2.996775,-0.692180,-1.391735,0.208104,0.005463,-0.022097,0.908562,0.158817,-0.180832,1.456453,0.427499,-0.563212,-6.817818,-1.791513,1.196567,0.015830,-0.090690,0.000000,0.041510,-0.139481,-0.000000
0.380000,-2.994648,-0.692118,-1.391965,0.217261,0.007073,-0.023933,0.922730,0.163010,-0.186405,1.370614,0.411876,-0.551369,-10.377917,-1.329244,1.170149,0.016236,-0.092045,0.000000,0.039926,-0.130887,0.000000
0.390000,-2.992429,-0.692039,-1.392213,0.226555,0.008723,-0.025825,0.935919,0.167060,-0.191859,1.270814,0.397382,-0.539371,-8.488772,-1.745758,1.251397,0.016629,-0.093303,0.000000,0.038462,-0.120936,0.000000
0.400000,-2.990116,-0.691943,-1.392481,0.235976,0.010413,-0.027770,0.948234,0.170939,-0.197189,1.191672,0.378418,-0.526555,-8.419751,-1.873877,1.287422,0.017004,-0.094473,0.000000,0.036558,-0.113064,-0.000000
0.410000,-2.987709,-0.691830,-1.392769,0.245517,0.012141,-0.029768,0.959718,0.174629,-0.202390,1.105178,0.359374,-0.513550,-8.320576,-2.011584,1.318170,0.017360,-0.095561,0.000000,0.034654,-0.104489,-0.000000
0.420000,-2.985206,-0.691700,-1.393077,0.255168,0.013905,-0.031817,0.970386,0.178116,-0.207459,1.030431,0.337470,-0.500158,-7.164629,-2.296699,1.353829,0.017696,-0.096568,0.000000,0.032471,-0.097100,0.000000
0.430000,-2.982605,-0.691552,-1.393406,0.264922,0.015703,-0.033917,0.980306,0.181377,-0.212393,0.950627,0.314963,-0.486603,-8.810530,-2.203301,1.356321,0.018009,-0.097501,0.000000,0.030235,-0.089233,-0.000000
0.440000,-2.979907,-0.691386,-1.393755,0.274771,0.017532,-0.036065,0.989375,0.184414,-0.217191,0.865162,0.291905,-0.472938,-7.736799,-2.482943,1.381420,0.018300,-0.098351,0.000000,0.027952,-0.080827,0.000000
0.450000,-2.977110,-0.691201,-1.394127,0.284707,0.019390,-0.038260,0.997658,0.187204,-0.221851,0.791307,0.265921,-0.459036,-7.574620,-2.640719,1.393137,0.018567,-0.099123,0.000000,0.025383,-0.073588,0.000000
0.460000,-2.974212,-0.690998,-1.394521,0.294722,0.021275,-0.040501,1.005189,0.189730,-0.226371,0.715040,0.238869,-0.445024,-7.399827,-2.802618,1.402441,0.018808,-0.099822,0.000000,0.022715,-0.066129,0.000000
0.470000,-2.971215,-0.690776,-1.394937,0.304808,0.023184,-0.042787,1.011987,0.191974,-0.230751,0.645887,0.209562,-0.431055,-6.698907,-3.027583,1.397025,0.019021,-0.100449,0.000000,0.019828,-0.059386,0.000000
0.480000,-2.968116,-0.690534,-1.395377,0.314959,0.025114,-0.045116,1.018100,0.193917,-0.234992,0.575426,0.178972,-0.416965,-7.400886,-3.089585,1.420624,0.019204,-0.101009,0.000000,0.016821,-0.052528,-0.000000
0.490000,-2.964916,-0.690273,-1.395840,0.325168,0.027061,-0.047486,1.023488,0.195549,-0.239090,0.503332,0.147129,-0.402772,-6.745513,-3.310998,1.411661,0.019357,-0.101499,0.000000,0.013695,-0.045524,-0.000000
0.500000,-2.961613,-0.689993,-1.396327,0.335427,0.029024,-0.049897,1.028195,0.196851,-0.243047,0.438234,0.113021,-0.388685,-6.546233,-3.479008,1.411443,0.019477,-0.101923,0.000000,0.010349,-0.039220,0.000000
0.510000,-2.958207,-0.689693,-1.396838,0.345730,0.030997,-0.052347,1.032251,0.197805,-0.246864,0.373188,0.077495,-0.374523,-6.341092,-3.646811,1.410641,0.019563,-0.102283,0.000000,0.006868,-0.032932,-0.000000
0.520000,-2.954698,-0.689373,-1.397374,0.356070,0.032978,-0.054834,1.035675,0.198394,-0.250539,0.312538,0.039898,-0.360567,-5.906508,-3.852516,1.390126,0.019614,-0.102583,0.000000,0.003186,-0.027084,0.000000
0.530000,-2.951085,-0.689033,-1.397935,0.366441,0.034964,-0.057357,1.038503,0.198598,-0.254074,0.252586,0.000866,-0.346516,-6.087476,-3.952964,1.420371,0.019627,-0.102825,0.000000,-0.000633,-0.021314,0.000000
0.540000,-2.947369,-0.688674,-1.398521,0.376838,0.036949,-0.059915,1.040728,0.198407,-0.257469,0.193178,-0.039560,-0.332358,-5.674787,-4.152034,1.401344,0.019601,-0.103009,0.000000,-0.004586,-0.015606,0.000000
0.550000,-2.943549,-0.688294,-1.399133,0.387254,0.038931,-0.062506,1.042383,0.197800,-0.260723,0.138079,-0.081997,-0.318402,-5.463551,-4.315011,1.399604,0.019534,-0.103139,0.000000,-0.008734,-0.010326,-0.000000
0.560000,-2.939624,-0.687895,-1.399771,0.397684,0.040904,-0.065129,1.043493,0.196762,-0.263836,0.084271,-0.125919,-0.304309,-5.249956,-4.476027,1.400011,0.019426,-0.103216,0.000000,-0.013025,-0.005180,0.000000
0.570000,-2.935595,-0.687476,-1.400436,0.408122,0.042864,-0.067782,1.044079,0.195276,-0.266810,0.033523,-0.171573,-0.290575,-4.946490,-4.647323,1.365509,0.019273,-0.103244,0.000000,-0.017486,-0.000335,-0.000000
0.580000,-2.931461,-0.687038,-1.401127,0.418563,0.044808,-0.070465,1.044168,0.193326,-0.269647,-0.015642,-0.218711,-0.276602,-4.888119,-4.779406,1.430078,0.019075,-0.103224,0.000000,-0.022090,0.004347,0.000000
0.590000,-2.927224,-0.686580,-1.401845,0.429004,0.046729,-0.073175,1.043771,0.190897,-0.272341,-0.063297,-0.267287,-0.262346,-4.595719,-4.942051,1.402568,0.018831,-0.103157,0.000000,-0.026833,0.008875,-0.000000
0.600000,-2.922881,-0.686103,-1.402590,0.439437,0.048624,-0.075911,1.042913,0.187974,-0.274895,-0.107962,-0.317478,-0.248383,-4.384630,-5.088636,1.409113,0.018538,-0.103047,0.000000,-0.031734,0.013110,0.000000
0.610000,-2.918435,-0.685608,-1.403363,0.449860,0.050487,-0.078672,1.041617,0.184543,-0.277308,-0.150963,-0.369057,-0.234179,-4.175550,-5.230618,1.417860,0.018196,-0.102895,0.000000,-0.036771,0.017177,0.000000
0.620000,-2.913884,-0.685094,-1.404164,0.460268,0.052313,-0.081457,1.039904,0.180588,-0.279579,-0.191094,-0.422119,-0.220161,-3.890985,-5.376227,1.400872,0.017802,-0.102705,0.000000,-0.041953,0.020963,0.000000
0.630000,-2.909230,-0.684562,-1.404992,0.470657,0.054097,-0.084263,1.037800,0.176096,-0.281710,-0.229630,-0.476465,-0.205841,-3.817790,-5.492024,1.464022,0.017356,-0.102477,0.000000,-0.047262,0.024588,0.000000
0.640000,-2.904471,-0.684012,-1.405849,0.481023,0.055833,-0.087090,1.035316,0.171055,-0.283695,-0.266643,-0.532033,-0.191171,-3.544664,-5.625049,1.455605,0.016857,-0.102213,0.000000,-0.052690,0.028060,-0.000000
0.650000,-2.899609,-0.683445,-1.406734,0.491362,0.057516,-0.089937,1.032477,0.165451,-0.285534,-0.300864,-0.588906,-0.176588,-3.341091,-5.743741,1.475973,0.016302,-0.101916,0.000000,-0.058248,0.031259,0.000000
0.660000,-2.894644,-0.682862,-1.407648,0.501671,0.059140,-0.092801,1.029305,0.159273,-0.287225,-0.333312,-0.646820,-0.161676,-3.138022,-5.854051,1.499420,0.015691,-0.101588,0.000000,-0.063910,0.034282,0.000000
0.670000,-2.889576,-0.682263,-1.408590,0.511947,0.060700,-0.095681,1.025819,0.152510,-0.288767,-0.363532,-0.706112,-0.146659,-2.916520,-5.987407,1.511949,0.015023,-0.101231,0.000000,-0.069708,0.037086,0.000000
0.680000,-2.884405,-0.681648,-1.409562,0.522187,0.062188,-0.098575,1.022040,0.145149,-0.290157,-0.391864,-0.766213,-0.131267,-2.750624,-6.030983,1.567406,0.014297,-0.100847,0.000000,-0.075589,0.039702,0.000000
0.690000,-2.879132,-0.681019,-1.410562,0.532387,0.063601,-0.101483,1.017987,0.137183,-0.291391,-0.418339,-0.827023,-0.115450,-2.534039,-6.145537,1.589089,0.013511,-0.100438,0.000000,-0.081542,0.042134,-0.000000
0.700000,-2.873758,-0.680376,-1.411591,0.542546,0.064930,-0.104403,1.013681,0.128604,-0.292466,-0.442647,-0.888963,-0.099407,-2.337370,-6.225062,1.627645,0.012666,-0.100005,0.000000,-0.087609,0.044353,0.000000
0.710000,-2.868281,-0.679721,-1.412650,0.552660,0.066171,-0.107332,1.009141,0.119402,-0.293377,-0.465010,-0.951530,-0.082843,-2.140570,-6.295942,1.671550,0.011759,-0.099551,0.000000,-0.093742,0.046378,0.000000
0.720000,-2.862704,-0.679053,-1.413738,0.562728,0.067316,-0.110270,1.004387,0.109570,-0.294122,-0.485512,-1.014934,-0.066095,-1.955133,-6.374707,1.692844,0.010791,-0.099078,0.000000,-0.099962,0.048222,-0.000000
0.730000,-2.857027,-0.678375,-1.414855,0.572747,0.068360,-0.113214,0.999437,0.099102,-0.294697,-0.504010,-1.078811,-0.048678,-1.744499,-6.398735,1.791770,0.009760,-0.098588,0.000000,-0.106234,0.049865,0.000000
0.740000,-2.851250,-0.677687,-1.416002,0.582716,0.069296,-0.116163,0.994313,0.087993,-0.295093,-0.520511,-1.143054,-0.030527,-1.561113,-6.457012,1.825020,0.008666,-0.098082,0.000000,-0.112547,0.051308,-0.000000
0.750000,-2.845373,-0.676989,-1.417179,0.592633,0.070118,-0.119115,0.989033,0.076239,-0.295307,-0.535194,-1.207844,-0.012043,-1.370587,-6.490623,1.886741,0.007508,-0.097562,0.000000,-0.118921,0.052573,0.000000
0.760000,-2.839397,-0.676285,-1.418385,0.602496,0.070819,-0.122069,0.983616,0.063836,-0.295331,-0.547933,-1.272844,0.007212,-1.181532,-6.514025,1.953627,0.006287,-0.097031,0.000000,-0.125323,0.053643,0.000000
0.770000,-2.833323,-0.675573,-1.419620,0.612305,0.071392,-0.125021,0.978080,0.050781,-0.295161,-0.558868,-1.338147,0.026940,-1.001811,-6.538759,2.003940,0.005002,-0.096490,0.000000,-0.131763,0.054536,0.000000
0.780000,-2.827151,-0.674857,-1.420885,0.622058,0.071832,-0.127971,0.972445,0.037073,-0.294790,-0.567892,-1.403457,0.047539,-0.803078,-6.521224,2.117011,0.003652,-0.095941,0.000000,-0.138213,0.055236,-0.000000
0.790000,-2.820882,-0.674137,-1.422180,0.631753,0.072131,-0.130916,0.966729,0.022712,-0.294207,-0.575017,-1.468658,0.069072,-0.626355,-6.523258,2.179199,0.002238,-0.095386,0.000000,-0.144662,0.055744,0.000000
0.800000,-2.814516,-0.673415,-1.423503,0.641392,0.072284,-0.133855,0.960950,0.007699,-0.293406,-0.580380,-1.533833,0.091239,-0.443706,-6.503766,2.265591,0.000759,-0.094826,0.000000,-0.151120,0.056078,0.000000
0.810000,-2.808055,-0.672692,-1.424857,0.650972,0.072283,-0.136784,0.955128,-0.007963,-0.292379,-0.583791,-1.598687,0.114394,-0.261208,-6.472481,2.357042,-0.000785,-0.094265,0.000000,-0.157559,0.056214,0.000000
0.820000,-2.801497,-0.671970,-1.426239,0.660494,0.072123,-0.139701,0.949279,-0.024274,-0.291116,-0.585816,-1.663312,0.138311,-0.122423,-6.443521,2.436158,-0.002393,-0.093702,0.000000,-0.163988,0.056212,0.000000
0.830000,-2.794845,-0.671250,-1.427651,0.669958,0.071796,-0.142605,0.943419,-0.041228,-0.289609,-0.585792,-1.727366,0.163322,0.127604,-6.364939,2.567105,-0.004064,-0.093141,0.000000,-0.170376,0.056002,-0.000000
0.840000,-2.788098,-0.670535,-1.429091,0.679363,0.071296,-0.145493,0.937570,-0.058819,-0.287846,-0.583709,-1.790718,0.189488,0.266661,-6.310712,2.657929,-0.005800,-0.092583,0.000000,-0.176710,0.055583,0.000000
0.850000,-2.781258,-0.669825,-1.430560,0.688709,0.070617,-0.148361,0.931749,-0.077040,-0.285816,-0.580280,-1.853478,0.216574,0.440670,-6.232056,2.768987,-0.007598,-0.092030,0.000000,-0.183003,0.055027,0.000000
0.860000,-2.774324,-0.669123,-1.432058,0.697998,0.069753,-0.151208,0.925970,-0.095885,-0.283510,-0.575206,-1.915273,0.244928,0.605884,-6.139075,2.886268,-0.009460,-0.091483,0.000000,-0.189219,0.054302,0.000000
0.870000,-2.767298,-0.668430,-1.433584,0.707229,0.068697,-0.154030,0.920252,-0.115343,-0.280915,-0.567908,-1.976331,0.274166,0.824585,-6.057891,2.977882,-0.011383,-0.090945,0.000000,-0.195382,0.053354,0.000000
0.880000,-2.760180,-0.667750,-1.435139,0.716403,0.067444,-0.156825,0.914616,-0.135407,-0.278021,-0.559325,-2.036127,0.304833,0.890562,-5.898939,3.156774,-0.013367,-0.090416,0.000000,-0.201443,0.052271,0.000000
0.890000,-2.752970,-0.667082,-1.436721,0.725522,0.065987,-0.159590,0.909070,-0.156061,-0.274813,-0.549526,-2.094517,0.336997,1.097680,-5.789449,3.260919,-0.015411,-0.089899,0.000000,-0.207388,0.051057,0.000000
0.900000,-2.745670,-0.666431,-1.438330,0.734585,0.064321,-0.162320,0.903633,-0.177294,-0.271278,-0.537618,-2.151764,0.370205,1.253686,-5.645424,3.396877,-0.017514,-0.089396,0.000000,-0.213245,0.049630,0.000000
0.910000,-2.738279,-0.665797,-1.439967,0.743595,0.062440,-0.165014,0.898322,-0.199091,-0.267404,-0.524356,-2.207394,0.404983,1.407459,-5.487947,3.538424,-0.019676,-0.088907,0.000000,-0.218969,0.048059,0.000000
0.920000,-2.730798,-0.665182,-1.441631,0.752552,0.060337,-0.167667,0.893151,-0.221437,-0.263176,-0.509394,-2.261567,0.440794,1.575697,-5.335003,3.644818,-0.021893,-0.088435,0.000000,-0.224577,0.046314,-0.000000
0.930000,-2.723228,-0.664591,-1.443320,0.761458,0.058009,-0.170276,0.888138,-0.244316,-0.258582,-0.493037,-2.313854,0.478322,1.694968,-5.119904,3.862152,-0.024167,-0.087981,0.000000,-0.230029,0.044419,0.000000
0.940000,-2.715569,-0.664023,-1.445036,0.770315,0.055449,-0.172838,0.883295,-0.267707,-0.253603,-0.475323,-2.364108,0.517636,1.856320,-4.937906,3.980619,-0.026493,-0.087547,0.000000,-0.235313,0.042376,0.000000
0.950000,-2.707822,-0.663482,-1.446777,0.779125,0.052653,-0.175347,0.878637,-0.291592,-0.248226,-0.456000,-2.412488,0.558123,1.999628,-4.726382,4.137812,-0.028872,-0.087134,0.000000,-0.240446,0.040165,-0.000000
0.960000,-2.699987,-0.662971,-1.448543,0.787889,0.049616,-0.177801,0.874180,-0.315949,-0.242434,-0.435169,-2.458603,0.600445,2.143702,-4.500869,4.299996,-0.031302,-0.086744,0.000000,-0.245391,0.037791,0.000000
0.970000,-2.692064,-0.662491,-1.450333,0.796609,0.046333,-0.180194,0.869937,-0.340757,-0.236213,-0.413340,-2.502520,0.643885,2.243353,-4.273886,4.414673,-0.033780,-0.086378,0.000000,-0.250156,0.035309,0.000000
0.980000,-2.684054,-0.662045,-1.452146,0.805288,0.042799,-0.182524,0.865919,-0.365991,-0.229550,-0.389854,-2.543899,0.689299,2.454163,-3.999311,4.669343,-0.036304,-0.086038,0.000000,-0.254710,0.032645,0.000000
0.990000,-2.675958,-0.661636,-1.453983,0.813928,0.039012,-0.184784,0.862146,-0.391626,-0.222420,-0.364705,-2.582590,0.736748,2.553186,-3.743070,4.794500,-0.038873,-0.085725,0.000000,-0.259043,0.029799,-0.000000
1.000000,-2.667776,-0.661266,-1.455842,0.822532,0.034966,-0.186970,0.858628,-0.417634,-0.214811,-0.338617,-2.618657,0.785423,2.686327,-3.461648,4.966785,-0.041484,-0.085442,0.000000,-0.263159,0.026847,0.000000
1.010000,-2.659508,-0.660937,-1.457722,0.831102,0.030658,-0.189078,0.855378,-0.443989,-0.206705,-0.311107,-2.651718,0.836145,2.815404,-3.164731,5.142797,-0.044135,-0.085188,0.000000,-0.267025,0.023734,0.000000
1.020000,-2.651154,-0.660653,-1.459623,0.839640,0.026085,-0.191103,0.852410,-0.470660,-0.198085,-0.282317,-2.682056,0.887960,2.941884,-2.884519,5.254341,-0.046824,-0.084967,0.000000,-0.270667,0.020481,-0.000000
1.030000,-2.642715,-0.660416,-1.461544,0.848151,0.021244,-0.193038,0.849736,-0.497619,-0.188938,-0.252282,-2.709026,0.941949,3.064580,-2.506452,5.544677,-0.049548,-0.084779,0.000000,-0.274028,0.017081,-0.000000
1.040000,-2.634191,-0.660229,-1.463484,0.856636,0.016132,-0.194880,0.847368,-0.524829,-0.179238,-0.221032,-2.732462,0.998165,3.185186,-2.194677,5.664117,-0.052304,-0.084626,0.000000,-0.277094,0.013535,0.000000
1.050000,-2.625582,-0.660095,-1.465441,0.865099,0.010746,-0.196621,0.845319,-0.552258,-0.168972,-0.188598,-2.752735,1.055517,3.301742,-1.841444,5.841045,-0.055089,-0.084508,0.000000,-0.279897,0.009854,-0.000000
1.060000,-2.616889,-0.660015,-1.467416,0.873544,0.005086,-0.198257,0.843600,-0.579870,-0.158121,-0.154955,-2.769217,1.114991,3.416537,-1.472923,6.018777,-0.057900,-0.084429,0.000000,-0.282382,0.006025,-0.000000
1.070000,-2.608112,-0.659994,-1.469406,0.881972,-0.000852,-0.199782,0.842223,-0.607631,-0.146669,-0.120370,-2.782335,1.175569,3.509364,-1.128603,6.130136,-0.060736,-0.084388,0.000000,-0.284588,0.002083,-0.000000
1.080000,-2.599250,-0.660033,-1.471411,0.890389,-0.007067,-0.201189,0.841197,-0.635503,-0.134602,-0.084576,-2.791327,1.238290,3.649247,-0.666893,6.414633,-0.063591,-0.084387,0.000000,-0.286445,-0.002010,0.000000
1.090000,-2.590304,-0.660136,-1.473429,0.898798,-0.013562,-0.202472,0.840535,-0.663443,-0.121895,-0.047593,-2.796027,1.303173,3.736960,-0.290915,6.527452,-0.066463,-0.084429,0.000000,-0.287940,-0.006254,-0.000000
1.100000,-2.581274,-0.660305,-1.475460,0.907201,-0.020336,-0.203624,0.840248,-0.691411,-0.108536,-0.009766,-2.796931,1.369111,3.837551,0.132430,6.693666,-0.069349,-0.084513,0.000000,-0.289114,-0.010607,-0.000000
1.110000,-2.572160,-0.660544,-1.477501,0.915604,-0.027390,-0.204640,0.840341,-0.719367,-0.094505,0.028564,-2.793452,1.437343,3.923162,0.567761,6.862978,-0.072244,-0.084642,0.000000,-0.289920,-0.015049,0.000000
1.120000,-2.562962,-0.660854,-1.479552,0.924009,-0.034723,-0.205512,0.840830,-0.747266,-0.079790,0.069563,-2.785513,1.505535,4.183430,1.020319,6.860572,-0.075146,-0.084816,0.000000,-0.290331,-0.019777,0.000000
1.130000,-2.553680,-0.661239,-1.481611,0.932422,-0.042335,-0.206234,0.841731,-0.775062,-0.064385,0.110281,-2.773044,1.576340,3.956757,1.475444,7.301911,-0.078050,-0.085038,0.000000,-0.290362,-0.024523,-0.000000
1.140000,-2.544313,-0.661702,-1.483676,0.940845,-0.050224,-0.206797,0.843033,-0.802711,-0.048254,0.150559,-2.755919,1.649804,4.191831,1.953854,7.302567,-0.080952,-0.085308,0.000000,-0.290003,-0.029273,0.000000
1.150000,-2.534863,-0.662245,-1.485746,0.949284,-0.058389,-0.207196,0.844752,-0.830164,-0.031391,0.193315,-2.733941,1.723093,4.266109,2.441757,7.440862,-0.083848,-0.085627,0.000000,-0.289207,-0.034297,0.000000
1.160000,-2.525328,-0.662871,-1.487820,0.957742,-0.066826,-0.207423,0.846903,-0.857372,-0.013785,0.237195,-2.706620,1.798229,4.360682,2.950741,7.565484,-0.086734,-0.085997,0.000000,-0.287941,-0.039482,-0.000000
1.170000,-2.515708,-0.663582,-1.489894,0.966223,-0.075535,-0.207469,0.849487,-0.884286,0.004576,0.279152,-2.675564,1.874189,4.174726,3.334098,7.642852,-0.089606,-0.086419,0.000000,-0.286361,-0.044513,0.000000
1.180000,-2.506003,-0.664382,-1.491968,0.974733,-0.084511,-0.207329,0.852496,-0.910862,0.023703,0.323712,-2.638395,1.951428,4.741356,4.104004,7.803321,-0.092460,-0.086892,0.000000,-0.284225,-0.049855,-0.000000
1.190000,-2.496213,-0.665273,-1.494040,0.983275,-0.093751,-0.206993,0.855972,-0.937032,0.043609,0.371048,-2.594895,2.029835,4.579496,4.525432,7.857113,-0.095289,-0.087421,0.000000,-0.281508,-0.055527,-0.000000
1.200000,-2.486337,-0.666258,-1.496108,0.991854,-0.103250,-0.206454,0.859908,-0.962747,0.064301,0.416528,-2.547236,2.108676,4.661256,5.080238,7.926924,-0.098089,-0.088007,0.000000,-0.278422,-0.061058,-0.000000
1.210000,-2.476376,-0.667339,-1.498169,1.000475,-0.113004,-0.205704,0.864308,-0.987954,0.085785,0.463577,-2.493236,2.188226,4.731700,5.649159,7.978046,-0.100855,-0.088649,0.000000,-0.274743,-0.066802,-0.000000
1.220000,-2.466328,-0.668519,-1.500221,1.009142,-0.123007,-0.204736,0.869181,-1.012599,0.108066,0.511005,-2.434876,2.268141,4.768203,6.093652,8.005157,-0.103582,-0.089350,0.000000,-0.270665,-0.072637,-0.000000
1.230000,-2.456193,-0.669800,-1.502263,1.017860,-0.133254,-0.203540,0.874531,-1.036629,0.131148,0.559243,-2.369878,2.348331,4.879080,6.909425,8.029584,-0.106266,-0.090110,0.000000,-0.265950,-0.078611,-0.000000
1.240000,-2.445970,-0.671185,-1.504291,1.026634,-0.143738,-0.202110,0.880369,-1.059973,0.155033,0.608261,-2.298064,2.428598,4.908090,7.384676,8.016762,-0.108899,-0.090932,0.000000,-0.260572,-0.084722,-0.000000
1.250000,-2.435660,-0.672676,-1.506304,1.035469,-0.154451,-0.200437,0.886697,-1.082576,0.179719,0.657518,-2.221568,2.508623,4.957319,7.985369,7.987471,-0.111476,-0.091815,0.000000,-0.254739,-0.090917,-0.000000
1.260000,-2.425261,-0.674275,-1.508299,1.044369,-0.165387,-0.198513,0.893518,-1.104381,0.205205,0.706663,-2.138434,2.588471,4.986248,8.592987,7.938661,-0.113992,-0.092761,0.000000,-0.248244,-0.097164,-0.000000
1.270000,-2.414772,-0.675984,-1.510273,1.053341,-0.176536,-0.196330,0.900841,-1.125329,0.231484,0.758285,-2.050146,2.666950,5.224824,9.113254,7.791144,-0.116439,-0.093772,0.000000,-0.241214,-0.103720,-0.000000
1.280000,-2.404194,-0.677806,-1.512225,1.062388,-0.187890,-0.193881,0.908679,-1.145362,0.258543,0.808784,-1.955153,2.745008,4.870421,9.887319,7.817109,-0.118814,-0.094850,0.000000,-0.233496,-0.110230,-0.000000
1.290000,-2.393524,-0.679742,-1.514150,1.071516,-0.199440,-0.191157,0.917011,-1.164409,0.286382,0.857941,-1.853358,2.822425,5.073335,10.423658,7.622835,-0.121107,-0.095992,0.000000,-0.225068,-0.116671,0.000000
1.300000,-2.382763,-0.681795,-1.516047,1.080730,-0.211175,-0.188150,0.925847,-1.182412,0.314984,0.909261,-1.746265,2.897698,5.077555,11.043220,7.464777,-0.123313,-0.097201,0.000000,-0.216049,-0.123393,-0.000000
1.310000,-2.371909,-0.683966,-1.517912,1.090035,-0.223084,-0.184854,0.935196,-1.199309,0.344330,0.960492,-1.632024,2.971110,5.091690,11.674246,7.267009,-0.125425,-0.098479,0.000000,-0.206243,-0.130171,0.000000
1.320000,-2.360962,-0.686258,-1.519743,1.099436,-0.235157,-0.181261,0.945051,-1.215042,0.374403,1.010375,-1.513988,3.043432,4.957525,12.059333,7.138930,-0.127437,-0.099825,0.000000,-0.195996,-0.136884,0.000000
1.330000,-2.349920,-0.688670,-1.521536,1.108937,-0.247381,-0.177364,0.955407,-1.229562,0.405188,1.061170,-1.388186,3.112665,5.202819,13.104370,6.700215,-0.129342,-0.101240,0.000000,-0.184853,-0.143748,0.000000
1.340000,-2.338783,-0.691206,-1.523289,1.118545,-0.259744,-0.173155,0.966278,-1.242779,0.436645,1.112917,-1.254483,3.178392,5.070886,13.507083,6.492766,-0.131131,-0.102725,0.000000,-0.172778,-0.150766,0.000000
1.350000,-2.327549,-0.693865,-1.524998,1.128265,-0.272232,-0.168629,0.977659,-1.254641,0.468749,1.163194,-1.116979,3.241946,5.057968,14.119960,6.158569,-0.132796,-0.104281,0.000000,-0.160203,-0.157702,-0.000000
1.360000,-2.316217,-0.696651,-1.526661,1.138100,-0.284832,-0.163778,0.989545,-1.265093,0.501467,1.213994,-0.972368,3.300962,5.039809,14.724023,5.775501,-0.134331,-0.105907,0.000000,-0.146731,-0.164739,-0.000000
1.370000,-2.304787,-0.699562,-1.528273,1.148057,-0.297529,-0.158598,1.001933,-1.274075,0.534766,1.263404,-0.823239,3.358591,4.899947,15.173931,5.610916,-0.135729,-0.107605,0.000000,-0.132664,-0.171712,-0.000000
1.380000,-2.293256,-0.702602,-1.529831,1.158141,-0.310309,-0.153081,1.014814,-1.281535,0.568618,1.313204,-0.667376,3.410259,5.060444,15.998440,4.712183,-0.136982,-0.109374,0.000000,-0.117685,-0.178757,-0.000000
1.390000,-2.281623,-0.705769,-1.531333,1.168355,-0.323155,-0.147224,1.028199,-1.287399,0.602949,1.363388,-0.504823,3.455395,4.915158,16.434531,4.442755,-0.138079,-0.111214,0.000000,-0.101767,-0.185866,0.000000
1.400000,-2.269888,-0.709065,-1.532775,1.178706,-0.336051,-0.141021,1.042076,-1.291619,0.637720,1.411982,-0.338106,3.497845,4.861268,16.979954,3.906502,-0.139015,-0.113126,0.000000,-0.085219,-0.192873,0.000000
1.410000,-2.258049,-0.712490,-1.534153,1.189198,-0.348981,-0.134468,1.056447,-1.294138,0.672880,1.462345,-0.164765,3.533205,4.834355,17.518490,3.321090,-0.139780,-0.115110,0.000000,-0.067692,-0.200082,-0.000000
1.420000,-2.246104,-0.716044,-1.535463,1.199837,-0.361928,-0.127562,1.071291,-1.294910,0.708377,1.505175,0.010658,3.565629,4.093294,17.723278,2.999706,-0.140368,-0.117164,0.000000,-0.049729,-0.206544,0.000000
1.430000,-2.234052,-0.719728,-1.536703,1.210626,-0.374874,-0.120300,1.086566,-1.293901,0.744164,1.551804,0.192996,3.589761,5.241101,18.744685,1.815324,-0.140771,-0.119284,0.000000,-0.030698,-0.213400,-0.000000
1.440000,-2.221891,-0.723542,-1.537868,1.221570,-0.387800,-0.112678,1.102344,-1.291026,0.780141,1.602575,0.382194,3.604992,4.542465,18.927102,1.383449,-0.140978,-0.121477,0.000000,-0.010570,-0.220679,0.000000
1.450000,-2.209620,-0.727484,-1.538955,1.232674,-0.400688,-0.104696,1.118585,-1.286255,0.816252,1.645706,0.572811,3.615952,4.446568,19.352780,0.643630,-0.140982,-0.123738,0.000000,0.009991,-0.227162,0.000000
1.460000,-2.197237,-0.731555,-1.539961,1.243943,-0.413518,-0.096353,1.135253,-1.279540,0.852423,1.687447,0.771233,3.616810,4.263498,19.791004,-0.159437,-0.140774,-0.126065,0.000000,0.031792,-0.233435,0.000000
1.470000,-2.184740,-0.735754,-1.540881,1.255380,-0.426272,-0.087648,1.152357,-1.270860,0.888587,1.734248,0.963581,3.615562,4.738606,19.189284,-0.404345,-0.140348,-0.128456,0.000000,0.053229,-0.240304,-0.000000
1.480000,-2.172129,-0.740081,-1.541712,1.266992,-0.438929,-0.078581,1.169915,-1.260232,0.924692,1.774703,1.165742,3.602138,3.337046,21.250780,-2.295657,-0.139703,-0.130915,0.000000,0.076169,-0.246376,0.000000
1.490000,-2.159400,-0.744533,-1.542451,1.278780,-0.451470,-0.069155,1.187825,-1.247507,0.960584,1.808063,1.377938,3.575776,3.688053,20.655979,-2.670682,-0.138819,-0.133429,0.000000,0.100668,-0.251532,0.000000
1.500000,-2.146552,-0.749109,-1.543094,1.290749,-0.463872,-0.059371,1.206095,-1.232705,0.996201,1.845343,1.583107,3.545982,3.406986,20.888970,-3.603244,-0.137693,-0.135997,0.000000,0.124736,-0.257107,0.000000
1.510000,-2.133584,-0.753810,-1.543637,1.302903,-0.476117,-0.049232,1.224653,-1.215887,1.031464,1.864049,1.779003,3.504989,2.845818,20.752031,-4.549413,-0.136328,-0.138611,0.000000,0.148182,-0.260485,0.000000
1.520000,-2.120494,-0.758631,-1.544078,1.315243,-0.488183,-0.038743,1.243562,-1.196930,1.066273,1.925345,2.020690,3.455373,6.971424,25.177082,-5.426827,-0.134706,-0.141276,0.000000,0.177209,-0.268467,0.000000
1.530000,-2.107279,-0.763573,-1.544411,1.327776,-0.500047,-0.027908,1.263027,-1.175592,1.100537,1.952223,2.232001,3.395349,-1.671915,17.001583,-6.583142,-0.132795,-0.144014,0.000000,0.203243,-0.272483,0.000000
1.540000,-2.093937,-0.768631,-1.544635,1.340504,-0.511689,-0.016734,1.282461,-1.152423,1.134144,1.941301,2.409087,3.324629,1.953454,20.829847,-7.514741,-0.130655,-0.146757,0.000000,0.225770,-0.272069,-0.000000
1.550000,-2.080468,-0.773806,-1.544745,1.353426,-0.523089,-0.005228,1.302030,-1.127229,1.166999,1.970444,2.627900,3.244575,1.423556,20.513023,-8.548388,-0.128258,-0.149521,0.000000,0.253434,-0.275935,0.000000
1.560000,-2.066868,-0.779092,-1.544738,1.366545,-0.534226,0.006603,1.321893,-1.099866,1.198992,2.004325,2.846338,3.152110,1.508491,20.601397,-9.629973,-0.125585,-0.152323,0.000000,0.281490,-0.280081,-0.000000
1.570000,-2.053136,-0.784489,-1.544612,1.379864,-0.545080,0.018749,1.341807,-1.070509,1.230031,1.965303,3.016191,3.054851,-5.572826,15.854459,-10.131209,-0.122651,-0.155132,0.000000,0.304164,-0.275853,-0.000000
1.580000,-2.039270,-0.789993,-1.544362,1.393380,-0.555631,0.031200,1.361377,-1.039425,1.260038,1.971382,3.215604,2.942999,6.909322,24.099035,-12.249985,-0.119486,-0.157901,0.000000,0.330646,-0.276339,-0.000000
1.590000,-2.025268,-0.795601,-1.543987,1.407093,-0.565860,0.043946,1.381433,-1.006068,1.288838,2.027988,3.447621,2.816059,0.643319,19.780947,-12.827847,-0.116022,-0.160720,0.000000,0.361325,-0.282194,0.000000
1.600000,-2.011128,-0.801309,-1.543482,1.421009,-0.575746,0.056973,1.401644,-0.970674,1.316347,2.016306,3.632404,2.683800,0.780299,19.673718,-13.932974,-0.112283,-0.163548,0.000000,0.386654,-0.280083,-0.000000
1.610000,-1.996847,-0.807114,-1.542846,1.435126,-0.585267,0.070268,1.421839,-0.933357,1.342463,2.022516,3.830801,2.537253,0.655146,19.409463,-15.050236,-0.108281,-0.166364,0.000000,0.413834,-0.279594,0.000000
1.620000,-1.982425,-0.813013,-1.542076,1.449446,-0.594406,0.083817,1.442105,-0.894115,1.367082,2.031169,4.014971,2.385817,0.884706,17.979670,-15.550383,-0.104013,-0.169174,0.000000,0.439471,-0.279139,-0.000000
1.630000,-1.967858,-0.819001,-1.541169,1.463969,-0.603144,0.097604,1.462449,-0.853044,1.390128,2.036196,4.202049,2.219672,0.111747,19.439544,-17.685676,-0.099489,-0.171974,0.000000,0.465589,-0.277817,0.000000
1.640000,-1.953145,-0.825075,-1.540123,1.478695,-0.611461,0.111614,1.482814,-0.810060,1.411423,2.037146,4.391974,2.038554,0.264349,17.956399,-18.215497,-0.094699,-0.174754,0.000000,0.492125,-0.275545,-0.000000
1.650000,-1.938283,-0.831229,-1.538936,1.493625,-0.619339,0.125827,1.503201,-0.765268,1.430889,2.039767,4.565713,1.852739,0.064874,17.345392,-19.259450,-0.089654,-0.177510,0.000000,0.516701,-0.273174,-0.000000
1.660000,-1.923271,-0.837460,-1.537606,1.508759,-0.626761,0.140225,1.523517,-0.718851,1.448447,2.020827,4.713735,1.657586,-0.523828,16.158409,-20.202695,-0.084378,-0.180228,0.000000,0.538135,-0.267918,0.000000
1.670000,-1.908107,-0.843763,-1.536131,1.524095,-0.633710,0.154789,1.543868,-0.670716,1.463974,2.059875,4.924579,1.444783,5.094660,22.193706,-21.927398,-0.078859,-0.182915,0.000000,0.566928,-0.268768,-0.000000
1.680000,-1.892789,-0.850132,-1.534510,1.539637,-0.640168,0.169497,1.564544,-0.620581,1.477333,2.054734,5.077501,1.228077,-6.226199,8.257283,-21.393649,-0.073066,-0.185599,0.000000,0.588583,-0.264214,0.000000
1.690000,-1.877314,-0.856564,-1.532741,1.555385,-0.646119,0.184328,1.584775,-0.569410,1.488529,2.000773,5.166338,1.008471,-1.300338,13.334292,-22.948292,-0.067118,-0.188191,0.000000,0.602271,-0.253719,0.000000
1.700000,-1.861680,-0.863053,-1.530823,1.571332,-0.651552,0.199260,1.604797,-0.517000,1.497441,2.001006,5.311372,0.772901,-1.907127,11.837189,-23.730845,-0.060992,-0.190711,0.000000,0.622314,-0.248913,0.000000
1.710000,-1.845887,-0.869593,-1.528755,1.587481,-0.656455,0.214269,1.624917,-0.463418,1.503964,2.028379,5.399755,0.530129,-1.330990,10.064378,-24.522286,-0.054700,-0.193191,0.000000,0.635255,-0.246860,-0.000000
1.720000,-1.829930,-0.876180,-1.526537,1.603830,-0.660817,0.229331,1.644676,-0.408720,1.508042,1.894206,5.551504,0.285356,-17.054617,16.179036,-24.709124,-0.048256,-0.195575,0.000000,0.654926,-0.225836,-0.000000
1.730000,-1.813809,-0.882808,-1.524169,1.620369,-0.664624,0.244422,1.663212,-0.352639,1.509634,1.864642,5.637168,0.030135,11.396757,0.829464,-26.333796,-0.041633,-0.197759,0.000000,0.666411,-0.216486,-0.000000
1.740000,-1.797522,-0.889471,-1.521649,1.637097,-0.667869,0.259515,1.682421,-0.296248,1.508609,1.950886,5.651276,-0.235320,-2.697262,6.146075,-26.457273,-0.034961,-0.199959,0.000000,0.668932,-0.220082,-0.000000
1.750000,-1.781067,-0.896163,-1.518978,1.654017,-0.670547,0.274585,1.701566,-0.239342,1.504931,1.882796,5.725146,-0.501230,-2.435329,4.512352,-27.001326,-0.028225,-0.202086,0.000000,0.677681,-0.205623,0.000000
1.760000,-1.764441,-0.902880,-1.516157,1.671125,-0.672653,0.289605,1.719764,-0.181404,1.498567,1.741548,5.874193,-0.772301,-5.140880,5.435756,-27.428218,-0.021370,-0.204036,0.000000,0.694576,-0.182455,0.000000
1.770000,-1.747644,-0.909615,-1.513187,1.688412,-0.674175,0.304547,1.737987,-0.123441,1.489454,1.970040,5.651202,-1.051633,30.749391,-30.745511,-28.203585,-0.014521,-0.205918,0.000000,0.667144,-0.201552,-0.000000
1.780000,-1.730672,-0.916362,-1.510067,1.705893,-0.675129,0.319385,1.758137,-0.067451,1.477534,1.934830,5.664173,-1.331453,-38.419363,33.936732,-27.739601,-0.007920,-0.207948,0.000000,0.666668,-0.190022,-0.000000
1.790000,-1.713525,-0.923115,-1.506799,1.723564,-0.675515,0.334089,1.775553,-0.009131,1.462829,1.607978,5.939572,-1.610616,-6.667400,1.656138,-28.301782,-0.001070,-0.209589,0.000000,0.696234,-0.145031,0.000000
1.800000,-1.696200,-0.929870,-1.503386,1.741401,-0.675310,0.348632,1.791812,0.049825,1.445299,1.629728,5.862126,-1.895296,-9.163127,2.230270,-28.396108,0.005824,-0.211022,0.000000,0.683754,-0.139877,-0.000000
1.810000,-1.678697,-0.936620,-1.499827,1.759399,-0.674520,0.362985,1.807806,0.108039,1.424966,1.572364,5.764752,-2.170261,-9.380014,-0.953509,-28.230752,0.012595,-0.212349,0.000000,0.668355,-0.125857,-0.000000
1.820000,-1.661012,-0.943358,-1.496127,1.777553,-0.673149,0.377121,1.822679,0.166699,1.401767,1.377579,6.033584,-2.474785,-22.632598,34.513617,-31.059538,0.019373,-0.213470,0.000000,0.694928,-0.095527,-0.000000
1.830000,-1.643145,-0.950080,-1.492286,1.795846,-0.671177,0.391010,1.835685,0.227657,1.375555,1.265543,6.030838,-2.757576,0.494147,-35.723303,-25.434717,0.026368,-0.214299,0.000000,0.689135,-0.075295,-0.000000
1.840000,-1.625095,-0.956780,-1.488307,1.814266,-0.668605,0.404624,1.848362,0.286152,1.346711,1.249030,5.726668,-3.015579,-10.701986,-4.769088,-27.768234,0.033020,-0.215021,0.000000,0.648109,-0.066552,0.000000
1.850000,-1.606859,-0.963451,-1.484194,1.832810,-0.665457,0.417936,1.860141,0.343677,1.315130,1.111881,5.762136,-3.298980,-9.721208,-8.452925,-27.289169,0.039500,-0.215570,0.000000,0.645873,-0.043719,0.000000
1.860000,-1.588438,-0.970087,-1.479950,1.851469,-0.661734,0.430917,1.872092,0.400499,1.280777,1.317120,5.588372,-3.570958,-2.889448,-12.422313,-26.869072,0.045832,-0.216065,0.000000,0.618864,-0.059593,0.000000
1.870000,-1.569830,-0.976683,-1.475577,1.870248,-0.657450,0.443542,1.882351,0.456441,1.243744,0.560633,5.641529,-3.834066,-96.284785,9.605676,-25.961834,0.051995,-0.216303,0.000000,0.618620,0.031346,-0.000000
1.880000,-1.551033,-0.983234,-1.471080,1.889090,-0.652604,0.455784,1.885961,0.512575,1.204103,0.485462,5.498279,-4.094606,82.856541,-38.642091,-26.143320,0.058115,-0.215737,0.000000,0.594973,0.045588,-0.000000
1.890000,-1.532048,-0.989734,-1.466463,1.907989,-0.647210,0.467615,1.894980,0.565590,1.161860,1.162684,5.141966,-4.352302,-0.086000,-18.973286,-25.165102,0.063798,-0.215711,0.000000,0.546093,-0.023014,0.000000
1.900000,-1.512873,-0.996177,-1.461729,1.926993,-0.641299,0.479012,1.905259,0.616381,1.117096,0.928726,5.004640,-4.599618,5.626362,-21.969875,-24.510478,0.069152,-0.215762,0.000000,0.523340,0.008693,0.000000
1.910000,-1.493507,-1.002558,-1.456884,1.946087,-0.634886,0.489949,1.912941,0.666358,1.069855,0.555212,5.018471,-4.848282,-1.494628,-18.811818,-23.933300,0.074341,-0.215471,0.000000,0.517624,0.055086,0.000000
1.920000,-1.473951,-1.008873,-1.451932,1.965255,-0.627980,0.500402,1.922530,0.713318,1.020254,1.622871,4.228462,-5.066331,138.300457,-96.800517,-20.910472,0.079114,-0.215333,0.000000,0.420649,-0.055713,0.000000
1.930000,-1.454202,-1.015116,-1.446878,1.984575,-0.620647,0.510347,1.941566,0.753020,0.968492,1.710549,3.972280,-5.292405,-123.248493,46.933205,-24.334090,0.082995,-0.216166,0.000000,0.385279,-0.058964,-0.000000
1.940000,-1.434259,-1.021284,-1.441727,2.004054,-0.612909,0.519763,1.952497,0.795083,0.914365,0.706386,4.311542,-5.527687,-0.293957,-21.788108,-21.458019,0.087080,-0.216063,0.000000,0.417027,0.054156,-0.000000
1.950000,-1.414120,-1.027373,-1.436484,2.023621,-0.604750,0.528627,1.961525,0.836002,0.858063,1.046996,3.899675,-5.732020,-8.713436,-17.985442,-20.649046,0.090972,-0.215708,0.000000,0.364528,0.022184,-0.000000
1.960000,-1.393786,-1.033378,-1.431156,2.043288,-0.596199,0.536918,1.971737,0.873593,0.799757,0.996368,3.605357,-5.926680,-11.152890,-19.340847,-19.556585,0.094433,-0.215437,0.000000,0.326322,0.031694,0.000000
1.970000,-1.373254,-1.039296,-1.425748,2.063051,-0.587283,0.544616,1.980581,0.909813,0.739463,0.734665,3.710783,-6.134781,-31.690145,19.494343,-20.806262,0.097683,-0.214979,0.000000,0.331585,0.063348,-0.000000
1.980000,-1.352525,-1.045122,-1.420266,2.082890,-0.577999,0.551700,1.986798,0.946786,0.677159,0.562156,3.555736,-6.316422,-2.461527,-51.179823,-15.473553,0.100955,-0.214207,0.000000,0.309076,0.084454,0.000000
1.990000,-1.331596,-1.050855,-1.414716,2.102785,-0.568362,0.558154,1.992250,0.979793,0.613240,0.495257,3.109803,-6.469305,-20.399011,-16.916603,-16.353768,0.103748,-0.213329,0.000000,0.256575,0.093608,-0.000000
2.000000,-1.310469,-1.056489,-1.409105,2.122728,-0.558410,0.563960,1.995898,1.010597,0.547716,0.236976,3.037675,-6.632634,-21.639289,-18.576936,-15.048847,0.106259,-0.212241,0.000000,0.244272,0.122317,-0.000000
2.010000,-1.289142,-1.062022,-1.403439,2.142699,-0.548156,0.569103,1.998486,1.039725,0.480675,0.316409,2.778332,-6.773128,-16.895376,-20.426594,-13.706097,0.108546,-0.211026,0.000000,0.212277,0.115586,0.000000
2.020000,-1.267615,-1.067451,-1.397725,2.162689,-0.537622,0.573569,1.997964,1.067147,0.412245,-0.600832,2.747435,-6.912730,-113.595054,1.745853,-13.565278,0.110618,-0.209481,0.000000,0.206686,0.209501,-0.000000
2.030000,-1.245888,-1.072773,-1.391970,2.182627,-0.526814,0.577343,1.989107,1.094029,0.342496,-0.843855,2.550860,-7.030819,66.688285,-41.447204,-10.027792,0.112609,-0.207086,0.000000,0.182934,0.233305,-0.000000
2.040000,-1.223962,-1.077986,-1.386181,2.202488,-0.515753,0.580415,1.984006,1.117456,0.271710,-0.336453,2.171489,-7.126224,-18.589063,-21.795979,-9.699403,0.114201,-0.205080,0.000000,0.139718,0.181579,0.000000
2.050000,-1.201838,-1.083088,-1.380364,2.222304,-0.504473,0.582774,1.978336,1.138400,0.199969,-0.762224,2.008224,-7.219237,-13.354933,-23.406358,-8.253531,0.115510,-0.203025,0.000000,0.121247,0.222955,-0.000000
2.060000,-1.179517,-1.088075,-1.374528,2.242044,-0.492991,0.584412,1.969035,1.157696,0.127371,-1.125185,1.861529,-7.298355,-16.442449,-22.223531,-6.912324,0.116634,-0.200622,0.000000,0.104811,0.257029,0.000000
2.070000,-1.156998,-1.092947,-1.368678,2.261681,-0.481327,0.585320,1.959206,1.174346,0.054100,-0.697753,1.414220,-7.351424,60.338384,-51.369303,-4.338756,0.117473,-0.198187,0.000000,0.057469,0.212733,-0.000000
2.080000,-1.134283,-1.097701,-1.362824,2.281243,-0.469520,0.585492,1.953035,1.186766,-0.019642,-0.791594,1.167285,-7.398517,-80.433067,2.505892,-5.100296,0.117870,-0.196134,0.000000,0.032102,0.219805,0.000000
2.090000,-1.111373,-1.102337,-1.356971,2.300720,-0.457593,0.584925,1.941111,1.198564,-0.093859,-1.466133,1.144452,-7.440546,-12.536420,-23.037978,-2.662720,0.118207,-0.193542,0.000000,0.030367,0.282376,0.000000
2.100000,-1.088269,-1.106853,-1.351128,2.320059,-0.445555,0.583614,1.926917,1.208446,-0.168357,-1.398818,0.842741,-7.457264,-15.827331,-21.345666,-1.324223,0.118354,-0.190762,0.000000,0.000351,0.272358,0.000000
2.110000,-1.064973,-1.111248,-1.345301,2.339256,-0.433432,0.581557,1.912402,1.215743,-0.242975,-1.497421,0.615618,-7.464050,-15.179171,-20.922723,0.036232,0.118249,-0.187986,0.000000,-0.021418,0.278105,-0.000000
2.120000,-1.041485,-1.115521,-1.339499,2.358301,-0.421247,0.578755,1.896074,1.221030,-0.317588,-1.806136,0.453460,-7.455932,-35.597788,-14.545424,1.515580,0.117956,-0.185076,0.000000,-0.035952,0.303339,-0.000000
2.130000,-1.017807,-1.119672,-1.333728,2.377167,-0.409017,0.575206,1.876812,1.224688,-0.392052,-1.979126,0.260925,-7.435252,1.351482,-24.045709,2.614894,0.117518,-0.181930,0.000000,-0.053256,0.315138,0.000000
2.140000,-0.993942,-1.123701,-1.327997,2.395837,-0.396761,0.570914,1.857083,1.226111,-0.466252,-2.000612,0.034440,-7.402305,-16.703028,-18.163146,4.040488,0.116878,-0.178786,0.000000,-0.073589,0.312438,-0.000000
2.150000,-0.969891,-1.127608,-1.322313,2.414304,-0.384501,0.565883,1.835950,1.225643,-0.540050,-2.219090,-0.128289,-7.355119,-15.957953,-17.441454,5.322700,0.116075,-0.175559,0.000000,-0.087053,0.327853,0.000000
2.160000,-0.945657,-1.131391,-1.316682,2.432550,-0.372254,0.560115,1.812957,1.223504,-0.613320,-2.379758,-0.297858,-7.297021,-15.911825,-16.469242,6.552460,0.115134,-0.172210,0.000000,-0.100928,0.337546,0.000000
2.170000,-0.921241,-1.135053,-1.311113,2.450558,-0.360036,0.553618,1.788378,1.219719,-0.685929,-2.534849,-0.457565,-7.221775,-15.353174,-15.459239,8.238664,0.114061,-0.168767,0.000000,-0.113503,0.346358,0.000000
2.180000,-0.896646,-1.138592,-1.305612,2.468312,-0.347865,0.546399,1.762251,1.214388,-0.757728,-2.692010,-0.606789,-7.137663,-16.082442,-14.379086,8.570165,0.112868,-0.165237,0.000000,-0.124836,0.355157,-0.000000
2.190000,-0.871876,-1.142010,-1.300187,2.485797,-0.335753,0.538467,1.734529,1.207619,-0.828657,-2.851330,-0.745139,-7.045376,-15.523810,-13.291098,10.136551,0.111568,-0.161618,0.000000,-0.134938,0.363975,-0.000000
2.200000,-0.846931,-1.145308,-1.294845,2.502998,-0.323717,0.529830,1.705249,1.199522,-0.898578,-3.004562,-0.872470,-6.937224,-15.371518,-12.165375,11.233299,0.110173,-0.157916,0.000000,-0.143771,0.371976,-0.000000
2.210000,-0.821817,-1.148485,-1.289593,2.519897,-0.311767,0.520499,1.674431,1.190188,-0.967376,-3.158864,-0.992926,-6.820728,-15.210561,-11.107409,12.283022,0.108695,-0.154133,0.000000,-0.151813,0.379947,-0.000000
2.220000,-0.796534,-1.151543,-1.284437,2.536481,-0.299916,0.510486,1.642100,1.179765,-1.034940,-3.306173,-1.087058,-6.689640,-14.513882,-8.506782,13.711002,0.107147,-0.150275,0.000000,-0.157293,0.387100,0.000000
2.230000,-0.771088,-1.154484,-1.279385,2.552734,-0.288175,0.499805,1.608302,1.168446,-1.101146,-3.454658,-1.179607,-6.551199,-15.187801,-10.025180,13.963388,0.105549,-0.146346,0.000000,-0.162548,0.394297,-0.000000
2.240000,-0.745481,-1.157307,-1.274443,2.568642,-0.276551,0.488468,1.573000,1.156169,-1.165944,-3.604467,-1.271521,-6.406122,-14.501301,-7.557146,15.263959,0.103896,-0.142344,0.000000,-0.167676,0.401572,-0.000000
2.250000,-0.719716,-1.160015,-1.269618,2.584189,-0.265054,0.476491,1.536242,1.143116,-1.229221,-3.746892,-1.337492,-6.247920,-14.248055,-6.430590,16.150811,0.102205,-0.138274,0.000000,-0.170402,0.408093,0.000000
2.260000,-0.693798,-1.162609,-1.264916,2.599362,-0.253690,0.463889,1.498074,1.129462,-1.290885,-3.885931,-1.390743,-6.083686,-13.915539,-5.141440,16.976598,0.100492,-0.134140,0.000000,-0.172001,0.414329,-0.000000
2.270000,-0.667731,-1.165089,-1.260342,2.614146,-0.242466,0.450679,1.458505,1.115270,-1.350844,-4.028440,-1.448800,-5.905883,-14.234001,-5.574165,18.297644,0.098762,-0.129944,0.000000,-0.173965,0.420813,0.000000
2.280000,-0.641517,-1.167458,-1.255904,2.628528,-0.231387,0.436878,1.417533,1.100571,-1.408990,-4.163222,-1.483428,-5.723737,-12.708390,-1.324533,18.115722,0.097020,-0.125685,0.000000,-0.173916,0.426689,0.000000
2.290000,-0.615161,-1.169718,-1.251607,2.642493,-0.220455,0.422505,1.375272,1.085690,-1.465310,-4.289605,-1.493442,-5.538059,-12.917664,-1.584626,19.294925,0.095291,-0.121372,0.000000,-0.171796,0.431927,0.000000
2.300000,-0.588668,-1.171868,-1.247456,2.656029,-0.209674,0.407578,1.331727,1.070673,-1.519706,-4.418533,-1.507497,-5.340367,-12.514249,-0.328600,19.955333,0.093581,-0.117006,0.000000,-0.170042,0.437408,-0.000000
2.310000,-0.562042,-1.173912,-1.243457,2.669123,-0.199042,0.392118,1.286919,1.055591,-1.572105,-4.542501,-1.507136,-5.138369,-12.135233,0.800562,20.577951,0.091895,-0.112587,0.000000,-0.167127,0.442577,-0.000000
2.320000,-0.535287,-1.175849,-1.239615,2.681763,-0.188561,0.376143,1.240901,1.040600,-1.622442,-4.659890,-1.487866,-4.927649,-11.478454,2.655492,21.423696,0.090244,-0.108119,0.000000,-0.162645,0.447268,0.000000
2.330000,-0.508409,-1.177683,-1.235936,2.693937,-0.178229,0.359676,1.193728,1.025852,-1.670645,-4.774927,-1.462385,-4.712875,-11.531422,2.422047,21.520696,0.088643,-0.103605,0.000000,-0.157741,0.451908,0.000000
2.340000,-0.481410,-1.179415,-1.232423,2.705634,-0.168044,0.342737,1.145409,1.011367,-1.716689,-4.887698,-1.431622,-4.494605,-10.882158,4.119514,22.264558,0.087090,-0.099045,0.000000,-0.152499,0.456519,0.000000
2.350000,-0.454297,-1.181045,-1.229083,2.716842,-0.158001,0.325349,1.095999,0.997284,-1.760510,-4.993723,-1.383509,-4.268866,-10.460046,5.099816,22.740840,0.085598,-0.094442,0.000000,-0.145865,0.460696,0.000000
2.360000,-0.427075,-1.182575,-1.225918,2.727550,-0.148096,0.307535,1.045541,0.983701,-1.802054,-5.097213,-1.332067,-4.039204,-10.042541,5.968409,23.191887,0.084173,-0.089797,0.000000,-0.139067,0.464845,0.000000
2.370000,-0.399748,-1.184007,-1.222933,2.737749,-0.138325,0.289316,0.994084,0.970735,-1.841279,-5.192764,-1.257062,-3.805082,-9.254588,8.259012,23.621683,0.082824,-0.085114,0.000000,-0.130382,0.468512,0.000000
2.380000,-0.372322,-1.185342,-1.220133,2.747429,-0.128679,0.270717,0.941691,0.958551,-1.878143,-5.286234,-1.183119,-3.566988,-9.444179,6.496756,23.991913,0.081564,-0.080394,0.000000,-0.121909,0.472210,-0.000000
2.390000,-0.344801,-1.186581,-1.217520,2.756580,-0.119151,0.251761,0.888364,0.947058,-1.912607,-5.377814,-1.111836,-3.325229,-8.680424,8.522799,24.360830,0.080384,-0.075638,0.000000,-0.113772,0.475968,-0.000000
2.400000,-0.317192,-1.187725,-1.215099,2.765193,-0.109735,0.232473,0.834165,0.936398,-1.944635,-5.461433,-1.019401,-3.079912,-8.231702,9.185463,24.692439,0.079296,-0.070846,0.000000,-0.103959,0.479281,0.000000
2.410000,-0.289499,-1.188776,-1.212872,2.773261,-0.100420,0.212877,0.779150,0.926683,-1.974193,-5.540740,-0.922109,-2.831000,-7.750349,9.884560,25.006906,0.078306,-0.066022,0.000000,-0.093841,0.482469,-0.000000
2.420000,-0.261729,-1.189734,-1.210842,2.780774,-0.091198,0.192997,0.723356,0.917947,-2.001252,-5.617542,-0.825378,-2.580577,-7.490511,9.818986,25.149562,0.077418,-0.061167,0.000000,-0.083879,0.485704,-0.000000
2.430000,-0.233886,-1.190600,-1.209012,2.787725,-0.082058,0.172860,0.666821,0.910213,-2.025792,-5.688043,-0.718220,-2.326496,-6.605049,11.613894,25.665085,0.076631,-0.056280,0.000000,-0.073127,0.488660,-0.000000
2.440000,-0.205976,-1.191375,-1.207386,2.794108,-0.072990,0.152490,0.609618,0.903620,-2.047769,-5.752022,-0.600734,-2.068889,-6.309522,11.502025,25.775777,0.075958,-0.051366,0.000000,-0.061589,0.491331,0.000000
2.450000,-0.178005,-1.192060,-1.205963,2.799915,-0.063982,0.131913,0.551788,0.898186,-2.067168,-5.813203,-0.485251,-1.810403,-5.806728,11.953049,25.994124,0.075398,-0.046424,0.000000,-0.050300,0.494048,-0.000000
2.460000,-0.149980,-1.192655,-1.204748,2.805142,-0.055022,0.111155,0.493372,0.893930,-2.083965,-5.869210,-0.365392,-1.548647,-5.316434,12.281845,26.202692,0.074953,-0.041457,0.000000,-0.038702,0.496607,-0.000000
2.470000,-0.121905,-1.193161,-1.203741,2.809781,-0.046099,0.090243,0.434426,0.890910,-2.098146,-5.918804,-0.237320,-1.287808,-4.677369,13.054251,26.107949,0.074627,-0.036465,0.000000,-0.026489,0.498925,-0.000000
2.480000,-0.093786,-1.193577,-1.202943,2.813829,-0.037200,0.069201,0.375009,0.889179,-2.109709,-5.964334,-0.110145,-1.023483,-4.430486,12.360284,26.758154,0.074423,-0.031451,0.000000,-0.014379,0.501189,-0.000000
2.490000,-0.065630,-1.193905,-1.202357,2.817280,-0.028311,0.048057,0.315152,0.888698,-2.118603,-6.005878,0.015037,-0.755676,-3.801634,12.932905,26.652088,0.074338,-0.026414,0.000000,-0.002451,0.503413,-0.000000
2.500000,-0.037442,-1.194143,-1.201983,2.820130,-0.019421,0.026838,0.254914,0.889504,-2.124829,-6.041008,0.145975,-0.489257,-3.299877,12.974351,26.775830,0.074376,-0.021356,0.000000,0.009925,0.505409,0.000000
2.510000,-0.009229,-1.194293,-1.201820,2.822377,-0.010517,0.005570,0.194347,0.891604,-2.128378,-6.071544,0.273786,-0.220257,-2.792867,12.919678,26.884699,0.074536,-0.016278,0.000000,0.022048,0.507327,-0.000000
2.520000,0.019003,-1.194354,-1.201871,2.824016,-0.001585,-0.015721,0.133501,0.895004,-2.129242,-6.096728,0.407286,0.047116,-2.257529,13.433688,26.718320,0.074819,-0.011181,0.000000,0.034640,0.509110,-0.000000
2.530000,0.047249,-1.194325,-1.202135,2.825046,0.007388,-0.037006,0.072428,0.899728,-2.127427,-6.116980,0.535192,0.316808,-1.793053,12.124435,27.220555,0.075227,-0.006067,0.000000,0.046801,0.510792,-0.000000
2.540000,0.075502,-1.194206,-1.202611,2.825464,0.016414,-0.058260,0.011178,0.905683,-2.122897,-6.132306,0.656287,0.588784,-1.257978,12.419710,27.037886,0.075753,-0.000937,0.000000,0.058443,0.512379,-0.000000
2.550000,0.103756,-1.193996,-1.203300,2.825269,0.025505,-0.079455,-0.050199,0.912870,-2.115661,-6.142256,0.780471,0.858623,-0.745648,12.068587,27.058614,0.076397,0.004209,0.000000,0.070377,0.513836,-0.000000
2.560000,0.132005,-1.193695,-1.204200,2.824460,0.034675,-0.100564,-0.111651,0.921266,-2.105719,-6.147282,0.897820,1.129934,-0.234490,11.638222,27.062599,0.077158,0.009370,0.000000,0.081812,0.515203,-0.000000
2.570000,0.160243,-1.193302,-1.205311,2.823036,0.043935,-0.121560,-0.173126,0.930831,-2.093074,-6.146713,1.015287,1.398533,0.324048,11.601793,26.785946,0.078034,0.014544,0.000000,0.093315,0.516420,-0.000000
2.580000,0.188464,-1.192816,-1.206631,2.820998,0.053296,-0.142417,-0.234570,0.941542,-2.077743,-6.141310,1.124547,1.668360,0.755852,10.230984,27.179197,0.079022,0.019730,0.000000,0.104227,0.517556,-0.000000
2.590000,0.216661,-1.192236,-1.208159,2.818345,0.062769,-0.163106,-0.295936,0.953289,-2.059702,-6.131104,1.224568,1.939338,1.310052,10.005961,26.877606,0.080116,0.024927,0.000000,0.114474,0.518615,-0.000000
2.600000,0.244829,-1.191561,-1.209892,2.815079,0.072365,-0.183602,-0.357173,0.966031,-2.038970,-6.115318,1.322375,2.206954,1.822768,9.300906,26.775116,0.081312,0.030135,0.000000,0.124622,0.519524,-0.000000
2.610000,0.272961,-1.190788,-1.211830,2.811202,0.082093,-0.203877,-0.418226,0.979699,-2.015561,-6.094551,1.409879,2.474689,2.336480,8.511248,26.647786,0.082606,0.035352,0.000000,0.134027,0.520339,-0.000000
2.620000,0.301051,-1.189918,-1.213969,2.806716,0.091961,-0.223904,-0.479046,0.994227,-1.989490,-6.068534,1.495356,2.738710,2.861277,8.261900,26.266514,0.083993,0.040577,0.000000,0.143364,0.521023,-0.000000
2.630000,0.329093,-1.188949,-1.216307,2.801622,0.101980,-0.243658,-0.539580,1.009563,-1.960787,-6.037447,1.568368,3.002333,3.355775,6.321347,26.456041,0.085470,0.045809,0.000000,0.151786,0.521599,0.000000
2.640000,0.357081,-1.187878,-1.218841,2.795925,0.112155,-0.263111,-0.599778,1.025547,-1.929445,-6.001302,1.627917,3.265377,3.879031,5.894877,26.030193,0.087025,0.051046,0.000000,0.159210,0.522068,0.000000
2.650000,0.385010,-1.186705,-1.221568,2.789628,0.122493,-0.282238,-0.659589,1.042113,-1.895497,-5.959917,1.683418,3.523804,4.392098,4.882955,25.764929,0.088654,0.056289,0.000000,0.166403,0.522394,0.000000
2.660000,0.412872,-1.185428,-1.224485,2.782735,0.132999,-0.301012,-0.718958,1.059168,-1.858976,-5.913060,1.725713,3.779913,4.912453,3.816319,25.453165,0.090349,0.061535,0.000000,0.172610,0.522560,-0.000000
2.670000,0.440662,-1.184045,-1.227587,2.775251,0.143677,-0.319409,-0.777838,1.076611,-1.819909,-5.862288,1.761876,4.032766,5.306725,3.169611,25.106958,0.092105,0.066783,0.000000,0.178421,0.522689,-0.000000
2.680000,0.468375,-1.182554,-1.230872,2.767180,0.154532,-0.337402,-0.836184,1.094357,-1.778333,-5.805564,1.783939,4.281836,6.039961,1.229527,24.699656,0.093914,0.072033,0.000000,0.183154,0.522599,-0.000000
2.690000,0.496004,-1.180953,-1.234334,2.758529,0.165565,-0.354967,-0.893929,1.112239,-1.734287,-5.742810,1.791211,4.526681,6.444777,0.461990,24.265163,0.095764,0.077281,0.000000,0.186737,0.522272,0.000000
2.700000,0.523544,-1.179242,-1.237969,2.749304,0.176777,-0.372080,-0.951028,1.130160,-1.687814,-5.676118,1.791025,4.766956,6.958805,-0.744967,23.778233,0.097647,0.082526,0.000000,0.189784,0.521877,0.000000
2.710000,0.550988,-1.177417,-1.241774,2.739511,0.188168,-0.388716,-1.007431,1.148012,-1.638968,-5.603542,1.777260,5.001317,7.474935,-1.965039,23.227465,0.099556,0.087767,0.000000,0.191752,0.521225,0.000000
2.720000,0.578332,-1.175478,-1.245742,2.729157,0.199737,-0.404851,-1.063088,1.165668,-1.587796,-5.527376,1.752090,5.232643,7.836193,-3.116594,22.892027,0.101480,0.093002,0.000000,0.192838,0.520528,0.000000
2.730000,0.605569,-1.173422,-1.249869,2.718251,0.211480,-0.420464,-1.117957,1.183010,-1.534342,-5.445182,1.713935,5.456100,8.604214,-4.517675,21.786463,0.103409,0.098230,0.000000,0.192849,0.519525,0.000000
2.740000,0.632695,-1.171248,-1.254150,2.706801,0.223395,-0.435531,-1.171971,1.199903,-1.478703,-5.356898,1.662622,5.670982,8.972304,-5.700401,21.319917,0.105333,0.103447,0.000000,0.191743,0.518186,-0.000000
2.750000,0.659704,-1.168953,-1.258578,2.694815,0.235476,-0.450031,-1.225085,1.216224,-1.420936,-5.265085,1.599527,5.881138,9.468684,-6.963987,20.564508,0.107241,0.108652,0.000000,0.189654,0.516753,0.000000
2.760000,0.686590,-1.166538,-1.263148,2.682303,0.247717,-0.463943,-1.277254,1.231847,-1.361116,-5.167798,1.522858,6.081369,9.956526,-8.237389,19.735239,0.109122,0.113841,0.000000,0.186353,0.514992,0.000000
2.770000,0.713348,-1.163999,-1.267855,2.669273,0.260111,-0.477247,-1.328427,1.246650,-1.299316,-5.066265,1.436014,6.278077,10.378540,-9.257381,19.342663,0.110965,0.119013,0.000000,0.182175,0.513057,-0.000000
2.780000,0.739973,-1.161335,-1.272691,2.655737,0.272647,-0.489923,-1.378562,1.260520,-1.235597,-4.959628,1.335071,6.462697,10.948373,-10.932618,17.564331,0.112761,0.124164,0.000000,0.176665,0.510766,0.000000
2.790000,0.766461,-1.158545,-1.277651,2.641706,0.285317,-0.501953,-1.427603,1.273303,-1.170107,-4.847939,1.220008,6.634336,11.357378,-11.947447,17.011763,0.114494,0.129292,0.000000,0.169774,0.508084,0.000000
2.800000,0.792806,-1.155628,-1.282728,2.627189,0.298109,-0.513319,-1.475508,1.284889,-1.102924,-4.732259,1.095108,6.800569,11.806711,-13.156588,15.969888,0.116153,0.134392,0.000000,0.161927,0.505170,-0.000000
2.810000,0.819003,-1.152583,-1.287915,2.612200,0.311011,-0.524006,-1.522232,1.295163,-1.034145,-4.611983,0.957634,6.953145,12.242288,-14.327870,14.856533,0.117728,0.139462,0.000000,0.152761,0.501847,-0.000000
2.820000,0.845048,-1.149408,-1.293206,2.596749,0.324008,-0.533997,-1.567733,1.304004,-0.963873,-4.487493,0.808714,7.100472,12.657224,-15.454271,14.290225,0.119205,0.144498,0.000000,0.142427,0.498230,0.000000
2.830000,0.870937,-1.146102,-1.298593,2.580849,0.337086,-0.543279,-1.611968,1.311300,-0.892189,-4.358806,0.648590,7.232269,13.077897,-16.563245,12.051317,0.120572,0.149497,0.000000,0.130800,0.494161,0.000000
2.840000,0.896664,-1.142666,-1.304069,2.564514,0.350228,-0.551837,-1.654896,1.316940,-0.819284,-4.226064,0.477701,7.347620,13.464010,-17.601471,11.324494,0.121816,0.154452,0.000000,0.117865,0.489599,-0.000000
2.850000,0.922226,-1.139097,-1.309627,2.547756,0.363419,-0.559661,-1.696477,1.320820,-0.745255,-4.089551,0.296697,7.455944,13.839986,-18.594566,10.020983,0.122925,0.159361,0.000000,0.103743,0.484673,0.000000
2.860000,0.947618,-1.135397,-1.315260,2.530589,0.376639,-0.566739,-1.736674,1.322847,-0.670224,-3.949250,0.107333,7.547774,14.200215,-19.502672,8.659221,0.123887,0.164217,0.000000,0.088449,0.479210,-0.000000
2.870000,0.972836,-1.131565,-1.320959,2.513027,0.389869,-0.573062,-1.775452,1.322918,-0.594320,-3.805765,-0.095303,7.631951,14.510170,-20.785906,7.858294,0.124689,0.169018,0.000000,0.071583,0.473366,0.000000
2.880000,0.997877,-1.127600,-1.326718,2.495085,0.403090,-0.578623,-1.812778,1.320924,-0.517647,-3.658768,-0.303378,7.698278,14.886217,-20.810240,5.391646,0.125316,0.173757,0.000000,0.053711,0.466918,-0.000000
2.890000,1.022737,-1.123503,-1.332529,2.476776,0.416281,-0.583413,-1.848616,1.316838,-0.440419,-3.508442,-0.515871,7.745978,15.158868,-21.905707,4.457882,0.125760,0.178427,0.000000,0.034885,0.459821,-0.000000
2.900000,1.047411,-1.119274,-1.338384,2.458117,0.429419,-0.587429,-1.882938,1.310567,-0.362752,-3.355524,-0.739284,7.784668,15.437547,-22.534552,2.962100,0.126008,0.183025,0.000000,0.014559,0.452265,0.000000
2.910000,1.071898,-1.114915,-1.344275,2.439123,0.442484,-0.590667,-1.915718,1.302046,-0.284788,-3.200019,-0.965475,7.805435,15.688570,-23.055856,1.434734,0.126049,0.187543,0.000000,-0.006639,0.444061,-0.000000
2.920000,1.096193,-1.110425,-1.350195,2.419808,0.455453,-0.593125,-1.946928,1.291212,-0.206674,-3.041572,-1.203473,7.815580,15.968961,-24.175503,0.350758,0.125869,0.191975,0.000000,-0.029525,0.435263,-0.000000
2.930000,1.120293,-1.105806,-1.356135,2.400189,0.468301,-0.594801,-1.976543,1.277980,-0.128540,-2.881307,-1.441262,7.807350,16.078864,-23.356612,-2.006381,0.125456,0.196315,0.000000,-0.053078,0.425795,-0.000000
2.940000,1.144196,-1.101059,-1.362088,2.380283,0.481004,-0.595696,-2.004550,1.262394,-0.050592,-2.719521,-1.677467,7.780285,16.301942,-24.226637,-3.165033,0.124806,0.200556,0.000000,-0.077187,0.415628,-0.000000
2.950000,1.167898,-1.096187,-1.368046,2.360104,0.493540,-0.595814,-2.030926,1.244395,0.027033,-2.555598,-1.922455,7.741967,16.450191,-24.398875,-4.740712,0.123907,0.204691,0.000000,-0.102800,0.404808,0.000000
2.960000,1.191397,-1.091189,-1.374002,2.339670,0.505884,-0.595157,-2.055661,1.223964,0.104185,-2.391348,-2.163465,7.685751,16.554501,-24.429066,-6.320585,0.122749,0.208713,0.000000,-0.128770,0.393339,0.000000
2.970000,1.214690,-1.086070,-1.379947,2.318996,0.518012,-0.593732,-2.078737,1.201074,0.180710,-2.223136,-2.416626,7.617243,16.928378,-25.565048,-7.555499,0.121324,0.212614,0.000000,-0.156640,0.380936,0.000000
2.980000,1.237776,-1.080830,-1.385874,2.298100,0.529897,-0.591545,-2.100129,1.175664,0.256469,-2.056124,-2.661384,7.530987,16.464411,-23.351497,-9.698776,0.119617,0.216386,0.000000,-0.184461,0.367953,-0.000000
2.990000,1.260652,-1.075473,-1.391775,2.276999,0.541517,-0.588606,-2.119867,1.147886,0.331269,-1.890815,-2.895941,7.426885,16.748720,-24.173048,-10.940568,0.117636,0.220024,0.000000,-0.212026,0.354397,-0.000000
3.000000,1.283315,-1.070001,-1.397644,2.255709,0.552847,-0.584924,-2.137933,1.117706,0.404970,-1.722574,-3.139204,7.310750,16.739126,-23.837689,-12.459485,0.115370,0.223520,0.000000,-0.241171,0.339898,-0.000000
3.010000,1.305765,-1.064417,-1.403471,2.234246,0.563863,-0.580511,-2.154343,1.085120,0.477432,-1.559947,-3.377419,7.179320,16.618649,-23.485452,-13.925978,0.112812,0.226867,0.000000,-0.270556,0.325211,0.000000
3.020000,1.328000,-1.058724,-1.409251,2.212627,0.574542,-0.575380,-2.169069,1.050195,0.548500,-1.382587,-3.605806,7.031383,18.037491,-22.472552,-15.553332,0.109961,0.230056,0.000000,-0.299620,0.308210,0.000000
3.030000,1.350017,-1.052927,-1.414977,2.190870,0.584859,-0.569546,-2.182037,1.013007,0.618018,-1.216317,-3.832777,6.870526,15.187779,-22.915736,-16.607679,0.106818,0.233071,0.000000,-0.329228,0.291561,-0.000000
3.040000,1.371817,-1.047028,-1.420640,2.168992,0.594794,-0.563025,-2.193443,0.973544,0.685870,-1.062464,-4.057829,6.697323,16.400141,-21.780629,-18.127402,0.103374,0.235923,0.000000,-0.359305,0.275424,0.000000
3.050000,1.393397,-1.041033,-1.426235,2.147007,0.604323,-0.555834,-2.203228,0.931896,0.751912,-0.895316,-4.270619,6.509027,16.210200,-21.059153,-19.421039,0.099634,0.238600,0.000000,-0.388677,0.257061,0.000000
3.060000,1.414757,-1.034943,-1.431754,2.124933,0.613425,-0.547993,-2.211334,0.888190,0.816018,-0.725005,-4.468058,6.310312,16.240994,-20.045663,-20.629896,0.095605,0.241086,0.000000,-0.416926,0.237596,0.000000
3.070000,1.435895,-1.028766,-1.437193,2.102786,0.622080,-0.539521,-2.217858,0.842438,0.878053,-0.585339,-4.686256,6.093710,13.251837,-21.996390,-22.371952,0.091283,0.243384,0.000000,-0.448025,0.220372,-0.000000
3.080000,1.456812,-1.022503,-1.442543,2.080580,0.630267,-0.530439,-2.222968,0.794577,0.937869,-0.427228,-4.874470,5.869558,18.416584,-15.584136,-22.437639,0.086656,0.245502,0.000000,-0.476254,0.200524,0.000000
3.090000,1.477507,-1.016162,-1.447799,2.058332,0.637966,-0.520771,-2.226322,0.745071,0.995425,-0.248659,-5.029731,5.638951,15.717289,-17.055256,-23.983226,0.081771,0.247399,0.000000,-0.501140,0.177811,0.000000
3.100000,1.497979,-1.009746,-1.452956,2.036059,0.645163,-0.510539,-2.228067,0.693898,1.050591,-0.099568,-5.201785,5.392770,15.667981,-15.751909,-24.929978,0.076622,0.249080,0.000000,-0.528226,0.157297,0.000000
3.110000,1.518228,-1.003260,-1.458008,2.013776,0.651839,-0.499768,-2.228291,0.641109,1.103262,0.054233,-5.354079,5.140104,15.450120,-14.515187,-25.798239,0.071214,0.250549,0.000000,-0.553288,0.135611,0.000000
3.120000,1.538254,-0.996711,-1.462950,1.991499,0.657980,-0.488482,-2.226960,0.586874,1.153349,0.212668,-5.490245,4.875154,15.879314,-12.888468,-26.976935,0.065563,0.251794,0.000000,-0.576668,0.112600,0.000000
3.130000,1.558058,-0.990103,-1.467776,1.969242,0.663572,-0.476710,-2.224062,0.531339,1.200750,0.364313,-5.615443,4.605065,14.432854,-12.150421,-27.020924,0.059685,0.252807,0.000000,-0.598810,0.089708,-0.000000
3.140000,1.577639,-0.983441,-1.472483,1.947022,0.668603,-0.464476,-2.219702,0.474600,1.245438,0.508327,-5.729547,4.330936,14.719070,-10.485920,-27.994241,0.053591,0.253593,0.000000,-0.619613,0.067097,0.000000
3.150000,1.596998,-0.976732,-1.477064,1.924853,0.673061,-0.451810,-2.213879,0.416809,1.287333,0.655547,-5.826595,4.047194,14.364083,-9.098428,-28.536983,0.047300,0.254147,0.000000,-0.638325,0.043453,0.000000
3.160000,1.616136,-0.969982,-1.481518,1.902749,0.676936,-0.438739,-2.206653,0.358093,1.326379,0.787943,-5.914664,3.761647,13.805116,-7.762339,-28.959976,0.040828,0.254469,0.000000,-0.655751,0.021013,0.000000
3.170000,1.635054,-0.963196,-1.485838,1.880725,0.680220,-0.425292,-2.198002,0.298621,1.362520,0.947142,-5.974899,3.464597,16.383210,-5.008743,-30.045321,0.034198,0.254552,0.000000,-0.669648,-0.005060,-0.000000
3.180000,1.653751,-0.956380,-1.490022,1.858794,0.682906,-0.411499,-2.187807,0.238607,1.395680,1.080946,-6.030052,3.169222,10.321677,-6.042706,-29.002657,0.027438,0.254377,0.000000,-0.682525,-0.028589,0.000000
3.190000,1.672230,-0.949540,-1.494067,1.836972,0.684990,-0.397388,-2.176489,0.178028,1.425918,1.186801,-6.081018,2.876960,12.508048,-3.415208,-29.828030,0.020550,0.253991,0.000000,-0.694427,-0.049151,-0.000000
3.200000,1.690491,-0.942682,-1.497969,1.815269,0.686466,-0.382990,-2.163961,0.117090,1.453184,1.316939,-6.104563,2.576306,11.861160,-2.023945,-29.895713,0.013563,0.253380,0.000000,-0.702598,-0.072866,0.000000
3.210000,1.708536,-0.935812,-1.501726,1.793697,0.687331,-0.368335,-2.150179,0.055992,1.477465,1.439215,-6.111917,2.280154,11.438986,-0.468465,-29.840803,0.006507,0.252537,0.000000,-0.708264,-0.095733,-0.000000
3.220000,1.726365,-0.928937,-1.505335,1.772269,0.687585,-0.353451,-2.135284,-0.005179,1.498748,1.535084,-6.123341,1.974993,8.853608,-0.825791,-30.671351,-0.000604,0.251476,0.000000,-0.713741,-0.115993,-0.000000
3.230000,1.743982,-0.922063,-1.508794,1.750994,0.687228,-0.338370,-2.119440,-0.066377,1.516994,1.639778,-6.107646,1.677628,12.119542,3.993486,-28.771553,-0.007755,0.250214,0.000000,-0.715345,-0.137073,-0.000000
3.240000,1.761386,-0.915195,-1.512102,1.729884,0.686259,-0.323121,-2.102445,-0.127230,1.532336,1.754814,-6.063591,1.389618,9.756690,3.812889,-29.326861,-0.014896,0.248731,0.000000,-0.712926,-0.159074,0.000000
3.250000,1.778580,-0.908339,-1.515256,1.708949,0.684684,-0.307733,-2.084448,-0.187677,1.544758,1.844495,-6.022978,1.095695,9.306001,5.302587,-28.935425,-0.022014,0.247043,0.000000,-0.710153,-0.178341,-0.000000
3.260000,1.795565,-0.901503,-1.518256,1.688198,0.682507,-0.292235,-2.065545,-0.247638,1.554283,1.935176,-5.967303,0.810266,8.784438,6.607137,-28.461606,-0.029091,0.245163,0.000000,-0.704892,-0.197403,0.000000
3.270000,1.812344,-0.894691,-1.521101,1.667641,0.679734,-0.276657,-2.045766,-0.306917,1.560954,2.019755,-5.883785,0.523732,8.174524,9.331339,-28.518502,-0.036097,0.243096,0.000000,-0.695615,-0.215687,0.000000
3.280000,1.828919,-0.887910,-1.523789,1.647286,0.676372,-0.261026,-2.025166,-0.365307,1.564792,2.099572,-5.796741,0.246737,7.789657,8.045652,-26.859199,-0.043000,0.240850,0.000000,-0.685235,-0.233006,0.000000
3.290000,1.845291,-0.881166,-1.526321,1.627140,0.672430,-0.245370,-2.003790,-0.422851,1.565927,2.174652,-5.707705,-0.019588,7.181696,10.518208,-26.712249,-0.049799,0.238435,0.000000,-0.673985,-0.249305,-0.000000
3.300000,1.861462,-0.874464,-1.528696,1.607212,0.667918,-0.229716,-1.981694,-0.479363,1.564399,2.243567,-5.593056,-0.284605,6.645157,11.639626,-25.964104,-0.056466,0.235860,0.000000,-0.659072,-0.264655,0.000000
3.310000,1.877436,-0.867809,-1.530915,1.587508,0.662847,-0.214090,-1.958936,-0.534700,1.560272,2.307045,-5.472829,-0.539280,6.097894,12.717210,-25.155583,-0.062977,0.233137,0.000000,-0.642953,-0.278864,-0.000000
3.320000,1.893213,-0.861208,-1.532978,1.568035,0.657229,-0.198519,-1.935568,-0.588758,1.553625,2.365956,-5.335959,-0.789324,5.637629,14.335106,-24.656189,-0.069316,0.230275,0.000000,-0.624344,-0.292174,0.000000
3.330000,1.908797,-0.854666,-1.534886,1.548799,0.651077,-0.183026,-1.911638,-0.641401,1.544524,2.418818,-5.192874,-1.028282,4.933012,14.261382,-23.121775,-0.075461,0.227284,0.000000,-0.604577,-0.304226,0.000000
3.340000,1.924190,-0.848189,-1.536639,1.529804,0.644405,-0.167636,-1.887212,-0.692601,1.533101,2.465550,-5.044647,-1.255425,4.459996,15.687394,-22.490192,-0.081405,0.224177,0.000000,-0.583852,-0.314991,-0.000000
3.350000,1.939394,-0.841780,-1.538239,1.511056,0.637230,-0.152372,-1.862341,-0.742240,1.519433,2.507623,-4.882022,-1.476342,3.907331,16.512860,-21.497116,-0.087130,0.220966,0.000000,-0.561108,-0.324781,0.000000
3.360000,1.954412,-0.835446,-1.539687,1.492559,0.629566,-0.137255,-1.837096,-0.790229,1.503611,2.540079,-4.714686,-1.686353,3.280930,17.254385,-20.483956,-0.092625,0.217663,0.000000,-0.537577,-0.332912,0.000000
3.370000,1.969246,-0.829190,-1.540985,1.474315,0.621431,-0.122306,-1.811504,-0.836485,1.485742,2.579663,-4.534302,-1.885779,3.960913,18.508116,-19.412361,-0.097876,0.214277,0.000000,-0.512396,-0.341313,0.000000
3.380000,1.983899,-0.823019,-1.542134,1.456330,0.612843,-0.107546,-1.785555,-0.880908,1.465930,2.605129,-4.351114,-2.074843,1.112674,18.107891,-18.397311,-0.102871,0.210811,0.000000,-0.486778,-0.347576,-0.000000
3.390000,1.998374,-0.816935,-1.543137,1.438605,0.603819,-0.092994,-1.759457,-0.923504,1.444280,2.615632,-4.166266,-2.253352,1.672713,19.154895,-17.286152,-0.107611,0.207296,0.000000,-0.460913,-0.351621,-0.000000
3.400000,2.012672,-0.810944,-1.543995,1.421141,0.594379,-0.078666,-1.733208,-0.964193,1.420901,2.632843,-3.970854,-2.420651,1.092288,19.610879,-16.187371,-0.112085,0.203736,0.000000,-0.433899,-0.355920,-0.000000
3.410000,2.026797,-0.805049,-1.544711,1.403941,0.584542,-0.064581,-1.706808,-1.002940,1.395902,2.647041,-3.778695,-2.577179,0.691484,19.893110,-15.082285,-0.116291,0.200135,0.000000,-0.407362,-0.359395,0.000000
3.420000,2.040752,-0.799254,-1.545287,1.387005,0.574327,-0.050753,-1.680366,-1.039671,1.369397,2.636968,-3.563255,-2.721959,-1.672793,22.132074,-13.907494,-0.120222,0.196512,0.000000,-0.378266,-0.359643,-0.000000
3.430000,2.054538,-0.793563,-1.545727,1.370333,0.563755,-0.037198,-1.654033,-1.074248,1.341499,2.635279,-3.358351,-2.856045,1.370372,18.805379,-12.911320,-0.123862,0.192888,0.000000,-0.350624,-0.360419,0.000000
3.440000,2.068160,-0.787980,-1.546032,1.353925,0.552848,-0.023928,-1.627619,-1.106888,1.312311,2.643600,-3.166077,-2.979515,-0.742868,20.701153,-11.749594,-0.127241,0.189245,0.000000,-0.324699,-0.361919,0.000000
3.450000,2.081618,-0.782507,-1.546206,1.337781,0.541624,-0.010956,-1.601254,-1.137484,1.281948,2.629305,-2.953526,-3.091358,-1.076554,20.741802,-10.655842,-0.130347,0.185602,0.000000,-0.296713,-0.360474,-0.000000
3.460000,2.094916,-0.777148,-1.546252,1.321900,0.530105,0.001708,-1.575022,-1.165967,1.250510,2.616452,-2.742652,-3.194699,-1.464518,20.861915,-9.618452,-0.133177,0.181973,0.000000,-0.269224,-0.358890,0.000000
3.470000,2.108057,-0.771906,-1.546173,1.306280,0.518312,0.014051,-1.548936,-1.192379,1.218120,2.600309,-2.541625,-3.280138,-1.788478,19.882200,-7.857406,-0.135738,0.178363,0.000000,-0.243302,-0.356470,-0.000000
3.480000,2.121043,-0.766783,-1.545972,1.290920,0.506265,0.026067,-1.523030,-1.216773,1.184923,2.580168,-2.333688,-3.359995,-2.238589,21.714961,-8.129520,-0.138041,0.174780,0.000000,-0.216895,-0.353417,0.000000
3.490000,2.133876,-0.761782,-1.545653,1.275819,0.493984,0.037747,-1.497346,-1.239025,1.150933,2.556107,-2.118520,-3.435023,-2.545426,20.760141,-6.491972,-0.140074,0.171229,0.000000,-0.189983,-0.349770,0.000000
3.500000,2.146560,-0.756904,-1.545218,1.260972,0.481491,0.049084,-1.471917,-1.259188,1.116285,2.529066,-1.913940,-3.493216,-2.887929,20.698983,-5.538629,-0.141847,0.167718,0.000000,-0.164759,-0.345430,0.000000
3.510000,2.159096,-0.752152,-1.544672,1.246379,0.468807,0.060071,-1.446800,-1.277285,1.081085,2.493207,-1.705362,-3.545408,-3.325460,20.607278,-4.620177,-0.143368,0.164255,0.000000,-0.139420,-0.339986,-0.000000
3.520000,2.171488,-0.747529,-1.544018,1.232035,0.455952,0.070704,-1.421990,-1.293332,1.045430,2.471395,-1.505633,-3.583103,-1.962960,19.722620,-3.199694,-0.144642,0.160841,0.000000,-0.115589,-0.335826,-0.000000
3.530000,2.183738,-0.743034,-1.543259,1.217939,0.442947,0.080979,-1.397429,-1.307384,1.009439,2.434509,-1.302837,-3.615296,-5.440569,20.842296,-3.252795,-0.145679,0.157474,0.000000,-0.091730,-0.329922,-0.000000
3.540000,2.195848,-0.738670,-1.542400,1.204085,0.429811,0.090892,-1.373361,-1.319375,0.973138,2.381422,-1.096827,-3.642685,-4.236256,19.958323,-1.951912,-0.146476,0.154179,0.000000,-0.067823,-0.322197,-0.000000
3.550000,2.207820,-0.734438,-1.541443,1.190470,0.416566,0.100441,-1.349739,-1.329360,0.936635,2.341900,-0.900452,-3.656815,-4.598094,19.703068,-1.156684,-0.147042,0.150954,0.000000,-0.045480,-0.315780,-0.000000
3.560000,2.219658,-0.730339,-1.540392,1.177089,0.403231,0.109624,-1.326532,-1.337403,0.900020,2.299726,-0.709383,-3.664876,-4.770132,19.294936,-0.385835,-0.147389,0.147796,0.000000,-0.024057,-0.309033,0.000000
3.570000,2.231363,-0.726374,-1.539252,1.163938,0.389824,0.118441,-1.303826,-1.343497,0.863368,2.237958,-0.507403,-3.663952,-6.668941,20.327772,0.491508,-0.147519,0.144715,0.000000,-0.001796,-0.300090,-0.000000
3.580000,2.242937,-0.722543,-1.538025,1.151010,0.376367,0.126892,-1.281735,-1.347603,0.826762,2.185545,-0.319052,-3.656704,-3.780904,17.313096,0.949795,-0.147431,0.141724,0.000000,0.018622,-0.292154,-0.000000
3.590000,2.254384,-0.718846,-1.536715,1.138302,0.362878,0.134977,-1.260071,-1.349935,0.790253,2.144013,-0.145720,-3.643594,-5.440021,18.123262,1.740039,-0.147153,0.138803,0.000000,0.037087,-0.285387,-0.000000
3.600000,2.265704,-0.715285,-1.535326,1.125807,0.349375,0.142697,-1.238930,-1.350473,0.753917,2.084623,0.036749,-3.622655,-5.517738,17.594229,2.367777,-0.146686,0.135962,0.000000,0.056242,-0.276678,0.000000
3.610000,2.276901,-0.711859,-1.533862,1.113521,0.335875,0.150056,-1.218361,-1.349224,0.717813,2.028870,0.212471,-3.597246,-5.631379,17.137832,2.937203,-0.146032,0.133207,0.000000,0.074396,-0.268402,0.000000
3.620000,2.287975,-0.708568,-1.532326,1.101438,0.322396,0.157054,-1.198356,-1.346272,0.682009,1.972047,0.375680,-3.561924,-5.727972,15.897818,3.898361,-0.145204,0.130537,0.000000,0.090882,-0.259980,-0.000000
3.630000,2.298930,-0.705411,-1.530722,1.089552,0.308955,0.163697,-1.178923,-1.341708,0.646582,1.914416,0.538700,-3.524080,-5.794947,16.715813,3.657335,-0.144215,0.127953,0.000000,0.107149,-0.251552,0.000000
3.640000,2.309767,-0.702388,-1.529054,1.077858,0.295567,0.169987,-1.160070,-1.335495,0.611532,1.856171,0.701920,-3.484393,-5.852954,15.525326,4.498728,-0.143062,0.125453,0.000000,0.123253,-0.243147,-0.000000
3.650000,2.320488,-0.699499,-1.527324,1.066349,0.282250,0.175929,-1.141801,-1.327719,0.576926,1.797432,0.852563,-3.436135,-5.890115,15.000309,4.922902,-0.141756,0.123040,0.000000,0.137762,-0.234692,-0.000000
3.660000,2.331094,-0.696743,-1.525536,1.055020,0.269018,0.181528,-1.124123,-1.318452,0.542817,1.738124,0.999821,-3.385178,-5.917686,14.438713,5.319054,-0.140308,0.120712,0.000000,0.151753,-0.226259,0.000000
3.670000,2.341589,-0.694119,-1.523694,1.043864,0.255886,0.186787,-1.107036,-1.307742,0.509240,1.679578,1.141196,-3.329361,-5.837047,13.845667,5.784630,-0.138724,0.118469,0.000000,0.164946,-0.217960,0.000000
3.680000,2.351972,-0.691625,-1.521802,1.032877,0.242868,0.191714,-1.090534,-1.295647,0.476238,1.620425,1.276936,-3.270730,-5.992595,13.301225,5.934241,-0.137011,0.116310,0.000000,0.177416,-0.209678,-0.000000
3.690000,2.362247,-0.689261,-1.519861,1.022052,0.229977,0.196314,-1.074629,-1.282222,0.443833,1.560740,1.406976,-3.209697,-5.893982,12.694735,6.321301,-0.135178,0.114236,0.000000,0.189177,-0.201424,0.000000
3.700000,2.372414,-0.687025,-1.517876,1.011382,0.217227,0.200593,-1.059315,-1.267528,0.412058,1.502177,1.530906,-3.144875,-5.864716,12.101665,6.583505,-0.133230,0.112244,0.000000,0.200179,-0.193353,0.000000
3.710000,2.382475,-0.684916,-1.515850,1.000863,0.204631,0.204557,-1.044587,-1.251622,0.380940,1.443487,1.649349,-3.078357,-5.825605,11.512507,6.807291,-0.131176,0.110334,0.000000,0.210534,-0.185357,-0.000000
3.720000,2.392432,-0.682932,-1.513786,0.990489,0.192199,0.208214,-1.030440,-1.234567,0.350505,1.386123,1.760469,-3.007983,-5.689781,10.783080,7.172921,-0.129023,0.108504,0.000000,0.220034,-0.177558,0.000000
3.730000,2.402285,-0.681071,-1.511687,0.980253,0.179943,0.211570,-1.016864,-1.216429,0.320782,1.328794,1.866513,-2.936875,-5.775731,10.427826,7.041133,-0.126777,0.106753,0.000000,0.228968,-0.169857,-0.000000
3.740000,2.412037,-0.679332,-1.509556,0.970149,0.167874,0.214632,-1.003864,-1.197253,0.291768,1.271540,1.967578,-2.865444,-5.628694,9.713018,7.330864,-0.124445,0.105079,0.000000,0.237363,-0.162257,-0.000000
3.750000,2.421689,-0.677713,-1.507395,0.960173,0.156001,0.217408,-0.991428,-1.177103,0.263485,1.215870,2.061394,-2.791119,-5.548487,9.122853,7.440150,-0.122033,0.103481,0.000000,0.244961,-0.154883,0.000000
3.760000,2.431241,-0.676212,-1.505209,0.950319,0.144335,0.219904,-0.979547,-1.156041,0.235946,1.160283,2.150046,-2.716481,-5.467715,8.538881,7.525183,-0.119547,0.101958,0.000000,0.252023,-0.147603,0.000000
3.770000,2.440695,-0.674826,-1.502998,0.940581,0.132883,0.222129,-0.968211,-1.134127,0.209161,1.107463,2.231549,-2.640310,-5.191780,7.829680,7.664404,-0.116995,0.100507,0.000000,0.258335,-0.140675,-0.000000
3.780000,2.450053,-0.673553,-1.500767,0.930953,0.121655,0.224090,-0.957399,-1.111426,0.183140,1.054440,2.308068,-2.564123,-5.414299,7.477092,7.568173,-0.114382,0.099125,0.000000,0.264150,-0.133808,-0.000000
3.790000,2.459315,-0.672392,-1.498517,0.921431,0.110657,0.225794,-0.947124,-1.087981,0.157877,1.001163,2.379753,-2.488196,-5.141954,6.793232,7.654808,-0.111714,0.097813,0.000000,0.269494,-0.126993,-0.000000
3.800000,2.468482,-0.671339,-1.496252,0.912009,0.099897,0.227250,-0.937365,-1.063855,0.133379,0.950802,2.444532,-2.411435,-5.026980,6.231503,7.652560,-0.108995,0.096568,0.000000,0.274147,-0.120540,0.000000
3.810000,2.477555,-0.670393,-1.493973,0.902682,0.089382,0.228465,-0.928102,-1.039107,0.109649,0.902074,2.504357,-2.334675,-4.879988,5.679651,7.640484,-0.106232,0.095387,0.000000,0.278325,-0.114321,-0.000000
3.820000,2.486536,-0.669551,-1.491683,0.893445,0.079117,0.229446,-0.919331,-1.013791,0.086680,0.851728,2.557646,-2.259198,-5.030142,5.033311,7.506454,-0.103431,0.094269,0.000000,0.281890,-0.108014,-0.000000
3.830000,2.495425,-0.668810,-1.489385,0.884294,0.069108,0.230201,-0.911055,-0.987969,0.064466,0.804810,2.606180,-2.183456,-4.347575,4.676936,7.641187,-0.100596,0.093213,0.000000,0.285005,-0.102112,0.000000
3.840000,2.504222,-0.668168,-1.487080,0.875223,0.059359,0.230738,-0.903222,-0.961682,0.043012,0.761599,2.650134,-2.107524,-4.453336,4.061496,7.487819,-0.097732,0.092215,0.000000,0.287693,-0.096638,0.000000
3.850000,2.512929,-0.667622,-1.484771,0.866228,0.049876,0.231063,-0.895830,-0.934988,0.022309,0.717115,2.687904,-2.033280,-4.284069,3.548535,7.413831,-0.094844,0.091272,0.000000,0.289820,-0.091103,-0.000000
3.860000,2.521547,-0.667169,-1.482459,0.857305,0.040661,0.231186,-0.888873,-0.907939,0.002345,0.674515,2.721142,-1.959544,-4.132922,3.049428,7.324714,-0.091937,0.090384,0.000000,0.291541,-0.085810,0.000000
3.870000,2.530076,-0.666808,-1.480148,0.848449,0.031718,0.231113,-0.882326,-0.880586,-0.016886,0.635407,2.748459,-1.886885,-3.787548,2.465950,7.211725,-0.089015,0.089547,0.000000,0.292722,-0.080924,-0.000000
3.880000,2.538516,-0.666534,-1.477838,0.839657,0.023050,0.230851,-0.876164,-0.852983,-0.035395,0.596687,2.771552,-1.815208,-3.959394,2.156400,7.122463,-0.086083,0.088758,0.000000,0.293537,-0.076125,0.000000
3.890000,2.546869,-0.666346,-1.475531,0.830924,0.014659,0.230407,-0.870392,-0.825168,-0.053193,0.558235,2.790618,-1.744598,-3.630274,1.608448,6.991446,-0.083145,0.088018,0.000000,0.294009,-0.071401,0.000000
3.900000,2.555135,-0.666240,-1.473230,0.822248,0.006547,0.229789,-0.864986,-0.797190,-0.070292,0.523235,2.804194,-1.675350,-3.469621,1.159210,6.863516,-0.080205,0.087324,0.000000,0.293992,-0.067070,-0.000000
3.910000,2.563314,-0.666214,-1.470936,0.813624,-0.001284,0.229004,-0.859928,-0.769096,-0.086704,0.488471,2.813824,-1.607296,-3.319401,0.725477,6.730252,-0.077267,0.086673,0.000000,0.293642,-0.062805,0.000000
3.920000,2.571407,-0.666265,-1.468651,0.805048,-0.008835,0.228057,-0.855198,-0.740931,-0.102444,0.458354,2.818354,-1.540904,-2.862231,0.224682,6.562191,-0.074334,0.086062,0.000000,0.292845,-0.059048,-0.000000
3.930000,2.579415,-0.666390,-1.466375,0.796519,-0.016103,0.226957,-0.850763,-0.712741,-0.117526,0.427905,2.819243,-1.475754,-3.232178,-0.043139,6.467649,-0.071411,0.085489,0.000000,0.291746,-0.055294,-0.000000
3.940000,2.587338,-0.666586,-1.464112,0.788032,-0.023089,0.225709,-0.846643,-0.684558,-0.131963,0.396924,2.816692,-1.411867,-2.803632,-0.507016,6.294198,-0.068500,0.084954,0.000000,0.290366,-0.051522,-0.000000
3.950000,2.595176,-0.666850,-1.461862,0.779585,-0.029794,0.224320,-0.842807,-0.656423,-0.145770,0.370486,2.809509,-1.349750,-2.643309,-0.884966,6.143765,-0.065605,0.084454,0.000000,0.288586,-0.048240,-0.000000
3.960000,2.602930,-0.667181,-1.459626,0.771175,-0.036218,0.222796,-0.839227,-0.628378,-0.158960,0.345921,2.798947,-1.288551,-2.449766,-1.248430,6.001080,-0.062729,0.083986,0.000000,0.286526,-0.045171,0.000000
3.970000,2.610600,-0.667574,-1.457406,0.762799,-0.042362,0.221143,-0.835897,-0.600458,-0.171553,0.319839,2.784373,-1.230602,-2.590964,-1.641205,5.680430,-0.059875,0.083549,0.000000,0.284137,-0.041997,0.000000
3.980000,2.618186,-0.668027,-1.455204,0.754456,-0.048228,0.219367,-0.832816,-0.572701,-0.183573,0.297791,2.766650,-1.173016,-1.812783,-1.900075,5.839606,-0.057047,0.083143,0.000000,0.281485,-0.039243,0.000000
3.990000,2.625689,-0.668538,-1.453019,0.746142,-0.053817,0.217473,-0.829925,-0.545135,-0.195014,0.280044,2.745959,-1.115667,-1.913133,-2.258670,5.537530,-0.054246,0.082761,0.000000,0.278586,-0.036931,-0.000000
4.000000,2.633109,-0.669103,-1.450855,0.737857,-0.059131,0.215468,-0.827222,-0.517794,-0.205898,0.261037,2.721720,-1.061475,-1.711849,-2.563594,5.393375,-0.051476,0.082404,0.000000,0.275400,-0.034534,-0.000000
4.010000,2.640446,-0.669719,-1.448710,0.729597,-0.064174,0.213357,-0.824694,-0.490709,-0.216245,0.244781,2.694747,-1.008105,-1.522797,-2.852439,5.247965,-0.048739,0.082069,0.000000,0.271992,-0.032426,0.000000
4.020000,2.647701,-0.670385,-1.446588,0.721362,-0.068947,0.211145,-0.822319,-0.463911,-0.226068,0.230734,2.664501,-0.956813,-1.302600,-3.171218,5.042602,-0.046037,0.081754,0.000000,0.268313,-0.030564,0.000000
4.030000,2.654873,-0.671097,-1.444488,0.713151,-0.073453,0.208837,-0.820074,-0.437427,-0.235385,0.218394,2.631859,-0.906577,-1.165913,-3.353879,5.005816,-0.043373,0.081456,0.000000,0.264444,-0.028888,0.000000
4.040000,2.661964,-0.671853,-1.442411,0.704961,-0.077696,0.206439,-0.817945,-0.411281,-0.244203,0.207737,2.597002,-0.857334,-0.949565,-3.638467,4.811044,-0.040749,0.081175,0.000000,0.260402,-0.027395,0.000000
4.050000,2.668973,-0.672650,-1.440359,0.696791,-0.081680,0.203955,-0.815912,-0.385497,-0.252539,0.199264,2.559337,-0.810073,-0.761332,-3.868736,4.673557,-0.038166,0.080907,0.000000,0.256131,-0.026139,0.000000
4.060000,2.675900,-0.673486,-1.438332,0.688642,-0.085407,0.201390,-0.813955,-0.360100,-0.260407,0.192463,2.519666,-0.763821,-0.575969,-4.083724,4.540896,-0.035627,0.080651,0.000000,0.251703,-0.025063,0.000000
4.070000,2.682745,-0.674358,-1.436332,0.680512,-0.088883,0.198748,-0.812055,-0.335112,-0.267822,0.187953,2.477522,-0.719581,-0.348883,-4.322822,4.343051,-0.033133,0.080405,0.000000,0.247075,-0.024233,0.000000
4.080000,2.689510,-0.675263,-1.434358,0.672401,-0.092111,0.196035,-0.810191,-0.310555,-0.274801,0.185007,2.433676,-0.676204,-0.241371,-4.443332,4.334012,-0.030686,0.080166,0.000000,0.242318,-0.023569,0.000000
4.090000,2.696194,-0.676199,-1.432411,0.664308,-0.095096,0.193254,-0.808350,-0.286444,-0.281349,0.183573,2.388298,-0.633606,-0.023118,-4.650063,4.150436,-0.028287,0.079933,0.000000,0.237446,-0.023063,0.000000
4.100000,2.702796,-0.677164,-1.430493,0.656234,-0.097842,0.190409,-0.806511,-0.262797,-0.287480,0.184342,2.340892,-0.592879,0.153979,-4.808704,4.031355,-0.025938,0.079703,0.000000,0.232413,-0.022793,-0.000000
4.110000,2.709318,-0.678155,-1.428603,0.648178,-0.100353,0.187505,-0.804657,-0.239630,-0.293209,0.186755,2.292145,-0.553003,0.329691,-4.953625,3.916267,-0.023639,0.079476,0.000000,0.227281,-0.022694,-0.000000
4.120000,2.715760,-0.679170,-1.426743,0.640141,-0.102636,0.184546,-0.802770,-0.216959,-0.298547,0.190941,2.241718,-0.514820,0.505438,-5.114364,3.749877,-0.021392,0.079249,0.000000,0.222018,-0.022785,-0.000000
4.130000,2.722121,-0.680207,-1.424913,0.632123,-0.104694,0.181536,-0.800833,-0.194799,-0.303508,0.196817,2.190222,-0.477386,0.668967,-5.182093,3.738360,-0.019199,0.079020,0.000000,0.216680,-0.023050,0.000000
4.140000,2.728402,-0.681263,-1.423112,0.624124,-0.106534,0.178477,-0.798829,-0.173158,-0.308096,0.204342,2.137810,-0.440624,0.837169,-5.313667,3.585575,-0.017059,0.078787,0.000000,0.211280,-0.023484,0.000000
4.150000,2.734604,-0.682337,-1.421343,0.616147,-0.108159,0.175375,-0.796740,-0.152048,-0.312326,0.213533,2.084122,-0.405410,0.998604,-5.406459,3.486428,-0.014974,0.078549,0.000000,0.205784,-0.024096,0.000000
4.160000,2.740725,-0.683426,-1.419605,0.608190,-0.109576,0.172232,-0.794553,-0.131478,-0.316207,0.224286,2.029707,-0.370919,1.155323,-5.486577,3.391438,-0.012943,0.078305,0.000000,0.200242,-0.024868,-0.000000
4.170000,2.746768,-0.684528,-1.417899,0.600256,-0.110790,0.169052,-0.792249,-0.111457,-0.319749,0.236663,1.974321,-0.337761,1.315314,-5.577034,3.261138,-0.010969,0.078051,0.000000,0.194630,-0.025812,0.000000
4.180000,2.752731,-0.685641,-1.416224,0.592345,-0.111807,0.165838,-0.789815,-0.091993,-0.322964,0.250490,1.918449,-0.305258,1.449151,-5.594983,3.240750,-0.009051,0.077788,0.000000,0.188993,-0.026904,0.000000
4.190000,2.758615,-0.686763,-1.414582,0.584460,-0.112632,0.162594,-0.787235,-0.073089,-0.325856,0.265712,1.862224,-0.273345,1.598363,-5.659776,3.122009,-0.007189,0.077513,0.000000,0.183343,-0.028139,-0.000000
4.200000,2.764420,-0.687893,-1.412972,0.576601,-0.113271,0.159322,-0.784495,-0.054751,-0.328435,0.282403,1.805386,-0.242632,1.735080,-5.693960,3.041572,-0.005384,0.077224,0.000000,0.177654,-0.029529,0.000000
4.210000,2.770147,-0.689028,-1.411396,0.568771,-0.113729,0.156026,-0.781583,-0.036982,-0.330711,0.300304,1.748341,-0.212566,1.864249,-5.717485,2.964135,-0.003636,0.076922,0.000000,0.171964,-0.031045,-0.000000
4.220000,2.775795,-0.690167,-1.409852,0.560970,-0.114012,0.152709,-0.778483,-0.019785,-0.332690,0.319854,1.691032,-0.183412,2.025232,-5.738454,2.874895,-0.001945,0.076603,0.000000,0.166265,-0.032730,-0.000000
4.230000,2.781366,-0.691308,-1.408341,0.553202,-0.114127,0.149373,-0.775183,-0.003161,-0.334381,0.340379,1.633691,-0.154893,2.078094,-5.728051,2.829782,-0.000311,0.076267,0.000000,0.160580,-0.034519,-0.000000
4.240000,2.786860,-0.692449,-1.406864,0.545467,-0.114078,0.146022,-0.771673,0.012889,-0.335789,0.361791,1.576421,-0.126965,2.223177,-5.728367,2.748369,0.001267,0.075912,0.000000,0.154917,-0.036400,0.000000
4.250000,2.792276,-0.693589,-1.405421,0.537769,-0.113871,0.142658,-0.767942,0.028367,-0.336923,0.384642,1.519189,-0.099848,2.327564,-5.712400,2.683249,0.002788,0.075538,0.000000,0.149272,-0.038432,-0.000000
4.260000,2.797615,-0.694726,-1.404011,0.530109,-0.113512,0.139285,-0.763977,0.043274,-0.337788,0.408529,1.462275,-0.073243,2.429346,-5.685781,2.622132,0.004252,0.075143,0.000000,0.143671,-0.040571,-0.000000
4.270000,2.802878,-0.695859,-1.402635,0.522490,-0.113007,0.135904,-0.759770,0.057612,-0.338391,0.433028,1.405347,-0.047545,2.488054,-5.682101,2.533544,0.005661,0.074727,0.000000,0.138080,-0.042780,-0.000000
4.280000,2.808065,-0.696986,-1.401293,0.514915,-0.112362,0.132518,-0.755312,0.071383,-0.338740,0.458663,1.349004,-0.022237,2.638377,-5.584626,2.528791,0.007014,0.074287,0.000000,0.132558,-0.045106,0.000000
4.290000,2.813176,-0.698106,-1.399985,0.507385,-0.111581,0.129130,-0.750592,0.084595,-0.338837,0.485391,1.293349,0.002723,2.686911,-5.561649,2.447896,0.008313,0.073824,0.000000,0.127114,-0.047546,0.000000
4.300000,2.818213,-0.699217,-1.398711,0.499904,-0.110672,0.125742,-0.745604,0.097251,-0.338689,0.512531,1.237937,0.026858,2.759582,-5.503277,2.395384,0.009557,0.073336,0.000000,0.121701,-0.050035,0.000000
4.310000,2.823175,-0.700319,-1.397470,0.492474,-0.109638,0.122357,-0.740340,0.109356,-0.338301,0.540284,1.183168,0.050509,2.820159,-5.440133,2.342788,0.010747,0.072823,0.000000,0.116360,-0.052593,-0.000000
4.320000,2.828063,-0.701409,-1.396264,0.485098,-0.108486,0.118976,-0.734793,0.120917,-0.337680,0.569188,1.129240,0.073789,2.929804,-5.353361,2.305946,0.011884,0.072284,0.000000,0.111108,-0.055270,0.000000
4.330000,2.832877,-0.702488,-1.395091,0.477779,-0.107222,0.115604,-0.728956,0.131943,-0.336828,0.598231,1.075934,0.096477,2.876400,-5.307059,2.231554,0.012969,0.071718,0.000000,0.105923,-0.057970,-0.000000
4.340000,2.837618,-0.703553,-1.393951,0.470520,-0.105849,0.112241,-0.722829,0.142438,-0.335752,0.627287,1.023298,0.118574,2.963349,-5.210317,2.195497,0.014003,0.071124,0.000000,0.100809,-0.060681,0.000000
4.350000,2.842287,-0.704605,-1.392846,0.463323,-0.104375,0.108889,-0.716407,0.152412,-0.334457,0.657224,0.971669,0.140327,2.991929,-5.123528,2.147780,0.014986,0.070503,0.000000,0.095798,-0.063486,-0.000000
4.360000,2.846885,-0.705641,-1.391774,0.456193,-0.102803,0.105552,-0.709685,0.161874,-0.332947,0.687073,0.920826,0.161520,3.009990,-5.032498,2.100188,0.015919,0.069854,0.000000,0.090868,-0.066292,-0.000000
4.370000,2.851412,-0.706660,-1.390735,0.449131,-0.101139,0.102231,-0.702662,0.170833,-0.331228,0.717703,0.871143,0.182419,3.082144,-4.914821,2.070635,0.016803,0.069177,0.000000,0.086054,-0.069183,0.000000
4.380000,2.855868,-0.707663,-1.389729,0.442140,-0.099388,0.098928,-0.695332,0.179299,-0.329301,0.748008,0.822304,0.202745,2.976553,-4.852633,1.994284,0.017640,0.068471,0.000000,0.081325,-0.072052,0.000000
4.390000,2.860255,-0.708648,-1.388756,0.435225,-0.097555,0.095646,-0.687704,0.187282,-0.327175,0.777863,0.774335,0.222489,3.025655,-4.729017,1.963805,0.018430,0.067736,0.000000,0.076683,-0.074887,0.000000
4.400000,2.864573,-0.709614,-1.387816,0.428387,-0.095644,0.092386,-0.679773,0.194791,-0.324852,0.808213,0.727636,0.241940,3.010791,-4.621433,1.917732,0.019174,0.066973,0.000000,0.072166,-0.077780,-0.000000
4.410000,2.868823,-0.710560,-1.386908,0.421630,-0.093660,0.089149,-0.671540,0.201838,-0.322337,0.838324,0.682017,0.260930,2.992124,-4.508936,1.873292,0.019874,0.066180,0.000000,0.067755,-0.080660,-0.000000
4.420000,2.873005,-0.711487,-1.386033,0.414957,-0.091609,0.085939,-0.663009,0.208434,-0.319636,0.867862,0.637402,0.279340,2.931678,-4.406719,1.815515,0.020530,0.065359,0.000000,0.063442,-0.083495,-0.000000
4.430000,2.877122,-0.712392,-1.385189,0.408371,-0.089493,0.082757,-0.654183,0.214590,-0.316752,0.897298,0.594036,0.297385,2.954691,-4.265865,1.793527,0.021143,0.064510,0.000000,0.059251,-0.086330,-0.000000
4.440000,2.881173,-0.713276,-1.384378,0.401875,-0.087318,0.079605,-0.645063,0.220319,-0.313689,0.926575,0.551953,0.315070,2.881805,-4.157295,1.736565,0.021715,0.063632,0.000000,0.055184,-0.089159,-0.000000
4.450000,2.885160,-0.714139,-1.383597,0.395471,-0.085088,0.076484,-0.635655,0.225633,-0.310452,0.955054,0.510955,0.332171,2.830452,-4.035103,1.690699,0.022247,0.062727,0.000000,0.051222,-0.091922,-0.000000
4.460000,2.889083,-0.714978,-1.382848,0.389163,-0.082807,0.073396,-0.625964,0.230542,-0.307047,0.982919,0.471154,0.348742,2.767101,-3.913077,1.641692,0.022740,0.061793,0.000000,0.047374,-0.094635,0.000000
4.470000,2.892943,-0.715795,-1.382129,0.382953,-0.080479,0.070344,-0.615996,0.235061,-0.303478,1.010608,0.432807,0.365172,2.744181,-3.767596,1.626204,0.023195,0.060833,0.000000,0.043668,-0.097340,-0.000000
4.480000,2.896742,-0.716587,-1.381441,0.376844,-0.078107,0.067327,-0.605756,0.239202,-0.299746,1.037247,0.395563,0.380889,2.581481,-3.681464,1.516530,0.023614,0.059846,0.000000,0.040066,-0.099954,-0.000000
4.490000,2.900481,-0.717357,-1.380782,0.370838,-0.075696,0.064349,-0.595256,0.242976,-0.295863,1.062720,0.359413,0.395860,2.537240,-3.536739,1.495442,0.023997,0.058834,0.000000,0.036567,-0.102466,-0.000000
4.500000,2.904159,-0.718101,-1.380154,0.364939,-0.073249,0.061411,-0.584502,0.246395,-0.291830,1.087757,0.324729,0.410642,2.442732,-3.411520,1.442823,0.024346,0.057797,0.000000,0.033210,-0.104945,-0.000000
4.510000,2.907780,-0.718821,-1.379554,0.359149,-0.070769,0.058513,-0.573504,0.249474,-0.287652,1.111665,0.291177,0.424819,2.341453,-3.286769,1.390433,0.024661,0.056735,0.000000,0.029960,-0.107323,-0.000000
4.520000,2.911343,-0.719517,-1.378983,0.353470,-0.068260,0.055658,-0.562272,0.252224,-0.283335,1.134596,0.259105,0.438428,2.239721,-3.139436,1.333029,0.024945,0.055650,0.000000,0.026851,-0.109616,0.000000
4.530000,2.914850,-0.720187,-1.378441,0.347904,-0.065726,0.052847,-0.550816,0.254659,-0.278885,1.156358,0.228138,0.451517,2.111461,-3.054296,1.284752,0.025199,0.054542,0.000000,0.023846,-0.111805,0.000000
4.540000,2.918301,-0.720831,-1.377926,0.342454,-0.063168,0.050081,-0.539149,0.256790,-0.274307,1.176875,0.198256,0.464078,1.994251,-2.910484,1.225178,0.025423,0.053413,0.000000,0.020943,-0.113881,-0.000000
4.550000,2.921699,-0.721450,-1.377439,0.337122,-0.060591,0.047361,-0.527283,0.258630,-0.269606,1.196191,0.169825,0.476032,1.863934,-2.787740,1.167474,0.025618,0.052264,0.000000,0.018179,-0.115849,-0.000000
4.560000,2.925044,-0.722043,-1.376979,0.331909,-0.057996,0.044689,-0.515230,0.260190,-0.264788,1.214174,0.142503,0.487388,1.727195,-2.666488,1.107704,0.025786,0.051096,0.000000,0.015519,-0.117695,-0.000000
4.570000,2.928338,-0.722610,-1.376545,0.326818,-0.055388,0.042066,-0.503004,0.261485,-0.259859,1.230674,0.116586,0.498221,1.575808,-2.527103,1.054453,0.025929,0.049910,0.000000,0.012992,-0.119404,0.000000
4.580000,2.931581,-0.723150,-1.376137,0.321850,-0.052768,0.039492,-0.490621,0.262526,-0.254826,1.245753,0.091744,0.508383,1.438923,-2.441869,0.977602,0.026047,0.048708,0.000000,0.010567,-0.120982,-0.000000
4.590000,2.934775,-0.723665,-1.375755,0.317006,-0.050138,0.036970,-0.478094,0.263323,-0.249694,1.259349,0.067947,0.517852,1.275125,-2.307655,0.920231,0.026141,0.047490,0.000000,0.008239,-0.122423,-0.000000
4.600000,2.937921,-0.724153,-1.375398,0.312288,-0.047502,0.034499,-0.465440,0.263889,-0.244471,1.271262,0.045498,0.526743,1.111284,-2.192534,0.853707,0.026212,0.046259,0.000000,0.006040,-0.123705,-0.000000
4.610000,2.941021,-0.724615,-1.375065,0.307698,-0.044861,0.032081,-0.452675,0.264236,-0.239162,1.281354,0.024101,0.534849,0.937575,-2.079563,0.783903,0.026262,0.045016,0.000000,0.003939,-0.124815,-0.000000
4.620000,2.944076,-0.725050,-1.374756,0.303235,-0.042218,0.029716,-0.439816,0.264376,-0.233775,1.290282,0.003970,0.542571,0.816589,-1.954496,0.743823,0.026291,0.043762,0.000000,0.001959,-0.125815,-0.000000
4.630000,2.947086,-0.725459,-1.374470,0.298902,-0.039574,0.027405,-0.426877,0.264319,-0.228314,1.297024,-0.015151,0.549376,0.529808,-1.870306,0.616407,0.026301,0.042499,0.000000,0.000073,-0.126607,-0.000000
4.640000,2.950054,-0.725842,-1.374208,0.294698,-0.036932,0.025150,-0.413883,0.264076,-0.222790,1.301478,-0.033295,0.555224,0.390911,-1.751459,0.569411,0.026293,0.041230,0.000000,-0.001721,-0.127179,-0.000000
4.650000,2.952981,-0.726198,-1.373967,0.290624,-0.034293,0.022950,-0.400852,0.263657,-0.217210,1.304563,-0.050251,0.560619,0.194431,-1.647688,0.492769,0.026267,0.039955,0.000000,-0.003402,-0.127619,-0.000000
4.660000,2.955867,-0.726528,-1.373749,0.286681,-0.031659,0.020806,-0.387800,0.263074,-0.211581,1.305416,-0.066283,0.565217,-0.007129,-1.547447,0.416570,0.026225,0.038677,0.000000,-0.004996,-0.127843,0.000000
4.670000,2.958715,-0.726831,-1.373551,0.282868,-0.029032,0.018718,-0.374749,0.262336,-0.205910,1.304567,-0.081101,0.568853,-0.180425,-1.428071,0.320067,0.026168,0.037398,0.000000,-0.006475,-0.127902,-0.000000
4.680000,2.961525,-0.727108,-1.373374,0.279186,-0.026413,0.016688,-0.361716,0.261454,-0.200206,1.301434,-0.095092,0.571815,-0.447483,-1.370932,0.272399,0.026096,0.036119,0.000000,-0.007876,-0.127736,-0.000000
4.690000,2.964299,-0.727360,-1.373217,0.275634,-0.023804,0.014714,-0.348728,0.260436,-0.194475,1.295950,-0.108300,0.574100,-0.632580,-1.259679,0.174466,0.026010,0.034843,0.000000,-0.009204,-0.127339,-0.000000
4.700000,2.967038,-0.727585,-1.373079,0.272211,-0.021205,0.012798,-0.335803,0.259292,-0.188727,1.288622,-0.120391,0.575383,-0.850656,-1.170715,0.091406,0.025912,0.033572,0.000000,-0.010425,-0.126760,-0.000000
4.710000,2.969744,-0.727784,-1.372961,0.268917,-0.018618,0.010940,-0.322963,0.258031,-0.182971,1.279051,-0.131700,0.575822,-1.070096,-1.084853,0.004938,0.025802,0.032308,0.000000,-0.011572,-0.125959,-0.000000
4.720000,2.972417,-0.727957,-1.372861,0.265751,-0.016045,0.009139,-0.310230,0.256662,-0.177213,1.267154,-0.142038,0.575557,-1.303892,-0.989759,-0.066839,0.025681,0.031053,0.000000,-0.012627,-0.124926,-0.000000
4.730000,2.975059,-0.728105,-1.372778,0.262712,-0.013485,0.007395,-0.297627,0.255193,-0.171463,1.253090,-0.151639,0.574300,-1.508996,-0.931215,-0.185012,0.025550,0.029809,0.000000,-0.013612,-0.123676,-0.000000
4.740000,2.977672,-0.728227,-1.372712,0.259798,-0.010941,0.005709,-0.285175,0.253631,-0.165731,1.236846,-0.160544,0.572023,-1.746137,-0.843731,-0.262039,0.025409,0.028579,0.000000,-0.014531,-0.122207,0.000000
4.750000,2.980255,-0.728323,-1.372664,0.257008,-0.008413,0.004081,-0.272898,0.251985,-0.160025,1.218209,-0.168579,0.568982,-1.975250,-0.770363,-0.355259,0.025259,0.027365,0.000000,-0.015367,-0.120496,-0.000000
4.760000,2.982812,-0.728395,-1.372631,0.254340,-0.005902,0.002509,-0.260819,0.250262,-0.154354,1.197277,-0.175958,0.564941,-2.206606,-0.700440,-0.449989,0.025102,0.026169,0.000000,-0.016141,-0.118553,0.000000
4.770000,2.985343,-0.728442,-1.372613,0.251791,-0.003408,0.000993,-0.248960,0.248468,-0.148729,1.174116,-0.182548,0.560006,-2.430376,-0.623448,-0.540465,0.024937,0.024994,0.000000,-0.016839,-0.116383,-0.000000
4.780000,2.987848,-0.728463,-1.372611,0.249360,-0.000932,-0.000466,-0.237345,0.246613,-0.143158,1.148571,-0.188550,0.554063,-2.678801,-0.577722,-0.648419,0.024765,0.023842,0.000000,-0.017481,-0.113970,0.000000
4.790000,2.990330,-0.728460,-1.372622,0.247043,0.001524,-0.001870,-0.225997,0.244699,-0.137651,1.120630,-0.194005,0.547094,-2.904923,-0.508362,-0.742564,0.024587,0.022715,0.000000,-0.018072,-0.111312,0.000000
4.800000,2.992790,-0.728433,-1.372648,0.244839,0.003961,-0.003219,-0.214939,0.242735,-0.132219,1.090433,-0.198774,0.539181,-3.139042,-0.451431,-0.843277,0.024404,0.021615,0.000000,-0.018596,-0.108422,-0.000000
4.810000,2.995227,-0.728381,-1.372686,0.242743,0.006379,-0.004515,-0.204197,0.240725,-0.126871,1.057634,-0.203048,0.530275,-3.376779,-0.398112,-0.944933,0.024216,0.020547,0.000000,-0.019073,-0.105263,-0.000000
4.820000,2.997645,-0.728305,-1.372738,0.240754,0.008776,-0.005757,-0.193791,0.238676,-0.121617,1.023327,-0.206696,0.520206,-3.528746,-0.337596,-1.061725,0.024023,0.019510,0.000000,-0.019490,-0.101947,-0.000000
4.830000,3.000043,-0.728206,-1.372801,0.238866,0.011152,-0.006947,-0.183740,0.236593,-0.116470,0.986133,-0.209924,0.509188,-3.911041,-0.308641,-1.141970,0.023826,0.018508,0.000000,-0.019867,-0.098333,0.000000
4.840000,3.002422,-0.728082,-1.372877,0.237078,0.013507,-0.008087,-0.174078,0.234479,-0.111437,0.946010,-0.212770,0.497215,-4.068225,-0.255714,-1.260161,0.023626,0.017544,0.000000,-0.020208,-0.094415,-0.000000
4.850000,3.004785,-0.727936,-1.372963,0.235384,0.015842,-0.009176,-0.164824,0.232339,-0.106530,0.904383,-0.215096,0.484043,-4.299821,-0.215327,-1.367295,0.023422,0.016620,0.000000,-0.020498,-0.090338,-0.000000
4.860000,3.007130,-0.727766,-1.373060,0.233780,0.018154,-0.010218,-0.155999,0.230178,-0.101759,0.860258,-0.217059,0.469826,-4.524610,-0.177746,-1.476372,0.023216,0.015738,0.000000,-0.020753,-0.086001,0.000000
4.870000,3.009461,-0.727573,-1.373167,0.232262,0.020445,-0.011212,-0.147627,0.227999,-0.097137,0.813903,-0.218662,0.454511,-4.745513,-0.143336,-1.586893,0.023007,0.014900,0.000000,-0.020974,-0.081430,0.000000
4.880000,3.011776,-0.727357,-1.373284,0.230826,0.022714,-0.012161,-0.139729,0.225806,-0.092673,0.765362,-0.219936,0.438083,-4.961992,-0.112069,-1.698871,0.022796,0.014109,0.000000,-0.021163,-0.076629,-0.000000
4.890000,3.014077,-0.727118,-1.373410,0.229466,0.024961,-0.013066,-0.132327,0.223601,-0.088379,0.714680,-0.220913,0.420528,-5.173624,-0.083903,-1.812350,0.022584,0.013368,0.000000,-0.021324,-0.071603,-0.000000
4.900000,3.016365,-0.726858,-1.373545,0.228177,0.027186,-0.013929,-0.125442,0.221389,-0.084266,0.661918,-0.221626,0.401833,-5.378758,-0.058941,-1.927087,0.022370,0.012678,0.000000,-0.021459,-0.066357,-0.000000
4.910000,3.018641,-0.726575,-1.373689,0.226955,0.029389,-0.014752,-0.119095,0.219170,-0.080346,0.607129,-0.222103,0.381982,-5.578024,-0.037023,-2.043363,0.022155,0.012041,0.000000,-0.021572,-0.060897,0.000000
4.920000,3.020905,-0.726270,-1.373840,0.225794,0.031569,-0.015537,-0.113306,0.216947,-0.076630,0.550381,-0.222376,0.360961,-5.770363,-0.018178,-2.161079,0.021939,0.011460,0.000000,-0.021666,-0.055230,-0.000000
4.930000,3.023157,-0.725943,-1.373999,0.224687,0.033728,-0.016285,-0.108094,0.214723,-0.073131,0.491746,-0.222477,0.338756,-5.955143,-0.002378,-2.280241,0.021721,0.010937,0.000000,-0.021743,-0.049364,-0.000000
4.940000,3.025399,-0.725595,-1.374166,0.223630,0.035864,-0.017000,-0.103477,0.212498,-0.069859,0.431305,-0.222434,0.315352,-6.131709,0.010428,-2.400849,0.021504,0.010473,0.000000,-0.021806,-0.043306,0.000000
4.950000,3.027630,-0.725226,-1.374339,0.222616,0.037978,-0.017683,-0.099473,0.210274,-0.066828,0.369136,-0.222280,0.290735,-6.299936,0.020087,-2.522818,0.021285,0.010071,0.000000,-0.021860,-0.037065,0.000000
4.960000,3.029851,-0.724836,-1.374519,0.221638,0.040069,-0.018338,-0.096100,0.208053,-0.064049,0.305335,-0.222043,0.264891,-6.458607,0.026821,-2.646264,0.021067,0.009732,0.000000,-0.021905,-0.030652,-0.000000
4.970000,3.032063,-0.724425,-1.374706,0.220691,0.042139,-0.018965,-0.093372,0.205834,-0.061534,0.239997,-0.221753,0.237805,-6.607355,0.030576,-2.771131,0.020847,0.009458,0.000000,-0.021946,-0.024077,0.000000
4.980000,3.034265,-0.723993,-1.374899,0.219769,0.044186,-0.019569,-0.091304,0.203618,-0.059297,0.173223,-0.221441,0.209464,-6.745615,0.031374,-2.897379,0.020628,0.009251,0.000000,-0.021986,-0.017350,0.000000
4.990000,3.036458,-0.723541,-1.375097,0.218863,0.046211,-0.020152,-0.089912,0.201405,-0.057349,0.105122,-0.221135,0.179853,-6.872877,0.029238,-3.024915,0.020408,0.009112,0.000000,-0.022027,-0.010484,0.000000
5.000000,3.038642,-0.723069,-1.375302,0.217968,0.048214,-0.020717,-0.089206,0.199195,-0.055704,0.035804,-0.220866,0.148962,-6.988742,0.024194,-3.153569,0.020187,0.009042,0.000000,-0.022072,-0.003492,-0.000000
