time,x,y,z,vx,vy,vz,ax,ay,az,jx,jy,jz,sx,sy,sz,roll,pitch,yaw,p,q,r
0.000000,-3.012648,0.730784,-1.381160,-0.013951,-0.006594,0.003608,0.405516,-0.115957,0.070824,17.686209,-4.903495,2.424181,-235.787350,82.758858,-99.492907,-0.011895,-0.041614,0.000000,-0.505032,-1.823060,0.000000
0.010000,-3.012788,0.730718,-1.381124,-0.009896,-0.007753,0.004316,0.582378,-0.164992,0.095066,15.328336,-4.075906,1.429252,-773.944959,240.416255,-198.754526,-0.016951,-0.059875,0.000000,-0.419566,-1.580722,0.000000
0.020000,-3.012846,0.730628,-1.381074,-0.002304,-0.009894,0.005509,0.712083,-0.197475,0.099409,2.207310,-0.095169,-1.550910,-1152.891721,344.779015,-228.194178,-0.020279,-0.073200,0.000000,-0.006214,-0.214400,-0.000000
0.030000,-3.012834,0.730520,-1.381014,0.004346,-0.011703,0.006305,0.626525,-0.166895,0.064047,-7.729499,2.819674,-3.134632,-418.944110,123.260164,-42.982192,-0.017088,-0.064197,0.000000,0.293242,0.810307,-0.000000
0.040000,-3.012759,0.730394,-1.380948,0.010227,-0.013231,0.006790,0.557493,-0.141082,0.036716,-6.171572,2.370034,-2.410554,146.694049,-42.382096,65.016349,-0.014411,-0.056981,0.000000,0.245083,0.643383,-0.000000
0.050000,-3.012629,0.730255,-1.380878,0.015496,-0.014524,0.007039,0.503093,-0.119495,0.015836,-4.795618,1.972032,-1.834305,129.235162,-37.442333,51.207245,-0.012184,-0.051322,0.000000,0.203023,0.497910,-0.000000
0.060000,-3.012449,0.730104,-1.380807,0.020289,-0.015621,0.007107,0.461581,-0.101641,0.000030,-3.586869,1.621187,-1.386409,113.219929,-32.939888,39.282639,-0.010349,-0.047018,0.000000,0.166340,0.371442,0.000000
0.070000,-3.012223,0.729943,-1.380736,0.024727,-0.016557,0.007040,0.431356,-0.087071,-0.011892,-2.531219,1.313235,-1.048652,98.582361,-28.852801,29.116096,-0.008856,-0.043890,0.000000,0.134409,0.261886,-0.000000
0.080000,-3.011955,0.729773,-1.380667,0.028916,-0.017363,0.006869,0.410956,-0.075376,-0.020943,-1.615222,1.044131,-0.804087,85.256458,-25.159120,20.581183,-0.007660,-0.041778,0.000000,0.106683,0.167421,0.000000
0.090000,-3.011645,0.729595,-1.380599,0.032946,-0.018065,0.006621,0.399051,-0.066188,-0.027974,-0.826090,0.810052,-0.637029,73.176263,-21.836883,13.551473,-0.006722,-0.040540,0.000000,0.082680,0.086452,-0.000000
0.100000,-3.011296,0.729411,-1.380534,0.036897,-0.018687,0.006310,0.394435,-0.059175,-0.033684,-0.151696,0.607393,-0.533057,62.275830,-18.864127,7.900543,-0.006007,-0.040048,0.000000,0.061973,0.017552,-0.000000
0.110000,-3.010907,0.729222,-1.380473,0.040835,-0.019248,0.005947,0.396017,-0.054040,-0.038635,0.419427,0.432770,-0.479018,52.489133,-16.218899,3.501954,-0.005483,-0.040189,0.000000,0.044181,-0.040565,0.000000
0.120000,-3.010479,0.729027,-1.380415,0.044817,-0.019767,0.005537,0.402823,-0.050520,-0.043264,0.898086,0.283016,-0.463018,43.750171,-13.879245,0.229262,-0.005123,-0.040859,0.000000,0.028958,-0.089075,0.000000
0.130000,-3.010011,0.728826,-1.380362,0.048891,-0.020259,0.005082,0.413979,-0.048380,-0.047895,1.294430,0.155185,-0.474433,35.993003,-11.823203,-2.043953,-0.004903,-0.041970,0.000000,0.015991,-0.129059,0.000000
0.140000,-3.009501,0.728621,-1.380314,0.053097,-0.020735,0.004579,0.428712,-0.047416,-0.052753,1.617946,0.046551,-0.503897,29.151645,-10.028807,-3.444100,-0.004803,-0.043440,0.000000,0.004994,-0.161518,0.000000
0.150000,-3.008949,0.728412,-1.380270,0.057466,-0.021207,0.004027,0.446338,-0.047449,-0.057973,1.877463,-0.045391,-0.543315,23.160099,-8.474107,-4.097630,-0.004803,-0.045200,0.000000,-0.004290,-0.187382,0.000000
0.160000,-3.008352,0.728197,-1.380233,0.062024,-0.021684,0.003420,0.466261,-0.048324,-0.063619,2.081148,-0.122931,-0.585850,17.952388,-7.137151,-4.131007,-0.004889,-0.047188,0.000000,-0.012098,-0.207511,0.000000
0.170000,-3.007708,0.727978,-1.380202,0.066791,-0.022173,0.002754,0.487961,-0.049908,-0.069690,2.236511,-0.188134,-0.625935,13.459453,-5.994403,-3.690155,-0.005045,-0.049350,0.000000,-0.018644,-0.222699,0.000000
0.180000,-3.007016,0.727754,-1.380178,0.071783,-0.022682,0.002026,0.510991,-0.052087,-0.076138,2.350337,-0.242819,-0.659653,9.561373,-4.996508,-3.242657,-0.005262,-0.051642,0.000000,-0.024113,-0.233664,-0.000000
0.190000,-3.006273,0.727524,-1.380161,0.077011,-0.023215,0.001232,0.534968,-0.054764,-0.082883,2.427738,-0.288064,-0.690788,6.210818,-4.130986,-2.797005,-0.005528,-0.054023,0.000000,-0.028617,-0.240918,-0.000000
0.200000,-3.005476,0.727289,-1.380153,0.082482,-0.023777,0.000368,0.559546,-0.057848,-0.089953,2.474554,-0.325438,-0.715593,3.739759,-3.578035,0.037950,-0.005834,-0.056460,0.000000,-0.032317,-0.245084,-0.000000
0.210000,-3.004623,0.727049,-1.380154,0.088202,-0.024372,-0.000568,0.584459,-0.061273,-0.097195,2.502533,-0.359625,-0.690029,2.039559,-3.294035,4.866073,-0.006174,-0.058925,0.000000,-0.035715,-0.247622,-0.000000
0.220000,-3.003712,0.726802,-1.380165,0.094171,-0.025003,-0.001576,0.609597,-0.065040,-0.103754,2.515345,-0.391319,-0.618272,-0.100306,-2.676457,4.342155,-0.006548,-0.061413,0.000000,-0.038888,-0.248941,-0.000000
0.230000,-3.002740,0.726549,-1.380186,0.100394,-0.025673,-0.002643,0.634766,-0.069099,-0.109560,2.500527,-0.413154,-0.603186,-2.827752,-1.676819,-1.789954,-0.006952,-0.063904,0.000000,-0.041031,-0.247171,0.000000
0.240000,-3.001704,0.726289,-1.380217,0.106867,-0.026385,-0.003767,0.659607,-0.073303,-0.115818,2.458790,-0.424856,-0.654071,-4.603481,-1.083440,-3.635041,-0.007369,-0.066356,0.000000,-0.042102,-0.242261,0.000000
0.250000,-3.000602,0.726021,-1.380261,0.113586,-0.027139,-0.004959,0.683942,-0.077596,-0.122642,2.408458,-0.434823,-0.675887,-4.874742,-1.077176,-0.274741,-0.007794,-0.068749,0.000000,-0.043014,-0.236664,-0.000000
0.260000,-2.999432,0.725746,-1.380317,0.120546,-0.027937,-0.006220,0.707776,-0.082000,-0.129335,2.361295,-0.446399,-0.659566,-4.807662,-1.089121,1.511545,-0.008229,-0.071090,0.000000,-0.044114,-0.231663,0.000000
0.270000,-2.998192,0.725462,-1.380385,0.127741,-0.028779,-0.007546,0.731167,-0.086524,-0.135833,2.312304,-0.456606,-0.645656,-5.848389,-0.716368,1.105829,-0.008676,-0.073383,0.000000,-0.045075,-0.226485,0.000000
0.280000,-2.996878,0.725170,-1.380468,0.135169,-0.029667,-0.008936,0.754022,-0.091132,-0.142248,2.244327,-0.460726,-0.637449,-7.728231,-0.120242,0.845307,-0.009131,-0.075620,0.000000,-0.045421,-0.219388,-0.000000
0.290000,-2.995488,0.724869,-1.380564,0.142822,-0.030602,-0.010391,0.776054,-0.095739,-0.148582,2.157740,-0.459010,-0.628749,-8.644617,0.218496,0.932752,-0.009584,-0.077771,0.000000,-0.045186,-0.210463,0.000000
0.300000,-2.994021,0.724558,-1.380675,0.150690,-0.031582,-0.011908,0.797177,-0.100312,-0.154823,2.071435,-0.456357,-0.618794,-8.273208,0.225232,1.057114,-0.010034,-0.079829,0.000000,-0.044861,-0.201606,-0.000000
0.310000,-2.992474,0.724237,-1.380802,0.158765,-0.032608,-0.013487,0.817483,-0.104866,-0.160958,1.992276,-0.454506,-0.607607,-7.892118,0.237059,1.163564,-0.010482,-0.081803,0.000000,-0.044621,-0.193500,0.000000
0.320000,-2.990846,0.723906,-1.380945,0.167040,-0.033679,-0.015127,0.837023,-0.109402,-0.166976,1.913593,-0.451615,-0.595523,-8.301455,0.467925,1.241781,-0.010927,-0.083699,0.000000,-0.044280,-0.185477,-0.000000
0.330000,-2.989134,0.723564,-1.381105,0.175506,-0.034796,-0.016827,0.855755,-0.113898,-0.172869,1.826247,-0.445147,-0.582772,-9.128980,0.819718,1.304322,-0.011367,-0.085513,0.000000,-0.043587,-0.176624,0.000000
0.340000,-2.987336,0.723210,-1.381282,0.184155,-0.035957,-0.018584,0.873548,-0.118305,-0.178631,1.731013,-0.435221,-0.569436,-9.433675,1.039400,1.363041,-0.011798,-0.087232,0.000000,-0.042555,-0.167024,0.000000
0.350000,-2.985450,0.722845,-1.381476,0.192977,-0.037162,-0.020399,0.890375,-0.122603,-0.184257,1.637573,-0.424359,-0.555511,-9.082900,1.090270,1.419014,-0.012218,-0.088854,0.000000,-0.041436,-0.157637,-0.000000
0.360000,-2.983476,0.722467,-1.381690,0.201962,-0.038409,-0.022270,0.906299,-0.126792,-0.189741,1.549355,-0.413416,-0.541056,-8.734270,1.148544,1.465282,-0.012627,-0.090385,0.000000,-0.040314,-0.148801,0.000000
0.370000,-2.981411,0.722076,-1.381922,0.211103,-0.039698,-0.024194,0.921362,-0.130871,-0.195078,1.462888,-0.401388,-0.526205,-8.790945,1.323145,1.498075,-0.013025,-0.091830,0.000000,-0.039090,-0.140170,0.000000
0.380000,-2.979254,0.721673,-1.382174,0.220389,-0.041027,-0.026171,0.935557,-0.134820,-0.200265,1.373536,-0.386953,-0.511095,-9.060901,1.562159,1.520346,-0.013409,-0.093189,0.000000,-0.037632,-0.131282,-0.000000
0.390000,-2.977003,0.721256,-1.382445,0.229814,-0.042394,-0.028199,0.948833,-0.138610,-0.205300,1.281670,-0.370145,-0.495798,-9.070652,1.736510,1.537827,-0.013777,-0.094456,0.000000,-0.035945,-0.122173,-0.000000
0.400000,-2.974658,0.720825,-1.382738,0.239366,-0.043799,-0.030277,0.961190,-0.142223,-0.210181,1.192123,-0.352222,-0.480338,-8.754442,1.827620,1.551219,-0.014128,-0.095633,0.000000,-0.034153,-0.113320,-0.000000
0.410000,-2.972216,0.720380,-1.383051,0.249038,-0.045239,-0.032403,0.972675,-0.145654,-0.214907,1.106581,-0.333593,-0.464774,-8.442641,1.924820,1.557650,-0.014460,-0.096723,0.000000,-0.032296,-0.104886,0.000000
0.420000,-2.969677,0.719920,-1.383386,0.258820,-0.046712,-0.034575,0.983322,-0.148895,-0.219477,1.023270,-0.313726,-0.449185,-8.336441,2.082788,1.557356,-0.014774,-0.097731,0.000000,-0.030323,-0.096695,-0.000000
0.430000,-2.967040,0.719446,-1.383742,0.268704,-0.048217,-0.036793,0.993141,-0.151929,-0.223891,0.939852,-0.291937,-0.433627,-8.339103,2.274773,1.552228,-0.015067,-0.098657,0.000000,-0.028164,-0.088513,-0.000000
0.440000,-2.964303,0.718956,-1.384121,0.278682,-0.049751,-0.039053,1.002119,-0.154734,-0.228149,0.856488,-0.268231,-0.418140,-8.214223,2.435452,1.542936,-0.015337,-0.099501,0.000000,-0.025821,-0.080354,-0.000000
0.450000,-2.961466,0.718451,-1.384523,0.288746,-0.051311,-0.041356,1.010270,-0.157294,-0.232254,0.775568,-0.243228,-0.402768,-7.928718,2.555459,1.528929,-0.015583,-0.100265,0.000000,-0.023354,-0.072453,0.000000
0.460000,-2.958528,0.717930,-1.384949,0.298888,-0.052896,-0.043698,1.017630,-0.159598,-0.236205,0.697914,-0.217121,-0.387562,-7.647268,2.679496,1.510838,-0.015804,-0.100951,0.000000,-0.020783,-0.064889,0.000000
0.470000,-2.955488,0.717393,-1.385397,0.309099,-0.054503,-0.046080,1.024229,-0.161636,-0.240005,0.622622,-0.189638,-0.372551,-7.470879,2.834190,1.491995,-0.015999,-0.101563,0.000000,-0.018081,-0.057569,-0.000000
0.480000,-2.952346,0.716840,-1.385870,0.319372,-0.056129,-0.048498,1.030083,-0.163391,-0.243656,0.548496,-0.160438,-0.357722,-7.350954,3.005795,1.473247,-0.016166,-0.102102,0.000000,-0.015212,-0.050376,0.000000
0.490000,-2.949101,0.716270,-1.386367,0.329701,-0.057771,-0.050953,1.035198,-0.164845,-0.247159,0.475603,-0.129522,-0.343086,-7.168387,3.162005,1.451277,-0.016303,-0.102570,0.000000,-0.012179,-0.043314,-0.000000
0.500000,-2.945752,0.715684,-1.386889,0.340076,-0.059426,-0.053441,1.039595,-0.165982,-0.250517,0.405128,-0.097198,-0.328696,-6.908112,3.297808,1.424719,-0.016409,-0.102969,0.000000,-0.009010,-0.036498,0.000000
0.510000,-2.942299,0.715082,-1.387436,0.350493,-0.061091,-0.055963,1.043301,-0.166789,-0.253733,0.337441,-0.063566,-0.314592,-6.652686,3.434873,1.396851,-0.016483,-0.103300,0.000000,-0.005715,-0.029964,0.000000
0.520000,-2.938742,0.714462,-1.388008,0.360942,-0.062762,-0.058516,1.046344,-0.167253,-0.256809,0.272075,-0.028500,-0.300759,-6.447556,3.586579,1.372851,-0.016524,-0.103568,0.000000,-0.002281,-0.023663,-0.000000
0.530000,-2.935080,0.713826,-1.388606,0.371419,-0.064436,-0.061099,1.048743,-0.167359,-0.259748,0.208490,0.008166,-0.287135,-6.267711,3.745786,1.352692,-0.016529,-0.103774,0.000000,0.001308,-0.017542,-0.000000
0.540000,-2.931314,0.713174,-1.389230,0.381917,-0.066109,-0.063711,1.050513,-0.167090,-0.262552,0.146721,0.046416,-0.273706,-6.060358,3.895613,1.330623,-0.016498,-0.103919,0.000000,0.005050,-0.011605,0.000000
0.550000,-2.927442,0.712504,-1.389881,0.392430,-0.067778,-0.066350,1.051677,-0.166430,-0.265222,0.087283,0.086078,-0.260522,-5.820698,4.034386,1.304732,-0.016428,-0.104006,0.000000,0.008930,-0.005899,-0.000000
0.560000,-2.923465,0.711818,-1.390557,0.402951,-0.069438,-0.069016,1.052259,-0.165368,-0.267762,0.030307,0.127103,-0.247611,-5.585099,4.172896,1.279831,-0.016319,-0.104037,0.000000,0.012942,-0.000437,0.000000
0.570000,-2.919383,0.711115,-1.391261,0.413475,-0.071085,-0.071706,1.052283,-0.163888,-0.270175,-0.024419,0.169536,-0.234926,-5.369613,4.314227,1.262264,-0.016169,-0.104015,0.000000,0.017092,0.004802,-0.000000
0.580000,-2.915196,0.710396,-1.391992,0.423996,-0.072715,-0.074419,1.051771,-0.161977,-0.272461,-0.077086,0.213388,-0.222366,-5.163459,4.454232,1.251406,-0.015977,-0.103941,0.000000,0.021381,0.009838,0.000000
0.590000,-2.910903,0.709661,-1.392749,0.434510,-0.074325,-0.077155,1.050741,-0.159621,-0.274622,-0.127689,0.258620,-0.209898,-4.948798,4.588887,1.239826,-0.015742,-0.103818,0.000000,0.025804,0.014669,-0.000000
0.600000,-2.906506,0.708910,-1.393535,0.445011,-0.075908,-0.079911,1.049217,-0.156805,-0.276659,-0.176062,0.305166,-0.197569,-4.721412,4.718461,1.225442,-0.015461,-0.103647,0.000000,0.030357,0.019281,0.000000
0.610000,-2.902003,0.708143,-1.394348,0.455495,-0.077461,-0.082688,1.047220,-0.153517,-0.278573,-0.222117,0.352990,-0.185389,-4.493935,4.844903,1.214068,-0.015134,-0.103432,0.000000,0.035035,0.023666,0.000000
0.620000,-2.897396,0.707361,-1.395188,0.465956,-0.078978,-0.085483,1.044774,-0.149745,-0.280367,-0.265940,0.402064,-0.173288,-4.280930,4.966759,1.212106,-0.014760,-0.103174,0.000000,0.039837,0.027833,0.000000
0.630000,-2.892684,0.706563,-1.396057,0.476390,-0.080456,-0.088295,1.041901,-0.145476,-0.282039,-0.307735,0.452325,-0.161147,-4.079135,5.082827,1.218408,-0.014338,-0.102875,0.000000,0.044756,0.031799,-0.000000
0.640000,-2.887868,0.705752,-1.396954,0.486794,-0.081888,-0.091124,1.038620,-0.140699,-0.283590,-0.347523,0.503720,-0.148920,-3.870053,5.194418,1.225333,-0.013865,-0.102538,0.000000,0.049787,0.035568,0.000000
0.650000,-2.882948,0.704926,-1.397880,0.497162,-0.083269,-0.093967,1.034951,-0.135402,-0.285017,-0.385136,0.556213,-0.136640,-3.650874,5.301317,1.231012,-0.013342,-0.102164,0.000000,0.054928,0.039124,-0.000000
0.660000,-2.877925,0.704086,-1.398834,0.507493,-0.084596,-0.096824,1.030917,-0.129574,-0.286322,-0.420541,0.609747,-0.124299,-3.434394,5.402005,1.241174,-0.012767,-0.101756,0.000000,0.060173,0.042464,-0.000000
0.670000,-2.872798,0.703234,-1.399816,0.517781,-0.085861,-0.099694,1.026540,-0.123207,-0.287503,-0.453824,0.664253,-0.111817,-3.226671,5.496342,1.261331,-0.012139,-0.101315,0.000000,0.065515,0.045595,0.000000
0.680000,-2.867569,0.702369,-1.400828,0.528024,-0.087060,-0.102574,1.021841,-0.116289,-0.288559,-0.485074,0.719673,-0.099073,-3.023381,5.584231,1.290223,-0.011456,-0.100844,0.000000,0.070950,0.048527,-0.000000
0.690000,-2.862238,0.701493,-1.401868,0.538218,-0.088187,-0.105465,1.016839,-0.108813,-0.289485,-0.514292,0.775938,-0.086012,-2.817519,5.664930,1.321256,-0.010720,-0.100344,0.000000,0.076470,0.051257,-0.000000
0.700000,-2.856805,0.700605,-1.402937,0.548360,-0.089236,-0.108364,1.011555,-0.100770,-0.290279,-0.541424,0.832972,-0.072648,-2.610204,5.739052,1.352571,-0.009927,-0.099818,0.000000,0.082070,0.053783,0.000000
0.710000,-2.851270,0.699708,-1.404035,0.558449,-0.090202,-0.111270,1.006010,-0.092154,-0.290938,-0.566496,0.890719,-0.058961,-2.405973,5.806419,1.389022,-0.009078,-0.099268,0.000000,0.087743,0.056106,-0.000000
0.720000,-2.845636,0.698801,-1.405162,0.568480,-0.091079,-0.114183,1.000225,-0.082956,-0.291458,-0.589544,0.949100,-0.044867,-2.201780,5.863587,1.436003,-0.008172,-0.098696,0.000000,0.093482,0.058229,-0.000000
0.730000,-2.839901,0.697886,-1.406319,0.578453,-0.091861,-0.117099,0.994219,-0.073172,-0.291835,-0.610532,1.007991,-0.030241,-1.995885,5.909831,1.492454,-0.007208,-0.098104,0.000000,0.099277,0.060148,-0.000000
0.740000,-2.834067,0.696964,-1.407504,0.588365,-0.092543,-0.120019,0.988014,-0.062796,-0.292063,-0.629461,1.067297,-0.015018,-1.792931,5.949141,1.551659,-0.006187,-0.097493,0.000000,0.105117,0.061863,-0.000000
0.750000,-2.828134,0.696035,-1.408719,0.598214,-0.093117,-0.122941,0.981630,-0.051826,-0.292136,-0.646390,1.126973,0.000793,-1.593923,5.983042,1.611617,-0.005106,-0.096866,0.000000,0.111000,0.063379,-0.000000
0.760000,-2.822102,0.695102,-1.409963,0.607997,-0.093579,-0.125862,0.975086,-0.040257,-0.292047,-0.661340,1.186958,0.017214,-1.395671,6.008168,1.677139,-0.003967,-0.096226,0.000000,0.116920,0.064698,-0.000000
0.770000,-2.815974,0.694164,-1.411236,0.617715,-0.093922,-0.128782,0.968403,-0.028087,-0.291791,-0.674304,1.247137,0.034335,-1.197001,6.019808,1.753562,-0.002768,-0.095572,0.000000,0.122866,0.065820,-0.000000
0.780000,-2.809748,0.693223,-1.412539,0.627366,-0.094141,-0.131698,0.961600,-0.015314,-0.291360,-0.685280,1.307354,0.052285,-0.998785,6.018409,1.839729,-0.001509,-0.094909,0.000000,0.128823,0.066743,-0.000000
0.790000,-2.803426,0.692281,-1.413870,0.636947,-0.094229,-0.134609,0.954698,-0.001940,-0.290746,-0.694279,1.367505,0.071130,-0.802510,6.009524,1.928806,-0.000191,-0.094238,0.000000,0.134783,0.067467,0.000000
0.800000,-2.797009,0.691339,-1.415231,0.646459,-0.094180,-0.137513,0.947715,0.012036,-0.289938,-0.701330,1.427545,0.090862,-0.609949,5.994544,2.018703,0.001186,-0.093560,0.000000,0.140742,0.067996,-0.000000
0.810000,-2.790497,0.690397,-1.416620,0.655902,-0.093988,-0.140408,0.940671,0.026611,-0.288928,-0.706478,1.487396,0.111504,-0.420071,5.969205,2.114181,0.002624,-0.092878,0.000000,0.146692,0.068334,0.000000
0.820000,-2.783891,0.689459,-1.418039,0.665273,-0.093647,-0.143291,0.933585,0.041784,-0.287708,-0.709732,1.546929,0.133145,-0.227893,5.929331,2.220467,0.004120,-0.092193,0.000000,0.152623,0.068481,-0.000000
0.830000,-2.777192,0.688524,-1.419486,0.674573,-0.093152,-0.146162,0.926476,0.057550,-0.286265,-0.711036,1.605983,0.155913,-0.034074,5.875864,2.336341,0.005676,-0.091508,0.000000,0.158520,0.068431,-0.000000
0.840000,-2.770400,0.687596,-1.420962,0.683802,-0.092496,-0.149017,0.919364,0.073904,-0.284589,-0.710413,1.664446,0.179872,0.154551,5.813684,2.454956,0.007291,-0.090824,0.000000,0.164372,0.068185,0.000000
0.850000,-2.763516,0.686675,-1.422467,0.692961,-0.091674,-0.151854,0.912268,0.090839,-0.282668,-0.707945,1.722256,0.205012,0.340079,5.743529,2.573835,0.008964,-0.090144,0.000000,0.170175,0.067752,-0.000000
0.860000,-2.756540,0.685762,-1.423999,0.702048,-0.090680,-0.154670,0.905206,0.108349,-0.280489,-0.703611,1.779316,0.231349,0.526724,5.661752,2.697572,0.010694,-0.089469,0.000000,0.175920,0.067129,-0.000000
0.870000,-2.749475,0.684861,-1.425560,0.711065,-0.089507,-0.157463,0.898196,0.126425,-0.278041,-0.697411,1.835491,0.258964,0.706625,5.566017,2.832180,0.012482,-0.088802,0.000000,0.181596,0.066316,0.000000
0.880000,-2.742319,0.683972,-1.427149,0.720012,-0.088151,-0.160231,0.891257,0.145059,-0.275310,-0.689479,1.890637,0.287992,0.877770,5.457151,2.976479,0.014326,-0.088143,0.000000,0.187190,0.065324,-0.000000
0.890000,-2.735074,0.683098,-1.428765,0.728890,-0.086606,-0.162970,0.884406,0.164238,-0.272281,-0.679855,1.944634,0.318493,1.051242,5.337689,3.122320,0.016226,-0.087495,0.000000,0.192692,0.064158,-0.000000
0.900000,-2.727741,0.682240,-1.430408,0.737700,-0.084866,-0.165676,0.877660,0.183951,-0.268940,-0.668454,1.997391,0.350439,1.229227,5.208501,3.266679,0.018180,-0.086860,0.000000,0.198094,0.062807,-0.000000
0.910000,-2.720320,0.681401,-1.432078,0.746443,-0.082927,-0.168348,0.871037,0.204186,-0.265272,-0.655271,2.048804,0.383827,1.404013,5.067566,3.414947,0.020188,-0.086239,0.000000,0.203387,0.061273,-0.000000
0.920000,-2.712812,0.680582,-1.433775,0.755121,-0.080783,-0.170982,0.864555,0.224927,-0.261264,-0.640374,2.098742,0.418738,1.572230,4.911904,3.574108,0.022248,-0.085634,0.000000,0.208561,0.059561,-0.000000
0.930000,-2.705218,0.679785,-1.435498,0.763734,-0.078428,-0.173574,0.858230,0.246161,-0.256898,-0.623826,2.147042,0.455309,1.736735,4.741757,3.742625,0.024359,-0.085047,0.000000,0.213602,0.057676,0.000000
0.940000,-2.697538,0.679013,-1.437246,0.772285,-0.075859,-0.176120,0.852078,0.267868,-0.252157,-0.605639,2.193577,0.493590,1.901409,4.560783,3.910795,0.026520,-0.084480,0.000000,0.218498,0.055617,-0.000000
0.950000,-2.689772,0.678268,-1.439020,0.780776,-0.073071,-0.178617,0.846117,0.290032,-0.247026,-0.585798,2.238258,0.533525,2.064216,4.370490,4.074923,0.028729,-0.083934,0.000000,0.223242,0.053384,0.000000
0.960000,-2.681922,0.677552,-1.440819,0.789208,-0.070059,-0.181060,0.840362,0.312633,-0.241487,-0.564355,2.280987,0.575089,2.222846,4.168133,4.241277,0.030985,-0.083412,0.000000,0.227828,0.050982,-0.000000
0.970000,-2.673988,0.676867,-1.442641,0.797583,-0.066818,-0.183446,0.834830,0.335652,-0.235524,-0.541341,2.321621,0.618351,2.383070,3.949478,4.418255,0.033286,-0.082914,0.000000,0.232242,0.048412,-0.000000
0.980000,-2.665971,0.676215,-1.444488,0.805904,-0.063346,-0.185771,0.829535,0.359066,-0.229120,-0.516693,2.359976,0.663454,2.545960,3.715092,4.603990,0.035630,-0.082443,0.000000,0.236469,0.045666,0.000000
0.990000,-2.657870,0.675600,-1.446357,0.814174,-0.059637,-0.188029,0.824496,0.382851,-0.222255,-0.490422,2.395923,0.710430,2.703382,3.470413,4.786588,0.038015,-0.082000,0.000000,0.240499,0.042745,0.000000
1.000000,-2.649687,0.675022,-1.448248,0.822394,-0.055689,-0.190216,0.819727,0.406984,-0.214911,-0.462626,2.429385,0.759185,2.853957,3.216669,4.961655,0.040440,-0.081587,0.000000,0.244324,0.039657,0.000000
1.010000,-2.641422,0.674486,-1.450161,0.830568,-0.051497,-0.192327,0.815243,0.431439,-0.207071,-0.433343,2.460256,0.809664,3.003198,2.950050,5.136755,0.042902,-0.081206,0.000000,0.247937,0.036407,-0.000000
1.020000,-2.633076,0.673992,-1.452095,0.838699,-0.047060,-0.194357,0.811060,0.456189,-0.198718,-0.402562,2.488386,0.861921,3.152990,2.667670,5.321365,0.045399,-0.080859,0.000000,0.251325,0.032992,0.000000
1.030000,-2.624648,0.673545,-1.454048,0.846789,-0.042374,-0.196301,0.807192,0.481207,-0.189833,-0.370283,2.513609,0.916091,3.301507,2.370517,5.512866,0.047929,-0.080546,0.000000,0.254473,0.029408,-0.000000
1.040000,-2.616140,0.673145,-1.456021,0.854843,-0.037436,-0.198154,0.803655,0.506462,-0.180396,-0.336532,2.535796,0.972178,3.446501,2.062223,5.697704,0.050489,-0.080270,0.000000,0.257371,0.025659,0.000000
1.050000,-2.607551,0.672796,-1.458011,0.862862,-0.032244,-0.199909,0.800462,0.531923,-0.170389,-0.301353,2.554854,1.030045,3.587227,1.744449,5.872335,0.053076,-0.080032,0.000000,0.260010,0.021746,0.000000
1.060000,-2.598883,0.672500,-1.460019,0.870852,-0.026797,-0.201562,0.797627,0.557559,-0.159795,-0.264787,2.570685,1.089625,3.725058,1.414658,6.045098,0.055689,-0.079834,0.000000,0.262382,0.017674,0.000000
1.070000,-2.590134,0.672260,-1.462043,0.878815,-0.021093,-0.203105,0.795166,0.583336,-0.148597,-0.226852,2.583147,1.150947,3.862117,1.068318,6.222330,0.058324,-0.079678,0.000000,0.264475,0.013443,0.000000
1.080000,-2.581306,0.672078,-1.464081,0.886755,-0.015131,-0.204534,0.793090,0.609222,-0.136776,-0.187545,2.592051,1.214071,3.996652,0.705419,6.401823,0.060979,-0.079565,0.000000,0.266271,0.009048,-0.000000
1.090000,-2.572399,0.671957,-1.466133,0.894677,-0.008909,-0.205841,0.791415,0.635177,-0.124315,-0.146919,2.597255,1.278983,4.125968,0.332251,6.573841,0.063650,-0.079497,0.000000,0.267758,0.004495,0.000000
1.100000,-2.563413,0.671900,-1.468198,0.902584,-0.002427,-0.207020,0.790152,0.661167,-0.111197,-0.105025,2.598696,1.345548,4.259112,-0.044933,6.727786,0.066334,-0.079475,0.000000,0.268929,-0.000214,-0.000000
1.110000,-2.554348,0.671909,-1.470274,0.910480,0.004315,-0.208065,0.789314,0.687151,-0.097404,-0.061737,2.596357,1.413539,4.397028,-0.430695,6.869733,0.069028,-0.079501,0.000000,0.269781,-0.005091,-0.000000
1.120000,-2.545203,0.671986,-1.472359,0.918370,0.011316,-0.208968,0.788917,0.713094,-0.082926,-0.017085,2.590083,1.482943,4.512974,-0.841753,7.026805,0.071730,-0.079577,0.000000,0.270300,-0.010136,-0.000000
1.130000,-2.535980,0.672135,-1.474453,0.926258,0.018576,-0.209723,0.788973,0.738953,-0.067746,0.028523,2.579522,1.554075,4.608023,-1.276980,7.196723,0.074435,-0.079705,0.000000,0.270453,-0.015314,-0.000000
1.140000,-2.526678,0.672358,-1.476554,0.934149,0.026095,-0.210323,0.789488,0.764684,-0.051844,0.075076,2.564543,1.626877,4.718597,-1.713329,7.340711,0.077139,-0.079884,0.000000,0.270226,-0.020625,0.000000
1.150000,-2.517297,0.672657,-1.478659,0.942048,0.033870,-0.210760,0.790474,0.790244,-0.035208,0.122895,2.545255,1.700889,4.830847,-2.148093,7.454973,0.079839,-0.080118,0.000000,0.269626,-0.026102,-0.000000
1.160000,-2.507837,0.673035,-1.480769,0.949959,0.041900,-0.211027,0.791946,0.815589,-0.017827,0.171692,2.521581,1.775977,4.921714,-2.596402,7.563953,0.082532,-0.080408,0.000000,0.268644,-0.031717,0.000000
1.170000,-2.498298,0.673495,-1.482880,0.957887,0.050182,-0.211117,0.793908,0.840675,0.000311,0.221329,2.493327,1.852168,5.040114,-3.060560,7.667059,0.085212,-0.080755,0.000000,0.267260,-0.037460,-0.000000
1.180000,-2.488679,0.674039,-1.484991,0.965837,0.058713,-0.211021,0.796372,0.865456,0.019217,0.272495,2.460370,1.929318,5.196128,-3.535412,7.754004,0.087877,-0.081160,0.000000,0.265456,-0.043404,0.000000
1.190000,-2.478981,0.674669,-1.487100,0.973814,0.067491,-0.210732,0.799358,0.889883,0.038898,0.325252,2.422619,2.007249,5.320261,-4.018202,7.825341,0.090522,-0.081627,0.000000,0.263220,-0.049556,0.000000
1.200000,-2.469203,0.675389,-1.489206,0.981824,0.076511,-0.210243,0.802877,0.913908,0.059362,0.378900,2.380006,2.085825,5.403779,-4.505215,7.882902,0.093142,-0.082156,0.000000,0.260541,-0.055850,0.000000
1.210000,-2.459345,0.676200,-1.491305,0.989872,0.085769,-0.209545,0.806936,0.937483,0.080614,0.433327,2.332514,2.164907,5.493707,-4.997777,7.923883,0.095733,-0.082749,0.000000,0.257414,-0.062276,0.000000
1.220000,-2.449406,0.677104,-1.493397,0.997963,0.095261,-0.208631,0.811544,0.960559,0.102660,0.488774,2.280050,2.244302,5.595273,-5.506797,7.942425,0.098290,-0.083407,0.000000,0.253822,-0.068862,0.000000
1.230000,-2.439385,0.678105,-1.495478,1.006103,0.104980,-0.207492,0.816711,0.983084,0.125500,0.545233,2.222378,2.323755,5.690118,-6.032981,7.938429,0.100809,-0.084133,0.000000,0.249734,-0.075608,-0.000000
1.240000,-2.429284,0.679204,-1.497547,1.014297,0.114922,-0.206121,0.822448,1.005006,0.149135,0.602576,2.159391,2.403071,5.774761,-6.559979,7.917000,0.103285,-0.084927,0.000000,0.245131,-0.082506,0.000000
1.250000,-2.419100,0.680403,-1.499600,1.022552,0.125080,-0.204509,0.828763,1.026272,0.173562,0.660728,2.091179,2.482095,5.861440,-7.075897,7.873149,0.105712,-0.085792,0.000000,0.240016,-0.089549,-0.000000
1.260000,-2.408833,0.681705,-1.501637,1.030872,0.135448,-0.202650,0.835663,1.046830,0.198777,0.719805,2.017873,2.560534,5.950181,-7.591669,7.801900,0.108085,-0.086728,0.000000,0.234390,-0.096752,0.000000
1.270000,-2.398482,0.683112,-1.503653,1.039265,0.146017,-0.200534,0.843159,1.066629,0.224772,0.779732,1.939346,2.638133,6.009714,-8.136196,7.714420,0.110400,-0.087739,0.000000,0.228232,-0.104109,-0.000000
1.280000,-2.388047,0.684626,-1.505647,1.047736,0.156780,-0.198154,0.851258,1.085617,0.251540,0.840000,1.855149,2.714822,6.039479,-8.706354,7.610315,0.112650,-0.088824,0.000000,0.221485,-0.111572,-0.000000
1.290000,-2.377527,0.686248,-1.507616,1.056290,0.167729,-0.195503,0.859959,1.103732,0.279069,0.900521,1.765218,2.790339,6.081401,-9.261461,7.471365,0.114829,-0.089985,0.000000,0.214130,-0.119134,0.000000
1.300000,-2.366921,0.687980,-1.509558,1.064935,0.178855,-0.192573,0.869268,1.120921,0.307346,0.961628,1.669920,2.864250,6.131233,-9.793111,7.302142,0.116932,-0.091222,0.000000,0.206191,-0.126827,0.000000
1.310000,-2.356229,0.689825,-1.511468,1.073675,0.190148,-0.189356,0.879192,1.137131,0.336354,1.023146,1.569356,2.936382,6.160810,-10.327515,7.112408,0.118953,-0.092539,0.000000,0.197663,-0.134638,-0.000000
1.320000,-2.345448,0.691783,-1.513345,1.082519,0.201598,-0.185846,0.889731,1.152308,0.366074,1.084844,1.463369,3.006498,6.191152,-10.878065,6.879843,0.120886,-0.093935,0.000000,0.188518,-0.142542,-0.000000
1.330000,-2.334578,0.693857,-1.515185,1.091470,0.213194,-0.182035,0.900889,1.166398,0.396484,1.146969,1.351795,3.073979,6.233714,-11.436098,6.597057,0.122723,-0.095411,0.000000,0.178716,-0.150564,0.000000
1.340000,-2.323619,0.696047,-1.516985,1.100536,0.224926,-0.177916,0.912670,1.179344,0.427554,1.209518,1.234647,3.138439,6.256178,-11.982613,6.293508,0.124460,-0.096969,0.000000,0.168242,-0.158701,0.000000
1.350000,-2.312568,0.698355,-1.518743,1.109723,0.236781,-0.173483,0.925079,1.191091,0.459253,1.272092,1.112143,3.199849,6.246118,-12.505158,5.983320,0.126088,-0.098610,0.000000,0.157102,-0.166914,-0.000000
1.360000,-2.301424,0.700783,-1.520455,1.119038,0.248747,-0.168731,0.938112,1.201587,0.491551,1.334440,0.984544,3.258105,6.225877,-13.015027,5.643729,0.127601,-0.100335,0.000000,0.145309,-0.175177,-0.000000
1.370000,-2.290187,0.703330,-1.522118,1.128486,0.260813,-0.163652,0.951768,1.210782,0.524415,1.396610,0.851842,3.312724,6.219285,-13.543133,5.238353,0.128994,-0.102143,0.000000,0.132842,-0.183493,0.000000
1.380000,-2.278854,0.705999,-1.523728,1.138073,0.272963,-0.158243,0.966044,1.218624,0.557805,1.458826,0.713682,3.362872,6.224967,-14.084670,4.770886,0.130258,-0.104035,0.000000,0.119634,-0.191875,-0.000000
1.390000,-2.267425,0.708790,-1.525283,1.147807,0.285185,-0.152496,0.980944,1.225055,0.591672,1.521109,0.570149,3.408142,6.209260,-14.594738,4.288144,0.131386,-0.106013,0.000000,0.105672,-0.200322,-0.000000
1.400000,-2.255898,0.711703,-1.526778,1.157692,0.297464,-0.146409,0.996467,1.230027,0.625968,1.583011,0.421787,3.448635,6.123472,-15.069125,3.807291,0.132371,-0.108077,0.000000,0.091000,-0.208786,-0.000000
1.410000,-2.244272,0.714739,-1.528211,1.167736,0.309786,-0.139977,1.012604,1.233491,0.660645,1.643579,0.268766,3.484287,5.992496,-15.535249,3.294893,0.133206,-0.110226,0.000000,0.075620,-0.217162,-0.000000
1.420000,-2.232544,0.717898,-1.529577,1.177944,0.322134,-0.133196,1.029338,1.235402,0.695654,1.702861,0.111082,3.514533,5.948885,-15.990429,2.706905,0.133883,-0.112460,0.000000,0.059507,-0.225445,-0.000000
1.430000,-2.220713,0.721182,-1.530875,1.188323,0.334494,-0.126064,1.046662,1.235713,0.730936,1.762556,-0.051042,3.538425,5.975241,-16.415693,2.050737,0.134395,-0.114776,0.000000,0.042654,-0.233801,0.000000
1.440000,-2.208777,0.724588,-1.532099,1.198877,0.346848,-0.118578,1.064589,1.234381,0.766422,1.822366,-0.217232,3.555548,5.890712,-16.815025,1.384281,0.134735,-0.117178,0.000000,0.025078,-0.242189,-0.000000
1.450000,-2.196735,0.728118,-1.533246,1.209615,0.359181,-0.110735,1.083109,1.231368,0.802046,1.880371,-0.387343,3.566111,5.763350,-17.239610,0.729338,0.134896,-0.119665,0.000000,0.006788,-0.250398,-0.000000
1.460000,-2.184585,0.731772,-1.534313,1.220540,0.371476,-0.102537,1.102197,1.226634,0.837744,1.937633,-0.562024,3.570135,5.705041,-17.679479,0.046019,0.134870,-0.122233,0.000000,-0.012302,-0.258533,0.000000
1.470000,-2.172324,0.735548,-1.535297,1.231658,0.383714,-0.093981,1.121862,1.220128,0.873449,1.994471,-0.740932,3.567031,5.473327,-17.987727,-0.719496,0.134649,-0.124883,0.000000,-0.032177,-0.266614,0.000000
1.480000,-2.159952,0.739446,-1.536193,1.242977,0.395878,-0.085068,1.142086,1.211816,0.909085,2.047100,-0.921779,3.555745,4.997232,-18.196484,-1.555943,0.134226,-0.127614,0.000000,-0.052608,-0.274201,-0.000000
1.490000,-2.147465,0.743466,-1.536998,1.254500,0.407950,-0.075799,1.162804,1.201692,0.944564,2.094416,-1.104862,3.535913,4.623274,-18.495648,-2.391130,0.133596,-0.130417,0.000000,-0.073635,-0.281150,-0.000000
1.500000,-2.134862,0.747605,-1.537709,1.266233,0.419912,-0.066176,1.183975,1.189718,0.979803,2.139565,-1.291692,3.507922,4.541375,-18.641700,-3.208646,0.132753,-0.133288,0.000000,-0.095431,-0.287793,-0.000000
1.510000,-2.122140,0.751864,-1.538322,1.278180,0.431745,-0.056203,1.205595,1.175858,1.014723,2.185244,-1.477696,3.471740,4.503320,-18.525596,-4.056066,0.131687,-0.136224,0.000000,-0.117501,-0.294412,-0.000000
1.520000,-2.109298,0.756240,-1.538833,1.290345,0.443429,-0.045882,1.227679,1.160164,1.049238,2.229632,-1.662204,3.426801,4.057904,-18.886888,-4.966872,0.130402,-0.139227,0.000000,-0.139770,-0.300783,-0.000000
1.530000,-2.096333,0.760732,-1.539239,1.302733,0.454948,-0.035218,1.250188,1.142614,1.083259,2.266402,-1.855434,3.372402,3.320925,-19.746625,-5.928404,0.128891,-0.142291,0.000000,-0.163367,-0.306172,0.000000
1.540000,-2.083243,0.765339,-1.539537,1.315349,0.466281,-0.024217,1.273007,1.123056,1.116686,2.296050,-2.057136,3.308233,2.887982,-20.077498,-6.894533,0.127134,-0.145402,0.000000,-0.188279,-0.310601,-0.000000
1.550000,-2.070026,0.770058,-1.539724,1.328193,0.477409,-0.012884,1.296109,1.101472,1.149423,2.324161,-2.256984,3.234512,2.503848,-20.066129,-7.828764,0.125124,-0.148554,0.000000,-0.213352,-0.314671,-0.000000
1.560000,-2.056679,0.774887,-1.539795,1.341271,0.488311,-0.001228,1.319491,1.077916,1.181376,2.346127,-2.458459,3.151657,1.801402,-20.374511,-8.761556,0.122866,-0.151745,0.000000,-0.238944,-0.317852,-0.000000
1.570000,-2.043201,0.779824,-1.539748,1.354583,0.498967,0.010743,1.343031,1.052302,1.212456,2.360189,-2.664474,3.059280,1.635952,-20.189735,-9.788715,0.120345,-0.154959,0.000000,-0.265374,-0.319910,0.000000
1.580000,-2.029588,0.784867,-1.539580,1.368131,0.509357,0.023021,1.366694,1.024627,1.242562,2.378846,-2.862254,2.955883,2.164709,-19.222900,-10.904029,0.117558,-0.158189,0.000000,-0.291217,-0.322203,-0.000000
1.590000,-2.015838,0.790011,-1.539288,1.381917,0.519460,0.035594,1.390608,0.995057,1.271574,2.403484,-3.048932,2.841200,2.184128,-18.645793,-11.971954,0.114520,-0.161447,0.000000,-0.316109,-0.324868,-0.000000
1.600000,-2.001949,0.795256,-1.538868,1.395944,0.529258,0.048452,1.414764,0.963648,1.299386,2.422529,-3.235169,2.716444,1.617330,-18.730404,-12.950590,0.111235,-0.164729,0.000000,-0.341181,-0.326595,-0.000000
1.610000,-1.987919,0.800597,-1.538319,1.410212,0.538733,0.061582,1.439059,0.930354,1.325903,2.435830,-3.423540,2.582188,1.278160,-18.660191,-13.928675,0.107696,-0.168019,0.000000,-0.366689,-0.327349,-0.000000
1.620000,-1.973745,0.806030,-1.537637,1.424725,0.547865,0.074970,1.463481,0.895177,1.351030,2.448092,-3.608373,2.437870,1.058366,-18.003520,-14.990305,0.103901,-0.171313,0.000000,-0.391958,-0.327633,0.000000
1.630000,-1.959425,0.811554,-1.536820,1.439482,0.556636,0.088603,1.488020,0.858186,1.374660,2.456997,-3.783611,2.282382,0.630413,-17.078361,-16.102319,0.099857,-0.174607,0.000000,-0.416246,-0.327136,0.000000
1.640000,-1.944956,0.817163,-1.535865,1.454485,0.565029,0.102464,1.512621,0.819505,1.396677,2.460700,-3.949940,2.115824,0.217371,-16.400715,-17.148399,0.095576,-0.177888,0.000000,-0.439566,-0.325624,-0.000000
1.650000,-1.930335,0.822854,-1.534770,1.469734,0.573026,0.116536,1.537234,0.779188,1.416977,2.461345,-4.111625,1.939414,0.114034,-15.668437,-18.120636,0.091066,-0.181148,0.000000,-0.462344,-0.323346,-0.000000
1.660000,-1.915561,0.828624,-1.533534,1.485230,0.580613,0.130803,1.561848,0.737272,1.435466,2.462981,-4.263309,1.753411,0.133435,-14.577277,-19.089216,0.086330,-0.184381,0.000000,-0.483903,-0.320755,-0.000000
1.670000,-1.900631,0.834467,-1.532154,1.500971,0.587772,0.145246,1.586494,0.693921,1.452045,2.464014,-4.403170,1.557630,-0.417808,-14.025218,-20.047281,0.081389,-0.187587,0.000000,-0.503962,-0.317648,-0.000000
1.680000,-1.885541,0.840379,-1.530629,1.516960,0.594491,0.159844,1.611128,0.649209,1.466618,2.454625,-4.543813,1.352466,-1.386187,-14.204892,-20.957141,0.076252,-0.190755,0.000000,-0.523910,-0.312889,-0.000000
1.690000,-1.870291,0.846356,-1.528957,1.533194,0.600756,0.174578,1.635587,0.603045,1.479094,2.436290,-4.687268,1.138487,-1.863615,-13.845152,-21.825770,0.070911,-0.193862,0.000000,-0.543932,-0.306648,-0.000000
1.700000,-1.854878,0.852394,-1.527138,1.549671,0.606552,0.189426,1.659854,0.555464,1.489388,2.417352,-4.820717,0.915950,-2.604623,-12.452281,-22.703003,0.065374,-0.196902,0.000000,-0.562483,-0.299884,0.000000
1.710000,-1.839298,0.858488,-1.525169,1.566391,0.611865,0.204366,1.683934,0.506631,1.497413,2.384197,-4.936314,0.684427,-4.152106,-10.916262,-23.571428,0.059663,-0.199872,0.000000,-0.578559,-0.291015,-0.000000
1.720000,-1.823550,0.864632,-1.523050,1.583350,0.616685,0.219374,1.707538,0.456737,1.503076,2.334310,-5.039042,0.444522,-4.159196,-10.306759,-24.282539,0.053805,-0.202732,0.000000,-0.592685,-0.279764,-0.000000
1.730000,-1.807631,0.870821,-1.520781,1.600542,0.621000,0.234427,1.730620,0.405850,1.506304,2.301013,-5.142449,0.198776,-2.665639,-10.044522,-24.836197,0.047811,-0.205474,0.000000,-0.606431,-0.270044,-0.000000
1.740000,-1.791539,0.877052,-1.518362,1.617962,0.624802,0.249500,1.753558,0.353888,1.507052,2.280997,-5.239932,-0.052202,-2.888374,-8.789296,-25.425364,0.041678,-0.208138,0.000000,-0.618963,-0.261492,-0.000000
1.750000,-1.775272,0.883317,-1.515791,1.635613,0.628078,0.264568,1.776240,0.301051,1.505260,2.243246,-5.318235,-0.309731,-2.892249,-8.596348,-26.032113,0.035434,-0.210708,0.000000,-0.628655,-0.250515,0.000000
1.760000,-1.758827,0.889613,-1.513070,1.653487,0.630823,0.279605,1.798423,0.247524,1.500857,2.223152,-5.411859,-0.572844,-0.695522,-10.168742,-26.523142,0.029107,-0.213151,0.000000,-0.639560,-0.241226,-0.000000
1.770000,-1.742202,0.895934,-1.510199,1.671581,0.633028,0.294585,1.820703,0.192814,1.493803,2.229336,-5.521610,-0.840194,-2.727024,-7.365887,-26.979667,0.022645,-0.215534,0.000000,-0.651714,-0.234642,-0.000000
1.780000,-1.725395,0.902274,-1.507179,1.689901,0.634679,0.309482,1.843009,0.137092,1.484053,2.168612,-5.559177,-1.112438,-9.733406,-0.022213,-27.436182,0.016075,-0.217845,0.000000,-0.654675,-0.220075,-0.000000
1.790000,-1.708404,0.908627,-1.504010,1.708442,0.635770,0.324267,1.864075,0.081631,1.471554,2.034667,-5.522054,-1.388918,-12.701579,3.384346,-27.764704,0.009554,-0.219936,0.000000,-0.648241,-0.196923,-0.000000
1.800000,-1.691226,0.914989,-1.500693,1.727183,0.636312,0.338913,1.883703,0.026650,1.456275,1.914580,-5.491490,-1.667732,-11.982585,4.157197,-28.027441,0.003112,-0.221783,0.000000,-0.642007,-0.175259,0.000000
1.810000,-1.673860,0.921354,-1.497231,1.746116,0.636303,0.353392,1.902367,-0.028199,1.438199,1.795016,-5.438910,-1.949467,-13.538178,7.808046,-28.300839,-0.003285,-0.223441,0.000000,-0.632634,-0.153567,0.000000
1.820000,-1.656304,0.927715,-1.493625,1.765230,0.635748,0.367677,1.919603,-0.082128,1.417286,1.643817,-5.335329,-2.233749,-13.863734,8.399145,-28.346997,-0.009539,-0.224855,0.000000,-0.616832,-0.128271,-0.000000
1.830000,-1.638556,0.934068,-1.489878,1.784508,0.634661,0.381738,1.935243,-0.134906,1.393524,1.517741,-5.270927,-2.516406,-10.072721,3.527023,-28.132666,-0.015620,-0.226007,0.000000,-0.605138,-0.105966,0.000000
1.840000,-1.620614,0.940408,-1.485991,1.803935,0.633049,0.395547,1.949958,-0.187546,1.366958,1.442362,-5.264789,-2.796402,-7.593249,1.849461,-27.985930,-0.021640,-0.226975,0.000000,-0.599675,-0.089542,-0.000000
1.850000,-1.602477,0.946729,-1.481967,1.823507,0.630910,0.409077,1.964090,-0.240202,1.337596,1.365876,-5.233938,-3.076125,-11.606527,5.894549,-27.898244,-0.027612,-0.227798,0.000000,-0.590857,-0.073088,0.000000
1.860000,-1.584144,0.953027,-1.477809,1.843217,0.628245,0.422299,1.977275,-0.292225,1.305435,1.210232,-5.146898,-3.354367,-17.965007,9.597998,-27.647617,-0.033456,-0.228437,0.000000,-0.575252,-0.047981,0.000000
1.870000,-1.565613,0.959294,-1.473521,1.863052,0.625065,0.435186,1.988295,-0.343139,1.270509,1.006576,-5.041978,-3.629077,-13.748860,8.408618,-27.338620,-0.039116,-0.228760,0.000000,-0.557400,-0.017937,-0.000000
1.880000,-1.546883,0.965528,-1.469105,1.882983,0.621383,0.447709,1.997407,-0.393065,1.232854,0.935255,-4.978725,-3.901139,-0.971776,4.941959,-27.034924,-0.044603,-0.228798,0.000000,-0.543922,-0.002958,-0.000000
1.890000,-1.527953,0.971722,-1.464567,1.903000,0.617204,0.459843,2.007000,-0.442714,1.192486,0.987140,-4.943139,-4.169776,3.078664,4.843769,-26.574851,-0.049993,-0.228819,0.000000,-0.533099,-0.001760,0.000000
1.900000,-1.508823,0.977872,-1.459909,1.923123,0.612528,0.471559,2.017150,-0.491927,1.149458,0.996828,-4.881850,-4.432636,4.023229,3.968547,-26.057778,-0.055264,-0.228833,0.000000,-0.519142,0.003892,0.000000
1.910000,-1.489490,0.983973,-1.455135,1.943343,0.607365,0.482832,2.026937,-0.540351,1.103834,1.067605,-4.863768,-4.690931,12.764040,-0.974988,-25.584589,-0.060375,-0.228741,0.000000,-0.509711,0.002667,-0.000000
1.920000,-1.469956,0.990019,-1.450252,1.963661,0.601721,0.493636,2.038502,-0.589203,1.055639,1.252109,-4.901350,-4.944328,9.353680,2.606018,-24.797489,-0.065457,-0.228779,0.000000,-0.505925,-0.010898,0.000000
1.930000,-1.450217,0.996007,-1.445263,1.984114,0.595581,0.503945,2.051979,-0.638378,1.004947,1.254679,-4.811647,-5.186881,-10.703894,16.047034,-23.642110,-0.070492,-0.228959,0.000000,-0.488094,-0.004932,0.000000
1.940000,-1.430273,1.001931,-1.440173,2.004701,0.588954,0.513735,2.063595,-0.685436,0.951902,1.038031,-4.580409,-5.417170,-19.114613,21.815433,-22.623591,-0.075219,-0.228879,0.000000,-0.455350,0.023914,0.000000
1.950000,-1.410123,1.007786,-1.434988,2.025385,0.581873,0.522983,2.072739,-0.729986,0.896604,0.872386,-4.375339,-5.639353,-13.869764,20.357035,-21.839851,-0.079601,-0.228481,0.000000,-0.425804,0.046577,-0.000000
1.960000,-1.389766,1.013568,-1.429713,2.046156,0.574354,0.531667,2.081043,-0.772942,0.839115,0.760635,-4.173268,-5.853967,-14.137370,23.339535,-20.947957,-0.083736,-0.227946,0.000000,-0.396832,0.062966,-0.000000
1.970000,-1.369200,1.019273,-1.424355,2.067006,0.566414,0.539765,2.087952,-0.813452,0.779524,0.589639,-3.908548,-6.058312,-17.641668,24.881074,-19.803657,-0.087539,-0.227219,0.000000,-0.361758,0.084935,0.000000
1.980000,-1.348426,1.024897,-1.418918,2.087915,0.558085,0.547257,2.092836,-0.851113,0.717949,0.407802,-3.675647,-6.250040,-16.833291,20.391822,-18.545200,-0.090973,-0.226242,0.000000,-0.330767,0.107229,-0.000000
1.990000,-1.327442,1.030435,-1.413410,2.108863,0.549392,0.554124,2.096108,-0.886964,0.654523,0.252973,-3.500712,-6.429216,-16.544563,18.950177,-17.345961,-0.094155,-0.225067,0.000000,-0.306407,0.125949,0.000000
2.000000,-1.306248,1.035884,-1.407836,2.129837,0.540346,0.560348,2.097895,-0.921128,0.589364,0.076911,-3.296643,-6.596960,-22.511274,23.323117,-16.083348,-0.097103,-0.223713,0.000000,-0.279529,0.146148,0.000000
2.010000,-1.284845,1.041242,-1.402203,2.150821,0.530969,0.565911,2.097646,-0.952897,0.522584,-0.197252,-3.034249,-6.750883,-30.699406,27.029242,-14.663675,-0.099748,-0.222132,0.000000,-0.247441,0.175536,0.000000
2.020000,-1.263232,1.046504,-1.396517,2.171790,0.521288,0.570799,2.093950,-0.981813,0.454347,-0.537077,-2.756058,-6.890233,-28.022487,25.638115,-13.450585,-0.102054,-0.220188,0.000000,-0.214653,0.210540,-0.000000
2.030000,-1.241409,1.051668,-1.390787,2.192700,0.511333,0.574998,2.086905,-1.008018,0.384780,-0.757702,-2.521487,-7.019895,-15.848610,21.483333,-12.478869,-0.104043,-0.217902,0.000000,-0.186797,0.232574,0.000000
2.040000,-1.219378,1.056730,-1.385017,2.213528,0.501127,0.578495,2.078796,-1.032242,0.313949,-0.854049,-2.326392,-7.139810,-11.666610,20.026224,-11.253365,-0.105791,-0.215512,0.000000,-0.163283,0.241533,0.000000
2.050000,-1.197139,1.061690,-1.379217,2.234276,0.490688,0.581277,2.069824,-1.054546,0.241983,-0.991034,-2.120963,-7.244962,-13.592047,19.931413,-9.851432,-0.107310,-0.213045,0.000000,-0.139426,0.253960,-0.000000
2.060000,-1.174692,1.066544,-1.373392,2.254925,0.480036,0.583335,2.058976,-1.074662,0.169049,-1.125890,-1.927763,-7.336839,-10.172033,17.757796,-8.604359,-0.108581,-0.210405,0.000000,-0.117412,0.265550,0.000000
2.070000,-1.152040,1.071291,-1.367550,2.275455,0.469195,0.584658,2.047306,-1.093102,0.095247,-1.194475,-1.765807,-7.417049,-10.396801,17.794905,-7.173707,-0.109660,-0.207703,0.000000,-0.098905,0.270150,0.000000
2.080000,-1.129183,1.075928,-1.361699,2.295871,0.458174,0.585239,2.035086,-1.109978,0.020708,-1.333826,-1.571865,-7.480313,-18.588407,21.393539,-5.441792,-0.110561,-0.204970,0.000000,-0.077948,0.281156,-0.000000
2.090000,-1.106123,1.080454,-1.355845,2.316157,0.446995,0.585072,2.020629,-1.124539,-0.054360,-1.566243,-1.337936,-7.525885,-21.459320,22.404678,-3.910332,-0.111220,-0.202046,0.000000,-0.053913,0.300503,-0.000000
2.100000,-1.082860,1.084868,-1.349997,2.336283,0.435684,0.584152,2.003761,-1.136737,-0.129809,-1.763013,-1.123772,-7.558520,-17.963064,20.445373,-2.591775,-0.111641,-0.198923,0.000000,-0.032353,0.315772,0.000000
2.110000,-1.059397,1.089168,-1.344162,2.356232,0.424260,0.582476,1.985369,-1.147014,-0.205530,-1.925504,-0.929028,-7.577721,-17.222148,19.712742,-1.153698,-0.111869,-0.195692,0.000000,-0.013161,0.327234,-0.000000
2.120000,-1.035736,1.093353,-1.338348,2.375991,0.412743,0.580042,1.965251,-1.155317,-0.281364,-2.107456,-0.729517,-7.581594,-17.711134,19.469934,0.264026,-0.111905,-0.192338,0.000000,0.005906,0.340032,0.000000
2.130000,-1.011877,1.097423,-1.332561,2.395537,0.401154,0.576849,1.943220,-1.161605,-0.357162,-2.279727,-0.539630,-7.572440,-16.144424,18.200147,1.528956,-0.111752,-0.188850,0.000000,0.023566,0.351450,0.000000
2.140000,-0.987825,1.101376,-1.326811,2.414855,0.389511,0.572898,1.919657,-1.166110,-0.432813,-2.430344,-0.365514,-7.551015,-15.442083,17.295457,2.853656,-0.111435,-0.185266,0.000000,0.039319,0.360447,-0.000000
2.150000,-0.963580,1.105213,-1.321103,2.433930,0.377832,0.568193,1.894613,-1.168915,-0.508182,-2.588569,-0.193721,-7.515367,-16.352906,17.143484,4.296478,-0.110966,-0.181596,0.000000,0.054403,0.369782,0.000000
2.160000,-0.939146,1.108933,-1.315447,2.452747,0.366133,0.562735,1.867885,-1.169984,-0.583120,-2.757402,-0.022644,-7.465085,-16.760454,16.734571,5.699163,-0.110348,-0.177825,0.000000,0.068984,0.379736,-0.000000
2.170000,-0.914525,1.112536,-1.309849,2.471288,0.354432,0.556530,1.839465,-1.169368,-0.657484,-2.923778,0.140971,-7.401384,-16.406920,15.835083,6.971443,-0.109588,-0.173955,0.000000,0.082495,0.389139,-0.000000
2.180000,-0.889720,1.116022,-1.304316,2.489537,0.342746,0.549585,1.809410,-1.167165,-0.731148,-3.085541,0.294057,-7.325656,-16.032898,14.778442,8.157143,-0.108698,-0.169995,0.000000,0.094709,0.397851,-0.000000
2.190000,-0.864735,1.119391,-1.298857,2.507476,0.331089,0.541907,1.777754,-1.163487,-0.803997,-3.244436,0.436540,-7.238241,-15.789062,13.795285,9.358649,-0.107694,-0.165951,0.000000,0.105660,0.406072,-0.000000
2.200000,-0.839571,1.122643,-1.293478,2.525092,0.319476,0.533505,1.744521,-1.158434,-0.875912,-3.401322,0.569963,-7.138483,-15.558875,12.968252,10.602772,-0.106586,-0.161827,0.000000,0.115521,0.413901,0.000000
2.210000,-0.814233,1.125780,-1.288187,2.542367,0.307920,0.524389,1.709728,-1.152087,-0.946767,-3.555613,0.695905,-7.026185,-15.270016,12.148371,11.814906,-0.105384,-0.157626,0.000000,0.124468,0.421314,0.000000
2.220000,-0.788724,1.128802,-1.282990,2.559286,0.296434,0.514570,1.673409,-1.144516,-1.016436,-3.706722,0.812930,-6.902185,-14.994490,11.013849,12.907868,-0.104097,-0.153353,0.000000,0.132413,0.428299,-0.000000
2.230000,-0.763047,1.131709,-1.277896,2.575835,0.285030,0.504060,1.635593,-1.135829,-1.084810,-3.855503,0.916182,-6.768028,-14.755030,9.622752,13.897376,-0.102736,-0.149013,0.000000,0.138963,0.434984,0.000000
2.240000,-0.737207,1.134502,-1.272909,2.591998,0.273718,0.492874,1.596299,-1.126192,-1.151797,-4.001823,1.005385,-6.624238,-14.449549,8.411555,14.892794,-0.101317,-0.144607,0.000000,0.144138,0.441387,-0.000000
2.250000,-0.711207,1.137183,-1.268038,2.607761,0.262506,0.481024,1.555557,-1.115721,-1.217295,-4.144494,1.084413,-6.470172,-14.098430,7.321574,15.929190,-0.099853,-0.140140,0.000000,0.148315,0.447420,0.000000
2.260000,-0.685052,1.139752,-1.263289,2.623109,0.251403,0.468528,1.513409,-1.104504,-1.281200,-4.283792,1.151817,-6.305654,-13.770177,6.076911,16.928267,-0.098351,-0.135614,0.000000,0.151388,0.453131,0.000000
2.270000,-0.658745,1.142211,-1.258668,2.638029,0.240416,0.455400,1.469881,-1.092685,-1.343408,-4.419898,1.205951,-6.131607,-13.375957,4.946653,17.797447,-0.096825,-0.131033,0.000000,0.153251,0.458573,-0.000000
2.280000,-0.632291,1.144561,-1.254181,2.652507,0.229549,0.441660,1.425011,-1.080385,-1.403832,-4.551311,1.250750,-5.949705,-12.891383,4.043045,18.557113,-0.095286,-0.126399,0.000000,0.154290,0.463654,0.000000
2.290000,-0.605695,1.146802,-1.249834,2.666529,0.218808,0.427324,1.378855,-1.067670,-1.462402,-4.677725,1.286812,-5.760465,-12.446481,2.984497,19.326447,-0.093739,-0.121717,0.000000,0.154579,0.468376,0.000000
2.300000,-0.578960,1.148937,-1.245634,2.680084,0.208196,0.412411,1.331456,-1.054649,-1.519042,-4.800240,1.310440,-5.563176,-12.043103,1.744196,20.130446,-0.092194,-0.116989,0.000000,0.153807,0.472847,0.000000
2.310000,-0.552093,1.150966,-1.241586,2.693158,0.197715,0.396943,1.282850,-1.041461,-1.573666,-4.918587,1.321696,-5.357856,-11.595441,0.591150,20.887571,-0.090663,-0.112219,0.000000,0.151999,0.477063,0.000000
2.320000,-0.525097,1.152891,-1.237695,2.705741,0.187367,0.380938,1.233085,-1.028215,-1.626199,-5.032149,1.322263,-5.145425,-11.141597,-0.505247,21.541037,-0.089154,-0.107408,0.000000,0.149326,0.480999,0.000000
2.330000,-0.497978,1.154713,-1.233967,2.717820,0.177151,0.364419,1.182207,-1.015016,-1.676574,-5.141419,1.311591,-4.927035,-10.717419,-1.641565,22.117344,-0.087676,-0.102560,0.000000,0.145760,0.484726,0.000000
2.340000,-0.470741,1.156434,-1.230407,2.729385,0.167067,0.347407,1.130256,-1.001983,-1.724739,-5.246498,1.289432,-4.703078,-10.264999,-2.739996,22.688440,-0.086238,-0.097675,0.000000,0.141296,0.488269,0.000000
2.350000,-0.443390,1.158055,-1.227019,2.740425,0.157111,0.329924,1.077277,-0.989227,-1.770636,-5.346719,1.256791,-4.473266,-9.757695,-3.731561,23.261166,-0.084849,-0.092757,0.000000,0.136025,0.491583,-0.000000
2.360000,-0.415932,1.159576,-1.223809,2.750931,0.147282,0.311994,1.023322,-0.976847,-1.814205,-5.441651,1.214800,-4.237854,-9.239329,-4.669129,23.788975,-0.083517,-0.087807,0.000000,0.130053,0.494649,0.000000
2.370000,-0.388372,1.161000,-1.220779,2.760892,0.137574,0.293640,0.968444,-0.964931,-1.855393,-5.531506,1.163408,-3.997487,-8.765886,-5.681409,24.260088,-0.082248,-0.082829,0.000000,0.123383,0.497502,0.000000
2.380000,-0.360715,1.162328,-1.217936,2.770300,0.127983,0.274886,0.912692,-0.953579,-1.894154,-5.616969,1.101172,-3.752653,-8.323516,-6.736214,24.692628,-0.081049,-0.077823,0.000000,0.115899,0.500216,-0.000000
2.390000,-0.332966,1.163560,-1.215282,2.779146,0.118503,0.255757,0.856105,-0.942908,-1.930446,-5.697976,1.028684,-3.503634,-7.841299,-7.653063,25.101014,-0.079929,-0.072790,0.000000,0.107654,0.502797,-0.000000
2.400000,-0.305132,1.164698,-1.212821,2.787422,0.109125,0.236277,0.798732,-0.933005,-1.964227,-5.773795,0.948111,-3.250632,-7.326660,-8.499962,25.479325,-0.078896,-0.067734,0.000000,0.098831,0.505196,0.000000
2.410000,-0.277217,1.165743,-1.210556,2.795120,0.099843,0.216472,0.740629,-0.923945,-1.995459,-5.844509,0.858685,-2.994048,-6.827004,-9.382341,25.820928,-0.077952,-0.062654,0.000000,0.089364,0.507430,-0.000000
2.420000,-0.249229,1.166695,-1.208491,2.802234,0.090646,0.196368,0.681842,-0.915832,-2.024108,-5.910335,0.760464,-2.734214,-6.312771,-10.051056,26.144136,-0.077108,-0.057553,0.000000,0.079257,0.509529,0.000000
2.430000,-0.221173,1.167556,-1.206629,2.808757,0.081526,0.175990,0.622422,-0.908736,-2.050143,-5.970765,0.657664,-2.471165,-5.767961,-10.449964,26.455559,-0.076367,-0.052432,0.000000,0.068855,0.511458,-0.000000
2.440000,-0.193054,1.168325,-1.204971,2.814683,0.072472,0.155365,0.562427,-0.902678,-2.073531,-6.025694,0.551465,-2.205103,-5.238212,-10.922022,26.731672,-0.075730,-0.047293,0.000000,0.058250,0.513217,0.000000
2.450000,-0.164879,1.169005,-1.203521,2.820006,0.063472,0.134520,0.501908,-0.897707,-2.094245,-6.075529,0.439223,-1.936531,-4.721896,-11.527336,26.955849,-0.075202,-0.042137,0.000000,0.047212,0.514848,-0.000000
2.460000,-0.136654,1.169595,-1.202281,2.824721,0.054517,0.113480,0.440916,-0.893894,-2.112262,-6.120132,0.320918,-1.665986,-4.189032,-12.024162,27.147134,-0.074786,-0.036966,0.000000,0.035734,0.516349,0.000000
2.470000,-0.108385,1.170095,-1.201252,2.828824,0.045595,0.092274,0.379506,-0.891288,-2.127565,-6.159310,0.198740,-1.393589,-3.663021,-12.318949,27.351285,-0.074487,-0.031780,0.000000,0.023986,0.517707,0.000000
2.480000,-0.080077,1.170507,-1.200435,2.832311,0.036692,0.070929,0.317730,-0.889919,-2.140134,-6.193393,0.074539,-1.118960,-3.155981,-12.487430,27.566405,-0.074306,-0.026582,0.000000,0.012109,0.518955,0.000000
2.490000,-0.051738,1.170829,-1.199833,2.835178,0.027796,0.049472,0.255638,-0.889798,-2.149944,-6.222429,-0.051009,-0.842261,-2.634064,-12.632373,27.732471,-0.074244,-0.021371,0.000000,0.000144,0.520103,0.000000
2.500000,-0.023374,1.171063,-1.199446,2.837424,0.018896,0.027930,0.193281,-0.890939,-2.156979,-6.246074,-0.178108,-0.564311,-2.092836,-12.771600,27.830506,-0.074303,-0.016150,0.000000,-0.011933,0.521126,0.000000
2.510000,0.005010,1.171207,-1.199275,2.839044,0.009977,0.006332,0.130716,-0.893360,-2.161230,-6.264286,-0.306441,-0.285651,-1.556313,-12.834691,27.902966,-0.074483,-0.010919,0.000000,-0.024108,0.522025,0.000000
2.520000,0.033407,1.171262,-1.199319,2.840038,0.001029,-0.015295,0.067996,-0.897068,-2.162692,-6.277200,-0.434802,-0.006251,-1.026912,-12.754911,27.995584,-0.074785,-0.005679,0.000000,-0.036296,0.522814,-0.000000
2.530000,0.061811,1.171228,-1.199580,2.840404,-0.007964,-0.036922,0.005172,-0.902056,-2.161355,-6.284824,-0.561539,0.274261,-0.496881,-12.548920,28.097394,-0.075209,-0.000432,0.000000,-0.048376,0.523494,-0.000000
2.540000,0.090215,1.171103,-1.200058,2.840141,-0.017013,-0.058522,-0.057701,-0.908299,-2.157207,-6.287138,-0.685780,0.555697,0.034250,-12.302130,28.148936,-0.075753,0.004822,0.000000,-0.060289,0.524068,-0.000000
2.550000,0.118614,1.170887,-1.200751,2.839250,-0.026130,-0.080066,-0.120571,-0.915772,-2.150241,-6.284139,-0.807581,0.837240,0.566628,-12.052099,28.131444,-0.076415,0.010081,0.000000,-0.072050,0.524536,-0.000000
2.560000,0.147000,1.170580,-1.201659,2.837730,-0.035328,-0.101526,-0.183384,-0.924450,-2.140462,-6.275805,-0.926822,1.118326,1.099679,-11.739039,28.085482,-0.077194,0.015344,0.000000,-0.083659,0.524896,0.000000
2.570000,0.175368,1.170181,-1.202781,2.835582,-0.044619,-0.122875,-0.246087,-0.934308,-2.127875,-6.262146,-1.042362,1.398949,1.628724,-11.263691,28.056968,-0.078088,0.020611,0.000000,-0.095035,0.525148,-0.000000
2.580000,0.203712,1.169688,-1.204117,2.832808,-0.054014,-0.144084,-0.308627,-0.945298,-2.112483,-6.243231,-1.152096,1.679465,2.153405,-10.640735,28.034414,-0.079095,0.025880,0.000000,-0.106018,0.525298,-0.000000
2.590000,0.232024,1.169101,-1.205663,2.829410,-0.063525,-0.165125,-0.370951,-0.957350,-2.094285,-6.219078,-1.255177,1.959638,2.679589,-10.003932,27.956292,-0.080209,0.031151,0.000000,-0.116547,0.525347,-0.000000
2.600000,0.260300,1.168417,-1.207419,2.825389,-0.073161,-0.185970,-0.433008,-0.970401,-2.073290,-6.189639,-1.352175,2.238591,3.207964,-9.388648,27.804768,-0.081426,0.036422,0.000000,-0.126675,0.525287,-0.000000
2.610000,0.288532,1.167637,-1.209383,2.820750,-0.082933,-0.206591,-0.494744,-0.984393,-2.049514,-6.154918,-1.442950,2.515733,3.734191,-8.705297,27.620434,-0.082743,0.041693,0.000000,-0.136396,0.525115,0.000000
2.620000,0.316715,1.166759,-1.211551,2.815494,-0.092849,-0.226960,-0.556106,-0.999260,-2.022976,-6.114955,-1.526281,2.790999,4.256784,-7.878272,27.443078,-0.084155,0.046962,0.000000,-0.145615,0.524830,-0.000000
2.630000,0.344842,1.165780,-1.213922,2.809628,-0.102918,-0.247050,-0.617043,-1.014919,-1.993694,-6.069783,-1.600515,3.064595,4.777821,-6.935294,27.258243,-0.085656,0.052228,0.000000,-0.154203,0.524432,-0.000000
2.640000,0.372907,1.164700,-1.216492,2.803154,-0.113147,-0.266834,-0.677502,-1.031270,-1.961684,-6.019399,-1.664987,3.336164,5.298332,-5.978208,27.011632,-0.087239,0.057490,0.000000,-0.162106,0.523915,-0.000000
2.650000,0.400905,1.163517,-1.219258,2.796077,-0.123544,-0.286284,-0.737431,-1.048219,-1.926970,-5.963816,-1.720079,3.604827,5.811645,-5.040621,26.698644,-0.088898,0.062747,0.000000,-0.169352,0.523271,0.000000
2.660000,0.428829,1.162230,-1.222218,2.788405,-0.134112,-0.305373,-0.796778,-1.065672,-1.889587,-5.903166,-1.765799,3.870137,6.317267,-4.057083,26.352870,-0.090627,0.067998,0.000000,-0.175941,0.522503,-0.000000
2.670000,0.456673,1.160835,-1.225366,2.780142,-0.144857,-0.324076,-0.855494,-1.083535,-1.849568,-5.837471,-1.801221,4.131885,6.833398,-2.950365,25.975209,-0.092418,0.073241,0.000000,-0.181791,0.521605,0.000000
2.680000,0.484432,1.159332,-1.228699,2.771295,-0.155783,-0.342365,-0.913528,-1.101696,-1.806949,-5.766498,-1.824806,4.389641,7.361732,-1.740262,25.549593,-0.094263,0.078476,0.000000,-0.186766,0.520546,0.000000
2.690000,0.512099,1.157720,-1.232213,2.761871,-0.166891,-0.360215,-0.970824,-1.120031,-1.761775,-5.690236,-1.836026,4.642877,7.876244,-0.536342,25.074139,-0.096154,0.083700,0.000000,-0.190810,0.519313,0.000000
2.700000,0.539669,1.155995,-1.235903,2.751879,-0.178183,-0.377600,-1.027333,-1.138417,-1.714092,-5.608973,-1.835533,4.891124,8.365372,0.616988,24.563503,-0.098080,0.088911,0.000000,-0.193968,0.517916,-0.000000
2.710000,0.567137,1.154156,-1.239765,2.741325,-0.189659,-0.394496,-1.083004,-1.156742,-1.663952,-5.522928,-1.823687,5.134147,8.846768,1.789138,24.014341,-0.100033,0.094109,0.000000,-0.196256,0.516362,0.000000
2.720000,0.594496,1.152201,-1.243793,2.730218,-0.201318,-0.410879,-1.137791,-1.174891,-1.611409,-5.432038,-1.799751,5.371411,9.346452,3.078429,23.381830,-0.102005,0.099292,0.000000,-0.197595,0.514629,-0.000000
2.730000,0.621741,1.150129,-1.247983,2.718569,-0.213157,-0.426725,-1.191645,-1.192737,-1.556524,-5.335999,-1.762118,5.601783,9.858828,4.458442,22.659452,-0.103986,0.104457,0.000000,-0.197821,0.512667,0.000000
2.740000,0.648867,1.147938,-1.252328,2.706386,-0.225173,-0.442010,-1.244511,-1.210133,-1.499373,-5.234861,-1.710582,5.824600,10.348153,5.788859,21.906029,-0.105962,0.109601,0.000000,-0.196889,0.510457,-0.000000
2.750000,0.675869,1.145626,-1.256823,2.693679,-0.237360,-0.456712,-1.296342,-1.226948,-1.440032,-5.129036,-1.646341,6.039904,10.808358,7.051620,21.154308,-0.107924,0.114724,0.000000,-0.194880,0.508020,-0.000000
2.760000,0.702741,1.143191,-1.261462,2.680459,-0.249712,-0.470810,-1.347092,-1.243060,-1.378575,-5.018694,-1.569549,6.247686,11.262371,8.331964,20.359967,-0.109860,0.119822,0.000000,-0.191784,0.505351,-0.000000
2.770000,0.729478,1.140632,-1.266239,2.666737,-0.262221,-0.484284,-1.396716,-1.258339,-1.315078,-4.903789,-1.479702,6.447103,11.719315,9.640497,19.436467,-0.111760,0.124893,0.000000,-0.187522,0.502420,-0.000000
2.780000,0.756075,1.137947,-1.271148,2.652524,-0.274878,-0.497112,-1.445168,-1.272654,-1.249633,-4.784308,-1.376739,6.636415,12.170226,10.938292,18.390317,-0.113611,0.129934,0.000000,-0.182041,0.499184,-0.000000
2.790000,0.782528,1.135134,-1.276181,2.637833,-0.287674,-0.509276,-1.492402,-1.285874,-1.182350,-4.660384,-1.260936,6.814910,12.602517,12.205316,17.336370,-0.115401,0.134942,0.000000,-0.175324,0.495622,-0.000000
2.800000,0.808832,1.132193,-1.281333,2.622676,-0.300596,-0.520759,-1.538375,-1.297873,-1.113335,-4.532257,-1.132633,6.983143,13.015694,13.450824,16.318516,-0.117117,0.139914,0.000000,-0.167371,0.491736,-0.000000
2.810000,0.834982,1.129122,-1.286597,2.607066,-0.313631,-0.531543,-1.583047,-1.308527,-1.042687,-4.400071,-0.991919,7.141280,13.416256,14.675969,15.256459,-0.118748,0.144845,0.000000,-0.158153,0.487515,-0.000000
2.820000,0.860973,1.125921,-1.291964,2.591015,-0.326766,-0.541613,-1.626377,-1.317711,-0.970509,-4.263932,-0.839114,7.288272,13.802418,15.839680,14.042660,-0.120280,0.149734,0.000000,-0.147650,0.482929,-0.000000
2.830000,0.886802,1.122587,-1.297429,2.574538,-0.339986,-0.550953,-1.668326,-1.325309,-0.896922,-4.124022,-0.675126,7.422133,14.170617,16.929477,12.697302,-0.121700,0.154575,0.000000,-0.135877,0.477936,0.000000
2.840000,0.912464,1.119121,-1.302983,2.557649,-0.353273,-0.559551,-1.708857,-1.331214,-0.822067,-3.980520,-0.500524,7.542218,14.521470,17.989009,11.364277,-0.122997,0.159364,0.000000,-0.122838,0.472509,0.000000
2.850000,0.937955,1.115522,-1.308620,2.540361,-0.366610,-0.567394,-1.747936,-1.335319,-0.746077,-3.833593,-0.315345,7.649419,14.853518,19.037350,10.090127,-0.124156,0.164097,0.000000,-0.108499,0.466642,0.000000
2.860000,0.963271,1.111789,-1.314331,2.522690,-0.379979,-0.574473,-1.785529,-1.337520,-0.669078,-3.683450,-0.119777,7.744021,15.164574,20.033534,8.778063,-0.125166,0.168769,0.000000,-0.092835,0.460324,0.000000
2.870000,0.988409,1.107922,-1.320109,2.504651,-0.393360,-0.580776,-1.821605,-1.337715,-0.591197,-3.530301,0.085325,7.824980,15.456087,20.911877,7.320317,-0.126012,0.173376,0.000000,-0.075865,0.453523,-0.000000
2.880000,1.013364,1.103921,-1.325947,2.486258,-0.406733,-0.586296,-1.856135,-1.335814,-0.512579,-3.374328,0.298460,7.890427,15.726772,21.672232,5.745931,-0.126682,0.177912,0.000000,-0.057662,0.446187,-0.000000
2.890000,1.038134,1.099787,-1.331835,2.467528,-0.420077,-0.591028,-1.889092,-1.331746,-0.433388,-3.215766,0.518770,7.939898,15.972248,22.390474,4.201342,-0.127164,0.182371,0.000000,-0.038255,0.438289,-0.000000
2.900000,1.062715,1.095520,-1.337767,2.448476,-0.433368,-0.594964,-1.920450,-1.325439,-0.353781,-3.054883,0.746270,7.974454,16.196320,23.104361,2.727890,-0.127446,0.186749,0.000000,-0.017609,0.429829,0.000000
2.910000,1.087104,1.091120,-1.343734,2.429119,-0.446585,-0.598103,-1.950189,-1.316820,-0.273899,-2.891839,0.980857,7.994456,16.399728,23.751772,1.230734,-0.127515,0.191038,0.000000,0.004304,0.420790,-0.000000
2.920000,1.111297,1.086588,-1.349729,2.409472,-0.459705,-0.600442,-1.978287,-1.305821,-0.193892,-2.726888,1.221305,7.999068,16.566286,24.217738,-0.378304,-0.127358,0.195233,0.000000,0.027421,0.411138,0.000000
2.930000,1.135293,1.081926,-1.355743,2.389553,-0.472702,-0.601981,-2.004727,-1.292394,-0.113918,-2.560514,1.465212,7.986890,16.692457,24.510142,-2.065574,-0.126965,0.199327,0.000000,0.051566,0.400851,0.000000
2.940000,1.159088,1.077134,-1.361769,2.369378,-0.485553,-0.602721,-2.029497,-1.276517,-0.034154,-2.393039,1.711508,7.957757,16.798775,24.773461,-3.708277,-0.126325,0.203314,0.000000,0.076669,0.389911,0.000000
2.950000,1.182681,1.072215,-1.367798,2.348963,-0.498232,-0.602664,-2.052588,-1.258164,0.045237,-2.224538,1.960681,7.912725,16.896509,25.045604,-5.283365,-0.125430,0.207187,0.000000,0.102793,0.378305,-0.000000
2.960000,1.206068,1.067170,-1.373822,2.328326,-0.510716,-0.601816,-2.073988,-1.237304,0.124101,-2.055109,2.212420,7.852090,16.969398,25.221328,-6.865714,-0.124268,0.210939,0.000000,0.129930,0.366004,0.000000
2.970000,1.229247,1.062000,-1.379834,2.307484,-0.522978,-0.600182,-2.093690,-1.213916,0.202279,-1.885150,2.465108,7.775410,16.985755,25.202410,-8.490336,-0.122829,0.214563,0.000000,0.157947,0.353000,0.000000
2.980000,1.252217,1.056710,-1.385826,2.286452,-0.534994,-0.597770,-2.111691,-1.188001,0.279609,-1.715394,2.716468,7.682283,16.935407,25.000306,-10.125723,-0.121107,0.218052,0.000000,0.186634,0.339314,-0.000000
2.990000,1.274976,1.051301,-1.391789,2.265250,-0.546738,-0.594590,-2.127998,-1.159586,0.355925,-1.546442,2.965114,7.572896,16.862647,24.740065,-11.718102,-0.119095,0.221398,0.000000,0.215852,0.324973,0.000000
3.000000,1.297522,1.045775,-1.397718,2.243892,-0.558186,-0.590652,-2.142620,-1.128699,0.431067,-1.378141,3.211270,7.447921,16.872103,24.562506,-13.258413,-0.116788,0.224596,0.000000,0.245609,0.309943,-0.000000
3.010000,1.319854,1.040137,-1.403602,2.222397,-0.569312,-0.585969,-2.155561,-1.095361,0.504883,-1.209000,3.456364,7.307728,16.925454,24.370818,-14.772776,-0.114180,0.227638,0.000000,0.276035,0.294046,0.000000
3.020000,1.341970,1.034389,-1.409437,2.200781,-0.580093,-0.580554,-2.166800,-1.059572,0.577221,-1.039632,3.698686,7.152465,16.728861,23.767562,-16.265304,-0.111265,0.230514,0.000000,0.306940,0.277315,0.000000
3.030000,1.363870,1.028535,-1.415214,2.179061,-0.590504,-0.574424,-2.176353,-1.021387,0.647932,-0.874423,3.931715,6.982422,16.310173,22.783023,-17.713547,-0.108040,0.233217,0.000000,0.337624,0.260176,0.000000
3.040000,1.385552,1.022579,-1.420925,2.157254,-0.600521,-0.567595,-2.184289,-0.980938,0.716870,-0.713428,4.154347,6.798194,16.067545,21.955243,-19.102308,-0.104511,0.235746,0.000000,0.367909,0.242637,0.000000
3.050000,1.407015,1.016525,-1.426565,2.135376,-0.610122,-0.560087,-2.190622,-0.938300,0.783896,-0.553072,4.370820,6.600375,15.863826,21.256426,-20.468986,-0.100680,0.238095,0.000000,0.398173,0.224327,0.000000
3.060000,1.428259,1.010376,-1.432127,2.113442,-0.619287,-0.551918,-2.195350,-0.893521,0.848877,-0.396152,4.579475,6.388815,15.448030,20.334234,-21.810215,-0.096546,0.240254,0.000000,0.428196,0.205516,0.000000
3.070000,1.449284,1.004139,-1.437604,2.091469,-0.627993,-0.543109,-2.198545,-0.846711,0.911673,-0.244111,4.777505,6.164171,15.309770,19.387098,-22.997344,-0.092115,0.242223,0.000000,0.457600,0.186371,-0.000000
3.080000,1.470088,0.997817,-1.442989,2.069471,-0.636221,-0.533684,-2.200232,-0.797971,0.972161,-0.089957,4.967217,5.928868,15.553248,18.539315,-24.015541,-0.087393,0.243996,0.000000,0.486520,0.166213,0.000000
3.090000,1.490673,0.991414,-1.448278,2.047464,-0.643952,-0.523666,-2.200344,-0.747366,1.030250,0.066954,5.148291,5.683860,15.484881,17.496349,-25.030798,-0.082383,0.245558,0.000000,0.514838,0.144988,0.000000
3.100000,1.511038,0.984938,-1.453463,2.025464,-0.651168,-0.513079,-2.198893,-0.695005,1.085838,0.219741,5.317144,5.428252,15.056155,16.299367,-26.085612,-0.077095,0.246904,0.000000,0.542101,0.123407,0.000000
3.110000,1.531182,0.978391,-1.458539,2.003486,-0.657852,-0.501949,-2.195949,-0.641023,1.138815,0.368077,5.474278,5.162148,14.736236,15.150958,-27.057355,-0.071541,0.248032,0.000000,0.568264,0.101527,0.000000
3.120000,1.551107,0.971780,-1.463502,1.981545,-0.663989,-0.490303,-2.191532,-0.585520,1.189081,0.514466,5.620163,4.887105,14.467779,13.826314,-27.844262,-0.065730,0.248938,0.000000,0.593267,0.079137,0.000000
3.130000,1.570813,0.965111,-1.468345,1.959655,-0.669563,-0.478168,-2.185660,-0.528620,1.236557,0.657432,5.750804,4.605263,14.054066,12.236206,-28.476423,-0.059676,0.249617,0.000000,0.616548,0.056479,0.000000
3.140000,1.590301,0.958389,-1.473065,1.937832,-0.674561,-0.465572,-2.178383,-0.470504,1.281186,0.795547,5.864887,4.317576,13.618077,10.720581,-29.075809,-0.053400,0.250068,0.000000,0.637847,0.033768,0.000000
3.150000,1.609570,0.951620,-1.477657,1.916088,-0.678973,-0.452544,-2.169749,-0.411322,1.322909,0.929794,5.965216,4.023747,13.385064,9.426693,-29.677593,-0.046920,0.250292,0.000000,0.657377,0.010925,-0.000000
3.160000,1.628622,0.944810,-1.482116,1.894437,-0.682788,-0.439113,-2.159787,-0.351199,1.361661,1.063248,6.053421,3.724025,13.246153,8.121379,-30.193329,-0.040253,0.250286,0.000000,0.675221,-0.012347,-0.000000
3.170000,1.647459,0.937964,-1.486439,1.872892,-0.685997,-0.425311,-2.148484,-0.290254,1.397389,1.194717,6.127644,3.419880,12.637082,6.502652,-30.521529,-0.033417,0.250044,0.000000,0.691068,-0.035836,0.000000
3.180000,1.666080,0.931090,-1.490622,1.851467,-0.688593,-0.411166,-2.135893,-0.228646,1.430059,1.315990,6.183474,3.113594,11.592728,4.668363,-30.677393,-0.026434,0.249568,0.000000,0.704319,-0.058515,-0.000000
3.190000,1.684488,0.924192,-1.494662,1.830174,-0.690570,-0.396709,-2.122164,-0.166585,1.459661,1.426571,6.221011,2.806332,10.877598,3.024802,-30.790671,-0.019332,0.248872,0.000000,0.714889,-0.080232,0.000000
3.200000,1.702684,0.917278,-1.498556,1.809024,-0.691924,-0.381972,-2.107361,-0.104226,1.486185,1.533542,6.243970,2.497781,10.437745,1.474308,-30.936410,-0.012138,0.247962,0.000000,0.723128,-0.101736,-0.000000
3.210000,1.720668,0.910354,-1.502302,1.788027,-0.692654,-0.366986,-2.091493,-0.041705,1.509617,1.635326,6.250497,2.187604,9.772243,-0.230143,-31.020382,-0.004872,0.246837,0.000000,0.728760,-0.122810,0.000000
3.220000,1.738444,0.903425,-1.505896,1.767194,-0.692759,-0.351780,-2.074655,0.020784,1.529937,1.728987,6.239367,1.877373,9.207202,-1.716474,-30.838710,0.002435,0.245506,0.000000,0.731581,-0.143023,0.000000
3.230000,1.756012,0.896499,-1.509337,1.746534,-0.692239,-0.336387,-2.056914,0.083082,1.547164,1.819470,6.216168,1.570830,8.936415,-2.875551,-30.412164,0.009757,0.243977,0.000000,0.732206,-0.162779,-0.000000
3.240000,1.773375,0.889581,-1.512624,1.726056,-0.691097,-0.320837,-2.038265,0.145107,1.561354,1.907715,6.181856,1.269130,8.474024,-4.223444,-30.014921,0.017076,0.242250,0.000000,0.730739,-0.182109,0.000000
3.250000,1.790533,0.882677,-1.515754,1.705769,-0.689336,-0.305160,-2.018759,0.206719,1.572547,1.988951,6.131699,0.970531,7.749474,-5.799715,-29.704690,0.024369,0.240334,0.000000,0.726612,-0.200475,0.000000
3.260000,1.807490,0.875794,-1.518727,1.685680,-0.686962,-0.289386,-1.998486,0.267741,1.580765,2.062705,6.065862,0.675036,7.103600,-7.241740,-29.296641,0.031606,0.238240,0.000000,0.719838,-0.217776,0.000000
3.270000,1.824247,0.868938,-1.521542,1.665799,-0.683982,-0.273545,-1.977505,0.328037,1.586047,2.131023,5.986864,0.384599,6.570196,-8.563424,-28.678450,0.038763,0.235977,0.000000,0.710734,-0.234154,0.000000
3.280000,1.840806,0.862114,-1.524198,1.646130,-0.680402,-0.257665,-1.955866,0.387478,1.588457,2.194109,5.894594,0.101467,6.032308,-9.877361,-27.911504,0.045818,0.233554,0.000000,0.699324,-0.249538,-0.000000
3.290000,1.857170,0.855330,-1.526695,1.626681,-0.676232,-0.241775,-1.933623,0.445928,1.588077,2.251669,5.789317,-0.173632,5.478135,-11.121666,-27.141151,0.052747,0.230982,0.000000,0.685686,-0.263847,-0.000000
3.300000,1.873340,0.848590,-1.529033,1.607458,-0.671483,-0.225903,-1.910832,0.503265,1.584984,2.303671,5.672160,-0.441356,4.925146,-12.331888,-26.396602,0.059529,0.228270,0.000000,0.669999,-0.277075,-0.000000
3.310000,1.889319,0.841900,-1.531213,1.588465,-0.666167,-0.210076,-1.887550,0.559372,1.579249,2.350172,5.542679,-0.701564,4.378497,-13.541551,-25.586400,0.066145,0.225431,0.000000,0.652267,-0.289206,0.000000
3.320000,1.905109,0.835266,-1.533235,1.569707,-0.660296,-0.194318,-1.863829,0.614118,1.570953,2.391241,5.401329,-0.953084,3.836004,-14.566089,-24.646726,0.072573,0.222474,0.000000,0.632617,-0.300206,0.000000
3.330000,1.920713,0.828694,-1.535099,1.551188,-0.653884,-0.178657,-1.839725,0.667398,1.560188,2.426892,5.251357,-1.194498,3.292468,-15.371334,-23.612455,0.078796,0.219412,0.000000,0.611513,-0.310033,-0.000000
3.340000,1.936133,0.822189,-1.536808,1.532912,-0.646948,-0.163115,-1.815291,0.719145,1.547063,2.457091,5.093903,-1.425333,2.754464,-16.208513,-22.573847,0.084802,0.216255,0.000000,0.589169,-0.318674,-0.000000
3.350000,1.951371,0.815755,-1.538362,1.514882,-0.639502,-0.147715,-1.790583,0.769276,1.531681,2.481981,4.927187,-1.645975,2.258547,-17.173657,-21.543899,0.090578,0.213016,0.000000,0.565449,-0.326159,-0.000000
3.360000,1.966430,0.809399,-1.539762,1.497101,-0.631562,-0.132481,-1.765652,0.817689,1.514143,2.502262,4.750430,-1.856211,1.799011,-18.085514,-20.470799,0.096110,0.209706,0.000000,0.540344,-0.332573,-0.000000
3.370000,1.981313,0.803124,-1.541011,1.479569,-0.623148,-0.117433,-1.740538,0.864285,1.494557,2.517961,4.565477,-2.055391,1.276224,-18.719229,-19.342733,0.101384,0.206335,0.000000,0.514155,-0.337918,0.000000
3.380000,1.996022,0.796936,-1.542111,1.462290,-0.614277,-0.102590,-1.715292,0.908999,1.473035,2.527786,4.376045,-2.243066,0.700001,-19.135237,-18.186358,0.106392,0.202914,0.000000,0.487394,-0.342051,0.000000
3.390000,2.010559,0.790838,-1.543063,1.445264,-0.604968,-0.087972,-1.689982,0.951806,1.449696,2.531961,4.182772,-2.419118,0.207859,-19.622862,-17.025122,0.111131,0.199456,0.000000,0.460205,-0.345020,-0.000000
3.400000,2.024927,0.784836,-1.543870,1.428490,-0.595240,-0.073596,-1.664653,0.992654,1.424653,2.531943,3.983588,-2.583568,-0.257109,-20.152117,-15.849435,0.115596,0.195971,0.000000,0.432420,-0.347014,0.000000
3.410000,2.039129,0.778933,-1.544535,1.411970,-0.585115,-0.059479,-1.639343,1.031478,1.398024,2.526819,3.779730,-2.736107,-0.779219,-20.533685,-14.654571,0.119780,0.192470,0.000000,0.404247,-0.347950,0.000000
3.420000,2.053167,0.773134,-1.545060,1.395703,-0.574611,-0.045636,-1.614117,1.068249,1.369931,2.516359,3.572914,-2.876660,-1.157228,-20.895006,-13.486206,0.123681,0.188963,0.000000,0.375944,-0.347830,0.000000
3.430000,2.067043,0.767441,-1.545448,1.379688,-0.563750,-0.032080,-1.589016,1.102936,1.340491,2.503675,3.361829,-3.005831,-1.350024,-21.298298,-12.360928,0.127299,0.185460,0.000000,0.347413,-0.347049,-0.000000
3.440000,2.080760,0.761859,-1.545702,1.363923,-0.552552,-0.018826,-1.564043,1.135485,1.309814,2.489358,3.146948,-3.123878,-1.640403,-21.554578,-11.226093,0.130630,0.181966,0.000000,0.318753,-0.345705,0.000000
3.450000,2.094321,0.756390,-1.545824,1.348407,-0.541040,-0.005884,-1.539229,1.165875,1.278013,2.470867,2.930738,-3.230353,-2.075721,-21.707623,-10.035677,0.133675,0.178487,0.000000,0.290288,-0.343532,-0.000000
3.460000,2.107728,0.751038,-1.545819,1.333139,-0.529235,0.006735,-1.514626,1.194100,1.245207,2.447844,2.712796,-3.324592,-2.461559,-21.882708,-8.837649,0.136436,0.175034,0.000000,0.262013,-0.340506,-0.000000
3.470000,2.120984,0.745806,-1.545690,1.318115,-0.517158,0.019020,-1.490272,1.220131,1.211522,2.421636,2.493084,-3.407106,-2.737034,-21.884868,-7.770471,0.138916,0.171613,0.000000,0.233952,-0.336819,0.000000
3.480000,2.134091,0.740695,-1.545439,1.303333,-0.504832,0.030965,-1.466193,1.243962,1.177065,2.393103,2.275098,-3.480001,-2.981095,-21.657771,-6.832390,0.141116,0.168232,0.000000,0.206490,-0.332638,-0.000000
3.490000,2.147051,0.735709,-1.545070,1.288791,-0.492279,0.042562,-1.442410,1.265633,1.141922,2.362014,2.059928,-3.543754,-3.258711,-21.484827,-5.845627,0.143046,0.164894,0.000000,0.179751,-0.327967,-0.000000
3.500000,2.159867,0.730849,-1.544588,1.274485,-0.479519,0.053803,-1.418953,1.285160,1.106190,2.327929,1.845402,-3.596914,-3.480742,-21.442859,-4.767661,0.144712,0.161605,0.000000,0.153524,-0.322755,0.000000
3.510000,2.172540,0.726118,-1.543994,1.260412,-0.466576,0.064685,-1.395851,1.302541,1.069983,2.292399,1.631071,-3.639107,-3.614655,-21.337780,-3.726626,0.146118,0.158371,0.000000,0.127777,-0.317192,-0.000000
3.520000,2.185075,0.721518,-1.543294,1.246568,-0.453469,0.075203,-1.373105,1.317782,1.033408,2.255636,1.418646,-3.671446,-3.909166,-21.036552,-2.823840,0.147269,0.155193,0.000000,0.102687,-0.311342,0.000000
3.530000,2.197472,0.717049,-1.542490,1.232950,-0.440220,0.085353,-1.350739,1.330914,0.996554,2.214215,1.210340,-3.695584,-4.377947,-20.617840,-2.023753,0.148173,0.152076,0.000000,0.078458,-0.304877,-0.000000
3.540000,2.209734,0.712713,-1.541587,1.219553,-0.426850,0.095134,-1.328821,1.341989,0.959496,2.168077,1.006289,-3.711921,-4.677796,-20.251538,-1.203308,0.148839,0.149028,0.000000,0.055091,-0.297818,0.000000
3.550000,2.221863,0.708512,-1.540587,1.206373,-0.413380,0.104543,-1.307377,1.351039,0.922316,2.120660,0.805309,-3.719650,-4.827676,-19.864602,-0.341316,0.149275,0.146052,0.000000,0.032468,-0.290545,-0.000000
3.560000,2.233861,0.704446,-1.539496,1.193406,-0.399830,0.113580,-1.286407,1.358095,0.885103,2.071523,0.608997,-3.718748,-5.054703,-19.357725,0.476230,0.149489,0.143151,0.000000,0.010751,-0.283025,-0.000000
3.570000,2.245731,0.700515,-1.538316,1.180645,-0.386218,0.122245,-1.265947,1.363219,0.847941,2.019565,0.418155,-3.710125,-5.218203,-18.966831,1.192081,0.149491,0.140328,0.000000,-0.010005,-0.275168,-0.000000
3.580000,2.257474,0.696722,-1.537051,1.168087,-0.372565,0.130539,-1.246016,1.366458,0.810901,1.967159,0.229661,-3.694906,-5.227848,-18.735604,1.830086,0.149290,0.137585,0.000000,-0.030166,-0.267258,-0.000000
3.590000,2.269093,0.693064,-1.535705,1.155725,-0.358889,0.138463,-1.226603,1.367813,0.774043,1.915009,0.043443,-3.673524,-5.296433,-18.338707,2.459699,0.148889,0.134922,0.000000,-0.049757,-0.259384,0.000000
3.600000,2.280589,0.689544,-1.534282,1.143555,-0.345209,0.146020,-1.207716,1.367327,0.737430,1.861231,-0.137114,-3.645712,-5.481415,-17.774240,3.102442,0.148295,0.132339,0.000000,-0.068431,-0.251348,0.000000
3.610000,2.291964,0.686160,-1.532785,1.131571,-0.331543,0.153212,-1.189379,1.365070,0.701129,1.805380,-0.312042,-3.611475,-5.632422,-17.265255,3.709799,0.147521,0.129839,0.000000,-0.086213,-0.243110,0.000000
3.620000,2.303220,0.682913,-1.531218,1.119767,-0.317908,0.160043,-1.171608,1.361086,0.665201,1.748582,-0.482419,-3.571516,-5.661342,-16.737789,4.221342,0.146572,0.127423,0.000000,-0.103244,-0.234806,-0.000000
3.630000,2.314359,0.679802,-1.529584,1.108138,-0.304321,0.166516,-1.154407,1.355422,0.629698,1.692153,-0.646798,-3.527048,-5.620209,-16.114626,4.650815,0.145456,0.125092,0.000000,-0.119405,-0.226597,-0.000000
3.640000,2.325383,0.676826,-1.527887,1.096679,-0.290799,0.172637,-1.137765,1.348150,0.594660,1.636178,-0.804711,-3.478500,-5.616904,-15.521623,5.077219,0.144184,0.122843,0.000000,-0.134673,-0.218497,0.000000
3.650000,2.336293,0.673986,-1.526131,1.085383,-0.277358,0.178409,-1.121684,1.339328,0.560128,1.579815,-0.957230,-3.425503,-5.640377,-14.971028,5.511988,0.142763,0.120676,0.000000,-0.149177,-0.210413,0.000000
3.660000,2.347091,0.671279,-1.524319,1.074245,-0.264013,0.183839,-1.106169,1.329005,0.526150,1.523371,-1.104132,-3.368260,-5.622129,-14.378868,5.902247,0.141201,0.118591,0.000000,-0.162913,-0.202380,0.000000
3.670000,2.357778,0.668706,-1.522454,1.063260,-0.250778,0.188932,-1.091216,1.317245,0.492763,1.467373,-1.244808,-3.307459,-5.600667,-13.776246,6.227217,0.139505,0.116587,0.000000,-0.175845,-0.194464,0.000000
3.680000,2.368356,0.666264,-1.520540,1.052421,-0.237668,0.193694,-1.076822,1.304109,0.460001,1.411357,-1.379657,-3.243716,-5.603352,-13.197839,6.504307,0.137684,0.114663,0.000000,-0.188041,-0.186620,-0.000000
3.690000,2.378826,0.663952,-1.518580,1.041723,-0.224696,0.198132,-1.062989,1.289652,0.427889,1.355306,-1.508764,-3.177372,-5.573348,-12.597340,6.759301,0.135745,0.112818,0.000000,-0.199531,-0.178849,-0.000000
3.700000,2.389190,0.661770,-1.516578,1.031161,-0.211875,0.202252,-1.049715,1.273934,0.396453,1.299890,-1.631603,-3.108530,-5.498474,-11.959383,7.001570,0.133694,0.111052,0.000000,-0.210276,-0.171220,0.000000
3.710000,2.399449,0.659715,-1.514535,1.020729,-0.199217,0.206061,-1.036991,1.257020,0.365718,1.245336,-1.747952,-3.037341,-5.420036,-11.320420,7.215062,0.131539,0.109363,0.000000,-0.220269,-0.163756,0.000000
3.720000,2.409605,0.657785,-1.512456,1.010421,-0.186734,0.209567,-1.024809,1.238975,0.335706,1.191490,-1.858012,-2.964229,-5.354324,-10.709371,7.374364,0.129289,0.107748,0.000000,-0.229552,-0.156440,0.000000
3.730000,2.419658,0.655980,-1.510344,1.000233,-0.174437,0.212775,-1.013161,1.219860,0.306434,1.138250,-1.962140,-2.889854,-5.289823,-10.117761,7.485136,0.126948,0.106207,0.000000,-0.238184,-0.149267,0.000000
3.740000,2.429609,0.654297,-1.508201,0.990158,-0.162337,0.215695,-1.002044,1.199732,0.277909,1.085693,-2.060367,-2.814526,-5.209151,-9.512690,7.583544,0.124525,0.104738,0.000000,-0.246182,-0.142244,0.000000
3.750000,2.439461,0.652733,-1.506030,0.980192,-0.150443,0.218334,-0.991448,1.178652,0.250143,1.034067,-2.152393,-2.738183,-5.102578,-8.886244,7.676278,0.122025,0.103340,0.000000,-0.253526,-0.135391,-0.000000
3.760000,2.449213,0.651288,-1.503834,0.970329,-0.138764,0.220698,-0.981362,1.156684,0.223146,0.983642,-2.238092,-2.661000,-4.983186,-8.263408,7.740924,0.119454,0.102010,0.000000,-0.260214,-0.128734,-0.000000
3.770000,2.458867,0.649958,-1.501616,0.960565,-0.127309,0.222797,-0.971775,1.133890,0.196923,0.934403,-2.317661,-2.583364,-4.882802,-7.669988,7.768681,0.116820,0.100747,0.000000,-0.266282,-0.122270,-0.000000
3.780000,2.468425,0.648742,-1.499378,0.950894,-0.116086,0.224637,-0.962674,1.110331,0.171478,0.885986,-2.391492,-2.505627,-4.796099,-7.100849,7.769829,0.114129,0.099548,0.000000,-0.271781,-0.115962,-0.000000
3.790000,2.477885,0.647636,-1.497123,0.941311,-0.105102,0.226226,-0.954055,1.086061,0.146811,0.838481,-2.459678,-2.427968,-4.681886,-6.525341,7.757454,0.111385,0.098412,0.000000,-0.276730,-0.109816,-0.000000
3.800000,2.487251,0.646640,-1.494854,0.931812,-0.094365,0.227573,-0.945905,1.061137,0.122919,0.792348,-2.521998,-2.350478,-4.555162,-5.935659,7.726407,0.108594,0.097337,0.000000,-0.281114,-0.103875,0.000000
3.810000,2.496522,0.645749,-1.492572,0.922393,-0.083880,0.228685,-0.938208,1.035621,0.099801,0.747378,-2.578392,-2.273440,-4.442597,-5.354661,7.671142,0.105762,0.096322,0.000000,-0.284935,-0.098118,0.000000
3.820000,2.505699,0.644962,-1.490280,0.913048,-0.073653,0.229569,-0.930957,1.009569,0.077450,0.703496,-2.629092,-2.197055,-4.294253,-4.805270,7.611610,0.102895,0.095364,0.000000,-0.288225,-0.092533,0.000000
3.830000,2.514783,0.644276,-1.487981,0.903774,-0.063688,0.230234,-0.924138,0.983039,0.055860,0.661493,-2.674497,-2.121207,-4.100761,-4.282171,7.552655,0.099998,0.094461,0.000000,-0.291025,-0.087196,0.000000
3.840000,2.523774,0.643688,-1.485675,0.894566,-0.053992,0.230686,-0.917727,0.956080,0.035026,0.621481,-2.714735,-2.046002,-3.933793,-3.757702,7.469489,0.097075,0.093611,0.000000,-0.293354,-0.082114,0.000000
3.850000,2.532674,0.643196,-1.483367,0.885419,-0.044567,0.230934,-0.911709,0.928744,0.014940,0.582817,-2.749651,-1.971818,-3.791467,-3.226185,7.358625,0.094131,0.092811,0.000000,-0.295203,-0.077223,-0.000000
3.860000,2.541482,0.642797,-1.481057,0.876331,-0.035417,0.230985,-0.906071,0.901087,-0.004410,0.545651,-2.779259,-1.898829,-3.626651,-2.707694,7.239361,0.091170,0.092060,0.000000,-0.296577,-0.072535,-0.000000
3.870000,2.550200,0.642488,-1.478747,0.867298,-0.026545,0.230846,-0.900796,0.873159,-0.023037,0.510284,-2.803805,-1.827030,-3.466901,-2.218098,7.120100,0.088199,0.091354,0.000000,-0.297503,-0.068077,0.000000
3.880000,2.558828,0.642266,-1.476440,0.858315,-0.017954,0.230524,-0.895865,0.845010,-0.040951,0.476313,-2.823621,-1.756427,-3.332997,-1.752190,6.996339,0.085220,0.090693,0.000000,-0.298016,-0.063805,-0.000000
3.890000,2.567367,0.642129,-1.474137,0.849381,-0.009645,0.230027,-0.891269,0.816687,-0.058165,0.443624,-2.838849,-1.687104,-3.183459,-1.291090,6.860925,0.082238,0.090073,0.000000,-0.298131,-0.059705,-0.000000
3.900000,2.575816,0.642073,-1.471839,0.840490,-0.001620,0.229361,-0.886993,0.788233,-0.074693,0.412644,-2.849443,-1.619209,-2.995297,-0.830964,6.712626,0.079257,0.089494,0.000000,-0.297847,-0.055818,0.000000
3.910000,2.584177,0.642096,-1.469549,0.831641,0.006120,0.228533,-0.883016,0.759698,-0.090549,0.383718,-2.855468,-1.552851,-2.799435,-0.385380,6.558268,0.076281,0.088953,0.000000,-0.297170,-0.052178,0.000000
3.920000,2.592449,0.642196,-1.467269,0.822830,0.013574,0.227550,-0.879318,0.731124,-0.105750,0.356655,-2.857150,-1.488043,-2.647804,0.034457,6.406782,0.073314,0.088448,0.000000,-0.296122,-0.048761,-0.000000
3.930000,2.600633,0.642368,-1.464999,0.814054,0.020742,0.226418,-0.875883,0.702555,-0.120310,0.330762,-2.854779,-1.424716,-2.528958,0.431887,6.258943,0.070359,0.087975,0.000000,-0.294733,-0.045495,-0.000000
3.940000,2.608730,0.642610,-1.462740,0.805312,0.027625,0.225144,-0.872703,0.674029,-0.134244,0.306076,-2.848512,-1.362864,-2.375199,0.820489,6.105081,0.067419,0.087535,0.000000,-0.293018,-0.042383,-0.000000
3.950000,2.616739,0.642920,-1.460496,0.796600,0.034223,0.223733,-0.869762,0.645584,-0.147568,0.283258,-2.838369,-1.302614,-2.201338,1.204499,5.935541,0.064498,0.087126,0.000000,-0.290977,-0.039489,0.000000
3.960000,2.624662,0.643295,-1.458266,0.787917,0.040537,0.222192,-0.867038,0.617261,-0.160297,0.262049,-2.824422,-1.244154,-2.051035,1.574136,5.759384,0.061599,0.086744,0.000000,-0.288619,-0.036786,-0.000000
3.970000,2.632498,0.643731,-1.456052,0.779260,0.046568,0.220527,-0.864521,0.589096,-0.172451,0.242237,-2.806886,-1.187426,-1.870069,1.917488,5.606732,0.058725,0.086389,0.000000,-0.285964,-0.034251,0.000000
3.980000,2.640247,0.644226,-1.453855,0.770626,0.052319,0.218743,-0.862193,0.561123,-0.184045,0.224648,-2.786073,-1.132019,-1.641257,2.236999,5.477178,0.055880,0.086058,0.000000,-0.283038,-0.031962,-0.000000
3.990000,2.647910,0.644777,-1.451677,0.762016,0.057791,0.216846,-0.860028,0.533375,-0.195091,0.209412,-2.762146,-1.077883,-1.443064,2.547916,5.331870,0.053065,0.085748,0.000000,-0.279856,-0.029928,-0.000000
4.000000,2.655487,0.645382,-1.449518,0.753426,0.062986,0.214841,-0.858005,0.505880,-0.205603,0.195787,-2.735114,-1.025382,-1.283461,2.853596,5.164188,0.050282,0.085458,0.000000,-0.276420,-0.028077,-0.000000
4.010000,2.662979,0.646037,-1.447380,0.744856,0.067908,0.212734,-0.856112,0.478672,-0.215599,0.183743,-2.705074,-0.974599,-1.109164,3.143516,5.001788,0.047536,0.085186,0.000000,-0.272738,-0.026406,-0.000000
4.020000,2.670385,0.646740,-1.445264,0.736304,0.072560,0.210529,-0.854330,0.451779,-0.225095,0.173604,-2.672244,-0.925346,-0.921583,3.409776,4.858672,0.044828,0.084929,0.000000,-0.268830,-0.024944,-0.000000
4.030000,2.677705,0.647488,-1.443170,0.727769,0.076944,0.208232,-0.852640,0.425227,-0.234106,0.165311,-2.636879,-0.877425,-0.740313,3.655507,4.726855,0.042159,0.084687,0.000000,-0.264718,-0.023682,-0.000000
4.040000,2.684940,0.648279,-1.441099,0.719251,0.081064,0.205847,-0.851024,0.399041,-0.242643,0.158797,-2.599134,-0.830809,-0.559325,3.890740,4.590534,0.039533,0.084455,0.000000,-0.260416,-0.022613,0.000000
4.050000,2.692090,0.649110,-1.439053,0.710749,0.084925,0.203379,-0.849464,0.373245,-0.250722,0.154125,-2.559064,-0.785615,-0.373463,4.117872,4.446013,0.036951,0.084234,0.000000,-0.255929,-0.021743,-0.000000
4.060000,2.699155,0.649978,-1.437031,0.702262,0.088529,0.200833,-0.847941,0.347860,-0.258356,0.151328,-2.516777,-0.741888,-0.188414,4.330200,4.304597,0.034414,0.084020,0.000000,-0.251265,-0.021074,0.000000
4.070000,2.706135,0.650880,-1.435036,0.693790,0.091882,0.198212,-0.846438,0.322909,-0.265560,0.150356,-2.472460,-0.699523,-0.011728,4.521874,4.178567,0.031925,0.083812,0.000000,-0.246441,-0.020599,0.000000
4.080000,2.713031,0.651815,-1.433067,0.685333,0.094987,0.195522,-0.844934,0.298411,-0.272346,0.151093,-2.426339,-0.658317,0.157835,4.694973,4.065207,0.029485,0.083608,0.000000,-0.241477,-0.020306,-0.000000
4.090000,2.719842,0.652780,-1.431125,0.676891,0.097850,0.192765,-0.843416,0.274382,-0.278726,0.153513,-2.378561,-0.618219,0.329277,4.857298,3.949111,0.027096,0.083406,0.000000,-0.236386,-0.020191,-0.000000
4.100000,2.726569,0.653772,-1.429212,0.668465,0.100475,0.189947,-0.841864,0.250840,-0.284710,0.157679,-2.329193,-0.579335,0.503030,5.011004,3.826489,0.024758,0.083204,0.000000,-0.231173,-0.020259,-0.000000
4.110000,2.733211,0.654789,-1.427327,0.660054,0.102867,0.187071,-0.840262,0.227798,-0.290313,0.163574,-2.278341,-0.541689,0.672447,5.151057,3.708191,0.022472,0.083001,0.000000,-0.225848,-0.020509,0.000000
4.120000,2.739770,0.655830,-1.425470,0.651659,0.105031,0.184141,-0.838593,0.205273,-0.295544,0.171128,-2.226172,-0.505171,0.836248,5.272689,3.603878,0.020241,0.082794,0.000000,-0.220424,-0.020934,-0.000000
4.130000,2.746244,0.656890,-1.423644,0.643282,0.106972,0.181160,-0.836839,0.183275,-0.300416,0.180299,-2.172887,-0.469611,0.996230,5.377620,3.510499,0.018064,0.082582,0.000000,-0.214920,-0.021526,0.000000
4.140000,2.752635,0.657969,-1.421847,0.634922,0.108696,0.178133,-0.834987,0.161815,-0.304936,0.191053,-2.118620,-0.434961,1.152899,5.472504,3.415845,0.015942,0.082363,0.000000,-0.209348,-0.022283,0.000000
4.150000,2.758943,0.659064,-1.420081,0.626582,0.110209,0.175062,-0.833018,0.140903,-0.309115,0.203357,-2.063437,-0.401294,1.306377,5.559109,3.317331,0.013877,0.082136,0.000000,-0.203712,-0.023201,-0.000000
4.160000,2.765167,0.660173,-1.418346,0.618262,0.111514,0.171950,-0.830920,0.120546,-0.312962,0.217180,-2.007437,-0.368614,1.455859,5.633348,3.223282,0.011868,0.081899,0.000000,-0.198021,-0.024278,-0.000000
4.170000,2.771308,0.661294,-1.416642,0.609964,0.112620,0.168802,-0.828675,0.100754,-0.316487,0.232474,-1.950770,-0.336829,1.599097,5.691790,3.139956,0.009916,0.081650,0.000000,-0.192289,-0.025507,0.000000
4.180000,2.777366,0.662426,-1.414970,0.601689,0.113530,0.165621,-0.826270,0.081531,-0.319699,0.249162,-1.893602,-0.305815,1.735715,5.735945,3.064742,0.008022,0.081389,0.000000,-0.186529,-0.026880,-0.000000
4.190000,2.783342,0.663565,-1.413330,0.593438,0.114250,0.162408,-0.823692,0.062882,-0.322604,0.267188,-1.836051,-0.275534,1.868160,5.770905,2.989615,0.006185,0.081113,0.000000,-0.180754,-0.028392,-0.000000
4.200000,2.789235,0.664711,-1.411722,0.585215,0.114787,0.159169,-0.820926,0.044810,-0.325210,0.286525,-1.778183,-0.246023,1.997722,5.798459,2.913198,0.004407,0.080821,0.000000,-0.174966,-0.030039,-0.000000
4.210000,2.795046,0.665861,-1.410146,0.577020,0.115146,0.155904,-0.817961,0.027318,-0.327524,0.307143,-1.720082,-0.217270,2.122192,5.815658,2.840727,0.002686,0.080512,0.000000,-0.169175,-0.031820,-0.000000
4.220000,2.800775,0.667013,-1.408604,0.568856,0.115334,0.152618,-0.814783,0.010408,-0.329555,0.328969,-1.661870,-0.189208,2.237386,5.819096,2.775169,0.001023,0.080185,0.000000,-0.163389,-0.033726,0.000000
4.230000,2.806423,0.668167,-1.407094,0.560724,0.115355,0.149313,-0.811382,-0.005919,-0.331308,0.351890,-1.603700,-0.161767,2.343657,5.810290,2.714784,-0.000582,0.079838,0.000000,-0.157624,-0.035746,-0.000000
4.240000,2.811990,0.669321,-1.405617,0.552628,0.115215,0.145992,-0.807746,-0.021666,-0.332790,0.375842,-1.545664,-0.134913,2.446002,5.794449,2.655585,-0.002129,0.079470,0.000000,-0.151887,-0.037874,-0.000000
4.250000,2.817476,0.670472,-1.404174,0.544569,0.114921,0.142657,-0.803865,-0.036832,-0.334007,0.400810,-1.487811,-0.108655,2.544240,5.771141,2.596303,-0.003620,0.079080,0.000000,-0.146181,-0.040109,0.000000
4.260000,2.822881,0.671619,-1.402764,0.536551,0.114479,0.139312,-0.799729,-0.051422,-0.334963,0.426727,-1.430242,-0.082987,2.634678,5.737599,2.539396,-0.005053,0.078668,0.000000,-0.140516,-0.042443,0.000000
4.270000,2.828207,0.672761,-1.401388,0.528575,0.113893,0.135958,-0.795330,-0.065437,-0.335666,0.453504,-1.373059,-0.057867,2.717881,5.697182,2.487692,-0.006430,0.078231,0.000000,-0.134901,-0.044870,0.000000
4.280000,2.833453,0.673897,-1.400045,0.520644,0.113170,0.132598,-0.790659,-0.078883,-0.336121,0.481085,-1.316298,-0.033233,2.794578,5.651370,2.440085,-0.007751,0.077770,0.000000,-0.129337,-0.047382,-0.000000
4.290000,2.838620,0.675025,-1.398736,0.512761,0.112315,0.129236,-0.785709,-0.091763,-0.336331,0.509395,-1.260031,-0.009065,2.863277,5.596171,2.392496,-0.009017,0.077283,0.000000,-0.123832,-0.049972,-0.000000
4.300000,2.843708,0.676143,-1.397460,0.504930,0.111334,0.125872,-0.780471,-0.104084,-0.336302,0.538350,-1.204375,0.014617,2.925709,5.532305,2.345227,-0.010228,0.076771,0.000000,-0.118395,-0.052634,0.000000
4.310000,2.848718,0.677251,-1.396218,0.497152,0.110233,0.122510,-0.774942,-0.115851,-0.336039,0.567910,-1.149385,0.037839,2.982389,5.463066,2.300609,-0.011385,0.076231,0.000000,-0.113031,-0.055362,-0.000000
4.320000,2.853651,0.678348,-1.395010,0.489431,0.109017,0.119151,-0.769113,-0.127071,-0.335545,0.597998,-1.095113,0.060629,3.026807,5.386366,2.256424,-0.012488,0.075663,0.000000,-0.107744,-0.058150,0.000000
4.330000,2.858507,0.679432,-1.393835,0.481770,0.107692,0.115799,-0.762982,-0.137753,-0.334826,0.628446,-1.041658,0.082968,3.057959,5.301387,2.211371,-0.013540,0.075068,0.000000,-0.102544,-0.060982,0.000000
4.340000,2.863286,0.680502,-1.392694,0.474171,0.106262,0.112454,-0.756544,-0.147905,-0.333886,0.659157,-0.989086,0.104857,3.084542,5.212175,2.168271,-0.014539,0.074443,0.000000,-0.097434,-0.063848,-0.000000
4.350000,2.867990,0.681557,-1.391586,0.466639,0.104734,0.109121,-0.749799,-0.157535,-0.332729,0.690137,-0.937415,0.126333,3.110066,5.120056,2.128240,-0.015488,0.073791,0.000000,-0.092418,-0.066749,-0.000000
4.360000,2.872619,0.682596,-1.390512,0.459175,0.103112,0.105800,-0.742742,-0.166653,-0.331359,0.721358,-0.886684,0.147421,3.128213,5.022853,2.088921,-0.016388,0.073108,0.000000,-0.087497,-0.069683,0.000000
4.370000,2.877174,0.683619,-1.389470,0.451784,0.101401,0.102494,-0.735371,-0.175268,-0.329781,0.752701,-0.836957,0.168112,3.130345,4.919476,2.047356,-0.017238,0.072397,0.000000,-0.082678,-0.072637,-0.000000
4.380000,2.881655,0.684624,-1.388462,0.444468,0.099606,0.099204,-0.727688,-0.183392,-0.327997,0.783965,-0.788295,0.188369,3.118283,4.811490,2.004059,-0.018041,0.071655,0.000000,-0.077965,-0.075594,-0.000000
4.390000,2.886063,0.685611,-1.387486,0.437230,0.097733,0.095934,-0.719692,-0.191034,-0.326013,0.815067,-0.740728,0.208193,3.103225,4.701018,1.962464,-0.018798,0.070885,0.000000,-0.073360,-0.078545,-0.000000
4.400000,2.890399,0.686579,-1.386543,0.430074,0.095786,0.092684,-0.711386,-0.198207,-0.323833,0.846030,-0.694275,0.227618,3.085573,4.586220,1.922521,-0.019508,0.070084,0.000000,-0.068866,-0.081492,0.000000
4.410000,2.894665,0.687527,-1.385633,0.423003,0.093769,0.089457,-0.702771,-0.204920,-0.321461,0.876778,-0.649003,0.246643,3.057812,4.466561,1.881688,-0.020175,0.069254,0.000000,-0.064488,-0.084428,0.000000
4.420000,2.898859,0.688454,-1.384754,0.416019,0.091687,0.086255,-0.693851,-0.211187,-0.318900,0.907186,-0.604943,0.265252,3.020446,4.348919,1.839923,-0.020798,0.068395,0.000000,-0.060228,-0.087341,0.000000
4.430000,2.902985,0.689361,-1.383907,0.409126,0.089545,0.083079,-0.684628,-0.217019,-0.316156,0.937187,-0.562025,0.283442,2.975885,4.234309,1.797728,-0.021379,0.067507,0.000000,-0.056079,-0.090225,0.000000
4.440000,2.907042,0.690245,-1.383092,0.402326,0.087347,0.079932,-0.675107,-0.222427,-0.313231,0.966704,-0.520257,0.301206,2.922855,4.114053,1.754650,-0.021920,0.066590,0.000000,-0.052042,-0.093073,0.000000
4.450000,2.911032,0.691108,-1.382309,0.395623,0.085097,0.076814,-0.665294,-0.227424,-0.310132,0.995644,-0.479744,0.318535,2.862934,3.986998,1.711645,-0.022420,0.065645,0.000000,-0.048126,-0.095875,0.000000
4.460000,2.914954,0.691947,-1.381556,0.389020,0.082798,0.073729,-0.655194,-0.232022,-0.306861,1.023962,-0.440517,0.335439,2.796966,3.859655,1.668708,-0.022882,0.064672,0.000000,-0.044334,-0.098627,0.000000
4.470000,2.918812,0.692764,-1.380834,0.382520,0.080456,0.070677,-0.644814,-0.236234,-0.303423,1.051583,-0.402551,0.351909,2.719143,3.734533,1.622119,-0.023307,0.063672,0.000000,-0.040663,-0.101321,0.000000
4.480000,2.922605,0.693556,-1.380143,0.376124,0.078074,0.067661,-0.634162,-0.240073,-0.299823,1.078345,-0.365826,0.367881,2.629068,3.609955,1.571428,-0.023695,0.062645,0.000000,-0.037110,-0.103942,0.000000
4.490000,2.926334,0.694325,-1.379481,0.369836,0.075655,0.064681,-0.623248,-0.243551,-0.296065,1.104165,-0.330352,0.383337,2.534929,3.483724,1.521506,-0.024049,0.061593,0.000000,-0.033677,-0.106482,0.000000
4.500000,2.930002,0.695069,-1.378849,0.363659,0.073203,0.061739,-0.612079,-0.246680,-0.292156,1.129044,-0.296152,0.398312,2.437405,3.355388,1.473709,-0.024369,0.060515,0.000000,-0.030366,-0.108941,0.000000
4.510000,2.933608,0.695789,-1.378246,0.357595,0.070721,0.058838,-0.600667,-0.249474,-0.288099,1.152913,-0.263244,0.412811,2.331127,3.226901,1.424465,-0.024656,0.059413,0.000000,-0.027178,-0.111312,0.000000
4.520000,2.937153,0.696484,-1.377672,0.351646,0.068213,0.055977,-0.589021,-0.251945,-0.283900,1.175666,-0.231614,0.426801,2.216334,3.100978,1.370624,-0.024913,0.058288,0.000000,-0.024111,-0.113583,0.000000
4.530000,2.940640,0.697153,-1.377127,0.345814,0.065682,0.053160,-0.577153,-0.254106,-0.279563,1.197239,-0.201224,0.440224,2.095073,2.977538,1.313262,-0.025139,0.057141,0.000000,-0.021161,-0.115750,-0.000000
4.540000,2.944070,0.697798,-1.376609,0.340103,0.063131,0.050386,-0.565076,-0.255969,-0.275095,1.217568,-0.172063,0.453066,1.966786,2.853581,1.256196,-0.025336,0.055972,0.000000,-0.018328,-0.117805,0.000000
4.550000,2.947443,0.698416,-1.376119,0.334513,0.060563,0.047658,-0.552802,-0.257547,-0.270502,1.236575,-0.144153,0.465348,1.831109,2.728010,1.199306,-0.025505,0.054784,0.000000,-0.015614,-0.119739,0.000000
4.560000,2.950760,0.699009,-1.375656,0.329047,0.057980,0.044976,-0.540345,-0.258852,-0.265788,1.254190,-0.117503,0.477052,1.688686,2.603333,1.139973,-0.025648,0.053577,0.000000,-0.013019,-0.121547,-0.000000
4.570000,2.954023,0.699576,-1.375219,0.323706,0.055386,0.042342,-0.527718,-0.259897,-0.260961,1.270349,-0.092086,0.488147,1.540081,2.483197,1.078689,-0.025766,0.052352,0.000000,-0.010540,-0.123221,0.000000
4.580000,2.957234,0.700117,-1.374809,0.318492,0.052782,0.039757,-0.514938,-0.260694,-0.256025,1.284992,-0.067839,0.498626,1.384743,2.367341,1.016181,-0.025859,0.051111,0.000000,-0.008171,-0.124754,-0.000000
4.590000,2.960393,0.700631,-1.374424,0.313407,0.050172,0.037221,-0.502018,-0.261254,-0.250988,1.298044,-0.044739,0.508471,1.222327,2.251414,0.951457,-0.025929,0.049856,0.000000,-0.005911,-0.126139,0.000000
4.600000,2.963502,0.701120,-1.374065,0.308452,0.047557,0.034737,-0.488977,-0.261589,-0.245856,1.309438,-0.022811,0.517655,1.056765,2.133923,0.885351,-0.025977,0.048588,0.000000,-0.003762,-0.127369,0.000000
4.610000,2.966562,0.701582,-1.373730,0.303628,0.044940,0.032304,-0.475830,-0.261710,-0.240635,1.319179,-0.002061,0.526178,0.888230,2.018223,0.818413,-0.026004,0.047308,0.000000,-0.001724,-0.128443,0.000000
4.620000,2.969575,0.702019,-1.373419,0.298935,0.042323,0.029924,-0.462593,-0.261630,-0.235332,1.327203,0.017554,0.534023,0.705645,1.908672,0.747456,-0.026012,0.046018,0.000000,0.000207,-0.129355,-0.000000
4.630000,2.972541,0.702429,-1.373131,0.294376,0.039708,0.027598,-0.449286,-0.261359,-0.229955,1.333292,0.036113,0.541127,0.508644,1.804558,0.672027,-0.026000,0.044720,0.000000,0.002039,-0.130082,0.000000
4.640000,2.975462,0.702813,-1.372867,0.289950,0.037096,0.025325,-0.435927,-0.260908,-0.224510,1.337376,0.053645,0.547464,0.312971,1.700526,0.596524,-0.025971,0.043416,0.000000,0.003774,-0.130617,0.000000
4.650000,2.978340,0.703171,-1.372625,0.285657,0.034489,0.023108,-0.422538,-0.260286,-0.219005,1.339551,0.070123,0.553058,0.120806,1.595710,0.522019,-0.025925,0.042107,0.000000,0.005409,-0.130968,-0.000000
4.660000,2.981175,0.703503,-1.372404,0.281499,0.031890,0.020945,-0.409136,-0.259505,-0.213449,1.339792,0.085559,0.557904,-0.078182,1.493972,0.445440,-0.025863,0.040795,0.000000,0.006946,-0.131131,0.000000
4.670000,2.983970,0.703809,-1.372206,0.277474,0.029299,0.018839,-0.395742,-0.258575,-0.207847,1.337988,0.100003,0.561966,-0.285763,1.397537,0.364753,-0.025786,0.039483,0.000000,0.008389,-0.131096,0.000000
4.680000,2.986725,0.704089,-1.372028,0.273584,0.026719,0.016788,-0.382377,-0.257505,-0.202209,1.334077,0.113510,0.565199,-0.498067,1.305426,0.281050,-0.025695,0.038172,0.000000,0.009743,-0.130855,0.000000
4.690000,2.989442,0.704343,-1.371870,0.269827,0.024149,0.014794,-0.369061,-0.256305,-0.196543,1.328026,0.126111,0.567587,-0.712928,1.215127,0.196849,-0.025591,0.036865,0.000000,0.011012,-0.130404,0.000000
4.700000,2.992122,0.704572,-1.371732,0.266203,0.021592,0.012857,-0.355816,-0.254983,-0.190858,1.319818,0.137812,0.569136,-0.929828,1.125574,0.111691,-0.025474,0.035564,0.000000,0.012196,-0.129739,-0.000000
4.710000,2.994766,0.704775,-1.371613,0.262711,0.019050,0.010977,-0.342664,-0.253549,-0.185161,1.309430,0.148623,0.569821,-1.149616,1.038661,0.023991,-0.025347,0.034270,0.000000,0.013295,-0.128859,-0.000000
4.720000,2.997376,0.704953,-1.371512,0.259349,0.016521,0.009154,-0.329627,-0.252011,-0.179461,1.296826,0.158585,0.569616,-1.373633,0.957731,-0.064720,-0.025209,0.032986,0.000000,0.014313,-0.127758,-0.000000
4.730000,2.999953,0.705105,-1.371430,0.256118,0.014009,0.007388,-0.316728,-0.250377,-0.173768,1.281957,0.167777,0.568527,-1.601211,0.882456,-0.153893,-0.025061,0.031714,0.000000,0.015259,-0.126431,-0.000000
4.740000,3.002498,0.705233,-1.371364,0.253015,0.011514,0.005679,-0.303988,-0.248655,-0.168091,1.264801,0.176235,0.566538,-1.829812,0.808511,-0.245704,-0.024903,0.030456,0.000000,0.016135,-0.124873,0.000000
4.750000,3.005013,0.705336,-1.371316,0.250038,0.009036,0.004026,-0.291432,-0.246852,-0.162437,1.245361,0.183948,0.563613,-2.059024,0.734712,-0.339776,-0.024738,0.029215,0.000000,0.016940,-0.123086,-0.000000
4.760000,3.007499,0.705414,-1.371284,0.247186,0.006577,0.002430,-0.279081,-0.244976,-0.156818,1.223621,0.190929,0.559743,-2.290005,0.664112,-0.434639,-0.024565,0.027994,0.000000,0.017675,-0.121065,-0.000000
4.770000,3.009957,0.705467,-1.371268,0.244457,0.004137,0.000890,-0.266959,-0.243034,-0.151243,1.199561,0.197230,0.554920,-2.522179,0.599551,-0.532035,-0.024384,0.026793,0.000000,0.018345,-0.118809,-0.000000
4.780000,3.012388,0.705496,-1.371266,0.241847,0.001716,-0.000595,-0.255090,-0.241032,-0.145720,1.173177,0.202920,0.549102,-2.755065,0.540203,-0.632630,-0.024198,0.025617,0.000000,0.018957,-0.116316,-0.000000
4.790000,3.014794,0.705501,-1.371279,0.239355,-0.000684,-0.002025,-0.243496,-0.238975,-0.140261,1.144460,0.208034,0.542267,-2.988852,0.482437,-0.733812,-0.024005,0.024466,0.000000,0.019515,-0.113584,0.000000
4.800000,3.017175,0.705483,-1.371307,0.236977,-0.003063,-0.003400,-0.232201,-0.236871,-0.134875,1.113400,0.212569,0.534426,-3.220217,0.425180,-0.834418,-0.023807,0.023345,0.000000,0.020016,-0.110611,-0.000000
4.810000,3.019533,0.705440,-1.371347,0.234711,-0.005421,-0.004722,-0.221228,-0.234724,-0.129572,1.080055,0.216537,0.525579,-3.448494,0.370906,-0.936260,-0.023605,0.022254,0.000000,0.020464,-0.107402,-0.000000
4.820000,3.021869,0.705374,-1.371401,0.232553,-0.007758,-0.005991,-0.210600,-0.232540,-0.124363,1.044430,0.219987,0.515701,-3.681924,0.322293,-1.041796,-0.023398,0.021196,0.000000,0.020861,-0.103957,0.000000
4.830000,3.024184,0.705285,-1.371467,0.230499,-0.010072,-0.007209,-0.200339,-0.230324,-0.119258,1.006417,0.222983,0.504743,-3.920542,0.278540,-1.150416,-0.023188,0.020174,0.000000,0.021215,-0.100265,-0.000000
4.840000,3.026479,0.705173,-1.371545,0.228546,-0.012364,-0.008377,-0.190471,-0.228080,-0.114268,0.966020,0.225558,0.492692,-4.152336,0.236115,-1.258780,-0.022974,0.019190,0.000000,0.021529,-0.096325,0.000000
4.850000,3.028755,0.705038,-1.371635,0.226689,-0.014634,-0.009495,-0.181019,-0.225813,-0.109404,0.923370,0.227706,0.479567,-4.375807,0.194752,-1.366597,-0.022757,0.018247,0.000000,0.021802,-0.092150,0.000000
4.860000,3.031013,0.704880,-1.371735,0.224925,-0.016881,-0.010565,-0.172004,-0.223526,-0.104677,0.878503,0.229453,0.465360,-4.598245,0.156731,-1.476000,-0.022538,0.017347,0.000000,0.022036,-0.087743,-0.000000
4.870000,3.033254,0.704700,-1.371846,0.223249,-0.019104,-0.011588,-0.163449,-0.221224,-0.100097,0.831405,0.230840,0.450047,-4.819794,0.122189,-1.587097,-0.022316,0.016492,0.000000,0.022235,-0.083102,0.000000
4.880000,3.035478,0.704498,-1.371967,0.221657,-0.021305,-0.012567,-0.155376,-0.218910,-0.095676,0.782108,0.231896,0.433618,-5.037280,0.090249,-1.699048,-0.022093,0.015684,0.000000,0.022402,-0.078231,0.000000
4.890000,3.037687,0.704274,-1.372097,0.220142,-0.023483,-0.013502,-0.147807,-0.216586,-0.091425,0.730659,0.232645,0.416066,-5.250066,0.060800,-1.811723,-0.021868,0.014927,0.000000,0.022540,-0.073132,-0.000000
4.900000,3.039881,0.704028,-1.372237,0.218700,-0.025637,-0.014395,-0.140762,-0.214257,-0.087355,0.677106,0.233112,0.397384,-5.458055,0.033888,-1.925146,-0.021642,0.014221,0.000000,0.022650,-0.067812,-0.000000
4.910000,3.042061,0.703761,-1.372385,0.217327,-0.027768,-0.015249,-0.134264,-0.211924,-0.083477,0.621498,0.233323,0.377564,-5.660751,0.009451,-2.039246,-0.021415,0.013570,0.000000,0.022735,-0.062275,0.000000
4.920000,3.044227,0.703473,-1.372542,0.216015,-0.029875,-0.016065,-0.128333,-0.209590,-0.079803,0.563891,0.233301,0.356599,-5.857654,-0.012577,-2.153939,-0.021188,0.012976,0.000000,0.022798,-0.056527,-0.000000
4.930000,3.046381,0.703164,-1.372707,0.214760,-0.031959,-0.016845,-0.122987,-0.207258,-0.076345,0.504345,0.233071,0.334485,-6.048279,-0.032254,-2.269144,-0.020959,0.012439,0.000000,0.022841,-0.050575,-0.000000
4.940000,3.048523,0.702834,-1.372879,0.213555,-0.034020,-0.017592,-0.118246,-0.204929,-0.073114,0.442926,0.232656,0.311216,-6.232150,-0.049648,-2.384783,-0.020731,0.011964,0.000000,0.022865,-0.044424,-0.000000
4.950000,3.050652,0.702483,-1.373058,0.212395,-0.036058,-0.018307,-0.114128,-0.202605,-0.070121,0.379702,0.232078,0.286789,-6.408798,-0.064829,-2.500782,-0.020502,0.011551,0.000000,0.022874,-0.038083,-0.000000
4.960000,3.052771,0.702113,-1.373245,0.211273,-0.038072,-0.018994,-0.110652,-0.200287,-0.067378,0.314750,0.231360,0.261200,-6.577705,-0.077859,-2.617052,-0.020273,0.011202,0.000000,0.022869,-0.031559,-0.000000
4.970000,3.054878,0.701722,-1.373438,0.210182,-0.040064,-0.019655,-0.107833,-0.197978,-0.064897,0.248148,0.230521,0.234448,57.825690,119.350377,34.180728,-0.020045,0.010919,0.000000,0.022852,-0.024862,-0.000000
4.980000,3.056974,0.701311,-1.373638,0.209116,-0.042032,-0.020292,-0.105689,-0.195677,-0.062689,1.471264,2.618367,0.944815,121.742279,235.936880,69.134796,-0.019816,0.010705,0.000000,0.263167,-0.147953,-0.000000
4.990000,3.059060,0.700881,-1.373844,0.208068,-0.043977,-0.020908,-0.078408,-0.145610,-0.046000,2.682994,4.949259,1.617144,58.332120,113.674539,31.031172,-0.014772,0.007955,0.000000,0.499576,-0.270867,-0.000000
5.000000,3.061136,0.700432,-1.374056,0.207548,-0.044944,-0.021212,-0.052029,-0.096692,-0.030346,2.637906,4.891858,1.565438,-4.508783,-5.740086,-5.170547,-0.009826,0.005287,0.000000,0.495491,-0.267209,-0.000000
