time,x,y,z,vx,vy,vz,ax,ay,az,jx,jy,jz,sx,sy,sz,roll,pitch,yaw,p,q,r
0.000000,-2.766271,-0.224750,-1.499183,-0.015892,-0.007621,0.008341,0.432187,-0.101419,-0.021315,18.618782,-4.267453,-0.815797,-271.864659,79.730046,21.642892,-0.010306,-0.043932,0.000000,-0.431893,-1.886430,0.000000
0.010000,-2.766430,-0.224826,-1.499100,-0.011570,-0.008635,0.008128,0.618375,-0.144094,-0.029473,15.900136,-3.470152,-0.599368,-847.710239,225.569616,49.763220,-0.014615,-0.062764,0.000000,-0.349542,-1.605612,-0.000000
0.020000,-2.766503,-0.224922,-1.499021,-0.003524,-0.010502,0.007752,0.750190,-0.170822,-0.033303,1.664578,0.243940,0.179468,-1239.639801,329.950644,61.357735,-0.017302,-0.076066,0.000000,0.024611,-0.169487,-0.000000
0.030000,-2.766501,-0.225036,-1.498945,0.003434,-0.012051,0.007462,0.651666,-0.139215,-0.025884,-8.892660,3.128861,0.627787,-437.877590,140.744045,11.927954,-0.014122,-0.066157,0.000000,0.315608,0.895853,0.000000
0.040000,-2.766434,-0.225163,-1.498871,0.009509,-0.013287,0.007234,0.572336,-0.108245,-0.020747,-7.092974,3.058821,0.418027,168.538758,-7.585615,-19.240704,-0.010992,-0.058153,0.000000,0.309659,0.716561,0.000000
0.050000,-2.766310,-0.225301,-1.498800,0.014881,-0.014216,0.007047,0.509807,-0.078038,-0.017523,-5.521885,2.977149,0.242973,146.725131,-8.655510,-15.975907,-0.007930,-0.051829,0.000000,0.302088,0.559075,0.000000
0.060000,-2.766136,-0.225448,-1.498730,0.019705,-0.014847,0.006884,0.461899,-0.048702,-0.015887,-4.158472,2.885711,0.098509,126.950530,-9.545501,-13.109820,-0.004951,-0.046974,0.000000,0.293206,0.421807,-0.000000
0.070000,-2.765916,-0.225598,-1.498662,0.024119,-0.015190,0.006729,0.426637,-0.020324,-0.015553,-2.982874,2.786239,-0.019224,109.108775,-10.269028,-10.616549,-0.002067,-0.043394,0.000000,0.283279,0.303096,0.000000
0.080000,-2.765654,-0.225751,-1.498596,0.028238,-0.015254,0.006572,0.402241,0.007023,-0.016272,-1.976296,2.680330,-0.113822,93.093694,-10.839538,-8.470182,0.000714,-0.040912,0.000000,0.272541,0.201261,-0.000000
0.090000,-2.765352,-0.225904,-1.498531,0.032163,-0.015050,0.006404,0.387111,0.033282,-0.017830,-1.121001,2.569448,-0.188627,78.799118,-11.270470,-6.644818,0.003384,-0.039369,0.000000,0.261191,0.114641,0.000000
0.100000,-2.765011,-0.226052,-1.498468,0.035980,-0.014588,0.006216,0.379821,0.058412,-0.020044,-0.400314,2.454921,-0.246719,66.118886,-11.575266,-5.114557,0.005938,-0.038620,0.000000,0.249402,0.041630,0.000000
0.110000,-2.764632,-0.226195,-1.498407,0.039760,-0.013881,0.006003,0.379105,0.082381,-0.022764,0.201377,2.337942,-0.290918,54.946810,-11.767367,-3.853495,0.008372,-0.038536,0.000000,0.237324,-0.019310,0.000000
0.120000,-2.764215,-0.226330,-1.498348,0.043562,-0.012941,0.005761,0.383849,0.105171,-0.025863,0.698623,2.219573,-0.323789,45.176710,-11.860218,-2.835756,0.010684,-0.039006,0.000000,0.225083,-0.069633,-0.000000
0.130000,-2.763761,-0.226454,-1.498291,0.047437,-0.011778,0.005486,0.393078,0.126772,-0.029240,1.104911,2.100738,-0.347633,36.702421,-11.867259,-2.035431,0.012873,-0.039929,0.000000,0.212789,-0.110699,-0.000000
0.140000,-2.763267,-0.226566,-1.498238,0.051424,-0.010405,0.005176,0.405947,0.147185,-0.032816,1.432671,1.982228,-0.364497,29.417777,-11.801928,-1.426546,0.014940,-0.041220,0.000000,0.200531,-0.143767,-0.000000
0.150000,-2.762732,-0.226662,-1.498188,0.055556,-0.008834,0.004829,0.421731,0.166417,-0.036530,1.693267,1.864700,-0.376164,23.216603,-11.677671,-0.983264,0.016884,-0.042804,0.000000,0.188381,-0.169993,0.000000
0.160000,-2.762156,-0.226742,-1.498141,0.059858,-0.007077,0.004445,0.439812,0.184479,-0.040339,1.897003,1.748675,-0.384163,17.992707,-11.507934,-0.679763,0.018707,-0.044620,0.000000,0.176397,-0.190428,-0.000000
0.170000,-2.761535,-0.226804,-1.498099,0.064352,-0.005145,0.004023,0.459671,0.201390,-0.044213,2.053121,1.634541,-0.389760,13.630520,-11.308748,-0.485911,0.020412,-0.046613,0.000000,0.164620,-0.206013,-0.000000
0.180000,-2.760869,-0.226845,-1.498061,0.069052,-0.003049,0.003561,0.480875,0.217170,-0.048134,2.169613,1.522500,-0.393881,9.859600,-11.138913,-0.303763,0.022000,-0.048741,0.000000,0.153071,-0.217564,-0.000000
0.190000,-2.760154,-0.226865,-1.498028,0.073969,-0.000801,0.003060,0.503063,0.231840,-0.052091,2.250313,1.411763,-0.395835,6.630566,-10.996188,-0.132393,0.023473,-0.050966,0.000000,0.141674,-0.225482,-0.000000
0.200000,-2.759389,-0.226861,-1.498000,0.079113,0.001588,0.002519,0.525881,0.245405,-0.056051,2.302225,1.302576,-0.396529,5.049559,-10.559322,-0.477385,0.024833,-0.053252,0.000000,0.130455,-0.230480,-0.000000
0.210000,-2.758572,-0.226833,-1.497977,0.084487,0.004107,0.001939,0.549108,0.257892,-0.060021,2.351304,1.200576,-0.405383,4.880547,-9.877617,-1.255894,0.026083,-0.055577,0.000000,0.119956,-0.235134,-0.000000
0.220000,-2.757699,-0.226779,-1.497961,0.090095,0.006746,0.001319,0.572907,0.269417,-0.064158,2.399836,1.105024,-0.421646,2.537693,-9.923851,-0.918109,0.027233,-0.057956,0.000000,0.110099,-0.239668,-0.000000
0.230000,-2.756770,-0.226698,-1.497951,0.095945,0.009495,0.000656,0.597104,0.279992,-0.068454,2.402058,1.002099,-0.423745,-2.208657,-10.722805,0.587352,0.028285,-0.060372,0.000000,0.099555,-0.239597,-0.000000
0.240000,-2.755781,-0.226589,-1.497948,0.102037,0.012345,-0.000050,0.620948,0.289459,-0.072633,2.355663,0.890567,-0.409899,-4.617696,-10.957674,1.171282,0.029224,-0.062750,0.000000,0.088218,-0.234730,0.000000
0.250000,-2.754729,-0.226451,-1.497952,0.108364,0.015284,-0.000797,0.644218,0.297804,-0.076652,2.309704,0.782946,-0.400319,-3.842317,-10.546541,0.653094,0.030049,-0.065068,0.000000,0.077287,-0.229900,0.000000
0.260000,-2.753613,-0.226283,-1.497964,0.114922,0.018301,-0.001583,0.667142,0.305118,-0.080640,2.278816,0.679637,-0.396838,-3.240637,-10.382635,0.461751,0.030769,-0.067350,0.000000,0.066791,-0.226556,0.000000
0.270000,-2.752431,-0.226085,-1.497984,0.121707,0.021387,-0.002410,0.689794,0.311396,-0.084589,2.244891,0.575293,-0.391084,-4.448026,-10.419782,0.686439,0.031385,-0.069602,0.000000,0.056217,-0.222931,0.000000
0.280000,-2.751179,-0.225856,-1.498012,0.128718,0.024529,-0.003275,0.712040,0.316624,-0.088461,2.189856,0.471241,-0.383109,-6.437744,-10.339303,0.830727,0.031894,-0.071811,0.000000,0.045705,-0.217213,-0.000000
0.290000,-2.749856,-0.225595,-1.498049,0.135948,0.027719,-0.004179,0.733591,0.320821,-0.092251,2.116137,0.368507,-0.374470,-7.355021,-10.284985,0.907663,0.032299,-0.073948,0.000000,0.035352,-0.209640,-0.000000
0.300000,-2.748460,-0.225301,-1.498096,0.143389,0.030946,-0.005120,0.754363,0.323994,-0.095951,2.042755,0.265541,-0.364956,-6.984976,-10.330317,0.998946,0.032601,-0.076006,0.000000,0.024998,-0.202129,0.000000
0.310000,-2.746989,-0.224976,-1.498152,0.151035,0.034199,-0.006098,0.774446,0.326132,-0.099550,1.976437,0.161901,-0.354491,-6.612856,-10.362313,1.076878,0.032799,-0.077993,0.000000,0.014598,-0.195353,0.000000
0.320000,-2.745439,-0.224617,-1.498218,0.158878,0.037468,-0.007111,0.793892,0.327232,-0.103041,1.910498,0.058295,-0.343418,-7.017527,-10.320447,1.108500,0.032893,-0.079915,0.000000,0.004220,-0.188639,0.000000
0.330000,-2.743811,-0.224226,-1.498294,0.166913,0.040744,-0.008159,0.812656,0.327298,-0.106419,1.836087,-0.044508,-0.332321,-7.824274,-10.240835,1.102582,0.032884,-0.081768,0.000000,-0.006058,-0.181095,-0.000000
0.340000,-2.742101,-0.223802,-1.498381,0.175131,0.044014,-0.009240,0.830613,0.326342,-0.109687,1.754013,-0.146522,-0.321366,-8.120278,-10.193833,1.101876,0.032772,-0.083539,0.000000,-0.016239,-0.172804,-0.000000
0.350000,-2.740308,-0.223346,-1.498479,0.183525,0.047270,-0.010353,0.847736,0.324367,-0.112846,1.673681,-0.248385,-0.310283,-7.779446,-10.184017,1.116551,0.032559,-0.085226,0.000000,-0.026390,-0.164708,-0.000000
0.360000,-2.738431,-0.222857,-1.498588,0.192086,0.050502,-0.011497,0.864087,0.321374,-0.115893,1.598424,-0.350202,-0.299035,-7.439270,-10.163667,1.117732,0.032244,-0.086835,0.000000,-0.036524,-0.157140,-0.000000
0.370000,-2.736467,-0.222336,-1.498709,0.200807,0.053698,-0.012670,0.879705,0.317363,-0.118827,1.524896,-0.451658,-0.287929,-7.489113,-10.116949,1.081992,0.031828,-0.088370,0.000000,-0.046611,-0.149761,-0.000000
0.380000,-2.734415,-0.221783,-1.498841,0.209680,0.056849,-0.013873,0.894585,0.312341,-0.121651,1.448641,-0.552541,-0.277395,-7.742789,-10.059415,1.018469,0.031312,-0.089832,0.000000,-0.056630,-0.142122,0.000000
0.390000,-2.732273,-0.221199,-1.498986,0.218699,0.059945,-0.015103,0.908678,0.306313,-0.124374,1.370040,-0.652847,-0.267559,-7.743495,-10.007655,0.957981,0.030696,-0.091214,0.000000,-0.066584,-0.134258,0.000000
0.400000,-2.730041,-0.220584,-1.499143,0.227854,0.062975,-0.016361,0.921986,0.299284,-0.127002,1.293772,-0.752694,-0.258236,-7.428495,-9.960465,0.907235,0.029980,-0.092518,0.000000,-0.076486,-0.126639,-0.000000
0.410000,-2.727716,-0.219939,-1.499313,0.237138,0.065930,-0.017643,0.934553,0.291259,-0.129539,1.221470,-0.852056,-0.249414,-7.116624,-9.906793,0.846357,0.029166,-0.093748,0.000000,-0.086334,-0.119424,-0.000000
0.420000,-2.725298,-0.219266,-1.499496,0.246545,0.068800,-0.018951,0.946415,0.282243,-0.131991,1.151439,-0.950830,-0.241309,-7.000762,-9.846383,0.761103,0.028254,-0.094908,0.000000,-0.096119,-0.112441,-0.000000
0.430000,-2.722785,-0.218563,-1.499692,0.256067,0.071575,-0.020283,0.957582,0.272242,-0.134365,1.081455,-1.048984,-0.234192,-6.987559,-9.782908,0.658580,0.027244,-0.095998,0.000000,-0.105840,-0.105465,0.000000
0.440000,-2.720176,-0.217834,-1.499902,0.265697,0.074245,-0.021639,0.968044,0.261263,-0.136674,1.011688,-1.146488,-0.228137,-6.850916,-9.715261,0.558462,0.026137,-0.097018,0.000000,-0.115493,-0.098512,0.000000
0.450000,-2.717471,-0.217079,-1.500125,0.275428,0.076801,-0.023017,0.977816,0.249312,-0.138928,0.944436,-1.243289,-0.223023,-6.560042,-9.641866,0.464741,0.024934,-0.097969,0.000000,-0.125074,-0.091810,0.000000
0.460000,-2.714668,-0.216298,-1.500362,0.285253,0.079232,-0.024417,0.986933,0.236397,-0.141135,0.880487,-1.339325,-0.218842,-6.272633,-9.563368,0.365657,0.023635,-0.098855,0.000000,-0.134578,-0.085436,0.000000
0.470000,-2.711766,-0.215494,-1.500613,0.295166,0.081529,-0.025839,0.995426,0.222526,-0.143305,0.818984,-1.434556,-0.215710,-6.083735,-9.481898,0.254475,0.022242,-0.099678,0.000000,-0.144001,-0.079302,0.000000
0.480000,-2.708765,-0.214667,-1.500879,0.305161,0.083682,-0.027283,1.003312,0.207706,-0.145449,0.758812,-1.528963,-0.213753,-5.946861,-9.397000,0.136249,0.020755,-0.100441,0.000000,-0.153340,-0.073297,-0.000000
0.490000,-2.705663,-0.213820,-1.501159,0.315232,0.085683,-0.028748,1.010602,0.191947,-0.147580,0.700046,-1.622496,-0.212985,-5.750665,-9.305368,0.021473,0.019176,-0.101144,0.000000,-0.162590,-0.067425,-0.000000
0.500000,-2.702460,-0.212954,-1.501454,0.325373,0.087521,-0.030235,1.017313,0.175256,-0.149709,0.643799,-1.715071,-0.213323,-5.481914,-9.206916,-0.088060,0.017504,-0.101790,0.000000,-0.171742,-0.061798,-0.000000
0.510000,-2.699155,-0.212070,-1.501764,0.335579,0.089188,-0.031743,1.023478,0.157645,-0.151846,0.590408,-1.806635,-0.214746,-5.218068,-9.103501,-0.197615,0.015741,-0.102381,0.000000,-0.180792,-0.056449,0.000000
0.520000,-2.695748,-0.211170,-1.502089,0.345843,0.090674,-0.033272,1.029122,0.139124,-0.154004,0.539438,-1.897141,-0.217276,-5.000393,-8.993987,-0.307871,0.013888,-0.102919,0.000000,-0.189732,-0.051334,0.000000
0.530000,-2.692238,-0.210256,-1.502429,0.356161,0.091970,-0.034823,1.034266,0.119702,-0.156192,0.490400,-1.986514,-0.220904,-4.805675,-8.877412,-0.415346,0.011946,-0.103407,0.000000,-0.198555,-0.046403,0.000000
0.540000,-2.688625,-0.209331,-1.502785,0.366528,0.093068,-0.036396,1.038930,0.099393,-0.158422,0.443324,-2.074689,-0.225583,-4.586764,-8.755032,-0.517194,0.009917,-0.103847,0.000000,-0.207252,-0.041660,0.000000
0.550000,-2.684908,-0.208395,-1.503157,0.376940,0.093958,-0.037991,1.043133,0.078209,-0.160704,0.398665,-2.161615,-0.231248,-4.339460,-8.626803,-0.614279,0.007801,-0.104241,0.000000,-0.215818,-0.037149,0.000000
0.560000,-2.681086,-0.207451,-1.503545,0.387391,0.094632,-0.039610,1.046903,0.056161,-0.163047,0.356535,-2.247225,-0.237868,-4.096666,-8.491506,-0.706476,0.005600,-0.104590,0.000000,-0.224244,-0.032883,-0.000000
0.570000,-2.677160,-0.206502,-1.503949,0.397878,0.095081,-0.041252,1.050264,0.033264,-0.165461,0.316732,-2.331445,-0.245377,-3.873899,-8.349077,-0.787526,0.003316,-0.104898,0.000000,-0.232522,-0.028841,-0.000000
0.580000,-2.673129,-0.205550,-1.504370,0.408396,0.095297,-0.042919,1.053238,0.009532,-0.167954,0.279057,-2.414207,-0.253619,-3.661752,-8.199571,-0.855383,0.000950,-0.105167,0.000000,-0.240644,-0.025006,0.000000
0.590000,-2.668992,-0.204596,-1.504808,0.418943,0.095272,-0.044611,1.055845,-0.015020,-0.170533,0.243497,-2.495436,-0.262485,-3.443153,-8.042530,-0.916304,-0.001497,-0.105398,0.000000,-0.248600,-0.021376,0.000000
0.600000,-2.664750,-0.203644,-1.505262,0.429513,0.094997,-0.046330,1.058107,-0.040377,-0.173204,0.210194,-2.575057,-0.271945,-3.214511,-7.878414,-0.973285,-0.004022,-0.105595,0.000000,-0.256381,-0.017966,0.000000
0.610000,-2.660402,-0.202696,-1.505734,0.440105,0.094464,-0.048075,1.060049,-0.066521,-0.175972,0.179206,-2.653005,-0.281950,-2.988448,-7.707147,-1.020100,-0.006624,-0.105758,0.000000,-0.263980,-0.014782,0.000000
0.620000,-2.655948,-0.201755,-1.506224,0.450714,0.093667,-0.049849,1.061692,-0.093437,-0.178843,0.150425,-2.729200,-0.292347,-2.778364,-7.526398,-1.045857,-0.009301,-0.105890,0.000000,-0.271387,-0.011815,-0.000000
0.630000,-2.651388,-0.200823,-1.506731,0.461339,0.092596,-0.051652,1.063057,-0.121105,-0.181819,0.123639,-2.803533,-0.302868,-2.581204,-7.335574,-1.050423,-0.012052,-0.105994,0.000000,-0.278591,-0.009046,0.000000
0.640000,-2.646721,-0.199903,-1.507257,0.471975,0.091244,-0.053485,1.064164,-0.149507,-0.184900,0.098801,-2.875912,-0.313355,-2.380359,-7.137519,-1.046151,-0.014873,-0.106071,0.000000,-0.285581,-0.006473,-0.000000
0.650000,-2.641948,-0.198998,-1.507801,0.482622,0.089606,-0.055350,1.065033,-0.178623,-0.188086,0.076032,-2.946283,-0.323791,-2.173281,-6.934379,-1.037754,-0.017763,-0.106124,0.000000,-0.292351,-0.004108,-0.000000
0.660000,-2.637069,-0.198111,-1.508364,0.493276,0.087672,-0.057247,1.065685,-0.208433,-0.191376,0.055335,-3.014599,-0.334110,-1.971920,-6.723769,-1.015057,-0.020720,-0.106153,0.000000,-0.298897,-0.001951,0.000000
0.670000,-2.632083,-0.197245,-1.508946,0.503936,0.085437,-0.059178,1.066140,-0.238915,-0.194768,0.036594,-3.080758,-0.344092,-1.782817,-6.499505,-0.963172,-0.023741,-0.106163,0.000000,-0.305207,0.000007,-0.000000
0.680000,-2.626990,-0.196402,-1.509547,0.514599,0.082894,-0.061143,1.066417,-0.270048,-0.198258,0.019679,-3.144589,-0.353374,-1.602493,-6.261988,-0.883170,-0.026824,-0.106153,0.000000,-0.311265,0.001775,-0.000000
0.690000,-2.621791,-0.195587,-1.510169,0.525264,0.080036,-0.063143,1.066534,-0.301807,-0.201836,0.004544,-3.205998,-0.361755,-1.423666,-6.019211,-0.793060,-0.029966,-0.106127,0.000000,-0.317062,0.003356,-0.000000
0.700000,-2.616485,-0.194802,-1.510810,0.535929,0.076858,-0.065179,1.066508,-0.334168,-0.205493,-0.008794,-3.264974,-0.369235,-1.245791,-5.771882,-0.700203,-0.033165,-0.106086,0.000000,-0.322598,0.004747,0.000000
0.710000,-2.611072,-0.194050,-1.511472,0.546594,0.073353,-0.067253,1.066358,-0.367107,-0.209221,-0.020372,-3.321436,-0.375759,-1.074109,-5.514426,-0.590857,-0.036418,-0.106032,0.000000,-0.327866,0.005953,0.000000
0.720000,-2.605553,-0.193335,-1.512155,0.557257,0.069515,-0.069364,1.066100,-0.400597,-0.213008,-0.030276,-3.375262,-0.381052,-0.911006,-5.245936,-0.443857,-0.039723,-0.105967,0.000000,-0.332855,0.006980,-0.000000
0.730000,-2.599927,-0.192659,-1.512860,0.567916,0.065341,-0.071513,1.065752,-0.434612,-0.216842,-0.038592,-3.426355,-0.384636,-0.755225,-4.968324,-0.261363,-0.043075,-0.105892,0.000000,-0.337560,0.007830,0.000000
0.740000,-2.594194,-0.192028,-1.513586,0.578572,0.060823,-0.073700,1.065328,-0.469124,-0.220701,-0.045381,-3.474629,-0.386279,-0.604359,-4.682138,-0.070414,-0.046474,-0.105810,0.000000,-0.341974,0.008509,-0.000000
0.750000,-2.588355,-0.191443,-1.514334,0.589223,0.055958,-0.075927,1.064844,-0.504105,-0.224567,-0.050679,-3.519997,-0.386045,-0.456875,-4.386439,0.119166,-0.049915,-0.105722,0.000000,-0.346091,0.009020,-0.000000
0.760000,-2.582410,-0.190909,-1.515104,0.599868,0.050741,-0.078192,1.064315,-0.539524,-0.228422,-0.054519,-3.562357,-0.383896,-0.314762,-4.080868,0.326845,-0.053396,-0.105630,0.000000,-0.349904,0.009367,-0.000000
0.770000,-2.576358,-0.190428,-1.515897,0.610509,0.045168,-0.080495,1.063754,-0.575352,-0.232245,-0.056975,-3.601615,-0.379508,-0.183306,-3.767268,0.578129,-0.056913,-0.105534,0.000000,-0.353408,0.009554,-0.000000
0.780000,-2.570200,-0.190005,-1.516714,0.621144,0.039234,-0.082837,1.063175,-0.611556,-0.236012,-0.058185,-3.637703,-0.372333,-0.062295,-3.445885,0.868715,-0.060464,-0.105438,0.000000,-0.356604,0.009589,0.000000
0.790000,-2.563935,-0.189644,-1.517554,0.631772,0.032937,-0.085216,1.062590,-0.648106,-0.239692,-0.058221,-3.670532,-0.362133,0.055077,-3.113948,1.165288,-0.064045,-0.105342,0.000000,-0.359489,0.009478,0.000000
0.800000,-2.557564,-0.189347,-1.518418,0.642395,0.026272,-0.087631,1.062011,-0.684967,-0.243255,-0.057083,-3.699982,-0.349028,0.169911,-2.769993,1.455895,-0.067653,-0.105248,0.000000,-0.362053,0.009221,0.000000
0.810000,-2.551087,-0.189118,-1.519307,0.653013,0.019237,-0.090081,1.061449,-0.722105,-0.246672,-0.054822,-3.725932,-0.333015,0.277375,-2.415850,1.763626,-0.071286,-0.105157,0.000000,-0.364292,0.008825,-0.000000
0.820000,-2.544504,-0.188962,-1.520220,0.663624,0.011830,-0.092564,1.060915,-0.759486,-0.249915,-0.051536,-3.748299,-0.313755,0.375156,-2.054785,2.118243,-0.074939,-0.105071,0.000000,-0.366203,0.008296,-0.000000
0.830000,-2.537815,-0.188881,-1.521158,0.674231,0.004048,-0.095079,1.060418,-0.797071,-0.252948,-0.047319,-3.767028,-0.290651,0.463875,-1.686316,2.513915,-0.078610,-0.104991,0.000000,-0.367791,0.007637,0.000000
0.840000,-2.531019,-0.188881,-1.522122,0.684833,-0.004112,-0.097623,1.059968,-0.834826,-0.255728,-0.042258,-3.782025,-0.263477,0.546248,-1.305811,2.910744,-0.082295,-0.104918,0.000000,-0.369057,0.006855,0.000000
0.850000,-2.524118,-0.188964,-1.523111,0.695430,-0.012649,-0.100193,1.059573,-0.872712,-0.258217,-0.036394,-3.793144,-0.232436,0.628688,-0.911505,3.295005,-0.085991,-0.104853,0.000000,-0.369990,0.005956,-0.000000
0.860000,-2.517111,-0.189134,-1.524125,0.706024,-0.021566,-0.102787,1.059240,-0.910689,-0.260377,-0.029684,-3.800255,-0.197577,0.708908,-0.506401,3.693521,-0.089695,-0.104798,0.000000,-0.370584,0.004937,0.000000
0.870000,-2.509998,-0.189395,-1.525166,0.716615,-0.030863,-0.105401,1.058979,-0.948717,-0.262169,-0.022216,-3.803272,-0.158565,0.768302,-0.094340,4.138549,-0.093403,-0.104754,0.000000,-0.370841,0.003802,0.000000
0.880000,-2.502779,-0.189751,-1.526233,0.727204,-0.040540,-0.108031,1.058796,-0.986754,-0.263548,-0.014318,-3.802142,-0.114806,0.806451,0.325671,4.622476,-0.097112,-0.104722,0.000000,-0.370768,0.002578,-0.000000
0.890000,-2.495454,-0.190206,-1.527327,0.737791,-0.050598,-0.110672,1.058693,-1.024760,-0.264465,-0.006087,-3.796759,-0.066116,0.848901,0.759071,5.101144,-0.100819,-0.104702,0.000000,-0.370365,0.001273,-0.000000
0.900000,-2.488023,-0.190763,-1.528447,0.748378,-0.061035,-0.113320,1.058674,-1.062690,-0.264870,0.002660,-3.786960,-0.012783,0.902388,1.207324,5.559517,-0.104519,-0.104696,0.000000,-0.369622,-0.000129,-0.000000
0.910000,-2.480486,-0.191427,-1.529593,0.758964,-0.071852,-0.115969,1.058746,-1.100499,-0.264720,0.011961,-3.772612,0.045075,0.949653,1.667029,6.026424,-0.108211,-0.104705,0.000000,-0.368531,-0.001630,-0.000000
0.920000,-2.472843,-0.192200,-1.530766,0.769553,-0.083045,-0.118614,1.058913,-1.138142,-0.263969,0.021653,-3.753620,0.107746,0.977159,2.135466,6.535600,-0.111890,-0.104729,0.000000,-0.367093,-0.003218,-0.000000
0.930000,-2.465095,-0.193087,-1.531966,0.780143,-0.094615,-0.121249,1.059179,-1.175571,-0.262565,0.031504,-3.729903,0.175787,0.990699,2.614122,7.078083,-0.115553,-0.104770,0.000000,-0.365317,-0.004876,-0.000000
0.940000,-2.457241,-0.194092,-1.533191,0.790736,-0.106557,-0.123866,1.059543,-1.212740,-0.260453,0.041467,-3.701337,0.249307,1.008134,3.106917,7.606649,-0.119197,-0.104827,0.000000,-0.363198,-0.006602,0.000000
0.950000,-2.449280,-0.195219,-1.534443,0.801334,-0.118869,-0.126458,1.060008,-1.249598,-0.257579,0.051667,-3.667765,0.327920,1.031388,3.613465,8.105633,-0.122817,-0.104903,0.000000,-0.360726,-0.008404,-0.000000
0.960000,-2.441214,-0.196470,-1.535720,0.811936,-0.131549,-0.129017,1.060577,-1.286095,-0.253895,0.062095,-3.629068,0.411420,1.049165,4.131625,8.604974,-0.126412,-0.104997,0.000000,-0.357893,-0.010280,-0.000000
0.970000,-2.433042,-0.197850,-1.537023,0.822545,-0.144591,-0.131536,1.061250,-1.322179,-0.249351,0.072650,-3.585132,0.500019,1.059086,4.663809,9.137834,-0.129976,-0.105110,0.000000,-0.354698,-0.012225,0.000000
0.980000,-2.424763,-0.199362,-1.538351,0.833161,-0.157992,-0.134004,1.062030,-1.357798,-0.243894,0.083276,-3.535792,0.594177,1.065402,5.211824,9.693858,-0.133506,-0.105243,0.000000,-0.351138,-0.014238,0.000000
0.990000,-2.416378,-0.201009,-1.539703,0.843786,-0.171747,-0.136414,1.062916,-1.392895,-0.237467,0.093958,-3.480896,0.693896,1.071479,5.772531,10.225498,-0.136999,-0.105397,0.000000,-0.347204,-0.016319,-0.000000
1.000000,-2.407887,-0.202797,-1.541079,0.854420,-0.185850,-0.138754,1.063909,-1.427416,-0.230017,0.104706,-3.420341,0.798687,1.079351,6.340928,10.718412,-0.140450,-0.105573,0.000000,-0.342888,-0.018466,0.000000
1.010000,-2.399290,-0.204726,-1.542478,0.865064,-0.200295,-0.141014,1.065010,-1.461302,-0.221494,0.115545,-3.354077,0.908264,1.087587,6.919926,11.201655,-0.143857,-0.105770,0.000000,-0.338184,-0.020679,0.000000
1.020000,-2.390586,-0.206802,-1.543900,0.875720,-0.215076,-0.143184,1.066220,-1.494497,-0.211851,0.126458,-3.281943,1.022720,1.091256,7.523814,11.702643,-0.147214,-0.105991,0.000000,-0.333083,-0.022961,0.000000
1.030000,-2.381776,-0.209028,-1.545342,0.886388,-0.230185,-0.145251,1.067539,-1.526941,-0.201039,0.137370,-3.203601,1.142317,1.091441,8.153668,12.209487,-0.150519,-0.106235,0.000000,-0.327560,-0.025309,-0.000000
1.040000,-2.372858,-0.211406,-1.546805,0.897071,-0.245615,-0.147204,1.068967,-1.558569,-0.189005,0.148286,-3.118869,1.266909,1.096033,8.790025,12.681497,-0.153766,-0.106503,0.000000,-0.321598,-0.027724,-0.000000
1.050000,-2.363834,-0.213940,-1.548286,0.907768,-0.261357,-0.149031,1.070505,-1.589318,-0.175701,0.159291,-3.027800,1.395947,1.105733,9.421148,13.111382,-0.156951,-0.106796,0.000000,-0.315196,-0.030211,-0.000000
1.060000,-2.354703,-0.216633,-1.549785,0.918481,-0.277401,-0.150718,1.072153,-1.619125,-0.161086,0.170401,-2.930447,1.529137,1.116226,10.061063,13.522181,-0.160070,-0.107115,0.000000,-0.308356,-0.032771,-0.000000
1.070000,-2.345465,-0.219488,-1.551301,0.929211,-0.293739,-0.152253,1.073913,-1.647927,-0.145118,0.181615,-2.826579,1.666391,1.129019,10.739870,13.920732,-0.163119,-0.107460,0.000000,-0.301052,-0.035407,-0.000000
1.080000,-2.336119,-0.222508,-1.552830,0.939959,-0.310360,-0.153621,1.075785,-1.675657,-0.127758,0.192981,-2.715649,1.807552,1.145313,11.455223,14.296921,-0.166091,-0.107832,0.000000,-0.293228,-0.038124,-0.000000
1.090000,-2.326665,-0.225695,-1.554373,0.950726,-0.327252,-0.154808,1.077772,-1.702240,-0.108967,0.204521,-2.597475,1.952329,1.164297,12.166102,14.636780,-0.168983,-0.108233,0.000000,-0.284857,-0.040925,0.000000
1.100000,-2.317104,-0.229053,-1.555927,0.961514,-0.344405,-0.155800,1.079876,-1.727606,-0.088712,0.216267,-2.472327,2.100287,1.194557,12.856883,14.928214,-0.171789,-0.108663,0.000000,-0.275954,-0.043811,-0.000000
1.110000,-2.307435,-0.232584,-1.557489,0.972324,-0.361805,-0.156582,1.082098,-1.751687,-0.066962,0.228413,-2.340337,2.250894,1.237060,13.555521,15.176333,-0.174503,-0.109123,0.000000,-0.266515,-0.046801,-0.000000
1.120000,-2.297658,-0.236289,-1.559058,0.983156,-0.379439,-0.157139,1.084444,-1.774413,-0.043694,0.241009,-2.201217,2.403814,1.268557,14.298626,15.405916,-0.177120,-0.109613,0.000000,-0.256499,-0.049900,0.000000
1.130000,-2.287772,-0.240172,-1.560632,0.994013,-0.397293,-0.157456,1.086918,-1.795711,-0.018885,0.253784,-2.054364,2.559012,1.291462,15.080029,15.610366,-0.179633,-0.110137,0.000000,-0.245835,-0.053084,0.000000
1.140000,-2.277777,-0.244235,-1.562207,1.004895,-0.415353,-0.157517,1.089520,-1.815500,0.007487,0.266838,-1.899616,2.716021,1.338848,15.849441,15.749548,-0.182036,-0.110693,0.000000,-0.234487,-0.056362,-0.000000
1.150000,-2.267674,-0.248479,-1.563782,1.015803,-0.433603,-0.157306,1.092255,-1.833704,0.035435,0.280561,-1.737376,2.874003,1.394835,16.579696,15.830288,-0.184323,-0.111283,0.000000,-0.222464,-0.059770,-0.000000
1.160000,-2.257461,-0.252907,-1.565353,1.026740,-0.452027,-0.156808,1.095131,-1.850248,0.064967,0.294735,-1.568022,3.032627,1.439944,17.304717,15.873318,-0.186486,-0.111909,0.000000,-0.209781,-0.063286,-0.000000
1.170000,-2.247139,-0.257520,-1.566918,1.037706,-0.470608,-0.156007,1.098149,-1.865064,0.096088,0.309360,-1.391281,3.191469,1.530554,18.092203,15.839275,-0.188519,-0.112571,0.000000,-0.196383,-0.066912,-0.000000
1.180000,-2.236707,-0.262319,-1.568474,1.048703,-0.489328,-0.154887,1.101318,-1.878074,0.128796,0.325346,-1.206178,3.349413,1.677501,18.934254,15.711803,-0.190413,-0.113271,0.000000,-0.182131,-0.070729,0.000000
1.190000,-2.226165,-0.267306,-1.570016,1.059732,-0.508169,-0.153431,1.104656,-1.889188,0.163076,0.342910,-1.012596,3.505705,1.802496,19.736439,15.540875,-0.192161,-0.114012,0.000000,-0.166971,-0.074758,-0.000000
1.200000,-2.215513,-0.272483,-1.571542,1.070796,-0.527112,-0.151625,1.108176,-1.898325,0.198910,0.361396,-0.811449,3.660230,1.889836,20.465509,15.355830,-0.193753,-0.114795,0.000000,-0.150966,-0.078938,-0.000000
1.210000,-2.204749,-0.277849,-1.573048,1.081896,-0.546136,-0.149453,1.111884,-1.905416,0.236281,0.380706,-0.603286,3.812822,1.993958,21.183723,15.115665,-0.195180,-0.115621,0.000000,-0.134137,-0.083263,0.000000
1.220000,-2.193875,-0.283405,-1.574531,1.093034,-0.565220,-0.146899,1.115790,-1.910391,0.275167,0.401275,-0.387775,3.962543,2.140787,21.963714,14.739752,-0.196435,-0.116493,0.000000,-0.116402,-0.087771,0.000000
1.230000,-2.182889,-0.289153,-1.575986,1.104212,-0.584344,-0.143950,1.119910,-1.913172,0.315531,0.423522,-0.164012,4.107617,2.311704,22.785162,14.233203,-0.197508,-0.117411,0.000000,-0.097598,-0.092492,-0.000000
1.240000,-2.171790,-0.295092,-1.577410,1.115432,-0.603484,-0.140589,1.124261,-1.913671,0.357319,0.447509,0.067928,4.247207,2.476092,23.547191,13.698839,-0.198386,-0.118380,0.000000,-0.077675,-0.097426,0.000000
1.250000,-2.160580,-0.301223,-1.578798,1.126697,-0.622617,-0.136803,1.128860,-1.911813,0.400476,0.473044,0.306932,4.381594,2.637025,24.225162,13.166086,-0.199060,-0.119399,0.000000,-0.056710,-0.102565,-0.000000
1.260000,-2.149257,-0.307545,-1.580146,1.138009,-0.641720,-0.132579,1.133722,-1.907533,0.444951,0.500249,0.552432,4.510529,2.813907,24.882668,12.560894,-0.199520,-0.120473,0.000000,-0.034715,-0.107925,-0.000000
1.270000,-2.137820,-0.314057,-1.581450,1.149371,-0.660768,-0.127904,1.138865,-1.900765,0.490686,0.529322,0.804585,4.632812,2.997930,25.565842,11.809166,-0.199754,-0.121602,0.000000,-0.011605,-0.113516,0.000000
1.280000,-2.126269,-0.320760,-1.582704,1.160786,-0.679735,-0.122766,1.144308,-1.891441,0.537607,0.560208,1.063748,4.746712,3.184117,26.251030,10.925984,-0.199751,-0.122789,0.000000,0.012740,-0.119318,0.000000
1.290000,-2.114604,-0.327652,-1.583905,1.172257,-0.698597,-0.117152,1.150069,-1.879490,0.585620,0.593004,1.329606,4.851331,3.385080,26.871716,10.005856,-0.199498,-0.124037,0.000000,0.038353,-0.125334,-0.000000
1.300000,-2.102824,-0.334732,-1.585047,1.183788,-0.717325,-0.111053,1.156168,-1.864849,0.634634,0.627909,1.601183,4.946830,3.584669,27.409476,9.101760,-0.198982,-0.125347,0.000000,0.065182,-0.131590,-0.000000
1.310000,-2.090928,-0.341998,-1.586126,1.195381,-0.735894,-0.104459,1.162627,-1.847466,0.684557,0.664698,1.877796,5.033366,3.775062,27.902757,8.145818,-0.198192,-0.126722,0.000000,0.093198,-0.138071,-0.000000
1.320000,-2.078916,-0.349450,-1.587137,1.207040,-0.754274,-0.097362,1.169462,-1.827293,0.735301,0.703411,2.159238,5.109746,4.007510,28.384296,6.993918,-0.197116,-0.128164,0.000000,0.122453,-0.144767,-0.000000
1.330000,-2.066787,-0.357084,-1.588073,1.218770,-0.772439,-0.089753,1.176695,-1.804281,0.786752,0.744848,2.445481,5.173245,4.288623,28.834189,5.658360,-0.195741,-0.129675,0.000000,0.153048,-0.151729,-0.000000
1.340000,-2.054541,-0.364899,-1.588932,1.230574,-0.790360,-0.081627,1.184359,-1.778383,0.838766,0.789183,2.735922,5.222913,4.545198,29.201324,4.334359,-0.194053,-0.131258,0.000000,0.184986,-0.158962,0.000000
1.350000,-2.042176,-0.372891,-1.589706,1.242457,-0.808007,-0.072978,1.192479,-1.749563,0.891210,0.835752,3.029508,5.259932,4.750308,29.493208,3.086541,-0.192040,-0.132916,0.000000,0.218170,-0.166413,-0.000000
1.360000,-2.029692,-0.381059,-1.590391,1.254424,-0.825351,-0.063803,1.201074,-1.717793,0.943964,0.884189,3.325786,5.284644,4.953776,29.735065,1.782030,-0.189688,-0.134649,0.000000,0.252579,-0.174044,0.000000
1.370000,-2.017088,-0.389398,-1.590982,1.266479,-0.842363,-0.054099,1.210163,-1.683047,0.996903,0.934827,3.624209,5.295573,5.213149,29.882545,0.273828,-0.186986,-0.136461,0.000000,0.288216,-0.181865,0.000000
1.380000,-2.004362,-0.397906,-1.591473,1.278627,-0.859012,-0.043865,1.219771,-1.645309,1.049876,0.988452,3.923437,5.290121,5.519121,29.914758,-1.399121,-0.183921,-0.138352,0.000000,0.325015,-0.189918,0.000000
1.390000,-1.991515,-0.406578,-1.591859,1.290874,-0.875269,-0.033101,1.229932,-1.604579,1.102705,1.045210,4.222504,5.267590,5.791850,29.885898,-3.038594,-0.180483,-0.140325,0.000000,0.362896,-0.198199,0.000000
1.400000,-1.978545,-0.415411,-1.592135,1.303226,-0.891104,-0.021811,1.240675,-1.560859,1.155228,1.104289,4.521155,5.229349,5.967899,29.831169,-4.587801,-0.176661,-0.142382,0.000000,0.401803,-0.206628,0.000000
1.410000,-1.965450,-0.424400,-1.592296,1.315688,-0.906486,-0.009997,1.252018,-1.514155,1.207292,1.164568,4.819128,5.175834,6.102189,29.703665,-6.176265,-0.172444,-0.144523,0.000000,0.441690,-0.215073,0.000000
1.420000,-1.952231,-0.433541,-1.592335,1.328266,-0.921387,0.002335,1.263966,-1.464476,1.258744,1.226333,5.115228,5.105823,6.359963,29.402581,-7.928476,-0.167824,-0.146748,0.000000,0.482429,-0.223527,-0.000000
1.430000,-1.938885,-0.442828,-1.592249,1.340967,-0.935776,0.015178,1.276544,-1.411851,1.309409,1.291767,5.407179,5.017265,6.720252,28.937118,-9.803948,-0.162793,-0.149057,0.000000,0.523772,-0.232180,0.000000
1.440000,-1.925412,-0.452257,-1.592032,1.353797,-0.949624,0.028523,1.289802,-1.356333,1.359090,1.360738,5.693970,4.909744,6.954810,28.433179,-11.629621,-0.157347,-0.151454,0.000000,0.565553,-0.240988,0.000000
1.450000,-1.911809,-0.461821,-1.591678,1.366763,-0.962902,0.042360,1.303759,-1.297971,1.407604,1.430863,5.975843,4.784672,7.072483,27.887893,-13.341135,-0.151480,-0.153938,0.000000,0.607694,-0.249677,-0.000000
1.460000,-1.898076,-0.471515,-1.591184,1.379872,-0.975583,0.056676,1.318419,-1.236816,1.454783,1.502188,6.251728,4.642922,7.218379,27.212105,-15.047920,-0.145191,-0.156505,0.000000,0.649969,-0.258232,0.000000
1.470000,-1.884212,-0.481332,-1.590545,1.393131,-0.987639,0.071456,1.333803,-1.172937,1.500462,1.575231,6.520085,4.483714,7.307702,26.422332,-16.892909,-0.138479,-0.159157,0.000000,0.692110,-0.266666,-0.000000
1.480000,-1.870214,-0.491267,-1.589755,1.406548,-0.999042,0.086685,1.349924,-1.106414,1.544457,1.648342,6.780175,4.305064,7.249405,25.496117,-18.825049,-0.131348,-0.161890,0.000000,0.733930,-0.274709,0.000000
1.490000,-1.856081,-0.501313,-1.588811,1.420130,-1.009767,0.102345,1.366770,-1.037333,1.586564,1.720219,7.030007,4.107213,7.172692,24.409595,-20.643057,-0.123800,-0.164699,0.000000,0.775036,-0.282165,0.000000
1.500000,-1.841811,-0.511463,-1.587708,1.433883,-1.019789,0.118416,1.384328,-0.965814,1.626602,1.791796,7.268367,3.892202,7.326517,23.526279,-22.390249,-0.115847,-0.167577,0.000000,0.815088,-0.289132,0.000000
1.510000,-1.827403,-0.521709,-1.586443,1.447816,-1.029083,0.134877,1.402606,-0.891966,1.664408,1.866749,7.500533,3.659408,7.597419,22.830458,-24.182932,-0.107499,-0.170520,0.000000,0.854553,-0.295985,-0.000000
1.520000,-1.812855,-0.532044,-1.585011,1.461936,-1.037628,0.151704,1.421663,-0.815803,1.699790,1.943744,7.724976,3.408544,7.307570,21.250424,-25.837252,-0.098757,-0.173530,0.000000,0.893067,-0.302516,0.000000
1.530000,-1.798164,-0.542461,-1.583409,1.476250,-1.045399,0.168873,1.441481,-0.737467,1.732578,2.012901,7.925541,3.142663,6.518138,18.794007,-27.293942,-0.089639,-0.176599,0.000000,0.928420,-0.307559,-0.000000
1.540000,-1.783330,-0.552952,-1.581633,1.490765,-1.052377,0.186356,1.461921,-0.657293,1.762643,2.074107,8.100856,2.862665,6.141478,16.933968,-28.799599,-0.080190,-0.179705,0.000000,0.960205,-0.311059,-0.000000
1.550000,-1.768349,-0.563509,-1.579682,1.505488,-1.058545,0.204126,1.482963,-0.575449,1.789832,2.135730,8.264221,2.566671,5.920492,15.531325,-30.387527,-0.070438,-0.182839,0.000000,0.989853,-0.313929,0.000000
1.560000,-1.753220,-0.574123,-1.577551,1.520424,-1.063886,0.222152,1.504636,-0.492008,1.813977,2.192517,8.411483,2.254914,5.271406,13.625289,-31.876597,-0.060397,-0.185998,0.000000,1.016640,-0.315498,-0.000000
1.570000,-1.737941,-0.584787,-1.575239,1.535581,-1.068385,0.240405,1.526813,-0.407220,1.834930,2.241158,8.536727,1.929139,5.138859,11.979556,-33.218498,-0.050109,-0.189159,0.000000,1.039619,-0.315361,0.000000
1.580000,-1.722509,-0.595491,-1.572743,1.550961,-1.072031,0.258851,1.549459,-0.321274,1.852559,2.295294,8.651074,1.590544,5.755872,10.985050,-34.467761,-0.039609,-0.192312,0.000000,1.059974,-0.315161,-0.000000
1.590000,-1.706921,-0.606227,-1.570062,1.566570,-1.074811,0.277456,1.572719,-0.234198,1.866741,2.356276,8.756428,1.239784,5.773075,9.518517,-35.660443,-0.028914,-0.195466,0.000000,1.077769,-0.315054,0.000000
1.600000,-1.691177,-0.616987,-1.567194,1.582415,-1.076715,0.296186,1.596584,-0.146145,1.877355,2.410755,8.841444,0.877336,5.101085,7.335504,-36.781860,-0.018059,-0.198614,0.000000,1.091439,-0.313414,0.000000
1.610000,-1.675273,-0.627762,-1.564138,1.598502,-1.077734,0.315003,1.620934,-0.057369,1.884288,2.458298,8.903138,0.504146,4.651439,5.226874,-37.800777,-0.007091,-0.201734,0.000000,1.100487,-0.310194,0.000000
1.620000,-1.659207,-0.638542,-1.560894,1.614834,-1.077862,0.333872,1.645750,0.031918,1.887438,2.503784,8.945982,0.121320,4.281679,3.526193,-38.722084,0.003944,-0.204817,0.000000,1.105369,-0.306006,0.000000
1.630000,-1.642976,-0.649319,-1.557460,1.631417,-1.077095,0.352752,1.671010,0.121550,1.886714,2.543931,8.973662,-0.270295,3.610042,1.912668,-39.539886,0.015010,-0.207853,0.000000,1.106478,-0.300476,0.000000
1.640000,-1.626579,-0.660084,-1.553839,1.648254,-1.075431,0.371606,1.696629,0.211391,1.882032,2.575985,8.984235,-0.669478,2.915686,0.016763,-40.234658,0.026068,-0.210825,0.000000,1.103552,-0.293314,0.000000
1.650000,-1.610011,-0.670828,-1.550028,1.665349,-1.072868,0.390393,1.722529,0.301235,1.873324,2.602245,8.973997,-1.074988,2.619512,-1.742859,-40.869308,0.037074,-0.213720,0.000000,1.096148,-0.284857,0.000000
1.660000,-1.593272,-0.681541,-1.546031,1.682705,-1.069406,0.409072,1.748674,0.390871,1.860532,2.628375,8.949378,-1.486864,2.483309,-3.160095,-41.442734,0.047984,-0.216525,0.000000,1.085095,-0.275812,-0.000000
1.670000,-1.576357,-0.692216,-1.541847,1.700323,-1.065050,0.427603,1.775097,0.480222,1.843587,2.651911,8.910795,-1.903843,1.470757,-5.421176,-41.743827,0.058770,-0.219241,0.000000,1.070511,-0.265948,0.000000
1.680000,-1.559265,-0.702842,-1.537479,1.718207,-1.059802,0.445944,1.801712,0.569087,1.822455,2.657790,8.840954,-2.321740,-0.258156,-8.685522,-41.724257,0.069389,-0.221852,0.000000,1.050454,-0.253629,0.000000
1.690000,-1.541993,-0.713412,-1.532928,1.736357,-1.053668,0.464053,1.828253,0.657042,1.797152,2.646748,8.737085,-2.738328,-1.327021,-11.277749,-41.674190,0.079774,-0.224325,0.000000,1.024819,-0.239090,0.000000
1.700000,-1.524538,-0.723916,-1.528198,1.754772,-1.046661,0.481887,1.854647,0.743828,1.767689,2.631250,8.615399,-3.155224,-2.454506,-12.666870,-41.875349,0.089881,-0.226649,0.000000,0.995745,-0.223841,0.000000
1.710000,-1.506898,-0.734345,-1.523290,1.773450,-1.038792,0.499406,1.880878,0.829350,1.734048,2.597658,8.483747,-3.575835,-4.495961,-14.000441,-42.106085,0.099685,-0.228820,0.000000,0.964353,-0.206259,0.000000
1.720000,-1.489069,-0.744691,-1.518209,1.792389,-1.030074,0.516568,1.906600,0.913503,1.696172,2.541331,8.335390,-3.997346,-5.101271,-16.346519,-41.613462,0.109165,-0.230794,0.000000,0.930081,-0.185999,0.000000
1.730000,-1.471050,-0.754946,-1.512959,1.811582,-1.020522,0.533330,1.931704,0.996057,1.654101,2.495632,8.156817,-4.408104,-4.193966,-19.017328,-40.516477,0.118285,-0.232562,0.000000,0.891623,-0.167348,0.000000
1.740000,-1.452838,-0.765102,-1.507543,1.831023,-1.010153,0.549650,1.956513,1.076640,1.608010,2.457451,7.955044,-4.807675,-5.016334,-20.676983,-39.818900,0.126996,-0.234165,0.000000,0.850115,-0.149973,-0.000000
1.750000,-1.434429,-0.775149,-1.501966,1.850712,-0.998989,0.565490,1.980853,1.155158,1.557947,2.395306,7.743277,-5.204482,-5.661387,-23.422678,-39.114809,0.135286,-0.235586,0.000000,0.807330,-0.130109,-0.000000
1.760000,-1.415823,-0.785082,-1.496233,1.870640,-0.987050,0.580809,2.004419,1.231505,1.503920,2.344224,7.486590,-5.589972,-4.118623,-27.930935,-37.774923,0.143143,-0.236792,0.000000,0.759475,-0.112071,0.000000
1.770000,-1.397017,-0.794890,-1.490350,1.890800,-0.974359,0.595568,2.027738,1.304890,1.446148,2.312933,7.184658,-5.959981,-6.774830,-27.942934,-37.182791,0.150477,-0.237851,0.000000,0.706929,-0.096910,0.000000
1.780000,-1.378007,-0.804569,-1.484322,1.911195,-0.960952,0.609732,2.050677,1.375198,1.384721,2.208727,6.927732,-6.333627,-14.441705,-23.316969,-37.567029,0.157283,-0.238753,0.000000,0.660219,-0.073833,-0.000000
1.790000,-1.358793,-0.814109,-1.478155,1.931814,-0.946855,0.623263,2.071912,1.443445,1.319475,2.024099,6.718319,-6.711321,-18.136718,-22.660794,-36.978515,0.163682,-0.239349,0.000000,0.619534,-0.042373,-0.000000
1.800000,-1.339371,-0.823506,-1.471856,1.952633,-0.932083,0.636122,2.091159,1.509565,1.250494,1.845993,6.474516,-7.073198,-17.759924,-24.442124,-35.536269,0.169675,-0.239615,0.000000,0.575784,-0.012817,0.000000
1.810000,-1.319740,-0.832751,-1.465433,1.973637,-0.916664,0.648273,2.108832,1.572935,1.178012,1.668901,6.229477,-7.422047,-19.281026,-23.063848,-34.534087,0.175201,-0.239611,0.000000,0.532838,0.015538,-0.000000
1.820000,-1.299898,-0.841839,-1.458891,1.994810,-0.900624,0.659682,2.124537,1.634154,1.102053,1.460372,6.013239,-7.763879,-20.475776,-25.111689,-33.075273,0.180334,-0.239302,0.000000,0.493991,0.046259,0.000000
1.830000,-1.279844,-0.850764,-1.452239,2.016128,-0.883981,0.670314,2.138040,1.693200,1.022734,1.259385,5.727243,-8.083552,-18.343750,-32.952421,-30.552615,0.185083,-0.238673,0.000000,0.448789,0.074709,-0.000000
1.840000,-1.259576,-0.859519,-1.445485,2.037571,-0.866760,0.680136,2.149725,1.748699,0.940382,1.093497,5.354190,-8.374932,-16.563552,-37.018863,-28.336607,0.189314,-0.237784,0.000000,0.395845,0.097927,-0.000000
1.850000,-1.239092,-0.868099,-1.438636,2.059122,-0.849007,0.689121,2.159910,1.800284,0.855235,0.928114,4.986865,-8.650284,-21.207731,-35.229859,-27.434963,0.193004,-0.236681,0.000000,0.345157,0.119974,-0.000000
1.860000,-1.218393,-0.876499,-1.431702,2.080769,-0.830755,0.697241,2.168287,1.848436,0.767377,0.669343,4.649593,-8.923631,-29.202978,-34.198272,-26.836275,0.196221,-0.235342,0.000000,0.299350,0.150817,-0.000000
1.870000,-1.197477,-0.884714,-1.424691,2.102488,-0.812038,0.704469,2.173296,1.893275,0.676763,0.344055,4.302900,-9.187010,-24.612361,-36.918102,-24.132790,0.198995,-0.233610,0.000000,0.254294,0.187110,-0.000000
1.880000,-1.176344,-0.892740,-1.417613,2.124235,-0.792889,0.710776,2.175169,1.934494,0.583636,0.177095,3.911231,-9.406287,-9.038232,-40.557637,-19.797383,0.201311,-0.231528,0.000000,0.206051,0.205283,0.000000
1.890000,-1.154992,-0.900572,-1.410476,2.145992,-0.773348,0.716142,2.176838,1.971500,0.488637,0.163290,3.491747,-9.582958,-3.988723,-41.632433,-17.039470,0.203121,-0.229421,0.000000,0.156550,0.206719,-0.000000
1.900000,-1.133424,-0.908207,-1.403290,2.167772,-0.753459,0.720549,2.178434,2.004329,0.391977,0.097321,3.078582,-9.747076,-3.661361,-44.163327,-14.750297,0.204447,-0.227307,0.000000,0.109601,0.212892,0.000000
1.910000,-1.111637,-0.915641,-1.396065,2.189560,-0.733261,0.723981,2.178785,2.033072,0.293695,0.090063,2.608481,-9.877964,5.654840,-49.993609,-10.922501,0.205318,-0.225074,0.000000,0.058814,0.212270,-0.000000
1.920000,-1.089632,-0.922872,-1.388810,2.211347,-0.712798,0.726423,2.180236,2.056499,0.194418,0.210418,2.078710,-9.965526,2.350087,-47.447690,-9.429523,0.205629,-0.222970,0.000000,0.004071,0.198418,-0.000000
1.930000,-1.067410,-0.929897,-1.381536,2.233165,-0.692131,0.727870,2.182993,2.074646,0.094385,0.137064,1.659527,-10.066554,-19.164169,-35.732566,-11.061847,0.205405,-0.221019,0.000000,-0.037826,0.203811,-0.000000
1.940000,-1.044969,-0.936714,-1.374253,2.255007,-0.671305,0.728311,2.182977,2.089690,-0.006913,-0.172866,1.364059,-10.186763,-28.065801,-30.981488,-10.357444,0.204875,-0.218809,0.000000,-0.066190,0.231704,0.000000
1.950000,-1.022310,-0.943323,-1.366970,2.276824,-0.650338,0.727731,2.179536,2.101927,-0.109350,-0.424252,1.039897,-10.273703,-21.773813,-32.536966,-7.299241,0.204083,-0.216289,0.000000,-0.096120,0.252542,0.000000
1.960000,-0.999433,-0.949721,-1.359698,2.298598,-0.629266,0.726124,2.174492,2.110487,-0.212387,-0.608342,0.713320,-10.332748,-21.230881,-29.690830,-5.565209,0.202956,-0.213652,0.000000,-0.125180,0.266021,-0.000000
1.970000,-0.976338,-0.955908,-1.352448,2.320314,-0.608128,0.723484,2.167369,2.116193,-0.316005,-0.848869,0.446081,-10.385007,-24.859644,-28.395120,-3.678860,0.201582,-0.210858,0.000000,-0.147654,0.284183,0.000000
1.980000,-0.953026,-0.961884,-1.345229,2.341945,-0.586942,0.719804,2.157514,2.119409,-0.420087,-1.105535,0.145417,-10.406325,-24.383778,-32.807785,-0.211749,0.200005,-0.207853,0.000000,-0.172025,0.302705,-0.000000
1.990000,-0.929499,-0.967647,-1.338052,2.363465,-0.565740,0.715082,2.145258,2.119102,-0.524132,-1.336545,-0.210075,-10.389242,-23.858726,-33.845055,2.466300,0.198144,-0.204682,0.000000,-0.200176,0.317724,-0.000000
2.000000,-0.905757,-0.973199,-1.330927,2.384850,-0.544560,0.709321,2.130784,2.115208,-0.627872,-1.582709,-0.531484,-10.356999,-29.926349,-29.405832,3.449907,0.196003,-0.201373,0.000000,-0.224280,0.333509,0.000000
2.010000,-0.881802,-0.978538,-1.323865,2.406080,-0.523436,0.702524,2.113604,2.108472,-0.731272,-1.935072,-0.798192,-10.320244,-38.970871,-25.898249,4.438639,0.193659,-0.197883,0.000000,-0.242558,0.358366,-0.000000
2.020000,-0.857635,-0.983667,-1.316877,2.427123,-0.502391,0.694696,2.092082,2.099244,-0.834277,-2.362127,-1.049449,-10.268226,-35.341494,-25.936754,7.000123,0.191153,-0.194071,0.000000,-0.258665,0.388994,-0.000000
2.030000,-0.833260,-0.988586,-1.309971,2.447922,-0.481451,0.685839,2.066362,2.087483,-0.936636,-2.641902,-1.316927,-10.180241,-20.279517,-27.193905,10.466052,0.188487,-0.189961,0.000000,-0.275861,0.405412,-0.000000
2.040000,-0.808677,-0.993296,-1.303160,2.468450,-0.460641,0.675963,2.039244,2.072905,-1.037882,-2.767717,-1.593327,-10.058905,-14.819726,-26.691497,12.840348,0.185637,-0.185817,0.000000,-0.293496,0.407667,0.000000
2.050000,-0.783891,-0.997799,-1.296452,2.488707,-0.439993,0.665081,2.011007,2.055617,-1.137814,-2.938296,-1.850757,-9.923434,-16.614113,-25.648979,14.846979,0.182618,-0.181665,0.000000,-0.308861,0.413703,-0.000000
2.060000,-0.758903,-1.002096,-1.289858,2.508670,-0.419529,0.653207,1.980478,2.035890,-1.236350,-3.099999,-2.106306,-9.761966,-11.890509,-25.869546,17.718234,0.179460,-0.177403,0.000000,-0.323521,0.418571,-0.000000
2.070000,-0.733717,-1.006190,-1.283388,2.528316,-0.399275,0.640354,1.949007,2.013491,-1.333054,-3.176106,-2.368148,-9.569070,-11.884498,-23.981821,19.087926,0.176148,-0.173156,0.000000,-0.338329,0.415777,-0.000000
2.080000,-0.708337,-1.010082,-1.277051,2.547650,-0.379259,0.626545,1.916956,1.988527,-1.427732,-3.337689,-2.585943,-9.380207,-21.799928,-19.233405,18.456556,0.172694,-0.168956,0.000000,-0.349108,0.420618,0.000000
2.090000,-0.682764,-1.013775,-1.270857,2.566655,-0.359504,0.611800,1.882253,1.961772,-1.520658,-3.612105,-2.752816,-9.199939,-25.080282,-16.392566,19.157570,0.169165,-0.164617,0.000000,-0.355452,0.435187,0.000000
2.100000,-0.657003,-1.017272,-1.264815,2.585295,-0.340024,0.596132,1.844714,1.933471,-1.611731,-3.839295,-2.913794,-8.997056,-20.508295,-15.834792,21.285307,0.165584,-0.160126,0.000000,-0.361208,0.445406,0.000000
2.110000,-0.631058,-1.020575,-1.258934,2.603550,-0.320835,0.579565,1.805468,1.903496,-1.700599,-4.022271,-3.069512,-8.774233,-19.437529,-14.319594,22.583592,0.161941,-0.155585,0.000000,-0.366470,0.451755,-0.000000
2.120000,-0.604932,-1.023688,-1.253224,2.621404,-0.301954,0.562120,1.764269,1.872081,-1.787215,-4.228046,-3.200186,-8.545384,-19.782707,-12.096111,23.699295,0.158254,-0.150971,0.000000,-0.369672,0.460066,0.000000
2.130000,-0.578630,-1.026614,-1.247692,2.638835,-0.283393,0.543821,1.720907,1.839492,-1.871507,-4.417925,-3.311434,-8.300247,-17.456959,-10.337655,25.442880,0.154547,-0.146267,0.000000,-0.371287,0.466985,-0.000000
2.140000,-0.552156,-1.029356,-1.242347,2.655823,-0.265164,0.524690,1.675910,1.805852,-1.953220,-4.577185,-3.406939,-8.036526,-16.348461,-8.430340,26.728358,0.150828,-0.141518,0.000000,-0.371656,0.471354,0.000000
2.150000,-0.525514,-1.031918,-1.237198,2.672353,-0.247276,0.504756,1.629363,1.771353,-2.032237,-4.744894,-3.480041,-7.765679,-17.344665,-6.104225,27.432521,0.147113,-0.136731,0.000000,-0.370342,0.476577,-0.000000
2.160000,-0.498709,-1.034302,-1.232252,2.688410,-0.229737,0.484045,1.581012,1.736251,-2.108534,-4.924078,-3.529024,-7.487876,-17.645775,-3.846714,28.318414,0.143420,-0.131882,0.000000,-0.367246,0.482889,-0.000000
2.170000,-0.471746,-1.036512,-1.227517,2.703974,-0.212551,0.462586,1.530881,1.700773,-2.181995,-5.097810,-3.556975,-7.199311,-17.118546,-1.896951,29.190540,0.139767,-0.126972,0.000000,-0.362639,0.488880,-0.000000
2.180000,-0.444629,-1.038553,-1.223001,2.719027,-0.195721,0.440406,1.479056,1.665112,-2.252520,-5.266449,-3.566963,-6.904065,-16.751833,-0.123719,29.771462,0.136166,-0.122007,0.000000,-0.356842,0.494648,0.000000
2.190000,-0.417365,-1.040427,-1.218709,2.733555,-0.179249,0.417535,1.425552,1.629434,-2.320076,-5.432846,-3.559449,-6.603882,-16.459749,1.733034,30.405034,0.132629,-0.116986,0.000000,-0.349922,0.500457,0.000000
2.200000,-0.389958,-1.042138,-1.214650,2.747539,-0.163133,0.394004,1.370399,1.593923,-2.384598,-5.595644,-3.532302,-6.295965,-16.051991,3.791796,31.178871,0.129167,-0.111908,0.000000,-0.341695,0.506184,0.000000
2.210000,-0.362414,-1.043689,-1.210829,2.760963,-0.147370,0.369843,1.313640,1.558787,-2.445995,-5.753886,-3.483613,-5.980305,-15.625881,5.854699,31.851911,0.125794,-0.106776,0.000000,-0.332023,0.511773,0.000000
2.220000,-0.334739,-1.045085,-1.207253,2.773811,-0.131957,0.345084,1.255321,1.524250,-2.504204,-5.908162,-3.415208,-5.658926,-15.314652,7.532899,32.363114,0.122525,-0.101590,0.000000,-0.321086,0.517307,-0.000000
2.230000,-0.306938,-1.046329,-1.203927,2.786069,-0.116885,0.319759,1.195476,1.490483,-2.559174,-6.060179,-3.332955,-5.333042,-15.081847,8.879229,32.800540,0.119371,-0.096350,0.000000,-0.309364,0.522945,0.000000
2.240000,-0.279018,-1.047423,-1.200858,2.797721,-0.102147,0.293901,1.134118,1.457591,-2.610865,-6.209798,-3.237624,-5.002916,-14.753601,10.391553,33.232368,0.116336,-0.091055,0.000000,-0.296916,0.528690,0.000000
2.250000,-0.250984,-1.048372,-1.198049,2.808751,-0.087734,0.267542,1.071280,1.425731,-2.659232,-6.355251,-3.125124,-4.668395,-14.347569,12.037822,33.646818,0.113431,-0.085703,0.000000,-0.283416,0.534413,-0.000000
2.260000,-0.222842,-1.049178,-1.195507,2.819146,-0.073633,0.240716,1.007013,1.395089,-2.704233,-6.496750,-2.996867,-4.329979,-13.975819,13.478816,34.007435,0.110667,-0.080296,0.000000,-0.268973,0.540148,-0.000000
2.270000,-0.194601,-1.049844,-1.193235,2.828892,-0.059832,0.213457,0.941345,1.365794,-2.745832,-6.634768,-2.855548,-3.988246,-13.558590,14.872261,34.342239,0.108051,-0.074833,0.000000,-0.253795,0.545946,-0.000000
2.280000,-0.166265,-1.050374,-1.191238,2.837973,-0.046317,0.185799,0.874317,1.337978,-2.783997,-6.767922,-2.699422,-3.643134,-13.053507,16.327572,34.673333,0.105590,-0.069312,0.000000,-0.237733,0.551711,0.000000
2.290000,-0.137841,-1.050771,-1.189519,2.846378,-0.033072,0.157777,0.805987,1.311805,-2.818694,-6.895838,-2.528997,-3.294780,-12.577244,17.587559,34.966127,0.103295,-0.063735,0.000000,-0.220816,0.557426,0.000000
2.300000,-0.109337,-1.051036,-1.188082,2.854093,-0.020081,0.129425,0.736401,1.287398,-2.849893,-7.019467,-2.347671,-2.943812,-12.133565,18.672458,35.191146,0.101173,-0.058103,0.000000,-0.203297,0.563181,-0.000000
2.310000,-0.080759,-1.051172,-1.186931,2.861106,-0.007324,0.100779,0.665598,1.264852,-2.877571,-7.138509,-2.155547,-2.590957,-11.641124,19.746719,35.380353,0.099228,-0.052413,0.000000,-0.185170,0.568965,-0.000000
2.320000,-0.052115,-1.051182,-1.186067,2.867405,0.005216,0.071874,0.593630,1.244287,-2.901712,-7.252289,-1.952736,-2.236205,-11.127528,20.626922,35.618525,0.097469,-0.046666,0.000000,-0.166423,0.574735,0.000000
2.330000,-0.023411,-1.051068,-1.185493,2.872979,0.017561,0.042745,0.520552,1.225797,-2.922295,-7.361060,-1.743009,-1.878586,-10.622468,21.227738,35.907242,0.095899,-0.040862,0.000000,-0.147319,0.580519,-0.000000
2.340000,0.005345,-1.050831,-1.185212,2.877816,0.029732,0.013428,0.446409,1.209427,-2.939284,-7.464738,-1.528182,-1.518060,-10.078097,21.809214,36.137872,0.094522,-0.035000,0.000000,-0.127974,0.586321,0.000000
2.350000,0.034145,-1.050473,-1.185225,2.881907,0.041750,-0.016041,0.371257,1.195233,-2.952656,-7.562622,-1.306825,-1.155829,-9.476506,22.501504,36.261743,0.093339,-0.029081,0.000000,-0.108261,0.592101,-0.000000
2.360000,0.062983,-1.049996,-1.185533,2.885241,0.053637,-0.045625,0.295157,1.183290,-2.962400,-7.654269,-1.078151,-0.792825,-8.850184,23.111398,36.359462,0.092356,-0.023105,0.000000,-0.088098,0.597837,-0.000000
2.370000,0.091850,-1.049400,-1.186137,2.887810,0.065416,-0.075289,0.218172,1.173670,-2.968513,-7.739625,-0.844597,-0.428639,-8.224956,23.331387,36.560176,0.091577,-0.017072,0.000000,-0.067645,0.603531,0.000000
2.380000,0.120739,-1.048688,-1.187038,2.889605,0.077110,-0.104995,0.140364,1.166398,-2.970973,-7.818768,-0.611524,-0.061622,-7.584473,23.219073,36.848563,0.091003,-0.010982,0.000000,-0.047277,0.609198,0.000000
2.390000,0.149642,-1.047858,-1.188237,2.890617,0.088744,-0.134708,0.061796,1.161440,-2.969745,-7.891315,-0.380215,0.308332,-6.894432,23.175459,37.055645,0.090631,-0.004835,0.000000,-0.027064,0.614821,0.000000
2.400000,0.178551,-1.046913,-1.189733,2.890841,0.100339,-0.164390,-0.017462,1.158794,-2.964807,-7.956656,-0.148015,0.679491,-6.183355,23.201837,37.124876,0.090462,0.001367,0.000000,-0.006783,0.620364,0.000000
2.410000,0.207459,-1.045851,-1.191525,2.890268,0.111920,-0.194004,-0.097337,1.158480,-2.956155,-8.014982,0.083821,1.050829,-5.469361,23.031079,37.174282,0.090496,0.007624,0.000000,0.013489,0.625850,0.000000
2.420000,0.236357,-1.044674,-1.193613,2.888894,0.123509,-0.223513,-0.177762,1.160470,-2.943790,-8.066043,0.312607,1.422977,-4.662191,22.723033,37.342226,0.090732,0.013937,0.000000,0.033578,0.631268,-0.000000
2.430000,0.265237,-1.043381,-1.195995,2.886713,0.135129,-0.252880,-0.258658,1.164732,-2.927696,-8.108226,0.538282,1.797674,-3.748534,22.369381,37.596616,0.091167,0.020304,0.000000,0.053519,0.636502,0.000000
2.440000,0.294091,-1.041972,-1.198670,2.883721,0.146803,-0.282067,-0.339926,1.171236,-2.907837,-8.141014,0.759995,2.174909,-2.852681,21.866830,37.754781,0.091802,0.026722,0.000000,0.073274,0.641524,0.000000
2.450000,0.322911,-1.040445,-1.201636,2.879914,0.158554,-0.311037,-0.421478,1.179932,-2.884197,-8.165279,0.975619,2.552769,-2.003326,21.232568,37.768466,0.092633,0.033190,0.000000,0.092693,0.646407,-0.000000
2.460000,0.351689,-1.038801,-1.204891,2.875291,0.170402,-0.339751,-0.503232,1.190748,-2.856781,-8.181081,1.184646,2.930279,-1.113873,20.538523,37.760095,0.093657,0.039708,0.000000,0.111753,0.651161,-0.000000
2.470000,0.380417,-1.037037,-1.208431,2.869850,0.182369,-0.368172,-0.585100,1.203624,-2.825592,-8.187557,1.386389,3.307971,-0.130270,19.677539,37.838404,0.094869,0.046273,0.000000,0.130432,0.655724,0.000000
2.480000,0.409086,-1.035153,-1.212254,2.863589,0.194474,-0.396263,-0.666983,1.218476,-2.790622,-8.183686,1.578197,3.687047,0.922559,18.615223,37.963330,0.096266,0.052883,0.000000,0.148553,0.660027,-0.000000
2.490000,0.437689,-1.033148,-1.216357,2.856510,0.206738,-0.423985,-0.748773,1.235188,-2.751851,-8.169106,1.758694,4.067238,1.976781,17.510595,37.989418,0.097841,0.059536,0.000000,0.166031,0.664048,0.000000
2.500000,0.466216,-1.031019,-1.220734,2.848614,0.219178,-0.451300,-0.830365,1.253650,-2.709277,-8.144150,1.928409,4.446835,3.003503,16.431817,37.889681,0.099588,0.066230,0.000000,0.182914,0.667810,-0.000000
2.510000,0.494661,-1.028764,-1.225383,2.839903,0.231811,-0.478170,-0.911656,1.273757,-2.662914,-8.109035,2.087330,4.825032,4.048725,15.269592,37.756534,0.101500,0.072961,0.000000,0.199214,0.671328,0.000000
2.520000,0.523014,-1.026382,-1.230298,2.830381,0.244653,-0.504558,-0.992546,1.295397,-2.612776,-8.063176,2.233801,5.201966,5.190663,13.879875,37.639641,0.103573,0.079728,0.000000,0.214817,0.674557,0.000000
2.530000,0.551269,-1.023871,-1.235474,2.820052,0.257719,-0.530426,-1.072920,1.318433,-2.558875,-8.005222,2.364928,5.577824,6.417932,12.294686,37.502206,0.105797,0.086527,0.000000,0.229510,0.677390,0.000000
2.540000,0.579415,-1.021228,-1.240906,2.808922,0.271022,-0.555736,-1.152650,1.342695,-2.501220,-7.934817,2.479694,5.952010,7.623343,10.710872,37.274846,0.108164,0.093354,0.000000,0.243219,0.679794,0.000000
2.550000,0.607447,-1.018451,-1.246589,2.796999,0.284573,-0.580450,-1.231616,1.368026,-2.439835,-7.852755,2.579145,6.323321,8.773656,9.181617,36.958014,0.110663,0.100205,0.000000,0.256022,0.681818,-0.000000
2.560000,0.635355,-1.015536,-1.252515,2.784290,0.298382,-0.604532,-1.309705,1.394278,-2.374753,-7.759344,2.663327,6.691170,9.939935,7.578898,36.589292,0.113286,0.107076,0.000000,0.267924,0.683477,0.000000
2.570000,0.663133,-1.012483,-1.258679,2.770805,0.312459,-0.627945,-1.386803,1.421293,-2.306011,-7.653957,2.730723,7.055107,11.194260,5.792609,36.148188,0.116023,0.113964,0.000000,0.278801,0.684707,-0.000000
2.580000,0.690772,-1.009287,-1.265074,2.756554,0.326808,-0.650653,-1.462784,1.448893,-2.233651,-7.535459,2.779179,7.414134,12.514015,3.865003,35.610611,0.118863,0.120865,0.000000,0.288468,0.685395,0.000000
2.590000,0.718264,-1.005947,-1.271692,2.741549,0.341436,-0.672618,-1.537512,1.476877,-2.157729,-7.403676,2.808023,7.767319,13.800133,1.949504,34.998509,0.121793,0.127772,0.000000,0.296853,0.685503,-0.000000
2.600000,0.745603,-1.002459,-1.278526,2.725804,0.356346,-0.693807,-1.610858,1.505053,-2.078305,-7.259456,2.818169,8.114104,15.024449,0.098075,34.341562,0.124801,0.134679,0.000000,0.304011,0.685074,-0.000000
2.610000,0.772780,-0.998820,-1.285568,2.709332,0.371538,-0.714184,-1.682701,1.533240,-1.995447,-7.103187,2.809984,8.454151,16.249828,-1.784399,33.614262,0.127875,0.141582,0.000000,0.309954,0.684116,0.000000
2.620000,0.799789,-0.995028,-1.292810,2.692149,0.387011,-0.733716,-1.752922,1.561253,-1.909222,-6.934460,2.782481,8.786389,17.534746,-3.809662,32.724484,0.131001,0.148476,0.000000,0.314571,0.682559,0.000000
2.630000,0.826623,-0.991080,-1.300243,2.674273,0.402763,-0.752369,-1.821391,1.588890,-1.819719,-6.752492,2.733791,9.108640,18.856975,-5.942021,31.664572,0.134167,0.155353,0.000000,0.317657,0.680282,0.000000
2.640000,0.853275,-0.986973,-1.307857,2.655722,0.418788,-0.770110,-1.887972,1.615929,-1.727049,-6.557320,2.663640,9.419681,20.133018,-8.019101,30.551834,0.137355,0.162206,0.000000,0.319142,0.677234,0.000000
2.650000,0.879737,-0.982704,-1.315645,2.636514,0.435081,-0.786910,-1.952537,1.642162,-1.631325,-6.349832,2.573409,9.719677,21.338571,-10.003775,29.450104,0.140551,0.169028,0.000000,0.319100,0.673452,-0.000000
2.660000,0.906005,-0.978271,-1.323596,2.616671,0.451632,-0.802737,-2.014968,1.667397,-1.532656,-6.130549,2.463565,10.008683,22.523949,-11.993024,28.269788,0.143738,0.175811,0.000000,0.317530,0.668939,0.000000
2.670000,0.932071,-0.973671,-1.331700,2.596215,0.468429,-0.817563,-2.075148,1.691434,-1.431151,-5.899353,2.333549,10.285073,23.735048,-14.042316,26.836882,0.146902,0.182548,0.000000,0.314318,0.663615,-0.000000
2.680000,0.957929,-0.968902,-1.339947,2.575168,0.485460,-0.831360,-2.132955,1.714068,-1.326954,-5.655848,2.182719,10.545420,24.950450,-16.106071,25.162995,0.150025,0.189229,0.000000,0.309308,0.657340,0.000000
2.690000,0.983574,-0.963962,-1.348327,2.553555,0.502710,-0.844102,-2.188265,1.735088,-1.220243,-5.400344,2.011427,10.788333,26.101207,-18.097341,23.477292,0.153088,0.195845,0.000000,0.302447,0.650051,-0.000000
2.700000,1.009000,-0.958848,-1.356829,2.531403,0.520162,-0.855765,-2.240962,1.754296,-1.111187,-5.133824,1.820772,11.014966,27.176940,-20.021716,21.871006,0.156074,0.202385,0.000000,0.293771,0.641784,-0.000000
2.710000,1.034202,-0.953559,-1.365442,2.508736,0.537796,-0.866326,-2.290941,1.771503,-0.999944,-4.856805,1.610993,11.225753,28.215761,-21.920066,20.182163,0.158964,0.208839,0.000000,0.283230,0.632523,0.000000
2.720000,1.059175,-0.948092,-1.374155,2.485584,0.555592,-0.875764,-2.338098,1.786516,-0.886672,-4.569509,1.382371,11.418610,29.221863,-23.737608,18.182583,0.161738,0.215197,0.000000,0.270738,0.622177,-0.000000
2.730000,1.083914,-0.942447,-1.382957,2.461974,0.573527,-0.884059,-2.382332,1.799151,-0.771572,-4.272368,1.136241,11.589404,30.172622,-25.442432,15.910250,0.164378,0.221447,0.000000,0.256264,0.610621,-0.000000
2.740000,1.108415,-0.936622,-1.391837,2.437937,0.591575,-0.891195,-2.423546,1.809241,-0.654884,-3.966056,0.873522,11.736815,31.054904,-27.093698,13.669490,0.166863,0.227576,0.000000,0.239772,0.597790,0.000000
2.750000,1.132673,-0.930615,-1.400781,2.413503,0.609712,-0.897157,-2.461653,1.816621,-0.536835,-3.651270,0.594367,11.862794,31.885721,-28.717338,11.564489,0.169173,0.233571,0.000000,0.221199,0.583689,0.000000
2.760000,1.156685,-0.924427,-1.409780,2.388704,0.627908,-0.901932,-2.496571,1.821128,-0.417628,-3.328342,0.299175,11.968104,32.663204,-30.255566,9.388542,0.171286,0.239419,0.000000,0.200485,0.568265,-0.000000
2.770000,1.180447,-0.918057,-1.418820,2.363572,0.646134,-0.905510,-2.528219,1.822605,-0.297473,-2.998006,-0.010744,12.050565,33.322237,-31.620795,6.895161,0.173181,0.245104,0.000000,0.177601,0.551434,0.000000
2.780000,1.203956,-0.911505,-1.427890,2.338140,0.664360,-0.907881,-2.556531,1.820913,-0.176617,-2.661897,-0.333241,12.106008,33.849304,-32.811751,4.144246,0.174836,0.250614,0.000000,0.152559,0.533137,-0.000000
2.790000,1.227210,-0.904770,-1.436978,2.312441,0.682552,-0.909042,-2.581457,1.815940,-0.055353,-2.321020,-0.666979,12.133450,34.324311,-33.926686,1.469335,0.176230,0.255931,0.000000,0.125341,0.513322,-0.000000
2.800000,1.250205,-0.897854,-1.446071,2.286511,0.700679,-0.908988,-2.602951,1.807574,0.066052,-1.975411,-1.011775,12.135394,34.790424,-35.019059,-1.036649,0.177340,0.261040,0.000000,0.095884,0.491928,-0.000000
2.810000,1.272940,-0.890757,-1.455157,2.260382,0.718704,-0.907721,-2.620966,1.795705,0.187355,-1.625211,-1.367361,12.112717,35.182880,-36.005646,-3.591846,0.178144,0.265924,0.000000,0.064100,0.468869,-0.000000
2.820000,1.295412,-0.883480,-1.464225,2.234091,0.736593,-0.905241,-2.635456,1.780227,0.308306,-1.271753,-1.731887,12.063557,35.378925,-36.718410,-6.395829,0.178619,0.270565,0.000000,0.030004,0.444098,-0.000000
2.830000,1.317622,-0.876025,-1.473262,2.207673,0.754308,-0.901555,-2.646401,1.761067,0.428626,-0.917633,-2.101729,11.984800,35.385362,-37.159893,-9.373449,0.178741,0.274947,0.000000,-0.006238,0.417654,0.000000
2.840000,1.339566,-0.868394,-1.482256,2.181163,0.771814,-0.896669,-2.653808,1.738192,0.548002,-0.564046,-2.475085,11.876088,35.358948,-37.541989,-12.249456,0.178490,0.279050,0.000000,-0.044574,0.389512,0.000000
2.850000,1.361245,-0.860588,-1.491196,2.154597,0.789072,-0.890595,-2.657682,1.711565,0.666148,-0.210454,-2.852569,11.739811,35.356867,-37.960522,-14.967442,0.177845,0.282859,0.000000,-0.085130,0.359561,-0.000000
2.860000,1.382658,-0.852612,-1.500068,2.128010,0.806045,-0.883346,-2.658017,1.681141,0.782798,0.143091,-3.234296,11.576739,35.265195,-38.256927,-17.697354,0.176782,0.286353,0.000000,-0.128017,0.327705,0.000000
2.870000,1.403805,-0.844468,-1.508862,2.101437,0.822695,-0.874939,-2.654820,1.646879,0.897683,0.494850,-3.617707,11.385864,34.935168,-38.171125,-20.535633,0.175279,0.289513,0.000000,-0.173101,0.293968,0.000000
2.880000,1.424687,-0.836158,-1.517567,2.074913,0.838983,-0.865392,-2.648120,1.608787,1.010516,0.841795,-3.997718,11.166027,34.391695,-37.731529,-23.410708,0.173315,0.292319,0.000000,-0.219970,0.258512,0.000000
2.890000,1.445303,-0.827688,-1.526170,2.048474,0.854871,-0.854728,-2.637984,1.566925,1.121003,1.182684,-4.372338,10.917650,33.827792,-37.277281,-26.180165,0.170874,0.294757,0.000000,-0.268461,0.221380,-0.000000
2.900000,1.465656,-0.819061,-1.534662,2.022154,0.870321,-0.842972,-2.624467,1.521340,1.228869,1.518351,-4.743264,10.642424,33.309086,-36.923561,-28.838157,0.167940,0.296807,0.000000,-0.318758,0.182454,0.000000
2.910000,1.485746,-0.810281,-1.543030,1.995985,0.885298,-0.830151,-2.607617,1.472060,1.333852,1.848866,-5.110809,10.340887,32.700999,-36.432147,-31.458274,0.164493,0.298453,0.000000,-0.370910,0.141667,0.000000
2.920000,1.505576,-0.801355,-1.551265,1.970001,0.899763,-0.816295,-2.587489,1.419124,1.435686,2.172371,-5.471907,10.013258,31.839595,-35.518367,-34.006620,0.160516,0.299674,0.000000,-0.424593,0.099160,0.000000
2.930000,1.525146,-0.792286,-1.559356,1.944235,0.913680,-0.801437,-2.564169,1.362621,1.534117,2.485658,-5.821176,9.660754,30.759415,-34.242346,-36.432540,0.155996,0.300456,0.000000,-0.479163,0.055282,-0.000000
2.940000,1.544461,-0.783081,-1.567293,1.918718,0.927015,-0.785613,-2.537776,1.302700,1.628902,2.787559,-6.156754,9.284607,29.678202,-32.979664,-38.763708,0.150927,0.300788,0.000000,-0.534302,0.010200,-0.000000
2.950000,1.563521,-0.773746,-1.575068,1.893480,0.939734,-0.768859,-2.508418,1.239486,1.719809,3.079222,-6.480770,8.885480,28.666586,-31.854297,-41.053157,0.145305,0.300657,0.000000,-0.590114,-0.036175,0.000000
2.960000,1.582330,-0.764287,-1.582670,1.868550,0.951805,-0.751217,-2.476192,1.173085,1.806611,3.360891,-6.793840,8.463544,27.577717,-30.611447,-43.256365,0.139120,0.300052,0.000000,-0.646525,-0.083831,-0.000000
2.970000,1.600892,-0.754710,-1.590092,1.843956,0.963196,-0.732727,-2.441200,1.103610,1.889080,3.630776,-7.092998,8.020353,26.244773,-28.954870,-45.193851,0.132370,0.298960,0.000000,-0.702990,-0.132452,0.000000
2.980000,1.619209,-0.745023,-1.597325,1.819725,0.973877,-0.713435,-2.403576,1.031225,1.967018,3.885786,-7.372937,7.559667,24.702131,-26.972314,-46.848762,0.125057,0.297375,0.000000,-0.758602,-0.181452,0.000000
2.990000,1.637286,-0.735232,-1.604361,1.795884,0.983820,-0.693387,-2.363485,0.956151,2.040273,4.124819,-7.632445,7.083378,23.178442,-25.060155,-48.442018,0.117195,0.295298,0.000000,-0.812897,-0.230495,0.000000
3.000000,1.655127,-0.725346,-1.611193,1.772456,0.993000,-0.672630,-2.321080,0.878576,2.108686,4.349355,-7.874140,6.590827,21.805080,-23.228362,-50.066047,0.108797,0.292729,0.000000,-0.865878,-0.279613,-0.000000
3.010000,1.672735,-0.715372,-1.617814,1.749463,1.001392,-0.651213,-2.276498,0.798668,2.172090,4.560920,-8.097012,6.082057,20.428228,-21.225367,-51.548335,0.099876,0.289669,0.000000,-0.917067,-0.328801,-0.000000
3.020000,1.690116,-0.705318,-1.624217,1.726926,1.008973,-0.629188,-2.229862,0.716636,2.230327,4.757920,-8.298647,5.559860,18.718561,-19.100953,-52.629946,0.090456,0.286118,0.000000,-0.965752,-0.377565,-0.000000
3.030000,1.707274,-0.695193,-1.630397,1.704865,1.015724,-0.606606,-2.181339,0.632695,2.283287,4.935291,-8.479031,5.029458,16.750231,-16.936625,-53.332410,0.080563,0.282085,0.000000,-1.011484,-0.424863,-0.000000
3.040000,1.724213,-0.685004,-1.636349,1.683299,1.021627,-0.583522,-2.131156,0.547055,2.330916,5.092924,-8.637380,4.493212,14.973381,-14.664583,-53.983423,0.070229,0.277592,0.000000,-1.053735,-0.470322,0.000000
3.050000,1.740940,-0.674760,-1.642068,1.662242,1.026666,-0.559988,-2.079481,0.459947,2.373151,5.234759,-8.772323,3.949789,13.259030,-12.413604,-54.736801,0.059492,0.272655,0.000000,-1.091914,-0.514200,-0.000000
3.060000,1.757458,-0.664471,-1.647549,1.641709,1.030826,-0.536059,-2.026461,0.371608,2.409912,5.358105,-8.885652,3.398476,11.332727,-10.236058,-55.351323,0.048396,0.267290,0.000000,-1.125845,-0.555910,-0.000000
3.070000,1.773774,-0.654144,-1.652789,1.621713,1.034098,-0.511790,-1.972319,0.282234,2.441121,5.461414,-8.977044,2.842763,9.678419,-7.740502,-55.410836,0.036982,0.261525,0.000000,-1.155064,-0.594840,-0.000000
3.080000,1.789893,-0.643789,-1.657785,1.602263,1.036471,-0.487237,-1.917232,0.192068,2.466767,5.551673,-9.040462,2.290259,8.419147,-4.917163,-54.966873,0.025302,0.255387,0.000000,-1.178377,-0.631343,-0.000000
3.090000,1.805819,-0.633414,-1.662534,1.583368,1.037939,-0.462454,-1.861285,0.101425,2.486926,5.629796,-9.075387,1.743426,6.881202,-2.331370,-54.567266,0.013422,0.248897,0.000000,-1.195417,-0.665227,-0.000000
3.100000,1.821560,-0.623030,-1.667034,1.565037,1.038499,-0.437498,-1.804636,0.010560,2.501636,5.689297,-9.087089,1.198914,5.004634,0.024460,-54.347420,0.001403,0.242085,0.000000,-1.206652,-0.695546,0.000000
3.110000,1.837120,-0.612644,-1.671284,1.547276,1.038150,-0.412422,-1.747499,-0.080317,2.510904,5.729889,-9.074898,0.656477,3.257905,2.507362,-53.930832,-0.010701,0.234990,0.000000,-1.211795,-0.722050,-0.000000
3.120000,1.852505,-0.602267,-1.675282,1.530087,1.036893,-0.387280,-1.690039,-0.170938,2.514765,5.754455,-9.036942,0.120297,1.641390,4.915307,-53.015361,-0.022823,0.227648,0.000000,-1.210472,-0.744800,0.000000
3.130000,1.867722,-0.591906,-1.679029,1.513475,1.034731,-0.362126,-1.632410,-0.261055,2.513310,5.762717,-8.976592,-0.403830,-0.024663,7.079135,-51.716670,-0.034900,0.220095,0.000000,-1.203119,-0.763453,-0.000000
3.140000,1.882775,-0.581572,-1.682525,1.497439,1.031672,-0.337014,-1.574784,-0.350470,2.506689,5.753962,-8.895360,-0.914036,-1.684097,9.285372,-50.425343,-0.046875,0.212374,0.000000,-1.190012,-0.777785,-0.000000
3.150000,1.897671,-0.571273,-1.685769,1.481979,1.027722,-0.311993,-1.517331,-0.438963,2.495029,5.729035,-8.790884,-1.412337,-3.158691,11.709020,-49.225083,-0.058691,0.204528,0.000000,-1.170950,-0.787923,-0.000000
3.160000,1.912415,-0.561018,-1.688765,1.467093,1.022893,-0.287113,-1.460204,-0.526288,2.478442,5.690788,-8.661179,-1.898538,-4.498251,14.119754,-47.859444,-0.070285,0.196594,0.000000,-1.145854,-0.794231,-0.000000
3.170000,1.927012,-0.550815,-1.691512,1.452775,1.017196,-0.262424,-1.403515,-0.612186,2.457059,5.639070,-8.508489,-2.369526,-6.125185,16.085259,-46.139765,-0.081599,0.188609,0.000000,-1.115297,-0.796643,0.000000
3.180000,1.941470,-0.540674,-1.694013,1.439022,1.010649,-0.237972,-1.347422,-0.696457,2.431051,5.568284,-8.339474,-2.821333,-8.008151,17.663152,-44.148275,-0.092584,0.180614,0.000000,-1.080499,-0.794416,0.000000
3.190000,1.955793,-0.530602,-1.696271,1.425827,1.003267,-0.213803,-1.292149,-0.778976,2.400632,5.478907,-8.155226,-3.252491,-9.562579,19.405768,-42.140568,-0.103203,0.172658,0.000000,-1.041962,-0.787712,0.000000
3.200000,1.969987,-0.520608,-1.698289,1.413179,0.995069,-0.189959,-1.237844,-0.859562,2.366002,5.377033,-7.951359,-3.664145,-10.890670,21.312029,-40.205924,-0.113418,0.164780,0.000000,-0.999475,-0.777516,-0.000000
3.210000,1.984056,-0.510701,-1.700070,1.401070,0.986076,-0.166483,-1.184609,-0.938003,2.327349,5.261094,-7.728986,-4.056610,-12.362015,23.002083,-38.183340,-0.123188,0.157011,0.000000,-0.953558,-0.763811,-0.000000
3.220000,1.998008,-0.500887,-1.701619,1.389487,0.976309,-0.143412,-1.132622,-1.014142,2.284869,5.129793,-7.491317,-4.427811,-13.528755,24.547303,-35.867994,-0.132486,0.149391,0.000000,-0.905038,-0.746587,0.000000
3.230000,2.011846,-0.491175,-1.702939,1.378417,0.965793,-0.120785,-1.082013,-1.087829,2.238793,4.990518,-7.238040,-4.773970,-14.227463,26.058319,-33.322754,-0.141287,0.141950,0.000000,-0.854336,-0.726943,-0.000000
3.240000,2.025576,-0.481571,-1.704034,1.367847,0.954553,-0.098637,-1.032812,-1.158902,2.189390,4.845243,-6.970151,-5.094266,-15.094651,27.394456,-30.839035,-0.149572,0.134708,0.000000,-0.801976,-0.705341,-0.000000
3.250000,2.039203,-0.472084,-1.704911,1.357761,0.942615,-0.076998,-0.985108,-1.227232,2.136907,4.688625,-6.690151,-5.390750,-16.258517,28.651487,-28.441940,-0.157327,0.127686,0.000000,-0.748560,-0.681354,-0.000000
3.260000,2.052732,-0.462719,-1.705574,1.348145,0.930008,-0.055898,-0.939039,-1.292705,2.081575,4.520073,-6.397121,-5.663105,-17.270039,29.910347,-25.956397,-0.164544,0.120912,0.000000,-0.694280,-0.655123,0.000000
3.270000,2.066166,-0.453483,-1.706029,1.338980,0.916761,-0.035366,-0.894707,-1.355175,2.023645,4.343225,-6.091944,-5.909878,-17.936816,30.791183,-23.395722,-0.171214,0.114405,0.000000,-0.639563,-0.627301,0.000000
3.280000,2.079511,-0.444384,-1.706282,1.330251,0.902905,-0.015425,-0.852175,-1.414544,1.963377,4.161337,-5.781297,-6.131020,-18.398164,31.238174,-20.845450,-0.177338,0.108180,0.000000,-0.585475,-0.598486,0.000000
3.290000,2.092771,-0.435425,-1.706338,1.321937,0.888470,0.003901,-0.811480,-1.470801,1.901025,3.975261,-5.467180,-6.326787,-18.874758,31.776252,-18.298346,-0.182927,0.102245,0.000000,-0.532427,-0.568958,0.000000
3.300000,2.105950,-0.426614,-1.706204,1.314021,0.873489,0.022595,-0.772670,-1.523888,1.836842,3.783842,-5.145772,-6.496987,-19.424346,32.516185,-15.703768,-0.187990,0.096607,0.000000,-0.480098,-0.538728,-0.000000
3.310000,2.119051,-0.417956,-1.705886,1.306484,0.857992,0.040638,-0.735803,-1.573716,1.771085,3.586774,-4.816856,-6.640863,-19.897107,33.093993,-13.094598,-0.192533,0.091276,0.000000,-0.428599,-0.507892,0.000000
3.320000,2.132080,-0.409454,-1.705391,1.299305,0.842014,0.058017,-0.700934,-1.620225,1.704024,3.385899,-4.483892,-6.758879,-20.111023,33.314906,-10.636479,-0.196566,0.086257,0.000000,-0.378424,-0.476808,-0.000000
3.330000,2.145038,-0.401115,-1.704726,1.292465,0.825588,0.074719,-0.668085,-1.663394,1.635908,3.184554,-4.150558,-6.853592,-20.114051,33.294952,-8.350238,-0.200105,0.081551,0.000000,-0.329997,-0.445999,0.000000
3.340000,2.157929,-0.392943,-1.703897,1.285943,0.808746,0.090735,-0.637243,-1.703236,1.566952,2.983618,-3.817993,-6.925883,-20.145141,33.272960,-6.035278,-0.203170,0.077153,0.000000,-0.283435,-0.415645,0.000000
3.350000,2.170756,-0.384940,-1.702911,1.279720,0.791523,0.106058,-0.608413,-1.739754,1.497390,2.781651,-3.485099,-6.974298,-20.209957,33.297049,-3.606457,-0.205778,0.073061,0.000000,-0.238630,-0.385617,-0.000000
3.360000,2.183523,-0.377112,-1.701775,1.273775,0.773951,0.120683,-0.581610,-1.772938,1.427467,2.579419,-3.152052,-6.998013,-20.152813,33.210989,-1.223995,-0.207947,0.069273,0.000000,-0.195597,-0.356046,0.000000
3.370000,2.196232,-0.369461,-1.700497,1.268088,0.756064,0.134607,-0.556824,-1.802795,1.357430,2.378595,-2.820879,-6.998778,-19.997212,32.887509,0.867924,-0.209694,0.065781,0.000000,-0.154483,-0.327172,0.000000
3.380000,2.208885,-0.361991,-1.699083,1.262638,0.737895,0.147831,-0.534038,-1.829356,1.287491,2.179475,-2.494302,-6.980654,-19.787281,32.371643,2.691402,-0.211040,0.062580,0.000000,-0.115435,-0.299070,-0.000000
3.390000,2.221485,-0.354703,-1.697541,1.257407,0.719477,0.160357,-0.513235,-1.852681,1.217817,1.982849,-2.173446,-6.944950,-19.486412,31.836259,4.550710,-0.212006,0.059662,0.000000,-0.078470,-0.271837,-0.000000
3.400000,2.234033,-0.347601,-1.695876,1.252374,0.700842,0.172188,-0.494381,-1.872825,1.148592,1.789747,-1.857577,-6.889640,-19.194383,31.366079,6.553982,-0.212612,0.057017,0.000000,-0.043471,-0.245562,-0.000000
3.410000,2.246532,-0.340687,-1.694097,1.247519,0.682021,0.183329,-0.477440,-1.889832,1.080024,1.598962,-1.546125,-6.813870,-18.934394,30.848634,8.476848,-0.212878,0.054635,0.000000,-0.010310,-0.220087,0.000000
3.420000,2.258984,-0.333961,-1.692210,1.242825,0.663045,0.193788,-0.462402,-1.903747,1.012315,1.411059,-1.240604,-6.720103,-18.399216,30.075106,10.026790,-0.212821,0.052511,0.000000,0.020991,-0.195473,0.000000
3.430000,2.271389,-0.327426,-1.690221,1.238271,0.643946,0.203575,-0.449219,-1.914644,0.945622,1.230977,-0.944623,-6.613334,-17.578391,29.096235,11.254163,-0.212461,0.050634,0.000000,0.050245,-0.172261,-0.000000
3.440000,2.283749,-0.321082,-1.688138,1.233841,0.624752,0.212701,-0.437782,-1.922640,0.880048,1.059491,-0.658679,-6.495020,-16.906606,28.201800,12.532525,-0.211818,0.048985,0.000000,0.077528,-0.150491,0.000000
3.450000,2.296066,-0.314931,-1.685967,1.229516,0.605493,0.221176,-0.428029,-1.927818,0.815721,0.892845,-0.380587,-6.362684,-16.404229,27.341626,13.959278,-0.210912,0.047553,0.000000,0.103110,-0.129694,-0.000000
3.460000,2.308339,-0.308972,-1.683715,1.225280,0.586196,0.229015,-0.419925,-1.930251,0.752794,0.731406,-0.111847,-6.215834,-15.788769,26.340058,15.272659,-0.209758,0.046331,0.000000,0.126907,-0.109869,0.000000
3.470000,2.320571,-0.303207,-1.681387,1.221117,0.566888,0.236232,-0.413401,-1.930055,0.691405,0.577070,0.146214,-6.057230,-15.125774,25.419675,16.233470,-0.208375,0.045305,0.000000,0.148923,-0.091193,0.000000
3.480000,2.332762,-0.297634,-1.678990,1.217012,0.547595,0.242843,-0.408384,-1.927327,0.631650,0.428891,0.396547,-5.891165,-14.546006,24.669662,16.918782,-0.206780,0.044465,0.000000,0.169642,-0.073538,0.000000
3.490000,2.344911,-0.292255,-1.676530,1.212950,0.528341,0.248865,-0.404823,-1.922124,0.573581,0.286150,0.639608,-5.718855,-13.943955,23.781861,17.633498,-0.204983,0.043801,0.000000,0.189202,-0.056792,-0.000000
3.500000,2.357021,-0.287068,-1.674013,1.208916,0.509152,0.254315,-0.402661,-1.914535,0.517273,0.150012,0.872184,-5.538495,-13.154641,22.654993,18.425985,-0.202997,0.043304,0.000000,0.207289,-0.041029,0.000000
3.510000,2.369090,-0.282072,-1.671444,1.204896,0.490051,0.259210,-0.401823,-1.904680,0.462811,0.023057,1.092708,-5.350335,-12.276132,21.516410,19.091723,-0.200838,0.042962,0.000000,0.223812,-0.026480,0.000000
3.520000,2.381119,-0.277266,-1.668828,1.200879,0.471059,0.263571,-0.402200,-1.892681,0.410266,-0.095511,1.302512,-5.156660,-11.744315,20.586166,19.526267,-0.198521,0.042762,0.000000,0.239017,-0.013027,-0.000000
3.530000,2.393107,-0.272651,-1.666172,1.196852,0.452197,0.267416,-0.403733,-1.878630,0.359678,-0.211829,1.504431,-4.959810,-11.541097,19.794019,19.796191,-0.196058,0.042696,0.000000,0.253293,-0.000006,-0.000000
3.540000,2.405056,-0.268223,-1.663480,1.192804,0.433486,0.270764,-0.406436,-1.862592,0.311070,-0.326333,1.698392,-4.760736,-11.086053,18.868895,20.032976,-0.193455,0.042762,0.000000,0.266693,0.012646,0.000000
3.550000,2.416963,-0.263981,-1.660757,1.188724,0.414945,0.273637,-0.410260,-1.844662,0.264464,-0.433550,1.881809,-4.559150,-10.371757,17.832021,20.270296,-0.190724,0.042953,0.000000,0.278980,0.024395,-0.000000
3.560000,2.428830,-0.259924,-1.658007,1.184599,0.396593,0.276054,-0.415107,-1.824956,0.219887,-0.533768,2.055033,-4.355331,-9.790278,16.866809,20.424624,-0.187875,0.043258,0.000000,0.290233,0.035301,-0.000000
3.570000,2.440655,-0.256049,-1.655236,1.180421,0.378446,0.278035,-0.420935,-1.803562,0.177357,-0.629356,2.219145,-4.150658,-9.252089,15.893640,20.411124,-0.184919,0.043671,0.000000,0.300620,0.045626,-0.000000
3.580000,2.452438,-0.252355,-1.652447,1.176181,0.360522,0.279601,-0.427695,-1.780573,0.136873,-0.718810,2.372906,-3.947108,-8.619522,14.855743,20.261269,-0.181863,0.044186,0.000000,0.310078,0.055232,0.000000
3.590000,2.464179,-0.248839,-1.649644,1.171868,0.342835,0.280772,-0.435311,-1.756104,0.098415,-0.801746,2.516260,-3.745432,-8.052689,13.883812,20.093376,-0.178717,0.044794,0.000000,0.318637,0.064100,-0.000000
3.600000,2.475876,-0.245498,-1.646831,1.167474,0.325400,0.281569,-0.443730,-1.730248,0.061965,-0.879863,2.650582,-3.545241,-7.569543,12.950959,19.915757,-0.175490,0.045488,0.000000,0.326445,0.072423,-0.000000
3.610000,2.487528,-0.242331,-1.644012,1.162993,0.308230,0.282012,-0.452908,-1.703092,0.027510,-0.953137,2.775279,-3.347117,-7.059096,11.975046,19.657187,-0.172188,0.046265,0.000000,0.333469,0.080214,0.000000
3.620000,2.499136,-0.239333,-1.641191,1.158416,0.291338,0.282119,-0.462792,-1.674742,-0.004978,-1.021045,2.890083,-3.152097,-6.563095,11.098803,19.325112,-0.168820,0.047117,0.000000,0.339711,0.087428,-0.000000
3.630000,2.510697,-0.236504,-1.638370,1.153737,0.274735,0.281912,-0.473329,-1.645290,-0.035532,-1.084399,2.997255,-2.960615,-6.125963,10.361906,18.954269,-0.165393,0.048039,0.000000,0.345412,0.094161,0.000000
3.640000,2.522210,-0.233839,-1.635553,1.148950,0.258432,0.281409,-0.484480,-1.614797,-0.064190,-1.143565,3.097321,-2.773011,-5.681244,9.565086,18.538222,-0.161911,0.049026,0.000000,0.350634,0.100458,-0.000000
3.650000,2.533676,-0.231335,-1.632742,1.144047,0.242439,0.280628,-0.496201,-1.583344,-0.090992,-1.198024,3.188557,-2.589851,-5.199989,8.671590,18.054015,-0.158380,0.050074,0.000000,0.355218,0.106274,-0.000000
3.660000,2.545091,-0.228990,-1.629940,1.139026,0.226765,0.279589,-0.508441,-1.551026,-0.115987,-1.247564,3.270753,-2.411931,-4.731213,7.821635,17.517063,-0.154806,0.051178,0.000000,0.359159,0.111593,-0.000000
3.670000,2.556456,-0.226800,-1.627150,1.133879,0.211418,0.278308,-0.521152,-1.517929,-0.139231,-1.292648,3.344989,-2.239509,-4.330137,7.070664,16.999603,-0.151196,0.052333,0.000000,0.362564,0.116467,0.000000
3.680000,2.567769,-0.224762,-1.624374,1.128602,0.196406,0.276804,-0.534294,-1.484126,-0.160777,-1.334167,3.412166,-2.071939,-3.982645,6.373861,16.506291,-0.147554,0.053535,0.000000,0.365512,0.120992,-0.000000
3.690000,2.579028,-0.222872,-1.621614,1.123193,0.181736,0.275093,-0.547835,-1.449685,-0.180670,-1.372301,3.472467,-1.909384,-3.617651,5.669406,15.948999,-0.143885,0.054780,0.000000,0.368019,0.125191,-0.000000
3.700000,2.590233,-0.221127,-1.618872,1.117646,0.167413,0.273191,-0.561740,-1.414677,-0.198965,-1.406520,3.525554,-1.752959,-3.225362,4.950055,15.313381,-0.140193,0.056065,0.000000,0.370064,0.129008,0.000000
3.710000,2.601381,-0.219523,-1.616150,1.111958,0.153442,0.271114,-0.575966,-1.379174,-0.215729,-1.436809,3.571468,-1.603116,-2.853563,4.257316,14.666830,-0.136483,0.057386,0.000000,0.371649,0.132442,-0.000000
3.720000,2.612472,-0.218058,-1.613450,1.106126,0.139829,0.268876,-0.590476,-1.343248,-0.231027,-1.463591,3.610700,-1.459622,-2.521016,3.619213,14.047640,-0.132760,0.058739,0.000000,0.372812,0.135537,0.000000
3.730000,2.623504,-0.216727,-1.610773,1.100148,0.126577,0.266493,-0.605237,-1.306960,-0.244921,-1.487229,3.643852,-1.322163,-2.212012,3.022966,13.441026,-0.129027,0.060121,0.000000,0.373601,0.138331,0.000000
3.740000,2.634475,-0.215526,-1.608120,1.094022,0.113690,0.263978,-0.620220,-1.270371,-0.257470,-1.507832,3.671160,-1.190802,-1.903892,2.433741,12.808196,-0.125287,0.061529,0.000000,0.374031,0.140834,0.000000
3.750000,2.645384,-0.214453,-1.605493,1.087744,0.101170,0.261344,-0.635394,-1.233537,-0.268737,-1.525307,3.692527,-1.065999,-1.590172,1.846563,12.133136,-0.121545,0.062960,0.000000,0.374090,0.143035,-0.000000
3.760000,2.656230,-0.213503,-1.602893,1.081314,0.089019,0.258603,-0.650727,-1.196520,-0.278790,-1.539635,3.708091,-0.948139,-1.285099,1.284574,11.448524,-0.117805,0.064411,0.000000,0.373785,0.144928,0.000000
3.770000,2.667010,-0.212673,-1.600321,1.074730,0.077240,0.255768,-0.666187,-1.159375,-0.287700,-1.551009,3.718218,-0.837029,-1.006726,0.759493,10.813339,-0.114069,0.065879,0.000000,0.373139,0.146531,-0.000000
3.780000,2.677724,-0.211958,-1.597778,1.067990,0.065832,0.252849,-0.681747,-1.122156,-0.295531,-1.559770,3.723281,-0.731872,-0.746605,0.263213,10.224650,-0.110342,0.067361,0.000000,0.372172,0.147880,-0.000000
3.790000,2.688370,-0.211356,-1.595264,1.061095,0.054796,0.249857,-0.697382,-1.084910,-0.302337,-1.565941,3.723483,-0.632536,-0.480285,-0.218990,9.610385,-0.106626,0.068854,0.000000,0.370891,0.148977,-0.000000
3.800000,2.698946,-0.210862,-1.592781,1.054042,0.044134,0.246802,-0.713066,-1.047686,-0.308182,-1.569375,3.718901,-0.539665,-0.228913,-0.687166,8.950721,-0.102924,0.070357,0.000000,0.369302,0.149801,0.000000
3.810000,2.709451,-0.210473,-1.590328,1.046833,0.033843,0.243694,-0.728770,-1.010532,-0.313131,-1.570519,3.709739,-0.453521,-0.005623,-1.132337,8.299872,-0.099239,0.071867,0.000000,0.367417,0.150390,-0.000000
3.820000,2.719883,-0.210186,-1.587907,1.039467,0.023923,0.240540,-0.744476,-0.973491,-0.317252,-1.569488,3.696254,-0.373667,0.257008,-1.555888,7.712566,-0.095575,0.073380,0.000000,0.365246,0.150755,-0.000000
3.830000,2.730240,-0.209995,-1.585517,1.031944,0.014373,0.237349,-0.760159,-0.936607,-0.320604,-1.565379,3.678622,-0.299270,0.566233,-1.961662,7.176769,-0.091934,0.074896,0.000000,0.362789,0.150811,0.000000
3.840000,2.740522,-0.209898,-1.583160,1.024264,0.005191,0.234128,-0.775784,-0.899919,-0.323237,-1.558163,3.657021,-0.230132,0.829380,-2.347914,6.626348,-0.088319,0.076409,0.000000,0.360053,0.150554,0.000000
3.850000,2.750726,-0.209891,-1.580835,1.016428,-0.003625,0.230884,-0.791323,-0.863466,-0.325207,-1.548791,3.631663,-0.166743,1.041876,-2.713745,6.044013,-0.084733,0.077919,0.000000,0.357055,0.150070,0.000000
3.860000,2.760850,-0.209971,-1.578542,1.008437,-0.012079,0.227624,-0.806759,-0.827286,-0.326572,-1.537326,3.602746,-0.109252,1.266701,-3.061250,5.478092,-0.081178,0.079422,0.000000,0.353806,0.149361,0.000000
3.870000,2.770894,-0.210133,-1.576282,1.000293,-0.020171,0.224352,-0.822069,-0.791411,-0.327392,-1.523457,3.570438,-0.057181,1.494862,-3.392941,4.977320,-0.077657,0.080916,0.000000,0.350310,0.148396,0.000000
3.880000,2.780856,-0.210374,-1.574055,0.991996,-0.027907,0.221076,-0.837229,-0.755877,-0.327716,-1.507428,3.534887,-0.009705,1.702154,-3.708819,4.530017,-0.074172,0.082399,0.000000,0.346567,0.147203,-0.000000
3.890000,2.790734,-0.210691,-1.571861,0.983548,-0.035289,0.217798,-0.852218,-0.720714,-0.327586,-1.489414,3.496262,0.033419,1.907164,-4.006569,4.076048,-0.070725,0.083868,0.000000,0.342586,0.145799,0.000000
3.900000,2.800527,-0.211080,-1.569699,0.974952,-0.042321,0.214524,-0.867017,-0.685952,-0.327047,-1.469285,3.454756,0.071816,2.127641,-4.285772,3.600828,-0.067320,0.085322,0.000000,0.338383,0.144164,0.000000
3.910000,2.810233,-0.211537,-1.567570,0.966208,-0.049008,0.211257,-0.881603,-0.651618,-0.326150,-1.446861,3.410546,0.105436,2.349213,-4.548715,3.147083,-0.063957,0.086758,0.000000,0.333966,0.142277,0.000000
3.920000,2.819851,-0.212060,-1.565474,0.957320,-0.055353,0.208001,-0.895954,-0.617741,-0.324939,-1.422301,3.363782,0.134757,2.533942,-4.797844,2.753453,-0.060640,0.088173,0.000000,0.329343,0.140156,0.000000
3.930000,2.829380,-0.212644,-1.563410,0.948289,-0.061363,0.204758,-0.910049,-0.584343,-0.323454,-1.396183,3.314590,0.160505,2.688738,-5.033226,2.408420,-0.057371,0.089566,0.000000,0.324515,0.137861,-0.000000
3.940000,2.838817,-0.213287,-1.561379,0.939119,-0.067040,0.201532,-0.923878,-0.551449,-0.321729,-1.368526,3.263117,0.182926,2.864235,-5.252534,2.063784,-0.054150,0.090935,0.000000,0.319491,0.135393,0.000000
3.950000,2.848162,-0.213985,-1.559380,0.929811,-0.072392,0.198324,-0.937420,-0.519080,-0.319796,-1.338898,3.209539,0.201780,3.043255,-5.454085,1.708791,-0.050981,0.092278,0.000000,0.314286,0.132707,-0.000000
3.960000,2.857413,-0.214735,-1.557412,0.920370,-0.077422,0.195136,-0.950656,-0.487258,-0.317693,-1.307661,3.154035,0.217102,3.194112,-5.640211,1.376781,-0.047864,0.093593,0.000000,0.308913,0.129835,0.000000
3.970000,2.866570,-0.215534,-1.555477,0.910798,-0.082137,0.191970,-0.963573,-0.456000,-0.315454,-1.275016,3.096735,0.229316,3.377227,-5.816888,1.095105,-0.044802,0.094878,0.000000,0.303378,0.126800,0.000000
3.980000,2.875629,-0.216378,-1.553573,0.901099,-0.086542,0.188827,-0.976156,-0.425323,-0.313107,-1.240116,3.037698,0.239004,3.606230,-5.983990,0.854222,-0.041797,0.096131,0.000000,0.297681,0.123523,0.000000
3.990000,2.884592,-0.217264,-1.551700,0.891275,-0.090643,0.185708,-0.988376,-0.395246,-0.310674,-1.202891,2.977055,0.246401,3.795589,-6.134264,0.619304,-0.038849,0.097350,0.000000,0.291832,0.119997,0.000000
4.000000,2.893455,-0.218191,-1.549859,0.881331,-0.094447,0.182613,-1.000214,-0.365782,-0.308179,-1.164205,2.915012,0.251390,3.936368,-6.267301,0.381216,-0.035960,0.098533,0.000000,0.285849,0.116304,0.000000
4.010000,2.902218,-0.219153,-1.548048,0.871271,-0.097959,0.179544,-1.011660,-0.336946,-0.305646,-1.124164,2.851709,0.254025,4.086827,-6.388515,0.163465,-0.033132,0.099678,0.000000,0.279745,0.112455,0.000000
4.020000,2.910880,-0.220150,-1.546268,0.861098,-0.101186,0.176501,-1.022697,-0.308748,-0.303098,-1.082468,2.787242,0.254659,4.248806,-6.498836,-0.011354,-0.030365,0.100783,0.000000,0.273525,0.108423,0.000000
4.030000,2.919440,-0.221177,-1.544518,0.850817,-0.104134,0.173482,-1.033309,-0.281201,-0.300553,-1.039187,2.721732,0.253798,4.401164,-6.596724,-0.150701,-0.027661,0.101847,0.000000,0.267198,0.104219,-0.000000
4.040000,2.927897,-0.222232,-1.542798,0.840432,-0.106810,0.170489,-1.043481,-0.254313,-0.298022,-0.994445,2.655308,0.251645,4.546161,-6.682048,-0.284532,-0.025021,0.102869,0.000000,0.260776,0.099856,-0.000000
4.050000,2.936249,-0.223313,-1.541108,0.829947,-0.109220,0.167522,-1.053198,-0.228095,-0.295520,-0.948264,2.588091,0.248107,4.689362,-6.755645,-0.417856,-0.022446,0.103845,0.000000,0.254271,0.095335,0.000000
4.060000,2.944496,-0.224417,-1.539448,0.819368,-0.111372,0.164579,-1.062446,-0.202552,-0.293060,-0.900657,2.520195,0.243288,4.827684,-6.817970,-0.531350,-0.019936,0.104776,0.000000,0.247692,0.090659,0.000000
4.070000,2.952636,-0.225541,-1.537817,0.808698,-0.113271,0.161661,-1.071211,-0.177691,-0.290654,-0.851711,2.451732,0.237480,4.952469,-6.868284,-0.615910,-0.017492,0.105659,0.000000,0.241051,0.085837,0.000000
4.080000,2.960670,-0.226682,-1.536215,0.797944,-0.114925,0.158766,-1.079480,-0.153517,-0.288311,-0.801608,2.382829,0.230970,5.063954,-6.906698,-0.678715,-0.015115,0.106493,0.000000,0.234358,0.080892,0.000000
4.090000,2.968595,-0.227839,-1.534641,0.787109,-0.116341,0.155894,-1.087243,-0.130034,-0.286035,-0.750431,2.313598,0.223906,5.173117,-6.934925,-0.732152,-0.012805,0.107277,0.000000,0.227625,0.075832,0.000000
4.100000,2.976412,-0.229009,-1.533097,0.776199,-0.117526,0.153045,-1.094489,-0.107245,-0.283832,-0.698146,2.244130,0.216327,5.281807,-6.953889,-0.777844,-0.010562,0.108009,0.000000,0.220861,0.070655,0.000000
4.110000,2.984119,-0.230190,-1.531580,0.765219,-0.118486,0.150218,-1.101206,-0.085151,-0.281708,-0.644795,2.174520,0.208349,5.382073,-6.962855,-0.808811,-0.008388,0.108690,0.000000,0.214076,0.065366,-0.000000
4.120000,2.991716,-0.231379,-1.530092,0.754175,-0.119229,0.147411,-1.107385,-0.063755,-0.279665,-0.590504,2.104873,0.200150,5.469613,-6.960583,-0.823080,-0.006281,0.109317,0.000000,0.207280,0.059979,0.000000
4.130000,2.999202,-0.232574,-1.528632,0.743071,-0.119761,0.144624,-1.113016,-0.043054,-0.277705,-0.535403,2.035308,0.191887,5.546517,-6.947592,-0.824187,-0.004242,0.109889,0.000000,0.200486,0.054510,-0.000000
4.140000,3.006578,-0.233774,-1.527200,0.731914,-0.120090,0.141857,-1.118093,-0.023048,-0.275828,-0.479574,1.965922,0.183667,5.617634,-6.926227,-0.816064,-0.002271,0.110407,0.000000,0.193702,0.048966,-0.000000
4.150000,3.013841,-0.234976,-1.525795,0.720709,-0.120222,0.139108,-1.122608,-0.003736,-0.274032,-0.423050,1.896784,0.175566,5.684599,-6.897500,-0.798535,-0.000368,0.110869,0.000000,0.186938,0.043353,0.000000
4.160000,3.020992,-0.236178,-1.524418,0.709462,-0.120165,0.136376,-1.126554,0.014887,-0.272316,-0.365882,1.827972,0.167696,5.743750,-6.860297,-0.770468,0.001467,0.111274,0.000000,0.180201,0.037677,0.000000
4.170000,3.028030,-0.237379,-1.523068,0.698178,-0.119925,0.133662,-1.129925,0.032824,-0.270678,-0.308175,1.759578,0.160157,5.789830,-6.813208,-0.735224,0.003236,0.111622,0.000000,0.173501,0.031950,-0.000000
4.180000,3.034955,-0.238577,-1.521744,0.686864,-0.119508,0.130963,-1.132717,0.050079,-0.269113,-0.250085,1.691707,0.152992,5.823396,-6.757065,-0.694736,0.004937,0.111913,0.000000,0.166849,0.026187,0.000000
4.190000,3.041767,-0.239770,-1.520448,0.675524,-0.118923,0.128279,-1.134927,0.066658,-0.267618,-0.191708,1.624437,0.146262,5.851119,-6.694417,-0.646050,0.006573,0.112146,0.000000,0.160253,0.020398,-0.000000
4.200000,3.048466,-0.240955,-1.519179,0.664165,-0.118175,0.125610,-1.136552,0.082568,-0.266188,-0.133063,1.557819,0.140071,5.876165,-6.625182,-0.587064,0.008143,0.112321,0.000000,0.153719,0.014588,0.000000
4.210000,3.055051,-0.242133,-1.517936,0.652793,-0.117272,0.122956,-1.137588,0.097814,-0.264817,-0.074184,1.491933,0.134521,5.893691,-6.548247,-0.521347,0.009647,0.112438,0.000000,0.147256,0.008759,-0.000000
4.220000,3.061522,-0.243301,-1.516720,0.641413,-0.116219,0.120314,-1.138035,0.112406,-0.263498,-0.015189,1.426854,0.129644,5.895151,-6.465412,-0.456980,0.011088,0.112496,0.000000,0.140871,0.002924,-0.000000
4.230000,3.067879,-0.244457,-1.515530,0.630032,-0.115024,0.117686,-1.137892,0.126351,-0.262224,0.043719,1.362625,0.125381,5.882026,-6.377294,-0.394258,0.012465,0.112496,0.000000,0.134569,-0.002897,-0.000000
4.240000,3.074122,-0.245601,-1.514366,0.618656,-0.113692,0.115070,-1.137161,0.139659,-0.260990,0.102451,1.299308,0.121758,5.865542,-6.282134,-0.324035,0.013779,0.112438,0.000000,0.128356,-0.008696,-0.000000
4.250000,3.080252,-0.246731,-1.513228,0.607289,-0.112230,0.112466,-1.135843,0.152338,-0.259789,0.161030,1.236982,0.118900,5.845411,-6.181991,-0.244423,0.015032,0.112322,0.000000,0.122241,-0.014474,-0.000000
4.260000,3.086268,-0.247846,-1.512117,0.595939,-0.110645,0.109874,-1.133940,0.164398,-0.258612,0.219360,1.175668,0.116870,5.814221,-6.078465,-0.162919,0.016224,0.112149,0.000000,0.116227,-0.020220,0.000000
4.270000,3.092171,-0.248944,-1.511031,0.584610,-0.108942,0.107294,-1.131456,0.175851,-0.257451,0.277314,1.115413,0.115642,5.774671,-5.966218,-0.085914,0.017356,0.111918,0.000000,0.110318,-0.025923,-0.000000
4.280000,3.097960,-0.250025,-1.509971,0.573310,-0.107128,0.104725,-1.128394,0.186707,-0.256299,0.334853,1.056344,0.115152,5.729102,-5.845195,-0.012433,0.018430,0.111630,0.000000,0.104526,-0.031580,0.000000
4.290000,3.103637,-0.251087,-1.508936,0.562042,-0.105208,0.102168,-1.124759,0.196978,-0.255148,0.391896,0.998509,0.115393,5.673320,-5.723630,0.064301,0.019447,0.111286,0.000000,0.098857,-0.037183,-0.000000
4.300000,3.109201,-0.252129,-1.507928,0.550814,-0.103189,0.099622,-1.120556,0.206677,-0.253991,0.448319,0.941871,0.116438,5.609475,-5.600852,0.148088,0.020407,0.110886,0.000000,0.093308,-0.042720,0.000000
4.310000,3.114653,-0.253151,-1.506944,0.539631,-0.101075,0.097088,-1.115792,0.215815,-0.252820,0.504086,0.886492,0.118355,5.540338,-5.472043,0.233074,0.021313,0.110432,0.000000,0.087884,-0.048186,0.000000
4.320000,3.119994,-0.254150,-1.505986,0.528499,-0.098872,0.094565,-1.110474,0.224407,-0.251624,0.559126,0.832431,0.121099,5.457846,-5.342558,0.306661,0.022165,0.109922,0.000000,0.082591,-0.053576,-0.000000
4.330000,3.125223,-0.255128,-1.505053,0.517422,-0.096587,0.092055,-1.104610,0.232464,-0.250398,0.613243,0.779641,0.124488,5.360403,-5.215044,0.369290,0.022965,0.109360,0.000000,0.077425,-0.058872,0.000000
4.340000,3.130342,-0.256082,-1.504145,0.506406,-0.094223,0.089558,-1.098209,0.239999,-0.249134,0.666334,0.728130,0.128485,5.259641,-5.082459,0.436707,0.023713,0.108745,0.000000,0.072386,-0.064065,0.000000
4.350000,3.135351,-0.257012,-1.503262,0.495458,-0.091787,0.087073,-1.091283,0.247027,-0.247828,0.718435,0.677992,0.133222,5.159741,-4.942266,0.513063,0.024412,0.108078,0.000000,0.067482,-0.069158,-0.000000
4.360000,3.140251,-0.257918,-1.502403,0.484581,-0.089282,0.084601,-1.083841,0.253559,-0.246470,0.769529,0.629284,0.138746,5.052736,-4.800041,0.586757,0.025063,0.107361,0.000000,0.062722,-0.074149,-0.000000
4.370000,3.145043,-0.258798,-1.501570,0.473781,-0.086715,0.082143,-1.075893,0.259612,-0.245053,0.819490,0.581991,0.144958,4.930056,-4.662038,0.646967,0.025667,0.106595,0.000000,0.058101,-0.079027,0.000000
4.380000,3.149727,-0.259652,-1.500760,0.463063,-0.084090,0.079700,-1.067451,0.265199,-0.243571,0.868130,0.536044,0.151686,4.794751,-4.526763,0.696763,0.026225,0.105780,0.000000,0.053613,-0.083775,0.000000
4.390000,3.154304,-0.260480,-1.499976,0.452432,-0.081411,0.077272,-1.058530,0.270333,-0.242019,0.915385,0.491455,0.158893,4.658242,-4.386827,0.749260,0.026739,0.104919,0.000000,0.049259,-0.088388,0.000000
4.400000,3.158776,-0.261280,-1.499215,0.441892,-0.078684,0.074860,-1.049143,0.275028,-0.240393,0.961295,0.448307,0.166671,4.519084,-4.243222,0.805791,0.027210,0.104012,0.000000,0.045047,-0.092870,-0.000000
4.410000,3.163142,-0.262054,-1.498478,0.431449,-0.075911,0.072464,-1.039304,0.279299,-0.238686,1.005767,0.406591,0.175009,4.370239,-4.101231,0.857075,0.027640,0.103060,0.000000,0.040976,-0.097211,0.000000
4.420000,3.167405,-0.262799,-1.497766,0.421106,-0.073098,0.070086,-1.029028,0.283160,-0.236893,1.048700,0.366282,0.183812,4.218172,-3.958029,0.899672,0.028030,0.102067,0.000000,0.037043,-0.101403,-0.000000
4.430000,3.171564,-0.263515,-1.497077,0.410868,-0.070248,0.067726,-1.018330,0.286625,-0.235010,1.090130,0.327430,0.193002,4.065702,-3.812212,0.935930,0.028381,0.101032,0.000000,0.033252,-0.105450,0.000000
4.440000,3.175622,-0.264204,-1.496411,0.400740,-0.067365,0.065386,-1.007225,0.289709,-0.233033,1.130014,0.290038,0.202531,3.903902,-3.668678,0.969377,0.028695,0.099957,0.000000,0.029605,-0.109349,-0.000000
4.450000,3.179579,-0.264863,-1.495769,0.390724,-0.064454,0.063065,-0.995730,0.292426,-0.230959,1.168208,0.254057,0.212390,3.733225,-3.526745,1.003362,0.028973,0.098844,0.000000,0.026095,-0.113087,0.000000
4.460000,3.183436,-0.265493,-1.495150,0.380825,-0.061517,0.060766,-0.983861,0.294790,-0.228785,1.204678,0.219503,0.222598,3.560067,-3.383596,1.035019,0.029217,0.097694,0.000000,0.022724,-0.116658,0.000000
4.470000,3.187195,-0.266093,-1.494554,0.371047,-0.058558,0.058490,-0.971636,0.296816,-0.226507,1.239410,0.186385,0.233090,3.380940,-3.243983,1.053541,0.029427,0.096509,0.000000,0.019493,-0.120064,0.000000
4.480000,3.190857,-0.266664,-1.493980,0.361392,-0.055580,0.056236,-0.959073,0.298517,-0.224123,1.272297,0.154624,0.243669,3.193857,-3.109615,1.059265,0.029607,0.095292,0.000000,0.016394,-0.123295,-0.000000
4.490000,3.194423,-0.267205,-1.493429,0.351865,-0.052587,0.054007,-0.946190,0.299908,-0.221634,1.303287,0.124193,0.254275,3.004679,-2.974203,1.066588,0.029755,0.094042,0.000000,0.013423,-0.126346,0.000000
4.500000,3.197895,-0.267716,-1.492900,0.342468,-0.049582,0.051804,-0.933007,0.301001,-0.219038,1.332391,0.095140,0.265001,2.813564,-2.835682,1.077507,0.029875,0.092764,0.000000,0.010585,-0.129219,0.000000
4.510000,3.201273,-0.268196,-1.492393,0.333205,-0.046567,0.049626,-0.919543,0.301811,-0.216334,1.359558,0.067479,0.275825,2.616882,-2.698855,1.082166,0.029967,0.091457,0.000000,0.007882,-0.131906,-0.000000
4.520000,3.204559,-0.268647,-1.491907,0.324078,-0.043546,0.047477,-0.905816,0.302351,-0.213521,1.384728,0.041163,0.286644,2.417294,-2.568660,1.077457,0.030033,0.090124,0.000000,0.005309,-0.134405,-0.000000
4.530000,3.207754,-0.269067,-1.491443,0.315089,-0.040520,0.045356,-0.891848,0.302634,-0.210601,1.407904,0.016106,0.297375,2.216744,-2.443953,1.066657,0.030073,0.088768,0.000000,0.002857,-0.136714,0.000000
4.540000,3.210860,-0.269457,-1.491000,0.306241,-0.037493,0.043265,-0.877658,0.302673,-0.207574,1.429063,-0.007717,0.307977,2.011658,-2.318757,1.053202,0.030090,0.087389,0.000000,0.000524,-0.138833,0.000000
4.550000,3.213879,-0.269817,-1.490578,0.297536,-0.034467,0.041205,-0.863267,0.302480,-0.204441,1.448137,-0.030269,0.318439,1.800075,-2.192053,1.037318,0.030084,0.085990,0.000000,-0.001688,-0.140754,-0.000000
4.560000,3.216811,-0.270147,-1.490176,0.288975,-0.031444,0.039176,-0.848695,0.302068,-0.201205,1.465065,-0.051558,0.328724,1.584996,-2.068147,1.016824,0.030056,0.084572,0.000000,-0.003778,-0.142470,-0.000000
4.570000,3.219659,-0.270446,-1.489794,0.280562,-0.028426,0.037181,-0.833965,0.301449,-0.197867,1.479837,-0.071632,0.338775,1.371391,-1.949846,0.990643,0.030008,0.083139,0.000000,-0.005751,-0.143981,-0.000000
4.580000,3.222422,-0.270715,-1.489433,0.272296,-0.025415,0.035219,-0.819099,0.300635,-0.194429,1.492493,-0.090555,0.348536,1.158284,-1.835952,0.959429,0.029941,0.081691,0.000000,-0.007615,-0.145291,-0.000000
4.590000,3.225104,-0.270954,-1.489090,0.264180,-0.022413,0.033292,-0.804116,0.299638,-0.190896,1.503003,-0.108351,0.357964,0.939644,-1.723251,0.924618,0.029856,0.080232,0.000000,-0.009370,-0.146397,0.000000
4.600000,3.227706,-0.271163,-1.488767,0.256214,-0.019422,0.031401,-0.789038,0.298468,-0.187270,1.511285,-0.125020,0.367029,0.717466,-1.611416,0.887347,0.029754,0.078762,0.000000,-0.011018,-0.147289,-0.000000
4.610000,3.230229,-0.271343,-1.488462,0.248399,-0.016443,0.029547,-0.773890,0.297137,-0.183555,1.517352,-0.140580,0.375711,0.495871,-1.502765,0.846696,0.029635,0.077285,0.000000,-0.012560,-0.147969,0.000000
4.620000,3.232674,-0.271492,-1.488176,0.240736,-0.013479,0.027730,-0.758691,0.295656,-0.179756,1.521203,-0.155075,0.383963,0.268806,-1.398476,0.799624,0.029502,0.075801,0.000000,-0.014000,-0.148436,0.000000
4.630000,3.235043,-0.271612,-1.487907,0.233225,-0.010530,0.025951,-0.743466,0.294036,-0.175876,1.522728,-0.168549,0.391703,0.034790,-1.298118,0.746431,0.029355,0.074315,0.000000,-0.015342,-0.148679,-0.000000
4.640000,3.237339,-0.271703,-1.487657,0.225867,-0.007598,0.024212,-0.728237,0.292285,-0.171922,1.521899,-0.181037,0.398891,-0.197067,-1.200411,0.691426,0.029196,0.072827,0.000000,-0.016590,-0.148695,-0.000000
4.650000,3.239561,-0.271764,-1.487423,0.218660,-0.004685,0.022513,-0.713028,0.290415,-0.167898,1.518787,-0.192557,0.405532,-0.425243,-1.103755,0.635193,0.029024,0.071339,0.000000,-0.017746,-0.148490,-0.000000
4.660000,3.241712,-0.271797,-1.487206,0.211606,-0.001790,0.020854,-0.697861,0.288434,-0.163811,1.513394,-0.203112,0.411595,-0.655655,-1.009242,0.574991,0.028841,0.069856,0.000000,-0.018810,-0.148063,0.000000
4.670000,3.243793,-0.271800,-1.487006,0.204703,0.001084,0.019237,-0.682760,0.286353,-0.159666,1.505674,-0.212742,0.417031,-0.889309,-0.921776,0.510332,0.028647,0.068377,0.000000,-0.019785,-0.147409,-0.000000
4.680000,3.245806,-0.271775,-1.486822,0.197951,0.003937,0.017661,-0.667748,0.284179,-0.155471,1.495608,-0.221548,0.421802,-1.123633,-0.841208,0.442324,0.028445,0.066906,0.000000,-0.020681,-0.146525,-0.000000
4.690000,3.247752,-0.271721,-1.486653,0.191348,0.006768,0.016127,-0.652848,0.281922,-0.151230,1.483201,-0.229566,0.425878,-1.357315,-0.760979,0.371653,0.028234,0.065445,0.000000,-0.021503,-0.145413,0.000000
4.700000,3.249633,-0.271640,-1.486499,0.184894,0.009575,0.014636,-0.638084,0.279588,-0.146953,1.468461,-0.236767,0.429235,-1.591948,-0.680615,0.298349,0.028015,0.063997,0.000000,-0.022246,-0.144070,0.000000
4.710000,3.251450,-0.271530,-1.486360,0.178586,0.012359,0.013188,-0.623479,0.277186,-0.142646,1.451362,-0.243179,0.431845,-1.827812,-0.604564,0.222206,0.027789,0.062563,0.000000,-0.022914,-0.142494,0.000000
4.720000,3.253204,-0.271392,-1.486235,0.172424,0.015119,0.011783,-0.609056,0.274724,-0.138316,1.431905,-0.248859,0.433679,-2.059961,-0.532926,0.143329,0.027557,0.061146,0.000000,-0.023511,-0.140685,0.000000
4.730000,3.254898,-0.271227,-1.486124,0.166405,0.017854,0.010422,-0.594840,0.272209,-0.133972,1.410163,-0.253837,0.434711,-2.287661,-0.464226,0.062144,0.027319,0.059748,0.000000,-0.024042,-0.138648,0.000000
4.740000,3.256533,-0.271035,-1.486027,0.160527,0.020563,0.009104,-0.580853,0.269648,-0.129622,1.386152,-0.258143,0.434922,-2.517283,-0.398702,-0.021262,0.027076,0.058372,0.000000,-0.024508,-0.136384,-0.000000
4.750000,3.258109,-0.270816,-1.485942,0.154788,0.023247,0.007830,-0.567117,0.267046,-0.125274,1.359817,-0.261811,0.434286,-2.750459,-0.335959,-0.108193,0.026828,0.057019,0.000000,-0.024913,-0.133888,0.000000
4.760000,3.259628,-0.270570,-1.485870,0.149185,0.025904,0.006599,-0.553657,0.264412,-0.120936,1.331143,-0.264862,0.432758,-2.982448,-0.275811,-0.198383,0.026577,0.055693,0.000000,-0.025258,-0.131156,0.000000
4.770000,3.261093,-0.270298,-1.485810,0.143715,0.028535,0.005411,-0.540495,0.261749,-0.116618,1.300168,-0.267327,0.430319,-3.209328,-0.220040,-0.287621,0.026323,0.054395,0.000000,-0.025548,-0.128193,-0.000000
4.780000,3.262503,-0.270000,-1.485762,0.138375,0.031139,0.004266,-0.527653,0.259065,-0.112330,1.266956,-0.269263,0.427006,-3.432740,-0.168930,-0.375621,0.026067,0.053128,0.000000,-0.025786,-0.125003,-0.000000
4.790000,3.263860,-0.269675,-1.485725,0.133162,0.033716,0.003164,-0.515155,0.256364,-0.108078,1.231513,-0.270706,0.422806,-3.657234,-0.119924,-0.467955,0.025808,0.051894,0.000000,-0.025977,-0.121586,-0.000000
4.800000,3.265166,-0.269325,-1.485699,0.128072,0.036266,0.002105,-0.503023,0.253651,-0.103874,1.193811,-0.271662,0.417647,-3.880423,-0.071453,-0.565633,0.025547,0.050696,0.000000,-0.026120,-0.117939,0.000000
4.810000,3.266421,-0.268950,-1.485683,0.123102,0.038789,0.001087,-0.491279,0.250931,-0.099725,1.153905,-0.272135,0.411493,-4.099224,-0.025295,-0.664683,0.025285,0.049535,0.000000,-0.026218,-0.114066,-0.000000
4.820000,3.267628,-0.268550,-1.485677,0.118247,0.041285,0.000110,-0.479945,0.248208,-0.095644,1.111827,-0.272168,0.404353,-4.320344,0.014759,-0.763138,0.025023,0.048414,0.000000,-0.026272,-0.109971,-0.000000
4.830000,3.268786,-0.268124,-1.485681,0.113503,0.043754,-0.000826,-0.469043,0.245487,-0.091638,1.067498,-0.271840,0.396231,-4.544898,0.049265,-0.862248,0.024760,0.047335,0.000000,-0.026292,-0.105645,0.000000
4.840000,3.269898,-0.267675,-1.485694,0.108866,0.046195,-0.001723,-0.458595,0.242771,-0.087719,1.020929,-0.271182,0.387108,-4.763063,0.083407,-0.964246,0.024497,0.046300,0.000000,-0.026280,-0.101088,-0.000000
4.850000,3.270964,-0.267200,-1.485715,0.104331,0.048609,-0.002581,-0.448624,0.240064,-0.083896,0.972237,-0.270172,0.376946,-4.973600,0.117671,-1.069117,0.024234,0.045312,0.000000,-0.026234,-0.096312,-0.000000
4.860000,3.271985,-0.266702,-1.485745,0.099893,0.050996,-0.003401,-0.439150,0.237368,-0.080180,0.921457,-0.268829,0.365726,-5.182848,0.148706,-1.175332,0.023972,0.044374,0.000000,-0.026156,-0.091321,0.000000
4.870000,3.272962,-0.266181,-1.485783,0.095548,0.053356,-0.004184,-0.430195,0.234687,-0.076582,0.868580,-0.267198,0.353439,-5.391125,0.176324,-1.282733,0.023711,0.043486,0.000000,-0.026049,-0.086112,0.000000
4.880000,3.273896,-0.265635,-1.485829,0.091289,0.055690,-0.004932,-0.421779,0.232024,-0.073111,0.813634,-0.265302,0.340071,-5.595947,0.201820,-1.391787,0.023451,0.042651,0.000000,-0.025917,-0.080688,-0.000000
4.890000,3.274787,-0.265067,-1.485882,0.087112,0.057997,-0.005646,-0.413922,0.229381,-0.069780,0.756661,-0.263161,0.325603,-5.796926,0.225374,-1.502511,0.023193,0.041871,0.000000,-0.025762,-0.075054,-0.000000
4.900000,3.275638,-0.264475,-1.485942,0.083011,0.060277,-0.006328,-0.406646,0.226761,-0.066599,0.697696,-0.260795,0.310021,-5.994129,0.246927,-1.614828,0.022936,0.041149,0.000000,-0.025584,-0.069213,0.000000
4.910000,3.276448,-0.263861,-1.486008,0.078979,0.062532,-0.006978,-0.399968,0.224165,-0.063580,0.636778,-0.258223,0.293307,-6.187349,0.266575,-1.728681,0.022681,0.040487,0.000000,-0.025386,-0.063170,0.000000
4.920000,3.277217,-0.263225,-1.486081,0.075011,0.064761,-0.007599,-0.393910,0.221596,-0.060733,0.573949,-0.255463,0.275447,-6.376355,0.284425,-1.844030,0.022428,0.039886,0.000000,-0.025171,-0.056928,0.000000
4.930000,3.277948,-0.262566,-1.486160,0.071101,0.066964,-0.008193,-0.388489,0.219056,-0.058071,0.509251,-0.252534,0.256426,-6.560921,0.300581,-1.960857,0.022178,0.039348,0.000000,-0.024938,-0.050492,-0.000000
4.940000,3.278639,-0.261885,-1.486245,0.067242,0.069142,-0.008761,-0.383725,0.216546,-0.055605,0.442731,-0.249452,0.236230,-6.740803,0.315148,-2.079136,0.021929,0.038876,0.000000,-0.024691,-0.043868,-0.000000
4.950000,3.279293,-0.261183,-1.486336,0.063427,0.071295,-0.009305,-0.379635,0.214067,-0.053346,0.374435,-0.246231,0.214844,-6.915754,0.328226,-2.198845,0.021684,0.038470,0.000000,-0.024431,-0.037060,-0.000000
4.960000,3.279908,-0.260459,-1.486431,0.059649,0.073423,-0.009828,-0.376236,0.211621,-0.051308,0.304415,-0.242887,0.192253,-7.085556,0.339924,-2.319947,0.021441,0.038134,0.000000,-0.024159,-0.030075,-0.000000
4.970000,3.280486,-0.259715,-1.486532,0.055902,0.075527,-0.010331,-0.373546,0.209209,-0.049501,0.232724,-0.239433,0.168445,223.811292,-126.010965,26.011395,0.021201,0.037869,0.000000,-0.023876,-0.022919,-0.000000
4.980000,3.281026,-0.258949,-1.486638,0.052178,0.077607,-0.010818,-0.371582,0.206832,-0.047939,4.780641,-2.763107,0.712481,454.607004,-249.506257,53.217703,0.020963,0.037676,0.000000,-0.278075,-0.481439,0.000000
4.990000,3.281529,-0.258162,-1.486749,0.048470,0.079664,-0.011290,-0.277934,0.153947,-0.035252,9.324864,-5.229558,1.232799,225.213567,-120.373797,24.219438,0.015629,0.028223,0.000000,-0.528462,-0.942742,-0.000000
5.000000,3.281995,-0.257356,-1.486864,0.046619,0.080686,-0.011523,-0.185085,0.102241,-0.023283,9.284913,-5.170582,1.196870,-3.995145,5.897549,-3.592897,0.010395,0.018820,0.000000,-0.524225,-0.941558,-0.000000
