time,x,y,z,vx,vy,vz,ax,ay,az,jx,jy,jz,sx,sy,sz,roll,pitch,yaw,p,q,r
0.000000,-3.012648,0.730784,-1.381160,-0.018402,-0.005300,0.002723,0.933444,-0.273111,0.196943,-13.528976,4.490711,-6.288622,231.103396,-66.588758,139.948595,-0.028270,-0.096798,0.000000,0.479074,1.456554,0.000000
0.010000,-3.012788,0.730718,-1.381124,-0.009707,-0.007818,0.004400,0.809305,-0.231416,0.140668,-11.338639,3.859740,-5.003816,207.254073,-59.694778,117.421479,-0.023845,-0.083504,0.000000,0.407482,1.207150,-0.000000
0.020000,-3.012846,0.730628,-1.381074,-0.002147,-0.009949,0.005575,0.705905,-0.195695,0.096156,-9.378203,3.295065,-3.932225,185.112316,-53.325949,97.284582,-0.020090,-0.072543,0.000000,0.344871,0.989438,-0.000000
0.030000,-3.012834,0.730520,-1.381014,0.004473,-0.011749,0.006356,0.621031,-0.165311,0.061391,-7.630921,2.791544,-3.050578,164.612118,-47.460311,79.411439,-0.016921,-0.063619,0.000000,0.290124,0.799346,0.000000
0.040000,-3.012759,0.730394,-1.380948,0.010328,-0.013271,0.006830,0.552630,-0.139677,0.034585,-6.080708,2.344255,-2.336872,145.687487,-42.075906,63.675509,-0.014265,-0.056473,0.000000,0.242279,0.633466,-0.000000
0.050000,-3.012629,0.730255,-1.380878,0.015574,-0.014557,0.007069,0.498811,-0.118254,0.014163,-4.712136,1.948495,-1.770361,128.272731,-37.150787,49.950915,-0.012056,-0.050877,0.000000,0.200503,0.488934,0.000000
0.060000,-3.012449,0.730104,-1.380807,0.020347,-0.015648,0.007129,0.457831,-0.100550,-0.001248,-3.510440,1.599781,-1.331571,112.301474,-32.662981,38.110593,-0.010237,-0.046630,0.000000,0.164077,0.363320,0.000000
0.070000,-3.012223,0.729943,-1.380736,0.024768,-0.016579,0.007056,0.428093,-0.086116,-0.012833,-2.461514,1.293850,-1.002289,97.707868,-28.590537,28.028333,-0.008758,-0.043554,0.000000,0.132380,0.254545,-0.000000
0.080000,-3.011955,0.729773,-1.380667,0.028942,-0.017380,0.006882,0.408137,-0.074544,-0.021602,-1.551911,1.026659,-0.765565,84.425876,-24.911503,19.577680,-0.007575,-0.041489,0.000000,0.104868,0.160800,0.000000
0.090000,-3.011645,0.729595,-1.380599,0.032959,-0.018078,0.006631,0.396633,-0.065467,-0.028401,-0.768845,0.794382,-0.605718,72.389379,-21.603924,12.632150,-0.006649,-0.040293,0.000000,0.081062,0.080497,-0.000000
0.100000,-3.011296,0.729411,-1.380534,0.036899,-0.018696,0.006318,0.392378,-0.058552,-0.033925,-0.100182,0.593416,-0.508323,61.533333,-18.645775,7.065649,-0.005943,-0.039839,0.000000,0.060537,0.012216,0.000000
0.110000,-3.010907,0.729222,-1.380473,0.040827,-0.019255,0.005955,0.394286,-0.053505,-0.038732,0.465537,0.420375,-0.460229,51.790611,-16.015188,2.751342,-0.005428,-0.040013,0.000000,0.042911,-0.045325,0.000000
0.120000,-3.010479,0.729027,-1.380415,0.044802,-0.019772,0.005545,0.401382,-0.050062,-0.043254,0.939123,0.272094,-0.449544,43.095655,-13.690170,-0.437053,-0.005077,-0.040713,0.000000,0.027842,-0.093296,0.000000
0.130000,-3.010011,0.728826,-1.380362,0.048869,-0.020261,0.005089,0.412796,-0.047991,-0.047812,1.330723,0.145626,-0.465639,35.382477,-11.648761,-2.625959,-0.004864,-0.041851,0.000000,0.015016,-0.132779,-0.000000
0.140000,-3.009501,0.728621,-1.380314,0.053069,-0.020736,0.004588,0.427755,-0.047086,-0.052625,1.649825,0.038247,-0.499153,28.585012,-9.868999,-3.941809,-0.004770,-0.043344,0.000000,0.004150,-0.164774,0.000000
0.150000,-3.008949,0.728412,-1.380270,0.057434,-0.021206,0.004036,0.445580,-0.047170,-0.057825,1.905255,-0.052552,-0.541986,22.637012,-8.328923,-4.511066,-0.004775,-0.045124,0.000000,-0.005017,-0.190207,0.000000
0.160000,-3.008352,0.728197,-1.380233,0.061989,-0.021682,0.003430,0.465675,-0.048089,-0.063472,2.105189,-0.129058,-0.587308,17.473818,-7.006632,-4.460173,-0.004865,-0.047129,0.000000,-0.012719,-0.209942,0.000000
0.170000,-3.007708,0.727978,-1.380202,0.066753,-0.022170,0.002765,0.487524,-0.049711,-0.069561,2.257127,-0.193338,-0.629545,13.027949,-5.880089,-3.915479,-0.005026,-0.049307,0.000000,-0.019169,-0.224770,-0.000000
0.180000,-3.007016,0.727754,-1.380178,0.071743,-0.022678,0.002037,0.510681,-0.051922,-0.076039,2.367921,-0.247240,-0.664393,9.233917,-4.927364,-3.003433,-0.005245,-0.051611,0.000000,-0.024559,-0.235419,-0.000000
0.190000,-3.006273,0.727524,-1.380161,0.076970,-0.023210,0.001243,0.534766,-0.054626,-0.082814,2.443758,-0.292391,-0.688810,6.025630,-4.126487,-1.850431,-0.005514,-0.054003,0.000000,-0.029056,-0.242547,-0.000000
0.200000,-3.005476,0.727289,-1.380153,0.082441,-0.023772,0.000380,0.559458,-0.057745,-0.089774,2.490171,-0.330203,-0.701023,3.337688,-3.455550,-0.583237,-0.005824,-0.056452,0.000000,-0.032807,-0.246744,-0.000000
0.210000,-3.004623,0.727049,-1.380154,0.088160,-0.024366,-0.000554,0.584396,-0.061164,-0.097370,2.491129,-0.351247,-0.832722,0.690362,-2.682694,-1.941225,-0.006163,-0.058918,0.000000,-0.034783,-0.245625,-0.000000
0.220000,-3.003712,0.726802,-1.380165,0.094129,-0.024996,-0.001567,0.609505,-0.064901,-0.104539,2.539964,-0.401767,-0.520821,5.487364,-5.580526,41.205262,-0.006534,-0.061399,0.000000,-0.040001,-0.251999,-0.000000
0.230000,-3.002740,0.726549,-1.380186,0.100352,-0.025666,-0.002634,0.634957,-0.069092,-0.108908,2.525370,-0.424167,-0.493993,-8.464972,1.146018,-36.570203,-0.006951,-0.063928,0.000000,-0.042216,-0.250381,-0.000000
0.240000,-3.001704,0.726289,-1.380217,0.106826,-0.026378,-0.003754,0.659766,-0.073270,-0.115660,2.445598,-0.416620,-0.784861,-3.753686,-1.520723,1.720142,-0.007366,-0.066373,0.000000,-0.041179,-0.240068,0.000000
0.250000,-3.000602,0.726021,-1.380261,0.113545,-0.027132,-0.004948,0.684113,-0.077556,-0.122805,2.419857,-0.438865,-0.657854,-5.029234,-1.069795,0.417578,-0.007789,-0.068766,0.000000,-0.043433,-0.237925,-0.000000
0.260000,-2.999432,0.725746,-1.380317,0.120506,-0.027929,-0.006209,0.707941,-0.081966,-0.129363,2.341375,-0.441808,-0.653568,-6.320404,-0.661777,0.564602,-0.008226,-0.071106,0.000000,-0.043660,-0.229709,0.000000
0.270000,-2.998192,0.725462,-1.380385,0.127702,-0.028771,-0.007535,0.731252,-0.086471,-0.135861,2.333775,-0.462686,-0.645437,0.647657,-2.418752,0.936060,-0.008671,-0.073391,0.000000,-0.045683,-0.228632,0.000000
0.280000,-2.996878,0.725170,-1.380468,0.135131,-0.029659,-0.008926,0.754389,-0.091157,-0.142273,2.267060,-0.467172,-0.637478,-14.094889,1.550611,0.649725,-0.009133,-0.075656,0.000000,-0.046065,-0.221655,-0.000000
0.290000,-2.995488,0.724869,-1.380564,0.142786,-0.030594,-0.010380,0.776349,-0.095748,-0.148613,2.137004,-0.454059,-0.629989,-7.670074,-0.044580,0.970478,-0.009585,-0.077800,0.000000,-0.044690,-0.208381,0.000000
0.300000,-2.994021,0.724558,-1.380675,0.150655,-0.031574,-0.011898,0.797440,-0.100316,-0.154860,2.078211,-0.458700,-0.619165,-8.279656,0.221375,1.068297,-0.010035,-0.079855,0.000000,-0.045095,-0.202276,-0.000000
0.310000,-2.992474,0.724237,-1.380802,0.158732,-0.032600,-0.013477,0.817751,-0.104875,-0.160997,1.981882,-0.452294,-0.608154,-8.756250,0.462405,1.158781,-0.010482,-0.081830,0.000000,-0.044399,-0.192457,-0.000000
0.320000,-2.990846,0.723906,-1.380945,0.167008,-0.033672,-0.015117,0.837244,-0.109403,-0.167018,1.923776,-0.454979,-0.595797,-4.998745,-0.425011,1.286151,-0.010927,-0.083721,0.000000,-0.044614,-0.186485,0.000000
0.330000,-2.989134,0.723564,-1.381105,0.175475,-0.034788,-0.016817,0.856115,-0.113940,-0.172912,1.837070,-0.448725,-0.582984,-12.396926,1.691976,1.273981,-0.011371,-0.085549,0.000000,-0.043942,-0.177695,-0.000000
0.340000,-2.987336,0.723210,-1.381282,0.184126,-0.035950,-0.018575,0.873865,-0.118341,-0.178677,1.719533,-0.432849,-0.569853,-8.930953,0.899125,1.375441,-0.011802,-0.087263,0.000000,-0.042319,-0.165876,0.000000
0.350000,-2.985450,0.722845,-1.381476,0.192949,-0.037155,-0.020390,0.890671,-0.122637,-0.184305,1.640240,-0.425824,-0.555715,-9.081953,1.085359,1.425457,-0.012222,-0.088883,0.000000,-0.041581,-0.157896,0.000000
0.360000,-2.983476,0.722467,-1.381690,0.201936,-0.038402,-0.022261,0.906593,-0.126831,-0.189790,1.543385,-0.412572,-0.541308,-9.168028,1.261582,1.466499,-0.012631,-0.090414,0.000000,-0.040230,-0.148204,0.000000
0.370000,-2.981411,0.722076,-1.381922,0.211078,-0.039691,-0.024185,0.921627,-0.130907,-0.195129,1.467266,-0.403392,-0.526302,-7.128943,0.867173,1.521565,-0.013028,-0.091856,0.000000,-0.039288,-0.140601,0.000000
0.380000,-2.979254,0.721673,-1.382174,0.220366,-0.041020,-0.026163,0.935887,-0.134880,-0.200316,1.378253,-0.389079,-0.511148,-10.701592,2.004003,1.507650,-0.013415,-0.093221,0.000000,-0.037842,-0.131746,-0.000000
0.390000,-2.977003,0.721256,-1.382445,0.229792,-0.042388,-0.028191,0.949137,-0.138668,-0.205352,1.275190,-0.369258,-0.495937,-8.815812,1.663550,1.545106,-0.013783,-0.094486,0.000000,-0.035857,-0.121528,-0.000000
0.400000,-2.974658,0.720825,-1.382738,0.239346,-0.043793,-0.030269,0.961479,-0.142283,-0.210233,1.192767,-0.353298,-0.480370,-8.751872,1.823614,1.555681,-0.014134,-0.095661,0.000000,-0.034259,-0.113380,0.000000
0.410000,-2.972216,0.720380,-1.383051,0.249019,-0.045233,-0.032395,0.972958,-0.145719,-0.214959,1.102925,-0.333514,-0.464783,-8.657594,1.980623,1.560875,-0.014467,-0.096751,0.000000,-0.032289,-0.104523,0.000000
0.420000,-2.969677,0.719920,-1.383386,0.258803,-0.046707,-0.034568,0.983586,-0.148960,-0.219529,1.024788,-0.315090,-0.449170,-7.505726,1.851985,1.560789,-0.014780,-0.097756,0.000000,-0.030457,-0.096843,-0.000000
0.430000,-2.967040,0.719446,-1.383742,0.268688,-0.048212,-0.036785,0.993432,-0.152009,-0.223943,0.941552,-0.293371,-0.433588,-9.155914,2.496533,1.554814,-0.015075,-0.098686,0.000000,-0.028305,-0.088679,0.000000
0.440000,-2.964303,0.718956,-1.384121,0.278668,-0.049746,-0.039046,1.002393,-0.154815,-0.228201,0.852616,-0.268152,-0.418085,-8.085145,2.397953,1.545237,-0.015345,-0.099528,0.000000,-0.025813,-0.079971,0.000000
0.450000,-2.961466,0.718451,-1.384523,0.288733,-0.051307,-0.041349,1.010533,-0.157378,-0.232305,0.775259,-0.244141,-0.402699,-7.926117,2.552861,1.531381,-0.015592,-0.100290,0.000000,-0.023444,-0.072422,-0.000000
0.460000,-2.958528,0.717930,-1.384949,0.298876,-0.052893,-0.043692,1.017886,-0.159688,-0.236255,0.695453,-0.217470,-0.387418,-7.753962,2.706659,1.515287,-0.015813,-0.100975,0.000000,-0.020818,-0.064646,-0.000000
0.470000,-2.955488,0.717393,-1.385397,0.309089,-0.054500,-0.046073,1.024470,-0.161729,-0.240054,0.622778,-0.190694,-0.372486,-7.051185,2.721011,1.479465,-0.016008,-0.101586,0.000000,-0.018185,-0.057584,-0.000000
0.480000,-2.952346,0.716840,-1.385870,0.319363,-0.056126,-0.048492,1.030335,-0.163493,-0.243705,0.548752,-0.161528,-0.357651,-7.761450,3.114438,1.487426,-0.016176,-0.102127,0.000000,-0.015320,-0.050400,0.000000
0.490000,-2.949101,0.716270,-1.386367,0.329693,-0.057769,-0.050947,1.035438,-0.164950,-0.247208,0.473057,-0.129871,-0.342921,-7.102912,3.143764,1.449499,-0.016314,-0.102593,0.000000,-0.012213,-0.043064,0.000000
0.500000,-2.945752,0.715684,-1.386889,0.340070,-0.059424,-0.053436,1.039824,-0.166091,-0.250565,0.404373,-0.098032,-0.328591,-6.905439,3.296952,1.425297,-0.016420,-0.102991,0.000000,-0.009092,-0.036424,-0.000000
0.510000,-2.942299,0.715082,-1.387436,0.350487,-0.061090,-0.055958,1.043523,-0.166903,-0.253780,0.335722,-0.064107,-0.314384,-6.700621,3.449300,1.401527,-0.016495,-0.103322,0.000000,-0.005768,-0.029796,-0.000000
0.520000,-2.938742,0.714462,-1.388008,0.360938,-0.062761,-0.058511,1.046555,-0.167371,-0.256855,0.271506,-0.029403,-0.300695,-6.262126,3.528776,1.350315,-0.016535,-0.103588,0.000000,-0.002370,-0.023607,0.000000
0.530000,-2.935080,0.713826,-1.388606,0.371416,-0.064436,-0.061094,1.048955,-0.167485,-0.259794,0.207969,0.007251,-0.287080,-6.448869,3.803027,1.373241,-0.016541,-0.103794,0.000000,0.001218,-0.017491,0.000000
0.540000,-2.931314,0.713174,-1.389230,0.381915,-0.066110,-0.063707,1.050716,-0.167219,-0.262596,0.144960,0.045895,-0.273514,-6.031623,3.887788,1.325886,-0.016510,-0.103938,0.000000,0.004999,-0.011433,-0.000000
0.550000,-2.927442,0.712504,-1.389881,0.392428,-0.067779,-0.066346,1.051870,-0.166565,-0.265266,0.086311,0.085322,-0.260439,-5.818638,4.034902,1.303753,-0.016441,-0.104024,0.000000,0.008855,-0.005804,-0.000000
0.560000,-2.923465,0.711818,-1.390557,0.402950,-0.069440,-0.069011,1.052445,-0.165507,-0.267805,0.029002,0.126432,-0.247409,-5.601876,4.178400,1.284326,-0.016333,-0.104055,0.000000,0.012876,-0.000311,0.000000
0.570000,-2.919383,0.711115,-1.391261,0.413475,-0.071088,-0.071702,1.052461,-0.164032,-0.270216,-0.025346,0.168806,-0.234913,-5.307786,4.304076,1.232839,-0.016183,-0.104032,0.000000,0.017020,0.004894,0.000000
0.580000,-2.915196,0.710396,-1.391992,0.423998,-0.072719,-0.074415,1.051944,-0.162126,-0.272503,-0.077993,0.212670,-0.222375,-5.222795,4.468469,1.275855,-0.015992,-0.103957,0.000000,0.021310,0.009927,0.000000
0.590000,-2.910903,0.709661,-1.392749,0.434512,-0.074329,-0.077151,1.050906,-0.159774,-0.274663,-0.128995,0.258004,-0.209744,-4.937379,4.589637,1.232838,-0.015757,-0.103834,0.000000,0.025743,0.014796,0.000000
0.600000,-2.906506,0.708910,-1.393535,0.445014,-0.075913,-0.079908,1.049374,-0.156962,-0.276700,-0.177086,0.304519,-0.197557,-4.721239,4.720752,1.222804,-0.015477,-0.103663,0.000000,0.030293,0.019382,0.000000
0.610000,-2.902003,0.708143,-1.394348,0.455498,-0.077466,-0.082685,1.047370,-0.153679,-0.278614,-0.223444,0.352342,-0.185258,-4.507474,4.846971,1.217733,-0.015150,-0.103446,0.000000,0.034971,0.023795,-0.000000
0.620000,-2.897396,0.707361,-1.395188,0.465960,-0.078985,-0.085480,1.044916,-0.149911,-0.280407,-0.266833,0.401482,-0.173359,-4.212985,4.976433,1.180841,-0.014777,-0.103188,0.000000,0.039779,0.027921,0.000000
0.630000,-2.892684,0.706563,-1.396057,0.476395,-0.080463,-0.088293,1.042038,-0.145645,-0.282080,-0.308602,0.451770,-0.161248,-4.142407,5.080222,1.242684,-0.014354,-0.102888,0.000000,0.044701,0.031885,-0.000000
0.640000,-2.887868,0.705752,-1.396954,0.486800,-0.081896,-0.091121,1.038749,-0.140872,-0.283630,-0.348823,0.503151,-0.148860,-3.858991,5.199011,1.217294,-0.013882,-0.102550,0.000000,0.049731,0.035695,0.000000
0.650000,-2.882948,0.704926,-1.397880,0.497169,-0.083279,-0.093965,1.035072,-0.135578,-0.285058,-0.386146,0.555697,-0.136725,-3.649256,5.305362,1.227832,-0.013359,-0.102176,0.000000,0.054877,0.039224,-0.000000
0.660000,-2.877925,0.704086,-1.398834,0.507500,-0.084606,-0.096822,1.031032,-0.129754,-0.286364,-0.421672,0.609266,-0.124295,-3.439983,5.406299,1.243242,-0.012784,-0.101766,0.000000,0.060125,0.042574,-0.000000
0.670000,-2.872798,0.703234,-1.399816,0.517788,-0.085872,-0.099692,1.026647,-0.123390,-0.287545,-0.454800,0.663792,-0.111990,-3.201508,5.498998,1.233824,-0.012157,-0.101325,0.000000,0.065469,0.045693,-0.000000
0.680000,-2.867569,0.702369,-1.400828,0.528032,-0.087072,-0.102572,1.021942,-0.116476,-0.288602,-0.486037,0.719246,-0.099280,-3.046693,5.590626,1.309656,-0.011475,-0.100853,0.000000,0.070907,0.048623,-0.000000
0.690000,-2.862238,0.701493,-1.401868,0.538226,-0.088200,-0.105463,1.016932,-0.109002,-0.289529,-0.515419,0.775560,-0.086091,-2.813978,5.670058,1.313408,-0.010738,-0.100353,0.000000,0.076433,0.051368,-0.000000
0.700000,-2.856805,0.700605,-1.402937,0.548369,-0.089250,-0.108363,1.011642,-0.100962,-0.290324,-0.542448,0.832630,-0.072860,-2.608734,5.743873,1.348911,-0.009946,-0.099826,0.000000,0.082036,0.053885,0.000000
0.710000,-2.851270,0.699708,-1.404035,0.558458,-0.090217,-0.111269,1.006090,-0.092347,-0.290984,-0.567448,0.890350,-0.059087,-2.402647,5.808872,1.390509,-0.009097,-0.099276,0.000000,0.087706,0.056200,0.000000
0.720000,-2.845636,0.698801,-1.405162,0.568490,-0.091095,-0.114182,1.000298,-0.083152,-0.291506,-0.590609,0.948875,-0.045178,-2.218787,5.884967,1.407823,-0.008191,-0.098703,0.000000,0.093460,0.058336,-0.000000
0.730000,-2.839901,0.697886,-1.406319,0.578463,-0.091878,-0.117099,0.994285,-0.073369,-0.291885,-0.611597,1.007813,-0.030587,-1.978673,5.900904,1.511695,-0.007228,-0.098110,0.000000,0.099259,0.060256,-0.000000
0.740000,-2.834067,0.696964,-1.407504,0.588375,-0.092560,-0.120019,0.988074,-0.062995,-0.292115,-0.630408,1.067065,-0.015238,-1.794813,5.958001,1.543573,-0.006206,-0.097499,0.000000,0.105094,0.061957,-0.000000
0.750000,-2.828134,0.696035,-1.408719,0.598224,-0.093136,-0.122941,0.981683,-0.052025,-0.292189,-0.647402,1.126858,0.000436,-1.593344,5.989144,1.607671,-0.005126,-0.096871,0.000000,0.110988,0.063481,0.000000
0.760000,-2.822102,0.695102,-1.409963,0.608009,-0.093599,-0.125862,0.975133,-0.040457,-0.292103,-0.662320,1.186794,0.016941,-1.393500,6.010197,1.678427,-0.003986,-0.096230,0.000000,0.116903,0.064796,0.000000
0.770000,-2.815974,0.694164,-1.411236,0.617726,-0.093943,-0.128782,0.968443,-0.028288,-0.291849,-0.675305,1.247156,0.033876,-1.200646,6.047288,1.725120,-0.002787,-0.095576,0.000000,0.122867,0.065922,-0.000000
0.780000,-2.809748,0.693223,-1.412539,0.627377,-0.094163,-0.131699,0.961634,-0.015515,-0.291422,-0.686275,1.307429,0.051790,-0.993629,6.005322,1.858964,-0.001529,-0.094912,0.000000,0.128830,0.066845,0.000000
0.790000,-2.803426,0.692281,-1.413870,0.636959,-0.094251,-0.134610,0.954724,-0.002140,-0.290810,-0.695242,1.367497,0.070761,-0.802817,6.019992,1.920640,-0.000211,-0.094240,0.000000,0.134781,0.067565,-0.000000
0.800000,-2.797009,0.691339,-1.415231,0.646471,-0.094203,-0.137514,0.947735,0.011836,-0.290005,-0.702314,1.427679,0.090355,-0.608601,6.001596,2.014754,0.001167,-0.093561,0.000000,0.140754,0.068097,0.000000
0.810000,-2.790497,0.690397,-1.416620,0.655913,-0.094013,-0.140409,0.940685,0.026412,-0.288999,-0.707344,1.487498,0.111081,-0.414147,5.972373,2.115513,0.002604,-0.092878,0.000000,0.146701,0.068423,0.000000
0.820000,-2.783891,0.689459,-1.418039,0.665285,-0.093673,-0.143294,0.933593,0.041586,-0.287781,-0.710754,1.547200,0.132537,-0.252051,5.954705,2.192196,0.004101,-0.092193,0.000000,0.152648,0.068587,-0.000000
0.830000,-2.777192,0.688524,-1.419486,0.674585,-0.093179,-0.146164,0.926477,0.057354,-0.286344,-0.712056,1.606315,0.155270,-0.008328,5.865951,2.355709,0.005657,-0.091507,0.000000,0.158550,0.068537,-0.000000
0.840000,-2.770400,0.687596,-1.420962,0.683814,-0.092524,-0.149020,0.919359,0.073710,-0.284671,-0.711249,1.664716,0.179357,0.153293,5.824081,2.447040,0.007272,-0.090823,0.000000,0.164396,0.068272,-0.000000
0.850000,-2.763516,0.686675,-1.422467,0.692972,-0.091703,-0.151857,0.912257,0.090647,-0.282754,-0.708861,1.722660,0.204362,0.339942,5.751341,2.570586,0.008945,-0.090142,0.000000,0.170212,0.067847,0.000000
0.860000,-2.756540,0.685762,-1.423999,0.702060,-0.090709,-0.154674,0.905188,0.108160,-0.280579,-0.704684,1.779731,0.230797,0.521137,5.667188,2.699966,0.010676,-0.089467,0.000000,0.175959,0.067239,-0.000000
0.870000,-2.749475,0.684861,-1.425560,0.711076,-0.089538,-0.157468,0.898172,0.126239,-0.278135,-0.698196,1.836022,0.258206,0.749985,5.583163,2.800543,0.012464,-0.088798,0.000000,0.181646,0.066399,-0.000000
0.880000,-2.742319,0.683972,-1.427149,0.720023,-0.088183,-0.160236,0.891229,0.144877,-0.275410,-0.690239,1.891229,0.287201,0.840193,5.456097,2.999876,0.014308,-0.088139,0.000000,0.187245,0.065405,-0.000000
0.890000,-2.735074,0.683098,-1.428765,0.728901,-0.086638,-0.162975,0.884371,0.164060,-0.272385,-0.680871,1.945226,0.317858,1.059483,5.347334,3.114345,0.016208,-0.087491,0.000000,0.192747,0.064263,0.000000
0.900000,-2.727741,0.682240,-1.430408,0.737711,-0.084900,-0.165682,0.877619,0.183777,-0.269049,-0.669289,1.998086,0.349651,1.231226,5.216498,3.263712,0.018163,-0.086855,0.000000,0.198159,0.062896,0.000000
0.910000,-2.720320,0.681401,-1.432078,0.746454,-0.082961,-0.168355,0.870990,0.204017,-0.265386,-0.656167,2.049499,0.383172,1.401823,5.072924,3.419162,0.020171,-0.086233,0.000000,0.203452,0.061367,-0.000000
0.920000,-2.712812,0.680582,-1.433775,0.755131,-0.080818,-0.170989,0.864502,0.224763,-0.261382,-0.641176,2.099585,0.417845,1.587172,4.933642,3.537572,0.022232,-0.085628,0.000000,0.208640,0.059648,0.000000
0.930000,-2.705218,0.679785,-1.435498,0.763744,-0.078464,-0.173581,0.858172,0.246002,-0.257023,-0.624615,2.147952,0.454386,1.724515,4.737373,3.771927,0.024343,-0.085040,0.000000,0.213686,0.057761,-0.000000
0.940000,-2.697538,0.679013,-1.437246,0.772295,-0.075896,-0.176128,0.852015,0.267716,-0.252288,-0.606515,2.194464,0.492862,1.903789,4.571684,3.902148,0.026505,-0.084473,0.000000,0.218580,0.055710,0.000000
0.950000,-2.689772,0.678268,-1.439020,0.780785,-0.073108,-0.178626,0.846048,0.289886,-0.247162,-0.586618,2.239269,0.532631,2.066293,4.378786,4.072971,0.028715,-0.083926,0.000000,0.223337,0.053473,0.000000
0.960000,-2.681922,0.677552,-1.440819,0.789217,-0.070097,-0.181070,0.840288,0.312494,-0.241628,-0.565040,2.281971,0.574368,2.229431,4.172500,4.248079,0.030971,-0.083403,0.000000,0.227920,0.051055,0.000000
0.970000,-2.673988,0.676867,-1.442641,0.797592,-0.066857,-0.183457,0.834751,0.335520,-0.235671,-0.542216,2.322796,0.617354,2.353923,3.977770,4.375550,0.033272,-0.082905,0.000000,0.232352,0.048507,0.000000
0.980000,-2.665971,0.676215,-1.444488,0.805913,-0.063385,-0.185782,0.829450,0.358942,-0.229274,-0.517569,2.361221,0.662434,2.575737,3.704776,4.641595,0.035617,-0.082433,0.000000,0.236585,0.045761,-0.000000
0.990000,-2.657870,0.675600,-1.446357,0.814182,-0.059677,-0.188041,0.824406,0.382735,-0.222415,-0.491094,2.397103,0.709664,2.699638,3.482093,4.778349,0.038003,-0.081990,0.000000,0.240609,0.042818,-0.000000
1.000000,-2.649687,0.675022,-1.448248,0.822402,-0.055729,-0.190229,0.819632,0.406877,-0.215077,-0.463407,2.430714,0.758230,2.854993,3.225307,4.961132,0.040429,-0.081577,0.000000,0.244448,0.039743,0.000000
1.010000,-2.641422,0.674486,-1.450161,0.830575,-0.051538,-0.192341,0.815143,0.431341,-0.207243,-0.434072,2.461588,0.808920,3.006854,2.955640,5.146373,0.042892,-0.081195,0.000000,0.248062,0.036486,0.000000
1.020000,-2.633076,0.673992,-1.452095,0.838706,-0.047101,-0.194372,0.810955,0.456100,-0.198895,-0.403323,2.489861,0.860878,3.147324,2.688832,5.274789,0.045389,-0.080847,0.000000,0.251462,0.033076,0.000000
1.030000,-2.624648,0.673545,-1.454048,0.846796,-0.042416,-0.196317,0.807082,0.481128,-0.190017,-0.371034,2.515152,0.915037,3.310068,2.367011,5.557795,0.047920,-0.080534,0.000000,0.254617,0.029492,-0.000000
1.040000,-2.616140,0.673145,-1.456021,0.854848,-0.037478,-0.198170,0.803540,0.506393,-0.180586,-0.337226,2.537323,0.971431,3.446490,2.073096,5.691064,0.050481,-0.080257,0.000000,0.257514,0.025734,-0.000000
1.050000,-2.607551,0.672796,-1.458011,0.862867,-0.032287,-0.199927,0.800342,0.531864,-0.170585,-0.302066,2.556504,1.029106,3.589010,1.752753,5.873445,0.053070,-0.080019,0.000000,0.260164,0.021826,-0.000000
1.060000,-2.598883,0.672500,-1.460019,0.870856,-0.026840,-0.201580,0.797503,0.557511,-0.159997,-0.265437,2.572301,1.088847,3.729101,1.418660,6.053986,0.055683,-0.079820,0.000000,0.262534,0.017746,0.000000
1.070000,-2.590134,0.672260,-1.462043,0.878819,-0.021136,-0.203124,0.795037,0.583300,-0.148804,-0.227559,2.584965,1.149990,3.853112,1.098475,6.193858,0.058319,-0.079664,0.000000,0.264646,0.013522,0.000000
1.080000,-2.581306,0.672078,-1.464081,0.886758,-0.015174,-0.204554,0.792957,0.609198,-0.136990,-0.188239,2.593940,1.213123,4.010618,0.693906,6.432711,0.060975,-0.079550,0.000000,0.266449,0.009127,0.000000
1.090000,-2.572399,0.671957,-1.466133,0.894679,-0.008952,-0.205862,0.791277,0.635166,-0.124535,-0.147496,2.599080,1.278234,4.130411,0.346007,6.568770,0.063647,-0.079481,0.000000,0.267930,0.004560,-0.000000
1.100000,-2.563413,0.671900,-1.468198,0.902585,-0.002470,-0.207042,0.790011,0.661168,-0.111422,-0.105585,2.600700,1.344651,4.258686,-0.037816,6.733409,0.066333,-0.079459,0.000000,0.269118,-0.000148,0.000000
1.110000,-2.554348,0.671909,-1.470274,0.910481,0.004271,-0.208088,0.789168,0.687165,-0.097634,-0.062865,2.598055,1.413279,4.373762,-0.438889,6.900945,0.069028,-0.079485,0.000000,0.269944,-0.004973,-0.000000
1.120000,-2.545203,0.671986,-1.472359,0.918370,0.011273,-0.208993,0.788764,0.713120,-0.083158,-0.017302,2.592382,1.481817,4.652160,-0.750282,6.892889,0.071731,-0.079560,0.000000,0.270517,-0.010103,0.000000
1.130000,-2.535980,0.672135,-1.474453,0.926258,0.018533,-0.209749,0.788821,0.738997,-0.067988,0.028358,2.581904,1.552949,4.476729,-1.348846,7.334835,0.074437,-0.079687,0.000000,0.270678,-0.015285,0.000000
1.140000,-2.526678,0.672358,-1.476554,0.934148,0.026052,-0.210350,0.789331,0.764741,-0.052089,0.073970,2.566434,1.626711,4.732315,-1.693761,7.327684,0.077143,-0.079867,0.000000,0.270410,-0.020509,-0.000000
1.150000,-2.517297,0.672657,-1.478659,0.942046,0.033828,-0.210789,0.790311,0.790315,-0.035456,0.122263,2.547540,1.700219,4.838779,-2.139753,7.460014,0.079845,-0.080100,0.000000,0.269846,-0.026029,0.000000
1.160000,-2.507837,0.673035,-1.480769,0.949956,0.041858,-0.211057,0.791782,0.815676,-0.018079,0.172133,2.523862,1.775376,4.967489,-2.593126,7.574504,0.082538,-0.080390,0.000000,0.268863,-0.031752,-0.000000
1.170000,-2.498298,0.673495,-1.482880,0.957883,0.050140,-0.211148,0.793745,0.840777,0.000055,0.220066,2.495685,1.851714,4.781308,-3.048260,7.685835,0.085221,-0.080736,0.000000,0.267489,-0.037325,0.000000
1.180000,-2.488679,0.674039,-1.484991,0.965832,0.058672,-0.211053,0.796195,0.865574,0.018958,0.271163,2.462776,1.928940,5.442607,-3.535118,7.756935,0.087887,-0.081140,0.000000,0.265691,-0.043261,0.000000
1.190000,-2.478981,0.674669,-1.487100,0.973809,0.067451,-0.210766,0.799180,0.890017,0.038637,0.325623,2.425038,2.006903,5.284907,-4.009797,7.838114,0.090533,-0.081606,0.000000,0.263456,-0.049585,0.000000
1.200000,-2.469203,0.675389,-1.489206,0.981818,0.076471,-0.210278,0.802698,0.914058,0.059099,0.378243,2.382515,2.085605,5.401936,-4.500474,7.894430,0.093155,-0.082135,0.000000,0.260790,-0.055775,0.000000
1.210000,-2.459345,0.676200,-1.491305,0.989865,0.085730,-0.209581,0.806753,0.937649,0.080350,0.432805,2.334818,2.164670,5.504851,-5.003310,7.931627,0.095747,-0.082728,0.000000,0.257642,-0.062215,-0.000000
1.220000,-2.449406,0.677104,-1.493397,0.997955,0.095223,-0.208668,0.811357,0.960741,0.102394,0.488272,2.282761,2.244317,5.593019,-5.445082,7.979382,0.098306,-0.083386,0.000000,0.254094,-0.068804,-0.000000
1.230000,-2.439385,0.678105,-1.495478,1.006094,0.104943,-0.207531,0.816522,0.983286,0.125236,0.544760,2.225143,2.323877,5.703875,-6.080759,7.928968,0.100827,-0.084111,0.000000,0.250014,-0.075554,0.000000
1.240000,-2.429284,0.679204,-1.497547,1.014287,0.114886,-0.206161,0.822256,1.005225,0.148871,0.602222,2.161846,2.403131,5.782213,-6.543644,7.933396,0.103304,-0.084905,0.000000,0.245380,-0.082462,-0.000000
1.250000,-2.419100,0.680403,-1.499600,1.022541,0.125046,-0.204551,0.828568,1.026508,0.173299,0.660426,2.093942,2.482339,5.863188,-7.073749,7.889946,0.105733,-0.085770,0.000000,0.240300,-0.089512,-0.000000
1.260000,-2.408833,0.681705,-1.501637,1.030860,0.135414,-0.202692,0.835465,1.047083,0.198516,0.718868,2.020020,2.561165,5.925834,-7.617211,7.829391,0.108108,-0.086706,0.000000,0.234617,-0.096653,-0.000000
1.270000,-2.398482,0.683112,-1.503653,1.039252,0.145985,-0.200578,0.842956,1.066898,0.224516,0.779858,1.942451,2.638462,6.172159,-7.988767,7.666452,0.110425,-0.087715,0.000000,0.228554,-0.104116,0.000000
1.280000,-2.388047,0.684626,-1.505647,1.047722,0.156749,-0.198199,0.851059,1.085909,0.251284,0.840210,1.858314,2.715262,5.893865,-8.842014,7.690448,0.112677,-0.088801,0.000000,0.221816,-0.111589,0.000000
1.290000,-2.377527,0.686248,-1.507616,1.056275,0.167700,-0.195549,0.859757,1.104041,0.278819,0.899713,1.767453,2.791360,6.105605,-9.237980,7.483677,0.114858,-0.089961,0.000000,0.214376,-0.119050,-0.000000
1.300000,-2.366921,0.687980,-1.509558,1.064919,0.178827,-0.192620,0.869062,1.121247,0.307103,0.961450,1.672767,2.865193,6.140889,-9.791517,7.318602,0.116963,-0.091199,0.000000,0.206500,-0.126808,-0.000000
1.310000,-2.356229,0.689825,-1.511468,1.073658,0.190122,-0.189405,0.878986,1.137475,0.336116,1.023467,1.571891,2.937016,6.183987,-10.343523,7.113490,0.118986,-0.092515,0.000000,0.197938,-0.134667,-0.000000
1.320000,-2.345448,0.691783,-1.513345,1.082500,0.201573,-0.185896,0.889527,1.152670,0.365842,1.084393,1.466269,3.008027,6.074966,-10.819435,7.013398,0.120920,-0.093911,0.000000,0.188844,-0.142499,-0.000000
1.330000,-2.334578,0.693857,-1.515185,1.091451,0.213171,-0.182086,0.900679,1.166780,0.396265,1.146518,1.354697,3.075705,6.351031,-11.495457,6.514561,0.122761,-0.095387,0.000000,0.179048,-0.150522,0.000000
1.340000,-2.323619,0.696047,-1.516985,1.100516,0.224905,-0.177968,0.912462,1.179743,0.427343,1.209866,1.237157,3.139632,6.241479,-11.972681,6.336342,0.124499,-0.096945,0.000000,0.168527,-0.158738,-0.000000
1.350000,-2.312568,0.698355,-1.518743,1.109702,0.236762,-0.173537,0.924871,1.191508,0.459053,1.271963,1.114927,3.201723,6.251916,-12.511148,6.005112,0.126129,-0.098586,0.000000,0.157428,-0.166908,0.000000
1.360000,-2.301424,0.700783,-1.520455,1.119016,0.248731,-0.168785,0.937905,1.202021,0.491362,1.334875,0.986591,3.259383,6.256317,-13.051730,5.632074,0.127645,-0.100310,0.000000,0.145552,-0.175225,0.000000
1.370000,-2.290187,0.703330,-1.522118,1.128462,0.260798,-0.163708,0.951562,1.211231,0.524237,1.396388,0.854869,3.315270,6.114967,-13.391066,5.431874,0.129039,-0.102119,0.000000,0.133207,-0.183485,-0.000000
1.380000,-2.278854,0.705999,-1.523728,1.138049,0.272951,-0.158299,0.965835,1.219096,0.557648,1.458619,0.716702,3.365648,6.331607,-14.243643,4.634554,0.130306,-0.104011,0.000000,0.120005,-0.191872,-0.000000
1.390000,-2.267425,0.708790,-1.525283,1.147781,0.285176,-0.152553,0.980737,1.225542,0.591529,1.521556,0.572061,3.410019,6.182640,-14.581419,4.342369,0.131436,-0.105990,0.000000,0.105916,-0.200378,0.000000
1.400000,-2.255898,0.711703,-1.526778,1.157666,0.297457,-0.146467,0.996259,1.230528,0.625841,1.582832,0.424263,3.451454,6.141741,-15.076484,3.830654,0.132423,-0.108053,0.000000,0.091320,-0.208787,-0.000000
1.410000,-2.244272,0.714739,-1.528211,1.167709,0.309781,-0.140035,1.012405,1.234009,0.660534,1.646390,0.271174,3.486339,6.131092,-15.548242,3.275470,0.133260,-0.110203,0.000000,0.075920,-0.217475,0.000000
1.420000,-2.232544,0.717898,-1.529577,1.177916,0.322132,-0.133255,1.029151,1.235936,0.695559,1.701386,0.113268,3.518087,5.288532,-16.020447,2.937422,0.133939,-0.112438,0.000000,0.059814,-0.225318,0.000000
1.430000,-2.220713,0.721182,-1.530875,1.188293,0.334494,-0.126123,1.046451,1.236260,0.730870,1.760986,-0.048973,3.542219,6.641437,-16.423933,1.879084,0.134453,-0.114753,0.000000,0.042955,-0.233667,0.000000
1.440000,-2.208777,0.724588,-1.532099,1.198847,0.346852,-0.118637,1.064391,1.234943,0.766375,1.825577,-0.215330,3.558204,5.845250,-16.853398,1.444221,0.134795,-0.117156,0.000000,0.025339,-0.242559,0.000000
1.450000,-2.196735,0.728118,-1.533246,1.209583,0.359188,-0.110795,1.082926,1.231940,0.802022,1.881438,-0.385883,3.569866,5.748582,-17.243615,0.750678,0.134958,-0.119644,0.000000,0.007022,-0.250553,-0.000000
1.460000,-2.184585,0.731772,-1.534313,1.220507,0.371485,-0.102596,1.102005,1.227224,0.837742,1.933629,-0.557481,3.572893,5.505558,-17.556478,0.014559,0.134935,-0.122212,0.000000,-0.011736,-0.258125,0.000000
1.470000,-2.172324,0.735548,-1.535297,1.231625,0.383726,-0.094040,1.121656,1.220741,0.873468,1.999003,-0.741390,3.571593,6.768436,-18.751131,-0.442116,0.134717,-0.124861,0.000000,-0.032143,-0.267162,0.000000
1.480000,-2.159952,0.739446,-1.536193,1.242943,0.395894,-0.085127,1.141939,1.212409,0.909140,2.052192,-0.922548,3.560540,3.840007,-17.461801,-1.778656,0.134292,-0.127598,0.000000,-0.052606,-0.274821,0.000000
1.490000,-2.147465,0.743466,-1.536998,1.254465,0.407969,-0.075858,1.162649,1.202306,0.944643,2.091818,-1.100064,3.539201,4.884647,-18.512234,-2.330182,0.133665,-0.130401,0.000000,-0.073028,-0.280907,0.000000
1.500000,-2.134862,0.747605,-1.537709,1.266197,0.419934,-0.066235,1.183828,1.190363,0.979909,2.142982,-1.288686,3.512448,4.542325,-18.735328,-3.188266,0.132825,-0.133273,0.000000,-0.095013,-0.288232,-0.000000
1.510000,-2.122140,0.751864,-1.538322,1.278143,0.431769,-0.056261,1.205445,1.176475,1.014857,2.178887,-1.491006,3.475655,4.070404,-19.240020,-4.074248,0.131757,-0.136209,0.000000,-0.118879,-0.293765,-0.000000
1.520000,-2.109298,0.756240,-1.538833,1.290308,0.443457,-0.045939,1.227506,1.160728,1.049401,2.237541,-1.650527,3.431802,6.266231,-15.068247,-4.798004,0.130467,-0.139210,0.000000,-0.138393,-0.301737,0.000000
1.530000,-2.096333,0.760732,-1.539239,1.302695,0.454979,-0.035274,1.250114,1.143337,1.083458,2.274958,-1.842838,3.377569,1.173261,-23.461310,-6.055381,0.128974,-0.142286,0.000000,-0.161877,-0.307210,-0.000000
1.540000,-2.083243,0.765339,-1.539537,1.315310,0.466316,-0.024272,1.272917,1.123733,1.116915,2.289175,-2.070809,3.312592,3.076722,-19.689340,-6.845132,0.127213,-0.145395,0.000000,-0.189709,-0.309907,-0.000000
1.550000,-2.070026,0.770058,-1.539724,1.328155,0.477447,-0.012938,1.295993,1.102102,1.149685,2.324587,-2.257064,3.239763,2.607892,-19.974883,-7.821941,0.125199,-0.148545,0.000000,-0.213267,-0.314811,0.000000
1.560000,-2.056679,0.774887,-1.539795,1.341231,0.488352,-0.001281,1.319434,1.078601,1.181668,2.365003,-2.441380,3.154875,2.568819,-19.712064,-8.845183,0.122947,-0.151743,0.000000,-0.236990,-0.320036,-0.000000
1.570000,-2.043201,0.779824,-1.539748,1.354544,0.499012,0.010692,1.343056,1.053054,1.212774,2.349252,-2.677133,3.065691,-2.893695,-24.671938,-9.297690,0.120434,-0.154967,0.000000,-0.266674,-0.318800,0.000000
1.580000,-2.029588,0.784867,-1.539580,1.368092,0.509405,0.022972,1.366550,1.025199,1.242933,2.366444,-2.876745,2.962499,6.421989,-15.150811,-11.351986,0.117628,-0.158179,0.000000,-0.292738,-0.320929,-0.000000
1.590000,-2.015838,0.790011,-1.539288,1.381877,0.519511,0.035547,1.390530,0.995677,1.271973,2.420598,-3.035579,2.844774,1.558973,-19.382466,-11.887199,0.114596,-0.161446,0.000000,-0.314564,-0.326886,0.000000
1.600000,-2.001949,0.795256,-1.538868,1.395903,0.529312,0.048407,1.414735,0.964285,1.299817,2.421827,-3.240539,2.722128,1.526369,-18.826690,-12.947861,0.111314,-0.164734,0.000000,-0.341713,-0.326637,-0.000000
1.610000,-1.987919,0.800597,-1.538319,1.410172,0.538790,0.061539,1.439013,0.930975,1.326367,2.432854,-3.419880,2.585974,1.239630,-18.243954,-14.018840,0.107773,-0.168023,0.000000,-0.366210,-0.327099,-0.000000
1.620000,-1.973745,0.806030,-1.537637,1.424684,0.547925,0.074930,1.463428,0.895809,1.351523,2.451744,-3.616376,2.444191,1.989388,-19.868397,-14.592787,0.103980,-0.171317,0.000000,-0.392810,-0.328191,-0.000000
1.630000,-1.959425,0.811554,-1.536820,1.439441,0.556700,0.088565,1.488012,0.858724,1.375204,2.461112,-3.792350,2.288771,-0.136490,-15.281386,-16.497524,0.099925,-0.174617,0.000000,-0.417198,-0.327756,-0.000000
1.640000,-1.944956,0.817163,-1.535865,1.454444,0.565095,0.102428,1.512611,0.820047,1.397250,2.459983,-3.945674,2.119464,0.457676,-16.565407,-17.102793,0.095646,-0.177899,0.000000,-0.439041,-0.325638,0.000000
1.650000,-1.930335,0.822854,-1.534770,1.469693,0.573095,0.116504,1.537243,0.779742,1.417579,2.465496,-4.113449,1.944583,0.090595,-15.799553,-18.127860,0.091137,-0.181162,0.000000,-0.462524,-0.323954,0.000000
1.660000,-1.915561,0.828624,-1.533534,1.485189,0.580684,0.130774,1.561842,0.737756,1.436103,2.452116,-4.284655,1.758503,-0.518485,-15.415904,-19.110501,0.086393,-0.184394,0.000000,-0.486341,-0.319638,-0.000000
1.670000,-1.900631,0.834467,-1.532154,1.500930,0.587845,0.145220,1.586448,0.694308,1.452715,2.475770,-4.393874,1.562223,3.060667,-9.354092,-20.114629,0.081440,-0.187596,0.000000,-0.502883,-0.319126,0.000000
1.680000,-1.885541,0.840379,-1.530629,1.516919,0.594567,0.159821,1.611235,0.649757,1.467317,2.467391,-4.533171,1.356859,-4.806974,-18.590685,-20.951573,0.076322,-0.190783,0.000000,-0.522677,-0.314483,0.000000
1.690000,-1.870291,0.846356,-1.528957,1.533153,0.600834,0.174559,1.635661,0.603509,1.479823,2.423814,-4.706249,1.142797,-1.702676,-13.057928,-21.880090,0.070972,-0.193887,0.000000,-0.546138,-0.305333,0.000000
1.700000,-1.854878,0.852394,-1.527138,1.549631,0.606632,0.189411,1.659864,0.555883,1.490142,2.414604,-4.819299,0.919619,-2.337856,-12.493359,-22.722261,0.065429,-0.196921,0.000000,-0.562327,-0.299678,-0.000000
1.710000,-1.839298,0.858488,-1.525169,1.566351,0.611948,0.204354,1.684078,0.506997,1.498200,2.432964,-4.958914,0.690992,-1.947829,-12.051855,-23.467743,0.059711,-0.199907,0.000000,-0.581284,-0.296819,-0.000000
1.720000,-1.823550,0.864632,-1.523050,1.583312,0.616768,0.219367,1.707889,0.456995,1.503899,2.302404,-5.029103,0.446074,-16.449996,-5.235966,-25.048251,0.053840,-0.202792,0.000000,-0.591516,-0.276144,-0.000000
1.730000,-1.807631,0.870821,-1.520781,1.600504,0.621086,0.234424,1.730497,0.406283,1.507121,2.265892,-5.131849,0.199839,9.378854,-15.396037,-24.175414,0.047867,-0.205480,0.000000,-0.605196,-0.266046,0.000000
1.740000,-1.791539,0.877052,-1.518362,1.617924,0.624889,0.249501,1.753616,0.354212,1.507899,2.333556,-5.270534,-0.046542,-3.655217,-9.020629,-25.555158,0.041720,-0.208166,0.000000,-0.622650,-0.267708,-0.000000
1.750000,-1.775272,0.883317,-1.515791,1.635575,0.628167,0.264573,1.776556,0.301161,1.506134,2.258588,-5.339743,-0.307138,-3.591953,-8.079619,-26.092724,0.035450,-0.210766,0.000000,-0.631247,-0.252362,-0.000000
1.760000,-1.758827,0.889613,-1.513070,1.653452,0.630911,0.279615,1.798425,0.247879,1.501742,2.099019,-5.300218,-0.572411,-6.568416,-4.497031,-26.636354,0.029152,-0.213173,0.000000,-0.626415,-0.226992,-0.000000
1.770000,-1.742202,0.895934,-1.510199,1.671543,0.633122,0.294599,1.820205,0.193612,1.494695,2.327231,-5.617956,-0.836759,31.075008,-39.141369,-26.528670,0.022741,-0.215499,0.000000,-0.663160,-0.245992,0.000000
1.780000,-1.725395,0.902274,-1.507179,1.689864,0.634773,0.309500,1.843885,0.136568,1.484978,2.276862,-5.665152,-1.109192,-41.806996,30.324810,-27.956305,0.016015,-0.217968,0.000000,-0.667183,-0.232547,0.000000
1.790000,-1.708404,0.908627,-1.504010,1.708409,0.635861,0.324290,1.864549,0.081460,1.472482,1.918669,-5.414095,-1.389463,-8.486762,-0.213780,-27.777252,0.009535,-0.220014,0.000000,-0.635635,-0.183662,0.000000
1.800000,-1.691226,0.914989,-1.500693,1.727151,0.636403,0.338940,1.883850,0.026815,1.457202,1.926485,-5.499282,-1.667117,-11.180107,3.170752,-28.048834,0.003132,-0.221824,0.000000,-0.642988,-0.176639,-0.000000
1.810000,-1.673860,0.921354,-1.497231,1.746085,0.636396,0.353424,1.902851,-0.028494,1.439145,1.880738,-5.574098,-1.944112,-10.854562,2.751780,-28.135855,-0.003319,-0.223520,0.000000,-0.648427,-0.163436,0.000000
1.820000,-1.656304,0.927715,-1.493625,1.765203,0.635835,0.367714,1.920430,-0.082984,1.418254,1.591360,-5.252500,-2.236922,-34.429707,41.230295,-29.638390,-0.009639,-0.224973,0.000000,-0.607244,-0.122225,-0.000000
1.830000,-1.638556,0.934068,-1.489878,1.784483,0.634747,0.381780,1.935286,-0.134513,1.394443,1.456507,-5.176453,-2.520352,7.901607,-26.688968,-27.010441,-0.015576,-0.226035,0.000000,-0.594295,-0.098956,0.000000
1.840000,-1.620614,0.940408,-1.485991,1.803910,0.633139,0.395594,1.950242,-0.187593,1.367890,1.496646,-5.376192,-2.792547,-12.485851,7.208324,-28.198028,-0.021647,-0.227031,0.000000,-0.612561,-0.095734,-0.000000
1.850000,-1.602477,0.946729,-1.481967,1.823485,0.630997,0.409128,1.964260,-0.240449,1.338537,1.315391,-5.206844,-3.077413,-11.087049,6.207651,-27.982559,-0.027643,-0.227842,0.000000,-0.587823,-0.067393,0.000000
1.860000,-1.584144,0.953027,-1.477809,1.843194,0.628332,0.422355,1.977886,-0.292532,1.306357,1.440465,-5.218882,-3.358376,-5.595424,4.917283,-27.786113,-0.033494,-0.228529,0.000000,-0.583306,-0.073515,0.000000
1.870000,-1.565613,0.959294,-1.473521,1.863038,0.625148,0.435246,1.989864,-0.343770,1.271410,0.819989,-4.983958,-3.629095,-77.998942,28.934069,-26.743598,-0.039190,-0.228957,0.000000,-0.550979,0.002858,0.000000
1.880000,-1.546883,0.965528,-1.469105,1.882970,0.621465,0.447774,1.996355,-0.392864,1.233767,0.730557,-4.915816,-3.901363,61.354922,-15.695685,-27.709278,-0.044586,-0.228705,0.000000,-0.537104,0.019624,-0.000000
1.890000,-1.527953,0.971722,-1.464567,1.902981,0.617287,0.459912,2.006748,-0.442802,1.193376,1.227065,-5.031480,-4.174939,-2.993528,5.865295,-26.589612,-0.050008,-0.228814,0.000000,-0.542771,-0.028009,0.000000
1.900000,-1.508823,0.977872,-1.459909,1.923106,0.612610,0.471633,2.017826,-0.492473,1.150316,1.016288,-4.910228,-4.436304,1.493276,5.216858,-26.070589,-0.055329,-0.228929,0.000000,-0.522277,0.001906,-0.000000
1.910000,-1.489490,0.983973,-1.455135,1.943331,0.607443,0.482910,2.026424,-0.540278,1.104689,0.657497,-4.620323,-4.687238,-4.849846,10.449260,-25.308749,-0.060373,-0.228707,0.000000,-0.483279,0.047162,-0.000000
1.920000,-1.469956,0.990019,-1.450252,1.963637,0.601806,0.493718,2.036321,-0.588143,1.056500,1.547533,-5.090068,-4.953307,116.288367,-63.245564,-26.721421,-0.065349,-0.228564,0.000000,-0.526428,-0.042744,0.000000
1.930000,-1.450217,0.996007,-1.445263,1.984088,0.595664,0.504031,2.054044,-0.639981,1.005707,1.585829,-5.021373,-5.196832,-110.780646,78.293429,-21.934405,-0.070671,-0.229201,0.000000,-0.510411,-0.040122,0.000000
1.940000,-1.430273,1.001931,-1.440173,2.004688,0.589027,0.513825,2.064351,-0.686255,0.952656,0.675536,-4.355649,-5.415432,-4.212876,13.347843,-22.955659,-0.075314,-0.228979,0.000000,-0.431434,0.062639,0.000000
1.950000,-1.410123,1.007786,-1.434988,2.025370,0.581946,0.523077,2.072611,-0.730192,0.897338,0.931047,-4.402159,-5.645684,-11.600241,18.702259,-21.905810,-0.079629,-0.228486,0.000000,-0.428563,0.040516,0.000000
1.960000,-1.389766,1.013568,-1.429713,2.046142,0.574426,0.531764,2.081590,-0.773778,0.839813,0.868207,-4.326526,-5.857393,-13.331532,18.740030,-20.824531,-0.083831,-0.228021,0.000000,-0.413065,0.051762,0.000000
1.970000,-1.369200,1.019273,-1.424355,2.066997,0.566478,0.539866,2.088914,-0.814908,0.780195,0.551005,-3.822540,-6.065644,-38.063598,60.319752,-20.431334,-0.087699,-0.227336,0.000000,-0.352468,0.089237,0.000000
1.980000,-1.348426,1.024897,-1.418918,2.087909,0.558145,0.547361,2.093119,-0.851249,0.718557,0.359972,-3.576530,-6.257755,0.281190,-11.843944,-17.971144,-0.090993,-0.226286,0.000000,-0.320266,0.112424,-0.000000
1.990000,-1.327442,1.030435,-1.413410,2.108858,0.549451,0.554231,2.096694,-0.887580,0.655100,0.314728,-3.621546,-6.432729,-21.394543,24.691893,-17.406527,-0.094225,-0.225141,0.000000,-0.318952,0.119707,0.000000
2.000000,-1.306248,1.035884,-1.407836,2.129836,0.540400,0.560458,2.098426,-0.921975,0.589913,0.036474,-3.269636,-6.602461,-22.089895,23.810473,-16.145994,-0.097196,-0.223781,0.000000,-0.276682,0.150477,-0.000000
2.010000,-1.284845,1.041242,-1.402203,2.150821,0.531020,0.566024,2.098686,-0.953787,0.523073,0.043300,-3.101418,-6.764352,-18.451149,22.633420,-15.014429,-0.099843,-0.222250,0.000000,-0.253675,0.151409,0.000000
2.020000,-1.263232,1.046504,-1.396517,2.171801,0.521333,0.570914,2.096009,-0.983003,0.454763,-0.717446,-2.699570,-6.891497,-92.910336,45.244440,-11.587055,-0.102176,-0.220407,0.000000,-0.209140,0.228978,0.000000
2.030000,-1.241409,1.051668,-1.390787,2.192715,0.511374,0.575115,2.086370,-1.008407,0.385227,-0.958738,-2.458693,-7.020719,45.963046,2.517898,-14.289677,-0.104089,-0.217857,0.000000,-0.180795,0.252798,0.000000
2.040000,-1.219378,1.056730,-1.385017,2.213539,0.501167,0.578614,2.079084,-1.032874,0.314327,-0.621668,-2.397521,-7.153392,-19.655506,22.282057,-11.052273,-0.105859,-0.215549,0.000000,-0.169795,0.218640,-0.000000
2.050000,-1.197139,1.061690,-1.379217,2.234292,0.490723,0.581398,2.070826,-1.055417,0.242294,-1.002606,-2.120019,-7.251768,-15.551196,20.677368,-9.803307,-0.107399,-0.213151,0.000000,-0.139224,0.255329,0.000000
2.060000,-1.174692,1.066544,-1.373392,2.254946,0.480067,0.583457,2.059254,-1.075233,0.169338,-1.332281,-1.833967,-7.336300,-17.797391,21.544469,-8.316990,-0.108641,-0.210439,0.000000,-0.108447,0.285921,0.000000
2.070000,-1.152040,1.071291,-1.367550,2.275473,0.469225,0.584782,2.046753,-1.093286,0.095519,-1.059028,-1.826988,-7.429222,40.780920,-5.598656,-9.084090,-0.109682,-0.207654,0.000000,-0.104544,0.257106,0.000000
2.080000,-1.129183,1.075928,-1.361699,2.295891,0.458202,0.585364,2.036521,-1.111067,0.020859,-1.181505,-1.640458,-7.493147,-66.285437,43.360373,-3.661901,-0.110667,-0.205113,0.000000,-0.084172,0.266685,0.000000
2.090000,-1.106123,1.080454,-1.355845,2.316185,0.447016,0.585198,2.021403,-1.125314,-0.054232,-1.744909,-1.254086,-7.526307,-14.461841,19.225480,-4.160767,-0.111296,-0.202124,0.000000,-0.046026,0.317838,0.000000
2.100000,-1.082860,1.084868,-1.349997,2.336312,0.435702,0.584278,2.004067,-1.137283,-0.129710,-1.742193,-1.131320,-7.566232,-16.843532,19.960788,-2.637097,-0.111694,-0.198955,0.000000,-0.032924,0.313943,-0.000000
2.110000,-1.059397,1.089168,-1.344162,2.356264,0.424276,0.582603,1.985979,-1.147689,-0.205493,-1.870590,-0.952761,-7.588362,-16.348838,19.311435,-1.253762,-0.111933,-0.195751,0.000000,-0.015184,0.322228,0.000000
2.120000,-1.035736,1.093353,-1.338348,2.376026,0.412755,0.580168,1.966061,-1.156071,-0.281388,-2.138221,-0.712456,-7.586406,-29.876741,25.273665,1.122421,-0.111976,-0.192415,0.000000,0.007577,0.343083,-0.000000
2.130000,-1.011877,1.097423,-1.332561,2.395576,0.401163,0.576975,1.943572,-1.162124,-0.357200,-2.314836,-0.520263,-7.576889,-5.211638,13.045393,0.762018,-0.111800,-0.188882,0.000000,0.025421,0.354857,0.000000
2.140000,-0.987825,1.101376,-1.326811,2.414895,0.389518,0.573024,1.920161,-1.166682,-0.432907,-2.389893,-0.381678,-7.560698,-17.157500,18.158316,2.998382,-0.111487,-0.185312,0.000000,0.037999,0.356847,-0.000000
2.150000,-0.963580,1.105213,-1.321103,2.433974,0.377835,0.568318,1.895211,-1.169510,-0.508328,-2.595325,-0.187022,-7.521455,-16.581922,17.275010,4.322281,-0.111020,-0.181650,0.000000,0.055115,0.370540,-0.000000
2.160000,-0.939146,1.108933,-1.315447,2.452793,0.366133,0.562859,1.868437,-1.170540,-0.583310,-2.759100,-0.020516,-7.472890,-16.416980,16.498209,5.627797,-0.110397,-0.177873,0.000000,0.069287,0.380042,-0.000000
2.170000,-0.914525,1.112536,-1.309849,2.471337,0.354430,0.556654,1.840015,-1.169908,-0.657723,-2.925863,0.147181,-7.406770,-16.689984,16.563624,7.356947,-0.109634,-0.174002,0.000000,0.083148,0.389434,0.000000
2.180000,-0.889720,1.116022,-1.304316,2.489588,0.342741,0.549707,1.809938,-1.167647,-0.731414,-3.087748,0.300741,-7.330771,-15.675477,14.124372,7.830259,-0.108739,-0.170040,0.000000,0.095393,0.398146,0.000000
2.190000,-0.864735,1.119391,-1.298857,2.507530,0.331081,0.542028,1.778280,-1.163948,-0.804310,-3.244172,0.438954,-7.245536,-15.848993,13.981975,9.447580,-0.107732,-0.165995,0.000000,0.105971,0.406169,-0.000000
2.200000,-0.839571,1.122643,-1.293478,2.525148,0.319466,0.533624,1.745044,-1.158863,-0.876266,-3.402582,0.576193,-7.143949,-15.586690,12.986921,10.628142,-0.106621,-0.161869,0.000000,0.116154,0.414104,0.000000
2.210000,-0.814233,1.125780,-1.288187,2.542426,0.307909,0.524506,1.710237,-1.152493,-0.947161,-3.558534,0.695292,-7.033285,-15.346833,11.860270,11.757493,-0.105416,-0.157666,0.000000,0.124487,0.421683,-0.000000
2.220000,-0.788724,1.128802,-1.282990,2.559348,0.296420,0.514685,1.673902,-1.144911,-1.016874,-3.707117,0.822783,-6.906547,-14.612265,12.627741,13.332039,-0.104128,-0.153392,0.000000,0.133351,0.428395,0.000000
2.230000,-0.763047,1.131709,-1.277896,2.575899,0.285014,0.504173,1.636092,-1.136124,-1.085268,-3.855878,0.926656,-6.772058,-15.144182,8.110647,13.551015,-0.102757,-0.149052,0.000000,0.139943,0.435071,0.000000
2.240000,-0.737207,1.134502,-1.272909,2.592065,0.273701,0.492984,1.596781,-1.126470,-1.152294,-4.004956,1.005224,-6.630580,-14.419856,8.613161,14.991257,-0.101337,-0.144644,0.000000,0.144178,0.441744,0.000000
2.250000,-0.711207,1.137183,-1.268038,2.607830,0.262488,0.481132,1.556023,-1.115980,-1.217827,-4.146316,1.090257,-6.474529,-14.096361,7.380970,15.958470,-0.099871,-0.140174,0.000000,0.148870,0.447629,-0.000000
2.260000,-0.685052,1.139752,-1.263289,2.623181,0.251384,0.468633,1.513869,-1.104705,-1.281765,-4.283755,1.163435,-6.311766,-13.702392,6.309606,16.867076,-0.098363,-0.135648,0.000000,0.152465,0.453193,0.000000
2.270000,-0.658745,1.142211,-1.258668,2.638103,0.240396,0.455503,1.470336,-1.092824,-1.344010,-4.423192,1.207753,-6.134754,-13.877168,3.469872,18.256021,-0.096832,-0.131066,0.000000,0.153425,0.458887,0.000000
2.280000,-0.632291,1.144561,-1.254181,2.652583,0.229529,0.441759,1.425433,-1.080543,-1.404445,-4.554840,1.252070,-5.952501,-12.440141,5.422662,18.178897,-0.095294,-0.126429,0.000000,0.154418,0.463980,-0.000000
2.290000,-0.605695,1.146802,-1.249834,2.666607,0.218787,0.427420,1.379269,-1.067771,-1.463047,-4.678111,1.297687,-5.765819,-12.519480,2.776847,19.424816,-0.093742,-0.121746,0.000000,0.155562,0.468451,0.000000
2.300000,-0.578960,1.148937,-1.245634,2.680164,0.208174,0.412504,1.331861,-1.054698,-1.519714,-4.802572,1.315482,-5.566479,-12.063569,1.705867,20.162375,-0.092193,-0.117018,0.000000,0.154258,0.473066,0.000000
2.310000,-0.552093,1.150966,-1.241586,2.693240,0.197693,0.397032,1.283236,-1.041481,-1.574363,-4.921780,1.325897,-5.362177,-11.631586,0.565281,20.856763,-0.090659,-0.112245,0.000000,0.152381,0.477362,-0.000000
2.320000,-0.525097,1.152891,-1.237695,2.705825,0.187345,0.381024,1.233452,-1.028203,-1.626922,-5.033839,1.328546,-5.147956,-10.918976,-0.213624,21.819817,-0.089147,-0.107433,0.000000,0.149872,0.481147,-0.000000
2.330000,-0.497978,1.154713,-1.233967,2.717906,0.177129,0.364501,1.182568,-1.014956,-1.677308,-5.143074,1.317888,-4.929292,-10.931070,-1.920444,21.901355,-0.087665,-0.102584,0.000000,0.146303,0.484865,0.000000
2.340000,-0.470741,1.156434,-1.230407,2.729473,0.167045,0.347485,1.130599,-1.001891,-1.725496,-5.249595,1.293866,-4.706805,-10.230129,-2.697449,22.751987,-0.086224,-0.097698,0.000000,0.141686,0.488541,0.000000
2.350000,-0.443390,1.158055,-1.227019,2.740514,0.157090,0.329999,1.077603,-0.989100,-1.771413,-5.348857,1.262477,-4.475758,-9.762204,-3.757729,23.289479,-0.084833,-0.092779,0.000000,0.136511,0.491759,0.000000
2.360000,-0.415932,1.159576,-1.223809,2.751021,0.147262,0.312065,1.023630,-0.976691,-1.814998,-5.445011,1.217417,-4.240440,-9.297668,-4.822808,23.797552,-0.083498,-0.087828,0.000000,0.130276,0.494926,-0.000000
2.370000,-0.388372,1.161000,-1.220779,2.760984,0.137555,0.293707,0.968732,-0.964752,-1.856203,-5.533225,1.170061,-3.999652,-8.509142,-5.054918,24.325659,-0.082227,-0.082847,0.000000,0.123947,0.497634,0.000000
2.380000,-0.360715,1.162328,-1.217936,2.770393,0.127965,0.274949,0.912974,-0.953342,-1.894977,-5.618639,1.107784,-3.754641,-8.577820,-7.405735,24.670135,-0.081023,-0.077841,0.000000,0.116455,0.500340,-0.000000
2.390000,-0.332966,1.163560,-1.215282,2.779241,0.118486,0.255815,0.856367,-0.942650,-1.931283,-5.701425,1.030471,-3.505778,-7.811861,-7.630924,25.126049,-0.079902,-0.072807,0.000000,0.107802,0.503071,-0.000000
2.400000,-0.305132,1.164698,-1.212821,2.787518,0.109109,0.236331,0.798974,-0.932730,-1.965078,-5.776273,0.951809,-3.252469,-7.322748,-8.507486,25.501897,-0.078867,-0.067749,0.000000,0.099139,0.505383,0.000000
2.410000,-0.277217,1.165743,-1.210556,2.795218,0.099828,0.216522,0.740857,-0.923631,-1.996320,-5.846356,0.867371,-2.995375,-6.804946,-9.203383,25.855488,-0.077920,-0.062669,0.000000,0.090088,0.507560,0.000000
2.420000,-0.249229,1.166695,-1.208491,2.802333,0.090634,0.196414,0.682056,-0.915473,-2.024978,-5.913380,0.760286,-2.735989,-6.490809,-11.393261,26.072900,-0.077072,-0.057567,0.000000,0.079239,0.509760,0.000000
2.430000,-0.221173,1.167556,-1.206629,2.808857,0.081515,0.176031,0.622612,-0.908407,-2.051027,-5.973885,0.656726,-2.472835,-5.606093,-9.281901,26.555166,-0.076334,-0.052444,0.000000,0.068775,0.511692,-0.000000
2.440000,-0.193054,1.168325,-1.204971,2.814783,0.072462,0.155402,0.562601,-0.902314,-2.074423,-6.027680,0.558509,-2.206106,-5.261554,-11.166548,26.729696,-0.075694,-0.047304,0.000000,0.058834,0.513351,0.000000
2.450000,-0.164879,1.169005,-1.203521,2.820107,0.063465,0.134552,0.502067,-0.897317,-2.095145,-6.078178,0.440574,-1.937846,-4.728745,-11.593988,26.974420,-0.075163,-0.042147,0.000000,0.047323,0.515038,-0.000000
2.460000,-0.136654,1.169595,-1.202281,2.824823,0.054512,0.113508,0.441056,-0.893492,-2.113167,-6.123292,0.323843,-1.666208,-4.209942,-11.974240,27.206455,-0.074747,-0.036975,0.000000,0.035971,0.516577,-0.000000
2.470000,-0.108385,1.170095,-1.201252,2.828927,0.045591,0.092298,0.379625,-0.890871,-2.128473,-6.161600,0.199179,-1.395110,-3.532593,-12.718603,27.147490,-0.074446,-0.031788,0.000000,0.024026,0.517865,0.000000
2.480000,-0.080077,1.170507,-1.200435,2.832414,0.036690,0.070948,0.317837,-0.889507,-2.141056,-6.195647,0.074497,-1.120432,-3.279210,-12.198141,27.788357,-0.074266,-0.026589,0.000000,0.012110,0.519109,-0.000000
2.490000,-0.051738,1.170829,-1.199833,2.835282,0.027797,0.049486,0.255726,-0.889375,-2.150869,-6.225534,-0.049131,-0.842221,-2.615955,-12.744423,27.710186,-0.074204,-0.021377,0.000000,0.000297,0.520323,-0.000000
2.500000,-0.023374,1.171063,-1.199446,2.837528,0.018899,0.027939,0.193351,-0.890512,-2.157907,-6.248661,-0.178186,-0.565118,-2.090957,-12.824685,27.845611,-0.074262,-0.016154,0.000000,-0.011936,0.521304,-0.000000
2.510000,0.005010,1.171207,-1.199275,2.839149,0.009983,0.006337,0.130768,-0.892931,-2.162161,-6.266918,-0.305487,-0.285360,-1.559991,-12.820445,27.963884,-0.074442,-0.010922,0.000000,-0.024030,0.522205,-0.000000
2.520000,0.033407,1.171262,-1.199319,2.840143,0.001036,-0.015294,0.068030,-0.896636,-2.163622,-6.279856,-0.436157,-0.007190,-1.027821,-13.108814,27.800066,-0.074744,-0.005682,0.000000,-0.036400,0.522996,-0.000000
2.530000,0.061811,1.171228,-1.199580,2.840509,-0.007955,-0.036926,0.005189,-0.901641,-2.162296,-6.287481,-0.563376,0.273376,-0.497210,-12.316132,28.313448,-0.075169,-0.000433,0.000000,-0.048518,0.523676,0.000000
2.540000,0.090215,1.171103,-1.200058,2.840246,-0.017001,-0.058531,-0.057702,-0.907887,-2.158146,-6.289793,-0.686106,0.556284,0.035147,-12.410823,28.128620,-0.075713,0.004821,0.000000,-0.060314,0.524250,0.000000
2.550000,0.118614,1.170887,-1.200751,2.839355,-0.026116,-0.080080,-0.120589,-0.915369,-2.151180,-6.286782,-0.809691,0.837016,0.566608,-12.100381,28.148308,-0.076376,0.010081,0.000000,-0.072216,0.524717,-0.000000
2.560000,0.147000,1.170580,-1.201659,2.837835,-0.035313,-0.101545,-0.183420,-0.924058,-2.141399,-6.278542,-0.927156,1.119234,1.095991,-11.691765,28.149252,-0.077155,0.015346,0.000000,-0.083683,0.525086,-0.000000
2.570000,0.175368,1.170181,-1.202781,2.835687,-0.044601,-0.122898,-0.246141,-0.933923,-2.128807,-6.264731,-1.046146,1.398609,1.651880,-11.791470,27.858634,-0.078050,0.020614,0.000000,-0.095336,0.525324,-0.000000
2.580000,0.203712,1.169688,-1.204117,2.832912,-0.053995,-0.144112,-0.308698,-0.944949,-2.113421,-6.245804,-1.156392,1.679199,2.132930,-10.236151,28.258841,-0.079060,0.025884,0.000000,-0.106361,0.525473,0.000000
2.590000,0.232024,1.169101,-1.205663,2.829513,-0.063504,-0.165157,-0.371041,-0.957015,-2.095218,-6.221790,-1.256752,1.960909,2.683863,-10.129569,27.939566,-0.080175,0.031156,0.000000,-0.116672,0.525538,0.000000
2.600000,0.260300,1.168417,-1.207419,2.825492,-0.073139,-0.186007,-0.433115,-0.970087,-2.074217,-6.192253,-1.356159,2.239067,3.209278,-9.436137,27.825105,-0.081394,0.036428,0.000000,-0.126995,0.525469,0.000000
2.610000,0.288532,1.167637,-1.209383,2.820852,-0.082909,-0.206633,-0.494869,-0.984102,-2.050435,-6.157552,-1.445594,2.517257,3.733800,-8.669990,27.683732,-0.082712,0.041700,0.000000,-0.136611,0.525303,-0.000000
2.620000,0.316715,1.166759,-1.211551,2.815596,-0.092824,-0.227006,-0.556248,-0.998990,-2.023888,-6.117553,-1.531460,2.791490,4.262752,-8.269768,27.277339,-0.084126,0.046970,0.000000,-0.146035,0.525013,-0.000000
2.630000,0.344842,1.165780,-1.213922,2.809729,-0.102891,-0.247101,-0.617202,-1.014692,-1.994606,-6.072370,-1.606103,3.065209,4.773415,-6.641831,27.464000,-0.085630,0.052237,0.000000,-0.154658,0.524615,-0.000000
2.640000,0.372907,1.164700,-1.216492,2.803254,-0.113120,-0.266889,-0.677679,-1.031070,-1.962585,-6.022027,-1.668617,3.338216,5.297901,-6.076816,27.009809,-0.087216,0.057501,0.000000,-0.162407,0.524110,0.000000
2.650000,0.400905,1.163517,-1.219258,2.796177,-0.123515,-0.286344,-0.737625,-1.048050,-1.927860,-5.966446,-1.725545,3.606304,5.814808,-5.075459,26.721994,-0.088877,0.062759,0.000000,-0.169804,0.523465,-0.000000
2.660000,0.428829,1.162230,-1.222218,2.788503,-0.134082,-0.305438,-0.796989,-1.065536,-1.890466,-5.905387,-1.769772,3.871888,6.336290,-4.009149,26.386287,-0.090609,0.068011,0.000000,-0.176270,0.522667,-0.000000
2.670000,0.456673,1.160835,-1.225366,2.780239,-0.144827,-0.324144,-0.855721,-1.083429,-1.850434,-5.840285,-1.807830,4.133891,6.742192,-3.356208,26.006998,-0.092402,0.073255,0.000000,-0.182346,0.521823,-0.000000
2.680000,0.484432,1.159332,-1.228699,2.771391,-0.155752,-0.342438,-0.913775,-1.101644,-1.807802,-5.769325,-1.831740,4.391881,7.451001,-1.411487,25.583353,-0.094252,0.078491,0.000000,-0.187354,0.520769,0.000000
2.690000,0.512099,1.157720,-1.232213,2.761966,-0.166860,-0.360292,-0.971087,-1.120012,-1.762612,-5.692461,-1.840761,4.645401,7.862061,-0.627805,25.112752,-0.096145,0.083716,0.000000,-0.191216,0.519489,0.000000
2.700000,0.539669,1.155995,-1.235903,2.751972,-0.178152,-0.377682,-1.027612,-1.138438,-1.714910,-5.611597,-1.842135,4.893970,8.368995,0.598687,24.593378,-0.098075,0.088929,0.000000,-0.194538,0.518132,-0.000000
2.710000,0.567137,1.154156,-1.239765,2.741417,-0.189629,-0.394582,-1.083299,-1.156801,-1.664754,-5.524952,-1.828197,5.136315,8.876530,1.874354,24.008335,-0.100031,0.094128,0.000000,-0.196644,0.516524,0.000000
2.720000,0.594496,1.152201,-1.243793,2.730309,-0.201288,-0.410969,-1.138101,-1.174985,-1.612193,-5.434845,-1.807504,5.375262,9.224080,2.577071,23.635423,-0.102006,0.099312,0.000000,-0.198280,0.514876,0.000000
2.730000,0.621741,1.150129,-1.247983,2.718658,-0.213128,-0.426818,-1.191975,-1.192893,-1.557277,-5.338811,-1.770096,5.605974,9.984040,4.916691,22.493774,-0.103992,0.104478,0.000000,-0.198534,0.512922,-0.000000
2.740000,0.648867,1.147938,-1.252328,2.706473,-0.225144,-0.442107,-1.244856,-1.210326,-1.500104,-5.236809,-1.715394,5.827727,10.334087,5.712567,21.985852,-0.105972,0.109625,0.000000,-0.197323,0.510632,0.000000
2.750000,0.675869,1.145626,-1.256823,2.693764,-0.237332,-0.456813,-1.296702,-1.227181,-1.440737,-5.131469,-1.653172,6.044334,10.812951,7.043849,21.188592,-0.107937,0.114749,0.000000,-0.195507,0.508254,0.000000
2.760000,0.702741,1.143191,-1.261462,2.680542,-0.249685,-0.470914,-1.347468,-1.243338,-1.379255,-5.020863,-1.576012,6.250548,11.280140,8.357600,20.314506,-0.109878,0.119848,0.000000,-0.192370,0.505551,0.000000
2.770000,0.729478,1.140632,-1.266239,2.666819,-0.262196,-0.484391,-1.397106,-1.258660,-1.315734,-4.906145,-1.486318,6.452918,11.687276,9.608471,19.888651,-0.111781,0.124920,0.000000,-0.188155,0.502672,-0.000000
2.780000,0.756075,1.137947,-1.271148,2.652604,-0.274855,-0.497223,-1.445574,-1.273020,-1.250241,-4.786616,-1.383280,6.642642,12.217502,10.997118,18.038708,-0.113636,0.129963,0.000000,-0.182679,0.499444,-0.000000
2.790000,0.782528,1.135134,-1.276181,2.637911,-0.287653,-0.509390,-1.492822,-1.286281,-1.182929,-4.662358,-1.267025,6.818800,12.605806,12.220881,17.447720,-0.115430,0.134973,0.000000,-0.175906,0.495831,-0.000000
2.800000,0.808832,1.132193,-1.281333,2.622752,-0.300577,-0.520875,-1.538809,-1.298321,-1.113879,-4.534323,-1.138700,6.989169,13.024639,13.468319,16.353804,-0.117151,0.139946,0.000000,-0.167980,0.491985,0.000000
2.810000,0.834982,1.129122,-1.286597,2.607139,-0.313615,-0.531662,-1.583495,-1.309017,-1.043197,-4.402077,-0.998569,7.145244,13.426516,14.668880,15.185616,-0.118786,0.144879,0.000000,-0.158801,0.487739,-0.000000
2.820000,0.860973,1.125921,-1.291964,2.591087,-0.326752,-0.541734,-1.626837,-1.318243,-0.970987,-4.265803,-0.844374,7.295772,13.821081,16.049961,14.587973,-0.120322,0.149769,0.000000,-0.148218,0.483194,0.000000
2.830000,0.886802,1.122587,-1.297429,2.574607,-0.339974,-0.551077,-1.668798,-1.325871,-0.897338,-4.125804,-0.680094,7.430044,14.175791,16.794720,12.248036,-0.121746,0.154612,0.000000,-0.136432,0.478208,0.000000
2.840000,0.912464,1.119121,-1.302983,2.557715,-0.353264,-0.559677,-1.709342,-1.331814,-0.822446,-3.982258,-0.506351,7.547113,14.534697,18.059668,11.484246,-0.123047,0.159403,0.000000,-0.123445,0.472740,-0.000000
2.850000,0.937955,1.115522,-1.308620,2.540425,-0.366605,-0.567522,-1.748432,-1.335954,-0.746414,-3.835211,-0.320054,7.656800,14.867189,19.075932,10.120302,-0.124210,0.164137,0.000000,-0.109040,0.466907,-0.000000
2.860000,0.963271,1.111789,-1.314331,2.522752,-0.379977,-0.574602,-1.786035,-1.338189,-0.669371,-3.684909,-0.125469,7.749243,15.180948,20.018531,8.696204,-0.125224,0.168811,0.000000,-0.093450,0.460548,0.000000
2.870000,0.988409,1.107922,-1.320109,2.504710,-0.393362,-0.580906,-1.822120,-1.338418,-0.591450,-3.531743,0.081828,7.833671,15.457260,21.247341,7.857846,-0.126074,0.173420,0.000000,-0.076325,0.453808,0.000000
2.880000,1.013364,1.103921,-1.325947,2.486314,-0.406738,-0.586428,-1.856660,-1.336533,-0.512763,-3.375659,0.295418,7.899454,15.755979,21.453026,5.282776,-0.126747,0.177958,0.000000,-0.058090,0.446478,-0.000000
2.890000,1.038134,1.099787,-1.331835,2.467582,-0.420085,-0.591160,-1.889625,-1.332494,-0.433529,-3.216872,0.514328,7.945790,15.988741,22.500094,4.307478,-0.127232,0.182419,0.000000,-0.038785,0.438514,0.000000
2.900000,1.062715,1.095520,-1.337767,2.448527,-0.433381,-0.595097,-1.920990,-1.326209,-0.353872,-3.055892,0.743594,7.982720,16.211874,23.156270,2.746878,-0.127517,0.186798,0.000000,-0.018007,0.430094,-0.000000
2.910000,1.087104,1.091120,-1.343734,2.429167,-0.446602,-0.598236,-1.950736,-1.317614,-0.273941,-2.893052,0.976216,8.000850,16.403076,23.702324,1.151772,-0.127589,0.191089,0.000000,0.003735,0.421048,0.000000
2.920000,1.111297,1.086588,-1.349729,2.409518,-0.459725,-0.600576,-1.978841,-1.306640,-0.193886,-2.727454,1.220556,8.008232,16.662967,24.813171,0.053681,-0.127436,0.195286,0.000000,0.027185,0.411395,-0.000000
2.930000,1.135293,1.081926,-1.355743,2.389596,-0.472726,-0.602114,-2.005283,-1.293204,-0.113842,-2.560915,1.465086,7.996244,16.638701,24.067225,-2.461724,-0.127043,0.199382,0.000000,0.051386,0.401105,0.000000
2.940000,1.159088,1.077134,-1.361769,2.369418,-0.485581,-0.602853,-2.030058,-1.277344,-0.034030,-2.393779,1.708428,7.964392,16.833464,24.926736,-3.639122,-0.126407,0.203371,0.000000,0.076231,0.390153,0.000000
2.950000,1.182681,1.072215,-1.367798,2.349000,-0.498265,-0.602796,-2.053151,-1.259001,0.045412,-2.224766,1.960408,7.921150,16.915134,25.113030,-5.279426,-0.125513,0.207246,0.000000,0.102604,0.378540,-0.000000
2.960000,1.206068,1.067170,-1.373822,2.328360,-0.510753,-0.601947,-2.074554,-1.238146,0.124330,-2.055841,2.210600,7.859629,16.960117,25.192493,-6.913119,-0.124353,0.211000,0.000000,0.129598,0.366278,0.000000
2.970000,1.229247,1.062000,-1.379834,2.307515,-0.523019,-0.600312,-2.094259,-1.214765,0.202559,-1.884788,2.466537,7.783932,17.153169,25.703192,-8.332181,-0.122916,0.214626,0.000000,0.157924,0.353194,-0.000000
2.980000,1.252217,1.056710,-1.385826,2.286481,-0.535039,-0.597898,-2.112254,-1.188830,0.279950,-1.714817,2.718554,7.690773,16.832949,24.674956,-10.300217,-0.121193,0.218115,0.000000,0.186681,0.339494,0.000000
2.990000,1.274976,1.051301,-1.391789,2.265275,-0.546788,-0.594716,-2.128561,-1.160414,0.356316,-1.546362,2.965261,7.580166,16.946201,24.927080,-11.708951,-0.119182,0.221464,0.000000,0.215721,0.325182,-0.000000
3.000000,1.297522,1.045775,-1.397718,2.243915,-0.558239,-0.590776,-2.143176,-1.129512,0.431509,-1.376794,3.214397,7.455755,16.870085,24.605842,-13.276639,-0.116875,0.224663,0.000000,0.245777,0.310042,-0.000000
3.010000,1.319854,1.040137,-1.403602,2.222418,-0.569370,-0.586090,-2.156126,-1.096175,0.505376,-1.213931,3.451365,7.315172,16.663084,24.057234,-14.809044,-0.114269,0.227707,0.000000,0.275389,0.294778,0.000000
3.020000,1.341970,1.034389,-1.409437,2.200798,-0.580155,-0.580673,-2.167384,-1.060400,0.577764,-1.034740,3.707046,7.159930,18.234230,25.814724,-16.257102,-0.111356,0.230587,0.000000,0.307658,0.277055,-0.000000
3.030000,1.363870,1.028535,-1.415214,2.179076,-0.590569,-0.574541,-2.176872,-1.022116,0.648525,-0.868991,3.941139,6.989659,14.882876,20.949447,-17.790097,-0.108121,0.233285,0.000000,0.338474,0.259853,-0.000000
3.040000,1.385552,1.022579,-1.420925,2.157266,-0.600590,-0.567709,-2.184821,-0.981668,0.717508,-0.718192,4.150989,6.804788,16.219989,22.266331,-19.150785,-0.104594,0.235818,0.000000,0.367453,0.243353,-0.000000
3.050000,1.407015,1.016525,-1.426565,2.135385,-0.610195,-0.560197,-2.191171,-0.939025,0.784576,-0.552667,4.375486,6.606615,15.940742,21.363817,-20.498389,-0.100763,0.238170,0.000000,0.398566,0.224503,0.000000
3.060000,1.428259,1.010376,-1.432127,2.113448,-0.619363,-0.552024,-2.195863,-0.894199,0.849606,-0.385074,4.588809,6.397407,15.898390,20.546501,-21.738499,-0.096625,0.240327,0.000000,0.429054,0.204636,0.000000
3.070000,1.449284,1.004139,-1.437604,2.091473,-0.628073,-0.543212,-2.199010,-0.847338,0.912451,-0.250169,4.779344,6.168330,12.708751,18.268187,-23.671939,-0.092189,0.242292,0.000000,0.457753,0.187175,-0.000000
3.080000,1.470088,0.997817,-1.442989,2.069472,-0.636304,-0.533783,-2.200793,-0.798609,0.972953,-0.096760,4.969047,5.932468,18.021431,19.682928,-23.476230,-0.087468,0.244076,0.000000,0.486682,0.167091,-0.000000
3.090000,1.490673,0.991414,-1.448278,2.047463,-0.644038,-0.523761,-2.200864,-0.747953,1.031085,0.077267,5.158208,5.691084,15.137263,17.411003,-25.185348,-0.082454,0.245636,0.000000,0.515830,0.144137,-0.000000
3.100000,1.511038,0.984938,-1.453463,2.025460,-0.651257,-0.513170,-2.199381,-0.695538,1.086710,0.219873,5.323207,5.432392,15.018107,16.302107,-26.143448,-0.077160,0.246980,0.000000,0.542737,0.123559,-0.000000
3.110000,1.531182,0.978391,-1.458539,2.003480,-0.657944,-0.502035,-2.196443,-0.641531,1.139718,0.367130,5.475708,5.167984,14.733678,14.990996,-27.014169,-0.071604,0.248110,0.000000,0.568388,0.101841,-0.000000
3.120000,1.551107,0.971780,-1.463502,1.981536,-0.664083,-0.490384,-2.192024,-0.586004,1.190018,0.517255,5.630214,4.889722,14.989795,15.120329,-28.343173,-0.065790,0.249017,0.000000,0.594384,0.078956,0.000000
3.130000,1.570813,0.965111,-1.468345,1.959644,-0.669659,-0.478244,-2.186123,-0.529009,1.237501,0.660597,5.761544,4.607307,13.663602,11.112132,-28.116559,-0.059725,0.249694,0.000000,0.617766,0.056235,0.000000
3.140000,1.590301,0.958389,-1.473065,1.937818,-0.674659,-0.465644,-2.178839,-0.470862,1.282157,0.796401,5.868066,4.321999,13.790290,10.971657,-29.213682,-0.053445,0.250146,0.000000,0.638215,0.033840,0.000000
3.150000,1.609570,0.951620,-1.477657,1.916072,-0.679072,-0.452611,-2.170184,-0.411636,1.323899,0.933737,5.974138,4.025744,13.372219,9.450645,-29.739403,-0.046960,0.250368,0.000000,0.658421,0.010582,-0.000000
3.160000,1.628622,0.944810,-1.482116,1.894419,-0.682889,-0.439176,-2.160230,-0.351470,1.362669,1.055121,6.055822,3.727687,12.731758,7.835709,-30.157856,-0.040288,0.250364,0.000000,0.675538,-0.011307,0.000000
3.170000,1.647459,0.937964,-1.486439,1.872872,-0.686099,-0.425368,-2.148955,-0.290496,1.398416,1.205118,6.139539,3.420118,15.484236,7.977527,-31.047274,-0.033448,0.250126,0.000000,0.692481,-0.036959,0.000000
3.180000,1.666080,0.931090,-1.490622,1.851445,-0.688696,-0.411218,-2.136233,-0.228778,1.431076,1.327375,6.195862,3.113207,8.907437,3.255873,-30.310022,-0.026451,0.249635,0.000000,0.705809,-0.059782,0.000000
3.190000,1.684488,0.924192,-1.494662,1.830150,-0.690673,-0.396756,-2.122523,-0.166682,1.460689,1.419172,6.223372,2.808308,11.244448,3.181154,-30.949524,-0.019346,0.248942,0.000000,0.715233,-0.079327,0.000000
3.200000,1.702684,0.917278,-1.498556,1.808998,-0.692029,-0.382014,-2.107732,-0.104292,1.487216,1.536974,6.251555,2.497044,10.524795,1.524794,-30.992172,-0.012147,0.248034,0.000000,0.724085,-0.102132,0.000000
3.210000,1.720668,0.910354,-1.502302,1.788000,-0.692759,-0.367022,-2.091817,-0.041695,1.510652,1.645829,6.265921,2.190797,10.046590,0.082690,-30.886447,-0.004872,0.246903,0.000000,0.730638,-0.123902,0.000000
3.220000,1.738444,0.903425,-1.505896,1.767165,-0.692863,-0.351811,-2.074929,0.020876,1.530984,1.726866,6.241607,1.873693,7.324236,-3.710633,-31.892996,0.002446,0.245567,0.000000,0.731926,-0.142887,0.000000
3.230000,1.756012,0.896499,-1.509337,1.746504,-0.692342,-0.336413,-2.057241,0.083147,1.548163,1.816741,6.217641,1.566385,10.687131,-1.039300,-29.533905,0.009765,0.244042,0.000000,0.732451,-0.162596,0.000000
3.240000,1.773375,0.889581,-1.512624,1.726024,-0.691200,-0.320858,-2.038550,0.145246,1.562355,1.917073,6.196019,1.270648,8.204791,-4.522599,-30.230802,0.017094,0.242311,0.000000,0.732494,-0.183143,-0.000000
3.250000,1.790533,0.882677,-1.515754,1.705735,-0.689439,-0.305176,-2.019009,0.206924,1.573540,1.990815,6.137855,0.967427,7.714826,-5.865148,-29.769852,0.024396,0.240391,0.000000,0.727411,-0.200787,-0.000000
3.260000,1.807490,0.875794,-1.518727,1.685646,-0.687064,-0.289397,-1.998724,0.267982,1.581742,2.065213,6.071344,0.673994,7.152489,-7.267374,-29.230402,0.031638,0.238294,0.000000,0.720563,-0.218108,-0.000000
3.270000,1.824247,0.868938,-1.521542,1.665763,-0.684082,-0.273551,-1.977725,0.328318,1.587013,2.133756,5.994148,0.380071,6.568394,-8.322802,-29.224001,0.038800,0.236029,0.000000,0.711653,-0.234612,0.000000
3.280000,1.840806,0.862114,-1.524198,1.646094,-0.680500,-0.257667,-1.956067,0.387813,1.589380,2.196841,5.901720,0.096427,6.049427,-10.159435,-27.482845,0.045862,0.233602,0.000000,0.700214,-0.250011,-0.000000
3.290000,1.857170,0.855330,-1.526695,1.626644,-0.676329,-0.241773,-1.933806,0.446301,1.588982,2.254511,5.794334,-0.175773,5.472932,-11.148911,-27.266384,0.052796,0.231027,0.000000,0.686337,-0.264256,0.000000
3.300000,1.873340,0.848590,-1.529033,1.607419,-0.671578,-0.225896,-1.910996,0.503671,1.585866,2.306421,5.677572,-0.445963,4.921400,-12.352657,-26.441316,0.059583,0.228313,0.000000,0.670672,-0.277540,0.000000
3.310000,1.889319,0.841900,-1.531213,1.588426,-0.666259,-0.210064,-1.887696,0.559825,1.580103,2.352836,5.551684,-0.704994,4.372416,-13.417817,-25.553804,0.066205,0.225470,0.000000,0.653364,-0.289630,0.000000
3.320000,1.905109,0.835266,-1.533235,1.569667,-0.660386,-0.194303,-1.863957,0.614621,1.571780,2.393980,5.403878,-0.958683,3.847648,-15.546950,-24.982378,0.072639,0.222511,0.000000,0.632925,-0.300695,0.000000
3.330000,1.920713,0.828694,-1.535099,1.551148,-0.653972,-0.178637,-1.839834,0.667897,1.560971,2.429607,5.253262,-1.200426,3.278661,-14.546668,-23.352251,0.078861,0.219445,0.000000,0.611732,-0.310526,-0.000000
3.340000,1.936133,0.822189,-1.536808,1.532871,-0.647033,-0.163091,-1.815383,0.719687,1.547816,2.459774,5.101327,-1.429479,2.765733,-16.419894,-22.646194,0.084872,0.216285,0.000000,0.590042,-0.319115,0.000000
3.350000,1.951371,0.815755,-1.538362,1.514841,-0.639584,-0.147688,-1.790656,0.769849,1.532401,2.484862,4.930121,-1.651565,2.244028,-17.220499,-21.570889,0.090652,0.213043,0.000000,0.565771,-0.326657,-0.000000
3.360000,1.966430,0.809399,-1.539762,1.497059,-0.631642,-0.132450,-1.765712,0.818293,1.514826,2.502888,4.757844,-1.861587,1.695669,-17.911622,-20.469853,0.096188,0.209730,0.000000,0.541175,-0.332803,0.000000
3.370000,1.981313,0.803124,-1.541011,1.479527,-0.623224,-0.117398,-1.740589,0.864928,1.495203,2.521874,4.565787,-2.061250,1.780731,-19.820147,-19.418378,0.101466,0.206356,0.000000,0.514148,-0.338532,-0.000000
3.380000,1.996022,0.796936,-1.542111,1.462248,-0.614350,-0.102552,-1.715307,0.909620,1.473641,2.531772,4.375700,-2.249037,0.191339,-18.165045,-18.134432,0.106472,0.202930,0.000000,0.487301,-0.342672,-0.000000
3.390000,2.010559,0.790838,-1.543063,1.445221,-0.605038,-0.087932,-1.689987,0.952459,1.450263,2.532285,4.189192,-2.424697,0.240113,-19.799899,-17.035815,0.111214,0.199470,0.000000,0.460882,-0.345208,-0.000000
3.400000,2.024927,0.784836,-1.543870,1.428448,-0.595307,-0.073553,-1.664652,0.993336,1.425183,2.533871,3.985647,-2.589372,-0.244356,-20.226073,-15.857444,0.115682,0.195983,0.000000,0.432584,-0.347386,0.000000
3.410000,2.039129,0.778933,-1.544535,1.411928,-0.585178,-0.059433,-1.639316,1.032162,1.398513,2.532984,3.778685,-2.742793,-0.611158,-20.684238,-14.691517,0.119865,0.192477,0.000000,0.404045,-0.348818,0.000000
3.420000,2.053167,0.773134,-1.545060,1.395662,-0.574671,-0.045588,-1.614059,1.068933,1.370377,2.515450,3.576511,-2.881968,-2.230727,-20.197599,-13.274313,0.123766,0.188966,0.000000,0.376268,-0.347857,0.000000
3.430000,2.067043,0.767441,-1.545448,1.379646,-0.563806,-0.032030,-1.588988,1.103659,1.340906,2.502325,3.365335,-3.011030,-0.370119,-22.041164,-12.543260,0.127388,0.185466,0.000000,0.347718,-0.347021,0.000000
3.440000,2.080760,0.761859,-1.545702,1.363882,-0.552605,-0.018774,-1.563989,1.136206,1.310188,2.494736,3.145159,-3.130232,-1.812074,-21.521498,-11.167702,0.130718,0.181967,0.000000,0.318451,-0.346456,0.000000
3.450000,2.094321,0.756390,-1.545824,1.348366,-0.541089,-0.005830,-1.539156,1.166591,1.278350,2.471820,2.931198,-3.235552,-2.102888,-21.720205,-10.030041,0.133761,0.178486,0.000000,0.290242,-0.343754,-0.000000
3.460000,2.107728,0.751038,-1.545819,1.333098,-0.529280,0.006790,-1.514544,1.194831,1.245501,2.450040,2.717186,-3.332583,-2.402185,-21.749159,-8.950673,0.136524,0.175030,0.000000,0.262366,-0.340917,-0.000000
3.470000,2.120984,0.745806,-1.545690,1.318074,-0.517200,0.019077,-1.490177,1.220880,1.211769,2.422433,2.490192,-3.410695,-2.969506,-22.981496,-7.091944,0.139004,0.171607,0.000000,0.233545,-0.336982,-0.000000
3.480000,2.134091,0.740695,-1.545439,1.303293,-0.504870,0.031023,-1.466098,1.244668,1.177303,2.393786,2.271566,-3.483245,-2.753089,-20.713233,-7.435661,0.141199,0.168226,0.000000,0.206017,-0.332779,-0.000000
3.490000,2.147051,0.735709,-1.545070,1.288751,-0.492313,0.042621,-1.442302,1.266349,1.142116,2.364434,2.062820,-3.551083,-3.264090,-21.690282,-5.716643,0.143130,0.164885,0.000000,0.179934,-0.328372,0.000000
3.500000,2.159867,0.730849,-1.544588,1.274446,-0.479550,0.053863,-1.418829,1.285878,1.106347,2.329804,1.843584,-3.601250,-3.512577,-21.486437,-4.740906,0.144795,0.161594,0.000000,0.153227,-0.323040,-0.000000
3.510000,2.172540,0.726118,-1.543994,1.260374,-0.466603,0.064746,-1.395731,1.303252,1.070107,2.288826,1.631944,-3.645397,-3.853147,-21.229437,-3.803496,0.146199,0.158359,0.000000,0.127733,-0.316905,0.000000
3.520000,2.185075,0.721518,-1.543294,1.246530,-0.453492,0.075264,-1.372997,1.318494,1.033494,2.260396,1.415507,-3.674762,-2.634594,-21.666225,-2.357195,0.147349,0.155182,0.000000,0.102268,-0.311919,0.000000
3.530000,2.197472,0.717049,-1.542490,1.232913,-0.440240,0.085415,-1.350571,1.331591,0.996628,2.219301,1.206833,-3.698580,-5.607395,-20.049772,-2.421447,0.148249,0.152058,0.000000,0.078008,-0.305478,0.000000
3.540000,2.209734,0.712713,-1.541587,1.219517,-0.426867,0.095196,-1.328663,1.342663,0.959536,2.164557,1.006858,-3.717609,-4.527287,-20.327565,-1.105919,0.148914,0.149011,0.000000,0.055023,-0.297519,-0.000000
3.550000,2.221863,0.708512,-1.540587,1.206338,-0.413394,0.104605,-1.307226,1.351711,0.922326,2.121931,0.803687,-3.723247,-4.804286,-19.914953,-0.311293,0.149349,0.146036,0.000000,0.032207,-0.290733,-0.000000
3.560000,2.233861,0.704446,-1.539496,1.193371,-0.399840,0.113643,-1.286238,1.358740,0.885087,2.075741,0.602181,-3.723352,-4.951651,-19.587248,0.444967,0.149559,0.143132,0.000000,0.009920,-0.283545,-0.000000
3.570000,2.245731,0.700515,-1.538316,1.180612,-0.386225,0.122307,-1.265758,1.363831,0.847896,2.018174,0.419338,-3.712994,-6.052254,-17.748185,1.463541,0.149557,0.140306,0.000000,-0.009952,-0.275050,0.000000
3.580000,2.257474,0.696722,-1.537051,1.168054,-0.372569,0.130601,-1.245854,1.367103,0.810843,1.965390,0.231109,-3.697499,-4.485109,-19.917642,1.623874,0.149359,0.137567,0.000000,-0.030081,-0.267095,0.000000
3.590000,2.269093,0.693064,-1.535705,1.155693,-0.358890,0.138525,-1.226427,1.368426,0.773960,1.918310,0.036661,-3.677484,-5.438068,-18.189712,2.530610,0.148953,0.134902,0.000000,-0.050564,-0.259785,0.000000
3.600000,2.280589,0.689544,-1.534282,1.143524,-0.345207,0.146081,-1.207531,1.367911,0.737326,1.861040,-0.139220,-3.648365,-5.503590,-17.758517,3.129095,0.148357,0.132318,0.000000,-0.068720,-0.251353,-0.000000
3.610000,2.291964,0.686160,-1.532785,1.131540,-0.331537,0.153272,-1.189191,1.365647,0.701004,1.806986,-0.312581,-3.615227,-5.553591,-17.220817,3.677004,0.147581,0.129817,0.000000,-0.086346,-0.243321,0.000000
3.620000,2.303220,0.682913,-1.531218,1.119738,-0.317899,0.160102,-1.171413,1.361653,0.665054,1.747735,-0.486425,-3.573253,-6.051189,-17.243104,4.531474,0.146630,0.127400,0.000000,-0.103716,-0.234726,-0.000000
3.630000,2.314359,0.679802,-1.529584,1.108110,-0.304310,0.166575,-1.154226,1.355952,0.629547,1.691109,-0.651052,-3.528502,-5.263548,-15.669967,4.406652,0.145510,0.125070,0.000000,-0.119896,-0.226493,-0.000000
3.640000,2.325383,0.676826,-1.527887,1.096652,-0.290786,0.172695,-1.137578,1.348667,0.594490,1.637618,-0.805868,-3.481613,-5.676842,-15.595046,5.146403,0.144236,0.122820,0.000000,-0.134855,-0.218677,-0.000000
3.650000,2.336293,0.673986,-1.526131,1.085357,-0.277342,0.178466,-1.121493,1.339830,0.559943,1.579699,-0.960322,-3.427240,-5.660773,-14.990327,5.540951,0.142814,0.120653,0.000000,-0.149542,-0.210410,-0.000000
3.660000,2.347091,0.671279,-1.524319,1.074220,-0.263994,0.183895,-1.105982,1.329484,0.525953,1.522379,-1.107919,-3.370278,-5.661347,-14.407278,5.903014,0.141249,0.118568,0.000000,-0.163353,-0.202289,0.000000
3.670000,2.357778,0.668706,-1.522454,1.063235,-0.250757,0.188987,-1.091033,1.317701,0.492553,1.467822,-1.247339,-3.308788,-5.385408,-13.591230,6.334507,0.139550,0.116565,0.000000,-0.176138,-0.194515,0.000000
3.680000,2.368356,0.666264,-1.520540,1.052397,-0.237645,0.193749,-1.076631,1.304552,0.459785,1.411824,-1.382156,-3.244847,-5.816736,-13.374754,6.446221,0.137728,0.114640,0.000000,-0.188326,-0.186670,0.000000
3.690000,2.378826,0.663952,-1.518580,1.041701,-0.224670,0.198185,-1.062803,1.290072,0.427663,1.354304,-1.512468,-3.178877,-5.546775,-12.569729,6.797298,0.135786,0.112796,0.000000,-0.199946,-0.178750,-0.000000
3.700000,2.389190,0.661770,-1.516578,1.031139,-0.211847,0.202304,-1.049533,1.274332,0.396219,1.299744,-1.634533,-3.109476,-5.501818,-11.959493,7.022360,0.133732,0.111030,0.000000,-0.210598,-0.171205,-0.000000
3.710000,2.399449,0.659715,-1.514535,1.020708,-0.199188,0.206112,-1.036810,1.257397,0.365477,1.244814,-1.751472,-3.038702,-5.442906,-11.348408,7.209700,0.131575,0.109341,0.000000,-0.220657,-0.163706,-0.000000
3.720000,2.409605,0.657785,-1.512456,1.010401,-0.186703,0.209616,-1.024631,1.239330,0.335458,1.191282,-1.860765,-2.964625,-5.300653,-10.587428,7.520570,0.129322,0.107727,0.000000,-0.229845,-0.156412,-0.000000
3.730000,2.419658,0.655980,-1.510344,1.000214,-0.174405,0.212824,-1.012984,1.220199,0.306186,1.138020,-1.964848,-2.890068,-5.351663,-10.231872,7.383570,0.126980,0.106186,0.000000,-0.238468,-0.149236,-0.000000
3.740000,2.429609,0.654297,-1.508201,0.990140,-0.162303,0.215742,-1.001870,1.200049,0.277656,1.085055,-2.063843,-2.815428,-5.200981,-9.489521,7.620643,0.124555,0.104718,0.000000,-0.246552,-0.142178,-0.000000
3.750000,2.439461,0.652733,-1.506030,0.980175,-0.150407,0.218379,-0.991277,1.178948,0.249886,1.033696,-2.155312,-2.738426,-5.108740,-8.882845,7.694561,0.122052,0.103320,0.000000,-0.253828,-0.135346,0.000000
3.760000,2.449213,0.651288,-1.503834,0.970313,-0.138727,0.220743,-0.981196,1.156959,0.222887,0.982552,-2.241512,-2.661342,-5.018160,-8.283993,7.745524,0.119480,0.101990,0.000000,-0.260568,-0.128617,-0.000000
3.770000,2.458867,0.649958,-1.501616,0.960549,-0.127270,0.222840,-0.971615,1.134144,0.196663,0.934281,-2.320329,-2.583343,-4.732584,-7.552201,7.824057,0.116843,0.100727,0.000000,-0.266552,-0.122249,-0.000000
3.780000,2.468425,0.648742,-1.499378,0.950879,-0.116046,0.224678,-0.962512,1.110569,0.171220,0.885874,-2.394088,-2.505489,-4.950645,-7.203044,7.742404,0.114150,0.099528,0.000000,-0.272041,-0.115941,-0.000000
3.790000,2.477885,0.647636,-1.497123,0.941297,-0.105061,0.226267,-0.953899,1.086278,0.146552,0.837265,-2.462960,-2.428028,-4.671481,-6.500226,7.773360,0.111404,0.098393,0.000000,-0.277063,-0.109685,0.000000
3.800000,2.487251,0.646640,-1.494854,0.931799,-0.094323,0.227612,-0.945755,1.061335,0.122660,0.791631,-2.524737,-2.350312,-4.552387,-5.929019,7.740272,0.108611,0.097320,0.000000,-0.281387,-0.103794,-0.000000
3.810000,2.496522,0.645749,-1.492572,0.922381,-0.083837,0.228722,-0.938060,1.035799,0.099545,0.747724,-2.581556,-2.272789,-4.401048,-5.369858,7.698666,0.105778,0.096304,0.000000,-0.285244,-0.098140,-0.000000
3.820000,2.505699,0.644962,-1.490280,0.913037,-0.073609,0.229605,-0.930809,1.009728,0.077198,0.702039,-2.631557,-2.196969,-4.567011,-4.696587,7.523767,0.102909,0.095346,0.000000,-0.288470,-0.092378,-0.000000
3.830000,2.514783,0.644276,-1.487981,0.903763,-0.063644,0.230269,-0.924006,0.983183,0.055606,0.659927,-2.676876,-2.121083,-3.849254,-4.370989,7.653077,0.100010,0.094445,0.000000,-0.291260,-0.087031,0.000000
3.840000,2.523774,0.643688,-1.485675,0.894555,-0.053946,0.230720,-0.917596,0.956205,0.034777,0.621672,-2.717711,-2.045185,-3.970610,-3.732991,7.462967,0.097085,0.093595,0.000000,-0.293640,-0.082121,-0.000000
3.850000,2.532674,0.643196,-1.483367,0.885410,-0.044521,0.230967,-0.911580,0.928851,0.014695,0.581968,-2.752128,-1.971346,-3.800822,-3.217173,7.364628,0.094139,0.092796,0.000000,-0.295443,-0.077128,-0.000000
3.860000,2.541482,0.642797,-1.481057,0.876322,-0.035370,0.231017,-0.905950,0.901177,-0.004652,0.544203,-2.782001,-1.898154,-3.650428,-2.714587,7.253648,0.091177,0.092045,0.000000,-0.296842,-0.072379,-0.000000
3.870000,2.550200,0.642488,-1.478747,0.867289,-0.026498,0.230876,-0.900683,0.873231,-0.023274,0.509900,-2.806049,-1.826476,-3.308341,-2.140783,7.098313,0.088204,0.091341,0.000000,-0.297718,-0.068029,-0.000000
3.880000,2.558828,0.642266,-1.476440,0.858308,-0.017907,0.230553,-0.895752,0.845070,-0.041185,0.475976,-2.825776,-1.755841,-3.479216,-1.808341,7.027893,0.085224,0.090679,0.000000,-0.298221,-0.063762,0.000000
3.890000,2.567367,0.642129,-1.474137,0.849373,-0.009597,0.230055,-0.891163,0.816729,-0.058394,0.442310,-2.841379,-1.686306,-3.154412,-1.270346,6.859862,0.082241,0.090060,0.000000,-0.298373,-0.059563,-0.000000
3.900000,2.575816,0.642073,-1.471839,0.840483,-0.001572,0.229388,-0.886892,0.788261,-0.074917,0.412048,-2.851604,-1.618512,-2.996932,-0.820918,6.715842,0.079258,0.089482,0.000000,-0.298052,-0.055749,-0.000000
3.910000,2.584177,0.642096,-1.469549,0.831634,0.006167,0.228559,-0.882923,0.759710,-0.090768,0.381994,-2.857790,-1.551954,-2.850647,-0.386627,6.568878,0.076281,0.088942,0.000000,-0.297390,-0.051995,-0.000000
3.920000,2.592449,0.642196,-1.467269,0.822824,0.013622,0.227575,-0.879234,0.731122,-0.105963,0.356532,-2.859090,-1.487370,-2.399253,0.093105,6.371248,0.073312,0.088437,0.000000,-0.296305,-0.048740,-0.000000
3.930000,2.600633,0.642368,-1.464999,0.814049,0.020790,0.226442,-0.875795,0.702541,-0.120520,0.330704,-2.856630,-1.424041,-2.771055,0.395548,6.294817,0.070356,0.087965,0.000000,-0.294907,-0.045481,-0.000000
3.940000,2.608730,0.642610,-1.462740,0.805307,0.027673,0.225166,-0.872624,0.674001,-0.134448,0.304307,-2.850601,-1.361962,-2.348739,0.839113,6.096635,0.067415,0.087526,0.000000,-0.293215,-0.042197,0.000000
3.950000,2.616739,0.642920,-1.460496,0.796596,0.034270,0.223755,-0.869691,0.645544,-0.147766,0.282386,-2.840161,-1.301913,-2.193742,1.214660,5.937533,0.064493,0.087117,0.000000,-0.291146,-0.039394,0.000000
3.960000,2.624662,0.643295,-1.458266,0.787913,0.040584,0.222213,-0.866969,0.617208,-0.160489,0.262343,-2.826391,-1.242820,-2.004618,1.572794,5.787101,0.061593,0.086735,0.000000,-0.288801,-0.036802,0.000000
3.970000,2.632498,0.643731,-1.456052,0.779256,0.046615,0.220547,-0.864453,0.589031,-0.172635,0.240552,-2.808425,-1.187034,-2.168626,1.982894,5.461257,0.058718,0.086380,0.000000,-0.286110,-0.034079,-0.000000
3.980000,2.640247,0.644226,-1.453855,0.770623,0.052365,0.218762,-0.862143,0.561049,-0.184230,0.222857,-2.787517,-1.131678,-1.364219,2.195034,5.612953,0.055871,0.086051,0.000000,-0.283174,-0.031780,0.000000
3.990000,2.647910,0.644777,-1.451677,0.762012,0.057837,0.216864,-0.859980,0.533289,-0.195269,0.209537,-2.763869,-1.076615,-1.486002,2.567265,5.307850,0.053055,0.085742,0.000000,-0.280014,-0.029928,0.000000
4.000000,2.655487,0.645382,-1.449518,0.753423,0.063032,0.214859,-0.857961,0.505785,-0.205775,0.194731,-2.736524,-1.024729,-1.289838,2.864247,5.160990,0.050272,0.085452,0.000000,-0.276551,-0.027966,-0.000000
4.010000,2.662979,0.646037,-1.447380,0.744853,0.067953,0.212750,-0.856075,0.478567,-0.215765,0.182655,-2.706577,-0.973670,-1.107146,3.145665,5.014304,0.047525,0.085181,0.000000,-0.272878,-0.026290,-0.000000
4.020000,2.670385,0.646740,-1.445264,0.736301,0.072604,0.210545,-0.854300,0.451664,-0.225256,0.172756,-2.673449,-0.924774,-0.890403,3.455055,4.801128,0.044816,0.084925,0.000000,-0.268942,-0.024855,-0.000000
4.030000,2.677705,0.647488,-1.443170,0.727766,0.076988,0.208247,-0.852615,0.425106,-0.234264,0.164477,-2.637998,-0.876885,-0.765898,3.632003,4.778172,0.042147,0.084683,0.000000,-0.264822,-0.023595,0.000000
4.040000,2.684940,0.648279,-1.441099,0.719248,0.081108,0.205861,-0.851005,0.398911,-0.242796,0.157791,-2.600405,-0.829924,-0.553851,3.906579,4.578451,0.039520,0.084452,0.000000,-0.260534,-0.022506,0.000000
4.050000,2.692090,0.649110,-1.439053,0.710746,0.084967,0.203392,-0.849452,0.373107,-0.250870,0.153251,-2.560107,-0.784999,-0.372544,4.127918,4.443420,0.036937,0.084231,0.000000,-0.256026,-0.021651,0.000000
4.060000,2.699155,0.649978,-1.437031,0.702259,0.088571,0.200845,-0.847935,0.347716,-0.258499,0.150308,-2.517875,-0.741033,-0.194241,4.333932,4.313886,0.034400,0.084018,0.000000,-0.251367,-0.020966,0.000000
4.070000,2.706135,0.650880,-1.435036,0.693787,0.091923,0.198224,-0.846438,0.322758,-0.265698,0.149563,-2.473314,-0.699044,0.023448,4.558602,4.120079,0.031910,0.083811,0.000000,-0.246520,-0.020517,-0.000000
4.080000,2.713031,0.651815,-1.433067,0.685330,0.095028,0.195533,-0.844939,0.298255,-0.272482,0.150322,-2.427113,-0.657876,0.127298,4.678669,4.115266,0.029470,0.083607,0.000000,-0.241548,-0.020226,0.000000
4.090000,2.719842,0.652780,-1.431125,0.676888,0.097890,0.192776,-0.843427,0.274220,-0.278857,0.152533,-2.379439,-0.617440,0.336082,4.871192,3.936869,0.027079,0.083406,0.000000,-0.236467,-0.020087,0.000000
4.100000,2.726569,0.653772,-1.429212,0.668462,0.100514,0.189957,-0.841881,0.250672,-0.284838,0.156851,-2.329883,-0.578821,0.505597,5.020170,3.823159,0.024741,0.083205,0.000000,-0.231237,-0.020173,-0.000000
4.110000,2.733211,0.654789,-1.427327,0.660051,0.102905,0.187080,-0.840285,0.227627,-0.290436,0.162740,-2.279069,-0.540990,0.673305,5.155071,3.714916,0.022455,0.083002,0.000000,-0.225915,-0.020422,-0.000000
4.120000,2.739770,0.655830,-1.425470,0.651656,0.105068,0.184149,-0.838621,0.205097,-0.295664,0.170321,-2.226689,-0.504770,0.840873,5.304312,3.557428,0.020223,0.082795,0.000000,-0.220471,-0.020851,-0.000000
4.130000,2.746244,0.656890,-1.423644,0.643279,0.107009,0.181168,-0.836873,0.183096,-0.300534,0.179512,-2.173331,-0.469245,0.996558,5.364603,3.549099,0.018046,0.082584,0.000000,-0.214960,-0.021446,-0.000000
4.140000,2.752635,0.657969,-1.421847,0.634919,0.108732,0.178140,-0.835025,0.161633,-0.305050,0.190273,-2.119146,-0.434335,1.156674,5.484807,3.405786,0.015924,0.082366,0.000000,-0.209396,-0.022201,0.000000
4.150000,2.758943,0.659064,-1.420081,0.626579,0.110243,0.175068,-0.833062,0.140717,-0.309226,0.202609,-2.063803,-0.400876,1.309213,5.567458,3.314238,0.013858,0.082139,0.000000,-0.203745,-0.023125,-0.000000
4.160000,2.765167,0.660173,-1.418346,0.618259,0.111548,0.171956,-0.830968,0.120358,-0.313070,0.216413,-2.007823,-0.368081,1.457124,5.637593,3.226997,0.011849,0.081903,0.000000,-0.198056,-0.024198,0.000000
4.170000,2.771308,0.661294,-1.416642,0.609960,0.112652,0.168808,-0.828728,0.100564,-0.316592,0.231794,-1.950989,-0.336493,1.612142,5.716416,3.109264,0.009897,0.081655,0.000000,-0.192308,-0.025437,-0.000000
4.180000,2.777366,0.662426,-1.414970,0.601684,0.113561,0.165626,-0.826328,0.081340,-0.319801,0.248511,-1.893759,-0.305507,1.730107,5.727484,3.089095,0.008003,0.081394,0.000000,-0.186542,-0.026814,0.000000
4.190000,2.783342,0.663565,-1.413330,0.593434,0.114281,0.162413,-0.823754,0.062689,-0.322703,0.266502,-1.836260,-0.275061,1.873503,5.781115,2.982742,0.006166,0.081118,0.000000,-0.180772,-0.028320,0.000000
4.200000,2.789235,0.664711,-1.411722,0.585210,0.114817,0.159173,-0.820993,0.044617,-0.325307,0.285915,-1.778263,-0.245688,2.001390,5.805538,2.910582,0.004388,0.080827,0.000000,-0.174972,-0.029976,0.000000
4.210000,2.795046,0.665861,-1.410146,0.577015,0.115175,0.155908,-0.818032,0.027124,-0.327619,0.306477,-1.720191,-0.216885,2.122329,5.818730,2.841747,0.002667,0.080518,0.000000,-0.169183,-0.031751,-0.000000
4.220000,2.800775,0.667013,-1.408604,0.568850,0.115361,0.152621,-0.814858,0.010214,-0.329647,0.328457,-1.661817,-0.188922,2.260604,5.843238,2.759906,0.001004,0.080191,0.000000,-0.163382,-0.033673,-0.000000
4.230000,2.806423,0.668167,-1.407094,0.560718,0.115381,0.149316,-0.811460,-0.006113,-0.331399,0.351415,-1.603593,-0.161499,2.329608,5.799525,2.725518,-0.000601,0.079844,0.000000,-0.157612,-0.035697,0.000000
4.240000,2.811990,0.669321,-1.405617,0.552622,0.115241,0.145994,-0.807827,-0.021859,-0.332879,0.375272,-1.545632,-0.134573,2.452904,5.802494,2.651661,-0.002148,0.079477,0.000000,-0.151882,-0.037815,0.000000
4.250000,2.817476,0.670472,-1.404174,0.544563,0.114946,0.142659,-0.803950,-0.037025,-0.334093,0.400349,-1.487668,-0.108390,2.549150,5.777469,2.594582,-0.003638,0.079088,0.000000,-0.146166,-0.040061,0.000000
4.260000,2.822881,0.671619,-1.402764,0.536544,0.114502,0.139313,-0.799817,-0.051613,-0.335048,0.426317,-1.429991,-0.082669,2.639809,5.745699,2.540819,-0.005072,0.078675,0.000000,-0.140491,-0.042401,0.000000
4.270000,2.828207,0.672761,-1.401388,0.528567,0.113916,0.135959,-0.795421,-0.065627,-0.335749,0.453090,-1.372880,-0.057650,2.716931,5.685695,2.472193,-0.006449,0.078239,0.000000,-0.134882,-0.044827,-0.000000
4.280000,2.833453,0.673897,-1.400045,0.520636,0.113192,0.132599,-0.790753,-0.079072,-0.336202,0.480704,-1.316086,-0.033030,2.804908,5.672181,2.452449,-0.007770,0.077779,0.000000,-0.129316,-0.047342,0.000000
4.290000,2.838620,0.675025,-1.398736,0.512753,0.112336,0.129236,-0.785804,-0.091950,-0.336411,0.509093,-1.259671,-0.008775,2.868125,5.598951,2.389827,-0.009035,0.077292,0.000000,-0.123796,-0.049940,-0.000000
4.300000,2.843708,0.676143,-1.397460,0.504921,0.111355,0.125872,-0.780569,-0.104268,-0.336380,0.538077,-1.204042,0.014844,2.930209,5.536314,2.343819,-0.010246,0.076780,0.000000,-0.118362,-0.052605,0.000000
4.310000,2.848718,0.677251,-1.396218,0.497143,0.110253,0.122509,-0.775041,-0.116033,-0.336115,0.567539,-1.149073,0.038016,2.981747,5.465226,2.298059,-0.011402,0.076240,0.000000,-0.113000,-0.055324,-0.000000
4.320000,2.853651,0.678348,-1.395010,0.489421,0.109036,0.119150,-0.769215,-0.127251,-0.335621,0.597879,-1.094677,0.060877,3.064660,5.404328,2.267167,-0.012506,0.075673,0.000000,-0.107701,-0.058136,-0.000000
4.330000,2.858507,0.679432,-1.393835,0.481759,0.107709,0.115797,-0.763083,-0.137930,-0.334900,0.628378,-1.041188,0.083215,3.033216,5.292226,2.200310,-0.013557,0.075077,0.000000,-0.102497,-0.060973,0.000000
4.340000,2.863286,0.680502,-1.392694,0.474160,0.106279,0.112453,-0.756647,-0.148078,-0.333958,0.658929,-0.988677,0.105029,3.096085,5.217793,2.169876,-0.014556,0.074453,0.000000,-0.097394,-0.063824,0.000000
4.350000,2.867990,0.681557,-1.391586,0.466627,0.104750,0.109119,-0.749902,-0.157706,-0.332800,0.690092,-0.936922,0.126553,3.115466,5.123435,2.127904,-0.015505,0.073800,0.000000,-0.092370,-0.066742,0.000000
4.360000,2.872619,0.682596,-1.390512,0.459163,0.103126,0.105797,-0.742846,-0.166820,-0.331429,0.721170,-0.886201,0.147579,3.125285,5.024254,2.085973,-0.016404,0.073118,0.000000,-0.087450,-0.069662,-0.000000
4.370000,2.877174,0.683619,-1.389470,0.451772,0.101415,0.102491,-0.735477,-0.175433,-0.329849,0.752814,-0.836413,0.168352,3.176515,4.928566,2.060382,-0.017254,0.072406,0.000000,-0.082624,-0.072646,-0.000000
4.380000,2.881655,0.684624,-1.388462,0.444455,0.099619,0.099201,-0.727791,-0.183552,-0.328064,0.784132,-0.787730,0.188613,3.084762,4.807357,1.991562,-0.018057,0.071665,0.000000,-0.077909,-0.075608,-0.000000
4.390000,2.886063,0.685611,-1.387486,0.437217,0.097745,0.095930,-0.719796,-0.191191,-0.326079,0.815003,-0.740195,0.208351,3.114103,4.703265,1.964542,-0.018813,0.070894,0.000000,-0.073308,-0.078536,0.000000
4.400000,2.890399,0.686579,-1.386543,0.430060,0.095797,0.092680,-0.711489,-0.198360,-0.323897,0.846172,-0.693713,0.227829,3.091794,4.588757,1.922960,-0.019523,0.070094,0.000000,-0.068811,-0.081503,0.000000
4.410000,2.894665,0.687527,-1.385633,0.422988,0.093780,0.089453,-0.702874,-0.205069,-0.321524,0.876973,-0.648287,0.246858,3.063196,4.474230,1.881921,-0.020189,0.069264,0.000000,-0.064418,-0.084445,0.000000
4.420000,2.898859,0.688454,-1.384754,0.416004,0.091697,0.086250,-0.693951,-0.211331,-0.318962,0.907375,-0.604435,0.265456,3.019604,4.316819,1.838580,-0.020812,0.068405,0.000000,-0.060178,-0.087358,0.000000
4.430000,2.902985,0.689361,-1.383907,0.409110,0.089555,0.083074,-0.684727,-0.217160,-0.316216,0.937414,-0.561518,0.283649,2.986991,4.267023,1.799871,-0.021393,0.067516,0.000000,-0.056030,-0.090246,-0.000000
4.440000,2.907042,0.690245,-1.383092,0.402310,0.087356,0.079927,-0.675205,-0.222564,-0.313290,0.967016,-0.519525,0.301432,2.928276,4.109932,1.755527,-0.021933,0.066599,0.000000,-0.051970,-0.093101,0.000000
4.450000,2.911032,0.691108,-1.382309,0.395607,0.085105,0.076809,-0.665389,-0.227557,-0.310189,0.995982,-0.479143,0.318765,2.867597,3.987353,1.711968,-0.022433,0.065654,0.000000,-0.048067,-0.095906,-0.000000
4.460000,2.914954,0.691947,-1.381556,0.389003,0.082806,0.073723,-0.655287,-0.232151,-0.306916,1.024212,-0.439864,0.335597,2.796729,3.862721,1.666083,-0.022895,0.064681,0.000000,-0.044270,-0.098649,0.000000
4.470000,2.918812,0.692764,-1.380834,0.382502,0.080463,0.070671,-0.644906,-0.236359,-0.303477,1.052070,-0.401942,0.352191,2.754604,3.726780,1.641212,-0.023319,0.063681,0.000000,-0.040604,-0.101366,-0.000000
4.480000,2.922605,0.693556,-1.380143,0.376106,0.078080,0.067654,-0.634250,-0.240193,-0.299875,1.078881,-0.365218,0.368176,2.605655,3.618208,1.555116,-0.023707,0.062654,0.000000,-0.037051,-0.103992,-0.000000
4.490000,2.926334,0.694325,-1.379481,0.369818,0.075660,0.064674,-0.623332,-0.243667,-0.296116,1.104543,-0.329688,0.383522,2.544696,3.482255,1.525382,-0.024060,0.061601,0.000000,-0.033613,-0.106518,-0.000000
4.500000,2.930002,0.695069,-1.378849,0.363640,0.073208,0.061733,-0.612161,-0.246792,-0.292205,1.129576,-0.295527,0.398582,2.442894,3.355348,1.474763,-0.024380,0.060523,0.000000,-0.030305,-0.108991,0.000000
4.510000,2.933608,0.695789,-1.378246,0.357575,0.070726,0.058831,-0.600744,-0.249581,-0.288147,1.153485,-0.262567,0.413023,2.335726,3.229047,1.422369,-0.024667,0.059421,0.000000,-0.027112,-0.111366,0.000000
4.520000,2.937153,0.696484,-1.377672,0.351626,0.068217,0.055970,-0.589095,-0.252048,-0.283946,1.176249,-0.231015,0.427109,2.217836,3.088936,1.385595,-0.024923,0.058295,0.000000,-0.024053,-0.113638,-0.000000
4.530000,2.940640,0.697153,-1.377127,0.345794,0.065686,0.053152,-0.577223,-0.254205,-0.279607,1.197856,-0.200632,0.440544,2.102448,2.987870,1.300894,-0.025148,0.057147,0.000000,-0.021104,-0.115808,-0.000000
4.540000,2.944070,0.697798,-1.376609,0.340082,0.063134,0.050379,-0.565142,-0.256064,-0.275137,1.218238,-0.171403,0.453301,1.970868,2.850660,1.259226,-0.025345,0.055979,0.000000,-0.018264,-0.117869,-0.000000
4.550000,2.947443,0.698416,-1.376119,0.334492,0.060565,0.047650,-0.552863,-0.257638,-0.270542,1.237266,-0.143551,0.465646,1.835581,2.727212,1.200721,-0.025514,0.054790,0.000000,-0.015555,-0.119805,-0.000000
4.560000,2.950760,0.699009,-1.375656,0.329026,0.057982,0.044968,-0.540401,-0.258939,-0.265826,1.254925,-0.116835,0.477371,1.693594,2.605686,1.141461,-0.025657,0.053582,0.000000,-0.012954,-0.121617,0.000000
4.570000,2.954023,0.699576,-1.375219,0.323685,0.055387,0.042334,-0.527770,-0.259980,-0.260997,1.271103,-0.091530,0.488447,1.542351,2.465775,1.075828,-0.025774,0.052357,0.000000,-0.010486,-0.123293,-0.000000
4.580000,2.957234,0.700117,-1.374809,0.318471,0.052783,0.039748,-0.514984,-0.260773,-0.256059,1.285779,-0.067297,0.498933,1.391929,2.381438,1.021238,-0.025867,0.051116,0.000000,-0.008119,-0.124830,0.000000
4.590000,2.960393,0.700631,-1.374424,0.313385,0.050173,0.037213,-0.502059,-0.261329,-0.251020,1.298894,-0.044104,0.508817,1.228680,2.247159,0.952670,-0.025936,0.049860,0.000000,-0.005850,-0.126221,0.000000
4.600000,2.963502,0.701120,-1.374065,0.308430,0.047558,0.034728,-0.489012,-0.261660,-0.245885,1.310325,-0.022260,0.517999,1.059886,2.132506,0.886261,-0.025984,0.048591,0.000000,-0.003708,-0.127455,0.000000
4.610000,2.966562,0.701582,-1.373730,0.303606,0.044940,0.032296,-0.475859,-0.261778,-0.240662,1.319852,-0.001430,0.526463,0.881626,2.020806,0.816755,-0.026011,0.047311,0.000000,-0.001662,-0.128508,0.000000
4.620000,2.969575,0.702019,-1.373419,0.298913,0.042323,0.029915,-0.462618,-0.261693,-0.235358,1.328279,0.018045,0.534425,0.766774,1.887257,0.765048,-0.026018,0.046020,0.000000,0.000255,-0.129460,0.000000
4.630000,2.972541,0.702429,-1.373131,0.294354,0.039707,0.027589,-0.449302,-0.261420,-0.229977,1.334413,0.036586,0.541543,0.457979,1.821674,0.657963,-0.026006,0.044721,0.000000,0.002084,-0.130191,-0.000000
4.640000,2.975462,0.702813,-1.372867,0.289927,0.037095,0.025316,-0.435938,-0.260965,-0.224530,1.338148,0.054234,0.547785,0.324547,1.695683,0.600280,-0.025976,0.043416,0.000000,0.003831,-0.130692,-0.000000
4.650000,2.978340,0.703171,-1.372625,0.285635,0.034488,0.023098,-0.422542,-0.260339,-0.219023,1.340584,0.070615,0.553457,0.124903,1.593677,0.523414,-0.025930,0.042107,0.000000,0.005457,-0.131069,0.000000
4.660000,2.981175,0.703503,-1.372404,0.281476,0.031889,0.020936,-0.409134,-0.259555,-0.213463,1.340804,0.086082,0.558269,-0.077801,1.494296,0.444570,-0.025867,0.040795,0.000000,0.006997,-0.131231,-0.000000
4.670000,2.983970,0.703809,-1.372206,0.277452,0.029298,0.018829,-0.395733,-0.258622,-0.207860,1.339048,0.100456,0.562397,-0.277752,1.386669,0.374900,-0.025790,0.039482,0.000000,0.008432,-0.131200,0.000000
4.680000,2.986725,0.704089,-1.372028,0.273562,0.026717,0.016779,-0.382360,-0.257549,-0.202219,1.335158,0.113945,0.565641,-0.501121,1.311945,0.273537,-0.025699,0.038171,0.000000,0.009785,-0.130961,0.000000
4.690000,2.989442,0.704343,-1.371870,0.269805,0.024147,0.014785,-0.369037,-0.256345,-0.196550,1.329088,0.126589,0.567977,-0.709698,1.211418,0.199153,-0.025595,0.036863,0.000000,0.011058,-0.130508,0.000000
4.700000,2.992122,0.704572,-1.371732,0.266181,0.021590,0.012848,-0.355785,-0.255021,-0.190861,1.320923,0.138231,0.569568,-0.927803,1.123600,0.113135,-0.025478,0.035560,0.000000,0.012236,-0.129848,-0.000000
4.710000,2.994766,0.704775,-1.371613,0.262689,0.019047,0.010968,-0.342626,-0.253583,-0.185161,1.310513,0.149097,0.570295,-1.149434,1.039740,0.026443,-0.025350,0.034266,0.000000,0.013341,-0.128966,-0.000000
4.720000,2.997376,0.704953,-1.371512,0.259328,0.016519,0.009145,-0.329582,-0.252042,-0.179459,1.297973,0.158942,0.570042,-1.364107,0.939817,-0.072071,-0.025212,0.032981,0.000000,0.014348,-0.127872,-0.000000
4.730000,2.999953,0.705105,-1.371430,0.256097,0.014006,0.007379,-0.316674,-0.250407,-0.173763,1.283118,0.168113,0.568958,-1.607518,0.895205,-0.144761,-0.025064,0.031708,0.000000,0.015291,-0.126546,-0.000000
4.740000,3.002498,0.705233,-1.371364,0.252994,0.011511,0.005669,-0.303927,-0.248682,-0.168082,1.265917,0.176655,0.567035,-1.827883,0.803694,-0.245511,-0.024906,0.030450,0.000000,0.016176,-0.124984,0.000000
4.750000,3.005013,0.705336,-1.371316,0.250018,0.009033,0.004017,-0.291363,-0.246877,-0.162426,1.246518,0.184283,0.564087,-2.057964,0.732486,-0.338984,-0.024740,0.029209,0.000000,0.016972,-0.123201,0.000000
4.760000,3.007499,0.705414,-1.371284,0.247166,0.006574,0.002421,-0.279005,-0.244998,-0.156804,1.224788,0.191309,0.560187,-2.289259,0.664788,-0.435111,-0.024567,0.027986,0.000000,0.017712,-0.121182,-0.000000
4.770000,3.009957,0.705467,-1.371268,0.244437,0.004133,0.000881,-0.266875,-0.243053,-0.151225,1.200720,0.197512,0.555436,-2.523367,0.584499,-0.521335,-0.024386,0.026785,0.000000,0.018372,-0.118925,0.000000
4.780000,3.012388,0.705496,-1.371266,0.241828,0.001713,-0.000604,-0.254998,-0.241050,-0.145699,1.174338,0.203182,0.549629,-2.753294,0.550318,-0.640466,-0.024200,0.025608,0.000000,0.018982,-0.116432,-0.000000
4.790000,3.014794,0.705501,-1.371279,0.239336,-0.000687,-0.002034,-0.243396,-0.238991,-0.140236,1.145634,0.208363,0.542743,-2.988523,0.478137,-0.731064,-0.024007,0.024456,0.000000,0.019546,-0.113701,0.000000
4.800000,3.017175,0.705483,-1.371307,0.236959,-0.003067,-0.003409,-0.232093,-0.236885,-0.134847,1.114573,0.212826,0.534952,-3.222727,0.423254,-0.833358,-0.023809,0.023334,0.000000,0.020041,-0.110728,0.000000
4.810000,3.019533,0.705440,-1.371347,0.234693,-0.005425,-0.004731,-0.221113,-0.234736,-0.129541,1.081064,0.216836,0.526057,-3.456786,0.371539,-0.937795,-0.023606,0.022242,0.000000,0.020493,-0.107503,0.000000
4.820000,3.021869,0.705374,-1.371401,0.232535,-0.007761,-0.006000,-0.210477,-0.232551,-0.124328,1.045703,0.220190,0.516262,-3.641255,0.307747,-1.028966,-0.023399,0.021184,0.000000,0.020880,-0.104085,0.000000
4.830000,3.024184,0.705285,-1.371467,0.230482,-0.010076,-0.007218,-0.200208,-0.230334,-0.119219,1.007694,0.223168,0.505315,-3.961218,0.288582,-1.160967,-0.023189,0.020161,0.000000,0.021233,-0.100394,-0.000000
4.840000,3.026479,0.705173,-1.371545,0.228530,-0.012368,-0.008385,-0.190333,-0.228088,-0.114226,0.967014,0.225811,0.493191,-4.148120,0.232424,-1.256299,-0.022975,0.019176,0.000000,0.021553,-0.096426,-0.000000
4.850000,3.028755,0.705038,-1.371635,0.226674,-0.014638,-0.009503,-0.180873,-0.225819,-0.109359,0.924521,0.227893,0.480121,-4.376932,0.192649,-1.365656,-0.022758,0.018232,0.000000,0.021819,-0.092267,-0.000000
4.860000,3.031013,0.704880,-1.371735,0.224911,-0.016884,-0.010572,-0.171850,-0.223532,-0.104628,0.879626,0.229630,0.465915,-4.601512,0.155225,-1.475636,-0.022538,0.017331,0.000000,0.022052,-0.087857,-0.000000
4.870000,3.033254,0.704700,-1.371846,0.223236,-0.019108,-0.011596,-0.163288,-0.221228,-0.100044,0.832502,0.231007,0.450605,-4.822744,0.120535,-1.586609,-0.022317,0.016476,0.000000,0.022251,-0.083213,-0.000000
4.880000,3.035478,0.704498,-1.371967,0.221643,-0.021309,-0.012574,-0.155208,-0.218913,-0.095619,0.783184,0.232050,0.434180,-5.040121,0.088511,-1.698503,-0.022094,0.015667,0.000000,0.022417,-0.078340,-0.000000
4.890000,3.037687,0.704274,-1.372097,0.220130,-0.023486,-0.013509,-0.147631,-0.216588,-0.091364,0.731714,0.232786,0.416632,-5.253132,0.059085,-1.811284,-0.021869,0.014909,0.000000,0.022553,-0.073239,-0.000000
4.900000,3.039881,0.704028,-1.372237,0.218689,-0.025641,-0.014402,-0.140580,-0.214258,-0.087290,0.678134,0.233241,0.397953,-5.461584,0.032236,-1.924697,-0.021643,0.014203,0.000000,0.022662,-0.067916,0.000000
4.910000,3.042061,0.703761,-1.372385,0.217316,-0.027772,-0.015255,-0.134076,-0.211924,-0.083409,0.622499,0.233439,0.378136,-5.664594,0.007842,-2.038848,-0.021415,0.013551,0.000000,0.022746,-0.062377,0.000000
4.920000,3.044227,0.703473,-1.372542,0.216006,-0.029879,-0.016071,-0.128137,-0.209590,-0.079731,0.564862,0.233405,0.357174,-5.861811,-0.014138,-2.153590,-0.021188,0.012956,0.000000,0.022808,-0.056626,-0.000000
4.930000,3.046381,0.703164,-1.372707,0.214752,-0.031963,-0.016850,-0.122785,-0.207257,-0.076269,0.505284,0.233164,0.335062,-6.052695,-0.033763,-2.268847,-0.020959,0.012419,0.000000,0.022849,-0.050670,-0.000000
4.940000,3.048523,0.702834,-1.372879,0.213548,-0.034024,-0.017597,-0.118038,-0.204927,-0.073034,0.443831,0.232738,0.311796,-6.236624,-0.051090,-2.384567,-0.020731,0.011943,0.000000,0.022873,-0.044516,-0.000000
4.950000,3.050652,0.702483,-1.373058,0.212389,-0.036062,-0.018312,-0.113914,-0.202603,-0.070037,0.380567,0.232149,0.287370,-6.413954,-0.066264,-2.500599,-0.020502,0.011529,0.000000,0.022880,-0.038170,0.000000
4.960000,3.052771,0.702113,-1.373245,0.211268,-0.038076,-0.018998,-0.110432,-0.200285,-0.067291,0.315575,0.231419,0.261783,-6.583181,-0.079246,-2.616923,-0.020273,0.011180,0.000000,0.022874,-0.031643,0.000000
4.970000,3.054878,0.701722,-1.373438,0.210178,-0.040068,-0.019659,-0.107608,-0.197975,-0.064805,0.248931,0.230571,0.235031,-6.744177,-0.090143,-2.733441,-0.020045,0.010897,0.000000,0.022856,-0.024941,0.000000
4.980000,3.056974,0.701311,-1.373638,0.209113,-0.042036,-0.020295,-0.105459,-0.195673,-0.062594,0.180721,0.229623,0.207113,-6.896462,-0.099030,-2.850058,-0.019816,0.010682,0.000000,0.022829,-0.018076,-0.000000
4.990000,3.059060,0.700881,-1.373844,0.208066,-0.043981,-0.020911,-0.103999,-0.193382,-0.060667,0.111033,0.228596,0.178030,-7.039613,-0.106012,-2.966652,-0.019588,0.010536,0.000000,0.022794,-0.011055,0.000000
5.000000,3.061136,0.700432,-1.374056,0.207031,-0.045904,-0.021510,-0.103243,-0.191102,-0.059037,0.039960,0.227509,0.147781,-7.173320,-0.111226,-3.083033,-0.019360,0.010461,0.000000,0.022752,-0.003891,-0.000000
