time,x,y,z,vx,vy,vz,ax,ay,az,jx,jy,jz,sx,sy,sz,roll,pitch,yaw,p,q,r
0.000000,-3.303850,0.307987,-1.492443,-0.014498,-0.005172,0.005936,0.413077,-0.136143,0.003865,17.940101,-5.612594,0.064010,-247.127425,109.490728,-12.310531,-0.013870,-0.042099,0.000000,-0.570762,-1.826335,-0.000000
0.010000,-3.303995,0.307935,-1.492384,-0.010367,-0.006533,0.005975,0.592478,-0.192269,0.004505,15.468827,-4.517686,-0.059096,-796.302665,295.223288,-19.546832,-0.019570,-0.060350,0.000000,-0.457740,-1.571165,-0.000000
0.020000,-3.304057,0.307856,-1.492324,-0.002648,-0.009017,0.006026,0.722453,-0.226497,0.002683,2.014048,0.291872,-0.326927,-1178.734275,408.770819,-19.765911,-0.023028,-0.073532,0.000000,0.030774,-0.201757,0.000000
0.030000,-3.304048,0.307755,-1.492264,0.004082,-0.011063,0.006028,0.632759,-0.186432,-0.002033,-8.105859,3.657730,-0.454414,-424.629717,135.724875,-4.976890,-0.018959,-0.064399,0.000000,0.371742,0.825519,-0.000000
0.040000,-3.303975,0.307635,-1.492203,0.010007,-0.012746,0.005986,0.560336,-0.153342,-0.006405,-6.478547,3.006370,-0.426465,153.153217,-60.746843,2.193196,-0.015594,-0.057020,0.000000,0.305777,0.660220,-0.000000
0.050000,-3.303847,0.307500,-1.492144,0.015289,-0.014130,0.005900,0.503188,-0.126304,-0.010563,-5.042795,2.442793,-0.410550,134.799508,-52.422409,1.088774,-0.012844,-0.051193,0.000000,0.248574,0.514243,0.000000
0.060000,-3.303670,0.307352,-1.492085,0.020071,-0.015272,0.005774,0.459480,-0.104487,-0.014616,-3.782557,1.957921,-0.404689,118.013018,-44.980086,0.175550,-0.010623,-0.046734,0.000000,0.199293,0.386068,0.000000
0.070000,-3.303446,0.307194,-1.492028,0.024478,-0.016220,0.005608,0.427537,-0.087146,-0.018656,-2.682534,1.543191,-0.407039,102.719034,-38.368257,-0.560121,-0.008858,-0.043472,0.000000,0.157110,0.274202,-0.000000
0.080000,-3.303180,0.307028,-1.491973,0.028622,-0.017015,0.005401,0.405829,-0.073623,-0.022757,-1.728176,1.190556,-0.415892,88.842803,-32.535309,-1.131902,-0.007481,-0.041250,0.000000,0.121233,0.177196,-0.000000
0.090000,-3.302874,0.306854,-1.491920,0.032595,-0.017692,0.005153,0.392973,-0.063335,-0.026974,-0.905678,0.892485,-0.429677,76.309612,-27.429626,-1.553423,-0.006433,-0.039927,0.000000,0.090908,0.093662,0.000000
0.100000,-3.302528,0.306674,-1.491870,0.036481,-0.018281,0.004862,0.387716,-0.055773,-0.031350,-0.201984,0.641964,-0.446960,65.044761,-22.999587,-1.838306,-0.005663,-0.039376,0.000000,0.065431,0.022278,-0.000000
0.110000,-3.302144,0.306488,-1.491823,0.040349,-0.018808,0.004526,0.388933,-0.050496,-0.035913,0.395217,0.432493,-0.466443,54.973516,-19.193582,-2.000212,-0.005125,-0.039481,0.000000,0.044141,-0.038209,-0.000000
0.120000,-3.301721,0.306298,-1.491780,0.044260,-0.019291,0.004143,0.395620,-0.047123,-0.040679,0.897487,0.258092,-0.486964,46.021096,-15.959999,-2.052818,-0.004780,-0.040140,0.000000,0.026432,-0.088979,-0.000000
0.130000,-3.301259,0.306102,-1.491740,0.048262,-0.019750,0.003712,0.406883,-0.045334,-0.045653,1.315639,0.113293,-0.507499,38.112807,-13.247219,-2.009747,-0.004596,-0.041261,0.000000,0.011747,-0.131140,0.000000
0.140000,-3.300756,0.305903,-1.491705,0.052397,-0.020198,0.003230,0.421933,-0.044857,-0.050829,1.659743,-0.006852,-0.527159,31.174099,-11.003615,-1.884567,-0.004545,-0.042763,0.000000,-0.000419,-0.165724,0.000000
0.150000,-3.300211,0.305698,-1.491676,0.056700,-0.020647,0.002696,0.440078,-0.045471,-0.056196,1.939121,-0.106779,-0.545191,25.130090,-9.177582,-1.690981,-0.004604,-0.044575,0.000000,-0.010518,-0.193690,0.000000
0.160000,-3.299622,0.305490,-1.491651,0.061199,-0.021107,0.002106,0.460715,-0.046993,-0.061733,2.162344,-0.190404,-0.560979,19.905869,-7.717519,-1.442727,-0.004755,-0.046636,0.000000,-0.018948,-0.215919,0.000000
0.170000,-3.298987,0.305276,-1.491633,0.065915,-0.021587,0.001461,0.483325,-0.049279,-0.067415,2.337238,-0.261129,-0.574045,15.422449,-6.565589,-1.155480,-0.004983,-0.048893,0.000000,-0.026058,-0.233219,0.000000
0.180000,-3.298304,0.305058,-1.491622,0.070865,-0.022093,0.000758,0.507460,-0.052215,-0.073214,2.470793,-0.321716,-0.584089,11.525960,-5.561797,-0.880263,-0.005276,-0.051301,0.000000,-0.032129,-0.246312,-0.000000
0.190000,-3.297570,0.304834,-1.491618,0.076064,-0.022631,-0.000003,0.532741,-0.055713,-0.079097,2.567757,-0.372365,-0.591651,8.168892,-4.692017,-0.617866,-0.005626,-0.053819,0.000000,-0.037184,-0.255686,0.000000
0.200000,-3.296782,0.304605,-1.491622,0.081520,-0.023207,-0.000824,0.558815,-0.059663,-0.085047,2.634171,-0.415556,-0.596446,5.860889,-4.704334,-0.105798,-0.006020,-0.056414,0.000000,-0.041476,-0.261967,-0.000000
0.210000,-3.295939,0.304370,-1.491635,0.087240,-0.023825,-0.001704,0.585424,-0.064024,-0.091026,2.684975,-0.466452,-0.593767,4.464621,-5.461451,0.612738,-0.006455,-0.059059,0.000000,-0.046538,-0.266698,0.000000
0.220000,-3.295037,0.304129,-1.491656,0.093229,-0.024488,-0.002644,0.612515,-0.068992,-0.096922,2.723464,-0.524785,-0.584191,2.226500,-4.617845,0.732364,-0.006951,-0.061748,0.000000,-0.052342,-0.270220,-0.000000
0.230000,-3.294075,0.303881,-1.491688,0.099491,-0.025204,-0.003643,0.639893,-0.074520,-0.102710,2.729505,-0.558809,-0.579119,-1.018840,-2.065182,0.225443,-0.007502,-0.064463,0.000000,-0.055683,-0.270448,-0.000000
0.240000,-3.293048,0.303625,-1.491729,0.106027,-0.025978,-0.004699,0.667105,-0.080168,-0.108505,2.703087,-0.566089,-0.579682,-2.999325,-0.940548,0.177405,-0.008064,-0.067157,0.000000,-0.056325,-0.267380,0.000000
0.250000,-3.291954,0.303361,-1.491782,0.112833,-0.026808,-0.005813,0.693955,-0.085842,-0.114304,2.669519,-0.577620,-0.575571,-3.100062,-1.638746,0.687462,-0.008628,-0.069811,0.000000,-0.057397,-0.263634,-0.000000
0.260000,-3.290791,0.303089,-1.491845,0.119906,-0.027695,-0.006985,0.720495,-0.091720,-0.120016,2.641086,-0.598864,-0.565933,-2.987691,-1.982602,1.012467,-0.009212,-0.072430,0.000000,-0.059446,-0.260452,0.000000
0.270000,-3.289556,0.302807,-1.491921,0.127243,-0.028642,-0.008213,0.746777,-0.097819,-0.125622,2.609765,-0.617272,-0.555322,-4.134985,-1.435483,1.089849,-0.009817,-0.075020,0.000000,-0.061208,-0.257002,-0.000000
0.280000,-3.288246,0.302516,-1.492010,0.134841,-0.029651,-0.009497,0.772691,-0.104066,-0.131123,2.558386,-0.627573,-0.544136,-6.098832,-0.714823,1.176091,-0.010436,-0.077571,0.000000,-0.062157,-0.251566,-0.000000
0.290000,-3.286859,0.302214,-1.492111,0.142696,-0.030724,-0.010835,0.797945,-0.110370,-0.136505,2.487788,-0.631568,-0.531800,-7.086786,-0.332162,1.286749,-0.011060,-0.080052,0.000000,-0.062477,-0.244241,-0.000000
0.300000,-3.285392,0.301901,-1.492226,0.150800,-0.031859,-0.012227,0.822446,-0.116697,-0.141759,2.416650,-0.634217,-0.518401,-6.803040,-0.280909,1.388512,-0.011686,-0.082456,0.000000,-0.062666,-0.236897,0.000000
0.310000,-3.283843,0.301577,-1.492356,0.159145,-0.033057,-0.013671,0.846278,-0.123055,-0.146873,2.351728,-0.637186,-0.504030,-6.511869,-0.223505,1.480098,-0.012314,-0.084791,0.000000,-0.062891,-0.230208,0.000000
0.320000,-3.282209,0.301240,-1.492500,0.167726,-0.034320,-0.015165,0.869481,-0.129441,-0.151839,2.286413,-0.638687,-0.488799,-7.002446,0.038292,1.557226,-0.012944,-0.087061,0.000000,-0.062972,-0.223513,0.000000
0.330000,-3.280489,0.300891,-1.492659,0.176535,-0.035646,-0.016707,0.892006,-0.135829,-0.156649,2.211679,-0.636421,-0.472885,-7.906887,0.406613,1.619539,-0.013573,-0.089261,0.000000,-0.062683,-0.215912,0.000000
0.340000,-3.278679,0.300527,-1.492834,0.185566,-0.037036,-0.018298,0.913714,-0.142169,-0.161297,2.128275,-0.630554,-0.456408,-8.297123,0.649464,1.673475,-0.014197,-0.091379,0.000000,-0.062041,-0.207483,0.000000
0.350000,-3.276777,0.300150,-1.493025,0.194809,-0.038490,-0.019933,0.934571,-0.148440,-0.165777,2.045736,-0.623431,-0.439416,-8.041933,0.734578,1.721431,-0.014814,-0.093411,0.000000,-0.061280,-0.199174,0.000000
0.360000,-3.274782,0.299757,-1.493233,0.204257,-0.040005,-0.021613,0.954629,-0.154638,-0.170085,1.967437,-0.615863,-0.421980,-7.789905,0.823684,1.759339,-0.015423,-0.095363,0.000000,-0.060480,-0.191318,-0.000000
0.370000,-3.272692,0.299350,-1.493457,0.213902,-0.041582,-0.023335,0.973920,-0.160757,-0.174217,1.889938,-0.606958,-0.404229,-7.940169,1.016954,1.782567,-0.016024,-0.097238,0.000000,-0.059553,-0.183573,0.000000
0.380000,-3.270504,0.298926,-1.493699,0.223736,-0.043220,-0.025097,0.992428,-0.166777,-0.178170,1.808633,-0.595524,-0.386328,-8.303490,1.267156,1.792565,-0.016614,-0.099035,0.000000,-0.058382,-0.175478,-0.000000
0.390000,-3.268217,0.298485,-1.493959,0.233750,-0.044918,-0.026898,1.010093,-0.172667,-0.181943,1.723868,-0.581614,-0.368378,-8.410748,1.456133,1.796036,-0.017191,-0.100748,0.000000,-0.056972,-0.167067,0.000000
0.400000,-3.265829,0.298027,-1.494237,0.243937,-0.046674,-0.028736,1.026905,-0.178409,-0.185537,1.640418,-0.566401,-0.350408,-8.196146,1.566786,1.794681,-0.017754,-0.102377,0.000000,-0.055439,-0.158812,0.000000
0.410000,-3.263339,0.297552,-1.494534,0.254288,-0.048486,-0.030609,1.042901,-0.183995,-0.188951,1.559945,-0.550279,-0.332484,-7.986987,1.681361,1.784447,-0.018300,-0.103925,0.000000,-0.053822,-0.150876,0.000000
0.420000,-3.260744,0.297058,-1.494850,0.264795,-0.050354,-0.032515,1.058104,-0.189415,-0.192187,1.480678,-0.532774,-0.314719,-7.983836,1.851180,1.762490,-0.018830,-0.105395,0.000000,-0.052074,-0.143080,-0.000000
0.430000,-3.258043,0.296545,-1.495184,0.275451,-0.052274,-0.034453,1.072515,-0.194651,-0.195246,1.400269,-0.513255,-0.297234,-8.090903,2.052063,1.730518,-0.019342,-0.106787,0.000000,-0.050133,-0.135190,0.000000
0.440000,-3.255235,0.296012,-1.495539,0.286246,-0.054247,-0.036420,1.086110,-0.199680,-0.198132,1.318860,-0.491733,-0.280108,-8.072102,2.223079,1.692878,-0.019833,-0.108100,0.000000,-0.047999,-0.127218,0.000000
0.450000,-3.252318,0.295460,-1.495913,0.297173,-0.056268,-0.038416,1.098892,-0.204486,-0.200848,1.238827,-0.468794,-0.263377,-7.893820,2.355212,1.650449,-0.020302,-0.109332,0.000000,-0.045730,-0.119397,0.000000
0.460000,-3.249291,0.294887,-1.496307,0.308224,-0.058336,-0.040437,1.110886,-0.209056,-0.203399,1.160984,-0.444628,-0.247099,-7.720417,2.490624,1.600917,-0.020747,-0.110488,0.000000,-0.043344,-0.111805,0.000000
0.470000,-3.246153,0.294293,-1.496721,0.319390,-0.060449,-0.042484,1.122112,-0.213378,-0.205790,1.084418,-0.418981,-0.231358,-7.653681,2.655663,1.543480,-0.021169,-0.111569,0.000000,-0.040817,-0.104350,0.000000
0.480000,-3.242903,0.293678,-1.497157,0.330666,-0.062604,-0.044553,1.132574,-0.217436,-0.208026,1.007910,-0.391515,-0.216230,-7.645076,2.837831,1.479397,-0.021564,-0.112576,0.000000,-0.038114,-0.096908,-0.000000
0.490000,-3.239540,0.293041,-1.497613,0.342042,-0.064798,-0.046644,1.142270,-0.221208,-0.210115,0.931517,-0.362225,-0.201770,-7.574128,3.005465,1.410442,-0.021931,-0.113508,0.000000,-0.035235,-0.089484,-0.000000
0.500000,-3.236063,0.292382,-1.498089,0.353511,-0.067028,-0.048755,1.151205,-0.224680,-0.212062,0.856428,-0.331406,-0.188021,-7.425075,3.153113,1.337212,-0.022268,-0.114366,0.000000,-0.032207,-0.082194,-0.000000
0.510000,-3.232470,0.291700,-1.498588,0.365066,-0.069291,-0.050885,1.159398,-0.227837,-0.213875,0.783015,-0.299162,-0.175026,-7.281260,3.302473,1.259182,-0.022575,-0.115152,0.000000,-0.029042,-0.075072,-0.000000
0.520000,-3.228761,0.290996,-1.499107,0.376699,-0.071585,-0.053033,1.166865,-0.230663,-0.215562,0.710803,-0.265356,-0.162837,-7.189375,3.468804,1.176095,-0.022849,-0.115868,0.000000,-0.025725,-0.068069,0.000000
0.530000,-3.224936,0.290269,-1.499648,0.388403,-0.073905,-0.055197,1.173614,-0.233144,-0.217132,0.639228,-0.229786,-0.151504,-7.124076,3.645510,1.088672,-0.023090,-0.116514,0.000000,-0.022235,-0.061127,-0.000000
0.540000,-3.220993,0.289518,-1.500211,0.400171,-0.076248,-0.057375,1.179650,-0.235259,-0.218592,0.568321,-0.192446,-0.141064,-7.030643,3.813582,0.998132,-0.023294,-0.117091,0.000000,-0.018572,-0.054250,-0.000000
0.550000,-3.216932,0.288744,-1.500796,0.411996,-0.078610,-0.059568,1.184981,-0.236993,-0.219953,0.498615,-0.153515,-0.131542,-6.903491,3.969876,0.904763,-0.023461,-0.117599,0.000000,-0.014752,-0.047487,-0.000000
0.560000,-3.212753,0.287946,-1.501402,0.423871,-0.080988,-0.061775,1.189622,-0.238329,-0.221223,0.430251,-0.113049,-0.122969,-6.780124,4.127095,0.808445,-0.023589,-0.118041,0.000000,-0.010782,-0.040851,0.000000
0.570000,-3.208455,0.287124,-1.502031,0.435789,-0.083376,-0.063993,1.193586,-0.239254,-0.222412,0.363012,-0.070973,-0.115373,-6.677971,4.292837,0.709966,-0.023677,-0.118416,0.000000,-0.006652,-0.034320,-0.000000
0.580000,-3.204037,0.286278,-1.502682,0.447743,-0.085773,-0.066223,1.196882,-0.239749,-0.223531,0.296692,-0.027192,-0.108769,-6.585768,4.462846,0.609924,-0.023722,-0.118727,0.000000,-0.002354,-0.027872,-0.000000
0.590000,-3.199500,0.285409,-1.503356,0.459726,-0.088171,-0.068464,1.199520,-0.239797,-0.224588,0.231297,0.018284,-0.103174,-6.483769,4.627447,0.508199,-0.023724,-0.118974,0.000000,0.002113,-0.021507,-0.000000
0.600000,-3.194843,0.284515,-1.504052,0.471733,-0.090569,-0.070715,1.201508,-0.239383,-0.225594,0.167016,0.065357,-0.098605,-6.367060,4.785485,0.405152,-0.023680,-0.119157,0.000000,0.006739,-0.015243,0.000000
0.610000,-3.190065,0.283597,-1.504770,0.483757,-0.092959,-0.072975,1.202860,-0.238490,-0.226560,0.103956,0.113994,-0.095071,-6.249087,4.943046,0.301509,-0.023589,-0.119279,0.000000,0.011520,-0.009089,0.000000
0.620000,-3.185168,0.282656,-1.505511,0.495790,-0.095338,-0.075246,1.203587,-0.237103,-0.227496,0.042035,0.164218,-0.092575,-6.145155,5.102284,0.197526,-0.023449,-0.119339,0.000000,0.016460,-0.003037,0.000000
0.630000,-3.180150,0.281690,-1.506275,0.507828,-0.097701,-0.077525,1.203701,-0.235206,-0.228411,-0.018947,0.216040,-0.091121,-6.051444,5.260960,0.093353,-0.023260,-0.119340,0.000000,0.021560,0.002933,-0.000000
0.640000,-3.175011,0.280702,-1.507062,0.519864,-0.100042,-0.079814,1.203208,-0.232782,-0.229318,-0.078994,0.269437,-0.090708,-5.948601,5.416063,-0.010248,-0.023018,-0.119281,0.000000,0.026817,0.008822,0.000000
0.650000,-3.169752,0.279690,-1.507871,0.531892,-0.102357,-0.082112,1.202121,-0.229817,-0.230226,-0.137919,0.324361,-0.091326,-5.834154,5.566400,-0.111914,-0.022723,-0.119163,0.000000,0.032227,0.014612,-0.000000
0.660000,-3.164373,0.278655,-1.508704,0.543907,-0.104639,-0.084418,1.200450,-0.226295,-0.231144,-0.195677,0.380765,-0.092946,-5.720942,5.713538,-0.211604,-0.022374,-0.118988,0.000000,0.037786,0.020299,-0.000000
0.670000,-3.158874,0.277597,-1.509560,0.555901,-0.106883,-0.086735,1.198207,-0.222202,-0.232085,-0.252338,0.438632,-0.095558,-5.613746,5.860139,-0.311433,-0.021968,-0.118757,0.000000,0.043492,0.025889,-0.000000
0.680000,-3.153255,0.276517,-1.510439,0.567871,-0.109083,-0.089060,1.195403,-0.217523,-0.233056,-0.307952,0.497968,-0.099175,-5.507939,6.005399,-0.411006,-0.021504,-0.118470,0.000000,0.049345,0.031387,0.000000
0.690000,-3.147517,0.275415,-1.511341,0.579810,-0.111233,-0.091396,1.192048,-0.212242,-0.234068,-0.362497,0.558740,-0.103778,-5.397858,6.145103,-0.506438,-0.020981,-0.118129,0.000000,0.055342,0.036790,-0.000000
0.700000,-3.141659,0.274292,-1.512266,0.591712,-0.113328,-0.093742,1.188153,-0.206348,-0.235131,-0.415909,0.620870,-0.109304,-5.285133,6.278414,-0.596416,-0.020397,-0.117734,0.000000,0.061475,0.042093,-0.000000
0.710000,-3.135683,0.273149,-1.513216,0.603573,-0.115360,-0.096098,1.183730,-0.199825,-0.236254,-0.468200,0.684308,-0.115706,-5.173073,6.407654,-0.682878,-0.019751,-0.117287,0.000000,0.067739,0.047295,-0.000000
0.720000,-3.129588,0.271985,-1.514188,0.615386,-0.117324,-0.098467,1.178789,-0.192662,-0.237445,-0.519371,0.749023,-0.122961,-5.056911,6.533375,-0.767209,-0.019042,-0.116788,0.000000,0.074130,0.052397,0.000000
0.730000,-3.123375,0.270802,-1.515185,0.627148,-0.119213,-0.100847,1.173343,-0.184845,-0.238713,-0.569338,0.814975,-0.131050,-4.934966,6.654243,-0.848270,-0.018269,-0.116239,0.000000,0.080644,0.057388,0.000000
0.740000,-3.117045,0.269601,-1.516205,0.638853,-0.121021,-0.103241,1.167403,-0.176362,-0.240066,-0.618070,0.882108,-0.139927,-4.813836,6.768972,-0.923261,-0.017429,-0.115640,0.000000,0.087275,0.062267,-0.000000
0.750000,-3.110598,0.268382,-1.517250,0.650496,-0.122741,-0.105649,1.160981,-0.167202,-0.241512,-0.665615,0.950355,-0.149516,-4.695507,6.878044,-0.990999,-0.016523,-0.114994,0.000000,0.094016,0.067035,0.000000
0.760000,-3.104035,0.267146,-1.518318,0.662073,-0.124365,-0.108071,1.154090,-0.157355,-0.243057,-0.711980,1.019669,-0.159747,-4.575191,6.981662,-1.052613,-0.015549,-0.114300,0.000000,0.100862,0.071693,0.000000
0.770000,-3.097356,0.265894,-1.519411,0.673578,-0.125888,-0.110510,1.146742,-0.146809,-0.244707,-0.757118,1.089988,-0.170568,-4.448621,7.077272,-1.109497,-0.014506,-0.113560,0.000000,0.107805,0.076235,0.000000
0.780000,-3.090563,0.264628,-1.520529,0.685008,-0.127301,-0.112965,1.138948,-0.135555,-0.246468,-0.800953,1.161214,-0.181937,-4.316802,7.164123,-1.160787,-0.013393,-0.112775,0.000000,0.114835,0.080653,0.000000
0.790000,-3.083656,0.263348,-1.521671,0.696357,-0.128599,-0.115439,1.130723,-0.123585,-0.248346,-0.843454,1.233271,-0.193784,-4.185124,7.245033,-1.203524,-0.012209,-0.111946,0.000000,0.121945,0.084942,-0.000000
0.800000,-3.076636,0.262056,-1.522837,0.707622,-0.129773,-0.117932,1.122079,-0.110890,-0.250344,-0.884655,1.306115,-0.206007,-4.056819,7.321124,-1.236183,-0.010954,-0.111076,0.000000,0.129128,0.089105,-0.000000
0.810000,-3.069504,0.260753,-1.524029,0.718799,-0.130817,-0.120446,1.113029,-0.097462,-0.252466,-0.924591,1.379693,-0.218507,-3.927984,7.389861,-1.259976,-0.009627,-0.110164,0.000000,0.136379,0.093143,-0.000000
0.820000,-3.062260,0.259440,-1.525246,0.729883,-0.131722,-0.122981,1.103587,-0.083296,-0.254714,-0.963215,1.453912,-0.231207,-3.789752,7.447541,-1.277045,-0.008227,-0.109213,0.000000,0.143687,0.097051,0.000000
0.830000,-3.054906,0.258118,-1.526489,0.740871,-0.132483,-0.125540,1.093765,-0.068384,-0.257090,-1.000386,1.528644,-0.244048,-3.643415,7.494503,-1.286299,-0.006753,-0.108223,0.000000,0.151040,0.100813,0.000000
0.840000,-3.047443,0.256790,-1.527757,0.751758,-0.133090,-0.128123,1.083579,-0.052723,-0.259595,-1.036083,1.603802,-0.256933,-3.500788,7.534962,-1.283682,-0.005206,-0.107197,0.000000,0.158428,0.104427,0.000000
0.850000,-3.039871,0.255457,-1.529051,0.762542,-0.133537,-0.130732,1.073043,-0.036308,-0.262228,-1.070402,1.679343,-0.269722,-3.361092,7.569151,-1.268879,-0.003584,-0.106135,0.000000,0.165845,0.107900,-0.000000
0.860000,-3.032192,0.254119,-1.530372,0.773219,-0.133816,-0.133368,1.062171,-0.019136,-0.264989,-1.103305,1.755185,-0.282310,-3.216662,7.593770,-1.243721,-0.001889,-0.105039,0.000000,0.173282,0.111227,0.000000
0.870000,-3.024407,0.252780,-1.531719,0.783786,-0.133920,-0.136032,1.050977,-0.001205,-0.267875,-1.134735,1.831219,-0.294596,-3.072202,7.607789,-1.206547,-0.000119,-0.103910,0.000000,0.180729,0.114401,-0.000000
0.880000,-3.016516,0.251441,-1.533092,0.794239,-0.133840,-0.138725,1.039477,0.017488,-0.270881,-1.164749,1.907341,-0.306441,-2.930764,7.611921,-1.155754,0.001726,-0.102751,0.000000,0.188174,0.117426,-0.000000
0.890000,-3.008522,0.250104,-1.534493,0.804575,-0.133570,-0.141449,1.027682,0.036942,-0.274003,-1.193350,1.983457,-0.317711,-2.785241,7.606732,-1.092538,0.003645,-0.101561,0.000000,0.195607,0.120302,-0.000000
0.900000,-3.000425,0.248770,-1.535921,0.814792,-0.133101,-0.144205,1.015610,0.057157,-0.277235,-1.220454,2.059476,-0.328292,-2.634205,7.592417,-1.017975,0.005638,-0.100344,0.000000,0.203019,0.123018,0.000000
0.910000,-2.992226,0.247441,-1.537377,0.824887,-0.132427,-0.146994,1.003273,0.078132,-0.280569,-1.246034,2.135305,-0.338071,-2.482771,7.568177,-0.930238,0.007705,-0.099101,0.000000,0.210401,0.125571,-0.000000
0.920000,-2.983927,0.246121,-1.538861,0.834858,-0.131539,-0.149817,0.990689,0.099863,-0.283997,-1.270109,2.210839,-0.346897,-2.332457,7.532261,-0.824824,0.009846,-0.097833,0.000000,0.217742,0.127962,0.000000
0.930000,-2.975529,0.244811,-1.540374,0.844701,-0.130430,-0.152674,0.977871,0.122349,-0.287507,-1.292683,2.285951,-0.354567,-2.181254,7.484479,-0.701208,0.012060,-0.096542,0.000000,0.225029,0.130190,-0.000000
0.940000,-2.967033,0.243513,-1.541915,0.854415,-0.129092,-0.155567,0.964835,0.145582,-0.291088,-1.313734,2.360529,-0.360921,-2.027747,7.426662,-0.564344,0.014346,-0.095229,0.000000,0.232253,0.132251,-0.000000
0.950000,-2.958440,0.242229,-1.543485,0.863998,-0.127518,-0.158496,0.951596,0.169559,-0.294726,-1.333238,2.434484,-0.365854,-1.874027,7.359440,-0.416628,0.016705,-0.093896,0.000000,0.239403,0.134143,0.000000
0.960000,-2.949753,0.240962,-1.545085,0.873447,-0.125701,-0.161461,0.938170,0.194272,-0.298405,-1.351215,2.507718,-0.369253,-1.720855,7.281146,-0.253726,0.019134,-0.092546,0.000000,0.246473,0.135867,-0.000000
0.970000,-2.940972,0.239715,-1.546714,0.882761,-0.123632,-0.164464,0.924572,0.219714,-0.302111,-1.367655,2.580107,-0.370929,-1.562814,7.189501,-0.067825,0.021634,-0.091179,0.000000,0.253450,0.137422,-0.000000
0.980000,-2.932098,0.238490,-1.548374,0.891938,-0.121306,-0.167504,0.910817,0.245874,-0.305824,-1.382471,2.651508,-0.370610,-1.399623,7.084872,0.141048,0.024203,-0.089797,0.000000,0.260322,0.138797,-0.000000
0.990000,-2.923133,0.237289,-1.550064,0.900977,-0.118715,-0.170580,0.896923,0.272744,-0.309523,-1.395648,2.721804,-0.368108,-1.238889,6.969736,0.363324,0.026841,-0.088402,0.000000,0.267080,0.139990,-0.000000
1.000000,-2.914078,0.236115,-1.551785,0.909877,-0.115851,-0.173694,0.882904,0.300310,-0.313186,-1.407249,2.790902,-0.363343,-1.080544,6.843045,0.594145,0.029545,-0.086996,0.000000,0.273715,0.141008,0.000000
1.010000,-2.904935,0.234972,-1.553538,0.918636,-0.112709,-0.176844,0.868778,0.328562,-0.316790,-1.417259,2.858665,-0.356225,-0.919606,6.702890,0.840954,0.032315,-0.085580,0.000000,0.280218,0.141851,-0.000000
1.020000,-2.895705,0.233861,-1.555322,0.927252,-0.109280,-0.180030,0.854559,0.357484,-0.320310,-1.425641,2.924960,-0.346524,-0.758429,6.551946,1.117534,0.035149,-0.084157,0.000000,0.286577,0.142513,0.000000
1.030000,-2.886390,0.232786,-1.557139,0.935727,-0.105559,-0.183250,0.840265,0.387061,-0.323720,-1.432427,2.989704,-0.333874,-0.599210,6.390878,1.423269,0.038046,-0.082728,0.000000,0.292790,0.142997,0.000000
1.040000,-2.876991,0.231750,-1.558987,0.944058,-0.101539,-0.186504,0.825911,0.417278,-0.326988,-1.437625,3.052778,-0.318059,-0.438378,6.215318,1.740205,0.041005,-0.081295,0.000000,0.298847,0.143304,-0.000000
1.050000,-2.867509,0.230755,-1.560869,0.952245,-0.097214,-0.189790,0.811512,0.448116,-0.330081,-1.441195,3.114010,-0.299070,-0.273603,6.023397,2.058935,0.044023,-0.079860,0.000000,0.304736,0.143430,0.000000
1.060000,-2.857946,0.229806,-1.562783,0.960288,-0.092577,-0.193106,0.797087,0.479558,-0.332969,-1.443097,3.173246,-0.276880,-0.107634,5.817823,2.392482,0.047100,-0.078424,0.000000,0.310445,0.143375,-0.000000
1.070000,-2.848303,0.228904,-1.564731,0.968187,-0.087622,-0.196450,0.782650,0.511581,-0.335619,-1.443347,3.230367,-0.251220,0.053912,5.601950,2.765716,0.050232,-0.076989,0.000000,0.315969,0.143140,-0.000000
1.080000,-2.838582,0.228053,-1.566712,0.975941,-0.082345,-0.199818,0.768220,0.544165,-0.337994,-1.442019,3.285285,-0.221566,0.209935,5.374448,3.176379,0.053419,-0.075558,0.000000,0.321306,0.142729,0.000000
1.090000,-2.828784,0.227257,-1.568727,0.983551,-0.076739,-0.203209,0.753810,0.577287,-0.340050,-1.439149,3.337856,-0.187693,0.368312,5.130424,3.591019,0.056658,-0.074131,0.000000,0.326449,0.142147,-0.000000
1.100000,-2.818911,0.226518,-1.570776,0.991017,-0.070799,-0.206619,0.739437,0.610922,-0.341748,-1.434653,3.387893,-0.149746,0.543027,4.870629,3.997113,0.059948,-0.072710,0.000000,0.331383,0.141389,-0.000000
1.110000,-2.808964,0.225841,-1.572860,0.998340,-0.064521,-0.210044,0.725117,0.645045,-0.343045,-1.428288,3.435268,-0.107751,0.727776,4.597784,4.417674,0.063286,-0.071298,0.000000,0.336104,0.140434,0.000000
1.120000,-2.798944,0.225228,-1.574977,1.005520,-0.057898,-0.213480,0.710871,0.679628,-0.343903,-1.420097,3.479849,-0.061392,0.883713,4.308099,4.882526,0.066670,-0.069896,0.000000,0.340604,0.139286,0.000000
1.130000,-2.788854,0.224683,-1.577129,1.012557,-0.050928,-0.216922,0.696715,0.714642,-0.344273,-1.410614,3.521430,-0.010100,1.013578,4.000901,5.385633,0.070098,-0.068506,0.000000,0.344876,0.137996,-0.000000
1.140000,-2.778693,0.224209,-1.579316,1.019454,-0.043606,-0.220366,0.682659,0.750056,-0.344105,-1.399826,3.559867,0.046321,1.170441,3.680852,5.886656,0.073568,-0.067129,0.000000,0.348914,0.136562,0.000000
1.150000,-2.768465,0.223811,-1.581537,1.026210,-0.035927,-0.223804,0.668719,0.785839,-0.343347,-1.387205,3.595047,0.107633,1.346946,3.342632,6.371798,0.077077,-0.065767,0.000000,0.352713,0.134938,0.000000
1.160000,-2.758169,0.223491,-1.583792,1.032828,-0.027889,-0.227233,0.654915,0.821957,-0.341952,-1.372887,3.626719,0.173757,1.508944,2.983057,6.867894,0.080622,-0.064422,0.000000,0.356256,0.133140,0.000000
1.170000,-2.747808,0.223253,-1.586081,1.039309,-0.019488,-0.230644,0.641261,0.858374,-0.339872,-1.357026,3.654709,0.244991,1.690317,2.618003,7.406667,0.084202,-0.063095,0.000000,0.359536,0.131182,-0.000000
1.180000,-2.737383,0.223101,-1.588405,1.045653,-0.010721,-0.234030,0.627774,0.895051,-0.337052,-1.339081,3.679079,0.321890,1.904386,2.248893,7.980705,0.087813,-0.061789,0.000000,0.362572,0.129010,0.000000
1.190000,-2.726895,0.223039,-1.590762,1.051864,-0.001587,-0.237385,0.614479,0.931955,-0.333434,-1.318939,3.699686,0.404605,2.102356,1.852773,8.546186,0.091454,-0.060505,0.000000,0.365361,0.126614,-0.000000
1.200000,-2.716346,0.223069,-1.593152,1.057943,0.007918,-0.240699,0.601395,0.969045,-0.328960,-1.297033,3.716135,0.492814,2.281772,1.425975,9.084761,0.095121,-0.059246,0.000000,0.367871,0.124041,0.000000
1.210000,-2.705736,0.223197,-1.595576,1.063892,0.017794,-0.243964,0.588539,1.006278,-0.323578,-1.273303,3.728206,0.586300,2.476413,0.983473,9.624933,0.098811,-0.058013,0.000000,0.370088,0.121286,-0.000000
1.220000,-2.695068,0.223425,-1.598032,1.069714,0.028043,-0.247170,0.575929,1.043609,-0.317234,-1.247505,3.735804,0.685312,2.678580,0.528691,10.209404,0.102523,-0.056808,0.000000,0.372012,0.118326,-0.000000
1.230000,-2.684342,0.223758,-1.600519,1.075411,0.038666,-0.250308,0.563588,1.080994,-0.309871,-1.219732,3.738780,0.790488,2.874503,0.055136,10.829775,0.106252,-0.055634,0.000000,0.373646,0.115166,-0.000000
1.240000,-2.673560,0.224199,-1.603038,1.080986,0.049663,-0.253368,0.551535,1.118385,-0.301424,-1.190015,3.736907,0.901908,3.078676,-0.441492,11.425971,0.109996,-0.054492,0.000000,0.374979,0.111810,0.000000
1.250000,-2.662722,0.224751,-1.605587,1.086441,0.061034,-0.256337,0.539788,1.155732,-0.291833,-1.158158,3.729950,1.019008,3.307909,-0.956079,11.977969,0.113752,-0.053384,0.000000,0.375991,0.108243,-0.000000
1.260000,-2.651831,0.225419,-1.608165,1.091781,0.072778,-0.259204,0.528371,1.192984,-0.281044,-1.123857,3.717786,1.141467,3.551321,-1.487210,12.524147,0.117516,-0.052313,0.000000,0.376675,0.104435,-0.000000
1.270000,-2.640887,0.226207,-1.610771,1.097009,0.084894,-0.261958,0.517311,1.230088,-0.269004,-1.087132,3.700206,1.269491,3.769170,-2.050407,13.106489,0.121286,-0.051281,0.000000,0.377021,0.100387,-0.000000
1.280000,-2.629891,0.227117,-1.613404,1.102128,0.097380,-0.264584,0.506629,1.266988,-0.255654,-1.048474,3.676777,1.403597,3.965644,-2.647886,13.712257,0.125057,-0.050290,0.000000,0.377003,0.096143,-0.000000
1.290000,-2.618844,0.228154,-1.616062,1.107141,0.110233,-0.267071,0.496341,1.303623,-0.240932,-1.007819,3.647248,1.543736,4.195261,-3.259053,14.281513,0.128826,-0.049343,0.000000,0.376603,0.091695,0.000000
1.300000,-2.607748,0.229322,-1.618745,1.112054,0.123452,-0.269403,0.486472,1.339933,-0.224780,-0.964568,3.611596,1.689227,4.453789,-3.878293,14.793806,0.132590,-0.048441,0.000000,0.375819,0.086985,0.000000
1.310000,-2.596603,0.230623,-1.621450,1.116871,0.137032,-0.271566,0.477050,1.375855,-0.207147,-0.918743,3.569682,1.839612,4.706278,-4.520530,15.286176,0.136343,-0.047587,0.000000,0.374638,0.082015,-0.000000
1.320000,-2.585410,0.232062,-1.624176,1.121595,0.150969,-0.273546,0.468098,1.411327,-0.187987,-0.870443,3.521186,1.994951,4.978330,-5.198572,15.800537,0.140083,-0.046785,0.000000,0.373035,0.076790,-0.000000
1.330000,-2.574171,0.233643,-1.626921,1.126233,0.165259,-0.275326,0.459641,1.446279,-0.167248,-0.819176,3.465711,2.155623,5.286288,-5.910270,16.322062,0.143805,-0.046036,0.000000,0.370980,0.071255,0.000000
1.340000,-2.562886,0.235368,-1.629683,1.130788,0.179895,-0.276891,0.451714,1.480641,-0.144875,-0.764717,3.402980,2.321392,5.592674,-6.639318,16.789604,0.147503,-0.045345,0.000000,0.368449,0.065383,0.000000
1.350000,-2.551555,0.237241,-1.632459,1.135267,0.194871,-0.278224,0.444347,1.514339,-0.120820,-0.707323,3.332924,2.491415,5.876786,-7.368364,17.193759,0.151174,-0.044714,0.000000,0.365424,0.059197,-0.000000
1.360000,-2.540180,0.239265,-1.635247,1.139675,0.210182,-0.279307,0.437568,1.547299,-0.095047,-0.647181,3.255613,2.665267,6.166715,-8.109822,17.570287,0.154812,-0.044148,0.000000,0.361909,0.052709,0.000000
1.370000,-2.528762,0.241444,-1.638045,1.144018,0.225817,-0.280125,0.431403,1.579451,-0.067515,-0.583989,3.170728,2.842821,6.511277,-8.912725,17.926342,0.158413,-0.043648,0.000000,0.357868,0.045883,-0.000000
1.380000,-2.517300,0.243781,-1.640850,1.148303,0.241771,-0.280658,0.425888,1.610714,-0.038190,-0.516956,3.077359,3.023794,6.911431,-9.775977,18.245367,0.161970,-0.043218,0.000000,0.353205,0.038629,-0.000000
1.390000,-2.505796,0.246280,-1.643658,1.152536,0.258032,-0.280888,0.421064,1.640998,-0.007039,-0.445760,2.975208,3.207728,7.300688,-10.632343,18.512856,0.165477,-0.042865,0.000000,0.347878,0.030906,-0.000000
1.400000,-2.494249,0.248942,-1.646468,1.156724,0.274591,-0.280798,0.416973,1.670218,0.025964,-0.370942,2.864712,3.394051,7.610150,-11.463949,18.724707,0.168928,-0.042592,0.000000,0.341915,0.022758,0.000000
1.410000,-2.482661,0.251771,-1.649274,1.160876,0.291436,-0.280369,0.413645,1.698292,0.060842,-0.293557,2.745929,3.582222,7.889280,-12.316343,18.884422,0.172316,-0.042403,0.000000,0.335305,0.014280,0.000000
1.420000,-2.471032,0.254771,-1.652075,1.164997,0.308556,-0.279582,0.411102,1.725137,0.097609,-0.213156,2.618385,3.771740,8.324659,-13.225952,18.993175,0.175635,-0.042302,0.000000,0.327980,0.005415,0.000000
1.430000,-2.459361,0.257943,-1.654866,1.169098,0.325939,-0.278417,0.409382,1.750660,0.136277,-0.127064,2.481410,3.962086,8.898521,-14.177095,19.046892,0.178876,-0.042294,0.000000,0.319847,-0.004123,-0.000000
1.440000,-2.447650,0.261290,-1.657643,1.173185,0.343570,-0.276856,0.408560,1.774765,0.176851,-0.035186,2.334843,4.152677,9.356748,-15.121782,19.035548,0.182032,-0.042387,0.000000,0.310861,-0.014363,0.000000
1.450000,-2.435898,0.264814,-1.660403,1.177269,0.361434,-0.274880,0.408679,1.797357,0.219330,0.060071,2.178975,4.342797,9.718055,-16.056654,18.941941,0.185094,-0.042586,0.000000,0.301018,-0.025077,0.000000
1.460000,-2.424104,0.268518,-1.663141,1.181359,0.379517,-0.272470,0.409762,1.818344,0.263707,0.159175,2.013710,4.531516,10.146731,-17.011804,18.767663,0.188053,-0.042897,0.000000,0.290267,-0.036329,-0.000000
1.470000,-2.412270,0.272404,-1.665853,1.185464,0.397801,-0.269606,0.411862,1.837631,0.309960,0.263006,1.838739,4.718150,10.528805,-17.990340,18.547141,0.190899,-0.043327,0.000000,0.278533,-0.048231,-0.000000
1.480000,-2.400395,0.276474,-1.668533,1.189596,0.416269,-0.266270,0.415022,1.855119,0.358070,0.369751,1.653903,4.902459,10.780577,-19.011686,18.267676,0.193623,-0.043880,0.000000,0.265764,-0.060620,0.000000
1.490000,-2.388478,0.280730,-1.671178,1.193765,0.434903,-0.262444,0.419257,1.870709,0.408010,0.478617,1.458505,5.083503,11.073352,-20.062985,17.875346,0.196214,-0.044563,0.000000,0.251832,-0.073431,0.000000
1.500000,-2.376520,0.285172,-1.673782,1.197981,0.453684,-0.258110,0.424594,1.884289,0.459740,0.591218,1.252643,5.259966,11.565750,-20.911634,17.423151,0.198660,-0.045379,0.000000,0.236678,-0.086850,0.000000
1.510000,-2.364519,0.289803,-1.676340,1.202256,0.472589,-0.253250,0.431081,1.895762,0.513209,0.709932,1.040272,5.431966,12.125739,-21.581300,16.936018,0.200948,-0.046336,0.000000,0.220662,-0.101156,0.000000
1.520000,-2.352475,0.294624,-1.678847,1.206603,0.491599,-0.247846,0.438793,1.905095,0.568379,0.833733,0.821017,5.598686,12.353679,-22.736323,16.234659,0.203073,-0.047444,0.000000,0.203686,-0.116272,-0.000000
1.530000,-2.340387,0.299635,-1.681297,1.211032,0.510691,-0.241882,0.447756,1.912182,0.625183,0.957006,0.585546,5.756659,12.327219,-24.357030,15.292147,0.205021,-0.048711,0.000000,0.184658,-0.131614,-0.000000
1.540000,-2.328254,0.304838,-1.683685,1.215558,0.529842,-0.235342,0.457933,1.916806,0.683512,1.080277,0.333877,5.904529,12.574390,-25.526071,14.352364,0.206765,-0.050134,0.000000,0.163470,-0.147246,-0.000000
1.550000,-2.316076,0.310232,-1.686004,1.220191,0.549027,-0.228212,0.469362,1.918860,0.743273,1.208494,0.075024,6.043707,12.806480,-26.369493,13.490166,0.208289,-0.051721,0.000000,0.141018,-0.163731,-0.000000
1.560000,-2.303850,0.315818,-1.688249,1.224945,0.568220,-0.220477,0.482103,1.918306,0.804386,1.336407,-0.193513,6.174333,12.697750,-27.477062,12.532068,0.209584,-0.053483,0.000000,0.116982,-0.180532,0.000000
1.570000,-2.291577,0.321597,-1.690413,1.229833,0.587393,-0.212124,0.496090,1.914990,0.866760,1.462449,-0.474517,6.294348,13.190070,-28.250089,11.312770,0.210627,-0.055414,0.000000,0.090944,-0.197482,-0.000000
1.580000,-2.279254,0.327566,-1.692491,1.234867,0.606519,-0.203142,0.511352,1.908816,0.930273,1.600208,-0.758515,6.400588,14.423932,-28.436621,9.879473,0.211401,-0.057523,0.000000,0.063745,-0.216066,0.000000
1.590000,-2.266879,0.333727,-1.694476,1.240060,0.625570,-0.193519,0.528094,1.899819,0.994772,1.750927,-1.043249,6.491938,15.071701,-28.900326,8.444323,0.211900,-0.059835,0.000000,0.035535,-0.236465,0.000000
1.600000,-2.254452,0.340078,-1.696362,1.245429,0.644516,-0.183246,0.546370,1.887951,1.060112,1.901642,-1.336521,6.569474,15.047857,-29.833480,7.067292,0.212110,-0.062362,0.000000,0.005444,-0.257291,0.000000
1.610000,-2.241971,0.346617,-1.698141,1.250987,0.663329,-0.172316,0.566127,1.873089,1.126161,2.051885,-1.639919,6.633283,15.242141,-30.627348,5.603875,0.212007,-0.065101,0.000000,-0.026788,-0.278498,-0.000000
1.620000,-2.229433,0.353344,-1.699808,1.256751,0.681978,-0.160723,0.587408,1.855152,1.192778,2.206485,-1.949068,6.681552,15.533190,-30.988592,3.906317,0.211571,-0.068061,0.000000,-0.060817,-0.300625,0.000000
1.630000,-2.216836,0.360257,-1.701356,1.262736,0.700432,-0.148461,0.610256,1.834108,1.259792,2.362548,-2.259691,6.711410,15.554774,-31.154862,2.015513,0.210788,-0.071252,0.000000,-0.096304,-0.323336,-0.000000
1.640000,-2.204178,0.367353,-1.702777,1.268956,0.718660,-0.135527,0.634659,1.809959,1.327006,2.517581,-2.572166,6.721862,15.545834,-31.461288,0.128053,0.209642,-0.074676,0.000000,-0.133372,-0.346329,-0.000000
1.650000,-2.191457,0.374630,-1.704066,1.275429,0.736631,-0.121921,0.660608,1.782664,1.394229,2.673465,-2.888917,6.713971,15.842880,-31.640249,-1.693989,0.208117,-0.078336,0.000000,-0.172330,-0.369812,-0.000000
1.660000,-2.178669,0.382086,-1.705216,1.282168,0.754313,-0.107643,0.688128,1.752180,1.461285,2.834438,-3.204971,6.687982,16.236229,-31.494081,-3.580773,0.206192,-0.082237,0.000000,-0.212673,-0.394265,0.000000
1.670000,-2.165813,0.389716,-1.706219,1.289191,0.771674,-0.092695,0.717297,1.718565,1.527989,2.998190,-3.518798,6.642355,15.909840,-31.789296,-5.678794,0.203860,-0.086393,0.000000,-0.254285,-0.419394,-0.000000
1.680000,-2.152886,0.397519,-1.707070,1.296514,0.788684,-0.077083,0.748092,1.681804,1.594132,3.152635,-3.840756,6.574407,15.010088,-32.672982,-7.984250,0.201103,-0.090804,0.000000,-0.298428,-0.443707,-0.000000
1.690000,-2.139883,0.405490,-1.707761,1.304153,0.805311,-0.060812,0.780350,1.641750,1.659477,3.298391,-4.172258,6.482670,14.604349,-33.050891,-10.286086,0.197888,-0.095451,0.000000,-0.345352,-0.467169,0.000000
1.700000,-2.126802,0.413625,-1.708286,1.312121,0.821519,-0.043893,0.814060,1.598359,1.723786,3.444722,-4.501774,6.368685,13.988294,-32.417123,-12.258150,0.194192,-0.100335,0.000000,-0.393701,-0.490817,0.000000
1.710000,-2.113641,0.421920,-1.708639,1.320434,0.837278,-0.026337,0.849244,1.551714,1.786851,3.578157,-4.820600,6.237507,12.502831,-31.534085,-14.056158,0.190010,-0.105457,0.000000,-0.442250,-0.513015,-0.000000
1.720000,-2.100394,0.430371,-1.708813,1.329106,0.852554,-0.008156,0.885623,1.501947,1.848536,3.694779,-5.132456,6.087562,12.371147,-31.543524,-16.566463,0.185344,-0.110783,0.000000,-0.491385,-0.533137,0.000000
1.730000,-2.087058,0.438971,-1.708802,1.338147,0.867317,0.010634,0.923140,1.449065,1.908602,3.825580,-5.451471,5.906178,13.579974,-31.909234,-19.684623,0.180179,-0.116305,0.000000,-0.543097,-0.554673,0.000000
1.740000,-2.073631,0.447717,-1.708600,1.347569,0.881535,0.030016,0.962135,1.392918,1.966659,3.966378,-5.770641,5.693869,13.069120,-31.167868,-22.196552,0.174479,-0.122059,0.000000,-0.596437,-0.577038,0.000000
1.750000,-2.060107,0.456602,-1.708201,1.357390,0.895175,0.049967,1.002467,1.333652,2.022480,4.086963,-6.074828,5.462247,12.831340,-31.337059,-24.489532,0.168248,-0.128023,0.000000,-0.649056,-0.596530,0.000000
1.760000,-2.046483,0.465621,-1.707601,1.367618,0.908208,0.070465,1.043874,1.271421,2.075904,4.223005,-6.397382,5.204079,14.737555,-33.197066,-27.318523,0.161496,-0.134160,0.000000,-0.705150,-0.617310,-0.000000
1.770000,-2.032755,0.474766,-1.706792,1.378267,0.920603,0.091485,1.086927,1.205705,2.126561,4.381714,-6.738769,4.915877,12.206440,-30.648348,-29.260565,0.154143,-0.140531,0.000000,-0.764772,-0.640144,0.000000
1.780000,-2.018918,0.484033,-1.705771,1.389357,0.932322,0.112997,1.131508,1.136646,2.174222,4.467134,-7.010349,4.618867,4.502294,-23.440103,-29.999616,0.146199,-0.147114,0.000000,-0.815820,-0.653124,-0.000000
1.790000,-2.004968,0.493413,-1.704532,1.400897,0.943336,0.134970,1.176270,1.065498,2.218938,4.471760,-7.207571,4.315884,0.844111,-20.001134,-31.534701,0.137827,-0.153732,0.000000,-0.857145,-0.655032,0.000000
1.800000,-1.990900,0.502899,-1.703071,1.412882,0.953632,0.157375,1.220943,0.992494,2.260540,4.484016,-7.410371,3.988173,1.057841,-19.403483,-33.957236,0.129058,-0.160338,0.000000,-0.899179,-0.656565,0.000000
1.810000,-1.976710,0.512485,-1.701385,1.425316,0.963186,0.180181,1.265950,0.917290,2.298702,4.492916,-7.595641,3.636740,-0.967109,-16.128258,-35.904858,0.119846,-0.166970,0.000000,-0.938663,-0.656239,0.000000
1.820000,-1.962393,0.522163,-1.699468,1.438201,0.971978,0.203349,1.310802,0.840581,2.333274,4.464674,-7.732937,3.270076,-2.198981,-15.014979,-37.662364,0.110288,-0.173554,0.000000,-0.971081,-0.649756,-0.000000
1.830000,-1.947946,0.531925,-1.697318,1.451532,0.979998,0.226846,1.355244,0.762632,2.364103,4.448937,-7.895941,2.883492,0.324496,-18.507968,-39.844976,0.100429,-0.180041,0.000000,-1.005923,-0.643310,0.000000
1.840000,-1.933363,0.541763,-1.694931,1.465306,0.987230,0.250632,1.399780,0.682663,2.390944,4.471164,-8.103096,2.473177,1.813526,-19.440718,-41.899771,0.090174,-0.186482,0.000000,-1.045539,-0.640066,-0.000000
1.850000,-1.918640,0.551670,-1.692305,1.479528,0.993651,0.274665,1.444667,0.600570,2.413567,4.485207,-8.284755,2.045497,-3.118614,-14.841487,-42.773783,0.079523,-0.192891,0.000000,-1.080330,-0.634138,-0.000000
1.860000,-1.903772,0.561636,-1.689438,1.494200,0.999242,0.298903,1.489485,0.516968,2.431854,4.408792,-8.399926,1.617701,-10.723088,-9.818647,-42.928454,0.068574,-0.199201,0.000000,-1.104256,-0.615228,-0.000000
1.870000,-1.888756,0.571654,-1.686327,1.509317,1.003990,0.323302,1.532843,0.432571,2.445921,4.270746,-8.481128,1.186928,-7.341828,-10.552214,-45.063271,0.057445,-0.205221,0.000000,-1.121582,-0.587045,-0.000000
1.880000,-1.873586,0.581716,-1.682972,1.524856,1.007893,0.347821,1.574899,0.347345,2.455593,4.261955,-8.610970,0.716435,5.157140,-14.741349,-48.867319,0.046150,-0.210957,0.000000,-1.143641,-0.573436,0.000000
1.890000,-1.858259,0.591812,-1.679371,1.540815,1.010937,0.372414,1.618082,0.260352,2.460250,4.373888,-8.775955,0.209581,8.450641,-14.432176,-50.683087,0.034581,-0.216698,0.000000,-1.168107,-0.573241,-0.000000
1.900000,-1.842770,0.601935,-1.675523,1.557218,1.013100,0.397026,1.662377,0.171826,2.459784,4.430968,-8.899614,-0.297226,8.250788,-14.113450,-51.830567,0.022797,-0.222425,0.000000,-1.184188,-0.564652,-0.000000
1.910000,-1.827114,0.612074,-1.671430,1.574063,1.014374,0.421610,1.706701,0.082359,2.454305,4.538904,-9.058224,-0.827030,16.152766,-18.594400,-54.600147,0.010907,-0.227990,0.000000,-1.202093,-0.560749,-0.000000
1.920000,-1.811288,0.622222,-1.667091,1.591352,1.014747,0.446112,1.753155,-0.009339,2.443244,4.754023,-9.271502,-1.389229,11.660218,-13.613388,-54.318854,-0.001233,-0.233636,0.000000,-1.223965,-0.568271,-0.000000
1.930000,-1.795287,0.632369,-1.662508,1.609126,1.014187,0.470474,1.801782,-0.103071,2.426521,4.772108,-9.330492,-1.913407,-9.993746,2.790576,-50.049754,-0.013561,-0.239351,0.000000,-1.222113,-0.550261,-0.000000
1.940000,-1.779106,0.642506,-1.657682,1.627388,1.012686,0.494643,1.848597,-0.195948,2.404976,4.554148,-9.215690,-2.390224,-19.689478,10.648264,-48.386660,-0.025668,-0.244641,0.000000,-1.195163,-0.502910,-0.000000
1.950000,-1.762739,0.652623,-1.652615,1.646098,1.010268,0.518574,1.892865,-0.287384,2.378716,4.378319,-9.117526,-2.881140,-15.241330,9.922518,-49.588937,-0.037458,-0.249412,0.000000,-1.168381,-0.460217,-0.000000
1.960000,-1.746184,0.662711,-1.647310,1.665245,1.006938,0.542217,1.936164,-0.378299,2.347353,4.249322,-9.017240,-3.382003,-16.384153,13.958915,-49.205503,-0.049028,-0.253850,0.000000,-1.139224,-0.422828,-0.000000
1.970000,-1.729435,0.672762,-1.641771,1.684821,1.002702,0.565521,1.977851,-0.467729,2.311076,4.050636,-8.838348,-3.865250,-21.053088,17.485201,-48.325705,-0.060237,-0.257879,0.000000,-1.098549,-0.377238,-0.000000
1.980000,-1.712487,0.682765,-1.636000,1.704802,0.997584,0.588439,2.017177,-0.555066,2.270048,3.828260,-8.667536,-4.348517,-21.460261,15.234991,-48.668287,-0.070996,-0.261410,0.000000,-1.057854,-0.328999,-0.000000
1.990000,-1.695339,0.692713,-1.630002,1.725165,0.991601,0.610922,2.054416,-0.641080,2.224106,3.621431,-8.533648,-4.838616,-22.193167,15.593533,-48.341683,-0.081391,-0.264477,0.000000,-1.020730,-0.282892,-0.000000
2.000000,-1.677984,0.702597,-1.623781,1.745890,0.984762,0.632921,2.089605,-0.725739,2.173276,3.384397,-8.355665,-5.315351,-29.262185,22.003010,-46.301015,-0.091408,-0.267088,0.000000,-0.977438,-0.234138,0.000000
2.010000,-1.660421,0.712409,-1.617343,1.766957,0.977086,0.654387,2.122104,-0.808193,2.117799,3.036187,-8.093588,-5.764636,-38.755904,28.347179,-43.964231,-0.100939,-0.269182,0.000000,-0.924028,-0.173781,0.000000
2.020000,-1.642645,0.722139,-1.610694,1.788332,0.968598,0.675277,2.150329,-0.887611,2.057983,2.609278,-7.788721,-6.194635,-36.791591,28.267571,-43.342548,-0.109890,-0.270586,0.000000,-0.866198,-0.106076,-0.000000
2.030000,-1.624654,0.731781,-1.603838,1.809963,0.959334,0.695547,2.174290,-0.963968,1.993906,2.300355,-7.528237,-6.631487,-24.683589,23.957666,-43.873474,-0.118265,-0.271321,0.000000,-0.813847,-0.053725,0.000000
2.040000,-1.606446,0.741326,-1.596783,1.831818,0.949319,0.715155,2.196336,-1.038175,1.925353,2.115607,-7.309568,-7.072105,-21.010463,23.525805,-42.956221,-0.126168,-0.271672,0.000000,-0.766357,-0.017002,-0.000000
2.050000,-1.588018,0.750767,-1.589535,1.853890,0.938570,0.734054,2.216602,-1.110159,1.852464,1.880146,-7.057721,-7.490612,-23.806297,25.366499,-41.427955,-0.133593,-0.271667,0.000000,-0.715858,0.023855,-0.000000
2.060000,-1.569368,0.760097,-1.582102,1.876150,0.927116,0.752204,2.233939,-1.179330,1.775541,1.639481,-6.802238,-7.900664,-20.890750,24.280443,-40.936751,-0.140488,-0.271195,0.000000,-0.665841,0.063747,0.000000
2.070000,-1.550495,0.769309,-1.574491,1.898569,0.914984,0.769565,2.249392,-1.246204,1.694451,1.462331,-6.572112,-8.309347,-21.747178,25.980258,-38.648651,-0.146912,-0.270383,0.000000,-0.619269,0.095173,0.000000
2.080000,-1.531397,0.778397,-1.566710,1.921138,0.902192,0.786093,2.263186,-1.310772,1.609354,1.204537,-6.282633,-8.673637,-30.954934,32.454025,-33.929510,-0.152876,-0.269274,0.000000,-0.567793,0.133177,0.000000
2.090000,-1.512072,0.787353,-1.558769,1.943833,0.888768,0.801752,2.273482,-1.371856,1.520978,0.843232,-5.923031,-8.987937,-34.482753,35.436923,-30.814919,-0.158273,-0.267693,0.000000,-0.510996,0.179709,0.000000
2.100000,-1.492520,0.796172,-1.550675,1.966608,0.874755,0.816513,2.280050,-1.429233,1.429595,0.514882,-5.573894,-9.289935,-31.291447,34.493555,-29.381416,-0.163101,-0.265639,0.000000,-0.456994,0.220639,-0.000000
2.110000,-1.472740,0.804848,-1.542439,1.989434,0.860184,0.830344,2.283780,-1.483334,1.335179,0.217403,-5.233160,-9.575565,-31.003531,35.247658,-26.921610,-0.167418,-0.263225,0.000000,-0.405532,0.256315,0.000000
2.120000,-1.452731,0.813376,-1.534068,2.012283,0.845088,0.843216,2.284398,-1.533896,1.238084,-0.105189,-4.868941,-9.828368,-31.793492,36.365763,-24.394581,-0.171217,-0.260445,0.000000,-0.353700,0.292417,0.000000
2.130000,-1.432494,0.821750,-1.525574,2.035122,0.829506,0.855106,2.281676,-1.580713,1.138612,-0.418467,-4.505845,-10.063457,-30.180706,35.791303,-22.804377,-0.174497,-0.257295,0.000000,-0.303825,0.325706,0.000000
2.140000,-1.412029,0.829966,-1.516966,2.057917,0.813474,0.865989,2.276029,-1.624013,1.036815,-0.708803,-4.153115,-10.284455,-29.539074,35.849752,-20.620597,-0.177298,-0.253834,0.000000,-0.256696,0.354986,-0.000000
2.150000,-1.391336,0.838019,-1.508254,2.080642,0.797025,0.875842,2.267500,-1.663775,0.932923,-1.009248,-3.788850,-10.475869,-30.710744,37.103727,-17.618022,-0.179636,-0.250086,0.000000,-0.210375,0.383432,-0.000000
2.160000,-1.370416,0.845906,-1.499449,2.103267,0.780198,0.884647,2.255844,-1.699790,0.827297,-1.323018,-3.411041,-10.636816,-31.260132,37.878529,-14.889724,-0.181510,-0.246044,0.000000,-0.164703,0.411410,0.000000
2.170000,-1.349270,0.853623,-1.490561,2.125759,0.763030,0.892388,2.241040,-1.731996,0.720186,-1.634451,-3.031279,-10.773663,-30.826607,37.820911,-12.411362,-0.182935,-0.241723,0.000000,-0.120677,0.437554,0.000000
2.180000,-1.327901,0.861167,-1.481602,2.148088,0.745558,0.899051,2.223155,-1.760415,0.611824,-1.939550,-2.654622,-10.885043,-30.255201,37.482142,-9.815761,-0.183928,-0.237147,0.000000,-0.078761,0.461540,-0.000000
2.190000,-1.306309,0.868535,-1.472580,2.170222,0.727821,0.904624,2.202249,-1.785089,0.502486,-2.239555,-2.281636,-10.969978,-29.809855,37.188125,-7.260712,-0.184514,-0.232337,0.000000,-0.038947,0.483598,0.000000
2.200000,-1.284496,0.875723,-1.463509,2.192133,0.709856,0.909100,2.178364,-1.806048,0.392424,-2.535747,-1.910860,-11.030257,-29.399191,37.042651,-4.783596,-0.184711,-0.227311,0.000000,-0.000974,0.504019,0.000000
2.210000,-1.262466,0.882732,-1.454398,2.213789,0.691700,0.912473,2.151534,-1.823306,0.281880,-2.827539,-1.540783,-11.065650,-28.877371,36.831881,-2.283313,-0.184537,-0.222084,0.000000,0.035392,0.522853,-0.000000
2.220000,-1.240221,0.889558,-1.445260,2.235163,0.673390,0.914738,2.121813,-1.836864,0.171111,-3.113294,-1.174222,-11.075923,-28.227719,36.090413,0.123171,-0.184007,-0.216675,0.000000,0.069958,0.540050,-0.000000
2.230000,-1.217763,0.896200,-1.436104,2.256226,0.654963,0.915895,2.089268,-1.846790,0.060362,-3.392093,-0.818975,-11.063187,-27.494861,34.884844,2.371641,-0.183141,-0.211099,0.000000,0.102102,0.555680,-0.000000
2.240000,-1.195096,0.902657,-1.426942,2.276949,0.636455,0.915945,2.053971,-1.853243,-0.050152,-3.663191,-0.476526,-11.028491,-26.696945,33.841162,4.614020,-0.181968,-0.205373,0.000000,0.131823,0.569802,-0.000000
2.250000,-1.172224,0.908929,-1.417785,2.297305,0.617898,0.914892,2.016004,-1.856321,-0.160208,-3.926032,-0.142152,-10.970907,-25.882756,32.957092,6.941575,-0.180507,-0.199513,0.000000,0.159670,0.582447,-0.000000
2.260000,-1.149150,0.915015,-1.408644,2.317269,0.599328,0.912741,1.975451,-1.856086,-0.269570,-4.180847,0.182616,-10.889659,-25.042760,31.824242,9.228737,-0.178776,-0.193533,0.000000,0.185580,0.593730,-0.000000
2.270000,-1.125878,0.920915,-1.399530,2.336814,0.580777,0.909501,1.932387,-1.852669,-0.378001,-4.426887,0.494333,-10.786332,-24.031526,30.579733,11.229430,-0.176797,-0.187446,0.000000,0.209362,0.603709,-0.000000
2.280000,-1.102414,0.926630,-1.390454,2.355917,0.562275,0.905181,1.886913,-1.846200,-0.485297,-4.661477,0.794211,-10.665070,-22.853206,29.374082,12.959182,-0.174591,-0.181267,0.000000,0.231304,0.612302,-0.000000
2.290000,-1.078760,0.932161,-1.381426,2.374552,0.543853,0.899795,1.839158,-1.836784,-0.591302,-4.883951,1.081815,-10.527148,-21.715768,27.997190,14.731698,-0.172173,-0.175011,0.000000,0.251477,0.619552,0.000000
2.300000,-1.054923,0.937507,-1.372458,2.392700,0.525539,0.893355,1.789234,-1.824563,-0.695840,-5.095792,1.354155,-10.370436,-20.631794,26.459307,16.637688,-0.169562,-0.168690,0.000000,0.269654,0.625643,-0.000000
2.310000,-1.030906,0.942671,-1.363559,2.410337,0.507361,0.885878,1.737242,-1.809701,-0.798711,-5.296587,1.611001,-10.194394,-19.469140,24.914927,18.450891,-0.166780,-0.162316,0.000000,0.285899,0.630607,0.000000
2.320000,-1.006716,0.947655,-1.354740,2.427445,0.489345,0.877381,1.683302,-1.792343,-0.899728,-5.485175,1.852453,-10.001419,-18.253872,23.251271,19.942755,-0.163845,-0.155900,0.000000,0.300345,0.634449,-0.000000
2.330000,-0.982357,0.952458,-1.346012,2.444003,0.471514,0.867883,1.627538,-1.772652,-0.998740,-5.661665,2.076026,-9.795539,-17.043539,21.410083,21.171124,-0.160774,-0.149453,0.000000,0.312904,0.637301,0.000000
2.340000,-0.957836,0.957085,-1.337383,2.459995,0.453892,0.857406,1.570069,-1.750823,-1.095639,-5.826046,2.280655,-9.577996,-15.800908,19.577403,22.424300,-0.157587,-0.142986,0.000000,0.323574,0.639230,-0.000000
2.350000,-0.933157,0.961536,-1.328864,2.475405,0.436498,0.845971,1.511017,-1.727039,-1.190299,-5.977683,2.467574,-9.347053,-14.494543,17.840390,23.775810,-0.154302,-0.136507,0.000000,0.332508,0.640206,0.000000
2.360000,-0.908328,0.965815,-1.320463,2.490216,0.419351,0.833600,1.450515,-1.701471,-1.282580,-6.115937,2.637463,-9.102480,-13.162008,16.078159,25.025097,-0.150937,-0.130027,0.000000,0.339827,0.640222,-0.000000
2.370000,-0.883353,0.969923,-1.312192,2.504415,0.402469,0.820319,1.388699,-1.674290,-1.372349,-6.240923,2.789137,-8.846551,-11.885173,14.127969,25.986523,-0.147506,-0.123554,0.000000,0.345515,0.639363,0.000000
2.380000,-0.858239,0.973864,-1.304057,2.517990,0.385865,0.806153,1.325697,-1.645689,-1.459511,-6.353640,2.920022,-8.582750,-10.660362,12.048360,26.716929,-0.144026,-0.117098,0.000000,0.349442,0.637790,-0.000000
2.390000,-0.832993,0.977641,-1.296068,2.530929,0.369555,0.791129,1.261626,-1.615889,-1.544004,-6.454130,3.030105,-8.312213,-9.388608,10.068229,27.455116,-0.140516,-0.110663,0.000000,0.351672,0.635542,0.000000
2.400000,-0.807621,0.981255,-1.288234,2.543222,0.353548,0.775273,1.196614,-1.585086,-1.625755,-6.541412,3.121387,-8.033647,-8.062734,8.127394,28.259263,-0.136992,-0.104259,0.000000,0.352404,0.632549,-0.000000
2.410000,-0.782129,0.984711,-1.280563,2.554861,0.337853,0.758614,1.130798,-1.553462,-1.704677,-6.615385,3.192652,-7.747028,-6.756674,6.094359,28.968493,-0.133467,-0.097891,0.000000,0.351570,0.628828,0.000000
2.420000,-0.756524,0.988012,-1.273062,2.565838,0.322478,0.741179,1.064306,-1.521233,-1.780696,-6.676546,3.243274,-7.454277,-5.488953,4.210059,29.445060,-0.129960,-0.091567,0.000000,0.349177,0.624460,-0.000000
2.430000,-0.730812,0.991161,-1.265739,2.576147,0.307428,0.723000,0.997267,-1.488596,-1.853763,-6.725164,3.276854,-7.158126,-4.243039,2.544565,29.740908,-0.126483,-0.085294,0.000000,0.345584,0.619505,-0.000000
2.440000,-0.705001,0.994161,-1.258602,2.585783,0.292706,0.704104,0.929803,-1.455696,-1.923858,-6.761407,3.294165,-6.859459,-3.007727,0.772499,30.037832,-0.123047,-0.079076,0.000000,0.340883,0.613991,-0.000000
2.450000,-0.679096,0.997015,-1.251657,2.594743,0.278314,0.684523,0.862039,-1.422713,-1.990952,-6.785318,3.292304,-6.557370,-1.761357,-1.163499,30.366428,-0.119664,-0.072919,0.000000,0.334838,0.607925,0.000000
2.460000,-0.653106,0.999727,-1.244912,2.603024,0.264252,0.664285,0.794097,-1.389850,-2.055005,-6.796634,3.270895,-6.252131,-0.518813,-3.026522,30.610126,-0.116349,-0.066828,0.000000,0.327439,0.601292,0.000000
2.470000,-0.627036,1.002300,-1.238372,2.610625,0.250517,0.643422,0.726106,-1.357295,-2.115994,-6.795695,3.231773,-5.945167,0.636961,-4.716827,30.712045,-0.113115,-0.060809,0.000000,0.318864,0.594135,-0.000000
2.480000,-0.600893,1.004738,-1.232043,2.617546,0.237106,0.621965,0.658183,-1.325215,-2.173909,-6.783895,3.176559,-5.637890,1.701300,-6.302885,30.716332,-0.109971,-0.054867,0.000000,0.309266,0.586577,0.000000
2.490000,-0.574685,1.007042,-1.225932,2.623789,0.224013,0.599944,0.590428,-1.293764,-2.228752,-6.761669,3.105715,-5.330841,2.780743,-7.887415,30.700973,-0.106928,-0.049005,0.000000,0.298692,0.578652,0.000000
2.500000,-0.548417,1.009218,-1.220044,2.629355,0.211231,0.577390,0.522949,-1.263101,-2.280526,-6.728280,3.018810,-5.023870,3.901475,-9.486326,30.673713,-0.103996,-0.043226,0.000000,0.287104,0.570294,-0.000000
2.510000,-0.522098,1.011267,-1.214385,2.634248,0.198751,0.554334,0.455862,-1.233388,-2.329230,-6.683639,2.915989,-4.717366,4.985536,-11.022388,30.591337,-0.101185,-0.037535,0.000000,0.274517,0.561492,0.000000
2.520000,-0.495733,1.013193,-1.208958,2.638472,0.186563,0.530806,0.389277,-1.204781,-2.374873,-6.628569,2.798363,-4.412044,5.970099,-12.421152,30.450372,-0.098505,-0.031937,0.000000,0.261024,0.552311,0.000000
2.530000,-0.469328,1.014998,-1.203768,2.642033,0.174656,0.506836,0.323291,-1.177420,-2.417470,-6.564237,2.667566,-4.108359,6.875067,-13.696522,30.275283,-0.095964,-0.026434,0.000000,0.246754,0.542837,-0.000000
2.540000,-0.442892,1.016686,-1.198821,2.644938,0.163015,0.482456,0.257992,-1.151429,-2.457040,-6.491068,2.524432,-3.806538,7.775968,-14.934868,30.078086,-0.093569,-0.021028,0.000000,0.231767,0.533094,-0.000000
2.550000,-0.416430,1.018259,-1.194119,2.647193,0.151627,0.457696,0.193470,-1.126932,-2.493601,-6.408718,2.368869,-3.506797,8.692647,-16.167966,29.842078,-0.091328,-0.015723,0.000000,0.216045,0.523045,0.000000
2.560000,-0.389948,1.019718,-1.189667,2.648807,0.140476,0.432584,0.129818,-1.104052,-2.527176,-6.317215,2.201073,-3.209696,9.570882,-17.329029,29.570133,-0.089247,-0.010522,0.000000,0.199598,0.512679,0.000000
2.570000,-0.363453,1.021068,-1.185468,2.649790,0.129546,0.407152,0.067125,-1.082910,-2.557795,-6.217300,2.022288,-2.915394,10.354070,-18.321067,29.326003,-0.087335,-0.005427,0.000000,0.182511,0.502045,-0.000000
2.580000,-0.336952,1.022309,-1.181524,2.650150,0.118818,0.381428,0.005472,-1.063606,-2.585484,-6.110133,1.834652,-2.623176,11.055911,-19.156875,29.122960,-0.085596,-0.000441,0.000000,0.164935,0.491221,-0.000000
2.590000,-0.310450,1.023444,-1.177839,2.649899,0.108274,0.355442,-0.055077,-1.046217,-2.610259,-5.996182,1.639150,-2.332935,11.747586,-19.957278,28.883386,-0.084036,0.004434,0.000000,0.146932,0.480231,-0.000000
2.600000,-0.283954,1.024475,-1.174415,2.649048,0.097894,0.329223,-0.114452,-1.030823,-2.632143,-5.875182,1.435506,-2.045509,12.445498,-20.747414,28.564697,-0.082657,0.009198,0.000000,0.128467,0.469041,0.000000
2.610000,-0.257469,1.025402,-1.171255,2.647610,0.087657,0.302799,-0.172581,-1.017507,-2.651169,-5.747272,1.224202,-1.761641,13.100012,-21.440265,28.230338,-0.081466,0.013849,0.000000,0.109563,0.457646,-0.000000
2.620000,-0.231002,1.026228,-1.168359,2.645597,0.077544,0.276200,-0.229397,-1.006339,-2.667375,-5.613181,1.006701,-1.480902,13.670040,-21.971935,28.002468,-0.080465,0.018383,0.000000,0.090316,0.446087,0.000000
2.630000,-0.204558,1.026953,-1.165731,2.643022,0.067531,0.249452,-0.284845,-0.997373,-2.680787,-5.473871,0.784763,-1.201592,14.170769,-22.364986,27.874253,-0.079659,0.022800,0.000000,0.070832,0.434430,-0.000000
2.640000,-0.178142,1.027579,-1.163370,2.639900,0.057596,0.222584,-0.338875,-0.990644,-2.691407,-5.329766,0.559401,-0.923417,14.653939,-22.695859,27.690205,-0.079048,0.027100,0.000000,0.051171,0.422695,0.000000
2.650000,-0.151760,1.028105,-1.161279,2.636244,0.047718,0.195624,-0.391440,-0.986185,-2.699255,-5.180792,0.330846,-0.647788,15.124410,-22.987610,27.398290,-0.078635,0.031282,0.000000,0.031337,0.410859,0.000000
2.660000,-0.125417,1.028533,-1.159458,2.632071,0.037872,0.168599,-0.442491,-0.984027,-2.704363,-5.027278,0.099649,-0.375451,15.547634,-23.185330,27.111471,-0.078422,0.035344,0.000000,0.011357,0.398930,0.000000
2.670000,-0.099118,1.028863,-1.157907,2.627395,0.028037,0.141537,-0.491985,-0.984192,-2.706764,-4.869840,-0.132860,-0.105558,15.914569,-23.222190,26.964144,-0.078408,0.039286,0.000000,-0.008691,0.386942,-0.000000
2.680000,-0.072869,1.029094,-1.156627,2.622231,0.018189,0.114464,-0.539888,-0.986684,-2.706474,-4.708986,-0.364795,0.163832,16.237671,-23.108667,26.929454,-0.078595,0.043107,0.000000,-0.028693,0.374927,0.000000
2.690000,-0.046674,1.029226,-1.155618,2.616597,0.008303,0.087407,-0.586165,-0.991488,-2.703488,-4.545086,-0.595034,0.433031,16.526851,-22.931140,26.835338,-0.078982,0.046808,0.000000,-0.048584,0.362902,-0.000000
2.700000,-0.020537,1.029260,-1.154879,2.610508,-0.001641,0.060394,-0.630789,-0.998585,-2.697814,-4.378449,-0.823418,0.700539,16.778991,-22.731355,26.633500,-0.079567,0.050389,0.000000,-0.068364,0.350873,0.000000
2.710000,0.005537,1.029193,-1.154410,2.603981,-0.011668,0.033451,-0.673734,-1.007956,-2.689477,-4.209506,-1.049661,0.965701,16.988606,-22.447859,26.443660,-0.080350,0.053849,0.000000,-0.088030,0.338855,0.000000
2.720000,0.031543,1.029026,-1.154210,2.597033,-0.021800,0.006604,-0.714979,-1.019578,-2.678500,-4.038677,-1.272375,1.229412,17.163393,-21.970553,26.385389,-0.081328,0.057189,0.000000,-0.107497,0.326869,0.000000
2.730000,0.057477,1.028757,-1.154278,2.589682,-0.032060,-0.020119,-0.754508,-1.033404,-2.664889,-3.866239,-1.489072,1.493408,17.305852,-21.314638,26.425347,-0.082500,0.060409,0.000000,-0.126601,0.314931,-0.000000
2.740000,0.083336,1.028385,-1.154612,2.581943,-0.042468,-0.046693,-0.792304,-1.049360,-2.648631,-3.692560,-1.698668,1.757919,17.405726,-20.627875,26.408000,-0.083861,0.063509,0.000000,-0.145278,0.303060,-0.000000
2.750000,0.109116,1.027908,-1.155212,2.573835,-0.053047,-0.073092,-0.828359,-1.067377,-2.629730,-3.518124,-1.901629,2.021568,17.463236,-19.941764,26.292062,-0.085406,0.066492,0.000000,-0.163577,0.291273,0.000000
2.760000,0.134813,1.027324,-1.156074,2.565376,-0.063816,-0.099288,-0.862667,-1.087392,-2.608200,-3.343296,-2.097503,2.283760,17.485869,-19.157279,26.182117,-0.087133,0.069357,0.000000,-0.181476,0.279582,0.000000
2.770000,0.160424,1.026632,-1.157197,2.556582,-0.074795,-0.125256,-0.895225,-1.109327,-2.584055,-3.168407,-2.284775,2.545211,17.470986,-18.212214,26.175084,-0.089036,0.072105,0.000000,-0.198878,0.268003,-0.000000
2.780000,0.185945,1.025828,-1.158579,2.547471,-0.086003,-0.150969,-0.926035,-1.133088,-2.557296,-2.993876,-2.461747,2.807262,17.415789,-17.138411,26.238099,-0.091111,0.074738,0.000000,-0.215673,0.256564,0.000000
2.790000,0.211373,1.024912,-1.160217,2.538061,-0.097457,-0.176402,-0.955102,-1.158562,-2.527910,-2.820091,-2.627543,3.069973,17.325434,-16.017624,26.241741,-0.093350,0.077258,0.000000,-0.231808,0.245284,-0.000000
2.800000,0.236706,1.023879,-1.162107,2.528369,-0.109174,-0.201527,-0.982437,-1.185639,-2.495896,-2.647367,-2.782100,3.332097,17.204579,-14.876392,26.156644,-0.095748,0.079666,0.000000,-0.247282,0.234170,-0.000000
2.810000,0.261941,1.022728,-1.164247,2.518413,-0.121169,-0.226320,-1.008050,-1.214204,-2.461268,-2.475999,-2.925071,3.593106,17.049916,-13.662880,26.066150,-0.098297,0.081963,0.000000,-0.262076,0.223229,0.000000
2.820000,0.287074,1.021456,-1.166634,2.508208,-0.133458,-0.250753,-1.031957,-1.244140,-2.424034,-2.306369,-3.055357,3.853420,16.851320,-12.313335,26.030583,-0.100990,0.084152,0.000000,-0.276116,0.212482,-0.000000
2.830000,0.312105,1.020059,-1.169262,2.497774,-0.146052,-0.274800,-1.054177,-1.275311,-2.384199,-2.138973,-3.171338,4.113717,16.609821,-10.842929,26.018792,-0.103820,0.086235,0.000000,-0.289283,0.201962,0.000000
2.840000,0.337030,1.018535,-1.172130,2.487125,-0.158964,-0.298437,-1.074736,-1.307567,-2.341760,-1.974172,-3.272216,4.373795,16.340037,-9.342770,25.947297,-0.106777,0.088213,0.000000,-0.301520,0.191687,-0.000000
2.850000,0.361847,1.016880,-1.175231,2.476279,-0.172204,-0.321636,-1.093660,-1.340756,-2.296724,-1.812172,-3.358193,4.632663,16.045532,-7.854083,25.807314,-0.109852,0.090090,0.000000,-0.312836,0.181657,0.000000
2.860000,0.386555,1.015091,-1.178562,2.465252,-0.185779,-0.344371,-1.110979,-1.374731,-2.249107,-1.653262,-3.429298,4.889942,15.717076,-6.319066,25.647903,-0.113035,0.091869,0.000000,-0.323232,0.171882,-0.000000
2.870000,0.411152,1.013164,-1.182118,2.454059,-0.199698,-0.366618,-1.126726,-1.409342,-2.198925,-1.497831,-3.484574,5.145621,15.348727,-4.644175,25.473272,-0.116317,0.093550,0.000000,-0.332629,0.162385,0.000000
2.880000,0.435636,1.011097,-1.185895,2.442717,-0.213966,-0.388350,-1.140936,-1.444422,-2.146194,-1.346287,-3.522181,5.399407,14.943125,-2.847901,25.258620,-0.119688,0.095138,0.000000,-0.340868,0.153187,0.000000
2.890000,0.460007,1.008885,-1.189885,2.431241,-0.228587,-0.409542,-1.153651,-1.479785,-2.090937,-1.198968,-3.541532,5.650794,14.509155,-1.064536,24.993660,-0.123136,0.096636,0.000000,-0.347887,0.144306,0.000000
2.900000,0.484261,1.006525,-1.194085,2.419644,-0.243562,-0.430168,-1.164915,-1.515253,-2.033178,-1.056104,-3.543472,5.899280,14.055497,0.664639,24.693375,-0.126647,0.098046,0.000000,-0.353738,0.135750,-0.000000
2.910000,0.508399,1.004014,-1.198489,2.407942,-0.258892,-0.450205,-1.174774,-1.550655,-1.972951,-0.917858,-3.528240,6.144661,13.576597,2.423862,24.355564,-0.130211,0.099373,0.000000,-0.358423,0.127523,0.000000
2.920000,0.532420,1.001347,-1.203090,2.396149,-0.274575,-0.469627,-1.183273,-1.585817,-1.910285,-0.784572,-3.494995,6.386392,13.050032,4.293079,23.926176,-0.133817,0.100618,0.000000,-0.361849,0.119644,0.000000
2.930000,0.556322,0.998522,-1.207881,2.384277,-0.290608,-0.488411,-1.190465,-1.620555,-1.845223,-0.656858,-3.442378,6.623185,12.475955,6.243889,23.392898,-0.137449,0.101787,0.000000,-0.363863,0.112150,0.000000
2.940000,0.580106,0.995535,-1.212858,2.372339,-0.306986,-0.506532,-1.196410,-1.654665,-1.777821,-0.535053,-3.370117,6.854250,11.887016,8.159289,22.822317,-0.141095,0.102883,0.000000,-0.364403,0.105059,-0.000000
2.950000,0.603769,0.992382,-1.218012,2.360349,-0.323701,-0.523967,-1.201166,-1.687957,-1.708138,-0.419117,-3.279192,7.079631,11.300806,9.986368,22.259986,-0.144738,0.103909,0.000000,-0.363518,0.098366,0.000000
2.960000,0.627313,0.989061,-1.223337,2.348316,-0.340745,-0.540695,-1.204792,-1.720249,-1.636229,-0.309037,-3.170389,7.299449,10.695648,11.795887,21.651215,-0.148366,0.104871,0.000000,-0.361241,0.092069,-0.000000
2.970000,0.650736,0.985568,-1.228826,2.336253,-0.358106,-0.556692,-1.207347,-1.751365,-1.562149,-0.205204,-3.043275,7.512655,10.029819,13.702725,20.866072,-0.151963,0.105771,0.000000,-0.357480,0.086193,-0.000000
2.980000,0.674038,0.981899,-1.234471,2.324169,-0.375772,-0.571938,-1.208896,-1.781114,-1.485976,-0.108441,-2.896335,7.716771,9.297345,15.665033,19.909360,-0.155516,0.106614,0.000000,-0.352028,0.080787,0.000000
2.990000,0.697219,0.978052,-1.240265,2.312075,-0.393729,-0.586411,-1.209516,-1.809291,-1.407814,-0.019257,-2.729974,7.910843,8.560110,17.517462,18.950181,-0.159004,0.107406,0.000000,-0.344847,0.075889,0.000000
3.000000,0.720279,0.974024,-1.246199,2.299979,-0.411958,-0.600094,-1.209281,-1.835714,-1.327759,0.062762,-2.545986,8.095774,7.924141,19.328531,18.042198,-0.162413,0.108151,0.000000,-0.336047,0.071478,0.000000
3.010000,0.743218,0.969813,-1.252267,2.287889,-0.430443,-0.612967,-1.208260,-1.860211,-1.245898,0.139225,-2.343403,8.271686,7.342681,21.189171,17.064777,-0.165725,0.108854,0.000000,-0.325488,0.067419,0.000000
3.020000,0.766037,0.965415,-1.258458,2.275814,-0.449162,-0.625012,-1.206497,-1.882582,-1.162325,0.209615,-2.122202,8.437070,6.528006,22.847250,15.886292,-0.168922,0.109518,0.000000,-0.313077,0.063745,0.000000
3.030000,0.788735,0.960830,-1.264767,2.263759,-0.468094,-0.636213,-1.204068,-1.902655,-1.077157,0.269786,-1.886458,8.589412,5.513805,24.266816,14.535253,-0.171986,0.110148,0.000000,-0.299057,0.060808,-0.000000
3.040000,0.811312,0.956054,-1.271183,2.251732,-0.487215,-0.646555,-1.201101,-1.920311,-0.990537,0.319891,-1.636866,8.727775,4.693528,25.783463,13.182161,-0.174903,0.110752,0.000000,-0.283402,0.058603,0.000000
3.050000,0.833769,0.951085,-1.277698,2.239737,-0.506501,-0.656024,-1.197670,-1.935392,-0.902601,0.363656,-1.370789,8.853056,3.930526,27.319712,11.893543,-0.177654,0.111338,0.000000,-0.265820,0.056817,0.000000
3.060000,0.856107,0.945924,-1.284303,2.227779,-0.525923,-0.664607,-1.193828,-1.947727,-0.813476,0.398502,-1.090472,8.965646,2.980457,28.645284,10.551115,-0.180218,0.111907,0.000000,-0.246429,0.055696,-0.000000
3.070000,0.878325,0.940567,-1.290990,2.215861,-0.545455,-0.672293,-1.189700,-1.957202,-0.723288,0.423265,-0.797883,9.064078,2.336183,30.050317,8.984650,-0.182581,0.112470,0.000000,-0.225299,0.055355,-0.000000
3.080000,0.900424,0.935014,-1.297749,2.203985,-0.565067,-0.679073,-1.185363,-1.963685,-0.632194,0.445225,-0.489465,9.145339,2.102905,31.605859,7.222022,-0.184723,0.113033,0.000000,-0.201981,0.055105,-0.000000
3.090000,0.922405,0.929266,-1.304571,2.192153,-0.584729,-0.684937,-1.180796,-1.966991,-0.540382,0.465323,-0.165766,9.208518,1.587434,32.879058,5.492874,-0.186619,0.113591,0.000000,-0.176406,0.054844,0.000000
3.100000,0.944267,0.923320,-1.311448,2.180369,-0.604407,-0.689880,-1.176056,-1.967000,-0.448024,0.476974,0.168116,9.255196,0.738419,33.900115,3.881561,-0.188249,0.114149,0.000000,-0.148965,0.055210,0.000000
3.110000,0.966012,0.917177,-1.318369,2.168632,-0.624069,-0.693898,-1.171256,-1.963629,-0.355278,0.480092,0.512236,9.286150,0.028310,34.945020,2.233253,-0.189596,0.114715,0.000000,-0.119575,0.056241,-0.000000
3.120000,0.987640,0.910839,-1.325326,2.156944,-0.643680,-0.696986,-1.166454,-1.956755,-0.262301,0.477540,0.867016,9.299861,-0.584180,35.767600,0.349420,-0.190638,0.115295,0.000000,-0.088081,0.057664,0.000000
3.130000,1.009151,0.904304,-1.332309,2.145303,-0.663204,-0.699144,-1.161705,-1.946289,-0.169280,0.468408,1.227588,9.293138,-1.291984,36.229812,-1.721950,-0.191354,0.115890,0.000000,-0.054792,0.059541,0.000000
3.140000,1.030546,0.897574,-1.339309,2.133710,-0.682606,-0.700372,-1.157086,-1.932203,-0.076438,0.451701,1.591612,9.265422,-1.990250,36.684138,-3.710134,-0.191730,0.116508,0.000000,-0.019842,0.061975,-0.000000
3.150000,1.051825,0.890652,-1.346316,2.122161,-0.701848,-0.700672,-1.152671,-1.914456,0.016028,0.428603,1.961271,9.218935,-2.467785,37.329470,-5.559479,-0.191748,0.117153,0.000000,0.017014,0.064893,-0.000000
3.160000,1.072989,0.883537,-1.353322,2.110656,-0.720895,-0.700051,-1.148514,-1.892978,0.107941,0.402345,2.338202,9.154233,-2.817166,37.899933,-7.444384,-0.191387,0.117830,0.000000,0.055998,0.067989,0.000000
3.170000,1.094038,0.876234,-1.360317,2.099191,-0.739708,-0.698514,-1.144624,-1.867692,0.199113,0.372260,2.719270,9.070048,-3.559502,37.917820,-9.465472,-0.190624,0.118538,0.000000,0.096904,0.071316,-0.000000
3.180000,1.114973,0.868743,-1.367292,2.087764,-0.758249,-0.696069,-1.141069,-1.838593,0.289342,0.331155,3.096558,8.964923,-4.660081,37.461314,-11.557098,-0.189445,0.119283,0.000000,0.139040,0.075591,-0.000000
3.190000,1.135794,0.861069,-1.374239,2.076370,-0.776479,-0.692727,-1.138001,-1.805761,0.378411,0.279058,3.468496,8.838906,-5.409560,37.155382,-13.580048,-0.187839,0.120078,0.000000,0.182271,0.080843,-0.000000
3.200000,1.156500,0.853214,-1.381147,2.065004,-0.794364,-0.688501,-1.135488,-1.769223,0.466120,0.222964,3.839666,8.693322,-5.879828,36.995020,-15.516626,-0.185795,0.120929,0.000000,0.227038,0.086388,0.000000
3.210000,1.177094,0.845182,-1.388009,2.053660,-0.811864,-0.683404,-1.133542,-1.728968,0.552278,0.161462,4.208396,8.528573,-6.531435,36.563470,-17.446152,-0.183294,0.121836,0.000000,0.273183,0.092376,0.000000
3.220000,1.197574,0.836976,-1.394815,2.042333,-0.828943,-0.677455,-1.132259,-1.685055,0.636691,0.092335,4.570935,8.344399,-6.992410,35.977415,-19.384444,-0.180327,0.122809,0.000000,0.320319,0.099045,-0.000000
3.230000,1.217940,0.828603,-1.401558,2.031015,-0.845565,-0.670671,-1.131695,-1.637549,0.719166,0.021613,4.927945,8.140884,-7.077467,35.372034,-21.290094,-0.176884,0.123850,0.000000,0.368470,0.105760,0.000000
3.240000,1.238194,0.820065,-1.408228,2.019699,-0.861694,-0.663072,-1.131826,-1.586496,0.799509,-0.049214,5.278376,7.918597,-7.330898,34.554932,-23.130123,-0.172954,0.124958,0.000000,0.417468,0.112351,0.000000
3.250000,1.258334,0.811369,-1.414819,2.008378,-0.877295,-0.654680,-1.132680,-1.531982,0.877537,-0.125005,5.619043,7.678282,-7.847293,33.608842,-24.921996,-0.168531,0.126132,0.000000,0.466901,0.119334,-0.000000
3.260000,1.278361,0.802519,-1.421322,1.997045,-0.892334,-0.645521,-1.134326,-1.474115,0.953074,-0.206160,5.950553,7.420158,-8.244271,32.661556,-26.670585,-0.163612,0.127379,0.000000,0.516735,0.126750,0.000000
3.270000,1.298275,0.793522,-1.427730,1.985692,-0.906777,-0.635619,-1.136803,-1.412971,1.025941,-0.289890,6.272274,7.144870,-8.424487,31.375755,-28.298335,-0.158193,0.128701,0.000000,0.566774,0.134292,0.000000
3.280000,1.318075,0.784384,-1.434034,1.974309,-0.920593,-0.625002,-1.140124,-1.348669,1.095972,-0.374650,6.578068,6.854191,-8.514284,29.689908,-29.782261,-0.152274,0.130099,0.000000,0.616164,0.141791,0.000000
3.290000,1.337761,0.775110,-1.440230,1.962889,-0.933751,-0.613700,-1.144296,-1.281409,1.163024,-0.460176,6.866072,6.549225,-8.610065,28.087534,-31.212543,-0.145867,0.131570,0.000000,0.664500,0.149206,-0.000000
3.300000,1.357333,0.765709,-1.446308,1.951423,-0.946221,-0.601742,-1.149328,-1.211348,1.226956,-0.546851,7.139819,6.229940,-8.720895,26.671376,-32.646030,-0.138982,0.133115,0.000000,0.711988,0.156550,0.000000
3.310000,1.376790,0.756186,-1.452264,1.939903,-0.957978,-0.589160,-1.155233,-1.138613,1.287623,-0.634594,7.399500,5.896304,-8.783958,25.115183,-34.003882,-0.131626,0.134732,0.000000,0.758449,0.163781,-0.000000
3.320000,1.396131,0.746549,-1.458092,1.928319,-0.968994,-0.575989,-1.162020,-1.063358,1.344882,-0.722530,7.642122,5.549862,-8.739862,23.264384,-35.114927,-0.123813,0.136419,0.000000,0.803299,0.170791,-0.000000
3.330000,1.415356,0.736806,-1.463784,1.916662,-0.979245,-0.562263,-1.169684,-0.985770,1.398620,-0.809391,7.864788,5.194006,-8.611329,21.235143,-35.983242,-0.115561,0.138174,0.000000,0.845914,0.177449,0.000000
3.340000,1.434464,0.726964,-1.469337,1.904925,-0.988709,-0.548017,-1.178207,-0.906062,1.448762,-0.894757,8.066825,4.830197,-8.474159,19.224972,-36.824216,-0.106895,0.139991,0.000000,0.885954,0.183693,-0.000000
3.350000,1.453455,0.717032,-1.474745,1.893098,-0.997366,-0.533287,-1.187579,-0.824434,1.495224,-0.978874,8.249287,4.457521,-8.310360,17.247895,-37.709657,-0.097843,0.141868,0.000000,0.923309,0.189501,0.000000
3.360000,1.472326,0.707017,-1.480003,1.881173,-1.005198,-0.518112,-1.197785,-0.741077,1.537913,-1.060964,8.411783,4.076004,-8.072015,15.186404,-38.480217,-0.088432,0.143799,0.000000,0.957686,0.194744,0.000000
3.370000,1.491078,0.696928,-1.485107,1.869143,-1.012188,-0.502529,-1.208798,-0.656198,1.576745,-1.140314,8.553015,3.687917,-7.820701,13.024631,-38.945746,-0.078693,0.145777,0.000000,0.988664,0.199337,0.000000
3.380000,1.509709,0.686773,-1.490053,1.856998,-1.018322,-0.486577,-1.220591,-0.570016,1.611671,-1.217378,8.672276,3.297089,-7.561892,10.799275,-39.135352,-0.068662,0.147797,0.000000,1.015903,0.203368,-0.000000
3.390000,1.528218,0.676561,-1.494838,1.844731,-1.023588,-0.470296,-1.233146,-0.482753,1.642686,-1.291552,8.769001,2.905210,-7.211127,8.544107,-39.290931,-0.058379,0.149854,0.000000,1.039126,0.206769,0.000000
3.400000,1.546604,0.666301,-1.499459,1.832335,-1.027977,-0.453724,-1.246422,-0.394636,1.669775,-1.361601,8.843158,2.511271,-6.862869,6.369624,-39.529059,-0.047885,0.151939,0.000000,1.058162,0.209351,0.000000
3.410000,1.564865,0.656002,-1.503913,1.819802,-1.031481,-0.436900,-1.260378,-0.305890,1.692912,-1.428810,8.896393,2.114629,-6.567373,4.260735,-39.675037,-0.037221,0.154044,0.000000,1.073063,0.211234,0.000000
3.420000,1.583000,0.645672,-1.508197,1.807127,-1.034094,-0.419865,-1.274998,-0.216708,1.712068,-1.492948,8.928372,1.717770,-6.027556,1.921509,-39.415270,-0.026429,0.156165,0.000000,1.083652,0.212418,-0.000000
3.430000,1.601007,0.635320,-1.512310,1.794302,-1.035815,-0.402659,-1.290237,-0.127322,1.727267,-1.549361,8.934823,1.326323,-5.213701,-0.624793,-38.791603,-0.015554,0.158293,0.000000,1.089312,0.212442,0.000000
3.440000,1.618886,0.624956,-1.516250,1.781322,-1.036641,-0.385320,-1.305986,-0.038012,1.738595,-1.597222,8.915877,0.941938,-4.544327,-2.952303,-38.221200,-0.004649,0.160414,0.000000,1.090036,0.211237,0.000000
3.450000,1.636634,0.614587,-1.520017,1.768183,-1.036575,-0.367887,-1.322181,0.050995,1.746106,-1.640247,8.875777,0.561899,-4.085725,-5.127237,-37.786982,0.006241,0.162517,0.000000,1.086356,0.209203,-0.000000
3.460000,1.654249,0.604224,-1.523608,1.754879,-1.035621,-0.350398,-1.338791,0.139504,1.749832,-1.678937,8.813332,0.186198,-3.557455,-7.408898,-37.207184,0.017072,0.164597,0.000000,1.078159,0.206412,0.000000
3.470000,1.671731,0.593875,-1.527024,1.741407,-1.033785,-0.332890,-1.355760,0.227262,1.749830,-1.711396,8.727599,-0.182244,-2.882576,-9.469255,-36.318153,0.027798,0.166645,0.000000,1.065405,0.202709,0.000000
3.480000,1.689078,0.583548,-1.530266,1.727764,-1.031076,-0.315401,-1.373018,0.314056,1.746188,-1.736588,8.623947,-0.540165,-2.178741,-11.172231,-35.212620,0.038375,0.168652,0.000000,1.048875,0.198058,-0.000000
3.490000,1.706287,0.573253,-1.533333,1.713946,-1.027504,-0.297967,-1.390491,0.399741,1.739027,-1.754971,8.504155,-0.886497,-1.533235,-12.972292,-34.100080,0.048770,0.170608,0.000000,1.028940,0.192567,-0.000000
3.500000,1.723357,0.562998,-1.536225,1.699954,-1.023081,-0.280621,-1.408118,0.484139,1.728458,-1.767253,8.364501,-1.222166,-0.829397,-15.047057,-33.024402,0.058949,0.172507,0.000000,1.005305,0.186337,0.000000
3.510000,1.740286,0.552792,-1.538945,1.685784,-1.017821,-0.263397,-1.425837,0.567031,1.714583,-1.771559,8.203214,-1.546985,-0.029956,-17.058481,-31.852961,0.068873,0.174341,0.000000,0.977937,0.179180,0.000000
3.520000,1.757072,0.542642,-1.541493,1.671437,-1.011740,-0.246329,-1.443549,0.648203,1.697518,-1.767852,8.023331,-1.859225,0.529213,-18.599323,-30.484584,0.078505,0.176099,0.000000,0.947420,0.171171,0.000000
3.530000,1.773714,0.532557,-1.543872,1.656913,-1.004857,-0.229447,-1.461194,0.727498,1.677399,-1.760975,7.831227,-2.156676,0.821252,-19.766792,-28.963889,0.087818,0.177774,0.000000,0.914739,0.162974,-0.000000
3.540000,1.790211,0.522545,-1.546082,1.642213,-0.997190,-0.212781,-1.478769,0.804828,1.654384,-1.751427,7.627995,-2.438503,1.302106,-21.075857,-27.433973,0.096797,0.179370,0.000000,0.880232,0.154700,-0.000000
3.550000,1.806559,0.512613,-1.548127,1.627338,-0.988760,-0.196359,-1.496222,0.880058,1.628629,-1.734933,7.409710,-2.705356,1.985618,-22.538697,-25.951304,0.105421,0.180883,0.000000,0.843631,0.145865,-0.000000
3.560000,1.822757,0.502769,-1.550009,1.612289,-0.979589,-0.180209,-1.513467,0.953022,1.600277,-1.711715,7.177221,-2.957529,2.560719,-23.805334,-24.428994,0.113669,0.182304,0.000000,0.805235,0.136530,0.000000
3.570000,1.838804,0.493021,-1.551731,1.597068,-0.969700,-0.164354,-1.530456,1.023602,1.569478,-1.683718,6.933603,-3.193936,3.087676,-24.895397,-22.743135,0.121525,0.183631,0.000000,0.765601,0.126982,0.000000
3.580000,1.854699,0.483375,-1.553296,1.581680,-0.959117,-0.148819,-1.547142,1.091694,1.536399,-1.649961,6.679314,-3.412392,3.675963,-25.913294,-20.935770,0.128981,0.184862,0.000000,0.724993,0.117185,-0.000000
3.590000,1.870438,0.473839,-1.554708,1.566126,-0.947866,-0.133626,-1.563456,1.157188,1.501230,-1.610199,6.415337,-3.612651,4.211101,-26.798613,-19.186741,0.136026,0.185994,0.000000,0.683695,0.107151,0.000000
3.600000,1.886021,0.464418,-1.555969,1.550410,-0.935973,-0.118794,-1.579346,1.220001,1.464146,-1.565739,6.143341,-3.796127,4.667578,-27.641281,-17.473874,0.142656,0.187026,0.000000,0.642019,0.097026,0.000000
3.610000,1.901446,0.455119,-1.557084,1.534539,-0.923466,-0.104343,-1.594770,1.280055,1.425308,-1.516847,5.862512,-3.962129,5.124596,-28.474304,-15.694682,0.148867,0.187955,0.000000,0.600006,0.086879,-0.000000
3.620000,1.916712,0.445949,-1.558056,1.518515,-0.910372,-0.090288,-1.609683,1.337251,1.384903,-1.463247,5.573855,-4.110021,5.581450,-28.968689,-13.973381,0.154657,0.188783,0.000000,0.557897,0.076712,0.000000
3.630000,1.931817,0.436912,-1.558889,1.502345,-0.896721,-0.076645,-1.624035,1.391532,1.343107,-1.405218,5.283138,-4.241596,6.003980,-29.096054,-12.369034,0.160027,0.189508,0.000000,0.516406,0.066536,0.000000
3.640000,1.946759,0.428014,-1.559589,1.486034,-0.882542,-0.063426,-1.637787,1.442914,1.300071,-1.343168,4.991934,-4.357401,6.398008,-29.312980,-10.719265,0.164987,0.190131,0.000000,0.475754,0.056397,-0.000000
3.650000,1.961537,0.419261,-1.560158,1.469589,-0.867863,-0.050644,-1.650899,1.491371,1.255959,-1.277258,4.696878,-4.455982,6.795893,-29.691040,-8.959560,0.169544,0.190652,0.000000,0.435638,0.046354,-0.000000
3.660000,1.976151,0.410657,-1.560601,1.453016,-0.852714,-0.038307,-1.663332,1.536851,1.210951,-1.207250,4.398113,-4.536592,7.187592,-29.920720,-7.219151,0.173702,0.191072,0.000000,0.396133,0.036405,0.000000
3.670000,1.990598,0.402207,-1.560924,1.436323,-0.837126,-0.026425,-1.675044,1.579333,1.165227,-1.133506,4.098464,-4.600365,7.486402,-29.908675,-5.662221,0.177469,0.191392,0.000000,0.357555,0.026570,-0.000000
3.680000,2.004877,0.393915,-1.561130,1.419515,-0.821128,-0.015002,-1.686002,1.618820,1.118944,-1.057522,3.799940,-4.649837,7.689020,-29.762938,-4.265717,0.180856,0.191613,0.000000,0.320079,0.016960,-0.000000
3.690000,2.018988,0.385784,-1.561224,1.402603,-0.804749,-0.004046,-1.696194,1.655332,1.072231,-0.979726,3.503205,-4.685679,7.911941,-29.591524,-2.829094,0.183873,0.191737,0.000000,0.283757,0.007604,-0.000000
3.700000,2.032929,0.377820,-1.561211,1.385592,-0.788021,0.006442,-1.705597,1.688885,1.025231,-0.899283,3.208109,-4.706419,8.180444,-29.402121,-1.292535,0.186533,0.191768,0.000000,0.248589,-0.001562,-0.000000
3.710000,2.046700,0.370024,-1.561095,1.368491,-0.770972,0.016459,-1.714180,1.719494,0.978102,-0.816117,2.915163,-4.711530,8.413347,-29.131653,0.195727,0.188847,0.191706,0.000000,0.214625,-0.010540,-0.000000
3.720000,2.060299,0.362400,-1.560882,1.351308,-0.753631,0.026004,-1.721919,1.747188,0.931000,-0.731016,2.625476,-4.702504,8.560231,-28.753665,1.469612,0.190828,0.191554,0.000000,0.181922,-0.019284,-0.000000
3.730000,2.073726,0.354951,-1.560575,1.334052,-0.736028,0.035079,-1.728800,1.772004,0.884052,-0.644913,2.340090,-4.682137,8.645343,-28.296388,2.562049,0.192488,0.191314,0.000000,0.150499,-0.027762,-0.000000
3.740000,2.086980,0.347680,-1.560180,1.316732,-0.718191,0.043685,-1.734817,1.793990,0.837357,-0.558109,2.059549,-4.651263,8.731163,-27.800811,3.680236,0.193840,0.190989,0.000000,0.120355,-0.035969,0.000000
3.750000,2.100061,0.340587,-1.559701,1.299356,-0.700148,0.051826,-1.739962,1.813195,0.791027,-0.470289,1.784073,-4.608533,8.836171,-27.262097,4.884445,0.194896,0.190581,0.000000,0.091502,-0.043922,-0.000000
3.760000,2.112967,0.333677,-1.559144,1.281933,-0.681927,0.059506,-1.744223,1.829671,0.745187,-0.381386,1.514307,-4.553574,8.918308,-26.662240,6.026646,0.195671,0.190094,0.000000,0.063972,-0.051631,-0.000000
3.770000,2.125699,0.326949,-1.558511,1.264471,-0.663555,0.066730,-1.747590,1.843481,0.699955,-0.291923,1.250829,-4.488000,8.928348,-26.033009,6.947699,0.196177,0.189529,0.000000,0.037745,-0.059088,0.000000
3.780000,2.138256,0.320406,-1.557809,1.246981,-0.645057,0.073505,-1.750062,1.854688,0.655427,-0.202819,0.993646,-4.414620,8.882347,-25.390888,7.687837,0.196427,0.188889,0.000000,0.012716,-0.066264,0.000000
3.790000,2.150639,0.314048,-1.557041,1.229470,-0.626461,0.079838,-1.751646,1.863354,0.611663,-0.114276,0.743011,-4.334243,8.845481,-24.700809,8.449598,0.196433,0.188178,0.000000,-0.011149,-0.073167,0.000000
3.800000,2.162846,0.307876,-1.556212,1.211948,-0.607790,0.085738,-1.752347,1.869548,0.568742,-0.025909,0.499630,-4.245628,8.806495,-23.942871,9.267378,0.196205,0.187397,0.000000,-0.033795,-0.079825,0.000000
3.810000,2.174878,0.301892,-1.555326,1.194423,-0.589070,0.091213,-1.752165,1.873346,0.526751,0.061854,0.264153,-4.148895,8.724866,-23.150533,10.002712,0.195758,0.186550,0.000000,-0.055202,-0.086208,-0.000000
3.820000,2.186734,0.296095,-1.554388,1.176905,-0.570323,0.096273,-1.751110,1.874831,0.485764,0.148588,0.036620,-4.045574,8.645563,-22.387392,10.578857,0.195102,0.185640,0.000000,-0.075443,-0.092315,-0.000000
3.830000,2.198416,0.290486,-1.553401,1.159401,-0.551573,0.100929,-1.749193,1.874079,0.445839,0.234765,-0.183594,-3.937318,8.584524,-21.652707,11.038277,0.194250,0.184668,0.000000,-0.094649,-0.098236,0.000000
3.840000,2.209922,0.285063,-1.552369,1.141921,-0.532842,0.105190,-1.746415,1.871159,0.407017,0.320279,-0.396435,-3.824809,8.478806,-20.870853,11.475633,0.193210,0.183637,0.000000,-0.112865,-0.103983,-0.000000
3.850000,2.221254,0.279829,-1.551297,1.124473,-0.514150,0.109069,-1.742787,1.866150,0.369343,0.404341,-0.601012,-3.707806,8.330607,-20.017572,11.918881,0.191993,0.182549,0.000000,-0.130034,-0.109483,0.000000
3.860000,2.232412,0.274780,-1.550188,1.107065,-0.495519,0.112577,-1.738328,1.859139,0.332861,0.486891,-0.796786,-3.586431,8.183802,-19.151981,12.305144,0.190609,0.181407,0.000000,-0.146137,-0.114740,0.000000
3.870000,2.243396,0.269918,-1.549046,1.089706,-0.476967,0.115726,-1.733049,1.850214,0.297614,0.568017,-0.984051,-3.461703,8.015084,-18.345359,12.558970,0.189070,0.180212,0.000000,-0.161255,-0.119793,-0.000000
3.880000,2.254206,0.265241,-1.547874,1.072404,-0.458515,0.118529,-1.726968,1.839458,0.263627,0.647193,-1.163693,-3.335252,7.807228,-17.586685,12.699679,0.187385,0.178967,0.000000,-0.175535,-0.124626,-0.000000
3.890000,2.264844,0.260748,-1.546675,1.055167,-0.440178,0.120999,-1.720106,1.826940,0.230909,0.724162,-1.335785,-3.207709,7.598750,-16.789939,12.829666,0.185560,0.177675,0.000000,-0.189020,-0.129232,-0.000000
3.900000,2.275309,0.256438,-1.545454,1.038002,-0.421976,0.123147,-1.712484,1.812742,0.199473,0.799168,-1.499492,-3.078658,7.410729,-15.932718,12.970681,0.183604,0.176338,0.000000,-0.201642,-0.133637,0.000000
3.910000,2.285604,0.252308,-1.544212,1.020917,-0.403923,0.124988,-1.704122,1.796951,0.169336,0.872376,-1.654439,-2.948296,7.216905,-15.078884,13.056592,0.181527,0.174957,0.000000,-0.213386,-0.137864,0.000000
3.920000,2.295728,0.248359,-1.542954,1.003920,-0.386037,0.126534,-1.695037,1.779653,0.140507,0.943506,-1.801070,-2.817526,6.974732,-14.291850,13.046562,0.179336,0.173534,0.000000,-0.224333,-0.141909,0.000000
3.930000,2.305682,0.244588,-1.541681,0.987016,-0.368330,0.127798,-1.685252,1.760929,0.112986,1.011871,-1.940276,-2.687364,6.696631,-13.556735,12.967292,0.177040,0.172072,0.000000,-0.234605,-0.145727,-0.000000
3.940000,2.315468,0.240993,-1.540398,0.970215,-0.350818,0.128794,-1.674799,1.740848,0.086760,1.077438,-2.072204,-2.558181,6.440812,-12.796538,12.874627,0.174644,0.170573,0.000000,-0.244236,-0.149324,0.000000
3.950000,2.325086,0.237571,-1.539106,0.953520,-0.333513,0.129533,-1.663703,1.719485,0.061822,1.140687,-2.196207,-2.429872,6.189627,-11.993114,12.760770,0.172155,0.169039,0.000000,-0.253169,-0.152749,0.000000
3.960000,2.334538,0.234322,-1.537807,0.936940,-0.316428,0.130030,-1.651986,1.696924,0.038163,1.201231,-2.312067,-2.302965,5.908276,-11.202129,12.594589,0.169580,0.167472,0.000000,-0.261404,-0.155977,0.000000
3.970000,2.343825,0.231243,-1.536505,0.920481,-0.299575,0.130297,-1.639679,1.673244,0.015763,1.258853,-2.420250,-2.177980,5.662306,-10.473824,12.412338,0.166927,0.165874,0.000000,-0.269001,-0.158998,0.000000
3.980000,2.352948,0.228331,-1.535201,0.904147,-0.282964,0.130345,-1.626809,1.648519,-0.005397,1.314477,-2.521543,-2.054718,5.468386,-9.793753,12.230597,0.164200,0.164247,0.000000,-0.276040,-0.161900,0.000000
3.990000,2.361908,0.225584,-1.533898,0.887945,-0.266605,0.130189,-1.613389,1.622813,-0.025332,1.368220,-2.616125,-1.933368,5.235927,-9.100406,12.003079,0.161406,0.162592,0.000000,-0.282543,-0.164700,0.000000
4.000000,2.370707,0.222999,-1.532597,0.871879,-0.250507,0.129839,-1.599444,1.596196,-0.044064,1.419195,-2.703551,-1.814657,4.953359,-8.381397,11.722423,0.158549,0.160910,0.000000,-0.288486,-0.167322,0.000000
4.010000,2.379346,0.220573,-1.531301,0.855956,-0.234681,0.129307,-1.585005,1.568742,-0.061625,1.467288,-2.783753,-1.698920,4.684373,-7.680160,11.425366,0.155636,0.159203,0.000000,-0.293869,-0.169763,-0.000000
4.020000,2.387826,0.218305,-1.530011,0.840179,-0.219133,0.128606,-1.570098,1.540521,-0.078043,1.512883,-2.857154,-1.586149,4.440479,-7.029714,11.128108,0.152671,0.157473,0.000000,-0.298731,-0.172058,-0.000000
4.030000,2.396149,0.216191,-1.528729,0.824554,-0.203870,0.127747,-1.554748,1.511599,-0.093348,1.556097,-2.924347,-1.476357,4.200830,-6.417665,10.823141,0.149661,0.155721,0.000000,-0.303132,-0.174220,0.000000
4.040000,2.404317,0.214228,-1.527456,0.809084,-0.188901,0.126739,-1.538976,1.482034,-0.107570,1.596900,-2.985508,-1.369687,3.956921,-5.803689,10.496975,0.146608,0.153949,0.000000,-0.307087,-0.176247,-0.000000
4.050000,2.412331,0.212413,-1.526194,0.793774,-0.174230,0.125595,-1.522810,1.451889,-0.120742,1.635236,-3.040421,-1.266418,3.710000,-5.181126,10.141590,0.143519,0.152158,0.000000,-0.310580,-0.178136,-0.000000
4.060000,2.420193,0.210743,-1.524944,0.778628,-0.159863,0.124325,-1.506272,1.421226,-0.132898,1.671100,-3.089130,-1.166855,3.466066,-4.577827,9.770591,0.140396,0.150349,0.000000,-0.313614,-0.179891,-0.000000
4.070000,2.427904,0.209215,-1.523708,0.763649,-0.145805,0.122937,-1.489388,1.390106,-0.144079,1.704557,-3.131977,-1.071006,3.230496,-4.011284,9.417857,0.137246,0.148524,0.000000,-0.316220,-0.181516,-0.000000
4.080000,2.435466,0.207827,-1.522486,0.748840,-0.132061,0.121443,-1.472181,1.358586,-0.154318,1.735709,-3.169356,-0.978498,3.002626,-3.472961,9.084410,0.134072,0.146684,0.000000,-0.318427,-0.183013,0.000000
4.090000,2.442880,0.206574,-1.521279,0.734205,-0.118633,0.119851,-1.454673,1.326719,-0.163649,1.764609,-3.201436,-0.889318,2.776590,-2.941604,8.729422,0.130877,0.144830,0.000000,-0.320247,-0.184386,-0.000000
4.100000,2.450150,0.205454,-1.520089,0.719747,-0.105526,0.118170,-1.436888,1.294557,-0.172105,1.791241,-3.228188,-0.803909,2.548694,-2.414361,8.339899,0.127667,0.142964,0.000000,-0.321677,-0.185637,0.000000
4.110000,2.457275,0.204464,-1.518916,0.705467,-0.092742,0.116409,-1.418849,1.262155,-0.179727,1.815583,-3.249724,-0.722520,2.323839,-1.905527,7.947637,0.124444,0.141087,0.000000,-0.322728,-0.186765,0.000000
4.120000,2.464259,0.203599,-1.517761,0.691370,-0.080283,0.114575,-1.400577,1.229563,-0.186555,1.837718,-3.266299,-0.644957,2.113616,-1.422526,7.589891,0.121212,0.139200,0.000000,-0.323414,-0.187773,-0.000000
4.130000,2.471103,0.202858,-1.516624,0.677456,-0.068151,0.112678,-1.382094,1.196829,-0.192626,1.857856,-3.278174,-0.570722,1.917674,-0.960635,7.260624,0.117975,0.137304,0.000000,-0.323750,-0.188673,-0.000000
4.140000,2.477808,0.202236,-1.515507,0.663728,-0.056347,0.110723,-1.363420,1.163999,-0.197970,1.876071,-3.285511,-0.499744,1.721322,-0.510772,6.914874,0.114737,0.135400,0.000000,-0.323745,-0.189467,-0.000000
4.150000,2.484377,0.201731,-1.514410,0.650187,-0.044871,0.108718,-1.344573,1.131119,-0.202621,1.892282,-3.288390,-0.432425,1.520519,-0.072174,6.540547,0.111500,0.133489,0.000000,-0.323407,-0.190151,-0.000000
4.160000,2.490812,0.201339,-1.513333,0.636836,-0.033724,0.106670,-1.325574,1.098232,-0.206618,1.906482,-3.286955,-0.368933,1.325878,0.349354,6.171022,0.108268,0.131573,0.000000,-0.322745,-0.190723,-0.000000
4.170000,2.497114,0.201057,-1.512276,0.623676,-0.022906,0.104586,-1.306443,1.065380,-0.210000,1.918800,-3.281402,-0.309004,1.147529,0.752107,5.840557,0.105045,0.129652,0.000000,-0.321768,-0.191190,0.000000
4.180000,2.503285,0.200881,-1.511241,0.610707,-0.012417,0.102471,-1.287198,1.032604,-0.212798,1.929432,-3.271913,-0.252122,0.982699,1.138291,5.541437,0.101833,0.127728,0.000000,-0.320485,-0.191561,0.000000
4.190000,2.509328,0.200808,-1.510227,0.597932,-0.002254,0.100330,-1.267855,0.999942,-0.215042,1.938454,-3.258637,-0.198175,0.818778,1.510083,5.231807,0.098635,0.125801,0.000000,-0.318902,-0.191841,-0.000000
4.200000,2.515244,0.200836,-1.509234,0.585350,0.007582,0.098170,-1.248429,0.967431,-0.216762,1.945808,-3.241711,-0.147486,0.653109,1.867273,4.901474,0.095455,0.123872,0.000000,-0.317031,-0.192024,0.000000
4.210000,2.521035,0.200960,-1.508263,0.572963,0.017094,0.095995,-1.228938,0.935107,-0.217992,1.951516,-3.221291,-0.100146,0.494512,2.208776,4.580602,0.092294,0.121943,0.000000,-0.314883,-0.192112,-0.000000
4.220000,2.526703,0.201178,-1.507314,0.560772,0.026284,0.093810,-1.209399,0.903005,-0.218765,1.955698,-3.197535,-0.055874,0.349762,2.535517,4.297039,0.089157,0.120013,0.000000,-0.312465,-0.192110,0.000000
4.230000,2.532251,0.201486,-1.506387,0.548775,0.035155,0.091619,-1.189824,0.871157,-0.219109,1.958511,-3.170581,-0.014205,0.216632,2.848264,4.043157,0.086045,0.118085,0.000000,-0.309781,-0.192025,0.000000
4.240000,2.537679,0.201881,-1.505482,0.536975,0.043708,0.089428,-1.170228,0.839593,-0.219049,1.960031,-3.140570,0.024989,0.086601,3.146021,3.784520,0.082961,0.116159,0.000000,-0.306840,-0.191861,-0.000000
4.250000,2.542990,0.202360,-1.504599,0.525371,0.051946,0.087238,-1.150624,0.808345,-0.218609,1.960243,-3.107660,0.061485,-0.044609,3.427903,3.512229,0.079908,0.114235,0.000000,-0.303655,-0.191618,0.000000
4.260000,2.548186,0.202920,-1.503737,0.513963,0.059874,0.085055,-1.131024,0.777440,-0.217819,1.959139,-3.072012,0.095234,-0.171025,3.694964,3.250592,0.076888,0.112314,0.000000,-0.300238,-0.191292,0.000000
4.270000,2.553269,0.203557,-1.502898,0.502750,0.067495,0.082882,-1.111441,0.746905,-0.216705,1.956823,-3.033761,0.126497,-0.280915,3.949992,3.023278,0.073903,0.110397,0.000000,-0.296595,-0.190888,-0.000000
4.280000,2.558241,0.204270,-1.502080,0.491734,0.074813,0.080721,-1.091887,0.716765,-0.215289,1.953520,-2.993012,0.155700,-0.375967,4.192853,2.823549,0.070956,0.108486,0.000000,-0.292731,-0.190423,-0.000000
4.290000,2.563104,0.205054,-1.501283,0.480913,0.081830,0.078576,-1.072371,0.687045,-0.213591,1.949303,-2.949904,0.182968,-0.472002,4.420184,2.621362,0.068049,0.106579,0.000000,-0.288654,-0.189900,-0.000000
4.300000,2.567859,0.205906,-1.500508,0.470286,0.088553,0.076450,-1.052901,0.657767,-0.211630,1.944080,-2.904609,0.208127,-0.570734,4.632415,2.410822,0.065183,0.104679,0.000000,-0.284379,-0.189310,-0.000000
4.310000,2.572510,0.206825,-1.499754,0.459855,0.094986,0.074344,-1.033489,0.628953,-0.209428,1.937889,-2.857256,0.231185,-0.661740,4.832012,2.212401,0.062361,0.102785,0.000000,-0.279917,-0.188655,-0.000000
4.320000,2.577057,0.207806,-1.499021,0.449617,0.101132,0.072261,-1.014143,0.600622,-0.207006,1.930846,-2.807968,0.252375,-0.743364,5.017616,2.039949,0.059585,0.100898,0.000000,-0.275275,-0.187942,-0.000000
4.330000,2.581502,0.208847,-1.498309,0.439572,0.106998,0.070204,-0.994872,0.572793,-0.204381,1.923021,-2.756903,0.271984,-0.819554,5.188355,1.887004,0.056856,0.099019,0.000000,-0.270464,-0.187175,0.000000
4.340000,2.585848,0.209946,-1.497617,0.429719,0.112588,0.068173,-0.975683,0.545484,-0.201566,1.914454,-2.704201,0.290115,-0.892093,5.346685,1.736011,0.054175,0.097149,0.000000,-0.265496,-0.186354,-0.000000
4.350000,2.590096,0.211099,-1.496945,0.420058,0.117908,0.066172,-0.956583,0.518709,-0.198578,1.905179,-2.649970,0.306704,-0.960119,5.494151,1.584015,0.051546,0.095287,0.000000,-0.260379,-0.185483,0.000000
4.360000,2.594249,0.212304,-1.496294,0.410588,0.122963,0.064202,-0.937579,0.492484,-0.195432,1.895252,-2.594318,0.321795,-1.022995,5.629224,1.442487,0.048968,0.093434,0.000000,-0.255123,-0.184564,-0.000000
4.370000,2.598308,0.213558,-1.495661,0.401307,0.127758,0.062264,-0.918678,0.466823,-0.192142,1.884719,-2.537385,0.335553,-1.082932,5.748876,1.318043,0.046443,0.091591,0.000000,-0.249738,-0.183602,-0.000000
4.380000,2.602275,0.214859,-1.495048,0.392214,0.132299,0.060359,-0.899885,0.441737,-0.188721,1.873593,-2.479341,0.348156,-1.140205,5.853737,1.206715,0.043973,0.089758,0.000000,-0.244239,-0.182592,-0.000000
4.390000,2.606152,0.216204,-1.494454,0.383309,0.136592,0.058489,-0.881206,0.417236,-0.185179,1.861915,-2.420311,0.359688,-1.192304,5.948236,1.099714,0.041558,0.087936,0.000000,-0.238637,-0.181540,0.000000
4.400000,2.609941,0.217591,-1.493879,0.374590,0.140644,0.056655,-0.862647,0.393330,-0.181527,1.849747,-2.360376,0.370150,-1.241487,6.033023,0.995087,0.039200,0.086124,0.000000,-0.232939,-0.180448,0.000000
4.410000,2.613644,0.219017,-1.493321,0.366056,0.144459,0.054859,-0.844211,0.370029,-0.177776,1.837086,-2.299650,0.379590,-1.289646,6.105427,0.898154,0.036900,0.084324,0.000000,-0.227156,-0.179317,0.000000
4.420000,2.617263,0.220480,-1.492781,0.357706,0.148044,0.053100,-0.825905,0.347337,-0.173936,1.823954,-2.238267,0.388113,-1.330367,6.165030,0.812947,0.034657,0.082535,0.000000,-0.221299,-0.178146,0.000000
4.430000,2.620798,0.221978,-1.492259,0.349538,0.151406,0.051380,-0.807732,0.325263,-0.170014,1.810478,-2.176349,0.395848,-1.363222,6.212874,0.737218,0.032474,0.080759,0.000000,-0.215379,-0.176947,-0.000000
4.440000,2.624253,0.223508,-1.491754,0.341551,0.154550,0.049700,-0.789695,0.303810,-0.166019,1.796690,-2.114010,0.402858,-1.397732,6.249807,0.664980,0.030350,0.078995,0.000000,-0.209407,-0.175722,-0.000000
4.450000,2.627629,0.225069,-1.491265,0.333744,0.157482,0.048060,-0.771798,0.282983,-0.161957,1.782524,-2.051353,0.409148,-1.434041,6.277036,0.595776,0.028286,0.077243,0.000000,-0.203393,-0.174463,-0.000000
4.460000,2.630928,0.226658,-1.490793,0.326115,0.160209,0.046460,-0.754045,0.262783,-0.157836,1.768009,-1.988469,0.414773,-1.466244,6.294297,0.532865,0.026282,0.075504,0.000000,-0.197345,-0.173172,-0.000000
4.470000,2.634152,0.228273,-1.490336,0.318663,0.162738,0.044903,-0.736438,0.243214,-0.153661,1.753199,-1.925467,0.419805,-1.497252,6.298688,0.475388,0.024339,0.073778,0.000000,-0.191275,-0.171855,0.000000
4.480000,2.637301,0.229913,-1.489895,0.311386,0.165073,0.043387,-0.718981,0.224274,-0.149440,1.738064,-1.862495,0.424281,-1.529525,6.290357,0.421411,0.022457,0.072066,0.000000,-0.185196,-0.170507,-0.000000
4.490000,2.640379,0.231575,-1.489468,0.304283,0.167223,0.041914,-0.701677,0.205964,-0.145176,1.722608,-1.799660,0.428234,-1.559206,6.273852,0.371456,0.020635,0.070367,0.000000,-0.179119,-0.169128,-0.000000
4.500000,2.643387,0.233257,-1.489056,0.297353,0.169193,0.040484,-0.684529,0.188281,-0.140875,1.706880,-1.737018,0.431710,-1.586567,6.250829,0.326559,0.018874,0.068683,0.000000,-0.173049,-0.167723,0.000000
4.510000,2.646326,0.234959,-1.488659,0.290593,0.170989,0.039097,-0.667539,0.171223,-0.136542,1.690877,-1.674644,0.434765,-1.614717,6.218553,0.285467,0.017174,0.067012,0.000000,-0.166995,-0.166289,0.000000
4.520000,2.649199,0.236677,-1.488274,0.284002,0.172617,0.037753,-0.650711,0.154788,-0.132180,1.674586,-1.612647,0.437419,-1.642185,6.174134,0.244224,0.015534,0.065356,0.000000,-0.160966,-0.164827,0.000000
4.530000,2.652006,0.238411,-1.487903,0.277579,0.174084,0.036453,-0.634047,0.138970,-0.127793,1.658033,-1.551161,0.439649,-1.668131,6.118649,0.202426,0.013955,0.063715,0.000000,-0.154977,-0.163338,-0.000000
4.540000,2.654751,0.240159,-1.487545,0.271321,0.175397,0.035197,-0.617550,0.123765,-0.123387,1.641223,-1.490274,0.441468,-1.695530,6.056513,0.164462,0.012435,0.062089,0.000000,-0.149037,-0.161822,0.000000
4.550000,2.657433,0.241919,-1.487200,0.265228,0.176560,0.033985,-0.601223,0.109165,-0.118964,1.624123,-1.430031,0.442939,-1.725474,5.989329,0.131484,0.010974,0.060479,0.000000,-0.143150,-0.160276,0.000000
4.560000,2.660055,0.243690,-1.486866,0.259297,0.177580,0.032818,-0.585068,0.095164,-0.114528,1.606714,-1.370488,0.444098,-1.756365,5.914570,0.099773,0.009572,0.058884,0.000000,-0.137321,-0.158696,-0.000000
4.570000,2.662619,0.245470,-1.486543,0.253526,0.178463,0.031695,-0.569089,0.081755,-0.110082,1.588995,-1.311739,0.444934,-1.787191,5.829298,0.065339,0.008228,0.057305,0.000000,-0.131562,-0.157084,0.000000
4.580000,2.665126,0.247259,-1.486232,0.247915,0.179215,0.030616,-0.553288,0.068929,-0.105629,1.570970,-1.253902,0.445404,-1.819417,5.734622,0.028420,0.006941,0.055742,0.000000,-0.125883,-0.155439,-0.000000
4.590000,2.667577,0.249055,-1.485931,0.242460,0.179842,0.029582,-0.537669,0.056677,-0.101174,1.552607,-1.197047,0.445502,-1.854830,5.635155,-0.006553,0.005710,0.054196,0.000000,-0.120292,-0.153759,-0.000000
4.600000,2.669975,0.250856,-1.485640,0.237161,0.180349,0.028593,-0.522236,0.044988,-0.096719,1.533873,-1.141199,0.445273,-1.889875,5.532238,-0.036526,0.004535,0.052667,0.000000,-0.114792,-0.152038,-0.000000
4.610000,2.672320,0.252662,-1.485359,0.232016,0.180741,0.027648,-0.506992,0.033853,-0.092268,1.514810,-1.086402,0.444772,-1.924189,5.423323,-0.065278,0.003414,0.051155,0.000000,-0.109388,-0.150282,0.000000
4.620000,2.674615,0.254471,-1.485087,0.227022,0.181026,0.026747,-0.491940,0.023260,-0.087824,1.495389,-1.032732,0.443968,-1.969249,5.306484,-0.102329,0.002347,0.049661,0.000000,-0.104088,-0.148486,-0.000000
4.630000,2.676861,0.256282,-1.484824,0.222177,0.181207,0.025891,-0.477084,0.013198,-0.083389,1.475425,-0.980272,0.442725,-2.026114,5.183031,-0.147151,0.001333,0.048185,0.000000,-0.098899,-0.146633,-0.000000
4.640000,2.679059,0.258095,-1.484569,0.217480,0.181290,0.025079,-0.462431,0.003655,-0.078969,1.454867,-0.929072,0.441025,-2.079461,5.056261,-0.187590,0.000369,0.046728,0.000000,-0.093829,-0.144718,-0.000000
4.650000,2.681210,0.259908,-1.484322,0.212928,0.181280,0.024312,-0.447987,-0.005383,-0.074569,1.433835,-0.879147,0.438973,-2.126864,4.926753,-0.222389,-0.000544,0.045291,0.000000,-0.088878,-0.142752,0.000000
4.660000,2.683317,0.261720,-1.484083,0.208520,0.181182,0.023588,-0.433755,-0.013928,-0.070190,1.412330,-0.830537,0.436577,-2.179142,4.792976,-0.260158,-0.001408,0.043873,0.000000,-0.084051,-0.140734,-0.000000
4.670000,2.685381,0.263532,-1.483851,0.204253,0.181001,0.022908,-0.419740,-0.021994,-0.065837,1.390252,-0.783288,0.433770,-2.240373,4.655032,-0.303095,-0.002225,0.042476,0.000000,-0.079352,-0.138656,0.000000
4.680000,2.687402,0.265341,-1.483625,0.200125,0.180742,0.022271,-0.405950,-0.029594,-0.061514,1.367522,-0.737436,0.430515,-2.307175,4.513911,-0.348627,-0.002995,0.041100,0.000000,-0.074787,-0.136507,0.000000
4.690000,2.689383,0.267146,-1.483405,0.196134,0.180409,0.021678,-0.392390,-0.036742,-0.057227,1.344109,-0.693010,0.426798,-2.375194,4.370288,-0.394893,-0.003721,0.039746,0.000000,-0.070358,-0.134286,-0.000000
4.700000,2.691325,0.268949,-1.483191,0.192278,0.180007,0.021127,-0.379067,-0.043454,-0.052978,1.320018,-0.650030,0.422617,-2.443836,4.225100,-0.441237,-0.004402,0.038414,0.000000,-0.066067,-0.131993,-0.000000
4.710000,2.693229,0.270747,-1.482983,0.188553,0.179540,0.020618,-0.365989,-0.049743,-0.048774,1.295232,-0.608508,0.417973,-2.516139,4.078559,-0.489144,-0.005042,0.037106,0.000000,-0.061916,-0.129624,-0.000000
4.720000,2.695096,0.272540,-1.482779,0.184958,0.179012,0.020151,-0.353163,-0.055624,-0.044619,1.269696,-0.568459,0.412834,-2.594654,3.929355,-0.541904,-0.005641,0.035822,0.000000,-0.057908,-0.127176,0.000000
4.730000,2.696928,0.274327,-1.482580,0.181490,0.178428,0.019726,-0.340595,-0.061112,-0.040518,1.243339,-0.529920,0.407135,-2.678541,3.777983,-0.599727,-0.006200,0.034563,0.000000,-0.054045,-0.124640,-0.000000
4.740000,2.698726,0.276108,-1.482384,0.178146,0.177790,0.019341,-0.328296,-0.066223,-0.036476,1.216125,-0.492899,0.400840,-2.764699,3.627213,-0.658393,-0.006722,0.033329,0.000000,-0.050329,-0.122013,-0.000000
4.750000,2.700491,0.277883,-1.482193,0.174924,0.177103,0.018996,-0.316273,-0.070970,-0.032501,1.188045,-0.457376,0.393967,-2.852697,3.477222,-0.714584,-0.007207,0.032122,0.000000,-0.046759,-0.119293,0.000000
4.760000,2.702224,0.279650,-1.482005,0.171820,0.176371,0.018691,-0.304535,-0.075370,-0.028597,1.159071,-0.423355,0.386548,-2.944707,3.326898,-0.771558,-0.007657,0.030943,0.000000,-0.043335,-0.116477,0.000000
4.770000,2.703927,0.281410,-1.481819,0.168833,0.175596,0.018424,-0.293091,-0.079437,-0.024770,1.129151,-0.390838,0.378536,-3.041845,3.177908,-0.838533,-0.008073,0.029793,0.000000,-0.040058,-0.113561,-0.000000
4.780000,2.705601,0.283162,-1.481636,0.165959,0.174782,0.018196,-0.281952,-0.083187,-0.021026,1.098234,-0.359797,0.369778,-3.143862,3.031468,-0.914908,-0.008458,0.028672,0.000000,-0.036925,-0.110537,-0.000000
4.790000,2.707246,0.284906,-1.481455,0.163194,0.173932,0.018004,-0.271127,-0.086633,-0.017374,1.066274,-0.330209,0.360238,-3.249450,2.886104,-0.988352,-0.008812,0.027582,0.000000,-0.033935,-0.107403,0.000000
4.800000,2.708865,0.286641,-1.481276,0.160536,0.173049,0.017848,-0.260627,-0.089791,-0.013821,1.033245,-0.302075,0.350011,-3.355455,2.740567,-1.056929,-0.009137,0.026524,0.000000,-0.031087,-0.104155,0.000000
4.810000,2.710457,0.288367,-1.481098,0.157981,0.172136,0.017727,-0.250462,-0.092675,-0.010374,0.999165,-0.275398,0.339099,-3.462926,2.596700,-1.129022,-0.009434,0.025499,0.000000,-0.028382,-0.100793,0.000000
4.820000,2.712024,0.290083,-1.480921,0.155527,0.171196,0.017641,-0.240643,-0.095299,-0.007039,0.963987,-0.250141,0.327430,-3.580877,2.459126,-1.207835,-0.009704,0.024508,0.000000,-0.025817,-0.097315,0.000000
4.830000,2.713568,0.291791,-1.480745,0.153169,0.170230,0.017587,-0.231182,-0.097678,-0.003826,0.927547,-0.226215,0.314942,-3.709251,2.327893,-1.290462,-0.009950,0.023552,0.000000,-0.023383,-0.093702,-0.000000
4.840000,2.715088,0.293488,-1.480570,0.150903,0.169242,0.017564,-0.222092,-0.099823,-0.000741,0.889801,-0.203583,0.301621,-3.835781,2.197704,-1.373124,-0.010172,0.022634,0.000000,-0.021077,-0.089950,0.000000
4.850000,2.716586,0.295175,-1.480394,0.148727,0.168234,0.017572,-0.213386,-0.101749,0.002207,0.850832,-0.182261,0.287480,-3.959281,2.068449,-1.455805,-0.010371,0.021753,0.000000,-0.018900,-0.086067,-0.000000
4.860000,2.718062,0.296853,-1.480218,0.146635,0.167207,0.017608,-0.205076,-0.103468,0.005009,0.810616,-0.162214,0.272505,-4.087868,1.944331,-1.540804,-0.010550,0.020912,0.000000,-0.016850,-0.082052,0.000000
4.870000,2.719519,0.298520,-1.480042,0.144625,0.166164,0.017672,-0.197174,-0.104993,0.007657,0.769074,-0.143374,0.256664,-4.222097,1.826025,-1.628211,-0.010708,0.020112,0.000000,-0.014919,-0.077896,0.000000
4.880000,2.720955,0.300176,-1.479865,0.142692,0.165107,0.017761,-0.189694,-0.106336,0.010142,0.726174,-0.125693,0.239941,-4.358958,1.712554,-1.717098,-0.010848,0.019354,0.000000,-0.013103,-0.073595,0.000000
4.890000,2.722372,0.301822,-1.479687,0.140831,0.164038,0.017875,-0.182650,-0.107507,0.012456,0.681895,-0.109123,0.222322,-4.498159,1.604176,-1.807315,-0.010971,0.018640,0.000000,-0.011398,-0.069147,0.000000
4.900000,2.723772,0.303457,-1.479507,0.139039,0.162957,0.018010,-0.176056,-0.108518,0.014589,0.636211,-0.093610,0.203794,-4.639994,1.501416,-1.898876,-0.011076,0.017971,0.000000,-0.009797,-0.064551,-0.000000
4.910000,2.725153,0.305081,-1.479327,0.137310,0.161867,0.018167,-0.169926,-0.109380,0.016532,0.589095,-0.079095,0.184344,-4.784304,1.404638,-1.991670,-0.011166,0.017349,0.000000,-0.008296,-0.059804,0.000000
4.920000,2.726518,0.306694,-1.479144,0.135640,0.160770,0.018341,-0.164274,-0.110100,0.018276,0.540525,-0.065517,0.163961,-4.930934,1.314189,-2.085588,-0.011242,0.016775,0.000000,-0.006888,-0.054902,0.000000
4.930000,2.727866,0.308296,-1.478960,0.134025,0.159665,0.018532,-0.159116,-0.110690,0.019811,0.490477,-0.052811,0.142633,-5.079762,1.230413,-2.180530,-0.011304,0.016251,0.000000,-0.005567,-0.049846,-0.000000
4.940000,2.729198,0.309887,-1.478773,0.132458,0.158556,0.018737,-0.154465,-0.111157,0.021128,0.438929,-0.040909,0.120350,-5.230662,1.153657,-2.276392,-0.011353,0.015778,0.000000,-0.004326,-0.044632,0.000000
4.950000,2.730515,0.311467,-1.478585,0.130935,0.157442,0.018955,-0.150337,-0.111508,0.022218,0.385863,-0.029738,0.097105,-5.383515,1.084271,-2.373070,-0.011391,0.015358,0.000000,-0.003157,-0.039259,-0.000000
4.960000,2.731817,0.313036,-1.478394,0.129451,0.156326,0.019182,-0.146748,-0.111751,0.023070,0.331259,-0.019223,0.072889,-5.538149,1.022600,-2.470449,-0.011417,0.014993,0.000000,-0.002055,-0.033726,0.000000
4.970000,2.733104,0.314594,-1.478201,0.128000,0.155207,0.019416,-0.143712,-0.111892,0.023676,0.275100,-0.009286,0.047696,80.511941,70.828106,-17.557806,-0.011432,0.014684,0.000000,-0.001009,-0.028031,-0.000000
4.980000,2.734377,0.316140,-1.478006,0.126577,0.154088,0.019655,-0.141246,-0.111937,0.024024,1.941498,1.397339,-0.278267,165.341180,140.417517,-32.226331,-0.011437,0.014432,0.000000,0.143049,-0.198752,-0.000000
4.990000,2.735636,0.317676,-1.477808,0.125176,0.152968,0.019897,-0.104882,-0.083946,0.018110,3.581924,2.799064,-0.596831,79.299204,70.083042,-16.200265,-0.008572,0.010711,0.000000,0.286307,-0.366403,-0.000000
5.000000,2.736880,0.319200,-1.477608,0.124479,0.152409,0.020017,-0.069607,-0.055956,0.012088,3.527482,2.799000,-0.602273,-5.444184,-0.006474,-0.544182,-0.005711,0.007104,0.000000,0.285993,-0.360436,-0.000000
