time,x,y,z,vx,vy,vz,ax,ay,az,jx,jy,jz,sx,sy,sz,roll,pitch,yaw,p,q,r
0.000000,-3.275997,0.280284,-1.492410,-0.019229,-0.003815,0.006293,0.960397,-0.322325,-0.002214,-14.358502,5.991034,-0.137972,246.590597,-98.980638,-2.555618,-0.032681,-0.097567,0.000000,0.602838,1.450032,-0.000000
0.010000,-3.276143,0.280231,-1.492348,-0.010303,-0.006755,0.006263,0.828700,-0.267164,-0.003726,-12.024050,5.060557,-0.164869,220.628605,-87.289172,-2.812674,-0.027120,-0.084243,0.000000,0.511122,1.217514,-0.000000
0.020000,-3.276207,0.280151,-1.492285,-0.002582,-0.009187,0.006217,0.719083,-0.220741,-0.005519,-9.939487,4.241845,-0.194012,196.599417,-76.619450,-3.005503,-0.022425,-0.073129,0.000000,0.429572,1.008411,-0.000000
0.030000,-3.276198,0.280049,-1.492223,0.004144,-0.011195,0.006152,0.629141,-0.181988,-0.007612,-8.085879,3.524923,-0.224779,174.424770,-66.923358,-3.138191,-0.018497,-0.063995,0.000000,0.357633,0.821562,-0.000000
0.040000,-3.276127,0.279928,-1.492162,0.010059,-0.012849,0.006064,0.556656,-0.149935,-0.010018,-6.445071,2.900293,-0.256589,154.026336,-58.152779,-3.214760,-0.015243,-0.056625,0.000000,0.294635,0.655618,0.000000
0.050000,-3.275999,0.279792,-1.492102,0.015329,-0.014213,0.005950,0.499588,-0.123705,-0.012745,-4.999685,2.358942,-0.288903,135.326608,-50.259617,-3.239603,-0.012577,-0.050817,0.000000,0.239847,0.509129,0.000000
0.060000,-3.275822,0.279645,-1.492043,0.020096,-0.015340,0.005808,0.456066,-0.102507,-0.015796,-3.733137,1.892336,-0.321222,118.246505,-43.195740,-3.216502,-0.010421,-0.046382,0.000000,0.192517,0.380609,-0.000000
0.070000,-3.275599,0.279486,-1.491986,0.024489,-0.016278,0.005633,0.424382,-0.085636,-0.019168,-2.629616,1.492423,-0.353087,102.708123,-36.913041,-3.149660,-0.008704,-0.043149,0.000000,0.151895,0.268572,0.000000
0.080000,-3.275333,0.279319,-1.491931,0.028618,-0.017065,0.005423,0.402981,-0.072462,-0.022855,-1.674096,1.151632,-0.384083,88.633272,-31.363406,-3.043171,-0.007363,-0.040960,0.000000,0.117252,0.171563,0.000000
0.090000,-3.275027,0.279145,-1.491878,0.032579,-0.017737,0.005175,0.390454,-0.062430,-0.026846,-0.852333,0.862872,-0.413832,75.943827,-26.498724,-2.901137,-0.006341,-0.039672,0.000000,0.087890,0.088176,-0.000000
0.100000,-3.274682,0.278965,-1.491827,0.036453,-0.018323,0.004886,0.385533,-0.055053,-0.031126,-0.150866,0.619535,-0.442001,64.561124,-22.270876,-2.727693,-0.005590,-0.039156,0.000000,0.063151,0.017063,0.000000
0.110000,-3.274298,0.278779,-1.491780,0.040311,-0.018846,0.004552,0.387078,-0.049908,-0.035679,0.442985,0.415492,-0.468295,54.407441,-18.631755,-2.526879,-0.005065,-0.039294,0.000000,0.042416,-0.043056,-0.000000
0.120000,-3.273875,0.278588,-1.491736,0.044212,-0.019327,0.004171,0.394074,-0.046631,-0.040485,0.941118,0.245098,-0.492461,45.404385,-15.533244,-2.302824,-0.004730,-0.039984,0.000000,0.025115,-0.093390,-0.000000
0.130000,-3.273413,0.278393,-1.491697,0.048207,-0.019784,0.003741,0.405619,-0.044911,-0.045521,1.354647,0.103186,-0.514288,37.473738,-12.927232,-2.059660,-0.004553,-0.041133,0.000000,0.010724,-0.135073,-0.000000
0.140000,-3.272911,0.278193,-1.491662,0.052337,-0.020230,0.003260,0.420919,-0.044488,-0.050762,1.693907,-0.014928,-0.533605,30.537280,-10.765611,-1.801579,-0.004507,-0.042660,0.000000,-0.001236,-0.169163,-0.000000
0.150000,-3.272366,0.277988,-1.491632,0.056636,-0.020677,0.002725,0.439281,-0.045145,-0.056184,1.968446,-0.113448,-0.550284,24.516766,-9.000287,-1.532888,-0.004571,-0.044495,0.000000,-0.011192,-0.196639,-0.000000
0.160000,-3.271777,0.277779,-1.491607,0.061131,-0.021136,0.002136,0.460102,-0.046704,-0.061759,2.187035,-0.196094,-0.564222,19.334067,-7.583048,-1.256019,-0.004726,-0.046574,0.000000,-0.019524,-0.218404,-0.000000
0.170000,-3.271142,0.277565,-1.491589,0.065845,-0.021614,0.001490,0.482862,-0.049024,-0.067459,2.357659,-0.266108,-0.575389,14.910874,-6.465892,-0.977170,-0.004957,-0.048846,0.000000,-0.026562,-0.235278,-0.000000
0.180000,-3.270460,0.277347,-1.491578,0.070793,-0.022118,0.000786,0.507119,-0.051993,-0.073257,2.487524,-0.326251,-0.583770,11.169020,-5.600666,-0.699649,-0.005254,-0.051266,0.000000,-0.032589,-0.248004,0.000000
0.190000,-3.269726,0.277123,-1.491574,0.075991,-0.022655,0.000024,0.532498,-0.055524,-0.079125,2.583050,-0.378801,-0.589400,8.030357,-4.939252,-0.427543,-0.005606,-0.053795,0.000000,-0.037836,-0.257242,0.000000
0.200000,-3.268939,0.276893,-1.491578,0.081446,-0.023230,-0.000796,0.558685,-0.059550,-0.085036,2.649877,-0.425556,-0.592354,5.416287,-4.433563,-0.165049,-0.006009,-0.056401,0.000000,-0.042488,-0.263574,-0.000000
0.210000,-3.268096,0.276658,-1.491590,0.087166,-0.023847,-0.001676,0.585267,-0.063853,-0.090984,2.658576,-0.429448,-0.597277,2.571245,-3.276715,-0.005700,-0.006438,-0.059043,0.000000,-0.042808,-0.264022,-0.000000
0.220000,-3.267195,0.276416,-1.491611,0.093153,-0.024509,-0.002616,0.612270,-0.068664,-0.096910,2.759455,-0.555012,-0.585005,11.672988,-15.140475,1.665866,-0.006918,-0.061724,0.000000,-0.055388,-0.273836,-0.000000
0.230000,-3.266232,0.276168,-1.491642,0.099414,-0.025225,-0.003614,0.640102,-0.074607,-0.102716,2.767347,-0.591633,-0.580637,-10.228045,8.014675,-0.819416,-0.007511,-0.064484,0.000000,-0.058984,-0.274238,-0.000000
0.240000,-3.265205,0.275912,-1.491684,0.105952,-0.025999,-0.004670,0.667243,-0.080119,-0.108560,2.677153,-0.530664,-0.585418,-1.713336,-2.604321,0.660466,-0.008059,-0.067171,0.000000,-0.052759,-0.264736,-0.000000
0.250000,-3.264112,0.275648,-1.491736,0.112758,-0.026828,-0.005785,0.694069,-0.085727,-0.114357,2.682552,-0.586375,-0.574263,-3.199282,-1.793738,0.771200,-0.008617,-0.069822,0.000000,-0.058278,-0.264947,-0.000000
0.260000,-3.262949,0.275375,-1.491800,0.119832,-0.027715,-0.006957,0.720615,-0.091648,-0.120059,2.622273,-0.596437,-0.565746,-4.551558,-1.339945,0.921020,-0.009205,-0.072442,0.000000,-0.059204,-0.258567,0.000000
0.270000,-3.261715,0.275093,-1.491875,0.127169,-0.028661,-0.008186,0.746820,-0.097732,-0.125668,2.631454,-0.623564,-0.555966,2.274259,-3.011845,1.041732,-0.009809,-0.075024,0.000000,-0.061838,-0.259166,-0.000000
0.280000,-3.260405,0.274801,-1.491964,0.134769,-0.029670,-0.009470,0.773016,-0.104056,-0.131173,2.581316,-0.634114,-0.544769,-12.405579,0.929855,1.195912,-0.010435,-0.077603,0.000000,-0.062810,-0.253849,0.000000
0.290000,-3.259018,0.274499,-1.492065,0.142626,-0.030742,-0.010809,0.798201,-0.110347,-0.136559,2.467651,-0.626929,-0.532264,-6.121942,-0.588480,1.294448,-0.011058,-0.080077,0.000000,-0.062013,-0.242222,0.000000
0.300000,-3.257552,0.274186,-1.492180,0.150731,-0.031877,-0.012201,0.822675,-0.116670,-0.141816,2.423762,-0.636709,-0.518844,-6.807006,-0.284213,1.396356,-0.011683,-0.082478,0.000000,-0.062914,-0.237600,-0.000000
0.310000,-3.256003,0.273862,-1.492309,0.159077,-0.033076,-0.013645,0.846513,-0.123035,-0.146933,2.341899,-0.635446,-0.504515,-7.363463,-0.011320,1.483560,-0.012312,-0.084813,0.000000,-0.062717,-0.229221,0.000000
0.320000,-3.254369,0.273525,-1.492453,0.167659,-0.034338,-0.015139,0.869673,-0.129415,-0.151902,2.296886,-0.642009,-0.489080,-3.743949,-0.775846,1.587320,-0.012941,-0.087079,0.000000,-0.063303,-0.224551,-0.000000
0.330000,-3.252649,0.273175,-1.492612,0.176469,-0.035664,-0.016682,0.892338,-0.135842,-0.156713,2.222791,-0.639921,-0.473104,-11.128991,1.207713,1.605586,-0.013574,-0.089294,0.000000,-0.063030,-0.217012,-0.000000
0.340000,-3.250839,0.272811,-1.492787,0.185502,-0.037054,-0.018273,0.914008,-0.142178,-0.161363,2.117400,-0.628590,-0.456718,-7.799723,0.522905,1.684335,-0.014198,-0.091408,0.000000,-0.061845,-0.206394,-0.000000
0.350000,-3.248938,0.272433,-1.492978,0.194747,-0.038508,-0.019909,0.934846,-0.148449,-0.165845,2.048821,-0.624967,-0.439572,-8.040138,0.731925,1.728348,-0.014815,-0.093438,0.000000,-0.061431,-0.199475,0.000000
0.360000,-3.246944,0.272041,-1.493185,0.204196,-0.040023,-0.021589,0.954905,-0.154652,-0.170154,1.961978,-0.615268,-0.422191,-8.218155,0.928996,1.761161,-0.015424,-0.095390,0.000000,-0.060420,-0.190771,-0.000000
0.370000,-3.244854,0.271633,-1.493410,0.213842,-0.041600,-0.023312,0.974170,-0.160770,-0.174286,1.894744,-0.608963,-0.404245,-6.292238,0.600210,1.811992,-0.016025,-0.097262,0.000000,-0.059752,-0.184046,0.000000
0.380000,-3.242666,0.271209,-1.493651,0.223677,-0.043238,-0.025074,0.992746,-0.166813,-0.178239,1.813783,-0.597631,-0.386289,-9.927871,1.673647,1.777083,-0.016618,-0.099066,0.000000,-0.058591,-0.175985,-0.000000
0.390000,-3.240379,0.270768,-1.493911,0.233694,-0.044936,-0.026876,1.010388,-0.172703,-0.182012,1.717936,-0.580950,-0.368439,-8.156737,1.390163,1.806034,-0.017195,-0.100777,0.000000,-0.056906,-0.166475,0.000000
0.400000,-3.237992,0.270310,-1.494189,0.243882,-0.046692,-0.028714,1.027188,-0.178448,-0.185606,1.641550,-0.567531,-0.350328,-8.192756,1.564134,1.800648,-0.017757,-0.102405,0.000000,-0.055551,-0.158922,0.000000
0.410000,-3.235501,0.269834,-1.494486,0.254235,-0.048505,-0.030587,1.043181,-0.184039,-0.189020,1.556797,-0.550324,-0.332430,-8.200267,1.734169,1.786742,-0.018304,-0.103952,0.000000,-0.053826,-0.150562,-0.000000
0.420000,-3.232907,0.269339,-1.494801,0.264743,-0.050372,-0.032494,1.058369,-0.189460,-0.192255,1.482705,-0.534166,-0.314536,-7.153296,1.635597,1.781832,-0.018834,-0.105421,0.000000,-0.052212,-0.143280,-0.000000
0.430000,-3.230206,0.268826,-1.495136,0.275400,-0.052293,-0.034432,1.072811,-0.194710,-0.195312,1.402484,-0.514709,-0.297008,-8.905566,2.260074,1.722128,-0.019347,-0.106816,0.000000,-0.050276,-0.135409,-0.000000
0.440000,-3.227398,0.268293,-1.495490,0.286197,-0.054266,-0.036399,1.086392,-0.199741,-0.198196,1.315519,-0.491768,-0.279937,-7.942333,2.188132,1.700025,-0.019839,-0.108127,0.000000,-0.048002,-0.126888,-0.000000
0.450000,-3.224482,0.267741,-1.495864,0.297125,-0.056287,-0.038395,1.099166,-0.204551,-0.200911,1.239051,-0.469759,-0.263112,-7.890584,2.352981,1.655140,-0.020308,-0.109359,0.000000,-0.045825,-0.119420,-0.000000
0.460000,-3.221455,0.267167,-1.496258,0.308177,-0.058356,-0.040417,1.111157,-0.209126,-0.203461,1.159043,-0.445039,-0.246828,-7.827257,2.517123,1.603889,-0.020754,-0.110514,0.000000,-0.043385,-0.111615,-0.000000
0.470000,-3.218318,0.266573,-1.496672,0.319346,-0.060469,-0.042464,1.122372,-0.213452,-0.205849,1.085127,-0.420095,-0.231026,-7.229001,2.543385,1.552245,-0.021176,-0.111594,0.000000,-0.040927,-0.104421,-0.000000
0.480000,-3.215068,0.265958,-1.497107,0.330622,-0.062624,-0.044534,1.132849,-0.217519,-0.208083,1.008725,-0.392666,-0.215868,-8.059254,2.944871,1.478441,-0.021572,-0.112602,0.000000,-0.038228,-0.096991,-0.000000
0.490000,-3.211705,0.265321,-1.497563,0.342000,-0.064818,-0.046625,1.142535,-0.221296,-0.210169,0.929503,-0.362646,-0.201413,-7.507780,2.986763,1.414639,-0.021939,-0.113533,0.000000,-0.035277,-0.089289,-0.000000
0.500000,-3.208228,0.264661,-1.498040,0.353471,-0.067049,-0.048737,1.151464,-0.224773,-0.212114,0.856231,-0.332315,-0.187618,-7.422051,3.151797,1.340406,-0.022277,-0.114391,0.000000,-0.032298,-0.082178,-0.000000
0.510000,-3.204635,0.263980,-1.498538,0.365027,-0.069313,-0.050867,1.159653,-0.227934,-0.213924,0.781829,-0.299747,-0.174615,-7.330213,3.317685,1.261379,-0.022585,-0.115177,0.000000,-0.029101,-0.074958,-0.000000
0.520000,-3.200927,0.263275,-1.499057,0.376661,-0.071607,-0.053015,1.167114,-0.230766,-0.215609,0.710809,-0.266366,-0.162387,-6.997432,3.401413,1.181702,-0.022859,-0.115892,0.000000,-0.025825,-0.068073,0.000000
0.530000,-3.197102,0.262547,-1.499598,0.388367,-0.073927,-0.055179,1.173867,-0.233254,-0.217175,0.639285,-0.230818,-0.151034,-7.310883,3.709714,1.088059,-0.023100,-0.116538,0.000000,-0.022338,-0.061138,-0.000000
0.540000,-3.193159,0.261797,-1.500161,0.400136,-0.076270,-0.057358,1.179896,-0.235374,-0.218632,0.567103,-0.193038,-0.140598,-7.000307,3.802858,1.000565,-0.023305,-0.117114,0.000000,-0.018631,-0.054135,0.000000
0.550000,-3.189099,0.261022,-1.500745,0.411962,-0.078633,-0.059551,1.185222,-0.237113,-0.219990,0.498212,-0.154394,-0.131051,-6.901473,3.969340,0.906606,-0.023473,-0.117622,0.000000,-0.014840,-0.047452,0.000000
0.560000,-3.184920,0.260224,-1.501352,0.423838,-0.081011,-0.061757,1.189860,-0.238455,-0.221256,0.429477,-0.113762,-0.122456,-6.798670,4.135364,0.810282,-0.023601,-0.118064,0.000000,-0.010853,-0.040781,0.000000
0.570000,-3.180622,0.259402,-1.501980,0.435757,-0.083401,-0.063976,1.193819,-0.239384,-0.222442,0.362670,-0.071886,-0.114868,-6.607955,4.260663,0.708615,-0.023689,-0.118439,0.000000,-0.006743,-0.034292,0.000000
0.580000,-3.176205,0.258556,-1.502631,0.447712,-0.085798,-0.066206,1.197115,-0.239886,-0.223557,0.296368,-0.028111,-0.108257,-6.653805,4.494893,0.613384,-0.023736,-0.118750,0.000000,-0.002446,-0.027846,0.000000
0.590000,-3.171668,0.257686,-1.503305,0.459697,-0.088197,-0.068447,1.199747,-0.239940,-0.224611,0.230511,0.017585,-0.102637,-6.471786,4.623058,0.508809,-0.023738,-0.118996,0.000000,0.002043,-0.021436,0.000000
0.600000,-3.167011,0.256792,-1.504000,0.471705,-0.090595,-0.070698,1.201732,-0.239531,-0.225613,0.166544,0.064526,-0.098070,-6.367335,4.785976,0.406102,-0.023694,-0.119179,0.000000,0.006655,-0.015203,-0.000000
0.610000,-3.162233,0.255874,-1.504719,0.483730,-0.092986,-0.072959,1.203080,-0.238643,-0.226576,0.103174,0.113221,-0.094545,-6.263808,4.946726,0.301460,-0.023604,-0.119300,0.000000,0.011442,-0.009018,-0.000000
0.620000,-3.157336,0.254932,-1.505459,0.495765,-0.095366,-0.075229,1.203802,-0.237262,-0.227508,0.041681,0.163397,-0.092038,-6.077763,5.094205,0.199052,-0.023465,-0.119360,0.000000,0.016377,-0.003009,-0.000000
0.630000,-3.152318,0.253967,-1.506223,0.507804,-0.097730,-0.077509,1.203915,-0.235370,-0.228420,-0.019284,0.215226,-0.090584,-6.116435,5.271396,0.091599,-0.023276,-0.119361,0.000000,0.021478,0.002960,-0.000000
0.640000,-3.147180,0.252978,-1.507010,0.519841,-0.100072,-0.079798,1.203418,-0.232952,-0.229323,-0.079778,0.268695,-0.090184,-5.938905,5.415921,-0.010493,-0.023035,-0.119301,0.000000,0.026742,0.008893,0.000000
0.650000,-3.141921,0.251965,-1.507819,0.531870,-0.102387,-0.082095,1.202326,-0.229991,-0.230227,-0.138420,0.323588,-0.090796,-5.833702,5.568296,-0.113024,-0.022741,-0.119183,0.000000,0.032150,0.014655,-0.000000
0.660000,-3.136542,0.250930,-1.508652,0.543886,-0.104670,-0.084402,1.200652,-0.226474,-0.231142,-0.196285,0.380072,-0.092480,-5.726870,5.718505,-0.215221,-0.022391,-0.119008,0.000000,0.037717,0.020353,0.000000
0.670000,-3.131044,0.249872,-1.509507,0.555881,-0.106914,-0.086718,1.198405,-0.222386,-0.232079,-0.252841,0.437859,-0.095018,-5.596055,5.847682,-0.300184,-0.021986,-0.118777,0.000000,0.043414,0.025932,-0.000000
0.680000,-3.125425,0.248792,-1.510386,0.567852,-0.109115,-0.089044,1.195598,-0.217712,-0.233046,-0.308455,0.497209,-0.098645,-5.527040,6.021921,-0.424867,-0.021523,-0.118490,0.000000,0.049269,0.031430,-0.000000
0.690000,-3.119687,0.247690,-1.511288,0.579791,-0.111267,-0.091379,1.192239,-0.212436,-0.234056,-0.363134,0.558097,-0.103345,-5.396355,6.145732,-0.506669,-0.021000,-0.118148,0.000000,0.055277,0.036848,0.000000
0.700000,-3.113829,0.246567,-1.512214,0.591695,-0.113362,-0.093725,1.188340,-0.206546,-0.235116,-0.416486,0.620189,-0.108833,-5.285312,6.281251,-0.598769,-0.020417,-0.117753,0.000000,0.061407,0.042145,-0.000000
0.710000,-3.107853,0.245423,-1.513163,0.603556,-0.115396,-0.096082,1.183913,-0.200028,-0.236236,-0.468685,0.683668,-0.115294,-5.170004,6.411889,-0.687497,-0.019771,-0.117305,0.000000,0.067675,0.047338,0.000000
0.720000,-3.101758,0.244259,-1.514135,0.615371,-0.117361,-0.098450,1.178969,-0.192869,-0.237424,-0.520026,0.748394,-0.122520,-5.082559,6.534283,-0.762231,-0.019063,-0.116806,0.000000,0.074067,0.052456,-0.000000
0.730000,-3.095546,0.243076,-1.515132,0.627134,-0.119251,-0.100831,1.173517,-0.185056,-0.238689,-0.570009,0.814373,-0.130631,-4.913254,6.660733,-0.859291,-0.018290,-0.116257,0.000000,0.080584,0.057450,-0.000000
0.740000,-3.089216,0.241874,-1.516152,0.638840,-0.121059,-0.103224,1.167574,-0.176577,-0.240040,-0.618594,0.881555,-0.139585,-4.818903,6.772793,-0.925444,-0.017451,-0.115658,0.000000,0.087220,0.062314,0.000000
0.750000,-3.082769,0.240655,-1.517196,0.650484,-0.122780,-0.105632,1.161148,-0.167421,-0.241483,-0.666255,0.949824,-0.149168,-4.696944,6.881951,-0.995038,-0.016545,-0.115010,0.000000,0.093963,0.067094,-0.000000
0.760000,-3.076206,0.239419,-1.518265,0.662061,-0.124406,-0.108054,1.154253,-0.157577,-0.243025,-0.712541,1.019122,-0.159471,-4.572337,6.983984,-1.058850,-0.015571,-0.114316,0.000000,0.100807,0.071745,-0.000000
0.770000,-3.069528,0.238167,-1.519357,0.673568,-0.125929,-0.110493,1.146901,-0.147035,-0.244674,-0.757810,1.089550,-0.170270,-4.469012,7.093353,-1.105299,-0.014528,-0.113576,0.000000,0.107761,0.076300,0.000000
0.780000,-3.062735,0.236901,-1.520475,0.684998,-0.127344,-0.112948,1.139102,-0.135784,-0.246433,-0.801661,1.160815,-0.181672,-4.300487,7.158213,-1.174220,-0.013416,-0.112790,0.000000,0.114796,0.080719,0.000000
0.790000,-3.055828,0.235621,-1.521616,0.696348,-0.128643,-0.115422,1.130872,-0.123816,-0.248309,-0.844057,1.232836,-0.193615,-4.190674,7.252079,-1.207321,-0.012232,-0.111961,0.000000,0.121902,0.085000,-0.000000
0.800000,-3.048809,0.234328,-1.522783,0.707614,-0.129818,-0.117915,1.122224,-0.111124,-0.250306,-0.885360,1.305771,-0.205840,-4.057841,7.326211,-1.241985,-0.010977,-0.111090,0.000000,0.129094,0.089173,0.000000
0.810000,-3.041676,0.233025,-1.523975,0.718791,-0.130863,-0.120428,1.113171,-0.097699,-0.252427,-0.925112,1.379316,-0.218440,-3.920707,7.391890,-1.268648,-0.009650,-0.110178,0.000000,0.136342,0.093194,0.000000
0.820000,-3.034433,0.231712,-1.525192,0.729876,-0.131769,-0.122964,1.103724,-0.083534,-0.254675,-0.964031,1.453677,-0.231109,-3.835068,7.468838,-1.271255,-0.008250,-0.109227,0.000000,0.143665,0.097130,0.000000
0.830000,-3.027079,0.230390,-1.526434,0.740865,-0.132531,-0.125522,1.093896,-0.068624,-0.257050,-1.001225,1.528455,-0.243996,-3.602491,7.485178,-1.304813,-0.006777,-0.108236,0.000000,0.151022,0.100896,-0.000000
0.840000,-3.019616,0.229061,-1.527702,0.751753,-0.133139,-0.128105,1.083706,-0.052964,-0.259555,-1.036637,1.603554,-0.257014,-3.507670,7.543280,-1.289117,-0.005230,-0.107209,0.000000,0.158404,0.104483,-0.000000
0.850000,-3.012044,0.227728,-1.528996,0.762537,-0.133588,-0.130714,1.073166,-0.036551,-0.262190,-1.071135,1.679206,-0.269809,-3.363890,7.575511,-1.275836,-0.003608,-0.106147,0.000000,0.165832,0.107974,0.000000
0.860000,-3.004366,0.226390,-1.530317,0.773215,-0.133868,-0.133349,1.062288,-0.019380,-0.264951,-1.104145,1.755076,-0.282436,-3.221551,7.599056,-1.250800,-0.001913,-0.105050,0.000000,0.173272,0.111311,-0.000000
0.870000,-2.996581,0.225051,-1.531663,0.783782,-0.133973,-0.136013,1.051089,-0.001448,-0.267838,-1.135391,1.831174,-0.294822,-3.044831,7.617077,-1.220631,-0.000143,-0.103921,0.000000,0.180725,0.114468,0.000000
0.880000,-2.988690,0.223711,-1.533037,0.794236,-0.133894,-0.138706,1.039584,0.017244,-0.270846,-1.165402,1.907346,-0.306732,-2.957768,7.615627,-1.159128,0.001702,-0.102761,0.000000,0.188175,0.117494,-0.000000
0.890000,-2.980696,0.222374,-1.534438,0.804573,-0.133625,-0.141430,1.027785,0.036698,-0.273970,-1.194190,1.983492,-0.318034,-2.781987,7.614016,-1.102907,0.003621,-0.101572,0.000000,0.195611,0.120388,-0.000000
0.900000,-2.972599,0.221040,-1.535866,0.814791,-0.133158,-0.144186,1.015707,0.056914,-0.277205,-1.221186,2.059576,-0.328714,-2.634622,7.599173,-1.027063,0.005614,-0.100354,0.000000,0.203030,0.123094,-0.000000
0.910000,-2.964401,0.219711,-1.537321,0.824886,-0.132484,-0.146975,1.003366,0.077889,-0.280541,-1.246804,2.135425,-0.338478,-2.485283,7.573694,-0.936078,0.007681,-0.099110,0.000000,0.210414,0.125651,0.000000
0.920000,-2.956102,0.218391,-1.538805,0.834857,-0.131597,-0.149797,0.990776,0.099622,-0.283972,-1.270855,2.211060,-0.347504,-2.328112,7.546879,-0.854301,0.009822,-0.097842,0.000000,0.217764,0.128042,0.000000
0.930000,-2.947704,0.217080,-1.540317,0.844701,-0.130489,-0.152655,0.977954,0.122109,-0.287487,-1.293434,2.286228,-0.355257,-2.187471,7.484708,-0.693389,0.012036,-0.096550,0.000000,0.225057,0.130271,-0.000000
0.940000,-2.939208,0.215782,-1.541858,0.854415,-0.129153,-0.155547,0.964912,0.145344,-0.291072,-1.314532,2.360814,-0.361569,-2.028587,7.435390,-0.578722,0.014323,-0.095237,0.000000,0.232281,0.132336,0.000000
0.950000,-2.930616,0.214498,-1.543429,0.863998,-0.127580,-0.158476,0.951668,0.169323,-0.294715,-1.334031,2.434859,-0.366674,-1.874271,7.366919,-0.427301,0.016681,-0.093904,0.000000,0.239440,0.134229,-0.000000
0.960000,-2.921929,0.213231,-1.545028,0.873448,-0.125764,-0.161442,0.938237,0.194039,-0.298399,-1.351894,2.508105,-0.369996,-1.716507,7.286762,-0.257736,0.019111,-0.092552,0.000000,0.246511,0.135941,0.000000
0.970000,-2.913148,0.211983,-1.546658,0.882763,-0.123697,-0.164444,0.924634,0.219483,-0.302111,-1.368527,2.580613,-0.371989,-1.591965,7.206820,-0.115341,0.021611,-0.091185,0.000000,0.253498,0.137517,0.000000
0.980000,-2.904274,0.210758,-1.548317,0.891940,-0.121372,-0.167484,0.910873,0.245647,-0.305832,-1.383356,2.652075,-0.371768,-1.373270,7.083464,0.163074,0.024181,-0.089802,0.000000,0.260376,0.138894,0.000000
0.990000,-2.895309,0.209557,-1.550007,0.900980,-0.118782,-0.170561,0.896973,0.272521,-0.309538,-1.396349,2.722366,-0.369130,-1.243181,6.978745,0.344632,0.026819,-0.088407,0.000000,0.267133,0.140067,-0.000000
1.000000,-2.886255,0.208383,-1.551728,0.909879,-0.115919,-0.173675,0.882950,0.300091,-0.313208,-1.408063,2.791558,-0.364625,-1.081731,6.851632,0.582569,0.029523,-0.087000,0.000000,0.273776,0.141099,-0.000000
1.010000,-2.877112,0.207239,-1.553481,0.918638,-0.112777,-0.176825,0.868818,0.328347,-0.316820,-1.418127,2.859444,-0.357306,-0.921828,6.713755,0.841855,0.032294,-0.085584,0.000000,0.280291,0.141944,-0.000000
1.020000,-2.867883,0.206128,-1.555265,0.927255,-0.109350,-0.180011,0.854593,0.357275,-0.320349,-1.426414,2.925703,-0.348117,-0.744407,6.545296,1.039986,0.035128,-0.084160,0.000000,0.286645,0.142601,0.000000
1.030000,-2.858568,0.205053,-1.557081,0.935730,-0.105630,-0.183231,0.840294,0.386857,-0.323771,-1.433197,2.990505,-0.335581,-0.612371,6.413446,1.471687,0.038026,-0.082731,0.000000,0.292862,0.143086,0.000000
1.040000,-2.849169,0.204017,-1.558930,0.944061,-0.101611,-0.186486,0.825934,0.417079,-0.327048,-1.438482,3.053738,-0.319455,-0.435519,6.221389,1.715008,0.040985,-0.081297,0.000000,0.298935,0.143398,-0.000000
1.050000,-2.839687,0.203022,-1.560811,0.952248,-0.097286,-0.189772,0.811531,0.447925,-0.330153,-1.441990,3.114970,-0.300866,-0.274034,6.032308,2.047316,0.044004,-0.079861,0.000000,0.304821,0.143521,0.000000
1.060000,-2.830124,0.202072,-1.562725,0.960292,-0.092650,-0.193088,0.797099,0.479373,-0.333052,-1.444011,3.174353,-0.278250,-0.113120,5.830513,2.403825,0.047081,-0.078425,0.000000,0.310546,0.143474,-0.000000
1.070000,-2.820482,0.201170,-1.564673,0.968190,-0.087697,-0.196432,0.782657,0.511404,-0.335712,-1.444096,3.231430,-0.253420,0.079839,5.593730,2.638083,0.050214,-0.076989,0.000000,0.316061,0.143228,-0.000000
1.080000,-2.810761,0.200319,-1.566654,0.975945,-0.082420,-0.199801,0.768222,0.543995,-0.338104,-1.442759,3.286413,-0.223895,0.187120,5.400894,3.272095,0.053402,-0.075557,0.000000,0.321402,0.142817,-0.000000
1.090000,-2.800963,0.199523,-1.568669,0.983555,-0.076815,-0.203193,0.753807,0.577125,-0.340173,-1.440019,3.339176,-0.189395,0.377531,5.138194,3.557254,0.056642,-0.074129,0.000000,0.326566,0.142243,0.000000
1.100000,-2.791090,0.198784,-1.570718,0.991021,-0.070876,-0.206604,0.739428,0.610769,-0.341884,-1.435351,3.389224,-0.152063,0.539933,4.879942,3.985157,0.059932,-0.072708,0.000000,0.331497,0.141472,0.000000
1.110000,-2.781143,0.198106,-1.572801,0.998344,-0.064598,-0.210029,0.725101,0.644900,-0.343195,-1.429838,3.436596,-0.109479,0.690016,4.604732,4.436175,0.063271,-0.071295,0.000000,0.336219,0.140596,0.000000
1.120000,-2.771124,0.197493,-1.574919,1.005523,-0.057976,-0.213466,0.710847,0.679492,-0.344066,-1.420375,3.481385,-0.064187,1.079258,4.338096,4.720120,0.066656,-0.069892,0.000000,0.340731,0.139331,-0.000000
1.130000,-2.761033,0.196948,-1.577070,1.012561,-0.051007,-0.216909,0.696693,0.714517,-0.344459,-1.410841,3.523050,-0.013025,0.824056,3.991947,5.517933,0.070085,-0.068502,0.000000,0.345009,0.138035,-0.000000
1.140000,-2.750873,0.196474,-1.579257,1.019457,-0.043685,-0.220353,0.682629,0.749942,-0.344305,-1.401386,3.561420,0.044294,1.192256,3.691929,5.852159,0.073555,-0.067125,0.000000,0.349045,0.136726,-0.000000
1.150000,-2.740645,0.196076,-1.581478,1.026214,-0.036007,-0.223793,0.668681,0.785736,-0.343564,-1.388056,3.596730,0.104881,1.351203,3.355137,6.363442,0.077065,-0.065762,0.000000,0.352850,0.135037,-0.000000
1.160000,-2.730349,0.195755,-1.583733,1.032832,-0.027969,-0.227223,0.654873,0.821866,-0.342186,-1.373032,3.628831,0.171639,1.535557,3.009005,6.892542,0.080612,-0.064416,0.000000,0.356438,0.133165,0.000000
1.170000,-2.719988,0.195517,-1.586022,1.039312,-0.019568,-0.230635,0.641217,0.858296,-0.340121,-1.358425,3.656365,0.241875,1.501818,2.546725,7.251156,0.084192,-0.063089,0.000000,0.359664,0.131335,-0.000000
1.180000,-2.709563,0.195365,-1.588345,1.045656,-0.010802,-0.234023,0.627717,0.894984,-0.337326,-1.340560,3.680796,0.318685,2.075390,2.338138,8.115531,0.087804,-0.061782,0.000000,0.362704,0.129171,-0.000000
1.190000,-2.699076,0.195303,-1.590702,1.051867,-0.001668,-0.237379,0.614418,0.931902,-0.333724,-1.319235,3.702023,0.402301,2.073838,1.852178,8.513630,0.091446,-0.060497,0.000000,0.365559,0.126654,0.000000
1.200000,-2.688527,0.195333,-1.593093,1.057945,0.007837,-0.240694,0.601329,0.969007,-0.329268,-1.298081,3.718223,0.489795,2.273693,1.436822,9.081672,0.095114,-0.059238,0.000000,0.368036,0.124158,-0.000000
1.210000,-2.677917,0.195461,-1.595516,1.063894,0.017713,-0.243961,0.588465,1.006254,-0.323904,-1.274532,3.730475,0.584189,2.468074,1.000673,9.665169,0.098806,-0.058004,0.000000,0.370277,0.121415,0.000000
1.220000,-2.667249,0.195689,-1.597972,1.069716,0.027962,-0.247169,0.575848,1.043600,-0.317576,-1.248393,3.738083,0.681903,2.728380,0.527232,10.006257,0.102519,-0.056798,0.000000,0.372188,0.118428,0.000000
1.230000,-2.656523,0.196021,-1.600459,1.075412,0.038585,-0.250309,0.563502,1.081000,-0.310240,-1.220626,3.741152,0.787013,2.824722,0.083645,11.020053,0.106249,-0.055623,0.000000,0.373829,0.115269,-0.000000
1.240000,-2.645741,0.196462,-1.602978,1.080987,0.049582,-0.253370,0.551441,1.118408,-0.301809,-1.191229,3.739497,0.899716,3.087999,-0.427697,11.391263,0.109994,-0.054480,0.000000,0.375195,0.111938,-0.000000
1.250000,-2.634904,0.197014,-1.605526,1.086442,0.060953,-0.256341,0.539687,1.155773,-0.292236,-1.159121,3.732611,1.015924,3.301681,-0.943537,11.979734,0.113752,-0.053372,0.000000,0.376202,0.108351,-0.000000
1.260000,-2.624013,0.197682,-1.608104,1.091781,0.072697,-0.259211,0.528261,1.193041,-0.281465,-1.125724,3.720225,1.139387,3.508514,-1.486873,12.572206,0.117517,-0.052300,0.000000,0.376874,0.104626,-0.000000
1.270000,-2.613069,0.198469,-1.610710,1.097008,0.084813,-0.261967,0.517190,1.230163,-0.269440,-1.087734,3.703265,1.266062,3.964681,-1.957665,12.897195,0.121288,-0.051266,0.000000,0.377263,0.100461,0.000000
1.280000,-2.602073,0.199379,-1.613343,1.102126,0.097300,-0.264595,0.506508,1.267085,-0.256118,-1.049053,3.679972,1.400149,3.768842,-2.706126,13.922608,0.125061,-0.050276,0.000000,0.377256,0.096214,-0.000000
1.290000,-2.591027,0.200416,-1.616002,1.107140,0.110154,-0.267084,0.496210,1.303740,-0.241411,-1.009779,3.650057,1.541732,4.214838,-3.231249,14.254997,0.128832,-0.049327,0.000000,0.376836,0.091895,0.000000
1.300000,-2.579930,0.201584,-1.618684,1.112052,0.123373,-0.269419,0.486330,1.340070,-0.225276,-0.965821,3.614852,1.686369,4.453114,-3.862637,14.805543,0.132597,-0.048424,0.000000,0.376083,0.087121,0.000000
1.310000,-2.568786,0.202885,-1.621389,1.116868,0.136954,-0.271585,0.476901,1.376013,-0.207659,-0.919504,3.572787,1.837802,4.720361,-4.517696,15.344529,0.136352,-0.047570,0.000000,0.374900,0.082098,0.000000
1.320000,-2.557593,0.204324,-1.624115,1.121592,0.150892,-0.273567,0.467942,1.411506,-0.188513,-0.872221,3.524759,1.991963,4.826997,-5.127186,15.613380,0.140094,-0.046767,0.000000,0.373326,0.076979,-0.000000
1.330000,-2.546354,0.205904,-1.626860,1.126228,0.165183,-0.275350,0.459470,1.446484,-0.167797,-0.821060,3.469420,2.152708,5.409948,-5.945643,16.535340,0.143817,-0.046017,0.000000,0.371285,0.071455,-0.000000
1.340000,-2.535069,0.207629,-1.629622,1.130783,0.179820,-0.276917,0.451535,1.480869,-0.145436,-0.765781,3.406488,2.319959,5.557909,-6.608676,16.779267,0.147518,-0.045325,0.000000,0.368754,0.065496,0.000000
1.350000,-2.523739,0.209502,-1.632398,1.135261,0.194798,-0.278253,0.444158,1.514592,-0.121393,-0.709100,3.336864,2.489303,5.870014,-7.355752,17.214041,0.151191,-0.044693,0.000000,0.365763,0.059385,0.000000
1.360000,-2.512364,0.211526,-1.635186,1.139668,0.210109,-0.279340,0.437369,1.547576,-0.095632,-0.647983,3.258605,2.663592,6.205456,-8.141279,17.608948,0.154831,-0.044125,0.000000,0.362160,0.052799,0.000000
1.370000,-2.500946,0.213705,-1.637984,1.144010,0.225747,-0.280160,0.431197,1.579750,-0.068111,-0.586332,3.175423,2.841090,6.272398,-8.652874,17.911958,0.158433,-0.043624,0.000000,0.358287,0.046128,-0.000000
1.380000,-2.489484,0.216042,-1.640788,1.148294,0.241701,-0.280696,0.425661,1.611050,-0.038798,-0.519436,3.082243,3.022277,7.113296,-9.991570,18.318984,0.161994,-0.043193,0.000000,0.353648,0.038889,-0.000000
1.390000,-2.477980,0.218540,-1.643596,1.152526,0.257964,-0.280930,0.420828,1.641359,-0.007655,-0.446974,2.978634,3.206755,7.233840,-10.578244,18.540615,0.165503,-0.042838,0.000000,0.348186,0.031039,0.000000
1.400000,-2.466434,0.221202,-1.646406,1.156713,0.274525,-0.280843,0.416723,1.670607,0.025343,-0.373473,2.869290,3.393162,7.615013,-11.448864,18.760716,0.168956,-0.042564,0.000000,0.342342,0.023025,-0.000000
1.410000,-2.454846,0.224031,-1.649212,1.160863,0.291373,-0.280417,0.413390,1.698710,0.060216,-0.292075,2.749786,3.581725,8.063685,-12.341687,18.928084,0.172347,-0.042374,0.000000,0.335666,0.014142,-0.000000
1.420000,-2.443217,0.227030,-1.652013,1.164983,0.308495,-0.279632,0.410847,1.725581,0.096981,-0.217715,2.623438,3.771401,7.393774,-13.040859,19.011749,0.175668,-0.042273,0.000000,0.328469,0.005888,-0.000000
1.430000,-2.431546,0.230202,-1.654804,1.169082,0.325880,-0.278471,0.409078,1.751143,0.135647,-0.131914,2.486602,3.962057,9.785133,-14.332507,19.109628,0.178913,-0.042260,0.000000,0.320360,-0.003617,-0.000000
1.440000,-2.419835,0.233549,-1.657581,1.173168,0.343513,-0.276913,0.408255,1.775277,0.176223,-0.033833,2.338961,4.153094,9.240971,-15.087170,19.072530,0.182072,-0.042352,0.000000,0.311273,-0.014487,0.000000
1.450000,-2.408083,0.237073,-1.660340,1.177251,0.361380,-0.274940,0.408370,1.797899,0.218707,0.057905,2.183867,4.343405,9.693949,-16.044483,18.992406,0.185137,-0.042551,0.000000,0.301520,-0.024841,0.000000
1.460000,-2.396290,0.240777,-1.663078,1.181339,0.379466,-0.272532,0.409431,1.818920,0.263090,0.154793,2.018770,4.533118,10.062140,-17.004647,18.849476,0.188099,-0.042860,0.000000,0.290812,-0.035866,-0.000000
1.470000,-2.384456,0.244663,-1.665790,1.185443,0.397753,-0.269672,0.411509,1.838240,0.309356,0.262640,1.843481,4.719316,11.134969,-18.028127,18.464131,0.190949,-0.043287,0.000000,0.279040,-0.048176,-0.000000
1.480000,-2.372581,0.248733,-1.668470,1.189573,0.416225,-0.266339,0.414679,1.855758,0.357472,0.369676,1.658735,4.903962,10.258708,-18.921904,18.454277,0.193677,-0.043841,0.000000,0.266291,-0.060595,-0.000000
1.490000,-2.360665,0.252988,-1.671115,1.193740,0.434862,-0.262516,0.418895,1.871383,0.407428,0.475271,1.464470,5.086365,11.232432,-19.959604,17.924315,0.196272,-0.044522,0.000000,0.252514,-0.073069,-0.000000
1.500000,-2.348706,0.257431,-1.673719,1.197954,0.453646,-0.258185,0.424225,1.885012,0.459178,0.591107,1.259746,5.262892,11.558809,-20.959547,17.454628,0.198723,-0.045337,0.000000,0.237484,-0.086823,-0.000000
1.510000,-2.336705,0.262061,-1.676277,1.202228,0.472555,-0.253327,0.430686,1.896490,0.512658,0.700864,1.032529,5.431754,11.745493,-22.216865,16.829971,0.201012,-0.046291,0.000000,0.219887,-0.100169,0.000000
1.520000,-2.324661,0.266882,-1.678783,1.206572,0.491568,-0.247926,0.438358,1.905805,0.567834,0.838448,0.836280,5.604033,14.455478,-19.230711,17.098132,0.203135,-0.047395,0.000000,0.205399,-0.116760,-0.000000
1.530000,-2.312574,0.271893,-1.681233,1.211000,0.510665,-0.241964,0.447400,1.913072,0.624689,0.962357,0.601784,5.762649,10.284878,-27.733499,14.593091,0.205103,-0.048670,0.000000,0.186511,-0.132180,0.000000
1.540000,-2.300441,0.277096,-1.683621,1.215524,0.529821,-0.235427,0.457543,1.917687,0.683031,1.070740,0.326208,5.905929,12.719449,-25.155002,14.563518,0.206847,-0.050089,0.000000,0.162748,-0.146195,0.000000
1.550000,-2.288263,0.282490,-1.685940,1.220155,0.549010,-0.228299,0.468926,1.919733,0.742817,1.205496,0.079970,6.049201,12.910679,-26.297929,13.559407,0.208372,-0.051671,0.000000,0.141710,-0.163395,0.000000
1.560000,-2.276038,0.288076,-1.688185,1.224907,0.568207,-0.220566,0.481710,1.919254,0.803957,1.354075,-0.175778,6.176719,13.556425,-27.003931,12.433797,0.209675,-0.053437,0.000000,0.118950,-0.182418,0.000000
1.570000,-2.263764,0.293854,-1.690349,1.229793,0.587386,-0.212216,0.495765,1.916019,0.866353,1.446739,-0.479795,6.302204,8.129822,-31.690713,12.156111,0.210728,-0.055375,0.000000,0.090644,-0.195778,-0.000000
1.580000,-2.251441,0.299823,-1.692427,1.234825,0.606517,-0.203235,0.510813,1.909735,0.929936,1.582868,-0.765321,6.409213,19.192791,-25.337767,9.214225,0.211493,-0.057460,0.000000,0.063298,-0.214162,0.000000
1.590000,-2.239067,0.305984,-1.694412,1.240016,0.625572,-0.193614,0.527606,1.900803,0.994466,1.766745,-1.028771,6.496099,14.395207,-29.459085,8.642742,0.212000,-0.059778,0.000000,0.037249,-0.238188,0.000000
1.600000,-2.226640,0.312334,-1.696297,1.245382,0.644523,-0.183343,0.545916,1.888976,1.059848,1.897713,-1.336287,6.577547,14.966184,-29.921000,7.137082,0.212216,-0.062309,0.000000,0.005745,-0.256859,-0.000000
1.610000,-2.214159,0.318874,-1.698076,1.250939,0.663341,-0.172414,0.565633,1.874128,1.125943,2.045755,-1.633649,6.638397,15.226642,-30.359307,5.515782,0.212117,-0.065043,0.000000,-0.025882,-0.277793,0.000000
1.620000,-2.201621,0.325601,-1.699743,1.256700,0.681996,-0.160822,0.586887,1.856223,1.192601,2.207520,-1.950788,6.692148,16.542050,-32.263195,4.736780,0.211687,-0.068000,0.000000,-0.060662,-0.300766,0.000000
1.630000,-2.189024,0.332513,-1.701291,1.262682,0.700455,-0.148561,0.609762,1.835138,1.259705,2.364321,-2.262014,6.722704,14.789170,-29.946728,1.345499,0.210901,-0.071194,0.000000,-0.096202,-0.323576,0.000000
1.640000,-2.176366,0.339609,-1.702712,1.268900,0.718688,-0.135628,0.634148,1.811014,1.326969,2.514699,-2.565596,6.728561,15.854305,-31.561826,0.300396,0.209761,-0.074616,0.000000,-0.132366,-0.346002,-0.000000
1.650000,-2.163645,0.346886,-1.704001,1.275370,0.736665,-0.122021,0.660104,1.783755,1.394251,2.676221,-2.886243,6.724318,15.857670,-31.758436,-1.648314,0.208242,-0.078276,0.000000,-0.171676,-0.370172,-0.000000
1.660000,-2.150858,0.354341,-1.705150,1.282107,0.754353,-0.107743,0.687593,1.753237,1.461368,2.819623,-3.219515,6.695466,15.514687,-32.241153,-3.687914,0.206316,-0.082174,0.000000,-0.214020,-0.392560,-0.000000
1.670000,-2.138002,0.361972,-1.706153,1.289127,0.771719,-0.092795,0.716703,1.719564,1.528127,3.011137,-3.506521,6.654439,20.149200,-27.714535,-4.960650,0.203980,-0.086324,0.000000,-0.252503,-0.420983,-0.000000
1.680000,-2.125075,0.369775,-1.707004,1.296448,0.788734,-0.077182,0.747678,1.682974,1.594366,3.167220,-3.827437,6.586969,10.972918,-36.535744,-8.556319,0.201246,-0.090757,0.000000,-0.296493,-0.445534,0.000000
1.690000,-2.112072,0.377745,-1.707695,1.304085,0.805367,-0.060911,0.779894,1.642873,1.659771,3.283470,-4.185038,6.491881,14.916193,-32.378674,-10.033129,0.198027,-0.095399,0.000000,-0.346488,-0.465463,0.000000
1.700000,-2.098992,0.385880,-1.708220,1.312051,0.821581,-0.043990,0.813537,1.599472,1.724163,3.442817,-4.496685,6.382439,14.300497,-32.515868,-12.297990,0.194334,-0.100275,0.000000,-0.392663,-0.490724,0.000000
1.710000,-2.085830,0.394176,-1.708573,1.320361,0.837345,-0.026432,0.848857,1.552794,1.787270,3.625697,-4.841290,6.233395,14.633270,-32.773463,-14.867300,0.190150,-0.105414,0.000000,-0.444828,-0.518702,-0.000000
1.720000,-2.072583,0.402626,-1.708747,1.329032,0.852626,-0.008250,0.885441,1.502933,1.848960,3.664998,-5.118477,6.109380,0.613708,-26.141023,-12.507443,0.185473,-0.110767,0.000000,-0.489045,-0.529806,0.000000
1.730000,-2.059248,0.411226,-1.708736,1.338071,0.867395,0.010543,0.922508,1.450260,1.909252,3.793036,-5.437096,5.929281,25.203560,-37.661783,-23.591571,0.180340,-0.116236,0.000000,-0.540655,-0.550994,-0.000000
1.740000,-2.045821,0.419972,-1.708534,1.347490,0.881619,0.029928,0.961686,1.394015,1.967327,4.018796,-5.800189,5.689584,12.446225,-31.384926,-21.749297,0.174629,-0.122013,0.000000,-0.600214,-0.583465,-0.000000
1.750000,-2.032297,0.428857,-1.708135,1.357309,0.895264,0.049882,1.002288,1.334549,2.023164,4.104817,-6.094060,5.472387,12.174537,-30.873195,-24.267800,0.168374,-0.128012,0.000000,-0.651223,-0.598949,-0.000000
1.760000,-2.018673,0.437875,-1.707534,1.367538,0.908301,0.070383,1.043391,1.272575,2.076738,4.098768,-6.284675,5.241471,8.766727,-27.632290,-26.101048,0.161658,-0.134113,0.000000,-0.689931,-0.602397,-0.000000
1.770000,-2.004945,0.447021,-1.706726,1.378181,0.920705,0.091408,1.085949,1.207307,2.127592,4.483695,-6.833903,4.911972,46.674025,-62.371575,-35.717516,0.154367,-0.140425,0.000000,-0.777026,-0.652950,-0.000000
1.780000,-1.991108,0.456287,-1.705704,1.389270,0.932429,0.112924,1.131944,1.136936,2.175108,4.580018,-7.115631,4.612804,-28.091434,6.662289,-23.978330,0.146251,-0.147187,0.000000,-0.829646,-0.667423,-0.000000
1.790000,-1.977158,0.465667,-1.704466,1.400813,0.943444,0.134902,1.176316,1.066138,2.220003,4.357256,-7.101291,4.350252,5.273834,-23.794106,-32.632061,0.137928,-0.153759,0.000000,-0.842704,-0.641211,-0.000000
1.800000,-1.963090,0.475153,-1.703005,1.412797,0.953745,0.157313,1.220690,0.993445,2.261733,4.501227,-7.421719,3.995253,1.879484,-20.361920,-34.261022,0.129201,-0.160330,0.000000,-0.900616,-0.659004,0.000000
1.810000,-1.948901,0.484739,-1.701318,1.425230,0.963304,0.180125,1.266033,0.917816,2.299919,4.571981,-7.712914,3.638036,1.258680,-20.255193,-36.205113,0.119932,-0.167008,0.000000,-0.954123,-0.666540,0.000000
1.820000,-1.934584,0.494417,-1.699401,1.438117,0.972095,0.203300,1.311215,0.840622,2.334509,4.425506,-7.664920,3.280238,-19.796947,12.717124,-36.284954,0.110310,-0.173636,0.000000,-0.962126,-0.645057,0.000000
1.830000,-1.920137,0.504179,-1.697251,1.451449,0.980118,0.226803,1.355032,0.763720,2.365418,4.401907,-7.818361,2.892797,15.456069,-43.958927,-41.223074,0.100588,-0.180045,0.000000,-0.995643,-0.637549,-0.000000
1.840000,-1.905554,0.514017,-1.694864,1.465222,0.987357,0.250594,1.399806,0.683365,2.392256,4.518725,-8.198147,2.474983,-2.864840,-14.732430,-41.380878,0.090282,-0.186517,0.000000,-1.058249,-0.646386,-0.000000
1.850000,-1.890831,0.523923,-1.692238,1.479444,0.993780,0.274634,1.444558,0.601118,2.414934,4.437489,-8.260030,2.057331,-2.545647,-14.882491,-43.084092,0.079610,-0.192912,0.000000,-1.077020,-0.628356,-0.000000
1.860000,-1.875963,0.533890,-1.689371,1.494114,0.999374,0.298878,1.489895,0.517341,2.433139,4.661263,-8.506688,1.575657,2.334485,-16.006299,-45.507822,0.068634,-0.199288,0.000000,-1.119367,-0.647033,-0.000000
1.870000,-1.860947,0.543908,-1.686260,1.509240,1.004122,0.323282,1.534292,0.432446,2.446996,4.070594,-8.410310,1.218626,-76.799493,17.406649,-33.375843,0.057434,-0.205439,0.000000,-1.111772,-0.561962,-0.000000
1.880000,-1.845777,0.553969,-1.682905,1.524780,1.008027,0.347806,1.573503,0.348270,2.457088,4.041855,-8.533723,0.751183,72.390378,-42.613288,-60.319580,0.046283,-0.210818,0.000000,-1.133150,-0.545943,0.000000
1.890000,-1.830450,0.564065,-1.679304,1.540730,1.011076,0.372404,1.617544,0.260822,2.461563,4.634184,-8.899694,0.164559,1.931184,-12.461911,-49.399683,0.034650,-0.216666,0.000000,-1.185209,-0.605829,-0.000000
1.900000,-1.814961,0.574188,-1.675457,1.557133,1.013238,0.397021,1.662840,0.171693,2.460917,4.453170,-8.935069,-0.300314,5.706329,-12.545897,-51.078230,0.022783,-0.222518,0.000000,-1.189072,-0.567495,0.000000
1.910000,-1.799306,0.584327,-1.671364,1.573981,1.014510,0.421607,1.705938,0.082895,2.455683,4.117239,-8.788653,-0.738272,-1.874809,-5.735893,-50.454754,0.010980,-0.227933,0.000000,-1.166383,-0.509127,0.000000
1.920000,-1.783480,0.594475,-1.667025,1.591256,1.014892,0.446117,1.750701,-0.007717,2.445041,5.067936,-9.486698,-1.437197,122.897460,-87.586707,-75.715964,-0.001019,-0.233376,0.000000,-1.252820,-0.607407,-0.000000
1.930000,-1.767479,0.604622,-1.662442,1.609028,1.014332,0.470484,1.803805,-0.104444,2.427604,5.124265,-9.568773,-1.966813,-113.866147,72.658065,-29.743821,-0.013742,-0.239643,0.000000,-1.253229,-0.593529,-0.000000
1.940000,-1.751298,0.614758,-1.657616,1.627302,1.012822,0.494657,1.849325,-0.196451,2.406447,4.185638,-8.968117,-2.305902,-4.227894,0.821977,-51.741540,-0.025738,-0.244780,0.000000,-1.163477,-0.458770,-0.000000
1.950000,-1.734932,0.624875,-1.652549,1.646009,1.010405,0.518597,1.892735,-0.287248,2.380448,4.447350,-9.155949,-2.884676,-12.905325,8.123446,-50.327265,-0.037449,-0.249451,0.000000,-1.173552,-0.468905,-0.000000
1.960000,-1.718376,0.634964,-1.647245,1.665157,1.007075,0.542248,1.936775,-0.378838,2.349000,4.361825,-9.169703,-3.406468,-15.838889,10.004998,-50.073667,-0.049107,-0.253981,0.000000,-1.158782,-0.436146,-0.000000
1.970000,-1.701627,0.645014,-1.641705,1.684739,1.002833,0.565560,1.978928,-0.468884,2.312649,4.023873,-8.764188,-3.849523,-40.404858,50.770028,-42.335472,-0.060395,-0.258065,0.000000,-1.089245,-0.374367,0.000000
1.980000,-1.684680,0.655017,-1.635935,1.704724,0.997712,0.588487,2.017690,-0.555014,2.271847,3.792113,-8.581149,-4.332964,-5.539498,-14.841927,-54.453749,-0.071004,-0.261533,0.000000,-1.047269,-0.325035,-0.000000
1.990000,-1.667531,0.664965,-1.629937,1.725089,0.991730,0.610979,2.055277,-0.641512,2.225811,3.685515,-8.651528,-4.861002,-27.128133,21.199597,-47.282113,-0.081460,-0.264639,0.000000,-1.035356,-0.289929,-0.000000
2.000000,-1.650177,0.674849,-1.623717,1.745821,0.984888,0.632987,2.090431,-0.726388,2.174954,3.348094,-8.332126,-5.311012,-28.887027,22.209455,-46.547353,-0.091505,-0.267245,0.000000,-0.974726,-0.229798,0.000000
2.010000,-1.632614,0.684660,-1.617279,1.766891,0.977210,0.654463,2.123535,-0.809013,2.119404,3.300951,-8.202572,-5.800986,-25.831095,22.172753,-46.064350,-0.101055,-0.269408,0.000000,-0.936239,-0.204243,0.000000
2.020000,-1.614838,0.694390,-1.610630,1.788280,0.968716,0.675360,2.152873,-0.888940,2.059389,2.415557,-7.719155,-6.182568,-107.157911,56.505489,-35.439174,-0.110062,-0.270938,0.000000,-0.858408,-0.083129,0.000000
2.030000,-1.596847,0.704032,-1.603774,1.809918,0.959448,0.695638,2.174015,-0.964245,1.995533,2.083279,-7.450372,-6.618677,42.125278,-3.338034,-51.923075,-0.118322,-0.271342,0.000000,-0.805504,-0.028535,-0.000000
2.040000,-1.578639,0.713577,-1.596719,1.831770,0.949432,0.715254,2.196944,-1.038894,1.926772,2.368138,-7.422854,-7.115218,-29.575983,26.965865,-42.103158,-0.126272,-0.271790,0.000000,-0.778309,-0.044984,-0.000000
2.050000,-1.560211,0.723018,-1.589471,1.853849,0.938678,0.734159,2.217990,-1.111285,1.853676,1.869372,-7.065273,-7.504830,-25.876279,26.465695,-41.029982,-0.133740,-0.271868,0.000000,-0.716488,0.025746,0.000000
2.060000,-1.541561,0.732348,-1.582038,1.876116,0.927218,0.752315,2.234553,-1.180129,1.776812,1.419933,-6.688729,-7.859447,-28.972464,29.297404,-38.487923,-0.140599,-0.271306,0.000000,-0.654092,0.087666,0.000000
2.070000,-1.522688,0.741560,-1.574428,1.898532,0.915084,0.769682,2.249133,-1.246554,1.695874,1.612096,-6.659122,-8.353369,33.370193,-4.405841,-51.901907,-0.146978,-0.270399,0.000000,-0.627991,0.079630,0.000000
2.080000,-1.503590,0.750648,-1.566647,1.921105,0.902287,0.786216,2.265105,-1.312335,1.610226,1.372776,-6.378573,-8.721285,-82.309770,61.105981,-21.396808,-0.153061,-0.269519,0.000000,-0.577007,0.116059,0.000000
2.090000,-1.484266,0.759604,-1.558706,1.943811,0.888856,0.801879,2.274721,-1.373051,1.521978,0.653939,-5.820862,-8.950186,-27.117654,31.276967,-32.813300,-0.158420,-0.267863,0.000000,-0.500839,0.199717,0.000000
2.100000,-1.464714,0.768423,-1.550613,1.966589,0.874838,0.816645,2.280795,-1.430178,1.430654,0.538808,-5.590652,-9.305495,-30.137294,33.839613,-29.813352,-0.163222,-0.265754,0.000000,-0.458382,0.218615,0.000000
2.110000,-1.444934,0.777099,-1.542376,1.989419,0.860262,0.830481,2.284879,-1.484509,1.336069,0.282774,-5.277527,-9.609645,-29.914035,34.438002,-27.657457,-0.167559,-0.263373,0.000000,-0.409375,0.250385,0.000000
2.120000,-1.424925,0.785626,-1.534006,2.012276,0.845159,0.843357,2.285740,-1.535249,1.238806,-0.140651,-4.850142,-9.827663,-46.155958,45.509589,-19.189926,-0.171371,-0.260612,0.000000,-0.351667,0.296382,-0.000000
2.130000,-1.404688,0.794000,-1.525513,2.035120,0.829571,0.855250,2.282478,-1.581755,1.139438,-0.459470,-4.483419,-10.061576,-17.321014,27.638451,-27.688950,-0.174621,-0.257405,0.000000,-0.301513,0.330139,0.000000
2.140000,-1.384223,0.802216,-1.516905,2.057919,0.813534,0.866137,2.277010,-1.625194,1.037481,-0.660640,-4.186481,-10.315586,-31.574707,37.282949,-19.827297,-0.177432,-0.253958,0.000000,-0.259316,0.350910,0.000000
2.150000,-1.363530,0.810270,-1.508193,2.080650,0.797079,0.875993,2.268596,-1.665040,0.933463,-1.016908,-3.785463,-10.485924,-31.009047,37.354412,-17.509104,-0.179774,-0.250216,0.000000,-0.209721,0.384636,-0.000000
2.160000,-1.342610,0.818156,-1.499388,2.103280,0.780246,0.884801,2.256890,-1.701039,0.827779,-1.323936,-3.414348,-10.646406,-30.847086,37.553118,-14.930011,-0.181645,-0.246166,0.000000,-0.164734,0.411882,0.000000
2.170000,-1.321465,0.825873,-1.490501,2.125777,0.763071,0.892544,2.242087,-1.733266,0.720593,-1.637831,-3.028368,-10.787676,-31.464566,38.930393,-12.989744,-0.183068,-0.241842,0.000000,-0.119994,0.438373,-0.000000
2.180000,-1.300095,0.833417,-1.481541,2.148111,0.745594,0.899208,2.224164,-1.761639,0.612127,-1.943434,-2.650675,-10.899200,-29.627252,36.562235,-9.306327,-0.184054,-0.237258,0.000000,-0.077985,0.462387,-0.000000
2.190000,-1.278503,0.840784,-1.472520,2.170251,0.727851,0.904783,2.203254,-1.786320,0.502712,-2.239236,-2.283697,-10.980615,-29.975512,37.503358,-7.317400,-0.184638,-0.232445,0.000000,-0.038835,0.483919,0.000000
2.200000,-1.256691,0.847973,-1.463449,2.192166,0.709880,0.909260,2.179359,-1.807269,0.392573,-2.538786,-1.906994,-11.042772,-29.465956,37.120479,-4.782553,-0.184832,-0.227414,0.000000,-0.000255,0.504699,-0.000000
2.210000,-1.234661,0.854981,-1.454339,2.213828,0.691718,0.912633,2.152507,-1.824526,0.281938,-2.830590,-1.546337,-11.080343,-28.902834,36.473036,-2.348401,-0.184655,-0.222183,0.000000,0.035206,0.523559,-0.000000
2.220000,-1.212416,0.861807,-1.445200,2.235207,0.673401,0.914898,2.122765,-1.838099,0.171078,-3.116780,-1.164328,-11.086302,-28.302112,38.464754,0.769739,-0.184123,-0.216768,0.000000,0.071204,0.540681,-0.000000
2.230000,-1.189958,0.868449,-1.436044,2.256274,0.654968,0.916055,2.090195,-1.847908,0.060273,-3.395951,-0.807744,-11.073074,-27.519309,32.785875,1.854489,-0.183244,-0.211188,0.000000,0.103439,0.556319,-0.000000
2.240000,-1.167291,0.874906,-1.426883,2.277002,0.636454,0.916104,2.054873,-1.854361,-0.050326,-3.667345,-0.479862,-11.041764,-26.768635,34.225859,4.778332,-0.182069,-0.205457,0.000000,0.131800,0.570515,0.000000
2.250000,-1.144419,0.881178,-1.417726,2.297363,0.617892,0.915050,2.016874,-1.857427,-0.160457,-3.930920,-0.135968,-10.980982,-25.914363,33.084003,6.984368,-0.180605,-0.199592,0.000000,0.160488,0.583146,-0.000000
2.260000,-1.121345,0.887264,-1.408585,2.317331,0.599317,0.912898,1.976296,-1.857138,-0.269900,-4.182803,0.192226,-10.904458,-24.942163,31.989566,9.054036,-0.178867,-0.193607,0.000000,0.186792,0.594220,0.000000
2.270000,-1.098074,0.893164,-1.399472,2.336880,0.580760,0.909655,1.933212,-1.853665,-0.378418,-4.434075,0.498448,-10.793306,-24.826853,29.770765,12.437184,-0.176881,-0.187517,0.000000,0.209892,0.604527,-0.000000
2.280000,-1.074609,0.898879,-1.390396,2.355987,0.562254,0.905333,1.887672,-1.847185,-0.485735,-4.669165,0.798497,-10.671227,-22.167445,30.240425,11.940938,-0.174673,-0.181331,0.000000,0.231828,0.613133,-0.000000
2.290000,-1.050956,0.904410,-1.381369,2.374626,0.543827,0.899944,1.839890,-1.837712,-0.591818,-4.886887,1.092201,-10.540132,-21.849729,27.948948,14.993915,-0.172248,-0.175071,0.000000,0.252667,0.620041,-0.000000
2.300000,-1.027118,0.909756,-1.372401,2.392777,0.525509,0.893502,1.789935,-1.825431,-0.696421,-5.101934,1.361761,-10.377885,-20.673816,26.484621,16.709567,-0.169631,-0.168746,0.000000,0.270476,0.626319,-0.000000
2.310000,-1.003102,0.914920,-1.363502,2.410418,0.507327,0.886022,1.737899,-1.810526,-0.799353,-5.303375,1.616388,-10.206171,-19.502417,24.859979,18.296615,-0.166844,-0.162366,0.000000,0.286570,0.631389,0.000000
2.320000,-0.978912,0.919903,-1.354684,2.427529,0.489306,0.877521,1.683916,-1.793124,-0.900438,-5.490897,1.862693,-10.006034,-18.100090,23.970852,21.053891,-0.163903,-0.155945,0.000000,0.301334,0.635014,-0.000000
2.330000,-0.954553,0.924707,-1.345955,2.444090,0.471472,0.868020,1.628117,-1.773349,-0.999456,-5.667448,2.086796,-9.799294,-17.209036,20.826453,20.256272,-0.160824,-0.149496,0.000000,0.313914,0.637850,0.000000
2.340000,-0.930032,0.929333,-1.337326,2.460085,0.453846,0.857539,1.570603,-1.751469,-1.096413,-5.832920,2.287506,-9.587903,-15.778177,19.729620,22.670862,-0.157632,-0.143024,0.000000,0.324307,0.639942,-0.000000
2.350000,-0.905353,0.933785,-1.328807,2.475497,0.436449,0.846099,1.511509,-1.727627,-1.191120,-5.983836,2.477632,-9.351875,-14.506132,17.866576,23.852221,-0.154342,-0.136541,0.000000,0.333443,0.640777,0.000000
2.360000,-0.880524,0.938063,-1.320408,2.490310,0.419300,0.833724,1.450960,-1.702001,-1.283441,-6.123817,2.643995,-9.110758,-13.242027,15.930763,24.910210,-0.150971,-0.130056,0.000000,0.340485,0.640974,0.000000
2.370000,-0.855549,0.942172,-1.312136,2.504512,0.402415,0.820438,1.389095,-1.674769,-1.373257,-6.246381,2.801026,-8.848896,-11.508638,14.955930,26.905668,-0.147535,-0.123579,0.000000,0.346554,0.639825,-0.000000
2.380000,-0.830436,0.946112,-1.304002,2.518088,0.385809,0.806268,1.326064,-1.646071,-1.460414,-6.358993,2.932230,-8.584311,-11.020740,11.266181,25.977822,-0.144047,-0.117120,0.000000,0.350489,0.638230,-0.000000
2.390000,-0.805190,0.949889,-1.296013,2.531029,0.369497,0.791239,1.261945,-1.616217,-1.544944,-6.461956,3.036730,-8.318751,-9.330716,10.152736,27.662813,-0.140533,-0.110682,0.000000,0.352287,0.636236,0.000000
2.400000,-0.779817,0.953503,-1.288180,2.543324,0.353488,0.775378,1.196887,-1.585362,-1.626722,-6.547665,3.130868,-8.036002,-8.052209,8.157416,28.327943,-0.137004,-0.104273,0.000000,0.353207,0.633060,0.000000
2.410000,-0.754325,0.956959,-1.280509,2.554964,0.337793,0.758714,1.131028,-1.553658,-1.705665,-6.621905,3.207122,-7.751914,-6.768039,6.292858,28.888877,-0.133473,-0.097902,0.000000,0.352818,0.629376,-0.000000
2.420000,-0.728720,0.960260,-1.273008,2.565943,0.322417,0.741275,1.064494,-1.521346,-1.781709,-6.682799,3.249385,-7.454705,-5.440068,2.942868,30.135895,-0.129958,-0.091575,0.000000,0.349659,0.624944,-0.000000
2.430000,-0.703009,0.963409,-1.265686,2.576253,0.307367,0.723090,0.997413,-1.488695,-1.854764,-6.731328,3.282430,-7.157931,-4.269202,3.695039,29.192528,-0.126480,-0.085299,0.000000,0.346014,0.619974,0.000000
2.440000,-0.677197,0.966409,-1.258549,2.585889,0.292645,0.704189,0.929907,-1.455718,-1.924877,-6.767682,3.307609,-6.862982,-2.976731,0.558807,30.190336,-0.123038,-0.079078,0.000000,0.342005,0.614491,-0.000000
2.450000,-0.651293,0.969263,-1.251604,2.594850,0.278253,0.684602,0.862103,-1.422665,-1.991982,-6.791166,3.300412,-6.557828,-1.751562,-1.207261,30.423003,-0.119650,-0.072918,0.000000,0.335479,0.608365,0.000000
2.460000,-0.625303,0.971975,-1.244859,2.603131,0.264191,0.664360,0.794118,-1.389745,-2.056040,-6.804081,3.280782,-6.253550,-0.576770,-2.955865,30.591062,-0.116331,-0.066824,0.000000,0.328232,0.601868,0.000000
2.470000,-0.599233,0.974548,-1.238319,2.610732,0.250457,0.643492,0.726081,-1.357127,-2.117035,-6.800408,3.239197,-5.944665,1.055810,-5.116020,31.010431,-0.113091,-0.060802,0.000000,0.319434,0.594471,0.000000
2.480000,-0.573090,0.976985,-1.231991,2.617653,0.237047,0.622029,0.658136,-1.325006,-2.174939,-6.788332,3.183610,-5.637008,1.346551,-5.985181,30.505903,-0.109944,-0.054858,0.000000,0.309801,0.586888,0.000000
2.490000,-0.546882,0.979290,-1.225880,2.623895,0.223955,0.600003,0.590338,-1.293496,-2.229783,-6.768499,3.114879,-5.331397,2.868308,-7.990797,30.773823,-0.106897,-0.048993,0.000000,0.299410,0.579165,-0.000000
2.500000,-0.520615,0.981465,-1.219993,2.629461,0.211174,0.577444,0.522822,-1.262780,-2.281555,-6.733230,3.026026,-5.023114,3.927429,-9.530636,30.708810,-0.103961,-0.043212,0.000000,0.287650,0.570646,0.000000
2.510000,-0.494295,0.983514,-1.214333,2.634353,0.198696,0.554382,0.455699,-1.233016,-2.330252,-6.689718,2.924372,-4.716571,4.948364,-10.998270,30.607370,-0.101146,-0.037519,0.000000,0.275157,0.561937,-0.000000
2.520000,-0.467930,0.985440,-1.208907,2.638576,0.186510,0.530849,0.389075,-1.204357,-2.375889,-6.632733,2.804364,-4.410965,6.268521,-12.788756,30.493279,-0.098462,-0.031918,0.000000,0.261469,0.552598,-0.000000
2.530000,-0.441526,0.987245,-1.203718,2.642136,0.174604,0.506875,0.323068,-1.176965,-2.418478,-6.568124,2.673098,-4.107118,6.641451,-13.445839,30.270341,-0.095919,-0.026413,0.000000,0.247160,0.543102,0.000000
2.540000,-0.415089,0.988933,-1.198770,2.645040,0.162966,0.482489,0.257735,-1.150928,-2.458039,-6.496514,2.531594,-3.805369,7.849768,-15.046804,30.089452,-0.093521,-0.021006,0.000000,0.232306,0.533486,0.000000
2.550000,-0.388627,0.990506,-1.194069,2.647294,0.151581,0.457724,0.193182,-1.126389,-2.494591,-6.412752,2.374164,-3.505535,8.720673,-16.221331,29.859978,-0.091277,-0.015699,0.000000,0.216434,0.523323,0.000000
2.560000,-0.362145,0.991965,-1.189617,2.648906,0.140433,0.432608,0.129500,-1.103471,-2.528153,-6.322238,2.207970,-3.207085,9.543419,-17.294203,29.634133,-0.089193,-0.010496,0.000000,0.200107,0.513038,0.000000
2.570000,-0.335651,0.993315,-1.185418,2.649887,0.129506,0.407171,0.066777,-1.082288,-2.558756,-6.220475,2.025890,-2.914676,10.639278,-18.825368,29.033069,-0.087278,-0.005399,0.000000,0.182770,0.502257,-0.000000
2.580000,-0.309150,0.994556,-1.181475,2.650245,0.118781,0.381442,0.005108,-1.062971,-2.586446,-6.113017,1.837673,-2.622522,10.840164,-18.794566,29.402192,-0.085539,-0.000412,0.000000,0.165151,0.491410,-0.000000
2.590000,-0.282648,0.995691,-1.177790,2.649993,0.108240,0.355451,-0.055468,-1.045549,-2.611206,-6.000511,1.644594,-2.330440,11.818615,-20.090816,28.824551,-0.083976,0.004466,0.000000,0.147331,0.480539,-0.000000
2.600000,-0.256152,0.996722,-1.174366,2.649140,0.097863,0.329228,-0.114866,-1.030127,-2.633078,-5.878185,1.438577,-2.044429,12.475521,-20.813178,28.566436,-0.082595,0.009231,0.000000,0.128687,0.469244,0.000000
2.610000,-0.229667,0.997649,-1.171206,2.647700,0.087631,0.302799,-0.173017,-1.016789,-2.652090,-5.750940,1.228131,-1.758044,13.087107,-21.440478,28.339989,-0.081402,0.013883,0.000000,0.109838,0.457906,-0.000000
2.620000,-0.203200,0.998475,-1.168311,2.645684,0.077520,0.276195,-0.229855,-1.005599,-2.668277,-5.615472,1.008427,-1.481026,13.882346,-22.309763,27.424941,-0.080401,0.018418,0.000000,0.090441,0.446235,0.000000
2.630000,-0.176755,0.999200,-1.165683,2.643107,0.067511,0.249443,-0.285313,-0.996629,-2.681701,-5.475895,0.785922,-1.201955,14.022283,-22.169733,28.402089,-0.079594,0.022836,0.000000,0.070917,0.434557,-0.000000
2.640000,-0.150340,0.999825,-1.163323,2.639982,0.057580,0.222571,-0.339363,-0.989884,-2.692304,-5.332793,0.561823,-0.920237,14.709537,-22.810146,27.579864,-0.078982,0.027137,0.000000,0.051336,0.422912,-0.000000
2.650000,-0.123958,1.000352,-1.161232,2.636325,0.047706,0.195606,-0.391944,-0.985416,-2.700141,-5.182848,0.331543,-0.647227,15.154736,-23.053498,27.386745,-0.078569,0.031320,0.000000,0.031385,0.410994,-0.000000
2.660000,-0.097615,1.000779,-1.159411,2.632149,0.037864,0.168577,-0.443008,-0.983251,-2.705237,-5.029329,0.101267,-0.372130,15.563902,-23.186862,27.230114,-0.078354,0.035383,0.000000,0.011463,0.399074,-0.000000
2.670000,-0.071316,1.001109,-1.157860,2.627470,0.028033,0.141511,-0.492516,-0.983410,-2.707621,-4.871511,-0.133719,-0.106291,15.972278,-23.598001,26.332488,-0.078341,0.039326,0.000000,-0.008755,0.387046,-0.000000
2.680000,-0.045067,1.001340,-1.156580,2.622304,0.018188,0.114433,-0.540428,-0.985916,-2.707349,-4.710450,-0.366252,0.162807,16.232736,-22.885919,27.502135,-0.078529,0.043148,0.000000,-0.028799,0.375015,-0.000000
2.690000,-0.018872,1.001472,-1.155571,2.616667,0.008307,0.087373,-0.586716,-0.990721,-2.704349,-4.546573,-0.595064,0.435869,16.556867,-23.057552,26.716929,-0.078916,0.046849,0.000000,-0.048599,0.363008,-0.000000
2.700000,0.007265,1.001506,-1.154833,2.610575,-0.001634,0.060355,-0.631349,-0.997826,-2.698667,-4.379621,-0.825390,0.700560,16.806334,-22.794324,26.618856,-0.079501,0.050430,0.000000,-0.068513,0.350945,0.000000
2.710000,0.033338,1.001440,-1.154364,2.604045,-0.011657,0.033408,-0.674300,-1.007206,-2.690323,-4.210324,-1.049745,0.968211,17.021006,-22.406167,26.551268,-0.080284,0.053890,0.000000,-0.088042,0.338911,0.000000
2.720000,0.059344,1.001272,-1.154164,2.597094,-0.021785,0.006558,-0.715551,-1.018834,-2.679334,-4.039564,-1.276370,1.228298,17.149332,-22.566887,25.820087,-0.081263,0.057230,0.000000,-0.107794,0.326917,-0.000000
2.730000,0.085279,1.001003,-1.154233,2.589740,-0.032041,-0.020170,-0.755085,-1.032700,-2.665743,-3.866946,-1.493712,1.492041,17.368780,-20.874970,26.941553,-0.082438,0.060451,0.000000,-0.126945,0.314965,0.000000
2.740000,0.111138,1.000631,-1.154567,2.581999,-0.042446,-0.046748,-0.792885,-1.048670,-2.649476,-3.692816,-1.700345,1.760050,17.425775,-20.774995,26.306818,-0.083800,0.063551,0.000000,-0.145408,0.303077,0.000000
2.750000,0.136918,1.000154,-1.155167,2.573888,-0.053021,-0.073151,-0.828941,-1.066709,-2.630571,-3.518345,-1.906024,2.021221,17.487303,-20.007449,26.283138,-0.085347,0.066534,0.000000,-0.163905,0.291276,0.000000
2.760000,0.162614,0.999570,-1.156030,2.565426,-0.063787,-0.099351,-0.863250,-1.086752,-2.609038,-3.343393,-2.100975,2.285494,17.508435,-19.150385,26.276683,-0.087076,0.069399,0.000000,-0.181744,0.279588,0.000000
2.770000,0.188225,0.998877,-1.157153,2.556629,-0.074763,-0.125323,-0.895808,-1.108713,-2.584885,-3.168193,-2.290417,2.544048,17.514137,-18.546434,25.721522,-0.088981,0.072147,0.000000,-0.199297,0.267969,-0.000000
2.780000,0.213746,0.998074,-1.158535,2.547515,-0.085968,-0.151040,-0.926615,-1.132519,-2.558143,-2.993471,-2.467897,2.805950,17.423780,-16.929953,26.667677,-0.091059,0.074780,0.000000,-0.216131,0.256515,-0.000000
2.790000,0.239174,0.997157,-1.160173,2.538102,-0.097419,-0.176477,-0.955680,-1.158026,-2.528751,-2.819610,-2.632324,3.071591,17.353688,-16.120652,26.170279,-0.093301,0.077299,0.000000,-0.232177,0.245249,0.000000
2.800000,0.264507,0.996125,-1.162064,2.528407,-0.109133,-0.201606,-0.983010,-1.185141,-2.496735,-2.646616,-2.788524,3.331798,17.227985,-14.927825,26.158355,-0.095701,0.079707,0.000000,-0.247768,0.234102,0.000000
2.810000,0.289741,0.994974,-1.164204,2.518448,-0.121127,-0.226403,-1.008618,-1.213747,-2.462105,-2.475296,-2.930439,3.594221,17.063492,-13.646538,26.139062,-0.098253,0.082004,0.000000,-0.262488,0.223176,0.000000
2.820000,0.314875,0.993701,-1.166591,2.508241,-0.133413,-0.250840,-1.032520,-1.243723,-2.424866,-2.305156,-3.063085,3.852830,16.926218,-12.672775,25.759927,-0.100950,0.084192,0.000000,-0.276704,0.212377,0.000000
2.830000,0.339906,0.992304,-1.169220,2.497803,-0.146005,-0.274891,-1.054730,-1.274953,-2.385041,-2.137570,-3.179507,4.113137,16.584177,-10.594041,26.303666,-0.103784,0.086274,0.000000,-0.289909,0.201843,-0.000000
2.840000,0.364830,0.990780,-1.172087,2.487152,-0.158916,-0.298532,-1.075281,-1.307254,-2.342596,-1.972930,-3.278747,4.375194,16.370979,-9.443132,25.922380,-0.106744,0.088252,0.000000,-0.302030,0.191596,0.000000
2.850000,0.389648,0.989125,-1.175189,2.476303,-0.172154,-0.321735,-1.094196,-1.340493,-2.297555,-1.810543,-3.366462,4.633036,16.068254,-7.890870,25.822490,-0.109822,0.090128,0.000000,-0.313481,0.181528,-0.000000
2.860000,0.414356,0.987336,-1.178520,2.465273,-0.185728,-0.344474,-1.111504,-1.374519,-2.249935,-1.651604,-3.435740,4.890658,15.732361,-6.259541,25.682233,-0.113009,0.091905,0.000000,-0.323733,0.171754,0.000000
2.870000,0.438953,0.985409,-1.182077,2.454078,-0.199646,-0.366725,-1.127238,-1.409177,-2.199748,-1.495836,-3.494272,5.146433,15.398101,-5.143413,25.480519,-0.116296,0.093586,0.000000,-0.333400,0.162231,0.000000
2.880000,0.463437,0.983342,-1.185853,2.442733,-0.213913,-0.388461,-1.141434,-1.444333,-2.147012,-1.344123,-3.532254,5.400427,14.938603,-2.436083,25.311715,-0.119673,0.095173,0.000000,-0.341676,0.153022,-0.000000
2.890000,0.487807,0.981130,-1.189844,2.431254,-0.228534,-0.409657,-1.154135,-1.479749,-2.091747,-1.196808,-3.548820,5.652244,14.537126,-1.168271,25.030089,-0.123124,0.096670,0.000000,-0.348475,0.144145,-0.000000
2.900000,0.512062,0.978770,-1.194044,2.419656,-0.243509,-0.430287,-1.165384,-1.515274,-2.033978,-1.053636,-3.552966,5.900987,14.074349,0.641744,24.724164,-0.126640,0.098079,0.000000,-0.354515,0.135565,-0.000000
2.910000,0.536200,0.976259,-1.198448,2.407951,-0.258839,-0.450328,-1.175226,-1.550735,-1.973742,-0.915739,-3.536032,6.145567,13.574203,2.492578,24.347096,-0.130209,0.099404,0.000000,-0.359055,0.127361,-0.000000
2.920000,0.560220,0.973592,-1.203049,2.396156,-0.274523,-0.469754,-1.183710,-1.585953,-1.911067,-0.781573,-3.505397,6.389255,13.182653,3.887528,24.221496,-0.133819,0.100649,0.000000,-0.362727,0.119425,-0.000000
2.930000,0.584123,0.970767,-1.207841,2.384282,-0.290557,-0.488541,-1.190879,-1.620768,-1.845979,-0.653681,-3.452981,6.626450,12.388915,6.606074,23.202392,-0.137458,0.101816,0.000000,-0.364771,0.111919,-0.000000
2.940000,0.607906,0.967780,-1.212817,2.372342,-0.306936,-0.506666,-1.196806,-1.654936,-1.778563,-0.532440,-3.378285,6.856319,11.926989,8.082474,22.921564,-0.141108,0.102910,0.000000,-0.365100,0.104865,-0.000000
2.950000,0.631569,0.964627,-1.217972,2.360349,-0.323653,-0.524105,-1.201542,-1.688290,-1.708860,-0.415843,-3.289176,7.083297,11.316380,9.990713,22.301774,-0.144757,0.103935,0.000000,-0.364397,0.098129,0.000000
2.960000,0.655113,0.961306,-1.223297,2.348315,-0.340698,-0.540836,-1.205148,-1.720642,-1.636932,-0.306573,-3.177712,7.300754,10.670164,11.922339,21.578517,-0.148390,0.104895,0.000000,-0.361872,0.091879,0.000000
2.970000,0.678536,0.957812,-1.228786,2.336250,-0.358061,-0.556836,-1.207684,-1.751811,-1.562837,-0.201260,-3.054250,7.518315,10.255977,13.135085,21.533022,-0.151992,0.105794,0.000000,-0.358490,0.085914,-0.000000
2.980000,0.701838,0.954143,-1.234431,2.324165,-0.375730,-0.572085,-1.209203,-1.781646,-1.486612,-0.104312,-2.907359,7.723011,9.126060,16.250652,19.381851,-0.155552,0.106635,0.000000,-0.353064,0.080496,-0.000000
2.990000,0.725019,0.950296,-1.240225,2.312069,-0.393689,-0.586562,-1.209801,-1.809876,-1.408427,-0.016123,-2.736764,7.913567,8.642350,17.491881,19.109246,-0.159046,0.107425,0.000000,-0.345480,0.075651,-0.000000
3.000000,0.748079,0.946269,-1.246160,2.299972,-0.411922,-0.600247,-1.209538,-1.836349,-1.328342,0.067336,-2.554492,8.101614,7.913131,19.325278,18.096139,-0.162459,0.108168,0.000000,-0.336886,0.071141,0.000000
3.010000,0.771018,0.942057,-1.252227,2.287881,-0.430410,-0.613123,-1.208505,-1.860918,-1.246448,0.137568,-2.356980,8.275063,7.072534,20.998119,16.987007,-0.165779,0.108871,0.000000,-0.326739,0.067606,-0.000000
3.020000,0.793837,0.937660,-1.258420,2.275804,-0.449133,-0.625171,-1.206739,-1.883366,-1.162846,0.217413,-2.127073,8.444836,7.981810,24.170093,16.561052,-0.168983,0.109535,0.000000,-0.313659,0.063137,-0.000000
3.030000,0.816534,0.933074,-1.264728,2.263749,-0.468069,-0.636374,-1.204227,-1.903444,-1.077611,0.278008,-1.890655,8.597764,4.108418,23.078667,13.999877,-0.172049,0.110158,0.000000,-0.299600,0.060160,0.000000
3.040000,0.839112,0.928298,-1.271144,2.251721,-0.487194,-0.646718,-1.201254,-1.921169,-0.990954,0.318070,-1.649427,8.732553,4.827168,25.968645,13.343039,-0.174973,0.110762,0.000000,-0.284632,0.058820,0.000000
3.050000,0.861569,0.923329,-1.277659,2.239725,-0.506484,-0.656189,-1.197821,-1.936319,-0.902974,0.366749,-1.378396,8.861005,3.991537,27.417170,11.938715,-0.177731,0.111348,0.000000,-0.266683,0.056622,0.000000
3.060000,0.883906,0.918168,-1.284265,2.227766,-0.525911,-0.664774,-1.193926,-1.948682,-0.813803,0.412152,-1.091250,8.970319,3.415278,28.963105,10.430414,-0.180299,0.111913,0.000000,-0.246654,0.054498,-0.000000
3.070000,0.906124,0.912811,-1.290952,2.215848,-0.545448,-0.672461,-1.189733,-1.958178,-0.723577,0.419684,-0.808929,9.074149,-0.279656,28.493389,9.821610,-0.182665,0.112470,0.000000,-0.226527,0.055788,-0.000000
3.080000,0.928223,0.907258,-1.297711,2.203971,-0.565065,-0.679242,-1.185475,-1.964767,-0.632397,0.440764,-0.500547,9.155979,4.548777,33.199478,6.517962,-0.184818,0.113041,0.000000,-0.203244,0.055637,0.000000
3.090000,0.950204,0.901509,-1.304534,2.192139,-0.584732,-0.685107,-1.180852,-1.968092,-0.540539,0.477794,-0.165612,9.214468,1.216984,32.755014,5.677305,-0.186718,0.113595,0.000000,-0.176598,0.053740,-0.000000
3.100000,0.972066,0.895564,-1.311410,2.180355,-0.604416,-0.690051,-1.176067,-1.968118,-0.448126,0.479084,0.162824,9.265022,0.679542,33.926073,3.917871,-0.188351,0.114149,0.000000,-0.149722,0.055116,0.000000
3.110000,0.993811,0.889421,-1.318332,2.168618,-0.624083,-0.694068,-1.171259,-1.964798,-0.355324,0.481239,0.502345,9.291865,0.015430,34.821031,2.067397,-0.189705,0.114715,0.000000,-0.120706,0.056193,0.000000
3.120000,1.015439,0.883082,-1.325289,2.156930,-0.643700,-0.697157,-1.166443,-1.957973,-0.262300,0.481829,0.866772,9.311961,-0.151862,37.206200,1.337720,-0.190754,0.115293,0.000000,-0.088436,0.057384,-0.000000
3.130000,1.036950,0.876547,-1.332272,2.145289,-0.663231,-0.699314,-1.161656,-1.947478,-0.169177,0.472859,1.228461,9.305745,-1.649332,35.083433,-2.606246,-0.191470,0.115886,0.000000,-0.055056,0.059247,-0.000000
3.140000,1.058345,0.869818,-1.339272,2.133696,-0.682638,-0.700541,-1.157021,-1.933428,-0.076282,0.454015,1.584930,9.271991,-1.861589,37.032801,-3.537309,-0.191852,0.116503,0.000000,-0.020729,0.061819,-0.000000
3.150000,1.079624,0.862895,-1.346279,2.122148,-0.701887,-0.700841,-1.152577,-1.915697,0.016245,0.433449,1.961475,9.229706,-2.507841,37.410107,-5.534087,-0.191873,0.117146,0.000000,0.016703,0.064533,-0.000000
3.160000,1.100788,0.855781,-1.353286,2.110644,-0.720940,-0.700218,-1.148420,-1.894243,0.108225,0.395843,2.328894,9.162710,-3.320671,37.534056,-7.548059,-0.191517,0.117824,0.000000,0.054810,0.068733,0.000000
3.170000,1.121837,0.848477,-1.360281,2.099179,-0.739759,-0.698679,-1.144550,-1.868997,0.199458,0.382640,2.725331,9.081632,-0.960013,40.290188,-8.977850,-0.190761,0.118535,0.000000,0.097133,0.070407,0.000000
3.180000,1.142772,0.840987,-1.367256,2.087752,-0.758306,-0.696232,-1.140870,-1.839806,0.289775,0.342218,3.104004,8.976652,-7.172404,35.376085,-12.027801,-0.189575,0.119268,0.000000,0.139417,0.074596,-0.000000
3.190000,1.163592,0.833312,-1.374202,2.076359,-0.776543,-0.692887,-1.137816,-1.806999,0.378907,0.272495,3.461515,8.847345,-5.109529,37.556777,-13.519883,-0.187975,0.120065,0.000000,0.181290,0.081612,-0.000000
3.200000,1.184299,0.825457,-1.381111,2.064994,-0.794434,-0.688658,-1.135313,-1.770472,0.466680,0.226059,3.842349,8.703650,-5.824023,37.138735,-15.527282,-0.185934,0.120918,0.000000,0.226982,0.086190,0.000000
3.210000,1.204892,0.817425,-1.387973,2.053651,-0.811940,-0.683559,-1.133321,-1.730187,0.552906,0.172339,4.214306,8.538287,-6.244254,36.736072,-17.497216,-0.183433,0.121821,0.000000,0.273463,0.091353,-0.000000
3.220000,1.225372,0.809219,-1.394779,2.042325,-0.829025,-0.677606,-1.131988,-1.686242,0.637384,0.089075,4.572084,8.354211,-9.108862,35.277791,-19.354355,-0.180465,0.122789,0.000000,0.320145,0.099505,-0.000000
3.230000,1.245739,0.800846,-1.401522,2.031009,-0.845653,-0.670818,-1.131491,-1.638743,0.719924,0.017447,4.929507,8.150445,-5.168374,36.200238,-21.392807,-0.177025,0.123838,0.000000,0.368354,0.106328,-0.000000
3.240000,1.265992,0.792308,-1.408193,2.019694,-0.861788,-0.663215,-1.131582,-1.587652,0.800328,-0.040268,5.285942,7.927374,-7.670740,34.580418,-23.169964,-0.173093,0.124942,0.000000,0.417991,0.111501,0.000000
3.250000,1.286133,0.783612,-1.414784,2.008374,-0.877395,-0.654819,-1.132409,-1.533091,0.878414,-0.124728,5.624796,7.686880,-7.912600,33.651710,-24.961613,-0.168667,0.126114,0.000000,0.467275,0.119416,-0.000000
3.260000,1.306160,0.774762,-1.421287,1.997043,-0.892439,-0.645655,-1.134051,-1.475206,0.954012,-0.204103,5.949582,7.429864,-8.164962,32.434988,-26.659180,-0.163749,0.127362,0.000000,0.516372,0.126658,-0.000000
3.270000,1.326073,0.765765,-1.427694,1.985691,-0.906888,-0.635747,-1.136515,-1.414049,1.026938,-0.289801,6.283663,7.151833,-8.762023,33.244068,-28.711392,-0.158330,0.128683,0.000000,0.567838,0.134381,-0.000000
3.280000,1.345873,0.756626,-1.433999,1.974310,-0.920709,-0.625125,-1.139844,-1.349632,1.097006,-0.374889,6.590618,6.860581,-8.240910,28.092312,-29.517931,-0.152399,0.130082,0.000000,0.617406,0.141913,-0.000000
3.290000,1.365559,0.747353,-1.440194,1.962891,-0.933871,-0.613817,-1.144007,-1.282345,1.164111,-0.458589,6.867716,6.557271,-8.697255,28.435940,-31.353018,-0.145991,0.131554,0.000000,0.664519,0.149152,-0.000000
3.300000,1.385131,0.737951,-1.446273,1.951427,-0.946346,-0.601854,-1.149035,-1.212242,1.228087,-0.546919,7.149405,6.235753,-8.754659,26.760517,-32.710238,-0.139102,0.133099,0.000000,0.712969,0.156652,-0.000000
3.310000,1.404588,0.728428,-1.452229,1.939907,-0.958107,-0.589266,-1.154938,-1.139449,1.288800,-0.633601,7.406155,5.905092,-8.756008,25.007771,-33.920820,-0.131740,0.134716,0.000000,0.759083,0.163814,-0.000000
3.320000,1.423929,0.718792,-1.458057,1.928325,-0.969127,-0.576089,-1.161721,-1.064144,1.346108,-0.723556,7.653250,5.552947,-9.050201,23.974772,-35.988173,-0.123921,0.136404,0.000000,0.804567,0.170971,-0.000000
3.330000,1.443154,0.709048,-1.463749,1.916670,-0.979382,-0.562356,-1.169398,-0.986466,1.399847,-0.810730,7.876513,5.196238,-8.371204,20.651340,-35.318387,-0.115659,0.138160,0.000000,0.847297,0.177656,-0.000000
3.340000,1.462262,0.699207,-1.469302,1.904934,-0.988849,-0.548104,-1.177922,-0.906701,1.450028,-0.894406,8.074552,4.836834,-8.535024,19.370123,-37.048305,-0.106987,0.139979,0.000000,0.886843,0.183781,0.000000
3.350000,1.481252,0.689274,-1.474710,1.893109,-0.997509,-0.533368,-1.187295,-0.825010,1.496517,-0.979762,8.260074,4.459983,-8.350463,17.299210,-37.796045,-0.097927,0.141856,0.000000,0.924642,0.189669,0.000000
3.360000,1.500124,0.679259,-1.479968,1.881185,-1.005344,-0.518186,-1.197512,-0.741580,1.539229,-1.063497,8.422287,4.081853,-8.158189,15.189925,-38.384244,-0.088506,0.143789,0.000000,0.958982,0.195168,-0.000000
3.370000,1.518876,0.669170,-1.485072,1.869156,-1.012336,-0.502596,-1.208539,-0.656631,1.578090,-1.140654,8.564218,3.687437,-7.489889,13.134392,-39.918404,-0.078757,0.145770,0.000000,0.990133,0.199397,0.000000
3.380000,1.537507,0.659015,-1.490019,1.857012,-1.018472,-0.486637,-1.220327,-0.570371,1.612991,-1.217848,8.683698,3.295657,-7.948425,10.753685,-38.397882,-0.068716,0.147789,0.000000,1.017424,0.203428,0.000000
3.390000,1.556016,0.648803,-1.494804,1.844747,-1.023740,-0.470349,-1.232897,-0.483033,1.644023,-1.294942,8.780275,2.908626,-7.236801,8.611657,-39.549576,-0.058423,0.149848,0.000000,1.040618,0.207268,0.000000
3.400000,1.574401,0.638543,-1.499425,1.832352,-1.028130,-0.453770,-1.246196,-0.394836,1.671115,-1.364353,8.855384,2.509909,-6.863096,6.352246,-39.608872,-0.047917,0.151936,0.000000,1.059816,0.209690,-0.000000
3.410000,1.592662,0.628244,-1.503878,1.819821,-1.031635,-0.436940,-1.260151,-0.306026,1.694257,-1.425200,8.902118,2.119256,-6.318143,3.972869,-39.461496,-0.037244,0.154042,0.000000,1.073907,0.210920,0.000000
3.420000,1.610797,0.617914,-1.508163,1.807147,-1.034249,-0.419898,-1.274765,-0.216794,1.713429,-1.499966,8.943850,1.712264,-7.638707,3.423094,-40.980038,-0.026444,0.156163,0.000000,1.085739,0.213195,0.000000
3.430000,1.628805,0.607562,-1.512276,1.794323,-1.035969,-0.402685,-1.290085,-0.127273,1.728557,-1.557071,8.950648,1.319716,-3.745625,-2.090344,-37.478686,-0.015551,0.158300,0.000000,1.091434,0.213280,0.000000
3.440000,1.646683,0.597197,-1.516216,1.781344,-1.036795,-0.385340,-1.305834,-0.037908,1.739887,-1.594795,8.921361,0.944214,-4.793678,-2.801735,-38.544130,-0.004637,0.160421,0.000000,1.090880,0.211022,0.000000
3.450000,1.664431,0.586829,-1.519982,1.768205,-1.036729,-0.367900,-1.322037,0.051153,1.747387,-1.644365,8.886588,0.557267,-4.120920,-5.102486,-37.884744,0.006261,0.162525,0.000000,1.087847,0.209642,0.000000
3.460000,1.682047,0.576466,-1.523574,1.754901,-1.035774,-0.350405,-1.338672,0.139754,1.751088,-1.681448,8.830681,0.184597,-3.471909,-7.168690,-37.111749,0.017105,0.164608,0.000000,1.080442,0.206715,0.000000
3.470000,1.699528,0.566116,-1.526990,1.741430,-1.033936,-0.332891,-1.355659,0.227609,1.751067,-1.715406,8.733306,-0.189020,-3.143915,-11.228493,-37.125052,0.027845,0.166658,0.000000,1.066233,0.203084,0.000000
3.480000,1.716875,0.555790,-1.530232,1.727787,-1.031225,-0.315396,-1.372950,0.314404,1.747361,-1.740647,8.628743,-0.547718,-1.897972,-9.638363,-34.582162,0.038423,0.168668,0.000000,1.049564,0.198418,0.000000
3.490000,1.734084,0.545495,-1.533298,1.713970,-1.027651,-0.297955,-1.390441,0.400176,1.740172,-1.756877,8.519222,-0.889781,-1.523816,-13.328911,-34.285882,0.048830,0.170626,0.000000,1.030883,0.192752,-0.000000
3.500000,1.751153,0.535240,-1.536191,1.699978,-1.023226,-0.280604,-1.408079,0.484642,1.729567,-1.769643,8.371599,-1.229097,-0.855796,-15.107307,-33.091132,0.059018,0.172525,0.000000,1.006229,0.186499,-0.000000
3.510000,1.768083,0.525033,-1.538911,1.685808,-1.017963,-0.263375,-1.425835,0.567603,1.715650,-1.781146,8.218438,-1.551963,-0.331570,-16.727134,-31.798765,0.068951,0.174363,0.000000,0.979823,0.180238,-0.000000
3.520000,1.784869,0.514883,-1.541459,1.671461,-1.011879,-0.246301,-1.443594,0.648860,1.698545,-1.766054,8.026171,-1.867842,2.266171,-20.528552,-31.042204,0.078593,0.176126,0.000000,0.947764,0.170787,-0.000000
3.530000,1.801511,0.504798,-1.543838,1.656937,-1.004993,-0.229414,-1.461189,0.728132,1.678355,-1.758577,7.833005,-2.165800,-0.806686,-18.051095,-28.527214,0.087904,0.177794,0.000000,0.914926,0.162507,-0.000000
3.540000,1.818007,0.494786,-1.546048,1.642237,-0.997323,-0.212744,-1.478805,0.805535,1.655295,-1.760343,7.641574,-2.444662,1.543598,-21.411355,-27.559022,0.096892,0.179394,0.000000,0.881813,0.155629,-0.000000
3.550000,1.834355,0.484854,-1.548093,1.627361,-0.988889,-0.196317,-1.496293,0.880826,1.629488,-1.737023,7.415245,-2.714021,2.030050,-22.648354,-25.979479,0.105523,0.180910,0.000000,0.844206,0.145928,0.000000
3.560000,1.850554,0.475011,-1.549975,1.612312,-0.979714,-0.180163,-1.513545,0.953822,1.601084,-1.712261,7.181797,-2.963679,2.608790,-23.876162,-24.325454,0.113774,0.182330,0.000000,0.805708,0.136462,-0.000000
3.570000,1.866601,0.465262,-1.551697,1.597091,-0.969821,-0.164304,-1.530545,1.024435,1.570239,-1.687754,6.939428,-3.203895,2.592655,-24.723984,-23.341038,0.121634,0.183658,0.000000,0.766136,0.127234,0.000000
3.580000,1.882495,0.455616,-1.553263,1.581702,-0.959234,-0.148765,-1.547268,1.092568,1.537081,-1.654113,6.684653,-3.422613,4.142438,-26.217668,-20.386170,0.129093,0.184892,0.000000,0.725438,0.117439,-0.000000
3.590000,1.898234,0.446080,-1.554674,1.566147,-0.947978,-0.133569,-1.563593,1.158089,1.501864,-1.611071,6.418340,-3.619025,4.158074,-26.881879,-19.266537,0.136140,0.186024,0.000000,0.683916,0.107105,0.000000
3.600000,1.913818,0.436659,-1.555935,1.550432,-0.936081,-0.118735,-1.579496,1.220918,1.464730,-1.568419,6.146151,-3.804717,4.673032,-27.681821,-17.498144,0.142771,0.187056,0.000000,0.642160,0.097137,0.000000
3.610000,1.929243,0.427360,-1.557050,1.534559,-0.923569,-0.104280,-1.594939,1.281010,1.425827,-1.519487,5.871813,-3.973180,5.144562,-28.241988,-15.792783,0.148985,0.187986,0.000000,0.600831,0.086929,0.000000
3.620000,1.944508,0.418190,-1.558022,1.518535,-0.910470,-0.090223,-1.609867,1.338250,1.385356,-1.465280,5.571791,-4.116889,5.659380,-30.701486,-13.339706,0.154778,0.188814,0.000000,0.557480,0.076781,-0.000000
3.630000,1.959613,0.409153,-1.558856,1.502364,-0.896814,-0.076578,-1.624232,1.392481,1.343528,-1.407087,5.280035,-4.248189,5.974047,-27.599483,-12.934929,0.160141,0.189540,0.000000,0.515875,0.066589,0.000000
3.640000,1.974555,0.400255,-1.559555,1.486052,-0.882630,-0.063357,-1.637997,1.443895,1.300428,-1.345199,4.999054,-4.367768,6.433475,-29.632438,-10.591263,0.165103,0.190163,0.000000,0.476294,0.056385,-0.000000
3.650000,1.989333,0.391502,-1.560124,1.469606,-0.867946,-0.050573,-1.651120,1.492372,1.256259,-1.278795,4.696661,-4.463440,6.808605,-29.780228,-8.940261,0.169661,0.190684,0.000000,0.435402,0.046349,-0.000000
3.660000,2.003947,0.382898,-1.560568,1.453032,-0.852792,-0.038235,-1.663568,1.537853,1.211194,-1.210478,4.399499,-4.547226,7.126317,-29.872938,-7.348634,0.173817,0.191104,0.000000,0.396002,0.036518,0.000000
3.670000,2.018394,0.374447,-1.560891,1.436337,-0.837199,-0.026351,-1.675297,1.580341,1.165405,-1.133850,4.097330,-4.606170,7.928522,-30.316435,-4.907682,0.177583,0.191424,0.000000,0.357246,0.026468,-0.000000
3.680000,2.032673,0.366155,-1.561097,1.419528,-0.821196,-0.014928,-1.686249,1.619812,1.119100,-1.057588,3.798280,-4.655198,7.310653,-29.472320,-4.919848,0.180966,0.191643,0.000000,0.319724,0.016838,-0.000000
3.690000,2.046784,0.358025,-1.561191,1.402614,-0.804812,-0.003971,-1.696454,1.656323,1.072327,-0.982354,3.503515,-4.695409,7.999728,-29.699059,-2.665812,0.183982,0.191768,0.000000,0.283519,0.007668,0.000000
3.700000,2.060725,0.350060,-1.561178,1.385602,-0.788079,0.006517,-1.705867,1.689871,1.025276,-0.899972,3.206526,-4.712641,8.204197,-29.455170,-1.253613,0.186640,0.191799,0.000000,0.248224,-0.001634,0.000000
3.710000,2.074496,0.342264,-1.561062,1.368500,-0.771025,0.016534,-1.714457,1.720470,0.978099,-0.817741,2.913890,-4.720964,8.380732,-29.143911,0.075723,0.188951,0.191736,0.000000,0.214227,-0.010578,-0.000000
3.720000,2.088095,0.334640,-1.560848,1.351316,-0.753679,0.026079,-1.722205,1.748153,0.930941,-0.731134,2.623105,-4.706762,8.796788,-28.921125,2.272720,0.190928,0.191584,0.000000,0.181521,-0.019374,-0.000000
3.730000,2.101522,0.327192,-1.560542,1.334058,-0.736071,0.035154,-1.729081,1.772950,0.883982,-0.644823,2.337381,-4.685834,8.456343,-28.211023,1.886975,0.192585,0.191343,0.000000,0.150079,-0.027861,-0.000000
3.740000,2.114776,0.319920,-1.560147,1.316737,-0.718230,0.043760,-1.735105,1.794921,0.837238,-0.559283,2.057436,-4.659496,8.787584,-27.850760,3.855756,0.193934,0.191017,0.000000,0.119906,-0.036026,0.000000
3.750000,2.127856,0.312828,-1.559668,1.299359,-0.700182,0.051900,-1.740253,1.814109,0.790868,-0.470351,1.781238,-4.613076,8.853790,-27.298793,4.932093,0.194988,0.190609,0.000000,0.091061,-0.044019,0.000000
3.760000,2.140763,0.305917,-1.559110,1.281935,-0.681957,0.059579,-1.744517,1.830564,0.744990,-0.382399,1.510662,-4.561139,8.885573,-26.714732,5.917541,0.195759,0.190121,0.000000,0.063387,-0.051688,-0.000000
3.770000,2.153495,0.299189,-1.558478,1.264472,-0.663580,0.066801,-1.747888,1.844350,0.699715,-0.291314,1.247954,-4.490599,9.178637,-25.911439,7.719038,0.196262,0.189555,0.000000,0.037354,-0.059212,0.000000
3.780000,2.166052,0.292646,-1.557776,1.246980,-0.645078,0.073575,-1.750350,1.855541,0.655186,-0.202025,0.990641,-4.416646,8.670760,-25.547989,7.045619,0.196509,0.188915,0.000000,0.012329,-0.066395,0.000000
3.790000,2.178434,0.286288,-1.557008,1.229468,-0.626478,0.079908,-1.751937,1.864181,0.611385,-0.114968,0.738957,-4.340619,8.887021,-24.691260,8.612344,0.196511,0.188203,0.000000,-0.011731,-0.073228,0.000000
3.800000,2.190641,0.280116,-1.556179,1.211944,-0.607803,0.085806,-1.752639,1.870351,0.568435,-0.025629,0.496130,-4.248579,8.828002,-23.961655,9.321947,0.196280,0.187422,0.000000,-0.034241,-0.079917,-0.000000
3.810000,2.202673,0.274132,-1.555293,1.194418,-0.589079,0.091279,-1.752452,1.874122,0.526421,0.063187,0.259258,-4.153179,8.776226,-23.221841,9.967817,0.195829,0.186574,0.000000,-0.055808,-0.086432,-0.000000
3.820000,2.214530,0.268335,-1.554355,1.176898,-0.570328,0.096338,-1.751390,1.875576,0.485409,0.148399,0.033485,-4.047413,8.414240,-22.111020,10.959424,0.195170,0.185662,0.000000,-0.075820,-0.092334,-0.000000
3.830000,2.226211,0.262725,-1.553368,1.159393,-0.551574,0.100991,-1.749479,1.874809,0.445481,0.234588,-0.186715,-3.938721,8.825458,-21.932093,10.761400,0.194315,0.184691,0.000000,-0.095012,-0.098248,0.000000
3.840000,2.237718,0.257303,-1.552337,1.141911,-0.532839,0.105251,-1.746694,1.871859,0.406640,0.321790,-0.401438,-3.828060,8.459224,-20.827180,11.576615,0.193272,0.183659,0.000000,-0.113442,-0.104199,-0.000000
3.850000,2.249050,0.252068,-1.551264,1.124462,-0.514144,0.109128,-1.743059,1.866821,0.368951,0.405010,-0.604780,-3.709249,8.334701,-20.022475,11.959766,0.192052,0.182570,0.000000,-0.130450,-0.109578,-0.000000
3.860000,2.260207,0.247020,-1.550155,1.107053,-0.495510,0.112634,-1.738597,1.859781,0.332456,0.487114,-0.802045,-3.589213,8.174135,-19.221840,12.268881,0.190665,0.181427,0.000000,-0.146725,-0.114814,-0.000000
3.870000,2.271191,0.242158,-1.549013,1.089693,-0.476955,0.115781,-1.733315,1.850824,0.297195,0.569275,-0.987291,-3.461940,8.167531,-18.028271,12.951022,0.189122,0.180231,0.000000,-0.161585,-0.119922,0.000000
3.880000,2.282001,0.237481,-1.547841,1.072389,-0.458499,0.118582,-1.727222,1.840053,0.263214,0.648569,-1.166836,-3.335106,7.686110,-17.887054,12.399243,0.187435,0.178986,0.000000,-0.175845,-0.124759,0.000000
3.890000,2.292639,0.232988,-1.546642,1.055151,-0.440160,0.121050,-1.720355,1.827504,0.230486,0.724732,-1.340956,-3.209591,7.633218,-16.733668,12.921747,0.185607,0.177693,0.000000,-0.189568,-0.129321,-0.000000
3.900000,2.303104,0.228677,-1.545421,1.037985,-0.421955,0.123196,-1.712727,1.813277,0.199044,0.800438,-1.503247,-3.078775,7.417373,-15.928207,13.006576,0.183649,0.176354,0.000000,-0.202012,-0.133762,0.000000
3.910000,2.313399,0.224548,-1.544179,1.020899,-0.403900,0.125035,-1.704359,1.797457,0.168905,0.872750,-1.659478,-2.949089,7.180527,-15.135140,13.042917,0.181568,0.174973,0.000000,-0.213895,-0.137912,-0.000000
3.920000,2.323523,0.220599,-1.542921,1.003900,-0.386010,0.126579,-1.695269,1.780129,0.140073,0.945276,-1.804281,-2.816959,7.190224,-14.005214,13.258156,0.179375,0.173550,0.000000,-0.224630,-0.142071,-0.000000
3.930000,2.333477,0.216827,-1.541649,0.986996,-0.368302,0.127841,-1.685468,1.761389,0.112559,1.013738,-1.943354,-2.686534,6.496807,-13.816483,12.816095,0.177077,0.172086,0.000000,-0.234883,-0.145892,0.000000
3.940000,2.343263,0.213232,-1.540365,0.970193,-0.350787,0.128834,-1.675010,1.741278,0.086333,1.077879,-2.077036,-2.558400,6.464793,-12.741554,12.922685,0.174678,0.170587,0.000000,-0.244707,-0.149366,-0.000000
3.950000,2.352881,0.209811,-1.539073,0.953498,-0.333480,0.129572,-1.663909,1.719888,0.061397,1.141882,-2.199753,-2.429211,6.201139,-11.983226,12.791104,0.172187,0.169053,0.000000,-0.253495,-0.152850,0.000000
3.960000,2.362333,0.206562,-1.537775,0.936917,-0.316393,0.130066,-1.652179,1.697301,0.037744,1.203832,-2.316600,-2.301441,5.967606,-11.242095,12.645175,0.169610,0.167484,0.000000,-0.261807,-0.156202,0.000000
3.970000,2.371620,0.203482,-1.536472,0.920456,-0.299538,0.130331,-1.639858,1.673593,0.015353,1.259196,-2.423294,-2.177444,5.319215,-10.240873,12.258031,0.166954,0.165885,0.000000,-0.269280,-0.159017,0.000000
3.980000,2.380743,0.200570,-1.535169,0.904121,-0.282925,0.130377,-1.626993,1.648852,-0.005806,1.314715,-2.524445,-2.054092,5.791187,-9.996165,12.411283,0.164226,0.164259,0.000000,-0.276303,-0.161907,-0.000000
3.990000,2.389703,0.197823,-1.533866,0.887918,-0.266564,0.130219,-1.613560,1.623120,-0.025730,1.370681,-2.620396,-1.931508,5.185678,-9.053305,11.991454,0.161429,0.162603,0.000000,-0.282915,-0.164904,-0.000000
4.000000,2.398502,0.195238,-1.532565,0.871852,-0.250466,0.129867,-1.599604,1.596479,-0.044453,1.420265,-2.706780,-1.813408,4.947118,-8.368948,11.734200,0.158570,0.160919,0.000000,-0.288769,-0.167401,0.000000
4.010000,2.407140,0.192813,-1.531269,0.855928,-0.234638,0.129334,-1.585158,1.569001,-0.062004,1.468579,-2.787594,-1.697263,4.697460,-7.702009,11.452919,0.155655,0.159212,0.000000,-0.294205,-0.169857,0.000000
4.020000,2.415621,0.190544,-1.529979,0.840150,-0.219088,0.128631,-1.570242,1.540756,-0.078411,1.514048,-2.860005,-1.584767,4.414394,-6.874688,11.080669,0.152688,0.157481,0.000000,-0.298975,-0.172145,0.000000
4.030000,2.423944,0.188430,-1.528697,0.824524,-0.203825,0.127769,-1.554884,1.511819,-0.093708,1.557248,-2.927069,-1.474919,4.226332,-6.543887,10.887602,0.149677,0.155729,0.000000,-0.303362,-0.174304,-0.000000
4.040000,2.432112,0.186467,-1.527424,0.809054,-0.188854,0.126760,-1.539105,1.482231,-0.107918,1.598221,-2.989083,-1.367819,3.950603,-5.769041,10.492486,0.146622,0.153956,0.000000,-0.307395,-0.176341,-0.000000
4.050000,2.440125,0.184652,-1.526162,0.793744,-0.174182,0.125614,-1.522929,1.452064,-0.121078,1.636420,-3.043293,-1.264789,3.707841,-5.168258,10.149550,0.143531,0.152164,0.000000,-0.310823,-0.178221,0.000000
4.060000,2.447987,0.182982,-1.524912,0.778597,-0.159814,0.124342,-1.506384,1.421382,-0.133222,1.672373,-3.092288,-1.164502,3.468646,-4.584211,9.805872,0.140407,0.150355,0.000000,-0.313877,-0.179974,0.000000
4.070000,2.455698,0.181454,-1.523675,0.763617,-0.145756,0.122953,-1.489491,1.390242,-0.144388,1.705669,-3.134580,-1.069622,3.205530,-3.924943,9.266566,0.137255,0.148530,0.000000,-0.316443,-0.181598,0.000000
4.080000,2.463260,0.180066,-1.522453,0.748808,-0.132011,0.121457,-1.472277,1.358707,-0.154622,1.736795,-3.171851,-0.977140,3.020599,-3.533535,9.232201,0.134079,0.146689,0.000000,-0.318640,-0.183093,-0.000000
4.090000,2.470675,0.178813,-1.521247,0.734173,-0.118583,0.119864,-1.454762,1.326820,-0.163938,1.765808,-3.204338,-0.886965,2.768514,-2.918387,8.703653,0.130883,0.144835,0.000000,-0.320488,-0.184464,0.000000
4.100000,2.477944,0.177693,-1.520056,0.719714,-0.105476,0.118181,-1.436970,1.294641,-0.172381,1.792302,-3.230686,-0.802236,2.545219,-2.402346,8.340230,0.127671,0.142968,0.000000,-0.321889,-0.185711,-0.000000
4.110000,2.485070,0.176703,-1.518883,0.705434,-0.092691,0.116419,-1.418922,1.262222,-0.179990,1.816858,-3.252296,-0.720086,2.330856,-1.902187,7.981932,0.124447,0.141091,0.000000,-0.322938,-0.186851,0.000000
4.120000,2.492053,0.175838,-1.517728,0.691336,-0.080232,0.114584,-1.400642,1.229613,-0.186804,1.838617,-3.268595,-0.643593,2.055883,-1.380294,7.422214,0.121214,0.139203,0.000000,-0.323612,-0.187838,-0.000000
4.130000,2.498897,0.175097,-1.516592,0.677422,-0.068099,0.112685,-1.382155,1.196865,-0.192869,1.858709,-3.280378,-0.569426,1.964460,-0.979838,7.415034,0.117976,0.137306,0.000000,-0.323941,-0.188734,0.000000
4.140000,2.505602,0.174475,-1.515475,0.663694,-0.056295,0.110729,-1.363473,1.164020,-0.198198,1.877238,-3.287841,-0.497408,1.708096,-0.495136,6.883176,0.114736,0.135402,0.000000,-0.323938,-0.189545,0.000000
4.150000,2.512171,0.173970,-1.514377,0.650153,-0.044819,0.108724,-1.344620,1.131125,-0.202837,1.893183,-3.290507,-0.430846,1.516066,-0.060975,6.536043,0.111498,0.133491,0.000000,-0.323589,-0.190214,0.000000
4.160000,2.518606,0.173578,-1.513300,0.636802,-0.033672,0.106675,-1.325614,1.098224,-0.206822,1.907565,-3.289031,-0.366675,1.331489,0.357875,6.199304,0.108265,0.131574,0.000000,-0.322916,-0.190796,0.000000
4.170000,2.524908,0.173295,-1.512244,0.623641,-0.022854,0.104589,-1.306477,1.065358,-0.210190,1.919559,-3.283362,-0.307757,1.097494,0.769075,5.682583,0.105041,0.129653,0.000000,-0.321941,-0.191245,0.000000
4.180000,2.531079,0.173119,-1.511209,0.610673,-0.012365,0.102473,-1.287228,1.032569,-0.212984,1.930145,-3.273792,-0.250963,1.021739,1.142149,5.680570,0.101828,0.127728,0.000000,-0.320651,-0.191613,0.000000
4.190000,2.537122,0.173047,-1.510195,0.597897,-0.002203,0.100331,-1.267878,0.999895,-0.215215,1.939430,-3.260484,-0.196079,0.806981,1.521211,5.199709,0.098629,0.125801,0.000000,-0.319056,-0.191907,0.000000
4.200000,2.543038,0.173074,-1.509202,0.585315,0.007634,0.098170,-1.248447,0.967372,-0.216923,1.946552,-3.243456,-0.146102,0.648278,1.877587,4.894282,0.095447,0.123872,0.000000,-0.317184,-0.192077,-0.000000
4.210000,2.548829,0.173198,-1.508231,0.572928,0.017145,0.095995,-1.228951,0.935037,-0.218143,1.952367,-3.222947,-0.098228,0.496735,2.219333,4.601041,0.092286,0.121942,0.000000,-0.315023,-0.192170,-0.000000
4.220000,2.554497,0.173416,-1.507282,0.560736,0.026335,0.093809,-1.209406,0.902924,-0.218904,1.956334,-3.199140,-0.054794,0.316238,2.541853,4.166086,0.089148,0.120013,0.000000,-0.312609,-0.192157,-0.000000
4.230000,2.560045,0.173724,-1.506355,0.548740,0.035205,0.091618,-1.189828,0.871065,-0.219244,1.959103,-3.172113,-0.013217,0.239364,2.861094,4.153549,0.086035,0.118084,0.000000,-0.309920,-0.192069,-0.000000
4.240000,2.565473,0.174119,-1.505450,0.536940,0.043757,0.089425,-1.170228,0.839492,-0.219173,1.960768,-3.142011,0.026719,0.076104,3.154638,3.756000,0.082950,0.116157,0.000000,-0.306964,-0.191912,0.000000
4.250000,2.570784,0.174598,-1.504567,0.525336,0.051996,0.087236,-1.150619,0.808234,-0.218725,1.960807,-3.109050,0.062615,-0.048719,3.437472,3.504269,0.079896,0.114233,0.000000,-0.303780,-0.191658,-0.000000
4.260000,2.575980,0.175158,-1.503705,0.513927,0.059923,0.085052,-1.131014,0.777321,-0.217926,1.959929,-3.073269,0.096813,-0.163909,3.706917,3.266500,0.076875,0.112312,0.000000,-0.300347,-0.191350,0.000000
4.270000,2.581063,0.175796,-1.502866,0.502715,0.067543,0.082878,-1.111427,0.746777,-0.216802,1.957199,-3.035045,0.127330,-0.343971,3.944741,2.907532,0.073890,0.110395,0.000000,-0.296714,-0.190915,0.000000
4.280000,2.586035,0.176508,-1.502048,0.491699,0.074860,0.080717,-1.091872,0.716628,-0.215383,1.953848,-2.994231,0.156443,-0.324103,4.215946,2.919058,0.070942,0.108483,0.000000,-0.292844,-0.190446,-0.000000
4.290000,2.590898,0.177292,-1.501251,0.480878,0.081877,0.078571,-1.072351,0.686901,-0.213677,1.949988,-2.950956,0.184358,-0.484127,4.427716,2.596386,0.068034,0.106576,0.000000,-0.288746,-0.189951,-0.000000
4.300000,2.595653,0.178144,-1.500476,0.470252,0.088599,0.076444,-1.052878,0.657616,-0.211708,1.944497,-2.905645,0.209001,-0.575331,4.641217,2.402689,0.065168,0.104676,0.000000,-0.284475,-0.189340,-0.000000
4.310000,2.600303,0.179063,-1.499722,0.459820,0.095031,0.074338,-1.033463,0.628795,-0.209500,1.938315,-2.858259,0.232303,-0.662863,4.839803,2.219614,0.062345,0.102782,0.000000,-0.280008,-0.188684,0.000000
4.320000,2.604850,0.180044,-1.498989,0.449582,0.101177,0.072255,-1.014115,0.600458,-0.207071,1.931233,-2.808838,0.253063,-0.750040,5.036358,1.972792,0.059568,0.100895,0.000000,-0.275356,-0.187973,0.000000
4.330000,2.609296,0.181085,-1.498277,0.439537,0.107042,0.070197,-0.994841,0.572624,-0.204443,1.923385,-2.757702,0.272603,-0.818698,5.188390,1.938084,0.056838,0.099016,0.000000,-0.270539,-0.187204,-0.000000
4.340000,2.613642,0.182184,-1.497585,0.429685,0.112631,0.068167,-0.975650,0.545309,-0.201623,1.914823,-2.704993,0.291077,-0.895481,5.357140,1.719442,0.054158,0.097145,0.000000,-0.265569,-0.186380,-0.000000
4.350000,2.617890,0.183337,-1.496914,0.420024,0.117950,0.066165,-0.956547,0.518529,-0.198629,1.905513,-2.650653,0.307361,-0.963236,5.502691,1.577069,0.051528,0.095283,0.000000,-0.260443,-0.185509,-0.000000
4.360000,2.622043,0.184542,-1.496262,0.410554,0.123004,0.064195,-0.937542,0.492300,-0.195479,1.895519,-2.595008,0.322554,-1.027598,5.634574,1.443558,0.048949,0.093430,0.000000,-0.255188,-0.184583,0.000000
4.370000,2.626102,0.185796,-1.495630,0.401273,0.127798,0.062256,-0.918639,0.466634,-0.192184,1.885041,-2.537908,0.336083,-1.074264,5.773358,1.282685,0.046424,0.091587,0.000000,-0.249787,-0.183628,0.000000
4.380000,2.630069,0.187097,-1.495017,0.392181,0.132338,0.060352,-0.899843,0.441545,-0.188760,1.873899,-2.479796,0.348633,-1.153709,5.846548,1.229446,0.043954,0.089754,0.000000,-0.244282,-0.182618,0.000000
4.390000,2.633946,0.188442,-1.494422,0.383276,0.136631,0.058482,-0.881163,0.417041,-0.185214,1.862121,-2.420812,0.360317,-1.194155,5.958528,1.089682,0.041539,0.087931,0.000000,-0.238685,-0.181554,-0.000000
4.400000,2.637735,0.189829,-1.493847,0.374557,0.140681,0.056648,-0.862602,0.393133,-0.181559,1.849967,-2.360753,0.370611,-1.243044,6.041054,0.989804,0.039181,0.086120,0.000000,-0.232976,-0.180466,0.000000
4.410000,2.641438,0.191255,-1.493289,0.366023,0.144495,0.054851,-0.844165,0.369828,-0.177804,1.837438,-2.299978,0.380114,-1.285557,6.112390,0.897975,0.036880,0.084319,0.000000,-0.227187,-0.179347,0.000000
4.420000,2.645056,0.192718,-1.492750,0.357673,0.148080,0.053092,-0.825856,0.347135,-0.173960,1.824052,-2.238541,0.388466,-1.368545,6.172807,0.787192,0.034637,0.082530,0.000000,-0.221326,-0.178153,-0.000000
4.430000,2.648592,0.194216,-1.492227,0.349506,0.151440,0.051372,-0.807684,0.325059,-0.170037,1.810551,-2.176567,0.396163,-1.330545,6.219994,0.753662,0.032453,0.080754,0.000000,-0.215400,-0.176952,0.000000
4.440000,2.652047,0.195746,-1.491722,0.341519,0.154583,0.049691,-0.789645,0.303605,-0.166039,1.796993,-2.114171,0.403287,-1.403540,6.257795,0.658431,0.030329,0.078990,0.000000,-0.209423,-0.175749,-0.000000
4.450000,2.655423,0.197307,-1.491233,0.333712,0.157514,0.048051,-0.771747,0.282777,-0.161975,1.782676,-2.051451,0.409466,-1.436110,6.283990,0.592011,0.028265,0.077238,0.000000,-0.203403,-0.174476,-0.000000
4.460000,2.658722,0.198896,-1.490761,0.326084,0.160241,0.046452,-0.753993,0.262577,-0.157852,1.768094,-1.988584,0.415052,-1.469329,6.298336,0.529548,0.026261,0.075499,0.000000,-0.197357,-0.173179,0.000000
4.470000,2.661945,0.200511,-1.490304,0.318632,0.162768,0.044894,-0.736385,0.243006,-0.153675,1.753393,-1.925423,0.420107,-1.481086,6.321874,0.478662,0.024318,0.073773,0.000000,-0.191271,-0.171872,0.000000
4.480000,2.665095,0.202151,-1.489863,0.311356,0.165103,0.043379,-0.718926,0.224068,-0.149452,1.738259,-1.862394,0.424566,-1.545952,6.281802,0.413681,0.022436,0.072060,0.000000,-0.185186,-0.170525,0.000000
4.490000,2.668173,0.203813,-1.489437,0.304253,0.167251,0.041905,-0.701622,0.205758,-0.145186,1.722686,-1.799613,0.428465,-1.557919,6.283078,0.370377,0.020614,0.070362,0.000000,-0.179115,-0.169135,0.000000
4.500000,2.671181,0.205495,-1.489025,0.297323,0.169220,0.040475,-0.684473,0.188076,-0.140884,1.707022,-1.736853,0.431952,-1.586326,6.257191,0.324271,0.018854,0.068677,0.000000,-0.173034,-0.167735,-0.000000
4.510000,2.674120,0.207196,-1.488627,0.290563,0.171015,0.039088,-0.667482,0.171019,-0.136549,1.691054,-1.674501,0.434919,-1.613310,6.221490,0.280363,0.017154,0.067006,0.000000,-0.166981,-0.166306,0.000000
4.520000,2.676992,0.208915,-1.488243,0.283972,0.172642,0.037744,-0.650653,0.154585,-0.132186,1.674698,-1.612362,0.437666,-1.651851,6.195193,0.259006,0.015514,0.065350,0.000000,-0.160939,-0.164837,0.000000
4.530000,2.679800,0.210649,-1.487872,0.277549,0.174109,0.036444,-0.633989,0.138770,-0.127797,1.658144,-1.550828,0.439890,-1.658780,6.109977,0.185856,0.013935,0.063709,0.000000,-0.154945,-0.163348,-0.000000
4.540000,2.682544,0.212396,-1.487514,0.271292,0.175420,0.035188,-0.617491,0.123566,-0.123390,1.641398,-1.489997,0.441598,-1.696626,6.064501,0.166580,0.012415,0.062083,0.000000,-0.149010,-0.161839,-0.000000
4.550000,2.685226,0.214157,-1.487168,0.265199,0.176582,0.033977,-0.601162,0.108968,-0.118966,1.624261,-1.429647,0.443133,-1.724887,5.994499,0.130735,0.010954,0.060472,0.000000,-0.143112,-0.160289,0.000000
4.560000,2.687848,0.215928,-1.486834,0.259268,0.177601,0.032809,-0.585006,0.094970,-0.114529,1.606888,-1.370136,0.444209,-1.754106,5.916262,0.095638,0.009552,0.058877,0.000000,-0.137287,-0.158714,-0.000000
4.570000,2.690412,0.217708,-1.486512,0.253498,0.178483,0.031686,-0.569026,0.081564,-0.110082,1.589136,-1.311257,0.445150,-1.792402,5.848870,0.081889,0.008208,0.057298,0.000000,-0.131514,-0.157098,0.000000
4.580000,2.692919,0.219497,-1.486200,0.247887,0.179234,0.030607,-0.553224,0.068742,-0.105627,1.571117,-1.253381,0.445624,-1.811577,5.724882,0.012633,0.006922,0.055735,0.000000,-0.125831,-0.155454,-0.000000
4.590000,2.695370,0.221292,-1.485899,0.242433,0.179860,0.029573,-0.537604,0.056492,-0.101171,1.552816,-1.196590,0.445619,-1.853102,5.641826,-0.002876,0.005691,0.054189,0.000000,-0.120247,-0.153780,-0.000000
4.600000,2.697768,0.223094,-1.485609,0.237134,0.180366,0.028584,-0.522169,0.044807,-0.096715,1.534092,-1.140647,0.445477,-1.889237,5.536247,-0.036660,0.004517,0.052660,0.000000,-0.114738,-0.152060,0.000000
4.610000,2.700114,0.224899,-1.485328,0.231989,0.180758,0.027639,-0.506925,0.033676,-0.092264,1.514801,-1.085869,0.444781,-1.932794,5.424672,-0.073637,0.003396,0.051148,0.000000,-0.109335,-0.150281,0.000000
4.620000,2.702408,0.226708,-1.485056,0.226995,0.181042,0.026739,-0.491872,0.023086,-0.087818,1.495765,-1.032113,0.444270,-1.910537,5.319580,-0.056867,0.002330,0.049654,0.000000,-0.104026,-0.148523,0.000000
4.630000,2.704654,0.228520,-1.484793,0.222151,0.181222,0.025883,-0.477012,0.013029,-0.083381,1.475833,-0.979626,0.443047,-2.077420,5.176853,-0.188850,0.001315,0.048178,0.000000,-0.098835,-0.146673,0.000000
4.640000,2.706852,0.230333,-1.484538,0.217454,0.181304,0.025071,-0.462359,0.003489,-0.078960,1.454927,-0.928465,0.441061,-2.068440,5.060689,-0.179917,0.000352,0.046721,0.000000,-0.093769,-0.144725,0.000000
4.650000,2.709004,0.232146,-1.484291,0.212903,0.181293,0.024304,-0.447913,-0.005544,-0.074559,1.434145,-0.878479,0.439201,-2.123808,4.929584,-0.220646,-0.000560,0.045283,0.000000,-0.088811,-0.142783,-0.000000
4.660000,2.711110,0.233958,-1.484052,0.208495,0.181195,0.023580,-0.433679,-0.014085,-0.070178,1.412569,-0.829860,0.436769,-2.181224,4.794881,-0.261453,-0.001424,0.043866,0.000000,-0.083983,-0.140758,-0.000000
4.670000,2.713174,0.235769,-1.483819,0.204229,0.181013,0.022900,-0.419663,-0.022146,-0.065824,1.390609,-0.782582,0.434011,-2.221818,4.659057,-0.294982,-0.002240,0.042468,0.000000,-0.079282,-0.138691,0.000000
4.680000,2.715195,0.237578,-1.483594,0.200101,0.180753,0.022263,-0.405869,-0.029741,-0.061500,1.367902,-0.736715,0.430767,-2.320577,4.513864,-0.354144,-0.003010,0.041092,0.000000,-0.074715,-0.136545,-0.000000
4.690000,2.717176,0.239384,-1.483374,0.196111,0.180420,0.021670,-0.392307,-0.036885,-0.057211,1.344398,-0.692289,0.427014,-2.370249,4.372130,-0.392145,-0.003735,0.039738,0.000000,-0.070286,-0.134315,-0.000000
4.700000,2.719118,0.241186,-1.483160,0.192254,0.180017,0.021119,-0.378983,-0.043592,-0.052961,1.320395,-0.649290,0.422878,-2.441388,4.226105,-0.439975,-0.004416,0.038406,0.000000,-0.065993,-0.132030,-0.000000
4.710000,2.721022,0.242984,-1.482951,0.188530,0.179549,0.020610,-0.365902,-0.049876,-0.048755,1.295577,-0.607794,0.418173,-2.516200,4.077828,-0.490809,-0.005056,0.037097,0.000000,-0.061845,-0.129659,0.000000
4.720000,2.722889,0.244777,-1.482748,0.184936,0.179021,0.020144,-0.353073,-0.055752,-0.044598,1.270120,-0.567693,0.413153,-2.582239,3.937439,-0.523814,-0.005654,0.035813,0.000000,-0.057831,-0.127219,-0.000000
4.730000,2.724721,0.246564,-1.482548,0.181468,0.178436,0.019718,-0.340503,-0.061235,-0.040494,1.243785,-0.529149,0.407470,-2.685650,3.771045,-0.613554,-0.006213,0.034553,0.000000,-0.053968,-0.124685,0.000000
4.740000,2.726519,0.248346,-1.482353,0.178125,0.177797,0.019334,-0.328201,-0.066340,-0.036451,1.216525,-0.492176,0.401085,-2.760242,3.628277,-0.653464,-0.006734,0.033320,0.000000,-0.050257,-0.122054,-0.000000
4.750000,2.728284,0.250120,-1.482162,0.174903,0.177110,0.018989,-0.316175,-0.071083,-0.032474,1.188507,-0.456625,0.394304,-2.850023,3.477251,-0.713637,-0.007218,0.032112,0.000000,-0.046684,-0.119340,-0.000000
4.760000,2.730017,0.251888,-1.481973,0.171800,0.176377,0.018684,-0.304434,-0.075478,-0.028568,1.159527,-0.422581,0.386707,-2.943319,3.327406,-0.778739,-0.007668,0.030933,0.000000,-0.043257,-0.116524,0.000000
4.770000,2.731720,0.253648,-1.481788,0.168813,0.175602,0.018417,-0.292987,-0.079540,-0.024740,1.129659,-0.390112,0.378972,-3.034118,3.170641,-0.795189,-0.008084,0.029782,0.000000,-0.039985,-0.113612,-0.000000
4.780000,2.733394,0.255400,-1.481605,0.165939,0.174787,0.018189,-0.281844,-0.083285,-0.020992,1.098763,-0.359080,0.370237,-3.145827,3.036177,-0.953096,-0.008468,0.028661,0.000000,-0.036853,-0.110591,0.000000
4.790000,2.735040,0.257143,-1.481424,0.163175,0.173937,0.017997,-0.271015,-0.086726,-0.017339,1.066796,-0.329464,0.360439,-3.245015,2.883169,-0.979989,-0.008821,0.027571,0.000000,-0.033860,-0.107457,0.000000
4.800000,2.736658,0.258878,-1.481245,0.160518,0.173054,0.017842,-0.260511,-0.089879,-0.013784,1.033822,-0.301375,0.350401,-3.353802,2.739142,-1.054784,-0.009146,0.026512,0.000000,-0.031016,-0.104213,-0.000000
4.810000,2.738250,0.260604,-1.481067,0.157964,0.172140,0.017721,-0.250343,-0.092758,-0.010334,0.999566,-0.274625,0.339435,-3.468915,2.598737,-1.130910,-0.009442,0.025487,0.000000,-0.028304,-0.100834,-0.000000
4.820000,2.739818,0.262321,-1.480890,0.155510,0.171199,0.017635,-0.240522,-0.095377,-0.006997,0.964708,-0.249505,0.327851,-3.532305,2.437911,-1.194221,-0.009712,0.024496,0.000000,-0.025753,-0.097388,-0.000000
4.830000,2.741361,0.264028,-1.480714,0.153152,0.170233,0.017581,-0.231055,-0.097752,-0.003780,0.928300,-0.225603,0.315379,-3.750847,2.343505,-1.300683,-0.009958,0.023540,0.000000,-0.023322,-0.093778,0.000000
4.840000,2.742881,0.265726,-1.480538,0.150888,0.169245,0.017559,-0.221961,-0.099893,-0.000692,0.890265,-0.202867,0.301989,-3.827496,2.191953,-1.369786,-0.010179,0.022621,0.000000,-0.021005,-0.089997,-0.000000
4.850000,2.744379,0.267413,-1.480363,0.148712,0.168236,0.017567,-0.213251,-0.101815,0.002258,0.851497,-0.181646,0.287911,-3.956486,2.065088,-1.454122,-0.010378,0.021740,0.000000,-0.018838,-0.086135,-0.000000
4.860000,2.745855,0.269090,-1.480187,0.146621,0.167209,0.017603,-0.204936,-0.103530,0.005063,0.811282,-0.161616,0.272943,-4.087074,1.941681,-1.539827,-0.010556,0.020898,0.000000,-0.016790,-0.082120,-0.000000
4.870000,2.747312,0.270757,-1.480011,0.144612,0.166166,0.017667,-0.197030,-0.105051,0.007714,0.769746,-0.142797,0.257109,-4.220652,1.822900,-1.627248,-0.010714,0.020098,0.000000,-0.014861,-0.077964,-0.000000
4.880000,2.748748,0.272413,-1.479834,0.142679,0.165109,0.017757,-0.189546,-0.106390,0.010202,0.726860,-0.125141,0.240392,-4.357047,1.709104,-1.716321,-0.010854,0.019339,0.000000,-0.013048,-0.073665,-0.000000
4.890000,2.750165,0.274059,-1.479655,0.140820,0.164039,0.017871,-0.182497,-0.107558,0.012519,0.682596,-0.108597,0.222777,-4.496031,1.600655,-1.807043,-0.010976,0.018625,0.000000,-0.011345,-0.069219,-0.000000
4.900000,2.751565,0.275694,-1.479476,0.139028,0.162958,0.018007,-0.175899,-0.108565,0.014655,0.636926,-0.093110,0.204252,-4.637937,1.497834,-1.898781,-0.011081,0.017955,0.000000,-0.009747,-0.064624,0.000000
4.910000,2.752946,0.277318,-1.479295,0.137300,0.161868,0.018163,-0.169764,-0.109423,0.016601,0.589828,-0.078620,0.184798,-4.782064,1.401084,-1.992063,-0.011171,0.017333,0.000000,-0.008248,-0.059878,0.000000
4.920000,2.754311,0.278932,-1.479113,0.135631,0.160770,0.018338,-0.164107,-0.110141,0.018347,0.541277,-0.065067,0.164406,-4.928462,1.310725,-2.086563,-0.011246,0.016758,0.000000,-0.006843,-0.054979,0.000000
4.930000,2.755659,0.280534,-1.478928,0.134016,0.159666,0.018529,-0.158943,-0.110727,0.019886,0.491252,-0.052383,0.143063,-5.076974,1.227111,-2.182157,-0.011308,0.016234,0.000000,-0.005524,-0.049925,-0.000000
4.940000,2.756991,0.282125,-1.478742,0.132450,0.158556,0.018735,-0.154287,-0.111191,0.021205,0.439731,-0.040501,0.120760,-5.227438,1.150591,-2.278654,-0.011357,0.015760,0.000000,-0.004285,-0.044713,0.000000
4.950000,2.758308,0.283705,-1.478554,0.130929,0.157443,0.018953,-0.150153,-0.111540,0.022297,0.386695,-0.029347,0.097483,-5.379927,1.081519,-2.376423,-0.011394,0.015340,0.000000,-0.003118,-0.039344,0.000000
4.960000,2.759610,0.285274,-1.478363,0.129446,0.156326,0.019180,-0.146558,-0.111780,0.023152,0.332126,-0.018845,0.073228,-5.534016,1.020252,-2.474831,-0.011420,0.014974,0.000000,-0.002016,-0.033814,0.000000
4.970000,2.760897,0.286831,-1.478170,0.127996,0.155207,0.019415,-0.143516,-0.111919,0.023759,0.276009,-0.008915,0.047984,-5.689674,0.967142,-2.573973,-0.011435,0.014664,0.000000,-0.000971,-0.028124,-0.000000
4.980000,2.762170,0.288378,-1.477975,0.126573,0.154088,0.019655,-0.141043,-0.111960,0.024108,0.218328,0.000527,0.021746,-5.846769,0.922538,-2.673761,-0.011439,0.014412,0.000000,0.000025,-0.022272,0.000000
4.990000,2.763429,0.289913,-1.477777,0.125173,0.152968,0.019896,-0.139155,-0.111909,0.024190,0.159069,0.009566,-0.005493,-6.005161,0.886784,-2.774136,-0.011434,0.014219,0.000000,0.000981,-0.016259,0.000000
5.000000,2.764673,0.291437,-1.477577,0.123788,0.151850,0.020137,-0.137867,-0.111770,0.023995,0.098221,0.018293,-0.033739,-6.164666,0.860212,-2.875092,-0.011420,0.014087,0.000000,0.001907,-0.010083,-0.000000
