time,x,y,z,vx,vy,vz,ax,ay,az,jx,jy,jz,sx,sy,sz,roll,pitch,yaw,p,q,r
0.000000,-2.772192,0.304791,-1.496644,-0.014507,-0.007679,0.004465,0.413270,-0.100924,0.064090,17.891426,-4.471085,2.184413,-254.589245,50.593161,-90.893389,-0.010346,-0.042379,0.000000,-0.459815,-1.841882,-0.000000
0.010000,-2.772337,0.304714,-1.496599,-0.010374,-0.008688,0.005105,0.592184,-0.145635,0.085934,15.345533,-3.965153,1.275480,-807.802981,181.115311,-180.849358,-0.014948,-0.060824,0.000000,-0.407444,-1.580049,0.000000
0.020000,-2.772399,0.304617,-1.496541,-0.002663,-0.010592,0.006183,0.720181,-0.180227,0.089600,1.735366,-0.848779,-1.432574,-1193.391698,273.948069,-207.064366,-0.018488,-0.073954,0.000000,-0.084098,-0.166666,-0.000000
0.030000,-2.772390,0.304502,-1.496475,0.004029,-0.012293,0.006897,0.626891,-0.162610,0.057283,-8.522300,1.513808,-2.865808,-436.833308,94.721661,-38.653274,-0.016637,-0.064190,0.000000,0.158794,0.888930,-0.000000
0.040000,-2.772319,0.304371,-1.496403,0.009874,-0.013844,0.007329,0.549735,-0.149951,0.032284,-7.001300,1.045655,-2.205639,143.259084,-44.143515,59.313494,-0.015311,-0.056164,0.000000,0.109577,0.726348,0.000000
0.050000,-2.772193,0.304225,-1.496329,0.015024,-0.015292,0.007543,0.486865,-0.141697,0.013170,-5.657119,0.630938,-1.679538,126.320927,-38.965483,46.791725,-0.014445,-0.049655,0.000000,0.066366,0.584459,0.000000
0.060000,-2.772018,0.304065,-1.496253,0.019612,-0.016678,0.007592,0.436592,-0.137332,-0.001307,-4.474881,0.266345,-1.269805,110.835822,-34.113849,35.982387,-0.013983,-0.044470,0.000000,0.028637,0.460896,-0.000000
0.070000,-2.771800,0.303892,-1.496177,0.023756,-0.018038,0.007517,0.397368,-0.136370,-0.012226,-3.440402,-0.051339,-0.959890,96.734618,-29.578813,26.770484,-0.013872,-0.040434,0.000000,-0.004065,0.353608,0.000000
0.080000,-2.771543,0.303705,-1.496102,0.027559,-0.019405,0.007348,0.367784,-0.138359,-0.020505,-2.540189,-0.325231,-0.734395,83.948129,-25.350584,19.040997,-0.014064,-0.037395,0.000000,-0.032141,0.260803,0.000000
0.090000,-2.771249,0.303504,-1.496030,0.031111,-0.020806,0.007107,0.346564,-0.142875,-0.026914,-1.761440,-0.558351,-0.579070,72.407207,-21.419363,12.678933,-0.014514,-0.035216,0.000000,-0.055952,0.180895,-0.000000
0.100000,-2.770921,0.303288,-1.495960,0.034490,-0.022263,0.006809,0.332555,-0.149526,-0.032086,-1.092045,-0.753619,-0.480816,62.042713,-17.775352,7.569305,-0.015183,-0.033776,0.000000,-0.075826,0.112466,-0.000000
0.110000,-2.770559,0.303058,-1.495894,0.037763,-0.023796,0.006465,0.324723,-0.157947,-0.036530,-0.520586,-0.913858,-0.427684,52.785473,-14.408756,3.597097,-0.016031,-0.032966,0.000000,-0.092068,0.054236,-0.000000
0.120000,-2.770165,0.302813,-1.495831,0.040985,-0.025422,0.006079,0.322144,-0.167803,-0.040640,-0.036335,-1.041794,-0.408874,44.566315,-11.309779,0.647322,-0.017024,-0.032691,0.000000,-0.104968,0.005040,-0.000000
0.130000,-2.769740,0.302550,-1.495772,0.044205,-0.027152,0.005652,0.323996,-0.178783,-0.044708,0.370741,-1.140053,-0.414738,37.316097,-8.468622,-1.395017,-0.018130,-0.032865,0.000000,-0.114801,-0.036192,0.000000
0.140000,-2.769281,0.302269,-1.495718,0.047465,-0.028997,0.005185,0.329558,-0.190604,-0.048935,0.709987,-1.211166,-0.436775,30.965682,-5.875495,-2.644976,-0.019320,-0.033415,0.000000,-0.121834,-0.070442,0.000000
0.150000,-2.768790,0.301970,-1.495668,0.050797,-0.030964,0.004674,0.338196,-0.203006,-0.053443,0.990054,-1.257563,-0.467637,25.445885,-3.520597,-3.217509,-0.020567,-0.034274,0.000000,-0.126324,-0.098614,0.000000
0.160000,-2.768265,0.301650,-1.495624,0.054229,-0.033057,0.004116,0.349360,-0.215755,-0.058288,1.218904,-1.281578,-0.501125,20.687527,-1.394126,-3.227550,-0.021846,-0.035387,0.000000,-0.128522,-0.121538,0.000000
0.170000,-2.767706,0.301309,-1.495586,0.057784,-0.035279,0.003508,0.362574,-0.228638,-0.063466,1.403805,-1.285446,-0.532188,16.617304,0.512548,-2.807913,-0.023137,-0.036706,0.000000,-0.128669,-0.139974,-0.000000
0.180000,-2.767110,0.300945,-1.495554,0.061480,-0.037630,0.002846,0.377436,-0.241464,-0.068931,1.551250,-1.271327,-0.557283,13.092963,2.188956,-2.383357,-0.024420,-0.038188,0.000000,-0.126999,-0.154599,-0.000000
0.190000,-2.766476,0.300556,-1.495529,0.065333,-0.040109,0.002129,0.393599,-0.254065,-0.074612,1.665664,-1.241667,-0.579855,10.070601,3.651905,-1.961714,-0.025677,-0.039798,0.000000,-0.123759,-0.165857,0.000000
0.200000,-2.765803,0.300142,-1.495512,0.069352,-0.042712,0.001354,0.410749,-0.266298,-0.080528,1.752662,-1.198289,-0.596517,8.020442,5.060716,0.627551,-0.026895,-0.041506,0.000000,-0.119147,-0.174338,0.000000
0.210000,-2.765089,0.299702,-1.495502,0.073548,-0.045435,0.000519,0.428653,-0.278030,-0.086542,1.826073,-1.140452,-0.567304,6.815529,6.409159,5.024548,-0.028060,-0.043286,0.000000,-0.113211,-0.181621,-0.000000
0.220000,-2.764332,0.299234,-1.495501,0.077925,-0.048272,-0.000377,0.447270,-0.289107,-0.091875,1.888973,-1.070106,-0.496027,4.836966,7.279600,4.560867,-0.029159,-0.045140,0.000000,-0.106162,-0.188043,-0.000000
0.230000,-2.763531,0.298737,-1.495510,0.082493,-0.051217,-0.001319,0.466432,-0.299432,-0.096462,1.922812,-0.994860,-0.476087,1.932021,7.696697,-0.996469,-0.030183,-0.047049,0.000000,-0.098501,-0.191323,-0.000000
0.240000,-2.762682,0.298209,-1.495528,0.087254,-0.054261,-0.002306,0.485727,-0.309004,-0.101396,1.927613,-0.916172,-0.515956,0.197839,8.257629,-2.664471,-0.031129,-0.048968,0.000000,-0.090325,-0.191381,-0.000000
0.250000,-2.761785,0.297651,-1.495556,0.092207,-0.057397,-0.003347,0.504984,-0.317756,-0.106781,1.926769,-0.829708,-0.529376,0.200921,8.867755,0.392044,-0.031990,-0.050878,0.000000,-0.081456,-0.190982,0.000000
0.260000,-2.760838,0.297061,-1.495595,0.097354,-0.060616,-0.004441,0.524262,-0.325598,-0.111984,1.931632,-0.738817,-0.508115,0.402680,9.159594,2.018141,-0.032758,-0.052789,0.000000,-0.072272,-0.191339,0.000000
0.270000,-2.759838,0.296439,-1.495645,0.102693,-0.063909,-0.005586,0.543617,-0.332532,-0.116944,1.934823,-0.646516,-0.489014,-0.553823,9.591804,1.647746,-0.033435,-0.054707,0.000000,-0.062961,-0.191527,-0.000000
0.280000,-2.758784,0.295783,-1.495706,0.108226,-0.067267,-0.006780,0.562958,-0.338528,-0.121764,1.920555,-0.546981,-0.475160,-2.259569,10.341170,1.401916,-0.034018,-0.056622,0.000000,-0.052930,-0.189943,0.000000
0.290000,-2.757674,0.295094,-1.495780,0.113952,-0.070679,-0.008022,0.582028,-0.343472,-0.126447,1.889631,-0.439693,-0.460975,-3.064145,10.770145,1.471249,-0.034494,-0.058508,0.000000,-0.042146,-0.186702,0.000000
0.300000,-2.756505,0.294370,-1.495867,0.119866,-0.074136,-0.009309,0.600751,-0.347322,-0.130984,1.859272,-0.331578,-0.445735,-2.695788,10.719181,1.576902,-0.034861,-0.060358,0.000000,-0.031305,-0.183539,-0.000000
0.310000,-2.755277,0.293611,-1.495966,0.125967,-0.077626,-0.010641,0.619213,-0.350103,-0.135362,1.835716,-0.225309,-0.429437,-2.318857,10.651842,1.664231,-0.035120,-0.062181,0.000000,-0.020672,-0.181078,-0.000000
0.320000,-2.753986,0.292817,-1.496080,0.132251,-0.081138,-0.012016,0.637465,-0.351828,-0.139572,1.812895,-0.118541,-0.412450,-2.659541,10.873719,1.714596,-0.035274,-0.063982,0.000000,-0.010010,-0.178707,-0.000000
0.330000,-2.752632,0.291988,-1.496207,0.138716,-0.084662,-0.013433,0.655471,-0.352474,-0.143611,1.782525,-0.007835,-0.395145,-3.379295,11.250786,1.740219,-0.035320,-0.065758,0.000000,0.001025,-0.175597,-0.000000
0.340000,-2.751212,0.291124,-1.496348,0.145360,-0.088188,-0.014889,0.673116,-0.351985,-0.147475,1.745309,0.106475,-0.377646,-3.625185,11.421675,1.763952,-0.035254,-0.067496,0.000000,0.012401,-0.171820,-0.000000
0.350000,-2.749724,0.290224,-1.496504,0.152178,-0.091702,-0.016382,0.690378,-0.350345,-0.151164,1.710021,0.220599,-0.359866,-3.277495,11.332881,1.790772,-0.035073,-0.069196,0.000000,0.023741,-0.168253,-0.000000
0.360000,-2.748168,0.289290,-1.496676,0.159168,-0.095194,-0.017912,0.707316,-0.347573,-0.154673,1.679760,0.333132,-0.341831,-2.932665,11.237463,1.805990,-0.034779,-0.070864,0.000000,0.034907,-0.165204,-0.000000
0.370000,-2.746541,0.288321,-1.496863,0.166325,-0.098653,-0.019476,0.723973,-0.343682,-0.158000,1.651368,0.445348,-0.323746,-2.956625,11.294399,1.796402,-0.034374,-0.072502,0.000000,0.046029,-0.162355,0.000000
0.380000,-2.744842,0.287317,-1.497065,0.173647,-0.102068,-0.021072,0.740344,-0.338666,-0.161148,1.620627,0.559020,-0.305903,-3.175676,11.430167,1.766891,-0.033858,-0.074113,0.000000,0.057284,-0.159284,-0.000000
0.390000,-2.743068,0.286279,-1.497284,0.181132,-0.105427,-0.022699,0.756385,-0.332502,-0.164118,1.587854,0.673952,-0.288409,-3.160665,11.457302,1.735626,-0.033229,-0.075690,0.000000,0.068655,-0.156021,-0.000000
0.400000,-2.741219,0.285208,-1.497519,0.188775,-0.108718,-0.024354,0.772101,-0.325187,-0.166916,1.557414,0.788166,-0.271190,-2.852205,11.348545,1.707117,-0.032485,-0.077235,0.000000,0.079947,-0.153001,0.000000
0.410000,-2.739293,0.284105,-1.497771,0.196574,-0.111931,-0.026037,0.787534,-0.316738,-0.169542,1.530810,0.900922,-0.254266,-2.550272,11.234724,1.670047,-0.031630,-0.078752,0.000000,0.091088,-0.150372,0.000000
0.420000,-2.737287,0.282970,-1.498040,0.204526,-0.115053,-0.027745,0.802717,-0.307169,-0.172001,1.506408,1.012861,-0.237789,-2.437728,11.197755,1.615633,-0.030664,-0.080244,0.000000,0.102142,-0.147970,-0.000000
0.430000,-2.735202,0.281804,-1.498326,0.212628,-0.118074,-0.029477,0.817662,-0.296481,-0.174298,1.482056,1.124878,-0.221954,-2.427181,11.199368,1.548209,-0.029587,-0.081712,0.000000,0.113201,-0.145578,-0.000000
0.440000,-2.733035,0.280608,-1.498630,0.220879,-0.120983,-0.031231,0.832358,-0.284671,-0.176440,1.457865,1.236848,-0.206825,-2.304409,11.142636,1.480555,-0.028400,-0.083157,0.000000,0.124252,-0.143205,-0.000000
0.450000,-2.730784,0.279384,-1.498951,0.229275,-0.123767,-0.033006,0.846819,-0.271744,-0.178434,1.435967,1.347730,-0.192343,-2.039497,11.013590,1.415664,-0.027102,-0.084578,0.000000,0.135194,-0.141064,-0.000000
0.460000,-2.728449,0.278133,-1.499290,0.237815,-0.126417,-0.034800,0.861077,-0.257716,-0.180287,1.417075,1.457120,-0.178512,-1.782230,10.879564,1.346219,-0.025696,-0.085979,0.000000,0.145986,-0.139225,0.000000
0.470000,-2.726028,0.276856,-1.499647,0.246497,-0.128922,-0.036612,0.875161,-0.242602,-0.182005,1.400323,1.565322,-0.165418,-1.625078,10.781945,1.267670,-0.024182,-0.087363,0.000000,0.156660,-0.137598,-0.000000
0.480000,-2.723519,0.275554,-1.500022,0.255318,-0.131269,-0.038440,0.889084,-0.226410,-0.183595,1.384573,1.672759,-0.153158,-1.524301,10.700779,1.183462,-0.022563,-0.088732,0.000000,0.167259,-0.136071,0.000000
0.490000,-2.720922,0.274230,-1.500416,0.264278,-0.133450,-0.040284,0.902852,-0.209147,-0.185068,1.369837,1.779337,-0.141749,-1.371419,10.586883,1.101162,-0.020837,-0.090085,0.000000,0.177772,-0.134642,0.000000
0.500000,-2.718234,0.272885,-1.500828,0.273375,-0.135452,-0.042141,0.916481,-0.190823,-0.186430,1.357145,1.884497,-0.131135,-1.152648,10.433093,1.022262,-0.019007,-0.091425,0.000000,0.188144,-0.133415,-0.000000
0.510000,-2.715454,0.271521,-1.501258,0.282608,-0.137266,-0.044012,0.929995,-0.171457,-0.187690,1.346784,1.987999,-0.121304,-0.943724,10.273310,0.943188,-0.017074,-0.092754,0.000000,0.198351,-0.132416,0.000000
0.520000,-2.712582,0.270140,-1.501708,0.291975,-0.138881,-0.045895,0.943416,-0.151063,-0.188856,1.338270,2.089963,-0.112271,-0.787203,10.128360,0.863502,-0.015040,-0.094074,0.000000,0.208404,-0.131596,0.000000
0.530000,-2.709615,0.268744,-1.502176,0.301476,-0.140288,-0.047789,0.956760,-0.129657,-0.189936,1.331040,2.190566,-0.104034,-0.660638,9.987781,0.785811,-0.012906,-0.095386,0.000000,0.218322,-0.130900,-0.000000
0.540000,-2.706552,0.267334,-1.502664,0.311111,-0.141475,-0.049694,0.970037,-0.107252,-0.190937,1.325058,2.289718,-0.096555,-0.515044,9.826553,0.712434,-0.010674,-0.096692,0.000000,0.228093,-0.130323,-0.000000
0.550000,-2.703393,0.265914,-1.503170,0.320877,-0.142433,-0.051608,0.983261,-0.083863,-0.191867,1.320739,2.387097,-0.089785,-0.345449,9.642611,0.643093,-0.008344,-0.097993,0.000000,0.237685,-0.129907,0.000000
0.560000,-2.700135,0.264486,-1.503696,0.330776,-0.143152,-0.053531,0.996452,-0.059510,-0.192733,1.318149,2.482571,-0.083693,-0.186127,9.452822,0.577938,-0.005920,-0.099290,0.000000,0.247084,-0.129656,0.000000
0.570000,-2.696777,0.263051,-1.504241,0.340806,-0.143623,-0.055463,1.009624,-0.034212,-0.193541,1.317016,2.576154,-0.078226,-0.054332,9.262663,0.521006,-0.003403,-0.100586,0.000000,0.256291,-0.129545,-0.000000
0.580000,-2.693319,0.261613,-1.504805,0.350968,-0.143836,-0.057402,1.022792,-0.007987,-0.194297,1.317062,2.667824,-0.073273,0.059521,9.066498,0.473937,-0.000794,-0.101881,0.000000,0.265301,-0.129547,0.000000
0.590000,-2.689758,0.260174,-1.505389,0.361262,-0.143783,-0.059349,1.035966,0.019145,-0.195006,1.318207,2.757484,-0.068747,0.174664,8.858365,0.433248,0.001903,-0.103177,0.000000,0.274105,-0.129653,0.000000
0.600000,-2.686093,0.258738,-1.505992,0.371688,-0.143453,-0.061302,1.049156,0.047163,-0.195672,1.320555,2.844991,-0.064608,0.296276,8.638441,0.396828,0.004688,-0.104474,0.000000,0.282687,-0.129874,0.000000
0.610000,-2.682324,0.257305,-1.506615,0.382245,-0.142839,-0.063262,1.062377,0.076045,-0.196299,1.324132,2.930253,-0.060811,0.410266,8.410528,0.368702,0.007557,-0.105775,0.000000,0.291037,-0.130213,-0.000000
0.620000,-2.678448,0.255881,-1.507257,0.392935,-0.141932,-0.065228,1.075639,0.105768,-0.196888,1.328761,3.013202,-0.057234,0.499094,8.175052,0.357295,0.010509,-0.107079,0.000000,0.299147,-0.130653,-0.000000
0.630000,-2.674465,0.254467,-1.507919,0.403758,-0.140724,-0.067200,1.088952,0.136309,-0.197443,1.334114,3.093754,-0.053665,0.566009,7.930766,0.363172,0.013540,-0.108388,0.000000,0.307009,-0.131163,-0.000000
0.640000,-2.670373,0.253066,-1.508601,0.414714,-0.139206,-0.069177,1.102321,0.167643,-0.197962,1.340081,3.171817,-0.049971,0.633073,7.677276,0.376970,0.016649,-0.109702,0.000000,0.314612,-0.131735,0.000000
0.650000,-2.666171,0.251683,-1.509303,0.425804,-0.137371,-0.071159,1.115754,0.199745,-0.198443,1.346776,3.247299,-0.046126,0.704588,7.413836,0.394699,0.019832,-0.111023,0.000000,0.321948,-0.132379,-0.000000
0.660000,-2.661857,0.250319,-1.510024,0.437029,-0.135211,-0.073146,1.129257,0.232589,-0.198884,1.354172,3.320094,-0.042077,0.764959,7.140646,0.424280,0.023088,-0.112350,0.000000,0.329004,-0.133093,-0.000000
0.670000,-2.657430,0.248978,-1.510766,0.448389,-0.132719,-0.075137,1.142837,0.266147,-0.199284,1.362075,3.390112,-0.037640,0.803659,6.860091,0.478545,0.026412,-0.113685,0.000000,0.335773,-0.133859,0.000000
0.680000,-2.652889,0.247664,-1.511527,0.459886,-0.129888,-0.077131,1.156498,0.300391,-0.199637,1.370246,3.457296,-0.032506,0.825348,6.572057,0.556945,0.029803,-0.115028,0.000000,0.342249,-0.134659,-0.000000
0.690000,-2.648233,0.246381,-1.512308,0.471519,-0.126712,-0.079129,1.170242,0.335293,-0.199934,1.378582,3.521553,-0.026501,0.842672,6.273134,0.643904,0.033257,-0.116380,0.000000,0.348425,-0.135484,0.000000
0.700000,-2.643459,0.245130,-1.513110,0.483291,-0.123182,-0.081130,1.184070,0.370822,-0.200167,1.387099,3.582758,-0.019628,0.856842,5.963261,0.732902,0.036772,-0.117740,0.000000,0.354289,-0.136336,0.000000
0.710000,-2.638567,0.243917,-1.513931,0.495201,-0.119295,-0.083133,1.197984,0.406948,-0.200327,1.395719,3.640818,-0.011843,0.859191,5.644585,0.835913,0.040343,-0.119108,0.000000,0.359832,-0.137208,0.000000
0.720000,-2.633555,0.242744,-1.514772,0.507250,-0.115043,-0.085137,1.211984,0.443639,-0.200404,1.404283,3.695650,-0.002909,0.846450,5.316245,0.971549,0.043968,-0.120486,0.000000,0.365049,-0.138087,0.000000
0.730000,-2.628422,0.241616,-1.515634,0.519441,-0.110422,-0.087141,1.226070,0.480861,-0.200385,1.412648,3.747143,0.007588,0.821180,4.977380,1.138041,0.047644,-0.121873,0.000000,0.369932,-0.138966,-0.000000
0.740000,-2.623166,0.240536,-1.516515,0.531772,-0.105426,-0.089144,1.240237,0.518581,-0.200252,1.420707,3.795198,0.019851,0.786983,4.629159,1.311631,0.051367,-0.123269,0.000000,0.374474,-0.139837,-0.000000
0.750000,-2.617786,0.239508,-1.517417,0.544245,-0.100051,-0.091146,1.254484,0.556765,-0.199988,1.428387,3.839726,0.033821,0.745545,4.271450,1.482989,0.055133,-0.124673,0.000000,0.378671,-0.140692,0.000000
0.760000,-2.612281,0.238535,-1.518338,0.556862,-0.094291,-0.093144,1.268805,0.595376,-0.199576,1.435617,3.880627,0.049511,0.694320,3.903309,1.669301,0.058940,-0.126087,0.000000,0.382513,-0.141527,-0.000000
0.770000,-2.606649,0.237622,-1.519280,0.569621,-0.088143,-0.095137,1.283196,0.634378,-0.198998,1.442274,3.917793,0.067207,0.627888,3.525384,1.895051,0.062784,-0.127509,0.000000,0.385997,-0.142334,0.000000
0.780000,-2.600889,0.236772,-1.520241,0.582525,-0.081603,-0.097124,1.297650,0.673732,-0.198232,1.448175,3.951134,0.087412,0.546842,3.138083,2.156718,0.066660,-0.128939,0.000000,0.389119,-0.143101,-0.000000
0.790000,-2.594999,0.235990,-1.521222,0.595574,-0.074669,-0.099102,1.312160,0.713400,-0.197249,1.453211,3.980554,0.110341,0.458441,2.740181,2.422130,0.070566,-0.130377,0.000000,0.391876,-0.143824,-0.000000
0.800000,-2.588977,0.235279,-1.522223,0.608769,-0.067335,-0.101069,1.326715,0.753343,-0.196025,1.457344,4.005938,0.135855,0.363729,2.330245,2.678982,0.074498,-0.131823,0.000000,0.394262,-0.144498,0.000000
0.810000,-2.582823,0.234643,-1.523243,0.622109,-0.059602,-0.103023,1.341306,0.793519,-0.194532,1.460485,4.027159,0.163921,0.257817,1.909054,2.949632,0.078451,-0.133275,0.000000,0.396269,-0.145115,-0.000000
0.820000,-2.576535,0.234087,-1.524283,0.635595,-0.051465,-0.104960,1.355924,0.833886,-0.192746,1.462500,4.044119,0.194847,0.139079,1.480021,3.264732,0.082423,-0.134734,0.000000,0.397894,-0.145668,-0.000000
0.830000,-2.570111,0.233614,-1.525343,0.649227,-0.042924,-0.106878,1.370556,0.874401,-0.190635,1.463267,4.056760,0.229215,0.008552,1.043039,3.618832,0.086409,-0.136198,0.000000,0.399142,-0.146156,0.000000
0.840000,-2.563551,0.233228,-1.526421,0.663006,-0.033977,-0.108772,1.385190,0.915021,-0.188162,1.462671,4.064980,0.267224,-0.131615,0.593161,3.970723,0.090406,-0.137668,0.000000,0.400013,-0.146571,0.000000
0.850000,-2.556851,0.232934,-1.527518,0.676931,-0.024623,-0.110641,1.399810,0.955701,-0.185291,1.460634,4.068623,0.308630,-0.276241,0.128466,4.305730,0.094410,-0.139142,0.000000,0.400496,-0.146905,0.000000
0.860000,-2.550012,0.232736,-1.528634,0.691002,-0.014863,-0.112478,1.414402,0.996394,-0.181989,1.457147,4.067549,0.353339,-0.427035,-0.347817,4.651563,0.098416,-0.140619,0.000000,0.400582,-0.147159,0.000000
0.870000,-2.543031,0.232637,-1.529768,0.705219,-0.004696,-0.114281,1.428953,1.037052,-0.178224,1.452094,4.061666,0.401661,-0.598987,-0.831621,5.042672,0.102421,-0.142100,0.000000,0.400274,-0.147326,-0.000000
0.880000,-2.535908,0.232642,-1.530919,0.719581,0.005878,-0.116043,1.443444,1.077627,-0.173956,1.445167,4.050917,0.454192,-0.792347,-1.324128,5.471318,0.106422,-0.143582,0.000000,0.399578,-0.147389,0.000000
0.890000,-2.528640,0.232754,-1.532089,0.734088,0.016857,-0.117760,1.457856,1.118070,-0.169140,1.436247,4.035184,0.511087,-0.985995,-1.831058,5.890370,0.110413,-0.145064,0.000000,0.398494,-0.147340,0.000000
0.900000,-2.521226,0.232979,-1.533275,0.748738,0.028239,-0.119426,1.472169,1.158331,-0.163735,1.425447,4.014296,0.571999,-1.174284,-2.353125,6.283438,0.114392,-0.146546,0.000000,0.397008,-0.147189,-0.000000
0.910000,-2.513665,0.233319,-1.534477,0.763531,0.040024,-0.121034,1.486365,1.198356,-0.157700,1.412761,3.988121,0.636756,-1.371400,-2.886808,6.681329,0.118353,-0.148027,0.000000,0.395115,-0.146934,0.000000
0.920000,-2.505955,0.233779,-1.535695,0.778466,0.052207,-0.122580,1.500424,1.238093,-0.150999,1.398019,3.956559,0.705626,-1.588066,-3.431631,7.121042,0.122294,-0.149506,0.000000,0.392813,-0.146566,-0.000000
0.930000,-2.498096,0.234363,-1.536929,0.793540,0.064785,-0.124054,1.514325,1.277487,-0.143588,1.381000,3.919489,0.779177,-1.819286,-3.989452,7.593095,0.126210,-0.150981,0.000000,0.390107,-0.146074,0.000000
0.940000,-2.490084,0.235075,-1.538176,0.808752,0.077756,-0.125451,1.528044,1.316483,-0.135416,1.361633,3.876770,0.857488,-2.050726,-4.561011,8.045743,0.130097,-0.152451,0.000000,0.386991,-0.145455,0.000000
0.950000,-2.481920,0.235918,-1.539438,0.824101,0.091115,-0.126763,1.541558,1.355023,-0.126438,1.339985,3.828269,0.940092,-2.280738,-5.143782,8.461757,0.133950,-0.153915,0.000000,0.383455,-0.144711,-0.000000
0.960000,-2.473602,0.236897,-1.540712,0.839583,0.104857,-0.127980,1.554844,1.393048,-0.116614,1.316018,3.773895,1.026723,-2.518131,-5.737889,8.874020,0.137766,-0.155371,0.000000,0.379492,-0.143837,-0.000000
0.970000,-2.465129,0.238016,-1.541997,0.855198,0.118976,-0.129095,1.567879,1.430501,-0.105904,1.289623,3.713511,1.117572,-2.764842,-6.351132,9.319209,0.141540,-0.156819,0.000000,0.375098,-0.142827,0.000000
0.980000,-2.456498,0.239277,-1.543293,0.870941,0.133467,-0.130098,1.580637,1.467319,-0.094263,1.260722,3.646872,1.213107,-3.017584,-6.984873,9.786006,0.145268,-0.158257,0.000000,0.370262,-0.141683,-0.000000
0.990000,-2.447710,0.240685,-1.544599,0.886810,0.148322,-0.130980,1.593093,1.503438,-0.081641,1.229271,3.573813,1.313292,-3.273218,-7.628574,10.221952,0.148946,-0.159683,0.000000,0.364973,-0.140402,-0.000000
1.000000,-2.438762,0.242243,-1.545913,0.902803,0.163536,-0.131731,1.605222,1.538795,-0.067997,1.195257,3.494301,1.417546,-3.528710,-8.274935,10.611632,0.152568,-0.161097,0.000000,0.359225,-0.138976,-0.000000
1.010000,-2.429654,0.243956,-1.547234,0.918915,0.179098,-0.132340,1.616998,1.573324,-0.053291,1.158697,3.408315,1.525525,-3.785398,-8.931830,10.987174,0.156131,-0.162496,0.000000,0.353013,-0.137402,0.000000
1.020000,-2.420384,0.245825,-1.548560,0.935143,0.195002,-0.132797,1.628396,1.606961,-0.037486,1.119549,3.315664,1.637290,-4.050625,-9.618505,11.377859,0.159629,-0.163879,0.000000,0.346323,-0.135678,0.000000
1.030000,-2.410951,0.247856,-1.549890,0.951483,0.211238,-0.133090,1.639389,1.639637,-0.020545,1.077684,3.215945,1.753082,-4.323809,-10.334542,11.770462,0.163057,-0.165244,0.000000,0.339121,-0.133796,-0.000000
1.040000,-2.401354,0.250050,-1.551222,0.967930,0.227795,-0.133208,1.649950,1.671280,-0.002425,1.033073,3.108973,1.872699,-4.593518,-11.053718,12.121631,0.166412,-0.166591,0.000000,0.331388,-0.131750,0.000000
1.050000,-2.391592,0.252412,-1.552554,0.984482,0.244663,-0.133138,1.660051,1.701817,0.016909,0.985814,2.994870,1.995515,-4.855401,-11.762011,12.424540,0.169686,-0.167916,0.000000,0.323123,-0.129541,-0.000000
1.060000,-2.381665,0.254943,-1.553884,1.001131,0.261831,-0.132870,1.669666,1.731177,0.037486,0.935965,2.873733,2.121190,-5.116339,-12.477809,12.703615,0.172874,-0.169219,0.000000,0.314329,-0.127168,-0.000000
1.070000,-2.371570,0.257648,-1.555211,1.017875,0.279287,-0.132389,1.678770,1.759292,0.059333,0.883487,2.745314,2.249587,-5.384346,-13.236413,12.963486,0.175972,-0.170498,0.000000,0.304975,-0.124623,0.000000
1.080000,-2.361307,0.260529,-1.556532,1.034707,0.297017,-0.131683,1.687336,1.786084,0.082477,0.828278,2.609005,2.380460,-5.658184,-14.035147,13.192949,0.178974,-0.171751,0.000000,0.294992,-0.121890,0.000000
1.090000,-2.350876,0.263589,-1.557845,1.051622,0.315008,-0.130739,1.695335,1.811472,0.106942,0.770323,2.464611,2.513446,-5.925334,-14.825366,13.380850,0.181873,-0.172976,0.000000,0.284348,-0.118962,0.000000
1.100000,-2.340275,0.266829,-1.559147,1.068614,0.333246,-0.129544,1.702742,1.835376,0.132746,0.709772,2.312497,2.648077,-6.170883,-15.581237,13.517336,0.184661,-0.174170,0.000000,0.273060,-0.115840,-0.000000
1.110000,-2.329503,0.270253,-1.560436,1.085676,0.351716,-0.128084,1.709531,1.857722,0.159904,0.646906,2.152986,2.783793,-6.402924,-16.336113,13.605133,0.187334,-0.175333,0.000000,0.261137,-0.112541,0.000000
1.120000,-2.318561,0.273864,-1.561709,1.102804,0.370401,-0.126346,1.715680,1.878436,0.188422,0.581713,1.985775,2.920179,-6.659766,-17.153940,13.662719,0.189884,-0.176461,0.000000,0.248529,-0.109052,0.000000
1.130000,-2.307447,0.277662,-1.562963,1.119990,0.389285,-0.124316,1.721165,1.897437,0.218307,0.513710,1.809908,3.057047,-6.936893,-18.026781,13.683203,0.192305,-0.177554,0.000000,0.235124,-0.105317,0.000000
1.140000,-2.296161,0.281649,-1.564195,1.137227,0.408350,-0.121980,1.725954,1.914634,0.249563,0.442975,1.625239,3.193843,-7.180354,-18.866256,13.634793,0.194587,-0.178607,0.000000,0.220877,-0.101329,-0.000000
1.150000,-2.284703,0.285829,-1.565402,1.154509,0.427577,-0.119324,1.730025,1.929942,0.282184,0.370103,1.432582,3.329743,-7.397676,-19.643859,13.530257,0.196722,-0.179619,0.000000,0.205830,-0.097126,0.000000
1.160000,-2.273071,0.290201,-1.566582,1.171828,0.446948,-0.116336,1.733356,1.943285,0.316158,0.295022,1.232362,3.464448,-7.622195,-20.418064,13.384150,0.198703,-0.180588,0.000000,0.189996,-0.092688,0.000000
1.170000,-2.261266,0.294767,-1.567729,1.189176,0.466443,-0.113001,1.735925,1.954589,0.351473,0.217660,1.024221,3.597426,-7.816756,-21.250452,13.141089,0.200522,-0.181510,0.000000,0.173302,-0.087992,0.000000
1.180000,-2.249288,0.299530,-1.568842,1.206546,0.486040,-0.109307,1.737710,1.963770,0.388107,0.138687,0.807353,3.727270,-7.966894,-22.123089,12.785250,0.202169,-0.182384,0.000000,0.155610,-0.083069,-0.000000
1.190000,-2.237135,0.304488,-1.569915,1.223930,0.505718,-0.105239,1.738699,1.970736,0.426019,0.058322,0.581759,3.853131,-8.124056,-22.950767,12.388459,0.203634,-0.183206,0.000000,0.136866,-0.077919,0.000000
1.200000,-2.224809,0.309644,-1.570946,1.241320,0.525455,-0.100786,1.738876,1.975405,0.465169,-0.023795,0.348338,3.975039,-8.292313,-23.704017,11.989542,0.204906,-0.183975,0.000000,0.117127,-0.072494,0.000000
1.210000,-2.212309,0.314997,-1.571931,1.258708,0.545226,-0.095936,1.738223,1.977703,0.505519,-0.107525,0.107679,4.092922,-8.434742,-24.437229,11.532359,0.205976,-0.184687,0.000000,0.096413,-0.066798,-0.000000
1.220000,-2.199635,0.320549,-1.572865,1.276085,0.565009,-0.090676,1.736726,1.977559,0.547028,-0.192489,-0.140407,4.205687,-8.552339,-25.215353,10.913378,0.206834,-0.185339,0.000000,0.074641,-0.060836,-0.000000
1.230000,-2.186787,0.326298,-1.573744,1.293443,0.584778,-0.084995,1.734373,1.974895,0.589633,-0.278571,-0.396628,4.311189,-8.658364,-26.020649,10.141297,0.207468,-0.185930,0.000000,0.051651,-0.054570,0.000000
1.240000,-2.173766,0.332244,-1.574565,1.310772,0.604507,-0.078883,1.731154,1.969626,0.633251,-0.365657,-0.660820,4.408513,-8.745571,-26.760475,9.350159,0.207866,-0.186455,0.000000,0.027391,-0.047979,-0.000000
1.250000,-2.160572,0.338388,-1.575322,1.328066,0.624170,-0.072330,1.727060,1.961678,0.677803,-0.453483,-0.931838,4.498193,-8.800131,-27.403596,8.581360,0.208015,-0.186910,0.000000,0.001940,-0.041088,-0.000000
1.260000,-2.147205,0.344728,-1.576012,1.345314,0.643740,-0.065327,1.722085,1.950989,0.723215,-0.541659,-1.208892,4.580140,-8.826744,-28.007674,7.739950,0.207903,-0.187294,0.000000,-0.024671,-0.033923,0.000000
1.270000,-2.133666,0.351262,-1.576629,1.362507,0.663190,-0.057866,1.716227,1.937501,0.769406,-0.630018,-1.491991,4.652992,-8.855198,-28.636506,6.723772,0.207520,-0.187603,0.000000,-0.052523,-0.026462,-0.000000
1.280000,-2.119955,0.357991,-1.577169,1.379638,0.682490,-0.049939,1.709484,1.921149,0.816275,-0.718763,-1.781622,4.714615,-8.881703,-29.266801,5.553531,0.206851,-0.187835,0.000000,-0.081763,-0.018628,-0.000000
1.290000,-2.106073,0.364912,-1.577627,1.396697,0.701613,-0.041540,1.701851,1.901868,0.863698,-0.807652,-2.077327,4.764062,-8.863698,-29.806110,4.362547,0.205883,-0.187984,0.000000,-0.112416,-0.010413,0.000000
1.300000,-2.092021,0.372024,-1.578000,1.413675,0.720528,-0.032665,1.693331,1.879603,0.911556,-0.896037,-2.377744,4.801866,-8.809765,-30.243951,3.218514,0.204601,-0.188047,0.000000,-0.144382,-0.001883,0.000000
1.310000,-2.077799,0.379323,-1.578281,1.430564,0.739205,-0.023309,1.683931,1.854313,0.959736,-0.983847,-2.682206,4.828432,-8.745560,-30.634323,2.028155,0.202993,-0.188022,0.000000,-0.177627,0.006958,-0.000000
1.320000,-2.063409,0.386808,-1.578466,1.447354,0.757614,-0.013470,1.673654,1.825959,1.008125,-1.070948,-2.990430,4.842429,-8.632929,-30.977834,0.613952,0.201046,-0.187904,0.000000,-0.212195,0.016134,-0.000000
1.330000,-2.048852,0.394475,-1.578550,1.464037,0.775724,-0.003147,1.662512,1.794505,1.056584,-1.156506,-3.301763,4.840712,-8.457196,-31.246881,-1.003832,0.198747,-0.187692,0.000000,-0.248128,0.025631,0.000000
1.340000,-2.034129,0.402322,-1.578529,1.480604,0.793504,0.007661,1.650524,1.759924,1.104939,-1.240092,-3.615368,4.822353,-8.271380,-31.434676,-2.583194,0.196081,-0.187381,0.000000,-0.285390,0.035430,-0.000000
1.350000,-2.019240,0.410345,-1.578397,1.497047,0.810923,0.018952,1.637710,1.722197,1.153031,-1.321933,-3.930456,4.789048,-8.100973,-31.554792,-4.046056,0.193037,-0.186969,0.000000,-0.323884,0.045526,0.000000
1.360000,-2.004188,0.418541,-1.578150,1.513358,0.827948,0.030722,1.624085,1.681314,1.200720,-1.402112,-4.246464,4.741431,-7.906541,-31.601306,-5.554978,0.189601,-0.186452,0.000000,-0.363554,0.055921,0.000000
1.370000,-1.988973,0.426904,-1.577782,1.529529,0.844549,0.042966,1.609668,1.637268,1.247860,-1.480064,-4.562482,4.677948,-7.626322,-31.522775,-7.283686,0.185763,-0.185829,0.000000,-0.404343,0.066588,-0.000000
1.380000,-1.973597,0.435432,-1.577290,1.545552,0.860693,0.055679,1.594484,1.590065,1.294279,-1.554638,-4.876919,4.595758,-7.262188,-31.305667,-9.182551,0.181512,-0.185097,0.000000,-0.446132,0.077457,-0.000000
1.390000,-1.958062,0.444118,-1.576669,1.561419,0.876350,0.068852,1.578575,1.539730,1.339775,-1.625308,-5.188596,4.494297,-6.896955,-31.011177,-11.015044,0.176838,-0.184254,0.000000,-0.488777,0.088475,0.000000
1.400000,-1.942369,0.452959,-1.575913,1.577123,0.891488,0.082475,1.561978,1.486293,1.384165,-1.692577,-5.497143,4.375457,-6.602627,-30.694814,-12.713765,0.171734,-0.183299,0.000000,-0.532159,0.099650,0.000000
1.410000,-1.926519,0.461948,-1.575019,1.592658,0.906076,0.096535,1.544723,1.429787,1.427284,-1.757360,-5.802492,4.240022,-6.318367,-30.303305,-14.431128,0.166192,-0.182230,0.000000,-0.576199,0.111058,0.000000
1.420000,-1.910516,0.471080,-1.573983,1.608017,0.920084,0.111020,1.526831,1.370243,1.468965,-1.818945,-6.103209,4.086834,-5.850186,-29.672543,-16.310870,0.160208,-0.181046,0.000000,-0.620693,0.122630,0.000000
1.430000,-1.894359,0.480349,-1.572799,1.623195,0.933481,0.125915,1.508344,1.307723,1.509021,-1.874364,-6.395943,3.913804,-5.219819,-28.789752,-18.301513,0.153777,-0.179746,0.000000,-0.665208,0.134048,-0.000000
1.440000,-1.878052,0.489750,-1.571464,1.638184,0.946238,0.141201,1.489343,1.242324,1.547242,-1.923341,-6.679004,3.720804,-4.690273,-27.873714,-20.200863,0.146902,-0.178333,0.000000,-0.709427,0.145253,0.000000
1.450000,-1.861595,0.499274,-1.569975,1.652982,0.958327,0.156859,1.469878,1.174142,1.583437,-1.968170,-6.953417,3.509787,-4.240308,-27.092214,-21.947643,0.139587,-0.176809,0.000000,-0.753283,0.156436,0.000000
1.460000,-1.844992,0.508916,-1.568327,1.667582,0.969721,0.172870,1.449980,1.103256,1.617437,-2.008147,-7.220848,3.281851,-3.699927,-26.281813,-23.666440,0.131836,-0.175173,0.000000,-0.796807,0.167462,0.000000
1.470000,-1.828244,0.518669,-1.566518,1.681981,0.980393,0.189208,1.429715,1.029726,1.649074,-2.042168,-7.479053,3.036458,-3.190772,-24.994319,-25.479940,0.123651,-0.173430,0.000000,-0.839578,0.178172,0.000000
1.480000,-1.811352,0.528524,-1.564543,1.696176,0.990316,0.205851,1.409137,0.953675,1.678166,-2.071963,-7.720735,2.772252,-2.799593,-23.299820,-27.326571,0.115044,-0.171583,0.000000,-0.880547,0.188759,-0.000000
1.490000,-1.794320,0.538475,-1.562401,1.710164,0.999466,0.222772,1.388275,0.875311,1.704519,-2.098160,-7.945050,2.489927,-2.343665,-21.794764,-29.029437,0.106041,-0.169630,0.000000,-0.919372,0.199239,0.000000
1.500000,-1.777149,0.548513,-1.560088,1.723942,1.007822,0.239941,1.367174,0.794774,1.727965,-2.118836,-8.156630,2.191664,-1.656871,-20.317056,-30.644050,0.096659,-0.167576,0.000000,-0.956359,0.209295,0.000000
1.510000,-1.759841,0.558631,-1.557602,1.737507,1.015361,0.257331,1.345899,0.712178,1.748352,-2.131297,-8.351391,1.877046,-0.879387,-18.486255,-32.265536,0.086916,-0.165425,0.000000,-0.990796,0.218560,-0.000000
1.520000,-1.742399,0.568821,-1.554941,1.750860,1.022065,0.274908,1.324548,0.627746,1.765506,-2.136424,-8.526355,1.546353,-0.428769,-16.889295,-33.674402,0.076846,-0.163188,0.000000,-1.022070,0.227079,-0.000000
1.530000,-1.724824,0.579073,-1.552104,1.763998,1.027916,0.292641,1.303170,0.541651,1.779279,-2.139873,-8.689177,1.203558,-0.224491,-15.629349,-34.808858,0.066478,-0.160871,0.000000,-1.050837,0.235407,-0.000000
1.540000,-1.707119,0.589379,-1.549088,1.776923,1.032898,0.310494,1.281750,0.453962,1.789577,-2.140914,-8.838942,0.850176,0.285792,-13.881079,-35.959929,0.055833,-0.158471,0.000000,-1.076780,0.243387,-0.000000
1.550000,-1.689286,0.599731,-1.545894,1.789633,1.036996,0.328432,1.260352,0.364872,1.796283,-2.134157,-8.966798,0.484359,0.812588,-11.948367,-37.207408,0.044948,-0.155997,0.000000,-1.098630,0.250355,-0.000000
1.560000,-1.671326,0.610119,-1.542520,1.802130,1.040196,0.346420,1.239067,0.274626,1.799264,-2.124662,-9.077909,0.106028,1.014571,-10.363024,-38.334048,0.033866,-0.153460,0.000000,-1.116823,0.256883,0.000000
1.570000,-1.653243,0.620535,-1.538965,1.814415,1.042488,0.364418,1.217859,0.183314,1.798404,-2.113865,-9.174059,-0.282322,1.841277,-8.005913,-39.158362,0.022617,-0.150857,0.000000,-1.131406,0.263060,-0.000000
1.580000,-1.635038,0.630969,-1.535231,1.826487,1.043862,0.382388,1.196790,0.091145,1.793618,-2.087836,-9.238028,-0.677140,3.439383,-4.632095,-39.734166,0.011245,-0.148198,0.000000,-1.140119,0.267087,0.000000
1.590000,-1.616713,0.641412,-1.531318,1.838351,1.044311,0.400290,1.176102,-0.001446,1.784861,-2.045078,-9.266701,-1.077005,4.470086,-1.844830,-40.277827,-0.000178,-0.145516,0.000000,-1.142488,0.268730,0.000000
1.600000,-1.598271,0.651855,-1.527225,1.850009,1.043833,0.418085,1.155888,-0.094189,1.772078,-1.998434,-9.274924,-1.482696,4.846384,0.027131,-40.842893,-0.011598,-0.142825,0.000000,-1.140303,0.269559,0.000000
1.610000,-1.579713,0.662289,-1.522956,1.861468,1.042427,0.435732,1.136133,-0.186945,1.755207,-1.948150,-9.266158,-1.893863,5.466332,2.073539,-41.272234,-0.022978,-0.140126,0.000000,-1.133987,0.269590,-0.000000
1.620000,-1.561042,0.672703,-1.518511,1.872732,1.040094,0.453189,1.116925,-0.279512,1.734200,-1.889108,-9.233453,-2.308141,6.209268,4.770474,-41.409849,-0.034271,-0.137433,0.000000,-1.122721,0.268161,-0.000000
1.630000,-1.542259,0.683090,-1.513892,1.883807,1.036837,0.470416,1.098351,-0.371614,1.709044,-1.823965,-9.170749,-2.722060,6.705666,7.673868,-41.287723,-0.045426,-0.134761,0.000000,-1.105873,0.265552,-0.000000
1.640000,-1.523366,0.693440,-1.509102,1.894699,1.032662,0.487370,1.080446,-0.462927,1.679759,-1.754995,-9.079976,-3.133895,7.195149,10.206956,-41.100229,-0.056383,-0.132118,0.000000,-1.083841,0.262033,-0.000000
1.650000,-1.504365,0.703744,-1.504145,1.905416,1.027579,0.504011,1.063251,-0.553214,1.646366,-1.680062,-8.966610,-3.544064,8.020680,12.783309,-40.941060,-0.067097,-0.129513,0.000000,-1.057471,0.257384,0.000000
1.660000,-1.485257,0.713992,-1.499022,1.915964,1.021598,0.520297,1.046845,-0.642259,1.608878,-1.594581,-8.824310,-3.952717,8.972058,15.713931,-40.668732,-0.077528,-0.126960,0.000000,-1.026191,0.251097,-0.000000
1.670000,-1.466045,0.724176,-1.493739,1.926353,1.014733,0.536188,1.031360,-0.729700,1.567312,-1.500621,-8.652331,-4.357439,9.217189,17.757724,-40.022298,-0.087617,-0.124477,0.000000,-0.990184,0.243437,-0.000000
1.680000,-1.446730,0.734286,-1.488298,1.936591,1.007004,0.551644,1.016832,-0.815306,1.521729,-1.410237,-8.469155,-4.753162,8.906478,18.682993,-38.997205,-0.097328,-0.122073,0.000000,-0.951990,0.235817,0.000000
1.690000,-1.427313,0.744316,-1.482706,1.946689,0.998427,0.566623,1.003155,-0.899083,1.472249,-1.322491,-8.278671,-5.137383,9.129256,20.210498,-37.949237,-0.106654,-0.119739,0.000000,-0.912336,0.228123,-0.000000
1.700000,-1.407796,0.754255,-1.476966,1.956654,0.989022,0.581089,0.990382,-0.980879,1.418982,-1.227652,-8.064945,-5.512147,9.154561,22.933986,-37.220387,-0.115573,-0.117485,0.000000,-0.869559,0.219292,-0.000000
1.710000,-1.388180,0.764096,-1.471084,1.966497,0.978810,0.595003,0.978602,-1.060382,1.362006,-1.139400,-7.819991,-5.881791,8.311348,25.637347,-36.548369,-0.124045,-0.115324,0.000000,-0.822981,0.211035,-0.000000
1.720000,-1.368467,0.773831,-1.465066,1.976226,0.967814,0.608329,0.967594,-1.137279,1.301346,-1.061425,-7.552199,-6.243115,8.906197,27.030914,-35.015246,-0.132033,-0.113232,0.000000,-0.773916,0.203740,-0.000000
1.730000,-1.348656,0.783452,-1.458918,1.985849,0.956064,0.621030,0.957373,-1.211426,1.237143,-0.961276,-7.279373,-6.582096,10.939256,27.781278,-32.750452,-0.139524,-0.111214,0.000000,-0.724818,0.193536,-0.000000
1.740000,-1.328750,0.792952,-1.452645,1.995374,0.943586,0.633072,0.948369,-1.282866,1.169704,-0.842640,-6.996573,-6.898124,11.232967,29.488237,-30.993902,-0.146531,-0.109324,0.000000,-0.675350,0.180989,0.000000
1.750000,-1.308748,0.802324,-1.446256,2.004816,0.930407,0.644424,0.940521,-1.351357,1.099181,-0.736617,-6.689608,-7.201974,11.724104,30.168929,-29.394055,-0.153033,-0.107555,0.000000,-0.624022,0.169821,-0.000000
1.760000,-1.288653,0.811561,-1.439757,2.014184,0.916559,0.655055,0.933637,-1.416659,1.025664,-0.608158,-6.393194,-7.486005,14.365921,28.933780,-27.169962,-0.159014,-0.105887,0.000000,-0.574960,0.156029,-0.000000
1.770000,-1.268465,0.820655,-1.433155,2.023489,0.902074,0.664937,0.928357,-1.479221,0.949461,-0.449298,-6.110933,-7.745373,12.708834,31.705741,-25.618032,-0.164535,-0.104393,0.000000,-0.528660,0.138849,0.000000
1.780000,-1.248183,0.829602,-1.426458,2.032751,0.886974,0.674044,0.924651,-1.538877,0.870757,-0.353981,-5.759080,-7.998365,5.993577,38.655878,-25.037541,-0.169590,-0.103071,0.000000,-0.475975,0.128874,-0.000000
1.790000,-1.227810,0.838395,-1.419674,2.041982,0.871296,0.682352,0.921278,-1.594403,0.789493,-0.329427,-5.337815,-8.246124,3.261125,41.593456,-23.598913,-0.174059,-0.101779,0.000000,-0.417341,0.126600,-0.000000
1.800000,-1.207344,0.847028,-1.412811,2.051177,0.855086,0.689834,0.918062,-1.645634,0.705834,-0.288759,-4.927210,-8.470344,4.306088,42.181284,-21.347866,-0.177942,-0.100500,0.000000,-0.361704,0.122311,-0.000000
1.810000,-1.186786,0.855497,-1.405877,2.060343,0.838383,0.696469,0.915503,-1.692947,0.620087,-0.243305,-4.494190,-8.673081,3.134860,45.708985,-19.518729,-0.181298,-0.099293,0.000000,-0.305537,0.117354,0.000000
1.820000,-1.166137,0.863796,-1.398882,2.069487,0.821227,0.702236,0.913196,-1.735517,0.532373,-0.226061,-4.013031,-8.860718,2.832413,45.239233,-17.460509,-0.184058,-0.098114,0.000000,-0.246282,0.115257,0.000000
1.830000,-1.145396,0.871921,-1.391833,2.078607,0.803673,0.707116,0.910981,-1.773208,0.442872,-0.186657,-3.589405,-9.022291,6.315724,38.475770,-14.627557,-0.186229,-0.096948,0.000000,-0.195054,0.110589,0.000000
1.840000,-1.124565,0.879869,-1.384739,2.087707,0.785763,0.711093,0.909463,-1.807305,0.351927,-0.099747,-3.243515,-9.153269,8.725762,35.427272,-12.055952,-0.187963,-0.095863,0.000000,-0.153603,0.100847,0.000000
1.850000,-1.103642,0.887636,-1.377611,2.096796,0.767527,0.714155,0.908986,-1.838078,0.259807,-0.012141,-2.880859,-9.263410,4.688466,38.293540,-10.557916,-0.189305,-0.094894,0.000000,-0.112031,0.091096,-0.000000
1.860000,-1.082629,0.895220,-1.370456,2.105886,0.749002,0.716290,0.909220,-1.864923,0.166659,-0.005978,-2.477645,-9.364428,-2.009172,40.149084,-9.371509,-0.190208,-0.094007,0.000000,-0.067966,0.089718,0.000000
1.870000,-1.061525,0.902616,-1.363285,2.114981,0.730228,0.717488,0.908867,-1.887631,0.072518,-0.052325,-2.077878,-9.450841,2.242332,37.693990,-6.586450,-0.190668,-0.093067,0.000000,-0.025884,0.093410,-0.000000
1.880000,-1.040329,0.909824,-1.356107,2.124064,0.711249,0.717740,0.908173,-1.906480,-0.022358,0.038869,-1.723765,-9.496157,15.552705,33.840784,-2.592214,-0.190730,-0.092104,0.000000,0.010021,0.083000,-0.000000
1.890000,-1.019043,0.916841,-1.348930,2.133144,0.692099,0.717041,0.909644,-1.922106,-0.117405,0.258729,-1.401062,-9.502685,19.661776,32.464072,0.055805,-0.190471,-0.091374,0.000000,0.041399,0.060028,0.000000
1.900000,-0.997666,0.923666,-1.341766,2.142257,0.672807,0.715392,0.913348,-1.934501,-0.212412,0.432104,-1.074483,-9.495041,20.304960,29.661540,2.391091,-0.189905,-0.090880,0.000000,0.071932,0.042095,-0.000000
1.910000,-0.976198,0.930297,-1.334622,2.151411,0.653409,0.712793,0.918286,-1.943596,-0.307306,0.664828,-0.807831,-9.454863,29.027248,23.320661,5.992416,-0.189035,-0.090516,0.000000,0.095450,0.018615,-0.000000
1.920000,-0.954638,0.936734,-1.327510,2.160622,0.633935,0.709246,0.926645,-1.950658,-0.401509,1.012649,-0.608070,-9.375192,25.273030,24.816848,7.319056,-0.187997,-0.090497,0.000000,0.111592,-0.015448,-0.000000
1.930000,-0.932986,0.942976,-1.320437,2.169944,0.614396,0.704762,0.938539,-1.955757,-0.494810,1.170289,-0.311494,-9.308482,4.287809,35.014070,5.727012,-0.186805,-0.090827,0.000000,0.136296,-0.030498,0.000000
1.940000,-0.911239,0.949022,-1.313415,2.179393,0.594820,0.699349,0.950050,-1.956888,-0.587679,1.098406,0.092211,-9.260652,-4.738374,38.176934,6.188033,-0.185274,-0.091118,0.000000,0.170193,-0.023647,0.000000
1.950000,-0.889398,0.954873,-1.306450,2.188945,0.575258,0.693009,0.960508,-1.953913,-0.680023,1.075522,0.452044,-9.184721,0.376903,35.097677,8.782645,-0.183404,-0.091309,0.000000,0.198855,-0.021800,-0.000000
1.960000,-0.867460,0.960527,-1.299554,2.198603,0.555742,0.685749,0.971561,-1.947847,-0.771373,1.105944,0.794165,-9.084999,-0.152056,36.216904,10.160384,-0.181299,-0.091561,0.000000,0.224995,-0.025052,-0.000000
1.970000,-0.845426,0.965987,-1.292736,2.208376,0.536301,0.677581,0.982626,-1.938030,-0.861723,1.072480,1.176382,-8.981514,-4.250920,35.260774,11.443030,-0.178906,-0.091819,0.000000,0.254039,-0.022446,-0.000000
1.980000,-0.823293,0.971253,-1.286003,2.218256,0.516981,0.668515,0.993010,-1.924319,-0.951003,1.020925,1.499380,-8.856139,-4.117349,28.151577,13.912077,-0.176220,-0.092018,0.000000,0.276822,-0.018478,0.000000
1.990000,-0.801061,0.976327,-1.279365,2.228236,0.497815,0.658561,1.003045,-1.908042,-1.038845,0.990134,1.739414,-8.703272,-4.361675,24.411289,15.722973,-0.173370,-0.092194,0.000000,0.291479,-0.016696,-0.000000
2.000000,-0.778728,0.981210,-1.272832,2.238317,0.478820,0.647738,1.012813,-1.889531,-1.125069,0.933692,1.987606,-8.541679,-10.996232,26.254311,16.177368,-0.170391,-0.092357,0.000000,0.306521,-0.012739,0.000000
2.010000,-0.756294,0.985903,-1.266410,2.248493,0.460024,0.636060,1.021719,-1.868290,-1.209679,0.770209,2.264500,-8.379725,-20.097775,26.988594,16.607728,-0.167240,-0.092453,0.000000,0.323756,0.000598,-0.000000
2.020000,-0.733758,0.990410,-1.260110,2.258751,0.441454,0.623544,1.028217,-1.844241,-1.292663,0.531736,2.527378,-8.209524,-17.798599,23.767594,18.159313,-0.163916,-0.092347,0.000000,0.339370,0.020136,0.000000
2.030000,-0.711119,0.994733,-1.253940,2.269057,0.423139,0.610207,1.032353,-1.817742,-1.373869,0.414237,2.739852,-8.016538,-5.424242,19.021873,20.309186,-0.160453,-0.092047,0.000000,0.350346,0.028510,0.000000
2.040000,-0.688377,0.998873,-1.247906,2.279398,0.405100,0.596067,1.036502,-1.789444,-1.452994,0.423251,2.907815,-7.803341,-1.535778,16.051571,21.616858,-0.156909,-0.091769,0.000000,0.357377,0.025641,-0.000000
2.050000,-0.665531,1.002835,-1.242018,2.289787,0.387350,0.581147,1.040818,-1.759586,-1.529936,0.383521,3.060884,-7.584201,-4.142015,13.687376,22.668567,-0.153305,-0.091527,0.000000,0.363077,0.027014,0.000000
2.060000,-0.642581,1.006620,-1.236283,2.300215,0.369908,0.565468,1.044172,-1.728226,-1.604678,0.340411,3.181563,-7.349969,-1.080373,9.932682,24.353245,-0.149647,-0.091222,0.000000,0.365935,0.028516,0.000000
2.070000,-0.619527,1.010233,-1.230709,2.310671,0.352786,0.549053,1.047627,-1.695955,-1.676936,0.361914,3.259537,-7.097136,-1.909597,8.095539,24.806103,-0.145986,-0.090950,0.000000,0.365205,0.024375,-0.000000
2.080000,-0.596368,1.013676,-1.225302,2.321167,0.335989,0.531929,1.051411,-1.663036,-1.746621,0.302219,3.343474,-6.853847,-11.212452,9.015838,23.673864,-0.142342,-0.090729,0.000000,0.365254,0.027298,-0.000000
2.090000,-0.573104,1.016952,-1.220070,2.331699,0.319525,0.514121,1.053671,-1.629085,-1.814013,0.137665,3.439854,-6.623659,-14.858195,8.028410,23.585612,-0.138680,-0.090399,0.000000,0.366611,0.039106,0.000000
2.100000,-0.549734,1.020066,-1.215020,2.342240,0.303407,0.495649,1.054164,-1.594239,-1.879094,0.005055,3.504042,-6.382135,-11.767405,4.751287,24.577749,-0.135009,-0.089940,0.000000,0.365389,0.047973,-0.000000
2.110000,-0.526259,1.023021,-1.210157,2.352782,0.287640,0.476539,1.053772,-1.559004,-1.941655,-0.097683,3.534880,-6.132104,-11.634614,2.385390,24.883189,-0.131371,-0.089431,0.000000,0.361584,0.054192,0.000000
2.120000,-0.502678,1.025819,-1.205489,2.363316,0.272227,0.456816,1.052210,-1.523541,-2.001736,-0.227637,3.551750,-5.884471,-12.735115,0.751813,25.127331,-0.127777,-0.088847,0.000000,0.356902,0.062636,0.000000
2.130000,-0.478993,1.028465,-1.201021,2.373826,0.257169,0.436504,1.049219,-1.487969,-2.059345,-0.352386,3.549916,-5.629558,-11.572415,-1.279319,25.957130,-0.124232,-0.088168,0.000000,0.350892,0.070512,-0.000000
2.140000,-0.455202,1.030962,-1.196759,2.384300,0.242468,0.415629,1.045163,-1.452543,-2.114327,-0.459085,3.526163,-5.365329,-11.387902,-3.160662,26.367758,-0.120758,-0.087426,0.000000,0.343305,0.076780,0.000000
2.150000,-0.431307,1.033314,-1.192708,2.394729,0.228119,0.394218,1.040038,-1.417446,-2.166651,-0.580144,3.486703,-5.102202,-12.978558,-4.666280,26.236066,-0.117365,-0.086621,0.000000,0.334742,0.084211,-0.000000
2.160000,-0.407307,1.035525,-1.188875,2.405101,0.214119,0.372296,1.033560,-1.382809,-2.216371,-0.718656,3.432838,-4.840607,-14.000207,-6.208349,26.271671,-0.114062,-0.085730,0.000000,0.325313,0.093048,-0.000000
2.170000,-0.383205,1.037597,-1.185263,2.415401,0.200462,0.349890,1.025665,-1.348789,-2.263463,-0.860148,3.362536,-4.576769,-14.202062,-7.865520,26.376558,-0.110858,-0.084748,0.000000,0.314831,0.102074,-0.000000
2.180000,-0.358999,1.039534,-1.181877,2.425614,0.187143,0.327027,1.016357,-1.315558,-2.307907,-1.002698,3.275527,-4.313076,-14.403816,-9.499743,26.303020,-0.107764,-0.083676,0.000000,0.303300,0.111162,-0.000000
2.190000,-0.334692,1.041340,-1.178722,2.435728,0.174151,0.303732,1.005611,-1.283279,-2.349725,-1.148224,3.172541,-4.050709,-14.722664,-11.034865,26.260710,-0.104791,-0.082512,0.000000,0.290784,0.120485,-0.000000
2.200000,-0.310285,1.043017,-1.175802,2.445727,0.161477,0.280032,0.993392,-1.252107,-2.388921,-1.297151,3.054830,-3.787862,-15.026690,-12.416741,26.299065,-0.101948,-0.081254,0.000000,0.277365,0.130073,-0.000000
2.210000,-0.285778,1.044569,-1.173121,2.455596,0.149109,0.255954,0.979668,-1.222182,-2.425482,-1.448758,2.924206,-3.524727,-15.267440,-13.692189,26.274238,-0.099243,-0.079897,0.000000,0.263185,0.139879,-0.000000
2.220000,-0.261173,1.045999,-1.170683,2.465320,0.137034,0.231523,0.964417,-1.193623,-2.459415,-1.602500,2.780986,-3.262377,-15.518052,-15.048297,26.204954,-0.096683,-0.078442,0.000000,0.248268,0.149876,0.000000
2.230000,-0.236471,1.047310,-1.168491,2.474884,0.125237,0.206765,0.947618,-1.166562,-2.490730,-1.759119,2.623240,-3.000628,-15.791110,-16.453306,26.152528,-0.094276,-0.076886,0.000000,0.232445,0.160133,0.000000
2.240000,-0.211675,1.048504,-1.166548,2.484272,0.113702,0.181708,0.929235,-1.141158,-2.519428,-1.918322,2.451920,-2.739327,-15.982788,-17.649074,26.086547,-0.092033,-0.075225,0.000000,0.215781,0.170635,-0.000000
2.250000,-0.186786,1.049584,-1.164857,2.493469,0.102413,0.156377,0.909251,-1.117524,-2.545516,-2.078775,2.270259,-2.478897,-16.114898,-18.738376,25.972392,-0.089960,-0.073458,0.000000,0.198523,0.181289,-0.000000
2.260000,-0.161806,1.050552,-1.163420,2.502457,0.091352,0.130798,0.887659,-1.095753,-2.569006,-2.240620,2.077153,-2.219879,-16.254816,-19.877129,25.842039,-0.088062,-0.071584,0.000000,0.180571,0.192121,0.000000
2.270000,-0.136737,1.051411,-1.162241,2.511222,0.080498,0.104997,0.864439,-1.075981,-2.589914,-2.403871,1.872716,-1.962056,-16.308677,-20.699660,25.783512,-0.086348,-0.069601,0.000000,0.161914,0.203142,-0.000000
2.280000,-0.111581,1.052162,-1.161320,2.519746,0.069832,0.078999,0.839582,-1.058299,-2.608247,-2.566793,1.663159,-1.704209,-16.250647,-21.133052,25.798775,-0.084823,-0.067506,0.000000,0.143022,0.214218,0.000000
2.290000,-0.086342,1.052808,-1.160661,2.528014,0.059332,0.052832,0.813103,-1.042718,-2.623998,-2.728884,1.450055,-1.446081,-16.215117,-21.686739,25.776863,-0.083487,-0.065301,0.000000,0.123998,0.225320,-0.000000
2.300000,-0.061021,1.053349,-1.160264,2.536008,0.048978,0.026519,0.785004,-1.029298,-2.637169,-2.891096,1.229425,-1.188671,-16.205004,-22.410756,25.675113,-0.082343,-0.062983,0.000000,0.104510,0.236544,0.000000
2.310000,-0.035622,1.053787,-1.160130,2.543714,0.038746,0.000088,0.755281,-1.018129,-2.647771,-3.052984,1.001840,-0.932579,-16.129602,-22.954846,25.576716,-0.081396,-0.060553,0.000000,0.084585,0.247868,0.000000
2.320000,-0.010147,1.054124,-1.160262,2.551114,0.028615,-0.026436,0.723945,-1.009261,-2.655820,-3.213688,0.770328,-0.677137,-16.020938,-23.305230,25.595873,-0.080651,-0.058009,0.000000,0.064440,0.259232,-0.000000
2.330000,0.015401,1.054360,-1.160659,2.558193,0.018561,-0.053028,0.691007,-1.002723,-2.661314,-3.373403,0.535735,-0.420661,-15.914512,-23.589458,25.716767,-0.080107,-0.055351,0.000000,0.044107,0.270658,0.000000
2.340000,0.041017,1.054495,-1.161322,2.564934,0.008561,-0.079662,0.656476,-0.998546,-2.664233,-3.531978,0.298539,-0.162802,-15.758088,-23.791821,25.793412,-0.079768,-0.052578,0.000000,0.023601,0.282145,-0.000000
2.350000,0.066699,1.054531,-1.162252,2.571322,-0.001410,-0.106313,0.620368,-0.996752,-2.664570,-3.688565,0.059899,0.095207,-15.527950,-23.851721,25.773934,-0.079635,-0.049690,0.000000,0.002998,0.293645,-0.000000
2.360000,0.092444,1.054467,-1.163449,2.577341,-0.011374,-0.132954,0.582705,-0.997348,-2.662329,-3.842537,-0.178496,0.352677,-15.262166,-23.787397,25.762317,-0.079708,-0.046686,0.000000,-0.017585,0.305124,0.000000
2.370000,0.118246,1.054303,-1.164911,2.582976,-0.021357,-0.159559,0.543517,-1.000322,-2.657517,-3.993808,-0.415849,0.610453,-15.005318,-23.720085,25.892554,-0.079987,-0.043567,0.000000,-0.038113,0.316583,0.000000
2.380000,0.144103,1.054040,-1.166640,2.588212,-0.031381,-0.186104,0.502829,-1.005665,-2.650120,-4.142643,-0.652898,0.870528,-14.742871,-23.634930,26.139520,-0.080471,-0.040333,0.000000,-0.058680,0.328052,-0.000000
2.390000,0.170010,1.053676,-1.168634,2.593033,-0.041470,-0.212562,0.460664,-1.013380,-2.640106,-4.288665,-0.888548,1.133244,-14.417252,-23.368217,26.327588,-0.081161,-0.036984,0.000000,-0.079225,0.339513,-0.000000
2.400000,0.195964,1.053210,-1.170891,2.597425,-0.051648,-0.238906,0.417056,-1.023436,-2.627455,-4.430988,-1.120262,1.397080,-14.043827,-22.991274,26.403711,-0.082056,-0.033520,0.000000,-0.099557,0.350914,0.000000
2.410000,0.221959,1.052643,-1.173412,2.601374,-0.061939,-0.265111,0.372044,-1.035785,-2.612165,-4.569542,-1.348373,1.661318,-13.658994,-22.605874,26.488041,-0.083152,-0.029941,0.000000,-0.119719,0.362266,0.000000
2.420000,0.247991,1.051972,-1.176193,2.604866,-0.072364,-0.291149,0.325665,-1.050403,-2.594229,-4.704168,-1.572379,1.926841,-13.209434,-21.967364,26.706861,-0.084451,-0.026248,0.000000,-0.139700,0.373566,-0.000000
2.430000,0.274056,1.051195,-1.179235,2.607887,-0.082947,-0.316995,0.277961,-1.067233,-2.573628,-4.833731,-1.787720,2.195455,-12.679617,-21.026831,27.024837,-0.085947,-0.022442,0.000000,-0.159165,0.384733,0.000000
2.440000,0.300149,1.050313,-1.182533,2.610425,-0.093709,-0.342622,0.228990,-1.086158,-2.550320,-4.957761,-1.992916,2.467337,-12.145745,-20.130682,27.274050,-0.087634,-0.018524,0.000000,-0.178018,0.395744,0.000000
2.450000,0.326265,1.049321,-1.186087,2.612467,-0.104670,-0.368002,0.178806,-1.107091,-2.524281,-5.076645,-2.190334,2.740936,-11.619657,-19.342145,27.412458,-0.089508,-0.014496,0.000000,-0.196455,0.406647,-0.000000
2.460000,0.352398,1.048219,-1.189893,2.614001,-0.115850,-0.393108,0.127457,-1.129965,-2.495501,-5.190154,-2.379759,3.015586,-11.048982,-18.424581,27.550427,-0.091564,-0.010357,0.000000,-0.214472,0.417436,0.000000
2.470000,0.378545,1.047004,-1.193949,2.615016,-0.127269,-0.417912,0.075003,-1.154686,-2.463969,-5.297625,-2.558826,3.291945,-10.421682,-17.291080,27.779067,-0.093798,-0.006111,0.000000,-0.231898,0.428070,-0.000000
2.480000,0.404699,1.045674,-1.198252,2.615501,-0.138944,-0.442387,0.021505,-1.181141,-2.429662,-5.398587,-2.725580,3.571168,-9.754039,-16.021561,28.060124,-0.096203,-0.001757,0.000000,-0.248600,0.438522,-0.000000
2.490000,0.430855,1.044225,-1.202797,2.615446,-0.150892,-0.466505,-0.032969,-1.209198,-2.392546,-5.492706,-2.879257,3.853147,-9.058930,-14.720021,28.269669,-0.098771,0.002702,0.000000,-0.264527,0.448780,-0.000000
2.500000,0.457008,1.042656,-1.207582,2.614842,-0.163128,-0.490238,-0.088349,-1.238726,-2.352599,-5.579766,-3.019981,4.136561,-8.349869,-13.408177,28.386612,-0.101495,0.007264,0.000000,-0.279690,0.458837,0.000000
2.510000,0.483152,1.040963,-1.212602,2.613679,-0.175666,-0.513557,-0.144564,-1.269597,-2.309815,-5.659703,-3.147420,4.420879,-7.618304,-12.022041,28.487356,-0.104366,0.011927,0.000000,-0.294066,0.468699,-0.000000
2.520000,0.509281,1.039143,-1.217853,2.611950,-0.188520,-0.536434,-0.201543,-1.301675,-2.264182,-5.732132,-3.260422,4.706308,-6.822135,-10.499865,28.605290,-0.107377,0.016691,0.000000,-0.307571,0.478344,0.000000
2.530000,0.535391,1.037192,-1.223330,2.609648,-0.201700,-0.558841,-0.259207,-1.334806,-2.215688,-5.796146,-3.357418,4.992985,-5.961551,-8.861900,28.707591,-0.110518,0.021551,0.000000,-0.320081,0.487708,0.000000
2.540000,0.561474,1.035109,-1.229030,2.606766,-0.215216,-0.580748,-0.317466,-1.368823,-2.164322,-5.851363,-3.437660,5.280460,-5.095852,-7.197152,28.744664,-0.113779,0.026506,0.000000,-0.331533,0.496766,-0.000000
2.550000,0.587526,1.032888,-1.234945,2.603299,-0.229076,-0.602127,-0.376234,-1.403559,-2.110079,-5.898063,-3.501361,5.567879,-4.245875,-5.547554,28.719857,-0.117150,0.031553,0.000000,-0.341936,0.505548,-0.000000
2.560000,0.613540,1.030527,-1.241072,2.599242,-0.243287,-0.622950,-0.435427,-1.438850,-2.052964,-5.936281,-3.548611,5.854857,-3.371921,-3.858087,28.656630,-0.120619,0.036688,0.000000,-0.351289,0.514060,-0.000000
2.570000,0.639511,1.028022,-1.247404,2.594590,-0.257853,-0.643186,-0.494960,-1.474531,-1.992982,-5.965501,-3.578523,6.141011,-2.429347,-2.033773,28.526834,-0.124177,0.041911,0.000000,-0.359508,0.522264,-0.000000
2.580000,0.665432,1.025370,-1.253936,2.589342,-0.272778,-0.662809,-0.554738,-1.510421,-1.930144,-5.984868,-3.589286,6.425394,-1.430086,-0.093892,28.310893,-0.127810,0.047216,0.000000,-0.366424,0.530086,-0.000000
2.590000,0.691298,1.022567,-1.260661,2.583496,-0.288062,-0.681789,-0.614657,-1.546317,-1.864474,-5.994103,-3.580400,6.707229,-0.435622,1.823528,28.039154,-0.131506,0.052601,0.000000,-0.371970,0.537501,-0.000000
2.600000,0.717102,1.019609,-1.267572,2.577049,-0.303704,-0.700099,-0.674620,-1.582029,-1.796000,-5.993580,-3.552816,6.986177,0.533790,3.682154,27.738773,-0.135251,0.058061,0.000000,-0.376203,0.544534,0.000000
2.610000,0.742839,1.016493,-1.274662,2.570003,-0.319702,-0.717709,-0.734529,-1.617373,-1.724751,-5.983427,-3.506757,7.262004,1.517723,5.566995,27.378412,-0.139031,0.063594,0.000000,-0.379118,0.551194,0.000000
2.620000,0.768502,1.013215,-1.281926,2.562359,-0.336052,-0.734594,-0.794288,-1.652164,-1.650760,-5.963226,-3.441476,7.533745,2.560454,7.539569,26.872236,-0.142834,0.069194,0.000000,-0.380616,0.557435,0.000000
2.630000,0.794086,1.009772,-1.289354,2.554118,-0.352746,-0.750725,-0.853793,-1.686203,-1.574076,-5.932218,-3.355966,7.799449,3.649435,9.566070,26.215381,-0.146644,0.074859,0.000000,-0.380556,0.563169,-0.000000
2.640000,0.819584,1.006160,-1.296940,2.545283,-0.369776,-0.766075,-0.912932,-1.719283,-1.494771,-5.890237,-3.250154,8.058053,4.721930,11.554378,25.514944,-0.150446,0.080582,0.000000,-0.378880,0.568361,-0.000000
2.650000,0.844991,1.002376,-1.304676,2.535859,-0.387131,-0.780620,-0.971598,-1.751206,-1.412915,-5.837780,-3.124878,8.309748,5.754656,13.479523,24.826552,-0.154222,0.086357,0.000000,-0.375622,0.573038,-0.000000
2.660000,0.870301,0.998417,-1.312553,2.525851,-0.404800,-0.794334,-1.029688,-1.781781,-1.328576,-5.775144,-2.980564,8.554584,6.786896,15.392428,24.067639,-0.157959,0.092181,0.000000,-0.370773,0.577208,0.000000
2.670000,0.895508,0.994280,-1.320563,2.515265,-0.422767,-0.807191,-1.087101,-1.810817,-1.241823,-5.702042,-2.817030,8.791101,7.868690,17.332063,23.083781,-0.161638,0.098049,0.000000,-0.364250,0.580815,0.000000
2.680000,0.920607,0.989962,-1.328697,2.504109,-0.441016,-0.819170,-1.143729,-1.838121,-1.152754,-5.617770,-2.633923,9.016260,8.985994,19.273731,21.885562,-0.165244,0.103953,0.000000,-0.355924,0.583743,0.000000
2.690000,0.945591,0.985460,-1.336946,2.492391,-0.459529,-0.830247,-1.199456,-1.863496,-1.061498,-5.522322,-2.431555,9.228812,10.066540,21.151137,20.674212,-0.168757,0.109886,0.000000,-0.345738,0.585944,-0.000000
2.700000,0.970455,0.980771,-1.345302,2.480120,-0.478286,-0.840400,-1.254175,-1.886752,-0.968177,-5.416439,-2.210900,9.429744,11.091388,22.944649,19.528585,-0.172159,0.115842,0.000000,-0.333724,0.587454,-0.000000
2.710000,0.995193,0.975894,-1.353754,2.467307,-0.497264,-0.849610,-1.307785,-1.907714,-0.872903,-5.300494,-1.972662,9.619384,12.104473,24.686292,18.305360,-0.175431,0.121812,0.000000,-0.319880,0.588274,-0.000000
2.720000,1.019801,0.970826,-1.362294,2.453964,-0.516440,-0.857858,-1.360185,-1.926206,-0.775790,-5.174350,-1.717174,9.795851,13.138178,26.397347,16.804504,-0.178556,0.127791,0.000000,-0.304132,0.588330,-0.000000
2.730000,1.044272,0.965565,-1.370911,2.440103,-0.535789,-0.865126,-1.411272,-1.942057,-0.676986,-5.037730,-1.444715,9.955474,14.172957,28.052197,15.058708,-0.181513,0.133770,0.000000,-0.286364,0.587502,0.000000
2.740000,1.068603,0.960110,-1.379596,2.425739,-0.555282,-0.871398,-1.460940,-1.955100,-0.576680,-4.890891,-1.156130,10.097025,15.160126,29.607333,13.332989,-0.184282,0.139738,0.000000,-0.266541,0.585737,-0.000000
2.750000,1.092787,0.954460,-1.388339,2.410885,-0.574891,-0.876659,-1.509090,-1.965180,-0.475045,-4.734528,-0.852569,10.222134,16.098981,31.087706,11.718383,-0.186842,0.145687,0.000000,-0.244702,0.583058,-0.000000
2.760000,1.116820,0.948612,-1.397129,2.395557,-0.594585,-0.880899,-1.555630,-1.972151,-0.372238,-4.568911,-0.534376,10.331393,17.015084,32.505861,10.033597,-0.189174,0.151607,0.000000,-0.220796,0.579435,-0.000000
2.770000,1.140698,0.942568,-1.405957,2.379772,-0.614334,-0.884104,-1.600468,-1.975867,-0.268418,-4.394226,-0.202451,10.422806,17.891852,33.755204,8.060201,-0.191257,0.157486,0.000000,-0.194775,0.574792,-0.000000
2.780000,1.164416,0.936326,-1.414812,2.363547,-0.634103,-0.886267,-1.643515,-1.976200,-0.163781,-4.211074,0.140728,10.492597,18.711958,34.808912,5.849389,-0.193068,0.163316,0.000000,-0.166700,0.569052,0.000000
2.790000,1.187969,0.929886,-1.423682,2.346902,-0.653858,-0.887380,-1.684690,-1.973053,-0.058566,-4.019987,0.493727,10.539793,19.492340,35.799434,3.695174,-0.194588,0.169083,0.000000,-0.136587,0.562165,-0.000000
2.800000,1.211354,0.923249,-1.432559,2.329854,-0.673564,-0.887438,-1.723915,-1.966326,0.047014,-3.821227,0.856717,10.566500,20.251847,36.793983,1.680626,-0.195797,0.174775,0.000000,-0.104358,0.554102,0.000000
2.810000,1.234566,0.916415,-1.441431,2.312423,-0.693184,-0.886440,-1.761114,-1.955918,0.152764,-3.614950,1.229606,10.573406,20.970655,37.685779,-0.387974,-0.196672,0.180380,0.000000,-0.069930,0.544805,0.000000
2.820000,1.257602,0.909385,-1.450288,2.294631,-0.712682,-0.884383,-1.796214,-1.941734,0.258483,-3.401814,1.610432,10.558741,21.588048,38.287009,-2.692456,-0.197192,0.185884,0.000000,-0.033357,0.534217,0.000000
2.830000,1.280459,0.902161,-1.459119,2.276499,-0.732019,-0.881270,-1.829150,-1.923710,0.363939,-3.183189,1.995347,10.519557,22.100492,38.610831,-5.167807,-0.197336,0.191274,0.000000,0.005141,0.522323,0.000000
2.840000,1.303132,0.894745,-1.467913,2.258048,-0.751156,-0.877104,-1.859877,-1.901827,0.468874,-2.959804,2.382649,10.455385,22.582791,38.895517,-7.564906,-0.197086,0.196536,0.000000,0.045490,0.509084,0.000000
2.850000,1.325620,0.887138,-1.476661,2.239302,-0.770055,-0.871892,-1.888347,-1.876057,0.573047,-2.731533,2.773257,10.368259,23.065060,39.224509,-9.830019,-0.196422,0.201655,0.000000,0.087822,0.494428,0.000000
2.860000,1.347918,0.879343,-1.485351,2.220281,-0.788677,-0.865643,-1.914508,-1.846362,0.676239,-2.498503,3.167139,10.258784,23.489486,39.424364,-12.118832,-0.195325,0.206617,0.000000,0.132203,0.478280,0.000000
2.870000,1.370025,0.871364,-1.493974,2.201011,-0.806983,-0.858368,-1.938317,-1.812714,0.778223,-2.261744,3.561744,10.125882,23.772046,39.276683,-14.529134,-0.193774,0.211404,0.000000,0.178466,0.460624,-0.000000
2.880000,1.391939,0.863204,-1.502518,2.181515,-0.824932,-0.850079,-1.959743,-1.775127,0.878756,-2.023062,3.952673,9.968202,23.921562,38.819645,-16.998106,-0.191751,0.216002,0.000000,0.226239,0.441519,0.000000
2.890000,1.413656,0.854866,-1.510975,2.161817,-0.842485,-0.840793,-1.978778,-1.733660,0.977587,-1.783312,4.338137,9.785920,24.044241,38.334882,-19.384274,-0.189244,0.220397,0.000000,0.275357,0.420962,0.000000
2.900000,1.435175,0.846354,-1.519334,2.141940,-0.859605,-0.830527,-1.995409,-1.688364,1.074475,-1.542177,4.719370,9.580516,24.182321,37.917465,-21.673985,-0.186239,0.224572,0.000000,0.325934,0.398864,-0.000000
2.910000,1.456495,0.837674,-1.527586,2.121908,-0.876252,-0.819303,-2.009621,-1.639273,1.169197,-1.299666,5.096486,9.352440,24.258408,37.370401,-23.944305,-0.182720,0.228511,0.000000,0.377974,0.375152,0.000000
2.920000,1.477613,0.828829,-1.535720,2.101747,-0.892390,-0.807143,-2.021403,-1.586434,1.261524,-1.057009,5.466778,9.101630,24.159616,36.454188,-26.188946,-0.178675,0.232198,0.000000,0.431174,0.349874,-0.000000
2.930000,1.498529,0.819826,-1.543729,2.081480,-0.907981,-0.794073,-2.030762,-1.529937,1.351229,-0.816474,5.825570,8.828661,23.901865,35.222094,-28.361000,-0.174092,0.235618,0.000000,0.484966,0.323223,0.000000
2.940000,1.519243,0.810669,-1.551602,2.061132,-0.922989,-0.780119,-2.037732,-1.469923,1.438097,-0.578972,6.171220,8.534410,23.632853,33.990086,-30.454125,-0.168971,0.238759,0.000000,0.539064,0.295271,0.000000
2.950000,1.539752,0.801366,-1.559331,2.040726,-0.937380,-0.765311,-2.042341,-1.406513,1.521918,-0.343817,6.505372,8.219579,23.403605,32.836534,-32.508246,-0.163307,0.241605,0.000000,0.593525,0.265915,0.000000
2.960000,1.560057,0.791922,-1.566908,2.020285,-0.951119,-0.749680,-2.044608,-1.339815,1.602488,-0.110900,6.827951,7.884245,23.111365,31.549471,-34.505509,-0.157096,0.244145,0.000000,0.648210,0.235111,0.000000
2.970000,1.580158,0.782344,-1.574325,1.999833,-0.964176,-0.733261,-2.044559,-1.269954,1.679603,0.118411,7.136361,7.529469,22.629752,29.954579,-36.302977,-0.150339,0.246363,0.000000,0.702648,0.203019,-0.000000
2.980000,1.600054,0.772638,-1.581573,1.979394,-0.976518,-0.716088,-2.042240,-1.197088,1.753078,0.341695,7.427043,7.158186,21.974684,28.107703,-37.881214,-0.143040,0.248248,0.000000,0.756189,0.170002,-0.000000
2.990000,1.619746,0.762813,-1.588646,1.958989,-0.988118,-0.698199,-2.037725,-1.121413,1.822766,0.557904,7.698515,6.771844,21.317268,26.244171,-39.415350,-0.135213,0.249794,0.000000,0.808406,0.136247,0.000000
3.000000,1.639234,0.752876,-1.595537,1.938639,-0.998947,-0.679633,-2.031082,-1.043118,1.888515,0.768041,7.951926,6.369879,20.790438,24.508122,-40.969195,-0.126871,0.250995,0.000000,0.859189,0.101662,0.000000
3.010000,1.658518,0.742834,-1.602239,1.918367,-1.008980,-0.660429,-2.022364,-0.962375,1.950164,0.973713,8.188678,5.952460,20.273215,22.742378,-42.404867,-0.118029,0.251841,0.000000,0.908428,0.066108,0.000000
3.020000,1.677601,0.732696,-1.608746,1.898192,-1.018194,-0.640630,-2.011608,-0.879344,2.007564,1.173505,8.406774,5.521781,19.414474,20.575953,-43.543255,-0.108702,0.252323,0.000000,0.955569,0.029880,0.000000
3.030000,1.696482,0.722470,-1.615052,1.878135,-1.026567,-0.620278,-1.998894,-0.794239,2.060599,1.362003,8.600197,5.081595,18.271178,18.074771,-44.399889,-0.098918,0.252439,0.000000,0.999535,-0.006170,-0.000000
3.040000,1.715164,0.712165,-1.621151,1.858214,-1.034079,-0.599418,-1.984368,-0.707340,2.109196,1.538929,8.768269,4.633783,17.319800,15.751182,-45.196214,-0.088714,0.252197,0.000000,1.039887,-0.041831,0.000000
3.050000,1.733647,0.701789,-1.627040,1.838448,-1.040714,-0.578094,-1.968116,-0.618874,2.153275,1.708399,8.915221,4.177671,16.439582,13.551360,-46.060199,-0.078123,0.251597,0.000000,1.076830,-0.077502,0.000000
3.060000,1.751933,0.691351,-1.632713,1.818852,-1.046456,-0.556352,-1.950200,-0.529036,2.192749,1.867720,9.039296,3.712580,15.332264,11.155888,-46.823659,-0.067181,0.250640,0.000000,1.109845,-0.112750,-0.000000
3.070000,1.770024,0.680860,-1.638167,1.799444,-1.051294,-0.534239,-1.930761,-0.438088,2.227527,2.015044,9.138338,3.241198,14.458111,8.850726,-47.125965,-0.055931,0.249336,0.000000,1.138321,-0.147120,-0.000000
3.080000,1.787922,0.670325,-1.643398,1.780237,-1.055218,-0.511802,-1.909899,-0.346269,2.257573,2.156882,9.216311,2.770060,13.942203,6.767652,-46.996289,-0.044420,0.247693,0.000000,1.162431,-0.181066,-0.000000
3.090000,1.805628,0.659755,-1.648403,1.761246,-1.058220,-0.489087,-1.887624,-0.253762,2.282928,2.293888,9.273691,2.301272,13.135392,4.508706,-46.910849,-0.032689,0.245711,0.000000,1.182019,-0.214471,-0.000000
3.100000,1.823146,0.649160,-1.653180,1.742484,-1.060293,-0.466143,-1.864021,-0.160795,2.303599,2.419590,9.306485,1.831843,11.990088,2.063678,-46.987222,-0.020787,0.243401,0.000000,1.196399,-0.246481,-0.000000
3.110000,1.840478,0.638549,-1.657726,1.723965,-1.061436,-0.443015,-1.839232,-0.067632,2.319565,2.533690,9.314965,1.361528,10.952949,-0.280493,-46.895924,-0.008768,0.240780,0.000000,1.205424,-0.276917,0.000000
3.120000,1.857626,0.627932,-1.662040,1.705700,-1.061646,-0.419752,-1.813347,0.025504,2.330829,2.638649,9.300875,0.893925,9.981455,-2.596095,-46.377034,0.003314,0.237863,0.000000,1.209185,-0.305841,0.000000
3.130000,1.874592,0.617317,-1.666121,1.687698,-1.060926,-0.396399,-1.786459,0.118385,2.337443,2.733319,9.263043,0.433987,8.895667,-4.979949,-45.531775,0.015407,0.234665,0.000000,1.207468,-0.332832,0.000000
3.140000,1.891380,0.606713,-1.669968,1.669970,-1.059278,-0.373003,-1.758681,0.210765,2.339509,2.816563,9.201276,-0.016711,7.804385,-7.284832,-44.692913,0.027455,0.231207,0.000000,1.200254,-0.357591,0.000000
3.150000,1.907991,0.596131,-1.673581,1.652525,-1.056710,-0.349609,-1.730128,0.302411,2.337109,2.889407,9.117346,-0.459871,6.910891,-9.441166,-43.923216,0.039405,0.227512,0.000000,1.187817,-0.380208,0.000000
3.160000,1.924430,0.585579,-1.676960,1.635368,-1.053230,-0.326261,-1.700893,0.393112,2.330312,2.954780,9.012453,-0.895175,6.124739,-11.539932,-43.003235,0.051204,0.223599,0.000000,1.170399,-0.400968,-0.000000
3.170000,1.940699,0.575066,-1.680106,1.618507,-1.048848,-0.303002,-1.671032,0.482660,2.319206,3.011901,8.886548,-1.319936,4.952962,-13.675280,-41.792113,0.062805,0.219484,0.000000,1.148145,-0.419636,-0.000000
3.180000,1.956800,0.564602,-1.683020,1.601947,-1.043577,-0.279877,-1.640655,0.570843,2.303913,3.053840,8.738947,-1.731017,3.436153,-15.779879,-40.357984,0.074160,0.215192,0.000000,1.121159,-0.435206,0.000000
3.190000,1.972738,0.554195,-1.685704,1.585694,-1.037431,-0.256924,-1.609955,0.657439,2.284585,3.080624,8.570950,-2.127096,2.248980,-17.716798,-38.888899,0.085222,0.210759,0.000000,1.089842,-0.447640,-0.000000
3.200000,1.988514,0.543853,-1.688159,1.569748,-1.030428,-0.234185,-1.579042,0.742262,2.261371,3.098819,8.384611,-2.508795,1.296871,-19.658719,-37.468572,0.095952,0.206209,0.000000,1.054715,-0.457796,0.000000
3.210000,2.004133,0.533586,-1.690388,1.554113,-1.022586,-0.211697,-1.547979,0.825131,2.234409,3.106562,8.177776,-2.876467,0.147644,-21.665127,-35.977090,0.106312,0.201563,0.000000,1.015756,-0.465474,-0.000000
3.220000,2.019596,0.523402,-1.692393,1.538789,-1.013925,-0.189497,-1.516911,0.905817,2.203842,3.101772,7.951309,-3.228337,-0.761963,-23.183719,-34.206659,0.116263,0.196849,0.000000,0.973373,-0.470410,0.000000
3.230000,2.034908,0.513308,-1.694177,1.523775,-1.004470,-0.167620,-1.485943,0.984157,2.169843,3.091323,7.714101,-3.560600,-1.248646,-24.158363,-32.201838,0.125777,0.192093,0.000000,0.929061,-0.473434,0.000000
3.240000,2.050072,0.503312,-1.695745,1.509070,-0.994242,-0.146100,-1.455085,1.060099,2.132630,3.076799,7.468141,-3.872374,-1.940952,-25.339002,-30.255878,0.134843,0.187307,0.000000,0.883366,-0.474797,-0.000000
3.250000,2.065090,0.493423,-1.697099,1.494673,-0.983268,-0.124967,-1.424407,1.133520,2.092395,3.052503,7.207321,-4.165718,-2.965466,-26.826208,-28.395943,0.143443,0.182512,0.000000,0.835738,-0.473918,-0.000000
3.260000,2.079965,0.483647,-1.698244,1.480582,-0.971572,-0.104252,-1.394035,1.204246,2.049315,3.017490,6.931617,-4.440293,-3.879222,-28.100397,-26.440441,0.151557,0.177732,0.000000,0.786438,-0.470767,-0.000000
3.270000,2.094702,0.473992,-1.699184,1.466792,-0.959183,-0.083981,-1.364057,1.272153,2.003589,2.974919,6.645313,-4.694527,-4.504042,-29.032119,-24.393223,0.159172,0.172989,0.000000,0.736280,-0.465799,-0.000000
3.280000,2.109301,0.464463,-1.699924,1.453300,-0.946129,-0.064180,-1.334536,1.337152,1.955425,2.927409,6.350975,-4.928157,-4.984201,-29.785349,-22.336622,0.166284,0.168298,0.000000,0.685810,-0.459430,-0.000000
3.290000,2.123768,0.455069,-1.700468,1.440101,-0.932440,-0.044873,-1.305509,1.399172,1.905026,2.875235,6.049606,-5.141259,-5.521007,-30.489214,-20.270170,0.172890,0.163673,0.000000,0.635336,-0.451790,0.000000
3.300000,2.138103,0.445815,-1.700822,1.427190,-0.918145,-0.026080,-1.277031,1.458144,1.852599,2.816989,5.741191,-5.333561,-6.128531,-31.209233,-18.153387,0.178992,0.159127,0.000000,0.585020,-0.442797,0.000000
3.310000,2.152311,0.436706,-1.700990,1.414561,-0.903277,-0.007821,-1.249170,1.513996,1.798355,2.752664,5.425422,-5.504327,-6.673991,-31.857213,-16.009278,0.184593,0.154674,0.000000,0.534983,-0.432534,0.000000
3.320000,2.166394,0.427749,-1.700978,1.402207,-0.887865,0.009888,-1.221978,1.566652,1.742513,2.683509,5.104046,-5.653746,-7.099509,-32.198340,-13.965364,0.189695,0.150327,0.000000,0.485551,-0.421248,0.000000
3.330000,2.180355,0.418949,-1.700792,1.390121,-0.871944,0.027030,-1.195499,1.616077,1.685280,2.610674,4.781455,-5.783634,-7.457085,-32.249404,-12.037228,0.194307,0.146095,0.000000,0.437293,-0.409192,0.000000
3.340000,2.194197,0.410310,-1.700437,1.378297,-0.855544,0.043593,-1.169765,1.662282,1.626840,2.534367,4.459058,-5.894491,-7.813908,-32.330221,-10.071504,0.198444,0.141986,0.000000,0.390412,-0.396473,-0.000000
3.350000,2.207921,0.401838,-1.699920,1.366726,-0.838698,0.059567,-1.144812,1.705258,1.567390,2.454396,4.134851,-5.985064,-8.117411,-32.514307,-8.015317,0.202118,0.138007,0.000000,0.344736,-0.383114,-0.000000
3.360000,2.221531,0.393536,-1.699246,1.355401,-0.821439,0.074941,-1.120677,1.744979,1.507139,2.372019,3.808772,-6.054797,-8.329577,-32.586767,-5.990993,0.205342,0.134164,0.000000,0.300301,-0.369318,-0.000000
3.370000,2.235029,0.385409,-1.698421,1.344312,-0.803799,0.089709,-1.097372,1.781433,1.446294,2.287805,3.483115,-6.104884,-8.601673,-32.405324,-4.151187,0.208128,0.130461,0.000000,0.257349,-0.355225,-0.000000
3.380000,2.248418,0.377460,-1.697452,1.333453,-0.785810,0.103867,-1.074921,1.814641,1.385041,2.199986,3.160666,-6.137821,-8.941080,-32.053163,-2.477732,0.210492,0.126902,0.000000,0.216115,-0.340717,0.000000
3.390000,2.261698,0.369693,-1.696344,1.322814,-0.767506,0.117410,-1.053372,1.844647,1.323538,2.108983,2.842052,-6.154439,-9.140072,-31.714369,-0.786574,0.212453,0.123492,0.000000,0.176617,-0.325895,0.000000
3.400000,2.274874,0.362110,-1.695104,1.312386,-0.748917,0.130338,-1.032741,1.871482,1.261952,2.017184,2.526378,-6.153552,-9.266193,-31.343426,0.993484,0.214027,0.120233,0.000000,0.138750,-0.311046,0.000000
3.410000,2.287946,0.354715,-1.693737,1.302159,-0.730076,0.142649,-1.013028,1.895174,1.200467,1.923659,2.215183,-6.134569,-9.453353,-30.831535,2.722974,0.215231,0.117125,0.000000,0.102650,-0.296084,0.000000
3.420000,2.300917,0.347509,-1.692251,1.292125,-0.711014,0.154347,-0.994268,1.915786,1.139261,1.828117,1.909747,-6.099093,-9.453552,-30.339607,4.197571,0.216083,0.114171,0.000000,0.068361,-0.281023,-0.000000
3.430000,2.313789,0.340494,-1.690650,1.282274,-0.691760,0.165434,-0.976466,1.933369,1.078485,1.734588,1.608391,-6.050618,-9.207274,-29.912813,5.443746,0.216600,0.111370,0.000000,0.035566,-0.266370,0.000000
3.440000,2.326563,0.333673,-1.688942,1.272596,-0.672346,0.175917,-0.959576,1.947953,1.018249,1.643972,1.311491,-5.990218,-9.070639,-29.332248,6.720942,0.216796,0.108715,0.000000,0.004225,-0.252233,0.000000
3.450000,2.339241,0.327047,-1.687132,1.263082,-0.652801,0.185799,-0.943586,1.959599,0.958681,1.553175,1.021746,-5.916199,-9.112791,-28.615161,8.102496,0.216687,0.106203,0.000000,-0.025403,-0.238250,0.000000
3.460000,2.351824,0.320617,-1.685226,1.253724,-0.633154,0.195090,-0.928513,1.968388,0.899925,1.461716,0.739188,-5.828168,-9.091473,-27.915406,9.403534,0.216290,0.103835,0.000000,-0.053375,-0.224369,0.000000
3.470000,2.364315,0.314384,-1.683230,1.244512,-0.613434,0.203798,-0.914352,1.974383,0.842117,1.371346,0.463438,-5.728128,-8.913613,-27.133532,10.438671,0.215621,0.101607,0.000000,-0.079840,-0.210802,-0.000000
3.480000,2.376714,0.308349,-1.681150,1.235437,-0.593667,0.211933,-0.901086,1.977657,0.785362,1.283444,0.196517,-5.619395,-8.679458,-26.215725,11.259091,0.214695,0.099517,0.000000,-0.104724,-0.197724,-0.000000
3.490000,2.389024,0.302511,-1.678991,1.226490,-0.573880,0.219505,-0.888683,1.978313,0.729729,1.197757,-0.060876,-5.502946,-8.498599,-25.323159,12.100015,0.213528,0.097559,0.000000,-0.128041,-0.185104,0.000000
3.500000,2.401244,0.296871,-1.676760,1.217663,-0.554100,0.226527,-0.877131,1.976440,0.675303,1.113472,-0.309946,-5.377394,-8.266676,-24.493494,13.002809,0.212135,0.095728,0.000000,-0.149950,-0.172828,-0.000000
3.510000,2.413377,0.291429,-1.674461,1.208948,-0.534352,0.233011,-0.866414,1.972114,0.622181,1.032423,-0.550746,-5.242890,-7.927367,-23.622500,13.806931,0.210530,0.094022,0.000000,-0.170515,-0.161078,0.000000
3.520000,2.425423,0.286184,-1.672100,1.200335,-0.514658,0.238971,-0.856482,1.965425,0.570445,0.954924,-0.782396,-5.101256,-7.785803,-22.676576,14.417928,0.208726,0.092433,0.000000,-0.189740,-0.149889,-0.000000
3.530000,2.437384,0.281136,-1.669681,1.191818,-0.495043,0.244420,-0.847315,1.956466,0.520156,0.876707,-1.004278,-4.954532,-7.871504,-21.710402,14.884085,0.206736,0.090957,0.000000,-0.207666,-0.138817,0.000000
3.540000,2.449260,0.276283,-1.667211,1.183389,-0.475529,0.249374,-0.838948,1.945339,0.471355,0.797494,-1.216604,-4.803574,-7.766284,-20.769388,15.323400,0.204573,0.089596,0.000000,-0.224382,-0.127831,-0.000000
3.550000,2.461052,0.271625,-1.664694,1.175039,-0.456136,0.253847,-0.831365,1.932134,0.424085,0.721381,-1.419665,-4.648064,-7.465745,-19.766424,15.776592,0.202248,0.088345,0.000000,-0.239946,-0.117341,0.000000
3.560000,2.472760,0.267160,-1.662134,1.166762,-0.436886,0.257856,-0.824520,1.916946,0.378394,0.648179,-1.611932,-4.488042,-7.252962,-18.688392,16.164994,0.199774,0.087199,0.000000,-0.254245,-0.107309,0.000000
3.570000,2.484387,0.262887,-1.659537,1.158549,-0.417797,0.261415,-0.818402,1.899896,0.334324,0.576322,-1.793433,-4.324764,-7.042144,-17.801210,16.379970,0.197164,0.086155,0.000000,-0.267351,-0.097571,0.000000
3.580000,2.495931,0.258804,-1.656906,1.150393,-0.398888,0.264542,-0.812994,1.881077,0.291898,0.507337,-1.967957,-4.160443,-6.730505,-17.124545,16.447213,0.194427,0.085209,0.000000,-0.279722,-0.088286,-0.000000
3.590000,2.507395,0.254910,-1.654246,1.142289,-0.380176,0.267253,-0.808255,1.860536,0.251115,0.441712,-2.135924,-3.995819,-6.463203,-16.300505,16.514464,0.191569,0.084355,0.000000,-0.291438,-0.079495,-0.000000
3.600000,2.518777,0.251201,-1.651561,1.134228,-0.361677,0.269564,-0.804160,1.838359,0.211982,0.378072,-2.293967,-3.830153,-6.273499,-15.300348,16.598189,0.188598,0.083589,0.000000,-0.302172,-0.071035,0.000000
3.610000,2.530079,0.247676,-1.648855,1.126206,-0.343409,0.271493,-0.800694,1.814657,0.174512,0.316242,-2.441931,-3.663856,-6.059933,-14.371282,16.603870,0.185525,0.082908,0.000000,-0.311940,-0.062879,0.000000
3.620000,2.541301,0.244333,-1.646131,1.118214,-0.325384,0.273055,-0.797835,1.789520,0.138705,0.256874,-2.581392,-3.498076,-5.801054,-13.523341,16.516862,0.182359,0.082309,0.000000,-0.320943,-0.055089,0.000000
3.630000,2.552444,0.241168,-1.643394,1.110249,-0.307618,0.274267,-0.795556,1.763029,0.104551,0.200221,-2.712398,-3.333518,-5.536076,-12.674856,16.376072,0.179106,0.081787,0.000000,-0.329211,-0.047683,-0.000000
3.640000,2.563506,0.238180,-1.640646,1.102303,-0.290124,0.275146,-0.793830,1.735272,0.072034,0.146152,-2.834889,-3.170555,-5.286741,-11.837954,16.200463,0.175774,0.081339,0.000000,-0.336761,-0.040640,0.000000
3.650000,2.574490,0.235366,-1.637891,1.094372,-0.272913,0.275707,-0.792633,1.706332,0.041139,0.094486,-2.949157,-3.009509,-5.030200,-11.009439,15.976494,0.172371,0.080961,0.000000,-0.343637,-0.033932,0.000000
3.660000,2.585394,0.232722,-1.635132,1.086451,-0.255997,0.275968,-0.791941,1.676289,0.011844,0.045548,-3.055078,-2.851025,-4.756725,-10.181693,15.699658,0.168901,0.080650,0.000000,-0.349848,-0.027586,0.000000
3.670000,2.596219,0.230246,-1.632371,1.078534,-0.239387,0.275944,-0.791722,1.645230,-0.015881,-0.000648,-3.152791,-2.695516,-4.527222,-9.406172,15.412769,0.165373,0.080401,0.000000,-0.355420,-0.021597,0.000000
3.680000,2.606964,0.227934,-1.629613,1.070616,-0.223093,0.275651,-0.791954,1.613233,-0.042066,-0.044996,-3.243202,-2.542769,-4.349636,-8.690635,15.123930,0.161793,0.080212,0.000000,-0.360444,-0.015866,-0.000000
3.690000,2.617631,0.225784,-1.626858,1.062694,-0.207122,0.275103,-0.792622,1.580366,-0.066736,-0.087641,-3.326604,-2.393037,-4.141092,-7.965554,14.781711,0.158164,0.080080,0.000000,-0.364958,-0.010372,0.000000
3.700000,2.628218,0.223792,-1.624111,1.054764,-0.191485,0.274316,-0.793706,1.546701,-0.089927,-0.127818,-3.402513,-2.247135,-3.886401,-7.214050,14.380707,0.154493,0.080002,0.000000,-0.368927,-0.005191,-0.000000
3.710000,2.638726,0.221954,-1.621372,1.046820,-0.176188,0.273304,-0.795178,1.512316,-0.111679,-0.165369,-3.470885,-2.105423,-3.643586,-6.485573,13.961559,0.150785,0.079975,0.000000,-0.372352,-0.000334,-0.000000
3.720000,2.649155,0.220268,-1.618645,1.038860,-0.161239,0.272082,-0.797014,1.477283,-0.132035,-0.200690,-3.532224,-1.967904,-3.438652,-5.814831,13.539294,0.147045,0.079995,0.000000,-0.375281,0.004244,0.000000
3.730000,2.659503,0.218730,-1.615930,1.030880,-0.146643,0.270664,-0.799192,1.441671,-0.151037,-0.234142,-3.587181,-1.834637,-3.253957,-5.187061,13.106009,0.143279,0.080060,0.000000,-0.377777,0.008584,0.000000
3.740000,2.669772,0.217335,-1.613231,1.022876,-0.132405,0.269062,-0.801697,1.405540,-0.168728,-0.265769,-3.635965,-1.705784,-3.059290,-4.559794,12.651201,0.139489,0.080168,0.000000,-0.379858,0.012693,0.000000
3.750000,2.679961,0.216082,-1.610549,1.014846,-0.118532,0.267289,-0.804508,1.368952,-0.185153,-0.295328,-3.678377,-1.581613,-2.844480,-3.926572,12.165468,0.135681,0.080317,0.000000,-0.381506,0.016549,-0.000000
3.760000,2.690069,0.214965,-1.607886,1.006786,-0.105026,0.265359,-0.807603,1.331972,-0.200360,-0.322658,-3.714497,-1.462474,-2.630159,-3.316279,11.661380,0.131859,0.080502,0.000000,-0.382725,0.020137,0.000000
3.770000,2.700097,0.213981,-1.605242,0.998694,-0.091892,0.263282,-0.810961,1.294662,-0.214402,-0.347931,-3.744703,-1.348386,-2.447084,-2.745547,11.179713,0.128026,0.080723,0.000000,-0.383548,0.023478,0.000000
3.780000,2.710043,0.213127,-1.602620,0.990567,-0.079133,0.261071,-0.814562,1.257078,-0.227328,-0.371600,-3.769408,-1.238880,-2.286285,-2.205214,10.722930,0.124188,0.080976,0.000000,-0.384004,0.026622,-0.000000
3.790000,2.719908,0.212398,-1.600021,0.982403,-0.066751,0.258735,-0.818393,1.219274,-0.239180,-0.393657,-3.788807,-1.133927,-2.107512,-1.674858,10.241640,0.120346,0.081259,0.000000,-0.384104,0.029571,-0.000000
3.800000,2.729691,0.211792,-1.597445,0.974199,-0.054748,0.256287,-0.822435,1.181302,-0.250007,-0.413750,-3.802905,-1.034047,-1.927567,-1.151454,9.720928,0.116505,0.081572,0.000000,-0.383848,0.032287,0.000000
3.810000,2.739392,0.211303,-1.594895,0.965954,-0.043125,0.253735,-0.826668,1.143216,-0.259861,-0.432208,-3.811836,-0.939509,-1.771307,-0.648414,9.199268,0.112669,0.081910,0.000000,-0.383245,0.034804,-0.000000
3.820000,2.749010,0.210929,-1.592370,0.957666,-0.031883,0.251090,-0.831079,1.105065,-0.268797,-0.449177,-3.815873,-0.850062,-1.582839,-0.173327,8.718889,0.108840,0.082272,0.000000,-0.382311,0.037137,-0.000000
3.830000,2.758545,0.210666,-1.589873,0.949333,-0.021024,0.248359,-0.835651,1.066898,-0.276862,-0.463865,-3.815303,-0.765131,-1.352146,0.278642,8.272352,0.105022,0.082657,0.000000,-0.381059,0.039215,0.000000
3.840000,2.767997,0.210509,-1.587403,0.940953,-0.010545,0.245553,-0.840356,1.028759,-0.284099,-0.476219,-3.810300,-0.684615,-1.157833,0.717280,7.809289,0.101218,0.083061,0.000000,-0.379499,0.041035,0.000000
3.850000,2.777364,0.210455,-1.584962,0.932525,-0.000448,0.242677,-0.845176,0.990692,-0.290555,-0.487022,-3.800957,-0.608945,-1.000742,1.142296,7.315836,0.097432,0.083482,0.000000,-0.377637,0.042669,-0.000000
3.860000,2.786647,0.210500,-1.582550,0.924049,0.009268,0.239741,-0.850097,0.952740,-0.296278,-0.496234,-3.787454,-0.538298,-0.827994,1.547812,6.829688,0.093665,0.083918,0.000000,-0.375484,0.044114,0.000000
3.870000,2.795845,0.210640,-1.580167,0.915523,0.018606,0.236752,-0.855100,0.914943,-0.301320,-0.503581,-3.770001,-0.472351,-0.658961,1.936135,6.391201,0.089922,0.084368,0.000000,-0.373050,0.045344,0.000000
3.880000,2.804958,0.210872,-1.577815,0.906947,0.027567,0.233715,-0.860168,0.877340,-0.305725,-0.509414,-3.748732,-0.410474,-0.515251,2.310058,5.992044,0.086204,0.084829,0.000000,-0.370335,0.046398,0.000000
3.890000,2.813984,0.211192,-1.575493,0.898320,0.036153,0.230637,-0.865289,0.839968,-0.309530,-0.513886,-3.723800,-0.352510,-0.365159,2.666564,5.582974,0.082515,0.085299,0.000000,-0.367348,0.047295,-0.000000
3.900000,2.822924,0.211595,-1.573202,0.889642,0.044367,0.227524,-0.870446,0.802864,-0.312775,-0.516717,-3.695400,-0.298815,-0.188384,3.003701,5.151686,0.078857,0.085778,0.000000,-0.364102,0.048001,-0.000000
3.910000,2.831777,0.212079,-1.570942,0.880911,0.052210,0.224382,-0.875623,0.766060,-0.315506,-0.517654,-3.663726,-0.249477,-0.008524,3.324264,4.733893,0.075233,0.086262,0.000000,-0.360611,0.048492,-0.000000
3.920000,2.840542,0.212639,-1.568714,0.872129,0.059688,0.221214,-0.880799,0.729590,-0.317765,-0.516887,-3.628915,-0.204137,0.130095,3.633525,4.363379,0.071645,0.086750,0.000000,-0.356880,0.048788,0.000000
3.930000,2.849220,0.213273,-1.566518,0.863295,0.066802,0.218027,-0.885961,0.693482,-0.319589,-0.515052,-3.591055,-0.162209,0.237268,3.931049,4.031167,0.068095,0.087241,0.000000,-0.352907,0.048957,0.000000
3.940000,2.857808,0.213975,-1.564354,0.854410,0.073558,0.214823,-0.891100,0.657768,-0.321009,-0.512142,-3.550294,-0.123514,0.371635,4.210496,3.695617,0.064587,0.087732,0.000000,-0.348700,0.048997,0.000000
3.950000,2.866308,0.214744,-1.562222,0.845473,0.079958,0.211606,-0.896204,0.622476,-0.322059,-0.507620,-3.506845,-0.088297,0.516663,4.471844,3.346923,0.061121,0.088223,0.000000,-0.344277,0.048855,-0.000000
3.960000,2.874718,0.215575,-1.560122,0.836486,0.086007,0.208381,-0.901253,0.587632,-0.322775,-0.501809,-3.460857,-0.056575,0.635280,4.719778,3.014554,0.057701,0.088711,0.000000,-0.339647,0.048561,-0.000000
3.970000,2.883038,0.216464,-1.558054,0.827448,0.091710,0.205151,-0.906240,0.553259,-0.323191,-0.494914,-3.412450,-0.028006,0.786568,4.954230,2.724572,0.054328,0.089196,0.000000,-0.334815,0.048137,-0.000000
3.980000,2.891267,0.217409,-1.556019,0.818361,0.097072,0.201918,-0.911151,0.519383,-0.323335,-0.486077,-3.361773,-0.002084,0.986015,5.173933,2.469136,0.051005,0.089675,0.000000,-0.329790,0.047503,0.000000
3.990000,2.899405,0.218405,-1.554016,0.809225,0.102098,0.198684,-0.915961,0.486024,-0.323232,-0.475194,-3.308971,0.021377,1.149496,5.379945,2.215585,0.047732,0.090147,0.000000,-0.324581,0.046650,0.000000
4.000000,2.907451,0.219451,-1.552045,0.800042,0.106793,0.195453,-0.920655,0.453203,-0.322908,-0.463087,-3.254174,0.042228,1.267992,5.572374,1.955005,0.044513,0.090609,0.000000,-0.319198,0.045657,-0.000000
4.010000,2.915406,0.220541,-1.550107,0.790812,0.111162,0.192226,-0.925223,0.420940,-0.322388,-0.449834,-3.197523,0.060477,1.398926,5.750880,1.710034,0.041348,0.091061,0.000000,-0.313652,0.044531,-0.000000
4.020000,2.923268,0.221674,-1.548200,0.781537,0.115211,0.189005,-0.929652,0.389253,-0.321698,-0.435109,-3.139156,0.076429,1.544138,5.916878,1.503767,0.038240,0.091501,0.000000,-0.307952,0.043241,0.000000
4.030000,2.931036,0.222845,-1.546326,0.772219,0.118947,0.185792,-0.933925,0.358157,-0.320859,-0.418951,-3.079186,0.090552,1.682967,6.070833,1.329603,0.035189,0.091926,0.000000,-0.302105,0.041797,-0.000000
4.040000,2.938712,0.224053,-1.544485,0.762859,0.122375,0.182588,-0.938031,0.327669,-0.319887,-0.401449,-3.017740,0.103021,1.817644,6.211296,1.157542,0.032198,0.092337,0.000000,-0.296121,0.040206,0.000000
4.050000,2.946294,0.225293,-1.542675,0.753458,0.125500,0.179394,-0.941954,0.297802,-0.318799,-0.382598,-2.954960,0.113703,1.952933,6.338477,0.982121,0.029267,0.092731,0.000000,-0.290013,0.038468,-0.000000
4.060000,2.953781,0.226563,-1.540897,0.744020,0.128331,0.176212,-0.945683,0.268570,-0.317613,-0.362391,-2.890970,0.122663,2.085942,6.453734,0.823330,0.026398,0.093107,0.000000,-0.283790,0.036582,-0.000000
4.070000,2.961174,0.227860,-1.539150,0.734545,0.130872,0.173042,-0.949202,0.239983,-0.316346,-0.340879,-2.825885,0.130170,2.210288,6.556879,0.692582,0.023591,0.093463,0.000000,-0.277463,0.034554,-0.000000
4.080000,2.968472,0.229180,-1.537436,0.725036,0.133130,0.169885,-0.952500,0.212052,-0.315010,-0.318185,-2.759832,0.136515,2.326378,6.647638,0.583101,0.020848,0.093798,0.000000,-0.271042,0.032400,-0.000000
4.090000,2.975675,0.230522,-1.535753,0.715495,0.135113,0.166742,-0.955566,0.184786,-0.313615,-0.294352,-2.692932,0.141832,2.442126,6.726931,0.480105,0.018170,0.094111,0.000000,-0.264538,0.030125,0.000000
4.100000,2.982782,0.231883,-1.534101,0.705924,0.136826,0.163613,-0.958387,0.158193,-0.312173,-0.269342,-2.625294,0.146117,2.558184,6.795728,0.380987,0.015558,0.094401,0.000000,-0.257960,0.027724,0.000000
4.110000,2.989793,0.233259,-1.532481,0.696327,0.138277,0.160498,-0.960953,0.132280,-0.310693,-0.243188,-2.557018,0.149452,2.668776,6.853725,0.294917,0.013011,0.094665,0.000000,-0.251318,0.025202,0.000000
4.120000,2.996708,0.234648,-1.530891,0.686705,0.139472,0.157399,-0.963251,0.107053,-0.309184,-0.215967,-2.488219,0.152015,2.772506,6.899325,0.227330,0.010531,0.094905,0.000000,-0.244622,0.022567,0.000000
4.130000,3.003527,0.236048,-1.529333,0.677062,0.140418,0.154315,-0.965272,0.082516,-0.307653,-0.187738,-2.419031,0.153998,2.870936,6.932800,0.174618,0.008119,0.095117,0.000000,-0.237886,0.019826,0.000000
4.140000,3.010250,0.237456,-1.527805,0.667400,0.141122,0.151246,-0.967006,0.058672,-0.306104,-0.158548,-2.349563,0.155508,2.965037,6.956889,0.128886,0.005774,0.095301,0.000000,-0.231119,0.016987,0.000000
4.150000,3.016875,0.238871,-1.526308,0.657722,0.141591,0.148193,-0.968443,0.035525,-0.304543,-0.128437,-2.279894,0.156576,3.055336,6.972691,0.089058,0.003496,0.095457,0.000000,-0.224329,0.014052,0.000000
4.160000,3.023404,0.240288,-1.524841,0.648031,0.141832,0.145155,-0.969574,0.013075,-0.302972,-0.097441,-2.210109,0.157289,3.140831,6.978731,0.059470,0.001287,0.095582,0.000000,-0.217525,0.011025,0.000000
4.170000,3.029836,0.241707,-1.523405,0.638330,0.141853,0.142133,-0.970392,-0.008677,-0.301397,-0.065621,-2.140319,0.157765,3.218726,6.973273,0.040642,-0.000854,0.095677,0.000000,-0.210718,0.007914,-0.000000
4.180000,3.036171,0.243125,-1.521998,0.628623,0.141659,0.139127,-0.970887,-0.029732,-0.299817,-0.033067,-2.070644,0.158102,3.288763,6.956928,0.030163,-0.002927,0.095740,0.000000,-0.203920,0.004729,-0.000000
4.190000,3.042408,0.244540,-1.520622,0.618913,0.141258,0.136137,-0.971053,-0.050090,-0.298235,0.000155,-2.001180,0.158369,3.354366,6.932616,0.026406,-0.004933,0.095772,0.000000,-0.197140,0.001476,0.000000
4.200000,3.048549,0.245950,-1.519276,0.609202,0.140657,0.133162,-0.970884,-0.069755,-0.296650,0.034020,-1.931992,0.158630,3.417423,6.902194,0.029960,-0.006870,0.095770,0.000000,-0.190385,-0.001841,0.000000
4.210000,3.054592,0.247354,-1.517959,0.599495,0.139863,0.130204,-0.970373,-0.088730,-0.295062,0.068503,-1.863137,0.158968,3.475184,6.864069,0.040790,-0.008740,0.095735,0.000000,-0.183660,-0.005220,-0.000000
4.220000,3.060539,0.248748,-1.516671,0.589795,0.138883,0.127261,-0.969514,-0.107018,-0.293470,0.103524,-1.794710,0.159445,3.522346,6.814349,0.055287,-0.010543,0.095666,0.000000,-0.176976,-0.008652,0.000000
4.230000,3.066388,0.250131,-1.515414,0.580105,0.137723,0.124334,-0.968302,-0.124624,-0.291873,0.138950,-1.726850,0.160074,3.559614,6.754091,0.072424,-0.012280,0.095562,0.000000,-0.170347,-0.012124,-0.000000
4.240000,3.072141,0.251502,-1.514185,0.570429,0.136390,0.121424,-0.966735,-0.141555,-0.290269,0.174716,-1.659628,0.160894,3.593701,6.689166,0.095869,-0.013950,0.095423,0.000000,-0.163779,-0.015629,-0.000000
4.250000,3.077797,0.252859,-1.512985,0.560770,0.134892,0.118529,-0.964808,-0.157817,-0.288655,0.210824,-1.593066,0.161991,3.624408,6.618588,0.126394,-0.015555,0.095249,0.000000,-0.157275,-0.019167,-0.000000
4.260000,3.083356,0.254200,-1.511814,0.551132,0.133234,0.115651,-0.962518,-0.173416,-0.287029,0.247204,-1.527257,0.163422,3.647112,6.539103,0.160473,-0.017096,0.095040,0.000000,-0.150845,-0.022730,0.000000
4.270000,3.088820,0.255524,-1.510672,0.541520,0.131423,0.112788,-0.959864,-0.188362,-0.285387,0.283766,-1.462284,0.165200,3.663116,6.455824,0.194693,-0.018572,0.094794,0.000000,-0.144497,-0.026310,-0.000000
4.280000,3.094187,0.256828,-1.509558,0.531935,0.129466,0.109943,-0.956843,-0.202662,-0.283725,0.320467,-1.398140,0.167316,3.673658,6.370326,0.229058,-0.019986,0.094513,0.000000,-0.138230,-0.029903,0.000000
4.290000,3.099458,0.258113,-1.508473,0.522383,0.127370,0.107114,-0.953454,-0.216325,-0.282041,0.357239,-1.334878,0.169782,3.676415,6.276057,0.266804,-0.021337,0.094196,0.000000,-0.132050,-0.033502,0.000000
4.300000,3.104634,0.259376,-1.507416,0.512866,0.125140,0.104302,-0.949698,-0.229360,-0.280330,0.393995,-1.272619,0.172652,3.673182,6.173905,0.310529,-0.022627,0.093843,0.000000,-0.125969,-0.037098,-0.000000
4.310000,3.109716,0.260616,-1.506387,0.503389,0.122783,0.101507,-0.945575,-0.241777,-0.278588,0.430703,-1.211400,0.175992,3.665257,6.068761,0.356982,-0.023856,0.093454,0.000000,-0.119991,-0.040688,0.000000
4.320000,3.114702,0.261832,-1.505386,0.493955,0.120304,0.098730,-0.941084,-0.253588,-0.276810,0.467300,-1.151244,0.179791,3.646002,5.957191,0.397044,-0.025027,0.093029,0.000000,-0.114118,-0.044266,-0.000000
4.330000,3.119595,0.263022,-1.504413,0.484567,0.117711,0.095971,-0.936229,-0.264802,-0.274992,0.503623,-1.092256,0.183933,3.614303,5.837632,0.430556,-0.026139,0.092569,0.000000,-0.108360,-0.047816,-0.000000
4.340000,3.124393,0.264186,-1.503467,0.475230,0.115008,0.093230,-0.931012,-0.275433,-0.273131,0.539586,-1.034491,0.188403,3.579373,5.715997,0.468822,-0.027194,0.092073,0.000000,-0.102723,-0.051332,-0.000000
4.350000,3.129099,0.265322,-1.502548,0.465947,0.112202,0.090509,-0.925437,-0.285492,-0.271224,0.575211,-0.977936,0.193309,3.544754,5.594216,0.514876,-0.028193,0.091541,0.000000,-0.097205,-0.054813,-0.000000
4.360000,3.133712,0.266430,-1.501656,0.456721,0.109299,0.087806,-0.919507,-0.294992,-0.269265,0.610481,-0.922607,0.198700,3.503990,5.468698,0.560210,-0.029138,0.090976,0.000000,-0.091808,-0.058260,-0.000000
4.370000,3.138234,0.267508,-1.500792,0.447557,0.106303,0.085123,-0.913227,-0.303944,-0.267250,0.645290,-0.868562,0.204514,3.448986,5.337067,0.596742,-0.030029,0.090376,0.000000,-0.086538,-0.061661,-0.000000
4.380000,3.142664,0.268556,-1.499954,0.438457,0.103220,0.082461,-0.906602,-0.312363,-0.265175,0.679461,-0.815866,0.210635,3.381867,5.201333,0.626618,-0.030869,0.089742,0.000000,-0.081401,-0.065000,-0.000000
4.390000,3.147003,0.269572,-1.499143,0.429425,0.100055,0.079820,-0.899638,-0.320261,-0.263037,0.712928,-0.764535,0.217046,3.313327,5.065151,0.659452,-0.031657,0.089075,0.000000,-0.076397,-0.068272,-0.000000
4.400000,3.151252,0.270557,-1.498358,0.420464,0.096814,0.077200,-0.892343,-0.327654,-0.260834,0.745728,-0.714563,0.223824,3.243062,4.926241,0.696168,-0.032397,0.088376,0.000000,-0.071527,-0.071480,0.000000
4.410000,3.155412,0.271509,-1.497599,0.411578,0.093502,0.074603,-0.884723,-0.334553,-0.258561,0.777789,-0.666010,0.230969,3.164142,4.783011,0.729826,-0.033088,0.087645,0.000000,-0.066797,-0.074616,0.000000
4.420000,3.159484,0.272427,-1.496865,0.402770,0.090123,0.072029,-0.876787,-0.340974,-0.256214,0.809010,-0.618902,0.238420,3.079441,4.643653,0.757731,-0.033733,0.086883,0.000000,-0.062208,-0.077672,0.000000
4.430000,3.163467,0.273311,-1.496158,0.394042,0.086683,0.069479,-0.868543,-0.346931,-0.253792,0.839378,-0.573137,0.246124,2.991420,4.509512,0.781498,-0.034332,0.086090,0.000000,-0.057751,-0.080646,-0.000000
4.440000,3.167364,0.274161,-1.495476,0.385399,0.083185,0.066953,-0.860000,-0.352436,-0.251292,0.868839,-0.528712,0.254050,2.895816,4.369914,0.803766,-0.034888,0.085269,0.000000,-0.053424,-0.083535,-0.000000
4.450000,3.171175,0.274975,-1.494819,0.376842,0.079634,0.064453,-0.851166,-0.357505,-0.248711,0.897294,-0.485739,0.262199,2.793616,4.223771,0.827152,-0.035400,0.084419,0.000000,-0.049239,-0.086327,0.000000
4.460000,3.174901,0.275753,-1.494187,0.368375,0.076035,0.061979,-0.842054,-0.362151,-0.246048,0.924711,-0.444237,0.270594,2.687830,4.078860,0.849370,-0.035872,0.083541,0.000000,-0.045197,-0.089021,-0.000000
4.470000,3.178543,0.276496,-1.493579,0.360001,0.072391,0.059532,-0.832672,-0.366390,-0.243299,0.951051,-0.404162,0.279187,2.574179,3.936714,0.861727,-0.036304,0.082637,0.000000,-0.041295,-0.091611,0.000000
4.480000,3.182101,0.277201,-1.492996,0.351722,0.068707,0.057113,-0.823033,-0.370234,-0.240464,0.976195,-0.365502,0.287828,2.451725,3.795069,0.864295,-0.036698,0.081708,0.000000,-0.037529,-0.094089,0.000000
4.490000,3.185577,0.277870,-1.492437,0.343540,0.064986,0.054723,-0.813148,-0.373700,-0.237543,1.000085,-0.328261,0.296473,2.326878,3.653097,0.868528,-0.037055,0.080754,0.000000,-0.033901,-0.096449,0.000000
4.500000,3.188972,0.278501,-1.491902,0.335459,0.061233,0.052362,-0.803031,-0.376800,-0.234535,1.022732,-0.292440,0.305199,2.199785,3.510818,0.876632,-0.037376,0.079777,0.000000,-0.030411,-0.098690,-0.000000
4.510000,3.192287,0.279094,-1.491390,0.327480,0.057450,0.050032,-0.792694,-0.379549,-0.231439,1.044081,-0.258044,0.314005,2.066370,3.369146,0.880581,-0.037663,0.078779,0.000000,-0.027058,-0.100808,0.000000
4.520000,3.195522,0.279650,-1.490901,0.319605,0.053642,0.047733,-0.782149,-0.381961,-0.228254,1.064060,-0.225058,0.322810,1.928589,3.229775,0.875908,-0.037917,0.077760,0.000000,-0.023842,-0.102796,-0.000000
4.530000,3.198679,0.280167,-1.490435,0.311837,0.049811,0.045467,-0.771412,-0.384050,-0.224982,1.082653,-0.193449,0.331523,1.788263,3.092918,0.865191,-0.038140,0.076721,0.000000,-0.020758,-0.104653,-0.000000
4.540000,3.201758,0.280646,-1.489992,0.304177,0.045961,0.043234,-0.760496,-0.385830,-0.221624,1.099825,-0.163199,0.340114,1.642651,2.956806,0.853727,-0.038332,0.075665,0.000000,-0.017806,-0.106376,-0.000000
4.550000,3.204762,0.281086,-1.489571,0.296627,0.042094,0.041034,-0.749416,-0.387314,-0.218180,1.115506,-0.134313,0.348598,1.490502,2.820321,0.841602,-0.038496,0.074592,0.000000,-0.014984,-0.107956,0.000000
4.560000,3.207691,0.281488,-1.489171,0.289188,0.038215,0.038870,-0.738186,-0.388516,-0.214652,1.129635,-0.106793,0.356946,1.334025,2.685113,0.825293,-0.038632,0.073504,0.000000,-0.012294,-0.109388,0.000000
4.570000,3.210546,0.281851,-1.488793,0.281863,0.034324,0.036741,-0.726823,-0.389450,-0.211041,1.142186,-0.080610,0.365104,1.176192,2.554920,0.804545,-0.038742,0.072403,0.000000,-0.009732,-0.110671,-0.000000
4.580000,3.213328,0.282174,-1.488436,0.274652,0.030426,0.034649,-0.715343,-0.390128,-0.207350,1.153159,-0.055694,0.373037,1.016120,2.429779,0.780460,-0.038827,0.071289,0.000000,-0.007292,-0.111802,-0.000000
4.590000,3.216039,0.282459,-1.488100,0.267556,0.026522,0.032594,-0.703760,-0.390563,-0.203581,1.162509,-0.032015,0.380713,0.850287,2.305078,0.753096,-0.038888,0.070165,0.000000,-0.004970,-0.112778,-0.000000
4.600000,3.218679,0.282705,-1.487784,0.260577,0.022614,0.030578,-0.692092,-0.390768,-0.199736,1.170165,-0.009593,0.388099,0.681524,2.179020,0.723142,-0.038926,0.069032,0.000000,-0.002768,-0.113592,0.000000
4.610000,3.221251,0.282912,-1.487489,0.253714,0.018706,0.028600,-0.680357,-0.390755,-0.195819,1.176139,0.011566,0.395176,0.512151,2.055126,0.690553,-0.038943,0.067892,0.000000,-0.000687,-0.114245,0.000000
4.620000,3.223754,0.283079,-1.487212,0.246970,0.014799,0.026661,-0.668570,-0.390537,-0.191832,1.180408,0.031510,0.401910,0.333870,1.938364,0.652844,-0.038940,0.066745,0.000000,0.001277,-0.114733,-0.000000
4.630000,3.226190,0.283208,-1.486955,0.240343,0.010895,0.024763,-0.656749,-0.390125,-0.187780,1.182816,0.050333,0.408233,0.145776,1.827876,0.609805,-0.038918,0.065595,0.000000,0.003134,-0.115042,-0.000000
4.640000,3.228561,0.283297,-1.486717,0.233835,0.006997,0.022906,-0.644913,-0.389530,-0.183668,1.183323,0.068067,0.414106,-0.040164,1.717438,0.564940,-0.038877,0.064443,0.000000,0.004888,-0.115166,-0.000000
4.650000,3.230867,0.283347,-1.486497,0.227445,0.003105,0.021090,-0.633082,-0.388764,-0.179498,1.182013,0.084682,0.419532,-0.222733,1.606631,0.519727,-0.038820,0.063290,0.000000,0.006536,-0.115115,0.000000
4.660000,3.233109,0.283359,-1.486295,0.221173,-0.000779,0.019316,-0.621273,-0.387837,-0.175277,1.178868,0.100200,0.424501,-0.409732,1.499807,0.471766,-0.038746,0.062139,0.000000,0.008078,-0.114884,0.000000
4.670000,3.235290,0.283332,-1.486111,0.215019,-0.004652,0.017584,-0.609505,-0.386760,-0.171008,1.173819,0.114678,0.428967,-0.600989,1.397632,0.417699,-0.038658,0.060991,0.000000,0.009521,-0.114468,0.000000
4.680000,3.237410,0.283266,-1.485944,0.208983,-0.008514,0.015896,-0.597797,-0.385543,-0.166698,1.166849,0.128152,0.432855,-0.793355,1.298938,0.358399,-0.038556,0.059848,0.000000,0.010869,-0.113864,0.000000
4.690000,3.239470,0.283162,-1.485793,0.203063,-0.012363,0.014250,-0.586168,-0.384197,-0.162351,1.157951,0.140657,0.436135,-0.987303,1.203332,0.298396,-0.038441,0.058712,0.000000,0.012125,-0.113071,0.000000
4.700000,3.241471,0.283019,-1.485659,0.197260,-0.016198,0.012649,-0.574638,-0.382730,-0.157975,1.147103,0.152219,0.438822,-1.183901,1.109393,0.237485,-0.038314,0.057585,0.000000,0.013291,-0.112086,-0.000000
4.710000,3.243415,0.282838,-1.485540,0.191571,-0.020017,0.011091,-0.563226,-0.381152,-0.153575,1.134273,0.162845,0.440885,-1.382262,1.017582,0.172815,-0.038175,0.056468,0.000000,0.014367,-0.110905,0.000000
4.720000,3.245302,0.282618,-1.485437,0.185995,-0.023821,0.009577,-0.551952,-0.379473,-0.149157,1.119457,0.172571,0.442279,-1.579706,0.932764,0.105956,-0.038026,0.055365,0.000000,0.015358,-0.109528,-0.000000
4.730000,3.247135,0.282361,-1.485349,0.180532,-0.027607,0.008108,-0.540837,-0.377701,-0.144729,1.102679,0.181500,0.443004,-1.775998,0.855132,0.038211,-0.037868,0.054276,0.000000,0.016274,-0.107955,0.000000
4.740000,3.248913,0.282066,-1.485275,0.175178,-0.031375,0.006682,-0.529899,-0.375843,-0.140297,1.083937,0.189673,0.443043,-1.974285,0.778094,-0.032674,-0.037701,0.053204,0.000000,0.017118,-0.106187,-0.000000
4.750000,3.250638,0.281734,-1.485215,0.169934,-0.035124,0.005302,-0.519158,-0.373907,-0.135868,1.063194,0.197062,0.442350,-2.176026,0.700237,-0.107964,-0.037526,0.052151,0.000000,0.017887,-0.104219,-0.000000
4.760000,3.252312,0.281364,-1.485169,0.164795,-0.038853,0.003965,-0.508635,-0.371902,-0.131450,1.040417,0.203678,0.440884,-2.378668,0.626113,-0.185881,-0.037343,0.051118,0.000000,0.018583,-0.102047,-0.000000
4.770000,3.253934,0.280957,-1.485136,0.159761,-0.042562,0.002673,-0.498350,-0.369834,-0.127051,1.015620,0.209584,0.438633,-2.577845,0.558422,-0.263386,-0.037154,0.050109,0.000000,0.019211,-0.099672,0.000000
4.780000,3.255507,0.280513,-1.485115,0.154828,-0.046250,0.001424,-0.488322,-0.367710,-0.122677,0.988860,0.214847,0.435616,-2.774254,0.495690,-0.340980,-0.036959,0.049124,0.000000,0.019779,-0.097099,-0.000000
4.790000,3.257031,0.280032,-1.485107,0.149994,-0.049916,0.000219,-0.478572,-0.365537,-0.118338,0.960135,0.219498,0.431813,-2.973214,0.434566,-0.422583,-0.036758,0.048165,0.000000,0.020288,-0.094327,0.000000
4.800000,3.258507,0.279514,-1.485111,0.145257,-0.053560,-0.000943,-0.469120,-0.363320,-0.114041,0.929396,0.223538,0.427164,-3.173545,0.374589,-0.507939,-0.036553,0.047236,0.000000,0.020740,-0.091351,-0.000000
4.810000,3.259936,0.278960,-1.485126,0.140612,-0.057182,-0.002062,-0.459984,-0.361066,-0.109795,0.896664,0.226990,0.421654,-3.371587,0.317926,-0.594333,-0.036343,0.046337,0.000000,0.021136,-0.088172,-0.000000
4.820000,3.261319,0.278371,-1.485152,0.136057,-0.060782,-0.003139,-0.451186,-0.358780,-0.105608,0.861964,0.229896,0.415278,-3.571134,0.265639,-0.682891,-0.036130,0.045471,0.000000,0.021480,-0.084793,-0.000000
4.830000,3.262657,0.277745,-1.485189,0.131588,-0.064358,-0.004174,-0.442745,-0.356468,-0.101489,0.825242,0.232302,0.407996,-3.773399,0.216941,-0.774545,-0.035914,0.044640,0.000000,0.021777,-0.081208,-0.000000
4.840000,3.263951,0.277083,-1.485236,0.127202,-0.067911,-0.005168,-0.434681,-0.354134,-0.097448,0.786496,0.234235,0.399787,-3.972428,0.170450,-0.867514,-0.035695,0.043846,0.000000,0.022029,-0.077415,-0.000000
4.850000,3.265201,0.276387,-1.485292,0.122895,-0.071441,-0.006123,-0.427015,-0.351784,-0.093494,0.745793,0.235711,0.390646,-4.167325,0.126088,-0.961503,-0.035473,0.043091,0.000000,0.022238,-0.073422,0.000000
4.860000,3.266409,0.275655,-1.485358,0.118662,-0.074947,-0.007038,-0.419766,-0.349420,-0.089635,0.703150,0.236757,0.380557,-4.361901,0.084649,-1.057630,-0.035250,0.042377,0.000000,0.022407,-0.069230,0.000000
4.870000,3.267574,0.274888,-1.485433,0.114499,-0.078429,-0.007916,-0.412952,-0.347048,-0.085883,0.658555,0.237404,0.369494,-4.556305,0.046136,-1.155933,-0.035025,0.041706,0.000000,0.022539,-0.064838,-0.000000
4.880000,3.268699,0.274086,-1.485516,0.110403,-0.081888,-0.008756,-0.406595,-0.344672,-0.082245,0.612023,0.237680,0.357438,-4.748955,0.010187,-1.255987,-0.034799,0.041079,0.000000,0.022635,-0.060246,0.000000
4.890000,3.269782,0.273250,-1.485608,0.106368,-0.085322,-0.009560,-0.400712,-0.342295,-0.078734,0.563576,0.237608,0.344374,-4.939573,-0.023289,-1.357711,-0.034572,0.040500,0.000000,0.022699,-0.055456,-0.000000
4.900000,3.270826,0.272380,-1.485708,0.102389,-0.088733,-0.010331,-0.395323,-0.339920,-0.075358,0.513232,0.237214,0.330284,-5.128166,-0.054325,-1.461099,-0.034345,0.039969,0.000000,0.022733,-0.050472,0.000000
4.910000,3.271830,0.271475,-1.485815,0.098461,-0.092121,-0.011068,-0.390447,-0.337551,-0.072128,0.461013,0.236522,0.315152,-5.314538,-0.082984,-1.566122,-0.034118,0.039490,0.000000,0.022740,-0.045294,-0.000000
4.920000,3.272795,0.270537,-1.485929,0.094580,-0.095485,-0.011773,-0.386103,-0.335190,-0.069055,0.406941,0.235554,0.298961,-5.498493,-0.109336,-1.672741,-0.033890,0.039063,0.000000,0.022721,-0.039926,0.000000
4.930000,3.273722,0.269566,-1.486050,0.090739,-0.098825,-0.012449,-0.382308,-0.332839,-0.066149,0.351043,0.234335,0.281697,-5.679841,-0.133449,-1.780895,-0.033663,0.038691,0.000000,0.022678,-0.034369,0.000000
4.940000,3.274610,0.268561,-1.486178,0.086933,-0.102141,-0.013096,-0.379082,-0.330503,-0.063421,0.293344,0.232885,0.263344,-5.858393,-0.155396,-1.890542,-0.033437,0.038375,0.000000,0.022615,-0.028628,-0.000000
4.950000,3.275461,0.267523,-1.486312,0.083157,-0.105435,-0.013717,-0.376441,-0.328182,-0.060882,0.233875,0.231227,0.243886,-6.033962,-0.175248,-2.001642,-0.033211,0.038118,0.000000,0.022534,-0.022706,-0.000000
4.960000,3.276273,0.266452,-1.486452,0.079405,-0.108705,-0.014314,-0.374404,-0.325878,-0.058543,0.172665,0.229380,0.223311,-6.206350,-0.193072,-2.114151,-0.032986,0.037921,0.000000,0.022435,-0.016605,-0.000000
4.970000,3.277049,0.265349,-1.486598,0.075669,-0.111952,-0.014888,-0.372988,-0.323594,-0.056416,0.109748,0.227365,0.201603,226.411656,197.832730,29.866942,-0.032762,0.037786,0.000000,0.022321,-0.010331,0.000000
4.980000,3.277787,0.264213,-1.486750,0.071945,-0.115177,-0.015442,-0.372209,-0.321331,-0.054511,4.700898,4.186035,0.820650,460.139511,393.103869,60.223564,-0.032540,0.037714,0.000000,0.420317,-0.472484,0.000000
4.990000,3.278488,0.263045,-1.486907,0.068225,-0.118379,-0.015978,-0.278970,-0.239873,-0.040003,9.312538,8.089443,1.406074,230.012406,192.354971,27.033249,-0.024338,0.028314,0.000000,0.816327,-0.940359,-0.000000
5.000000,3.279151,0.261845,-1.487069,0.066365,-0.119974,-0.016242,-0.185959,-0.159542,-0.026390,9.301146,8.033134,1.361314,-1.139175,-5.630853,-4.475994,-0.016215,0.018903,0.000000,0.813782,-0.942508,0.000000
