time,x,y,z,vx,vy,vz,ax,ay,az,jx,jy,jz,sx,sy,sz,roll,pitch,yaw,p,q,r
0.000000,-2.738494,-0.224675,-1.499396,-0.020673,-0.006689,0.008450,1.006362,-0.229087,-0.044658,-15.729287,3.070270,1.148752,276.642484,2.915191,-28.720410,-0.023122,-0.101768,0.000000,0.303382,1.567453,0.000000
0.010000,-2.738653,-0.224753,-1.499314,-0.011351,-0.008826,0.008056,0.862374,-0.198283,-0.034540,-13.119802,3.086246,0.881363,245.674209,0.332035,-24.821802,-0.020062,-0.087376,0.000000,0.308071,1.314502,-0.000000
0.020000,-2.738726,-0.224851,-1.499235,-0.003344,-0.010655,0.007751,0.742975,-0.167443,-0.026907,-10.807588,3.077921,0.651059,217.170461,-1.948009,-21.300021,-0.016972,-0.075386,0.000000,0.309400,1.087318,-0.000000
0.030000,-2.738724,-0.224965,-1.499159,0.003581,-0.012175,0.007511,0.645312,-0.136795,-0.021407,-8.768531,3.048239,0.454170,191.025081,-3.942022,-18.135776,-0.013883,-0.065544,0.000000,0.307878,0.884959,-0.000000
0.040000,-2.738657,-0.225093,-1.499084,0.009626,-0.013392,0.007317,0.566771,-0.106540,-0.017724,-6.979579,2.999977,0.287216,167.132000,-5.667081,-15.309784,-0.010822,-0.057607,0.000000,0.303958,0.706117,-0.000000
0.050000,-2.738534,-0.225232,-1.499012,0.014972,-0.014308,0.007152,0.504960,-0.076849,-0.015574,-5.418747,2.935737,0.146913,145.384076,-7.140282,-12.802561,-0.007811,-0.051347,0.000000,0.298036,0.549258,0.000000
0.060000,-2.738359,-0.225379,-1.498941,0.019774,-0.014931,0.007001,0.457705,-0.047870,-0.014707,-4.065101,2.857954,0.030167,125.676208,-8.378692,-10.595030,-0.004867,-0.046554,0.000000,0.290464,0.412719,0.000000
0.070000,-2.738139,-0.225530,-1.498872,0.024168,-0.015268,0.006854,0.423034,-0.019728,-0.014902,-2.898778,2.768889,-0.065921,107.901775,-9.399398,-8.667803,-0.002006,-0.043031,0.000000,0.281550,0.294786,0.000000
0.080000,-2.737877,-0.225683,-1.498804,0.028271,-0.015329,0.006700,0.399168,0.007477,-0.015966,-1.900975,2.670635,-0.144059,91.954570,-10.219484,-7.001604,0.000760,-0.040601,0.000000,0.271564,0.193740,0.000000
0.090000,-2.737575,-0.225835,-1.498738,0.032182,-0.015122,0.006532,0.384512,0.033661,-0.017732,-1.053950,2.565111,-0.206760,77.728398,-10.856037,-5.577217,0.003422,-0.039105,0.000000,0.260747,0.107900,0.000000
0.100000,-2.737234,-0.225985,-1.498674,0.035987,-0.014659,0.006344,0.377642,0.058761,-0.020057,-0.341025,2.454069,-0.256341,65.116947,-11.326101,-4.374909,0.005973,-0.038398,0.000000,0.249309,0.035641,0.000000
0.110000,-2.736855,-0.226128,-1.498611,0.039757,-0.013951,0.006130,0.377297,0.082729,-0.022822,0.253417,2.339087,-0.294934,54.014108,-11.646802,-3.375860,0.008407,-0.038352,0.000000,0.237434,-0.024585,0.000000
0.120000,-2.736438,-0.226263,-1.498551,0.043551,-0.013008,0.005886,0.382364,0.105534,-0.025926,0.743932,2.221574,-0.324471,44.313630,-11.835205,-2.560591,0.010721,-0.038855,0.000000,0.225282,-0.074235,-0.000000
0.130000,-2.735984,-0.226387,-1.498494,0.047419,-0.011844,0.005610,0.391874,0.127156,-0.029287,1.144010,2.102767,-0.346694,35.909300,-11.908391,-1.909808,0.012912,-0.039806,0.000000,0.212993,-0.114675,0.000000
0.140000,-2.735490,-0.226499,-1.498439,0.051400,-0.010469,0.005300,0.404984,0.147589,-0.032840,1.466084,1.983733,-0.363151,28.694878,-11.883440,-1.404259,0.014981,-0.041122,0.000000,0.200682,-0.147166,-0.000000
0.150000,-2.734955,-0.226596,-1.498388,0.055528,-0.008896,0.004953,0.420974,0.166833,-0.036535,1.721520,1.865369,-0.375199,22.564048,-11.777433,-1.024785,0.016926,-0.042727,0.000000,0.188447,-0.172865,-0.000000
0.160000,-2.734379,-0.226676,-1.498340,0.059827,-0.007137,0.004569,0.439227,0.184901,-0.040333,1.920626,1.748398,-0.383996,17.411020,-11.607473,-0.751319,0.018750,-0.044561,0.000000,0.176366,-0.192825,-0.000000
0.170000,-2.733758,-0.226738,-1.498297,0.064318,-0.005202,0.004146,0.459229,0.201808,-0.044208,2.072645,1.633375,-0.390515,13.129100,-11.390611,-0.565416,0.020454,-0.046569,0.000000,0.164497,-0.207989,-0.000000
0.180000,-2.733092,-0.226780,-1.498257,0.069016,-0.003104,0.003684,0.480551,0.217576,-0.048139,2.185758,1.520685,-0.395531,9.612139,-11.143948,-0.447436,0.022041,-0.048708,0.000000,0.152879,-0.219191,0.000000
0.190000,-2.732377,-0.226800,-1.498223,0.073933,-0.000854,0.003183,0.502839,0.232230,-0.052115,2.267083,1.410539,-0.399626,6.753634,-10.884577,-0.378003,0.023513,-0.050943,0.000000,0.141537,-0.227158,0.000000
0.200000,-2.731612,-0.226796,-1.498194,0.079075,0.001537,0.002642,0.525807,0.245795,-0.056130,2.322687,1.302979,-0.403193,4.448968,-10.629493,-0.338303,0.024873,-0.053244,0.000000,0.130473,-0.232510,-0.000000
0.210000,-2.730795,-0.226769,-1.498170,0.084450,0.004058,0.002061,0.548945,0.258204,-0.060086,2.293848,1.176547,-0.385400,1.330733,-10.817536,0.107210,0.026114,-0.055560,0.000000,0.117586,-0.229444,0.000000
0.220000,-2.729922,-0.226715,-1.498153,0.090055,0.006697,0.001440,0.572519,0.269632,-0.064131,2.456202,1.121914,-0.435927,20.065039,-3.841212,-6.538297,0.027254,-0.057917,0.000000,0.111757,-0.245275,-0.000000
0.230000,-2.728993,-0.226634,-1.498142,0.095905,0.009449,0.000776,0.597466,0.280462,-0.068619,2.462463,1.021367,-0.439014,-19.108500,-16.387836,6.034762,0.028331,-0.060407,0.000000,0.101441,-0.245587,0.000000
0.240000,-2.728003,-0.226526,-1.498137,0.102000,0.012302,0.000069,0.621119,0.289859,-0.072707,2.300297,0.869532,-0.389612,-2.036608,-10.217416,0.133612,0.029264,-0.062767,0.000000,0.086162,-0.229278,0.000000
0.250000,-2.726952,-0.226388,-1.498140,0.108326,0.015242,-0.000678,0.644298,0.298143,-0.076692,2.327102,0.785008,-0.404857,-3.771922,-10.441399,0.514532,0.030083,-0.065076,0.000000,0.077476,-0.231620,0.000000
0.260000,-2.725836,-0.226220,-1.498151,0.114885,0.018261,-0.001465,0.667262,0.305480,-0.080715,2.261217,0.682777,-0.399660,-5.050603,-10.389957,0.634352,0.030806,-0.067361,0.000000,0.067099,-0.224764,-0.000000
0.270000,-2.724654,-0.226022,-1.498170,0.121670,0.021348,-0.002292,0.689834,0.311769,-0.084672,2.266479,0.573662,-0.391189,1.941574,-11.060642,0.949103,0.031422,-0.069605,0.000000,0.056045,-0.225098,-0.000000
0.280000,-2.723402,-0.225793,-1.498197,0.128682,0.024493,-0.003158,0.712363,0.316972,-0.088541,2.212603,0.469386,-0.383003,-12.821792,-9.783090,0.682201,0.031929,-0.071843,0.000000,0.045510,-0.219494,-0.000000
0.290000,-2.722079,-0.225532,-1.498233,0.135914,0.027685,-0.004062,0.733842,0.321177,-0.092335,2.095324,0.370454,-0.375399,-6.379795,-10.379848,0.945640,0.032335,-0.073973,0.000000,0.035547,-0.207541,-0.000000
0.300000,-2.720683,-0.225239,-1.498278,0.143356,0.030913,-0.005004,0.754582,0.324353,-0.096037,2.049487,0.264987,-0.365071,-6.986915,-10.338153,1.008385,0.032637,-0.076027,0.000000,0.024938,-0.202800,0.000000
0.310000,-2.719211,-0.224914,-1.498333,0.151003,0.034168,-0.005983,0.774671,0.326490,-0.099639,1.966434,0.162608,-0.355239,-7.457280,-10.301176,1.053753,0.032835,-0.078015,0.000000,0.014667,-0.194341,0.000000
0.320000,-2.717662,-0.224556,-1.498398,0.158847,0.037440,-0.006997,0.794071,0.327593,-0.103133,1.920390,0.057462,-0.343121,-3.819501,-10.568877,1.270580,0.032929,-0.079932,0.000000,0.004133,-0.189629,-0.000000
0.330000,-2.716034,-0.224165,-1.498473,0.166883,0.040717,-0.008045,0.812971,0.327648,-0.106505,1.846589,-0.045426,-0.331907,-10.993333,-10.003410,0.966905,0.032918,-0.081799,0.000000,-0.006153,-0.182146,0.000000
0.340000,-2.714324,-0.223742,-1.498559,0.175103,0.043989,-0.009126,0.830886,0.326694,-0.109776,1.742888,-0.145813,-0.321870,-7.633640,-10.233892,1.135885,0.032807,-0.083566,0.000000,-0.016168,-0.171683,0.000000
0.350000,-2.712531,-0.223286,-1.498656,0.183498,0.047247,-0.010240,0.847988,0.324721,-0.112935,1.676251,-0.248733,-0.310060,-7.779610,-10.189684,1.126121,0.032594,-0.085250,0.000000,-0.026426,-0.164964,-0.000000
0.360000,-2.710654,-0.222797,-1.498764,0.192060,0.050480,-0.011385,0.864336,0.321726,-0.115981,1.592646,-0.350237,-0.299262,-7.859469,-10.148561,1.101809,0.032279,-0.086859,0.000000,-0.036528,-0.156558,-0.000000
0.370000,-2.708689,-0.222276,-1.498884,0.200782,0.053678,-0.012559,0.879927,0.317714,-0.118916,1.529091,-0.452042,-0.287417,-5.886786,-10.175069,1.196885,0.031863,-0.088392,0.000000,-0.046650,-0.150182,0.000000
0.380000,-2.706637,-0.221723,-1.499015,0.209657,0.056831,-0.013763,0.894869,0.312688,-0.121734,1.453155,-0.552957,-0.276796,-9.327171,-10.006253,0.923324,0.031346,-0.089859,0.000000,-0.056672,-0.142575,0.000000
0.390000,-2.704496,-0.221140,-1.499159,0.218677,0.059929,-0.014994,0.908937,0.306659,-0.124457,1.363739,-0.652898,-0.267606,-7.498896,-10.018408,0.981855,0.030730,-0.091239,0.000000,-0.066588,-0.133627,-0.000000
0.400000,-2.702263,-0.220525,-1.499315,0.227833,0.062961,-0.016251,0.922229,0.299629,-0.127083,1.294335,-0.752998,-0.257769,-7.426894,-9.964130,0.914208,0.030015,-0.092542,0.000000,-0.076515,-0.126697,0.000000
0.410000,-2.699939,-0.219881,-1.499484,0.237119,0.065918,-0.017535,0.934791,0.291601,-0.129617,1.217907,-0.852380,-0.249227,-7.323669,-9.908738,0.836587,0.029200,-0.093771,0.000000,-0.086365,-0.119068,0.000000
0.420000,-2.697521,-0.219207,-1.499666,0.246526,0.068790,-0.018844,0.946634,0.282583,-0.132067,1.152816,-0.951134,-0.240663,-6.206953,-9.844201,0.832429,0.028287,-0.094929,0.000000,-0.096148,-0.112582,-0.000000
0.430000,-2.695008,-0.218505,-1.499861,0.256049,0.071566,-0.020176,0.957828,0.272581,-0.134435,1.082998,-1.049307,-0.233493,-7.770203,-9.789700,0.599188,0.027277,-0.096022,0.000000,-0.105870,-0.105624,0.000000
0.440000,-2.692399,-0.217776,-1.500070,0.265680,0.074238,-0.021532,0.968272,0.261599,-0.136742,1.007890,-1.146859,-0.227843,-6.728834,-9.717309,0.572542,0.026170,-0.097040,0.000000,-0.115528,-0.098135,0.000000
0.450000,-2.689694,-0.217021,-1.500292,0.275412,0.076795,-0.022911,0.978032,0.249646,-0.138992,0.944043,-1.243662,-0.222419,-6.558004,-9.645104,0.468304,0.024967,-0.097990,0.000000,-0.125110,-0.091775,0.000000
0.460000,-2.686891,-0.216241,-1.500528,0.285239,0.079228,-0.024312,0.987142,0.236728,-0.141195,0.878069,-1.339772,-0.218385,-6.373555,-9.568853,0.359855,0.023668,-0.098875,0.000000,-0.134621,-0.085198,0.000000
0.470000,-2.683989,-0.215437,-1.500778,0.295153,0.081526,-0.025735,0.995621,0.222854,-0.143362,0.819008,-1.434955,-0.215031,-5.691511,-9.474040,0.289180,0.022275,-0.099697,0.000000,-0.144039,-0.079310,-0.000000
0.480000,-2.680987,-0.214610,-1.501043,0.305149,0.083682,-0.027179,1.003517,0.208032,-0.145501,0.758927,-1.529385,-0.213056,-6.331678,-9.411291,0.104946,0.020788,-0.100461,0.000000,-0.153380,-0.073314,-0.000000
0.490000,-2.677886,-0.213764,-1.501322,0.315221,0.085684,-0.028645,1.010793,0.192269,-0.147628,0.697531,-1.623020,-0.212505,-5.690348,-9.307538,0.026635,0.019208,-0.101163,0.000000,-0.162640,-0.067179,-0.000000
0.500000,-2.674683,-0.212897,-1.501616,0.325363,0.087524,-0.030131,1.017494,0.175575,-0.149753,0.642961,-1.715579,-0.212707,-5.479313,-9.210431,-0.088280,0.017535,-0.101807,0.000000,-0.171792,-0.061720,0.000000
0.510000,-2.671378,-0.212014,-1.501925,0.335570,0.089192,-0.031640,1.023651,0.157960,-0.151886,0.588701,-1.807150,-0.214175,-5.261411,-9.106688,-0.201107,0.015772,-0.102397,0.000000,-0.180842,-0.056285,0.000000
0.520000,-2.667971,-0.211114,-1.502249,0.345835,0.090680,-0.033169,1.029285,0.139435,-0.154040,0.538759,-1.897727,-0.216685,-4.834192,-9.004006,-0.304282,0.013919,-0.102935,0.000000,-0.189789,-0.051272,0.000000
0.530000,-2.664461,-0.210201,-1.502588,0.356154,0.091978,-0.034720,1.034429,0.120010,-0.156224,0.489766,-1.987133,-0.220331,-4.967637,-8.876106,-0.424430,0.011977,-0.103423,0.000000,-0.198615,-0.046345,-0.000000
0.540000,-2.660848,-0.209275,-1.502943,0.366522,0.093077,-0.036294,1.039082,0.099697,-0.158450,0.441582,-2.075302,-0.225081,-4.560524,-8.760163,-0.520714,0.009947,-0.103862,0.000000,-0.207312,-0.041491,-0.000000
0.550000,-2.657131,-0.208340,-1.503314,0.376934,0.093969,-0.037890,1.043276,0.078508,-0.160728,0.397638,-2.162283,-0.230761,-4.336954,-8.631370,-0.618125,0.007831,-0.104255,0.000000,-0.215884,-0.037052,0.000000
0.560000,-2.653309,-0.207397,-1.503701,0.387386,0.094645,-0.039509,1.047039,0.056455,-0.163068,0.355198,-2.247932,-0.237305,-4.111590,-8.496205,-0.706789,0.005630,-0.104603,0.000000,-0.224314,-0.032756,0.000000
0.570000,-2.649383,-0.206448,-1.504104,0.397873,0.095095,-0.041151,1.050391,0.033554,-0.165479,0.315766,-2.332173,-0.245029,-3.813370,-8.351910,-0.820055,0.003345,-0.104911,0.000000,-0.232595,-0.028749,-0.000000
0.580000,-2.645351,-0.205495,-1.504524,0.408392,0.095313,-0.042818,1.053360,0.009817,-0.167970,0.278120,-2.414970,-0.253326,-3.717429,-8.206315,-0.837142,0.000978,-0.105179,0.000000,-0.240720,-0.024915,0.000000
0.590000,-2.641215,-0.204542,-1.504961,0.418939,0.095289,-0.044511,1.055959,-0.014741,-0.170547,0.242187,-2.496252,-0.262079,-3.430815,-8.047698,-0.928612,-0.001469,-0.105410,0.000000,-0.248681,-0.021250,0.000000
0.600000,-2.636973,-0.203590,-1.505414,0.429510,0.095015,-0.046230,1.058214,-0.040103,-0.173215,0.209166,-2.575908,-0.271719,-3.212395,-7.883411,-0.980763,-0.003995,-0.105605,0.000000,-0.256466,-0.017866,-0.000000
0.610000,-2.632625,-0.202643,-1.505885,0.440102,0.094484,-0.047976,1.060148,-0.066253,-0.175982,0.177905,-2.653849,-0.281575,-2.999334,-7.710497,-1.018983,-0.006597,-0.105767,0.000000,-0.264065,-0.014656,0.000000
0.620000,-2.628171,-0.201702,-1.506374,0.450712,0.093688,-0.049750,1.061782,-0.093174,-0.178850,0.149541,-2.730158,-0.292341,-2.713532,-7.543069,-1.102221,-0.009275,-0.105899,0.000000,-0.271483,-0.011727,-0.000000
0.630000,-2.623610,-0.200770,-1.506880,0.461337,0.092618,-0.051553,1.063144,-0.120850,-0.181828,0.122795,-2.804536,-0.302947,-2.637597,-7.330940,-1.015666,-0.012026,-0.106002,0.000000,-0.278691,-0.008961,-0.000000
0.640000,-2.618944,-0.199850,-1.507405,0.471974,0.091268,-0.053387,1.064243,-0.149258,-0.184908,0.097573,-2.876891,-0.313212,-2.367546,-7.145606,-1.065081,-0.014848,-0.106079,0.000000,-0.285679,-0.006353,-0.000000
0.650000,-2.614171,-0.198946,-1.507948,0.482621,0.089631,-0.055251,1.065105,-0.178381,-0.188094,0.075087,-2.947361,-0.323941,-2.169543,-6.939882,-1.048158,-0.017739,-0.106131,0.000000,-0.292459,-0.004012,-0.000000
0.660000,-2.609291,-0.198059,-1.508510,0.493276,0.087698,-0.057149,1.065750,-0.208198,-0.191384,0.054281,-3.015588,-0.334038,-1.975271,-6.723792,-1.012437,-0.020697,-0.106160,0.000000,-0.298996,-0.001847,0.000000
0.670000,-2.604305,-0.197193,-1.509091,0.503935,0.085464,-0.059079,1.066198,-0.238687,-0.194777,0.035725,-3.081988,-0.344538,-1.753380,-6.535665,-1.042078,-0.023719,-0.106168,0.000000,-0.305329,0.000098,-0.000000
0.680000,-2.599213,-0.196350,-1.509692,0.514599,0.082922,-0.061045,1.066470,-0.269829,-0.198271,0.018844,-3.145873,-0.353930,-1.624284,-6.239208,-0.832104,-0.026802,-0.106158,0.000000,-0.311391,0.001864,-0.000000
0.690000,-2.594013,-0.195535,-1.510312,0.525264,0.080066,-0.063045,1.066580,-0.301596,-0.201851,0.003562,-3.207128,-0.361980,-1.416050,-6.029527,-0.817913,-0.029945,-0.106131,0.000000,-0.317174,0.003455,-0.000000
0.700000,-2.588707,-0.194750,-1.510953,0.535930,0.076888,-0.065082,1.066549,-0.333965,-0.205511,-0.009638,-3.266270,-0.369862,-1.241760,-5.778330,-0.712476,-0.033145,-0.106090,0.000000,-0.322725,0.004837,0.000000
0.710000,-2.583295,-0.193998,-1.511614,0.546595,0.073385,-0.067156,1.066393,-0.366912,-0.209241,-0.021234,-3.322761,-0.376038,-1.072632,-5.519317,-0.583732,-0.036399,-0.106035,0.000000,-0.327997,0.006041,-0.000000
0.720000,-2.577775,-0.193284,-1.512296,0.557258,0.069548,-0.069267,1.066130,-0.400412,-0.213032,-0.031056,-3.376634,-0.382061,-0.898395,-5.252890,-0.555358,-0.039704,-0.105970,0.000000,-0.332988,0.007067,0.000000
0.730000,-2.572150,-0.192609,-1.513000,0.567917,0.065375,-0.071416,1.065777,-0.434436,-0.216875,-0.039339,-3.427772,-0.385776,-0.759285,-4.973045,-0.182394,-0.043058,-0.105894,0.000000,-0.337695,0.007916,-0.000000
0.740000,-2.566417,-0.191977,-1.513725,0.578573,0.060858,-0.073605,1.065348,-0.468958,-0.220738,-0.046148,-3.476081,-0.386899,-0.597882,-4.688250,-0.101604,-0.046457,-0.105812,0.000000,-0.342115,0.008591,0.000000
0.750000,-2.560578,-0.191393,-1.514472,0.589224,0.055994,-0.075831,1.064859,-0.503948,-0.224611,-0.051373,-3.521498,-0.387208,-0.452892,-4.392795,0.105730,-0.049899,-0.105723,0.000000,-0.346233,0.009100,0.000000
0.760000,-2.554633,-0.190858,-1.515241,0.599870,0.050778,-0.078097,1.064325,-0.539378,-0.228472,-0.055291,-3.563946,-0.384617,-0.315374,-4.088858,0.338024,-0.053381,-0.105630,0.000000,-0.350057,0.009450,-0.000000
0.770000,-2.548581,-0.190378,-1.516034,0.610510,0.045205,-0.080401,1.063759,-0.575216,-0.232301,-0.057550,-3.603186,-0.381094,-0.153594,-3.763728,0.445357,-0.056899,-0.105534,0.000000,-0.353554,0.009627,-0.000000
0.780000,-2.542422,-0.189956,-1.516850,0.621145,0.039272,-0.082743,1.063177,-0.611431,-0.236082,-0.058719,-3.639318,-0.374059,-0.081776,-3.461325,0.967348,-0.060451,-0.105438,0.000000,-0.356752,0.009659,-0.000000
0.790000,-2.536158,-0.189594,-1.517689,0.631774,0.032975,-0.085122,1.062588,-0.647992,-0.239769,-0.058886,-3.672256,-0.363205,0.063495,-3.118491,1.130642,-0.064033,-0.105341,0.000000,-0.359650,0.009554,0.000000
0.800000,-2.529787,-0.189297,-1.518552,0.642397,0.026311,-0.087538,1.062005,-0.684864,-0.243342,-0.057609,-3.701709,-0.350735,0.174751,-2.776588,1.442851,-0.067643,-0.105247,0.000000,-0.362210,0.009291,0.000000
0.810000,-2.523310,-0.189069,-1.519440,0.653014,0.019277,-0.089988,1.061439,-0.722015,-0.246769,-0.055362,-3.727780,-0.334174,0.279583,-2.425680,1.780200,-0.071276,-0.105155,0.000000,-0.364463,0.008890,-0.000000
0.820000,-2.516727,-0.188913,-1.520352,0.663626,0.011870,-0.092472,1.060901,-0.759407,-0.250021,-0.051984,-3.750095,-0.315917,0.388857,-2.045742,1.963910,-0.074931,-0.105069,0.000000,-0.366361,0.008362,-0.000000
0.830000,-2.510037,-0.188833,-1.521289,0.674232,0.004088,-0.094988,1.060402,-0.797005,-0.253071,-0.047731,-3.768870,-0.292950,0.460506,-1.707830,2.635423,-0.078603,-0.104988,0.000000,-0.367951,0.007701,0.000000
0.840000,-2.503242,-0.188833,-1.522252,0.684834,-0.004071,-0.097533,1.059949,-0.834773,-0.255863,-0.042679,-3.784017,-0.264963,0.554586,-1.309790,2.874443,-0.082289,-0.104915,0.000000,-0.369236,0.006911,0.000000
0.850000,-2.496341,-0.188916,-1.523240,0.695431,-0.012608,-0.100104,1.059552,-0.872672,-0.258364,-0.036713,-3.795117,-0.234633,0.631535,-0.918467,3.284682,-0.085986,-0.104850,0.000000,-0.370160,0.006010,0.000000
0.860000,-2.489333,-0.189086,-1.524254,0.706025,-0.021524,-0.102699,1.059216,-0.910662,-0.260537,-0.030360,-3.802368,-0.199151,0.696040,-0.517428,3.715624,-0.089691,-0.104794,0.000000,-0.370773,0.005019,0.000000
0.870000,-2.482220,-0.189347,-1.525294,0.716616,-0.030821,-0.105314,1.058951,-0.948704,-0.262341,-0.022258,-3.805314,-0.161201,0.865174,-0.082254,3.974588,-0.093400,-0.104750,0.000000,-0.371011,0.003833,-0.000000
0.880000,-2.475001,-0.189704,-1.526360,0.727204,-0.040499,-0.107945,1.058770,-0.986755,-0.263742,-0.014299,-3.804232,-0.117560,0.723733,0.300092,4.758974,-0.097110,-0.104717,0.000000,-0.370940,0.002605,0.000000
0.890000,-2.467676,-0.190159,-1.527453,0.737792,-0.050556,-0.110587,1.058664,-1.024775,-0.264672,-0.006629,-3.799029,-0.067954,0.867828,0.754729,5.065706,-0.100818,-0.104698,0.000000,-0.370562,0.001345,-0.000000
0.900000,-2.460245,-0.190716,-1.528572,0.748378,-0.060994,-0.113236,1.058643,-1.062720,-0.265092,0.002545,-3.789205,-0.015363,0.906842,1.199782,5.552175,-0.104520,-0.104691,0.000000,-0.369807,-0.000091,-0.000000
0.910000,-2.452709,-0.191380,-1.529718,0.758965,-0.071810,-0.115887,1.058714,-1.100545,-0.264958,0.011575,-3.774978,0.043197,0.939151,1.656207,6.054736,-0.108213,-0.104699,0.000000,-0.368733,-0.001573,-0.000000
0.920000,-2.445066,-0.192153,-1.530890,0.769553,-0.083004,-0.118533,1.058879,-1.138204,-0.264220,0.021686,-3.755961,0.104782,1.042464,2.140800,6.367119,-0.111894,-0.104723,0.000000,-0.367280,-0.003190,-0.000000
0.930000,-2.437318,-0.193041,-1.532088,0.780143,-0.094574,-0.121169,1.059147,-1.175649,-0.262840,0.031578,-3.732301,0.172737,0.933935,2.592959,7.228297,-0.115558,-0.104764,0.000000,-0.365506,-0.004852,0.000000
0.940000,-2.429463,-0.194046,-1.533313,0.790736,-0.106516,-0.123788,1.059509,-1.212834,-0.260743,0.041150,-3.703889,0.247274,1.019758,3.100114,7.575487,-0.119203,-0.104821,0.000000,-0.363413,-0.006549,0.000000
0.950000,-2.421503,-0.195173,-1.534564,0.801333,-0.118829,-0.126382,1.059973,-1.249709,-0.257885,0.051627,-3.670329,0.325146,1.034592,3.605344,8.103786,-0.122825,-0.104896,0.000000,-0.360931,-0.008371,-0.000000
0.960000,-2.413436,-0.196424,-1.535841,0.811936,-0.131509,-0.128943,1.060541,-1.286224,-0.254217,0.062011,-3.631650,0.409395,1.047690,4.124779,8.639483,-0.126420,-0.104990,0.000000,-0.358108,-0.010251,0.000000
0.970000,-2.405264,-0.197804,-1.537143,0.822544,-0.144552,-0.131463,1.061214,-1.322325,-0.249688,0.072628,-3.587862,0.496955,1.069324,4.642565,8.975815,-0.129986,-0.105103,0.000000,-0.354913,-0.012191,-0.000000
0.980000,-2.396986,-0.199316,-1.538470,0.833160,-0.157954,-0.133934,1.061994,-1.357962,-0.244256,0.083267,-3.538594,0.591077,1.057938,5.213554,9.851286,-0.133517,-0.105236,0.000000,-0.351357,-0.014204,0.000000
0.990000,-2.388601,-0.200964,-1.539821,0.843785,-0.171710,-0.136345,1.062880,-1.393078,-0.237844,0.093899,-3.483700,0.691873,1.074223,5.759704,10.202468,-0.137011,-0.105390,0.000000,-0.347437,-0.016291,0.000000
1.000000,-2.380110,-0.202752,-1.541197,0.854418,-0.185814,-0.138687,1.063873,-1.427618,-0.230409,0.104700,-3.423289,0.795989,1.079536,6.332627,10.723779,-0.140465,-0.105565,0.000000,-0.343124,-0.018436,0.000000
1.010000,-2.371512,-0.204682,-1.542595,0.865062,-0.200260,-0.140950,1.064973,-1.461524,-0.221902,0.115423,-3.356791,0.906261,1.082414,6.923969,11.239267,-0.143873,-0.105763,0.000000,-0.338406,-0.020645,0.000000
1.020000,-2.362809,-0.206758,-1.544015,0.875718,-0.215042,-0.143121,1.066183,-1.494738,-0.212274,0.126509,-3.285180,1.019910,1.117902,7.444468,11.575398,-0.147232,-0.105983,0.000000,-0.333343,-0.022935,-0.000000
1.030000,-2.353998,-0.208984,-1.545457,0.886386,-0.230152,-0.145191,1.067503,-1.527205,-0.201483,0.137426,-3.206931,1.139545,1.065043,8.209035,12.351537,-0.150538,-0.106226,0.000000,-0.327829,-0.025284,0.000000
1.040000,-2.345081,-0.211362,-1.546919,0.897068,-0.245583,-0.147147,1.068930,-1.558853,-0.189463,0.148157,-3.121843,1.265125,1.098630,8.766471,12.673527,-0.153787,-0.106494,0.000000,-0.321846,-0.027690,0.000000
1.050000,-2.336057,-0.213896,-1.548399,0.907765,-0.261326,-0.148976,1.070467,-1.589624,-0.176172,0.159258,-3.031178,1.393700,1.104806,9.413130,13.124670,-0.156974,-0.106787,0.000000,-0.315476,-0.030182,-0.000000
1.060000,-2.326925,-0.216590,-1.549898,0.918478,-0.277373,-0.150666,1.072116,-1.619452,-0.161572,0.170378,-2.933238,1.527196,1.114920,10.081291,13.549347,-0.160094,-0.107106,0.000000,-0.308583,-0.032746,-0.000000
1.070000,-2.317687,-0.219445,-1.551412,0.929208,-0.293712,-0.152203,1.073875,-1.648274,-0.145616,0.181524,-2.830388,1.664405,1.119416,10.583759,13.908529,-0.163144,-0.107451,0.000000,-0.301378,-0.035374,0.000000
1.080000,-2.308341,-0.222465,-1.552941,0.939956,-0.310335,-0.153574,1.075747,-1.676032,-0.128270,0.192871,-2.719569,1.805704,1.150625,11.585130,14.346779,-0.166120,-0.107823,0.000000,-0.293567,-0.038090,0.000000
1.090000,-2.298888,-0.225652,-1.554483,0.950723,-0.327229,-0.154764,1.077733,-1.702637,-0.109490,0.204461,-2.600524,1.950819,1.163755,12.132016,14.650101,-0.169014,-0.108224,0.000000,-0.285117,-0.040898,-0.000000
1.100000,-2.289327,-0.229010,-1.556036,0.961511,-0.344383,-0.155759,1.079836,-1.728026,-0.089244,0.216196,-2.476092,2.098765,1.188823,12.849766,14.954017,-0.171821,-0.108653,0.000000,-0.276284,-0.043783,0.000000
1.110000,-2.279658,-0.232541,-1.557598,0.972320,-0.361785,-0.156544,1.082056,-1.752130,-0.067502,0.227789,-2.343355,2.250194,1.210316,13.585282,15.229904,-0.174537,-0.109112,0.000000,-0.266789,-0.046727,-0.000000
1.120000,-2.269880,-0.236247,-1.559166,0.983153,-0.379421,-0.157104,1.084399,-1.774878,-0.044240,0.241154,-2.205404,2.402350,1.386650,14.117357,15.286717,-0.177156,-0.109603,0.000000,-0.256874,-0.049892,-0.000000
1.130000,-2.259994,-0.240130,-1.560739,0.994009,-0.397278,-0.157423,1.086877,-1.796208,-0.019444,0.253927,-2.058651,2.557726,1.166746,15.238199,15.783953,-0.179672,-0.110126,0.000000,-0.246224,-0.053078,-0.000000
1.140000,-2.250000,-0.244193,-1.562314,1.004891,-0.415340,-0.157487,1.089475,-1.816020,0.006925,0.266077,-1.902855,2.715997,1.342607,15.810159,15.768533,-0.182077,-0.110682,0.000000,-0.234800,-0.056280,0.000000
1.150000,-2.239896,-0.248437,-1.563888,1.015799,-0.433593,-0.157280,1.092206,-1.834248,0.034873,0.280143,-1.741475,2.873724,1.395272,16.578528,15.861058,-0.184366,-0.111272,0.000000,-0.222859,-0.059719,-0.000000
1.160000,-2.229684,-0.252865,-1.565458,1.026735,-0.452020,-0.156785,1.095083,-1.850816,0.064401,0.295476,-1.570658,3.031833,1.484091,17.369113,15.879356,-0.186531,-0.111898,0.000000,-0.210023,-0.063344,0.000000
1.170000,-2.219362,-0.257478,-1.567022,1.037701,-0.470604,-0.155986,1.098103,-1.865653,0.095520,0.308121,-1.396074,3.192297,1.230053,17.758247,16.079628,-0.188566,-0.112560,0.000000,-0.196875,-0.066789,0.000000
1.180000,-2.208930,-0.262278,-1.568577,1.048698,-0.489327,-0.154869,1.101257,-1.878701,0.128239,0.323962,-1.211078,3.350623,1.945492,19.247469,15.571584,-0.190465,-0.113259,0.000000,-0.182645,-0.070595,-0.000000
1.190000,-2.198388,-0.267265,-1.570119,1.059727,-0.508171,-0.153416,1.104596,-1.889837,0.162521,0.343358,-1.015378,3.506029,1.750540,19.680122,15.624231,-0.192215,-0.113999,0.000000,-0.167259,-0.074798,-0.000000
1.200000,-2.187735,-0.272442,-1.571644,1.070790,-0.527117,-0.151613,1.108114,-1.898999,0.198363,0.360580,-0.815686,3.661829,1.880227,20.468935,15.399846,-0.193809,-0.114782,0.000000,-0.151430,-0.078865,0.000000
1.210000,-2.176972,-0.277808,-1.573150,1.081890,-0.546145,-0.149444,1.111817,-1.906114,0.235741,0.380386,-0.605862,3.813056,2.014728,21.263894,15.086849,-0.195239,-0.115608,0.000000,-0.134412,-0.083223,-0.000000
1.220000,-2.166097,-0.283365,-1.574632,1.093027,-0.565232,-0.146893,1.115721,-1.911109,0.274633,0.400255,-0.392557,3.965632,2.028847,21.618710,15.173718,-0.196497,-0.116479,0.000000,-0.116961,-0.087693,0.000000
1.230000,-2.155111,-0.289113,-1.576086,1.104205,-0.584359,-0.143946,1.119831,-1.913929,0.315028,0.422425,-0.168835,4.111192,2.408814,23.130295,13.918653,-0.197574,-0.117397,0.000000,-0.098177,-0.092411,0.000000
1.240000,-2.144013,-0.295052,-1.577509,1.115425,-0.603503,-0.140588,1.124178,-1.914449,0.356828,0.447085,0.065472,4.248681,2.455976,23.502572,13.812383,-0.198455,-0.118365,0.000000,-0.077978,-0.097388,0.000000
1.250000,-2.132802,-0.301183,-1.578897,1.126689,-0.622641,-0.136805,1.128773,-1.912613,0.400002,0.472157,0.303068,4.385113,2.628467,24.237865,13.216884,-0.199132,-0.119384,0.000000,-0.057204,-0.102504,-0.000000
1.260000,-2.121479,-0.307505,-1.580244,1.138001,-0.641747,-0.132584,1.133628,-1.908355,0.444499,0.499129,0.549758,4.512891,2.801402,24.951346,12.538907,-0.199594,-0.120457,0.000000,-0.035071,-0.107825,0.000000
1.270000,-2.110042,-0.314018,-1.581547,1.149363,-0.660799,-0.127911,1.138764,-1.901606,0.490254,0.528524,0.800672,4.637598,3.046017,25.366812,12.183610,-0.199831,-0.121586,0.000000,-0.012142,-0.113480,0.000000
1.280000,-2.098492,-0.320720,-1.582801,1.160777,-0.679771,-0.122775,1.144203,-1.892312,0.537215,0.559386,1.059936,4.751979,3.126531,26.484680,10.673628,-0.199832,-0.122773,0.000000,0.012195,-0.119285,-0.000000
1.290000,-2.086826,-0.327613,-1.584001,1.172248,-0.698637,-0.117163,1.149956,-1.880379,0.585254,0.591747,1.327406,4.854993,3.380266,26.861378,10.124821,-0.199582,-0.124020,0.000000,0.038000,-0.125235,-0.000000
1.300000,-2.075046,-0.334693,-1.585142,1.183777,-0.717370,-0.111066,1.156047,-1.865756,0.634300,0.626732,1.598232,4.952454,3.585182,27.438022,9.147046,-0.199070,-0.125330,0.000000,0.064704,-0.131525,-0.000000
1.310000,-2.063151,-0.341959,-1.586220,1.195370,-0.735943,-0.104474,1.162501,-1.848390,0.684253,0.664605,1.875883,5.036234,3.818684,27.973155,8.056204,-0.198283,-0.126705,0.000000,0.092883,-0.138083,0.000000
1.320000,-2.051139,-0.349411,-1.587230,1.207029,-0.754328,-0.097378,1.169333,-1.828230,0.735024,0.701545,2.156509,5.117561,3.737264,28.251172,7.751008,-0.197210,-0.128146,0.000000,0.121939,-0.144659,0.000000
1.330000,-2.039010,-0.357045,-1.588166,1.218758,-0.772498,-0.089771,1.176548,-1.805239,0.786544,0.742871,2.442988,5.181648,4.533968,29.038466,5.040535,-0.195839,-0.129656,0.000000,0.152541,-0.151618,0.000000
1.340000,-2.026763,-0.364860,-1.589024,1.230561,-0.790423,-0.081646,1.184207,-1.779351,0.838592,0.788865,2.734902,5.227163,4.497096,29.225299,4.501317,-0.194153,-0.131239,0.000000,0.184722,-0.158972,-0.000000
1.350000,-2.014398,-0.372853,-1.589797,1.242443,-0.808075,-0.072998,1.192320,-1.750539,0.891078,0.834250,3.028204,5.267628,4.748711,29.532543,3.131314,-0.192142,-0.132896,0.000000,0.217798,-0.166346,0.000000
1.360000,-2.001914,-0.381021,-1.590482,1.254409,-0.825424,-0.063823,1.200909,-1.718779,0.943877,0.883942,3.323976,5.289466,5.011435,29.748677,1.675478,-0.189793,-0.134630,0.000000,0.252211,-0.174072,-0.000000
1.370000,-1.989310,-0.389360,-1.591072,1.266463,-0.842441,-0.054120,1.209994,-1.684042,0.996854,0.932840,3.624210,5.305071,4.940977,30.151102,0.999596,-0.187093,-0.136441,0.000000,0.287942,-0.181775,0.000000
1.380000,-1.976585,-0.397868,-1.591562,1.278611,-0.859095,-0.043886,1.219582,-1.646298,1.049906,0.986386,3.923912,5.300111,5.773349,29.771760,-2.014180,-0.184030,-0.138331,0.000000,0.324785,-0.189829,-0.000000
1.390000,-1.963737,-0.406541,-1.591948,1.290857,-0.875357,-0.033122,1.229739,-1.605570,1.102781,1.044795,4.222098,5.273439,5.732880,29.987454,-2.888133,-0.180594,-0.140304,0.000000,0.362658,-0.198231,-0.000000
1.400000,-1.950767,-0.415374,-1.592223,1.303207,-0.891197,-0.021831,1.240473,-1.561847,1.155355,1.102506,4.522222,5.238451,5.982446,29.887098,-4.555806,-0.176773,-0.142361,0.000000,0.401663,-0.206563,0.000000
1.410000,-1.937673,-0.424363,-1.592383,1.315668,-0.906584,-0.010016,1.251814,-1.515140,1.207475,1.166479,4.818533,5.182363,6.271868,29.671542,-6.280182,-0.172558,-0.144503,0.000000,0.441430,-0.215384,-0.000000
1.420000,-1.924453,-0.433504,-1.592422,1.328246,-0.921489,0.002316,1.263768,-1.465460,1.258976,1.222948,5.118212,5.116299,5.541917,29.946441,-7.314600,-0.167940,-0.146729,0.000000,0.482487,-0.223311,-0.000000
1.430000,-1.911108,-0.442791,-1.592335,1.340946,-0.935883,0.015161,1.276306,-1.412802,1.309724,1.288228,5.410796,5.028067,7.527145,28.544712,-10.347942,-0.162908,-0.149035,0.000000,0.523910,-0.231955,-0.000000
1.440000,-1.897634,-0.452220,-1.592117,1.353774,-0.949736,0.028507,1.289568,-1.357274,1.359458,1.362849,5.694899,4.916882,6.865633,28.564907,-11.512060,-0.157461,-0.151434,0.000000,0.565480,-0.241350,0.000000
1.450000,-1.884032,-0.461784,-1.591763,1.366739,-0.963019,0.042346,1.303529,-1.298898,1.408031,1.429930,5.979169,4.794544,7.071269,27.967762,-13.336738,-0.151595,-0.153919,0.000000,0.607852,-0.249744,0.000000
1.460000,-1.870299,-0.471478,-1.591268,1.379847,-0.975705,0.056664,1.318177,-1.237716,1.455267,1.499691,6.256225,4.649393,7.177092,27.301618,-15.200196,-0.145304,-0.156486,0.000000,0.650334,-0.258063,-0.000000
1.470000,-1.856434,-0.481296,-1.590628,1.393105,-0.987764,0.071446,1.333550,-1.173808,1.500997,1.576114,6.523703,4.495090,7.809510,26.297373,-16.139421,-0.138590,-0.159137,0.000000,0.692321,-0.266985,0.000000
1.480000,-1.842436,-0.491231,-1.589838,1.406521,-0.999172,0.086678,1.349687,-1.107264,1.545085,1.649622,6.784353,4.316562,6.875969,25.818020,-19.578945,-0.131458,-0.161874,0.000000,0.734231,-0.275089,0.000000
1.490000,-1.828303,-0.501277,-1.588893,1.420101,-1.009901,0.102341,1.366528,-1.038146,1.587242,1.719394,7.037245,4.113276,7.365561,24.619545,-20.590075,-0.123907,-0.164683,0.000000,0.775798,-0.282200,0.000000
1.500000,-1.814034,-0.511427,-1.587790,1.433854,-1.019927,0.118416,1.384097,-0.966564,1.627328,1.794277,7.277401,3.900739,7.309539,23.513949,-22.394779,-0.115946,-0.167564,0.000000,0.816064,-0.289613,-0.000000
1.510000,-1.799626,-0.521673,-1.586524,1.447786,-1.029225,0.134881,1.402351,-0.892721,1.665203,1.854715,7.486467,3.671750,6.980498,21.887295,-24.058818,-0.107600,-0.170506,0.000000,0.852714,-0.294831,-0.000000
1.520000,-1.785077,-0.532009,-1.585091,1.461903,-1.037774,0.151712,1.421359,-0.816597,1.700655,1.954079,7.747978,3.413612,10.741531,26.899505,-26.918235,-0.098863,-0.173512,0.000000,0.895835,-0.303875,0.000000
1.530000,-1.770387,-0.542426,-1.583488,1.476216,-1.045548,0.168885,1.441320,-0.737984,1.733452,2.024402,7.950686,3.147049,3.250806,13.518683,-26.365317,-0.089711,-0.176598,0.000000,0.931499,-0.309058,0.000000
1.540000,-1.755552,-0.552917,-1.581712,1.490731,-1.052528,0.186372,1.461723,-0.657826,1.763577,2.062388,8.088892,2.873484,6.507497,17.644157,-28.987093,-0.080265,-0.179702,0.000000,0.958705,-0.309923,0.000000
1.550000,-1.740571,-0.563474,-1.579760,1.505453,-1.058699,0.204147,1.482724,-0.575990,1.790820,2.136099,8.273377,2.573021,6.075330,15.723015,-30.447659,-0.070512,-0.182832,0.000000,0.991010,-0.314150,-0.000000
1.560000,-1.725442,-0.574089,-1.577628,1.520388,-1.064042,0.222178,1.504463,-0.492431,1.815006,2.213486,8.437524,2.261752,6.132026,14.295531,-31.874558,-0.060456,-0.186001,0.000000,1.019919,-0.318222,0.000000
1.570000,-1.710163,-0.584752,-1.575315,1.535544,-1.068543,0.240436,1.526730,-0.407516,1.836002,2.228627,8.533367,1.935034,0.064359,7.589025,-33.379243,-0.050152,-0.189174,0.000000,1.039280,-0.314027,-0.000000
1.580000,-1.694731,-0.595457,-1.572819,1.550923,-1.072190,0.258887,1.549184,-0.321686,1.853666,2.281285,8.646341,1.596047,10.562239,15.085618,-34.402504,-0.039665,-0.192305,0.000000,1.059488,-0.313638,0.000000
1.590000,-1.679144,-0.606193,-1.570137,1.566531,-1.074972,0.277498,1.572520,-0.234499,1.867886,2.375624,8.779922,1.245692,5.098757,8.878077,-35.732482,-0.028956,-0.195469,0.000000,1.080810,-0.317584,0.000000
1.600000,-1.663399,-0.616953,-1.567269,1.582375,-1.076877,0.296233,1.596442,-0.146357,1.878535,2.410310,8.847136,0.882350,5.022992,7.298393,-36.842938,-0.018088,-0.198626,0.000000,1.092289,-0.313528,-0.000000
1.610000,-1.647495,-0.627728,-1.564212,1.598461,-1.077897,0.315056,1.620774,-0.057528,1.885497,2.455086,8.916246,0.508276,4.617003,5.611981,-37.874645,-0.007112,-0.201745,0.000000,1.102268,-0.309954,-0.000000
1.620000,-1.631429,-0.638508,-1.560967,1.614792,-1.078026,0.333930,1.645586,0.031838,1.888675,2.508843,8.950922,0.125932,5.451009,2.196190,-38.656156,0.003935,-0.204828,0.000000,1.106151,-0.306781,-0.000000
1.630000,-1.615199,-0.649285,-1.557534,1.631374,-1.077259,0.352817,1.670903,0.121473,1.887983,2.549760,8.978502,-0.266158,2.700438,3.340649,-39.746392,0.015002,-0.207872,0.000000,1.107255,-0.301331,0.000000
1.640000,-1.598801,-0.660050,-1.553911,1.648211,-1.075595,0.371677,1.696527,0.211394,1.883322,2.576244,8.999809,-0.667035,3.264073,0.025968,-40.330664,0.026072,-0.210846,0.000000,1.105653,-0.293452,-0.000000
1.650000,-1.582234,-0.670794,-1.550100,1.665306,-1.073031,0.390470,1.722461,0.301338,1.874626,2.609029,8.986405,-1.073063,2.602400,-1.829975,-40.934613,0.037093,-0.213745,0.000000,1.097845,-0.285763,0.000000
1.660000,-1.565494,-0.681508,-1.546102,1.682661,-1.069569,0.409156,1.748588,0.390980,1.861857,2.612942,8.935945,-1.481233,1.536203,-4.235217,-41.339790,0.048006,-0.216550,0.000000,1.083667,-0.274149,-0.000000
1.670000,-1.548580,-0.692183,-1.541918,1.700278,-1.065213,0.427693,1.774957,0.480304,1.844937,2.670514,8.938693,-1.905525,6.699860,0.866133,-42.856520,0.058790,-0.219260,0.000000,1.074045,-0.268163,-0.000000
1.680000,-1.531488,-0.702809,-1.537549,1.718162,-1.059963,0.446040,1.801808,0.569490,1.823769,2.678133,8.871019,-2.324480,-5.286731,-14.525261,-40.893248,0.069449,-0.221899,0.000000,1.054180,-0.255996,0.000000
1.690000,-1.514215,-0.713379,-1.532998,1.736313,-1.053827,0.464155,1.828310,0.657440,1.798477,2.630741,8.727357,-2.735930,-0.898781,-10.254769,-42.022343,0.079835,-0.224368,0.000000,1.023825,-0.237281,-0.000000
1.700000,-1.496761,-0.723883,-1.528267,1.754728,-1.046818,0.481996,1.854643,0.744269,1.769000,2.632036,8.632420,-3.158994,-2.135183,-12.667417,-41.923242,0.089948,-0.226684,0.000000,0.997861,-0.223849,0.000000
1.710000,-1.479120,-0.734312,-1.523359,1.773406,-1.038946,0.499521,1.881034,0.829844,1.735383,2.650117,8.476892,-3.562158,-2.295073,-15.151785,-41.431681,0.099760,-0.228874,0.000000,0.963647,-0.212766,-0.000000
1.720000,-1.461292,-0.744659,-1.518277,1.792347,-1.030226,0.516690,1.906986,0.913991,1.697552,2.512020,8.359769,-4.012458,-17.530152,-11.438084,-45.947163,0.109239,-0.230877,0.000000,0.932951,-0.182165,0.000000
1.730000,-1.443272,-0.754914,-1.513026,1.811541,-1.020671,0.533457,1.931629,0.996813,1.655280,2.463131,8.181712,-4.424844,7.983284,-24.252630,-36.429247,0.118390,-0.232586,0.000000,0.894469,-0.163151,0.000000
1.740000,-1.425060,-0.765070,-1.507610,1.830982,-1.010298,0.549783,1.956641,1.077386,1.609219,2.513524,7.939504,-4.794558,-5.800150,-20.952806,-40.185057,0.127100,-0.234213,0.000000,0.848325,-0.156737,0.000000
1.750000,-1.406652,-0.775117,-1.502032,1.850672,-0.999130,0.565628,1.981261,1.155788,1.559205,2.413602,7.735977,-5.205436,-6.355011,-22.920750,-39.298842,0.135377,-0.235668,0.000000,0.806429,-0.132123,-0.000000
1.760000,-1.388046,-0.785050,-1.496299,1.870603,-0.987188,0.580953,2.004535,1.232483,1.505068,2.223970,7.614941,-5.624435,-9.947978,-22.177078,-39.102754,0.143273,-0.236837,0.000000,0.774081,-0.097572,-0.000000
1.770000,-1.369239,-0.794859,-1.490415,1.890761,-0.974489,0.595717,2.027378,1.306415,1.447162,2.413451,7.100475,-5.937669,26.833183,-60.397484,-28.754145,0.150669,-0.237839,0.000000,0.697238,-0.108756,0.000000
1.780000,-1.350230,-0.804537,-1.484387,1.911157,-0.961077,0.609886,2.051704,1.375467,1.386082,2.319606,6.833491,-6.308908,-46.256267,7.644464,-45.639919,0.157332,-0.238906,0.000000,0.649609,-0.086664,0.000000
1.790000,-1.331015,-0.814078,-1.478219,1.931782,-0.946979,0.623424,2.072563,1.444166,1.320728,1.913375,6.842769,-6.744387,-13.771064,-26.285638,-36.160566,0.163782,-0.239455,0.000000,0.633263,-0.029264,-0.000000
1.800000,-1.311593,-0.823474,-1.471920,1.952602,-0.932202,0.636288,2.091533,1.510730,1.251631,1.864632,6.481585,-7.076480,-17.079840,-25.540865,-35.493967,0.169823,-0.239687,0.000000,0.576334,-0.014698,-0.000000
1.810000,-1.291962,-0.832720,-1.465496,1.973609,-0.916776,0.648445,2.109506,1.573688,1.179196,1.733092,6.092431,-7.406199,-17.837968,-28.835362,-33.954178,0.175302,-0.239716,0.000000,0.517840,0.008300,0.000000
1.820000,-1.272121,-0.841808,-1.458954,1.994786,-0.900736,0.659861,2.125471,1.634375,1.103274,1.429245,6.120436,-7.787530,-34.478137,11.636096,-38.861931,0.180377,-0.239435,0.000000,0.505269,0.050314,0.000000
1.830000,-1.252066,-0.850732,-1.452301,2.016108,-0.884087,0.670498,2.138472,1.694922,1.023663,1.221042,5.846497,-8.111022,-6.838333,-67.149504,-25.704124,0.185283,-0.238744,0.000000,0.461003,0.079531,-0.000000
1.840000,-1.231798,-0.859488,-1.445547,2.037552,-0.866858,0.680325,2.150328,1.750010,0.941295,1.123851,5.238134,-8.370398,-21.011783,-31.528559,-29.604067,0.189468,-0.237872,0.000000,0.383392,0.094722,-0.000000
1.850000,-1.211315,-0.868068,-1.438698,2.059108,-0.849099,0.689314,2.160293,1.801389,0.856050,0.874228,5.020619,-8.673250,-20.386389,-34.895657,-27.495888,0.193134,-0.236743,0.000000,0.348377,0.126192,0.000000
1.860000,-1.190616,-0.876468,-1.431763,2.080754,-0.830840,0.697437,2.169284,1.849636,0.768189,0.961115,4.620530,-8.889471,-14.143609,-37.557364,-24.504032,0.196357,-0.235466,0.000000,0.295503,0.120171,0.000000
1.870000,-1.169699,-0.884683,-1.424752,2.102486,-0.812118,0.704670,2.175505,1.894326,0.677649,0.114128,4.339419,-9.243738,-104.808755,-25.951793,-37.822470,0.199110,-0.233861,0.000000,0.257890,0.212076,0.000000
1.880000,-1.148566,-0.892709,-1.417673,2.124235,-0.792963,0.710979,2.174128,1.936005,0.583814,-0.076252,3.948602,-9.466970,68.298974,-52.392595,-6.552561,0.201473,-0.231425,0.000000,0.209650,0.232115,-0.000000
1.890000,-1.127215,-0.900541,-1.410535,2.145985,-0.773415,0.716343,2.176799,1.972850,0.488854,0.459490,3.440770,-9.547019,-12.103650,-41.720401,-18.056328,0.203261,-0.229422,0.000000,0.150631,0.176369,-0.000000
1.900000,-1.105646,-0.908176,-1.403349,2.167770,-0.753521,0.720750,2.179487,2.005349,0.392297,0.112495,3.052845,-9.755249,-6.646634,-43.154323,-15.033305,0.204550,-0.227421,0.000000,0.106714,0.211688,0.000000
1.910000,-1.083859,-0.915610,-1.396124,2.189565,-0.733319,0.724182,2.178495,2.034640,0.293668,-0.360493,2.831321,-9.976936,-13.340045,-39.395740,-14.306711,0.205472,-0.225044,0.000000,0.080615,0.258492,-0.000000
1.920000,-1.061855,-0.922841,-1.388869,2.211340,-0.712843,0.726620,2.178115,2.058994,0.194000,0.531052,1.913796,-9.903548,119.054282,-106.860266,14.405373,0.205873,-0.222751,0.000000,-0.012418,0.165791,-0.000000
1.930000,-1.039632,-0.929867,-1.381595,2.233158,-0.692171,0.728065,2.185494,2.074789,0.094940,0.496632,1.476001,-9.994889,-128.278832,20.512324,-33.137574,0.205418,-0.221276,0.000000,-0.055672,0.168025,0.000000
1.940000,-1.017191,-0.936684,-1.374311,2.255015,-0.671345,0.728509,2.184038,2.090589,-0.006631,-0.569014,1.572562,-10.271728,-11.701750,-38.711910,-7.527128,0.204962,-0.218918,0.000000,-0.046332,0.271250,0.000000
1.950000,-0.994532,-0.943293,-1.367028,2.276831,-0.650370,0.727929,2.179640,2.103425,-0.109310,-0.359567,1.020911,-10.270316,-19.386416,-34.189323,-6.847028,0.204225,-0.216300,0.000000,-0.098252,0.246384,0.000000
1.960000,-0.971655,-0.949691,-1.359756,2.298607,-0.629292,0.726322,2.175281,2.111414,-0.212169,-0.509976,0.564583,-10.294197,-21.213671,-34.566041,-4.469335,0.203044,-0.213732,0.000000,-0.138846,0.256132,0.000000
1.970000,-0.948560,-0.955879,-1.352505,2.320329,-0.608152,0.723684,2.168526,2.116533,-0.315646,-0.880195,0.536563,-10.419778,-42.566458,7.100342,-14.285728,0.201615,-0.210975,0.000000,-0.139811,0.287882,0.000000
1.980000,-0.925249,-0.961854,-1.345286,2.341964,-0.586961,0.720005,2.158102,2.121114,-0.420188,-1.145660,0.247562,-10.446357,-10.149933,-65.595983,9.176548,0.200157,-0.207906,0.000000,-0.163345,0.307193,-0.000000
1.990000,-0.901721,-0.967618,-1.338108,2.363486,-0.565749,0.715283,2.146102,2.120338,-0.524162,-1.288734,-0.333547,-10.364622,-28.713580,-28.577219,0.763544,0.198253,-0.204760,0.000000,-0.211243,0.312969,-0.000000
2.000000,-0.877979,-0.973169,-1.330983,2.384877,-0.544565,0.709522,2.131484,2.116171,-0.627904,-1.630628,-0.511512,-10.376481,-29.284417,-29.014261,3.263573,0.196087,-0.201437,0.000000,-0.222709,0.338238,-0.000000
2.010000,-0.854024,-0.978509,-1.323921,2.406109,-0.523434,0.702726,2.114927,2.109473,-0.731338,-1.646541,-0.830958,-10.302915,-24.376078,-28.754453,5.984634,0.193743,-0.198003,0.000000,-0.246244,0.332324,0.000000
2.020000,-0.829858,-0.983638,-1.316932,2.427165,-0.502385,0.694897,2.094616,2.100058,-0.834316,-2.581808,-1.030259,-10.307090,-113.552200,-17.042457,-1.517815,0.191216,-0.194300,0.000000,-0.256906,0.409356,-0.000000
2.030000,-0.805482,-0.988557,-1.310027,2.447969,-0.481439,0.686039,2.065756,2.088601,-0.937143,-2.886410,-1.296407,-10.222000,54.207164,-36.363394,18.693741,0.188579,-0.189898,0.000000,-0.274031,0.427596,0.000000
2.040000,-0.780899,-0.993268,-1.303215,2.468492,-0.460624,0.676160,2.039613,2.073835,-1.038393,-2.489620,-1.637102,-10.040738,-24.365688,-25.762781,12.189895,0.185709,-0.185841,0.000000,-0.297914,0.383028,0.000000
2.050000,-0.756113,-0.997770,-1.296507,2.488756,-0.439972,0.665276,2.012232,2.056348,-1.138296,-2.953162,-1.862211,-9.933053,-18.986733,-25.214945,14.666144,0.182670,-0.181766,0.000000,-0.309975,0.415200,-0.000000
2.060000,-0.731125,-1.002068,-1.289913,2.508725,-0.419505,0.653398,1.980800,2.036748,-1.237080,-3.358172,-2.048419,-9.826700,-21.436556,-22.930083,15.669021,0.179522,-0.177420,0.000000,-0.318831,0.441831,-0.000000
2.070000,-0.705939,-1.006161,-1.283442,2.528367,-0.399245,0.640540,1.948284,2.014571,-1.334061,-3.008956,-2.420869,-9.536499,51.838670,-40.933325,33.533353,0.176227,-0.173078,0.000000,-0.342828,0.400862,0.000000
2.080000,-0.680559,-1.010053,-1.277105,2.547703,-0.379226,0.626727,1.918697,1.988907,-1.428193,-3.149449,-2.644006,-9.341559,-81.197674,-3.341884,5.159920,0.172715,-0.169100,0.000000,-0.353936,0.404102,-0.000000
2.090000,-0.654986,-1.013747,-1.270911,2.566719,-0.359469,0.611979,1.883163,1.962325,-1.521324,-3.836160,-2.701848,-9.255280,-16.379021,-18.914959,20.981188,0.169201,-0.164686,0.000000,-0.351391,0.454949,0.000000
2.100000,-0.629226,-1.017244,-1.264869,2.585359,-0.339985,0.596307,1.845027,1.934112,-1.612572,-3.815149,-2.931102,-8.997821,-19.085629,-16.251557,21.624238,0.165626,-0.160142,0.000000,-0.362724,0.443358,0.000000
2.110000,-0.603281,-1.020547,-1.258988,2.603616,-0.320793,0.579735,1.806160,1.903987,-1.701373,-3.951539,-3.091489,-8.758090,-18.161937,-14.369449,23.118801,0.161970,-0.155633,0.000000,-0.368225,0.445621,-0.000000
2.120000,-0.577155,-1.023660,-1.253277,2.621476,-0.301910,0.562287,1.765217,1.872463,-1.787945,-4.270059,-3.205028,-8.565024,-35.861870,-9.737824,18.581815,0.158275,-0.151042,0.000000,-0.370227,0.463822,0.000000
2.130000,-0.550852,-1.026587,-1.247745,2.638909,-0.283347,0.543983,1.721241,1.839886,-1.872482,-4.465522,-3.315662,-8.321616,-2.923538,-12.429522,30.186358,0.154566,-0.146283,0.000000,-0.371796,0.471154,-0.000000
2.140000,-0.524378,-1.029329,-1.242400,2.655898,-0.265116,0.524847,1.676439,1.806143,-1.954173,-4.524195,-3.425139,-8.024178,-18.575721,-8.045802,26.162841,0.150839,-0.141551,0.000000,-0.373065,0.466824,0.000000
2.150000,-0.497736,-1.031890,-1.237250,2.672433,-0.247227,0.504909,1.630016,1.771561,-2.033171,-4.754012,-3.488618,-7.772014,-17.646531,-6.065242,27.375671,0.147117,-0.136774,0.000000,-0.371073,0.477380,0.000000
2.160000,-0.470931,-1.034274,-1.232304,2.688492,-0.229687,0.484193,1.581590,1.736390,-2.109529,-4.930849,-3.542511,-7.498635,-17.366786,-4.074698,28.216845,0.143419,-0.131918,0.000000,-0.368425,0.483536,0.000000
2.170000,-0.443968,-1.036485,-1.227569,2.704059,-0.212501,0.462727,1.531437,1.700829,-2.183042,-5.098078,-3.564278,-7.199367,-16.420140,-0.904737,30.724735,0.139759,-0.127006,0.000000,-0.363193,0.488877,-0.000000
2.180000,-0.416852,-1.038525,-1.223052,2.719115,-0.195671,0.440542,1.479623,1.665141,-2.253534,-5.266417,-3.573765,-6.903276,-17.257277,-1.017970,28.454425,0.136157,-0.122043,0.000000,-0.357345,0.494613,0.000000
2.190000,-0.389587,-1.040399,-1.218761,2.733645,-0.179198,0.417666,1.426101,1.629386,-2.321131,-5.436276,-3.572182,-6.612268,-16.367656,1.955430,30.646274,0.132613,-0.117020,0.000000,-0.350991,0.500784,-0.000000
2.200000,-0.362180,-1.042111,-1.214701,2.747632,-0.163082,0.394130,1.370935,1.593810,-2.385687,-5.596684,-3.540149,-6.298272,-16.057342,3.816067,31.236361,0.129146,-0.111942,0.000000,-0.342304,0.506258,0.000000
2.210000,-0.334637,-1.043662,-1.210880,2.761059,-0.147321,0.369963,1.314161,1.558601,-2.447101,-5.757853,-3.499416,-5.983744,-15.763314,5.526915,31.811199,0.125767,-0.106808,0.000000,-0.333273,0.512088,-0.000000
2.220000,-0.306961,-1.045058,-1.207304,2.773910,-0.131908,0.345198,1.255821,1.523976,-2.505331,-5.908134,-3.418716,-5.660833,-14.690722,9.432144,32.616074,0.122491,-0.101621,0.000000,-0.321341,0.517286,-0.000000
2.230000,-0.279160,-1.046302,-1.203978,2.786170,-0.116838,0.319867,1.195990,1.490226,-2.560308,-6.060020,-3.335565,-5.334661,-15.697154,7.150366,32.605854,0.119339,-0.096383,0.000000,-0.309545,0.522910,-0.000000
2.240000,-0.251240,-1.047396,-1.200908,2.797824,-0.102101,0.294003,1.134611,1.457256,-2.612017,-6.213953,-3.252258,-5.005900,-14.683851,10.680965,33.287266,0.116299,-0.091086,0.000000,-0.298057,0.529004,-0.000000
2.250000,-0.223206,-1.048345,-1.198100,2.808857,-0.087689,0.267638,1.071754,1.425324,-2.660401,-6.357073,-3.132215,-4.670310,-14.339557,12.137479,33.676948,0.113388,-0.085733,0.000000,-0.283950,0.534531,-0.000000
2.260000,-0.195065,-1.049151,-1.195557,2.819255,-0.073591,0.240806,1.007479,1.394649,-2.705412,-6.496941,-2.999981,-4.331164,-13.920664,13.665165,34.049901,0.110622,-0.080326,0.000000,-0.269189,0.540130,0.000000
2.270000,-0.166823,-1.049818,-1.193285,2.829002,-0.059792,0.213541,0.941806,1.365323,-2.747020,-6.638092,-2.864985,-3.990310,-14.025421,13.933134,34.209240,0.108003,-0.074862,0.000000,-0.254514,0.546178,0.000000
2.280000,-0.138487,-1.050348,-1.191288,2.838086,-0.046279,0.185877,0.874745,1.337424,-2.785203,-6.771485,-2.708735,-3.645114,-12.641277,17.321256,34.828095,0.105536,-0.069339,0.000000,-0.238442,0.551958,0.000000
2.290000,-0.110063,-1.050744,-1.189569,2.846493,-0.033038,0.157849,0.806406,1.311224,-2.819908,-6.896540,-2.531261,-3.295729,-12.650122,17.539145,34.950308,0.103240,-0.063762,0.000000,-0.220968,0.557441,0.000000
2.300000,-0.081559,-1.051009,-1.188132,2.854210,-0.020049,0.129491,0.736808,1.286791,-2.851116,-7.022013,-2.353025,-2.945382,-12.158240,18.707738,35.209590,0.101116,-0.058129,0.000000,-0.203696,0.563341,-0.000000
2.310000,-0.052982,-1.051146,-1.186980,2.861225,-0.007296,0.100838,0.665986,1.264198,-2.878799,-7.141786,-2.164243,-2.590673,-11.677111,19.662520,35.471241,0.099168,-0.052438,0.000000,-0.185816,0.569172,0.000000
2.320000,-0.024337,-1.051156,-1.186116,2.867526,0.005241,0.071926,0.593998,1.243587,-2.902942,-7.254419,-1.954327,-2.238389,-10.958350,21.689416,35.232887,0.097405,-0.046690,0.000000,-0.166537,0.574861,-0.000000
2.330000,0.004366,-1.051042,-1.185542,2.873101,0.017583,0.042791,0.520909,1.225110,-2.923547,-7.363241,-1.743698,-1.880812,-10.805691,20.398161,36.288038,0.095836,-0.040886,0.000000,-0.147366,0.580645,-0.000000
2.340000,0.033122,-1.050805,-1.185261,2.877941,0.029750,0.013468,0.446746,1.208704,-2.940538,-7.468181,-1.534351,-1.517737,-10.064951,22.070508,36.072187,0.094456,-0.035023,0.000000,-0.128431,0.586536,-0.000000
2.350000,0.061923,-1.050447,-1.185273,2.882033,0.041765,-0.016008,0.371573,1.194490,-2.953915,-7.565423,-1.307936,-1.157260,-9.492351,22.575399,36.273130,0.093272,-0.029103,0.000000,-0.108341,0.592269,-0.000000
2.360000,0.090760,-1.049970,-1.185581,2.885369,0.053648,-0.045599,0.295452,1.182524,-2.963661,-7.657788,-1.085270,-0.791450,-8.895774,22.893460,36.491573,0.092288,-0.023126,0.000000,-0.088628,0.598054,0.000000
2.370000,0.119628,-1.049375,-1.186185,2.887939,0.065423,-0.075269,0.218444,1.172871,-2.969769,-7.742508,-0.841675,-0.431102,-8.121678,24.878477,35.960410,0.091506,-0.017091,0.000000,-0.067427,0.603704,0.000000
2.380000,0.148517,-1.048662,-1.187087,2.889735,0.077113,-0.104982,0.140620,1.165652,-2.972259,-7.821765,-0.607564,-0.064212,-7.727224,21.895061,37.427977,0.090936,-0.011001,0.000000,-0.046983,0.609376,0.000000
2.390000,0.177420,-1.047832,-1.188285,2.890749,0.088743,-0.134702,0.062027,1.160673,-2.971027,-7.895373,-0.385404,0.309658,-6.910433,23.453670,36.956762,0.090563,-0.004853,0.000000,-0.027455,0.615079,-0.000000
2.400000,0.206329,-1.046887,-1.189781,2.890973,0.100335,-0.164390,-0.017258,1.158015,-2.966090,-7.960537,-0.146822,0.678182,-6.195480,23.310847,37.132801,0.090392,0.001351,0.000000,-0.006702,0.620607,-0.000000
2.410000,0.235237,-1.045826,-1.191573,2.890402,0.111911,-0.194011,-0.097154,1.157716,-2.957439,-8.017098,0.086896,1.052593,-5.409366,23.145162,37.321036,0.090427,0.007609,0.000000,0.013735,0.625956,0.000000
2.420000,0.264134,-1.044649,-1.193660,2.889028,0.123497,-0.223527,-0.177598,1.159724,-2.945067,-8.071357,0.313235,1.420647,-5.147367,22.365324,36.700550,0.090665,0.013923,0.000000,0.033601,0.631619,-0.000000
2.430000,0.293014,-1.043356,-1.196043,2.886848,0.135113,-0.252900,-0.258540,1.163982,-2.929001,-8.113856,0.539320,1.795230,-3.337684,22.841630,38.226364,0.091100,0.020292,0.000000,0.053568,0.636875,0.000000
2.440000,0.321869,-1.041946,-1.198718,2.883856,0.146784,-0.282094,-0.339831,1.170509,-2.909136,-8.143853,0.764417,2.176761,-2.948389,21.895815,37.659824,0.091736,0.026712,0.000000,0.073615,0.641687,0.000000
2.450000,0.350689,-1.040420,-1.201684,2.880050,0.158531,-0.311070,-0.421410,1.179231,-2.885494,-8.170231,0.979110,2.551903,-2.030100,21.287628,37.780963,0.092569,0.033181,0.000000,0.092938,0.646729,-0.000000
2.460000,0.379467,-1.038775,-1.204938,2.875428,0.170376,-0.339791,-0.503194,1.190066,-2.858077,-8.185040,1.186325,2.931931,-1.080025,20.512572,37.889934,0.093594,0.039701,0.000000,0.111873,0.651413,-0.000000
2.470000,0.408195,-1.037012,-1.208479,2.869986,0.182339,-0.368219,-0.585091,1.202960,-2.826879,-8.193138,1.392456,3.306572,-0.384844,20.332017,37.354484,0.094807,0.046267,0.000000,0.130869,0.656094,-0.000000
2.480000,0.436864,-1.035128,-1.212302,2.863726,0.194441,-0.396316,-0.667017,1.217867,-2.791928,-8.189498,1.584974,3.685660,1.122696,18.142987,38.467849,0.096208,0.052880,0.000000,0.149044,0.660414,0.000000
2.490000,0.465466,-1.033123,-1.216404,2.856646,0.206702,-0.424045,-0.748839,1.234606,-2.753148,-8.173599,1.762338,4.069323,1.911639,17.680537,37.934757,0.097785,0.059536,0.000000,0.166301,0.664347,-0.000000
2.500000,0.493994,-1.030994,-1.220781,2.848750,0.219139,-0.451367,-0.830465,1.253105,-2.710568,-8.149886,1.935130,4.446981,2.986139,16.495315,37.912898,0.099534,0.066231,0.000000,0.183409,0.668200,-0.000000
2.510000,0.522439,-1.028739,-1.225430,2.840038,0.231770,-0.478244,-0.911791,1.273249,-2.664200,-8.113202,2.091356,4.826567,4.107540,15.187009,37.844590,0.101450,0.072964,0.000000,0.199506,0.671603,0.000000
2.520000,0.550792,-1.026357,-1.230344,2.830515,0.244610,-0.504638,-0.992712,1.294923,-2.614052,-8.069924,2.242728,5.202314,4.792814,14.633074,37.444294,0.103525,0.079733,0.000000,0.215486,0.675032,0.000000
2.530000,0.579046,-1.023846,-1.235521,2.820185,0.257673,-0.530512,-1.073139,1.318035,-2.560151,-8.012213,2.374502,5.578379,6.761093,11.693642,37.764234,0.105755,0.086536,0.000000,0.230233,0.677888,-0.000000
2.540000,0.607193,-1.021203,-1.240953,2.809054,0.270974,-0.555828,-1.152904,1.342340,-2.502483,-7.939490,2.485213,5.954421,7.544334,10.878723,37.285014,0.108124,0.093365,0.000000,0.243636,0.680123,0.000000
2.550000,0.635225,-1.018426,-1.246635,2.797130,0.284524,-0.580549,-1.231908,1.367721,-2.441083,-7.859194,2.588049,6.325141,8.760098,9.234015,36.996672,0.110627,0.100218,0.000000,0.256705,0.682288,-0.000000
2.560000,0.663133,-1.015512,-1.252562,2.784419,0.298332,-0.604638,-1.310036,1.394027,-2.375989,-7.764268,2.670103,6.692992,10.003621,7.507474,36.624787,0.113254,0.107092,0.000000,0.268440,0.683829,-0.000000
2.570000,0.690911,-1.012458,-1.258726,2.770932,0.312407,-0.628057,-1.387170,1.421092,-2.307232,-7.661136,2.741127,7.057974,10.842796,6.354707,36.298406,0.115995,0.113983,0.000000,0.279619,0.685255,-0.000000
2.580000,0.718549,-1.009263,-1.265120,2.756679,0.326756,-0.650770,-1.463207,1.448773,-2.234849,-7.542798,2.790028,7.417428,12.833293,3.405895,35.577413,0.118841,0.120888,0.000000,0.289331,0.685968,-0.000000
2.590000,0.746042,-1.005922,-1.271739,2.741672,0.341383,-0.672742,-1.537972,1.476813,-2.158905,-7.408847,2.815784,7.770484,13.738341,2.072220,35.081196,0.121776,0.127797,0.000000,0.297470,0.685904,-0.000000
2.600000,0.773380,-1.002434,-1.278573,2.725925,0.356293,-0.693937,-1.611359,1.505051,-2.079455,-7.266146,2.828475,8.118246,15.021633,0.124408,34.395346,0.124788,0.134708,0.000000,0.304850,0.685617,0.000000
2.610000,0.800558,-0.998796,-1.285615,2.709450,0.371484,-0.714320,-1.683243,1.533301,-1.996573,-7.108544,2.817906,8.456843,16.313215,-1.881107,33.592284,0.127867,0.141614,0.000000,0.310590,0.684540,-0.000000
2.620000,0.827567,-0.995004,-1.292856,2.692265,0.386958,-0.733857,-1.753501,1.561371,-1.910324,-6.941596,2.794088,8.792388,17.255612,-3.239001,33.225946,0.130998,0.148510,0.000000,0.315551,0.683178,-0.000000
2.630000,0.854401,-0.991055,-1.300289,2.674386,0.402711,-0.752515,-1.822024,1.589098,-1.820769,-6.759674,2.745661,9.115265,19.133045,-6.460323,31.324477,0.134172,0.155393,0.000000,0.318677,0.680925,0.000000
2.640000,0.881052,-0.986948,-1.307904,2.655831,0.418738,-0.770262,-1.888643,1.616198,-1.728067,-6.562613,2.671957,9.424110,20.095282,-7.926846,30.705191,0.137365,0.162249,0.000000,0.319852,0.677702,-0.000000
2.650000,0.907515,-0.982680,-1.315691,2.636620,0.435032,-0.787066,-1.953248,1.642496,-1.632303,-6.356275,2.584090,9.726669,21.350477,-10.000808,29.512419,0.140566,0.169074,0.000000,0.320048,0.674063,-0.000000
2.660000,0.933783,-0.978247,-1.323642,2.616773,0.451584,-0.802898,-2.015720,1.667798,-1.533595,-6.135801,2.472825,10.012493,22.590714,-12.068321,28.173334,0.143759,0.175861,0.000000,0.318333,0.669414,-0.000000
2.670000,0.959849,-0.973647,-1.331746,2.596313,0.468384,-0.817729,-2.075936,1.691899,-1.432056,-5.905930,2.344447,10.294752,23.525062,-13.781371,27.737099,0.146929,0.182601,0.000000,0.315341,0.664306,0.000000
2.680000,0.985707,-0.968878,-1.339993,2.575262,0.485418,-0.831530,-2.133791,1.714611,-1.327774,-5.662333,2.193558,10.555883,25.193453,-16.397268,24.454995,0.150059,0.189288,0.000000,0.310354,0.658056,-0.000000
2.690000,1.011352,-0.963938,-1.348373,2.553646,0.502671,-0.844276,-2.189136,1.735693,-1.221018,-5.405131,2.020190,10.794091,26.093397,-18.091559,23.697462,0.153129,0.195907,0.000000,0.303271,0.650557,-0.000000
2.700000,1.036778,-0.958824,-1.356875,2.531488,0.520126,-0.855943,-2.241868,1.754963,-1.111907,-5.139347,1.830351,11.024987,27.203260,-20.046606,21.936817,0.156120,0.202451,0.000000,0.294735,0.642444,0.000000
2.710000,1.061980,-0.953535,-1.365488,2.508817,0.537763,-0.866507,-2.291883,1.772236,-1.000608,-4.861892,1.621282,11.231363,28.260685,-21.920711,20.025838,0.159017,0.208910,0.000000,0.284214,0.633081,0.000000
2.720000,1.086953,-0.948069,-1.374201,2.485660,0.555563,-0.875948,-2.339073,1.787314,-0.887288,-4.574478,1.390640,11.431644,29.231882,-24.038769,19.329369,0.161798,0.215272,0.000000,0.271665,0.622882,0.000000
2.730000,1.111692,-0.942423,-1.383003,2.462046,0.573502,-0.884246,-2.383339,1.799997,-0.772075,-4.277050,1.144057,11.603257,30.244602,-25.260650,14.955340,0.164443,0.221528,0.000000,0.257183,0.611342,-0.000000
2.740000,1.136192,-0.936598,-1.391882,2.438003,0.591554,-0.891384,-2.424582,1.810146,-0.655330,-3.970165,0.882490,11.744264,31.103117,-27.198532,13.920660,0.166935,0.227661,0.000000,0.240722,0.598350,0.000000
2.750000,1.160450,-0.930592,-1.400827,2.413564,0.609695,-0.897348,-2.462715,1.817580,-0.537211,-3.655048,0.601731,11.875495,31.927454,-28.779032,11.622275,0.169251,0.233660,0.000000,0.222102,0.584349,-0.000000
2.760000,1.184462,-0.924404,-1.409825,2.388760,0.627896,-0.902125,-2.497661,1.822139,-0.417932,-3.333053,0.307746,11.975817,32.657531,-30.247356,9.194641,0.171370,0.239512,0.000000,0.201438,0.568921,0.000000
2.770000,1.208224,-0.918034,-1.418865,2.363622,0.646128,-0.905704,-2.529337,1.823668,-0.297714,-3.000326,-0.005134,12.066170,33.682618,-32.072279,8.118977,0.173271,0.245203,0.000000,0.178433,0.552071,0.000000
2.780000,1.231734,-0.911482,-1.427935,2.338184,0.664359,-0.908076,-2.557656,1.822004,-0.176728,-2.663705,-0.328325,12.122325,33.621905,-32.539484,3.076892,0.174932,0.250717,0.000000,0.153359,0.533771,0.000000
2.790000,1.254987,-0.904747,-1.437023,2.312480,0.682557,-0.909237,-2.582603,1.817074,-0.055394,-2.324277,-0.660355,12.142536,34.443379,-34.086900,1.705874,0.176332,0.256038,0.000000,0.126199,0.513938,-0.000000
2.800000,1.277983,-0.897831,-1.446116,2.286544,0.700689,-0.909184,-2.604111,1.808742,0.066093,-1.976779,-1.007601,12.149868,34.847644,-35.100912,-0.997793,0.177448,0.261152,0.000000,0.096623,0.492522,0.000000
2.810000,1.300717,-0.890733,-1.455202,2.260409,0.718720,-0.907916,-2.622140,1.796907,0.187482,-1.628679,-1.360387,12.122942,35.131005,-35.942081,-3.773184,0.178258,0.266041,0.000000,0.065049,0.469576,-0.000000
2.820000,1.323190,-0.883457,-1.464270,2.234113,0.736615,-0.905435,-2.636647,1.781467,0.308509,-1.271031,-1.730660,12.079991,36.019514,-37.596095,-5.426190,0.178738,0.270687,0.000000,0.030535,0.444590,-0.000000
2.830000,1.345399,-0.876002,-1.473307,2.207688,0.754337,-0.901747,-2.647573,1.762296,0.428959,-0.916235,-2.101480,12.001647,34.911973,-36.528348,-10.265589,0.178863,0.275072,0.000000,-0.005783,0.418113,0.000000
2.840000,1.367344,-0.868371,-1.482301,2.181173,0.771849,-0.896860,-2.654989,1.739446,0.548416,-0.565777,-2.470712,11.886824,35.529560,-37.791038,-12.092095,0.178617,0.279180,0.000000,-0.043814,0.390127,-0.000000
2.850000,1.389023,-0.860566,-1.491240,2.154601,0.789114,-0.890783,-2.658861,1.712831,0.666648,-0.209096,-2.852567,11.754600,35.424364,-38.057946,-14.959966,0.177976,0.282993,0.000000,-0.084714,0.360005,0.000000
2.860000,1.410436,-0.852589,-1.500113,2.128007,0.806093,-0.883532,-2.659195,1.682419,0.783392,0.141800,-3.229553,11.589178,35.189866,-38.112753,-17.818942,0.176918,0.286491,0.000000,-0.127159,0.328363,0.000000
2.870000,1.431583,-0.844445,-1.508907,2.101428,0.822749,-0.875121,-2.655998,1.648176,0.898361,0.498518,-3.621654,11.401067,35.697760,-39.505441,-20.094327,0.175420,0.289655,0.000000,-0.173061,0.294224,-0.000000
2.880000,1.452464,-0.836135,-1.517612,2.074899,0.839044,-0.865571,-2.649258,1.610028,1.011305,0.846199,-4.002848,11.181197,33.807639,-36.682789,-23.883203,0.173454,0.292463,0.000000,-0.220060,0.258702,-0.000000
2.890000,1.473081,-0.827665,-1.526215,2.048455,0.854938,-0.854903,-2.639113,1.568170,1.121877,1.183203,-4.370474,10.929500,34.019005,-37.599181,-26.151065,0.171017,0.294904,0.000000,-0.267888,0.221879,-0.000000
2.900000,1.493434,-0.819038,-1.534706,2.022128,0.870394,-0.843142,-2.625578,1.522573,1.229827,1.522476,-4.747652,10.655825,33.377005,-37.029325,-28.870623,0.168085,0.296957,0.000000,-0.318814,0.182634,-0.000000
2.910000,1.513524,-0.810259,-1.543074,1.995954,0.885377,-0.830316,-2.608709,1.473277,1.334900,1.849945,-5.109841,10.354410,32.605218,-36.254681,-31.494294,0.164639,0.298605,0.000000,-0.370405,0.142179,-0.000000
2.920000,1.533354,-0.801332,-1.551309,1.969965,0.899848,-0.816455,-2.588566,1.420334,1.436821,2.178888,-5.480249,10.025354,32.677625,-36.955601,-34.213395,0.160664,0.299830,0.000000,-0.425124,0.099046,-0.000000
2.930000,1.552924,-0.792264,-1.559400,1.944194,0.913771,-0.801591,-2.565184,1.363745,1.535328,2.492897,-5.830688,9.672324,30.093074,-33.080730,-36.373798,0.156137,0.300610,0.000000,-0.479865,0.055063,0.000000
2.940000,1.572238,-0.783059,-1.567337,1.918671,0.927112,-0.785760,-2.538767,1.303802,1.630192,2.790339,-6.158486,9.296404,29.873904,-33.308839,-38.882536,0.151069,0.300943,0.000000,-0.534164,0.010471,0.000000
2.950000,1.591298,-0.773724,-1.575112,1.893428,0.939836,-0.769000,-2.509375,1.240550,1.721172,3.085872,-6.489139,8.895821,28.725794,-31.946671,-41.123987,0.145445,0.300813,0.000000,-0.590771,-0.036392,-0.000000
2.960000,1.610108,-0.764264,-1.582714,1.868493,0.951912,-0.751351,-2.477112,1.174108,1.808051,3.364314,-6.796397,8.476916,27.465002,-30.400162,-43.185050,0.139258,0.300208,0.000000,-0.646507,-0.083593,0.000000
2.970000,1.628669,-0.754688,-1.590136,1.843895,0.963308,-0.732854,-2.442090,1.104602,1.890599,3.639650,-7.105153,8.027513,27.087800,-30.439977,-46.138696,0.132506,0.299116,0.000000,-0.704211,-0.133067,-0.000000
2.980000,1.646987,-0.745001,-1.597369,1.819661,0.973994,-0.713554,-2.404389,1.032104,1.968564,3.895290,-7.386101,7.565823,24.012156,-25.702393,-46.157791,0.125181,0.297525,0.000000,-0.760011,-0.182206,0.000000
2.990000,1.665064,-0.735210,-1.604405,1.795815,0.983942,-0.693498,-2.364259,0.956987,2.041886,4.129794,-7.636838,7.094080,23.383170,-25.325936,-48.702987,0.117315,0.295447,0.000000,-0.813250,-0.230585,-0.000000
3.000000,1.682905,-0.725324,-1.611236,1.772383,0.993125,-0.672732,-2.321804,0.879361,2.110352,4.358444,-7.884644,6.596881,21.831327,-23.323088,-50.172418,0.108912,0.292875,0.000000,-0.867070,-0.280381,0.000000
3.010000,1.700513,-0.715350,-1.617857,1.749387,1.001521,-0.651307,-2.277180,0.799377,2.173808,4.562978,-8.108892,6.092569,20.134684,-21.307020,-51.421383,0.099983,0.289813,0.000000,-0.918457,-0.328601,-0.000000
3.020000,1.717894,-0.705297,-1.624261,1.726846,1.009106,-0.629273,-2.230515,0.717269,2.232103,4.770803,-8.308620,5.562046,20.386588,-18.823684,-53.915408,0.090553,0.286260,0.000000,-0.967020,-0.378994,-0.000000
3.030000,1.735052,-0.695171,-1.630441,1.704783,1.015860,-0.606683,-2.181871,0.633267,2.285050,4.948819,-8.489281,5.030361,15.178855,-17.302686,-52.367767,0.080651,0.282213,0.000000,-1.012848,-0.426464,0.000000
3.040000,1.751991,-0.684982,-1.636393,1.683214,1.021765,-0.583590,-2.131652,0.547546,2.332721,5.095259,-8.650427,4.500389,15.151920,-14.715270,-54.339881,0.070306,0.277717,0.000000,-1.055481,-0.470360,0.000000
3.050000,1.768718,-0.674739,-1.642111,1.662155,1.026806,-0.560047,-2.079943,0.460350,2.374979,5.242916,-8.785086,3.950530,13.335264,-12.406963,-54.856880,0.059557,0.272776,0.000000,-1.093714,-0.515215,0.000000
3.060000,1.785236,-0.664449,-1.647592,1.641620,1.030968,-0.536109,-2.026836,0.371951,2.411766,5.376635,-8.889931,3.407218,11.762649,-9.886793,-55.081047,0.048451,0.267401,0.000000,-1.126523,-0.557989,-0.000000
3.070000,1.801552,-0.654122,-1.652832,1.621622,1.034242,-0.511830,-1.972597,0.282528,2.443012,5.463032,-8.994949,2.837527,7.113883,-9.818753,-57.555415,0.037029,0.261624,0.000000,-1.157665,-0.595304,0.000000
3.080000,1.817670,-0.643767,-1.657828,1.602171,1.036616,-0.487267,-1.917554,0.192197,2.468578,5.552453,-9.059080,2.283406,10.821199,-2.964119,-53.196902,0.025325,0.255488,0.000000,-1.181096,-0.631761,-0.000000
3.090000,1.833597,-0.633393,-1.662577,1.583274,1.038084,-0.462476,-1.861517,0.101499,2.488755,5.647177,-9.080350,1.748556,6.513059,-2.594601,-55.022431,0.013435,0.248986,0.000000,-1.196322,-0.667403,0.000000
3.100000,1.849338,-0.623008,-1.667077,1.564942,1.038645,-0.437511,-1.804790,0.010573,2.503462,5.696435,-9.099909,1.194475,4.947026,-0.018034,-54.485189,0.001405,0.242163,0.000000,-1.208633,-0.696742,0.000000
3.110000,1.864898,-0.612623,-1.671326,1.547180,1.038296,-0.412425,-1.747609,-0.080403,2.512715,5.736853,-9.091725,0.657677,3.273887,2.374687,-53.743331,-0.010715,0.235060,0.000000,-1.214325,-0.723064,-0.000000
3.120000,1.880283,-0.602246,-1.675325,1.529991,1.037038,-0.387274,-1.690098,-0.171123,2.516570,5.763203,-9.045861,0.111936,1.867083,6.088523,-54.502285,-0.022853,0.227710,0.000000,-1.211931,-0.746351,-0.000000
3.130000,1.895500,-0.591885,-1.679072,1.513379,1.034875,-0.362112,-1.632406,-0.261275,2.515028,5.771489,-8.984864,-0.413460,-0.210961,6.080571,-50.520931,-0.034937,0.220145,0.000000,-1.204461,-0.765044,0.000000
3.140000,1.910553,-0.581551,-1.682567,1.497343,1.031814,-0.336991,-1.574729,-0.350780,2.508386,5.761707,-8.910217,-0.915578,-1.609229,9.548158,-50.756322,-0.046927,0.212415,0.000000,-1.192261,-0.779011,0.000000
3.150000,1.925448,-0.571252,-1.685812,1.481884,1.027863,-0.311961,-1.517216,-0.439349,2.496691,5.738253,-8.800151,-1.420564,-3.209929,11.745477,-49.336211,-0.058755,0.204558,0.000000,-1.172387,-0.789525,0.000000
3.160000,1.940192,-0.560997,-1.688807,1.466998,1.023031,-0.287073,-1.460054,-0.526759,2.480057,5.690555,-8.679160,-1.903412,-4.928135,13.764857,-47.758058,-0.070363,0.196617,0.000000,-1.148431,-0.794497,0.000000
3.170000,1.954790,-0.550794,-1.691554,1.452681,1.017332,-0.262376,-1.403348,-0.612758,2.458633,5.652676,-8.512935,-2.380310,-3.997254,18.179889,-47.064153,-0.081692,0.188627,0.000000,-1.116003,-0.798857,-0.000000
3.180000,1.969248,-0.540653,-1.694055,1.438929,1.010782,-0.237916,-1.347118,-0.697014,2.432535,5.582283,-8.342856,-2.833028,-10.115224,15.780820,-43.440805,-0.092676,0.180609,0.000000,-1.081013,-0.796676,-0.000000
3.190000,1.983571,-0.530581,-1.696313,1.425735,1.003397,-0.213740,-1.291826,-0.779622,2.402064,5.477999,-8.171608,-3.259512,-9.361944,19.751496,-42.375172,-0.103308,0.172648,0.000000,-1.044169,-0.787895,-0.000000
3.200000,1.997764,-0.520588,-1.698331,1.413090,0.995196,-0.189889,-1.237501,-0.860286,2.367370,5.383643,-7.959170,-3.675563,-10.862488,21.425645,-40.278959,-0.113533,0.164765,0.000000,-1.000462,-0.778751,-0.000000
3.210000,2.011834,-0.510680,-1.700112,1.400982,0.986199,-0.166406,-1.184193,-0.938770,2.328653,5.276897,-7.734569,-4.063826,-12.026299,23.122896,-38.036200,-0.123310,0.156984,0.000000,-0.954297,-0.766117,-0.000000
3.220000,2.025786,-0.500866,-1.701661,1.389402,0.976428,-0.143329,-1.132127,-1.014952,2.286115,5.129104,-7.500323,-4.442226,-16.010996,24.052770,-36.970147,-0.132613,0.149351,0.000000,-0.906014,-0.746874,0.000000
3.230000,2.039624,-0.491154,-1.702980,1.378334,0.965908,-0.120696,-1.081576,-1.088709,2.239918,4.988609,-7.246649,-4.789119,-12.026169,26.674222,-32.375613,-0.141421,0.141915,0.000000,-0.855186,-0.727055,0.000000
3.240000,2.053354,-0.481551,-1.704076,1.367766,0.954663,-0.098541,-1.032309,-1.159819,2.190448,4.858391,-6.974190,-5.102847,-15.524013,27.450008,-31.025143,-0.149710,0.134662,0.000000,-0.802359,-0.707226,0.000000
3.250000,2.066981,-0.472063,-1.704953,1.357683,0.942721,-0.076897,-0.984557,-1.228177,2.137892,4.691351,-6.695102,-5.403791,-16.351424,28.693460,-28.492282,-0.157467,0.127632,0.000000,-0.748909,-0.681955,-0.000000
3.260000,2.080509,-0.462698,-1.705616,1.348069,0.930109,-0.055793,-0.938463,-1.293705,2.082470,4.526380,-6.409585,-5.676389,-17.128070,29.648657,-25.967082,-0.164689,0.120852,0.000000,-0.695532,-0.656146,-0.000000
3.270000,2.093944,-0.453463,-1.706071,1.338908,0.916857,-0.035256,-0.894094,-1.356237,2.024454,4.344492,-6.090964,-5.922538,-18.748479,32.831582,-23.312291,-0.171364,0.114339,0.000000,-0.639103,-0.627650,-0.000000
3.280000,2.107289,-0.444363,-1.706323,1.330181,0.902995,-0.015312,-0.851572,-1.415556,1.964103,4.161916,-5.779052,-6.143698,-17.736121,29.491333,-20.919942,-0.177479,0.108114,0.000000,-0.584843,-0.598727,-0.000000
3.290000,2.120549,-0.435405,-1.706379,1.321871,0.888555,0.004019,-0.810849,-1.471860,1.901662,3.980251,-5.476831,-6.339860,-19.071871,32.165999,-18.259776,-0.183071,0.102174,0.000000,-0.533224,-0.569721,0.000000
3.300000,2.133728,-0.426594,-1.706245,1.313958,0.873568,0.022716,-0.772021,-1.524978,1.837395,3.784947,-5.146635,-6.509382,-19.484663,32.621527,-15.701159,-0.188135,0.096533,0.000000,-0.479813,-0.538980,0.000000
3.310000,2.146829,-0.417935,-1.705927,1.306424,0.858067,0.040761,-0.735138,-1.574819,1.771546,3.591377,-4.821268,-6.656468,-19.775761,32.971282,-13.218275,-0.192676,0.091199,0.000000,-0.428657,-0.508582,-0.000000
3.320000,2.159857,-0.409434,-1.705432,1.299248,0.842083,0.058142,-0.700247,-1.621349,1.704389,3.384562,-4.482648,-6.769240,-21.028120,34.209037,-9.830335,-0.196709,0.086176,0.000000,-0.377908,-0.476703,-0.000000
3.330000,2.172815,-0.401095,-1.704766,1.292412,0.825651,0.074846,-0.667427,-1.664490,1.636220,3.182535,-4.148481,-6.863461,-19.346167,32.588493,-9.037430,-0.200242,0.081474,0.000000,-0.329396,-0.445801,-0.000000
3.340000,2.185707,-0.392923,-1.703937,1.285893,0.808804,0.090864,-0.636571,-1.704344,1.567174,2.986895,-3.820663,-6.940310,-20.318317,33.485180,-5.850140,-0.203305,0.077074,0.000000,-0.283285,-0.416103,-0.000000
3.350000,2.198534,-0.384920,-1.702951,1.279674,0.791575,0.106187,-0.607733,-1.740864,1.497530,2.781101,-3.483640,-6.984861,-20.279344,33.374153,-3.562557,-0.205910,0.072981,0.000000,-0.238087,-0.385577,0.000000
3.360000,2.211301,-0.377092,-1.701816,1.273732,0.773998,0.120813,-0.580937,-1.774044,1.427523,2.578006,-3.152952,-7.013189,-20.212484,33.145812,-1.397516,-0.208075,0.069193,0.000000,-0.195215,-0.355936,0.000000
3.370000,2.224010,-0.369442,-1.700537,1.268048,0.756106,0.134737,-0.556160,-1.803900,1.357395,2.378150,-2.817383,-7.006474,-19.858224,33.563628,2.029117,-0.209819,0.065703,0.000000,-0.153789,-0.327109,-0.000000
3.380000,2.236663,-0.361971,-1.699123,1.262602,0.737931,0.147961,-0.533374,-1.830422,1.287430,2.178734,-2.490147,-6.987539,-20.016953,31.855727,1.720736,-0.211159,0.062502,0.000000,-0.114698,-0.298966,-0.000000
3.390000,2.249262,-0.354684,-1.697581,1.257374,0.719508,0.160487,-0.512583,-1.853738,1.217674,1.980291,-2.172720,-6.958274,-19.548229,32.006834,4.819771,-0.212121,0.059585,0.000000,-0.077967,-0.271568,0.000000
3.400000,2.261811,-0.347582,-1.695916,1.252344,0.700867,0.172316,-0.493749,-1.873864,1.148382,1.787031,-1.853620,-6.897459,-19.205274,31.409078,6.624113,-0.212723,0.056943,0.000000,-0.042753,-0.245239,0.000000
3.410000,2.274310,-0.340667,-1.694137,1.247493,0.682041,0.183457,-0.476807,-1.890856,1.079746,1.602712,-1.546359,-6.827421,-18.679880,30.685558,8.268015,-0.212984,0.054561,0.000000,-0.009935,-0.220522,-0.000000
3.420000,2.286761,-0.333941,-1.692249,1.242802,0.663060,0.193914,-0.461760,-1.904763,1.011960,1.404123,-1.234120,-6.724138,-20.028173,31.116045,11.492895,-0.212924,0.052436,0.000000,0.021876,-0.194661,-0.000000
3.430000,2.299166,-0.327406,-1.690260,1.238251,0.643956,0.203699,-0.448658,-1.915596,0.945272,1.223327,-0.937578,-6.616356,-16.092486,28.163045,10.017374,-0.212556,0.050568,0.000000,0.051151,-0.171379,0.000000
3.440000,2.311527,-0.321063,-1.688177,1.233823,0.624758,0.212823,-0.437220,-1.923577,0.879633,1.062155,-0.658184,-6.506418,-17.146583,28.349076,12.837034,-0.211910,0.048920,0.000000,0.077901,-0.150788,-0.000000
3.450000,2.323843,-0.314911,-1.686006,1.229501,0.605494,0.221296,-0.427472,-1.928739,0.815255,0.889080,-0.376186,-6.367517,-16.456000,27.405029,14.040948,-0.211000,0.047489,0.000000,0.103746,-0.129258,0.000000
3.460000,2.336117,-0.308953,-1.683753,1.225268,0.586192,0.229133,-0.419400,-1.931129,0.752285,0.726258,-0.102674,-6.225175,-15.836381,26.550036,15.109074,-0.209839,0.046270,0.000000,0.128135,-0.109313,0.000000
3.470000,2.348349,-0.303187,-1.681426,1.221108,0.566880,0.236347,-0.412904,-1.930882,0.690842,0.574877,0.147893,-6.059266,-14.698590,24.279598,17.374106,-0.208450,0.045248,0.000000,0.149183,-0.090924,-0.000000
3.480000,2.360539,-0.297615,-1.679029,1.217005,0.547583,0.242955,-0.407893,-1.928167,0.631098,0.426840,0.397970,-5.892340,-14.916089,25.755227,15.971327,-0.206856,0.044409,0.000000,0.169853,-0.073285,0.000000
3.490000,2.372689,-0.292236,-1.676568,1.212945,0.528325,0.248974,-0.404359,-1.922916,0.572987,0.281839,0.648370,-5.726450,-13.820974,23.595209,17.875033,-0.205053,0.043748,0.000000,0.190304,-0.056335,0.000000
3.500000,2.384798,-0.287048,-1.674051,1.208913,0.509132,0.254421,-0.402214,-1.915288,0.516646,0.148168,0.876012,-5.541028,-13.176702,22.656582,18.507733,-0.203062,0.043253,0.000000,0.207759,-0.040814,0.000000
3.510000,2.396867,-0.282053,-1.671482,1.204896,0.490027,0.259314,-0.401414,-1.905396,0.462164,0.011916,1.101167,-5.354536,-12.679426,21.734902,19.049328,-0.200898,0.042916,0.000000,0.224792,-0.025305,-0.000000
3.520000,2.408896,-0.277248,-1.668867,1.200881,0.471032,0.263671,-0.401846,-1.893348,0.409594,-0.092614,1.304818,-5.157840,-9.582819,19.614320,20.005663,-0.198576,0.042722,0.000000,0.239282,-0.013311,0.000000
3.530000,2.420885,-0.272632,-1.666210,1.196856,0.452167,0.267512,-0.403313,-1.879302,0.359008,-0.208216,1.506455,-4.960367,-13.581723,20.732154,19.464586,-0.196113,0.042648,0.000000,0.253513,-0.000359,-0.000000
3.540000,2.432833,-0.268204,-1.663518,1.192810,0.433452,0.270857,-0.406064,-1.863217,0.310383,-0.336881,1.706924,-4.763448,-10.785406,18.735939,20.174110,-0.193505,0.042719,0.000000,0.267620,0.013742,0.000000
3.550000,2.444741,-0.263962,-1.660795,1.188731,0.414909,0.273726,-0.409927,-1.845244,0.263767,-0.435568,1.886489,-4.559482,-10.316387,17.801096,20.335091,-0.190769,0.042915,0.000000,0.279457,0.024616,-0.000000
3.560000,2.456608,-0.259905,-1.658045,1.184608,0.396553,0.276140,-0.414780,-1.825513,0.219184,-0.533732,2.057977,-4.357262,-9.722897,16.795818,20.393906,-0.187918,0.043221,0.000000,0.290560,0.035302,-0.000000
3.570000,2.468433,-0.256030,-1.655273,1.180432,0.378404,0.278117,-0.420615,-1.804094,0.176647,-0.633778,2.225171,-4.149126,-9.894582,16.354240,20.930007,-0.184959,0.043635,0.000000,0.301190,0.046095,-0.000000
3.580000,2.480216,-0.252336,-1.652484,1.176193,0.360477,0.279679,-0.427418,-1.781056,0.136186,-0.723400,2.379004,-3.945006,-8.018911,14.404849,19.872520,-0.181899,0.044154,0.000000,0.310641,0.055716,-0.000000
3.590000,2.491957,-0.248820,-1.649681,1.171881,0.342788,0.280847,-0.435044,-1.756562,0.097727,-0.802142,2.519171,-3.746047,-8.128296,13.923515,20.200763,-0.178750,0.044763,0.000000,0.318925,0.064144,-0.000000
3.600000,2.503654,-0.245479,-1.646868,1.167489,0.325350,0.281641,-0.443473,-1.730682,0.061281,-0.882637,2.655039,-3.543701,-7.576690,12.961267,19.966162,-0.175521,0.045459,0.000000,0.326848,0.072715,0.000000
3.610000,2.515306,-0.242312,-1.644049,1.163009,0.308178,0.282080,-0.452674,-1.703487,0.026839,-0.956744,2.782614,-3.345159,-7.081570,12.087899,19.693664,-0.172215,0.046238,0.000000,0.334149,0.080588,-0.000000
3.620000,2.526913,-0.239315,-1.641228,1.158433,0.291285,0.282184,-0.462578,-1.675096,-0.005635,-1.022793,2.892550,-3.150370,-6.291078,10.357702,19.292919,-0.168844,0.047092,0.000000,0.339910,0.087614,0.000000
3.630000,2.538474,-0.236485,-1.638407,1.153755,0.274680,0.281973,-0.473121,-1.645643,-0.036178,-1.085984,2.999395,-2.958681,-6.354669,11.029190,19.037941,-0.165417,0.048014,0.000000,0.345575,0.094330,-0.000000
3.640000,2.549988,-0.233820,-1.635589,1.148969,0.258375,0.281467,-0.484291,-1.615112,-0.064820,-1.146689,3.104001,-2.770524,-5.626793,9.436428,18.548234,-0.161932,0.049004,0.000000,0.351236,0.100781,-0.000000
3.650000,2.561453,-0.231317,-1.632778,1.144067,0.242381,0.280683,-0.496028,-1.583626,-0.091607,-1.199948,3.192102,-2.587531,-5.189065,8.645569,18.081961,-0.158398,0.050054,0.000000,0.355513,0.106476,0.000000
3.660000,2.572869,-0.228972,-1.629977,1.139046,0.226706,0.279641,-0.508283,-1.551283,-0.116581,-1.250590,3.275366,-2.407953,-4.775125,7.865230,17.601765,-0.154822,0.051160,0.000000,0.359534,0.111911,0.000000
3.670000,2.584234,-0.226782,-1.627186,1.133900,0.211358,0.278357,-0.521012,-1.518156,-0.139801,-1.293968,3.348144,-2.237691,-4.064774,6.835819,16.665554,-0.151210,0.052316,0.000000,0.362829,0.116604,0.000000
3.680000,2.595547,-0.224743,-1.624410,1.128625,0.196345,0.276850,-0.534157,-1.484338,-0.161342,-1.335333,3.415133,-2.070115,-4.215911,6.570334,16.852106,-0.147567,0.053518,0.000000,0.365758,0.121114,-0.000000
3.690000,2.606806,-0.222854,-1.621650,1.123216,0.181673,0.275136,-0.547715,-1.449871,-0.181210,-1.375062,3.476769,-1.905182,-3.568854,5.618034,15.908537,-0.143896,0.054765,0.000000,0.368364,0.125482,-0.000000
3.700000,2.618011,-0.221109,-1.618908,1.117669,0.167349,0.273231,-0.561633,-1.414837,-0.199482,-1.408143,3.528788,-1.750130,-3.212763,4.932043,15.320526,-0.140202,0.056051,0.000000,0.370324,0.129179,-0.000000
3.710000,2.629159,-0.219505,-1.616186,1.111982,0.153378,0.271152,-0.575871,-1.379312,-0.216226,-1.438772,3.575178,-1.599503,-2.865580,4.269896,14.711215,-0.136490,0.057373,0.000000,0.371947,0.132651,-0.000000
3.720000,2.640250,-0.218040,-1.613486,1.106151,0.139765,0.268912,-0.590393,-1.343362,-0.231500,-1.465040,3.613528,-1.456790,-2.438423,3.481848,13.917643,-0.132765,0.058728,0.000000,0.373036,0.135691,0.000000
3.730000,2.651281,-0.216709,-1.610808,1.100173,0.126512,0.266526,-0.605163,-1.307059,-0.245378,-1.488595,3.646525,-1.319331,-2.276133,3.123978,13.575403,-0.129030,0.060110,0.000000,0.373811,0.138477,-0.000000
3.740000,2.662253,-0.215509,-1.608155,1.094047,0.113624,0.264009,-0.620157,-1.270448,-0.257904,-1.509626,3.674513,-1.187094,-1.883147,2.398929,12.781819,-0.125289,0.061520,0.000000,0.374298,0.141028,0.000000
3.750000,2.673162,-0.214435,-1.605528,1.087770,0.101104,0.261372,-0.635341,-1.233594,-0.269149,-1.526704,3.695248,-1.062951,-1.583423,1.829994,12.135277,-0.121546,0.062952,0.000000,0.374305,0.143186,-0.000000
3.760000,2.684008,-0.213485,-1.602928,1.081340,0.088953,0.258630,-0.650684,-1.196559,-0.279178,-1.541393,3.710958,-0.943872,-1.297527,1.282389,11.501644,-0.117804,0.064404,0.000000,0.374002,0.145123,-0.000000
3.770000,2.694788,-0.212655,-1.600356,1.074755,0.077173,0.255793,-0.666155,-1.159396,-0.288062,-1.552148,3.720663,-0.834561,-0.911749,0.694678,10.534654,-0.114067,0.065873,0.000000,0.373338,0.146654,0.000000
3.780000,2.705502,-0.211941,-1.597813,1.068016,0.065765,0.252872,-0.681720,-1.122161,-0.295882,-1.560846,3.725603,-0.729519,-0.830920,0.297918,10.480070,-0.110339,0.067356,0.000000,0.372361,0.147997,0.000000
3.790000,2.716148,-0.211338,-1.595299,1.061121,0.054730,0.249878,-0.697366,-1.084898,-0.302664,-1.567645,3.726038,-0.628453,-0.472843,-0.240023,9.558938,-0.106621,0.068851,0.000000,0.371087,0.149167,-0.000000
3.800000,2.726724,-0.210845,-1.592815,1.054069,0.044067,0.246822,-0.713060,-1.047659,-0.308486,-1.570804,3.721149,-0.536826,-0.217732,-0.701797,8.943222,-0.102918,0.070355,0.000000,0.369483,0.149956,0.000000
3.810000,2.737229,-0.210456,-1.590363,1.046859,0.033777,0.243712,-0.728769,-1.010490,-0.313414,-1.570469,3.711863,-0.449641,0.059942,-1.145954,8.343736,-0.099232,0.071865,0.000000,0.367577,0.150408,-0.000000
3.820000,2.747661,-0.210168,-1.587941,1.039493,0.023857,0.240556,-0.744479,-0.973435,-0.317511,-1.571684,3.698352,-0.371309,-0.086600,-1.558885,7.472138,-0.095567,0.073379,0.000000,0.365422,0.150983,-0.000000
3.830000,2.758018,-0.209977,-1.585552,1.031970,0.014307,0.237364,-0.760184,-0.936537,-0.320852,-1.567656,3.680627,-0.297055,0.898241,-1.983103,7.385767,-0.091925,0.074896,0.000000,0.362958,0.151046,-0.000000
3.840000,2.768300,-0.209881,-1.583194,1.024290,0.005126,0.234142,-0.775812,-0.899836,-0.323463,-1.558135,3.658872,-0.226527,0.785593,-2.358744,6.573634,-0.088309,0.076410,0.000000,0.360195,0.150575,0.000000
3.850000,2.778503,-0.209874,-1.580869,1.016454,-0.003690,0.230897,-0.791356,-0.863372,-0.325413,-1.550107,3.633463,-0.164265,1.038438,-2.725904,6.030380,-0.084722,0.077920,0.000000,0.357204,0.150215,-0.000000
3.860000,2.788628,-0.209953,-1.578576,1.008463,-0.012143,0.227636,-0.806802,-0.827179,-0.326760,-1.538812,3.604412,-0.105835,1.266213,-3.075170,5.511979,-0.081166,0.079424,0.000000,0.353936,0.149530,0.000000
3.870000,2.798672,-0.210115,-1.576316,1.000318,-0.020235,0.224364,-0.822121,-0.791294,-0.327559,-1.524374,3.572075,-0.055313,1.574986,-3.395174,4.738140,-0.077644,0.080919,0.000000,0.350451,0.148498,-0.000000
3.880000,2.808634,-0.210357,-1.574089,0.992021,-0.027970,0.221086,-0.837284,-0.755749,-0.327876,-1.508286,3.536441,-0.008018,1.640270,-3.729044,4.728574,-0.074158,0.082403,0.000000,0.346702,0.147299,-0.000000
3.890000,2.818512,-0.210674,-1.571895,0.983573,-0.035351,0.217808,-0.852282,-0.720576,-0.327727,-1.490673,3.497672,0.036447,1.926972,-4.015985,4.024330,-0.070711,0.083873,0.000000,0.342700,0.145945,-0.000000
3.900000,2.828305,-0.211063,-1.569733,0.974976,-0.042382,0.214533,-0.867087,-0.685805,-0.327173,-1.470156,3.456125,0.073760,2.129633,-4.296617,3.585081,-0.067305,0.085328,0.000000,0.338501,0.144263,-0.000000
3.910000,2.838011,-0.211520,-1.567604,0.966232,-0.049068,0.211265,-0.881682,-0.651463,-0.326261,-1.448529,3.411793,0.108096,2.316197,-4.561256,3.170315,-0.063941,0.086765,0.000000,0.334069,0.142461,-0.000000
3.920000,2.847629,-0.212043,-1.565507,0.957343,-0.055413,0.208009,-0.896042,-0.617577,-0.325034,-1.422729,3.365008,0.136160,2.724678,-4.799030,2.559570,-0.060624,0.088181,0.000000,0.329452,0.140209,-0.000000
3.930000,2.857158,-0.212627,-1.563444,0.948312,-0.061422,0.204766,-0.910136,-0.584171,-0.323545,-1.396533,3.315743,0.161741,2.510012,-5.051628,2.563713,-0.057353,0.089574,0.000000,0.324619,0.137905,0.000000
3.940000,2.866595,-0.213270,-1.561412,0.939141,-0.067098,0.201539,-0.923973,-0.551270,-0.321805,-1.370152,3.264142,0.185216,2.884824,-5.260122,2.020659,-0.054132,0.090944,0.000000,0.319579,0.135572,0.000000
3.950000,2.875940,-0.213968,-1.559413,0.929834,-0.072449,0.198330,-0.937524,-0.518895,-0.319861,-1.339860,3.210539,0.203197,3.054037,-5.463875,1.693651,-0.050962,0.092288,0.000000,0.314376,0.132813,-0.000000
3.960000,2.885191,-0.214718,-1.557445,0.920392,-0.077478,0.195142,-0.950762,-0.487066,-0.317748,-1.307299,3.154841,0.218966,3.250678,-5.654947,1.389851,-0.047845,0.093603,0.000000,0.308982,0.129817,0.000000
3.970000,2.894347,-0.215517,-1.555510,0.910820,-0.082192,0.191976,-0.963680,-0.455802,-0.315497,-1.276759,3.097656,0.230388,3.057609,-5.797552,0.969984,-0.044783,0.094888,0.000000,0.303463,0.126980,0.000000
3.980000,2.903407,-0.216361,-1.553606,0.901119,-0.086596,0.188832,-0.976281,-0.425119,-0.313146,-1.241944,3.038561,0.239943,3.911077,-6.019897,0.946720,-0.041777,0.096143,0.000000,0.297762,0.123710,0.000000
3.990000,2.912369,-0.217248,-1.551733,0.891295,-0.090696,0.185713,-0.988502,-0.395037,-0.310703,-1.202609,2.977665,0.247945,3.752618,-6.138971,0.584991,-0.038828,0.097363,0.000000,0.291885,0.119984,0.000000
4.000000,2.921233,-0.218174,-1.549892,0.881351,-0.094499,0.182618,-1.000344,-0.365569,-0.308200,-1.165188,2.915672,0.252325,3.933319,-6.275438,0.366913,-0.035939,0.098546,0.000000,0.285911,0.116409,0.000000
4.010000,2.929996,-0.219137,-1.548081,0.871290,-0.098010,0.179549,-1.011796,-0.336729,-0.305660,-1.125084,2.852292,0.255370,4.095598,-6.397864,0.173141,-0.033110,0.099691,0.000000,0.279798,0.112559,0.000000
4.020000,2.938658,-0.220133,-1.546300,0.861116,-0.101235,0.176505,-1.022839,-0.308527,-0.303105,-1.083209,2.787762,0.255190,4.269836,-6.506660,-0.135560,-0.030344,0.100797,0.000000,0.273574,0.108501,0.000000
4.030000,2.947218,-0.221160,-1.544551,0.850834,-0.104182,0.173487,-1.033456,-0.280977,-0.300559,-1.039891,2.722190,0.254196,4.392475,-6.605626,-0.057790,-0.027639,0.101862,0.000000,0.267242,0.104292,-0.000000
4.040000,2.955674,-0.222216,-1.542831,0.840448,-0.106857,0.170494,-1.043632,-0.254087,-0.298022,-0.995199,2.655700,0.252679,4.554007,-6.689975,-0.313459,-0.024999,0.102883,0.000000,0.260813,0.099940,-0.000000
4.050000,2.964027,-0.223297,-1.541141,0.829963,-0.109266,0.167526,-1.053354,-0.227865,-0.295515,-0.948919,2.588426,0.248590,4.693267,-6.763276,-0.430804,-0.022423,0.103861,0.000000,0.254303,0.095404,0.000000
4.060000,2.972273,-0.224400,-1.539480,0.819383,-0.111417,0.164584,-1.062607,-0.202320,-0.293052,-0.901459,2.520494,0.243892,4.824212,-6.824587,-0.532215,-0.019913,0.104792,0.000000,0.247721,0.090743,0.000000
4.070000,2.980414,-0.225524,-1.537849,0.808713,-0.113315,0.161665,-1.071377,-0.177458,-0.290642,-0.852213,2.451941,0.237759,4.998133,-6.880822,-0.666190,-0.017469,0.105675,0.000000,0.241071,0.085889,-0.000000
4.080000,2.988447,-0.226666,-1.536247,0.797957,-0.114968,0.158771,-1.079649,-0.153283,-0.288298,-0.802062,2.382982,0.231159,5.030080,-6.909079,-0.650371,-0.015092,0.106509,0.000000,0.234373,0.080938,-0.000000
4.090000,2.996373,-0.227823,-1.534673,0.787121,-0.116383,0.155899,-1.087416,-0.129799,-0.286020,-0.751113,2.313730,0.224284,5.184491,-6.942870,-0.747975,-0.012782,0.107294,0.000000,0.227638,0.075903,0.000000
4.100000,3.004189,-0.228993,-1.533129,0.776210,-0.117567,0.153050,-1.094665,-0.107009,-0.283816,-0.698618,2.244188,0.216466,5.287320,-6.960659,-0.787464,-0.010539,0.108027,0.000000,0.220867,0.070703,0.000000
4.110000,3.011897,-0.230173,-1.531612,0.765230,-0.118526,0.150223,-1.101386,-0.084916,-0.281691,-0.645318,2.174561,0.208485,5.382926,-6.967927,-0.814132,-0.008365,0.108708,0.000000,0.214080,0.065419,-0.000000
4.120000,3.019494,-0.231362,-1.530124,0.754185,-0.119267,0.147416,-1.107568,-0.063519,-0.279647,-0.590880,2.104818,0.200161,5.492302,-6.974318,-0.841602,-0.006258,0.109335,0.000000,0.207275,0.060016,-0.000000
4.130000,3.026980,-0.232558,-1.528664,0.743080,-0.119798,0.144629,-1.113201,-0.042819,-0.277687,-0.535733,2.035204,0.191838,5.535257,-6.946829,-0.820897,-0.004219,0.109908,0.000000,0.200476,0.054542,0.000000
4.140000,3.034355,-0.233758,-1.527231,0.731922,-0.120126,0.141862,-1.118280,-0.022814,-0.275810,-0.479975,1.965818,0.183639,5.626220,-6.933448,-0.824149,-0.002248,0.110426,0.000000,0.193692,0.049005,0.000000
4.150000,3.041619,-0.234960,-1.525827,0.720717,-0.120257,0.139113,-1.122797,-0.003502,-0.274015,-0.423329,1.896604,0.175450,5.690096,-6.903238,-0.805169,-0.000345,0.110888,0.000000,0.186921,0.043380,0.000000
4.160000,3.048769,-0.236162,-1.524449,0.709468,-0.120198,0.136381,-1.126746,0.015120,-0.272300,-0.366228,1.827787,0.167481,5.744414,-6.864095,-0.778387,0.001490,0.111293,0.000000,0.180183,0.037709,-0.000000
4.170000,3.055808,-0.237363,-1.523099,0.698184,-0.119957,0.133667,-1.130119,0.033055,-0.270663,-0.308323,1.759300,0.159993,5.819791,-6.826790,-0.726474,0.003259,0.111641,0.000000,0.173474,0.031963,0.000000
4.180000,3.062733,-0.238561,-1.521776,0.686868,-0.119539,0.130968,-1.132911,0.050308,-0.269100,-0.250182,1.691388,0.152796,5.806607,-6.754118,-0.711933,0.004960,0.111932,0.000000,0.166818,0.026195,-0.000000
4.190000,3.069545,-0.239753,-1.520479,0.675527,-0.118953,0.128284,-1.135122,0.066885,-0.267606,-0.191909,1.624137,0.145952,5.861937,-6.700197,-0.647202,0.006595,0.112165,0.000000,0.160224,0.020415,0.000000
4.200000,3.076244,-0.240939,-1.519210,0.664167,-0.118204,0.125615,-1.136748,0.082792,-0.266178,-0.133111,1.557453,0.139800,5.881735,-6.630070,-0.590975,0.008165,0.112340,0.000000,0.153683,0.014590,0.000000
4.210000,3.082828,-0.242117,-1.517967,0.652794,-0.117299,0.122961,-1.137785,0.098036,-0.264809,-0.074373,1.491498,0.134067,5.891209,-6.554002,-0.531450,0.009669,0.112457,0.000000,0.147213,0.008773,0.000000
4.220000,3.089299,-0.243285,-1.516751,0.641414,-0.116245,0.120319,-1.138233,0.112625,-0.263493,-0.015070,1.426448,0.129400,5.942051,-6.460517,-0.423861,0.011109,0.112516,0.000000,0.140830,0.002910,-0.000000
4.230000,3.095657,-0.244441,-1.515561,0.630032,-0.115049,0.117691,-1.138088,0.126568,-0.262220,0.043894,1.362191,0.125131,5.848380,-6.390161,-0.430099,0.012486,0.112516,0.000000,0.134525,-0.002917,0.000000
4.240000,3.101900,-0.245585,-1.514397,0.618654,-0.113716,0.115075,-1.137356,0.139872,-0.260989,0.102394,1.298778,0.121264,5.876464,-6.285616,-0.319920,0.013800,0.112457,0.000000,0.128303,-0.008696,0.000000
4.250000,3.108030,-0.246715,-1.513259,0.607286,-0.112254,0.112471,-1.136038,0.152547,-0.259790,0.161177,1.236449,0.118550,5.852060,-6.184998,-0.245492,0.015052,0.112341,0.000000,0.122188,-0.014492,0.000000
4.260000,3.114046,-0.247830,-1.512147,0.595935,-0.110667,0.109879,-1.134134,0.164605,-0.258616,0.219608,1.175238,0.116389,5.821886,-6.076494,-0.169550,0.016244,0.112168,0.000000,0.116184,-0.020249,0.000000
4.270000,3.119948,-0.248928,-1.511062,0.584606,-0.108963,0.107298,-1.131648,0.176054,-0.257459,0.277487,1.114752,0.115318,5.763021,-6.000513,-0.060733,0.017376,0.111937,0.000000,0.110252,-0.025943,0.000000
4.280000,3.125738,-0.250009,-1.510001,0.573304,-0.107148,0.104729,-1.128585,0.186905,-0.256308,0.335062,1.055651,0.114834,5.750939,-5.818288,-0.036508,0.018450,0.111649,0.000000,0.104457,-0.031604,-0.000000
4.290000,3.131415,-0.251071,-1.508967,0.562036,-0.105227,0.102172,-1.124948,0.197172,-0.255160,0.392264,0.998006,0.114919,5.677440,-5.729637,0.069982,0.019466,0.111305,0.000000,0.098807,-0.037224,0.000000
4.300000,3.136979,-0.252113,-1.507958,0.550807,-0.103207,0.099626,-1.120743,0.206867,-0.254006,0.448677,0.941238,0.116093,5.613985,-5.603970,0.148228,0.020426,0.110905,0.000000,0.093245,-0.042758,-0.000000
4.310000,3.142431,-0.253135,-1.506974,0.539623,-0.101092,0.097092,-1.115977,0.216001,-0.252837,0.504309,0.885732,0.117754,5.538345,-5.478313,0.222367,0.021331,0.110450,0.000000,0.087808,-0.048214,0.000000
4.320000,3.147771,-0.254135,-1.506016,0.528489,-0.098888,0.094570,-1.110657,0.224588,-0.251645,0.559669,0.831850,0.120890,5.505817,-5.315356,0.367213,0.022183,0.109940,0.000000,0.082534,-0.053631,0.000000
4.330000,3.153001,-0.255112,-1.505083,0.517412,-0.096602,0.092059,-1.104788,0.232642,-0.250419,0.613839,0.779059,0.124308,5.325940,-5.243070,0.314893,0.022982,0.109377,0.000000,0.077367,-0.058932,0.000000
4.340000,3.158120,-0.256066,-1.504175,0.506395,-0.094237,0.089561,-1.098385,0.240172,-0.249159,0.666700,0.727357,0.127937,5.271856,-5.078895,0.448253,0.023730,0.108762,0.000000,0.072308,-0.064107,0.000000
4.350000,3.163129,-0.256997,-1.503292,0.495446,-0.091800,0.087076,-1.091455,0.247195,-0.247855,0.719027,0.677334,0.132945,5.164849,-4.943288,0.515173,0.024429,0.108095,0.000000,0.067417,-0.069219,-0.000000
4.360000,3.168029,-0.257902,-1.502433,0.484568,-0.089295,0.084604,-1.084009,0.253723,-0.246499,0.769968,0.628489,0.138258,5.048874,-4.806902,0.578283,0.025079,0.107377,0.000000,0.062642,-0.074197,-0.000000
4.370000,3.172821,-0.258782,-1.501600,0.473767,-0.086727,0.082146,-1.076058,0.259771,-0.245085,0.820225,0.581372,0.144788,4.975448,-4.634309,0.696772,0.025682,0.106611,0.000000,0.058040,-0.079100,-0.000000
4.380000,3.177505,-0.259636,-1.500790,0.463048,-0.084101,0.079703,-1.067610,0.265354,-0.243603,0.868912,0.535428,0.151546,4.759892,-4.554879,0.653415,0.026240,0.105795,0.000000,0.053552,-0.083852,0.000000
4.390000,3.182082,-0.260464,-1.500005,0.452416,-0.081422,0.077275,-1.058685,0.270483,-0.242054,0.915923,0.490643,0.158457,4.667415,-4.383813,0.758746,0.026754,0.104933,0.000000,0.049178,-0.088445,-0.000000
4.400000,3.186553,-0.261265,-1.499245,0.441876,-0.078693,0.074862,-1.049294,0.275173,-0.240430,0.962018,0.447600,0.166455,4.524473,-4.242874,0.809022,0.027224,0.104026,0.000000,0.044977,-0.092942,0.000000
4.410000,3.190920,-0.262038,-1.498508,0.431432,-0.075920,0.072466,-1.039450,0.279439,-0.238724,1.006656,0.405953,0.174748,4.379560,-4.098839,0.856288,0.027654,0.103074,0.000000,0.040912,-0.097300,-0.000000
4.420000,3.195182,-0.262783,-1.497795,0.421089,-0.073106,0.070088,-1.029168,0.283296,-0.236932,1.049383,0.365509,0.183636,4.186719,-3.977789,0.913481,0.028043,0.102080,0.000000,0.036966,-0.101471,-0.000000
4.430000,3.199342,-0.263500,-1.497106,0.410850,-0.070255,0.067728,-1.018466,0.286755,-0.235050,1.090830,0.326651,0.192851,4.102466,-3.793555,0.928596,0.028394,0.101045,0.000000,0.033175,-0.105520,0.000000
4.440000,3.203400,-0.264188,-1.496441,0.400721,-0.067372,0.065387,-1.007356,0.289834,-0.233075,1.130971,0.289393,0.202340,3.902883,-3.670286,0.975637,0.028707,0.099969,0.000000,0.029541,-0.109445,-0.000000
4.450000,3.207357,-0.264847,-1.495798,0.390704,-0.064460,0.063067,-0.995854,0.292547,-0.231002,1.169059,0.253347,0.212289,3.735637,-3.526890,1.005955,0.028985,0.098855,0.000000,0.026025,-0.113170,0.000000
4.460000,3.211214,-0.265477,-1.495179,0.380805,-0.061522,0.060768,-0.983980,0.294906,-0.228829,1.205473,0.218699,0.222287,3.560206,-3.386896,1.028053,0.029228,0.097705,0.000000,0.022644,-0.116739,0.000000
4.470000,3.214973,-0.266077,-1.494583,0.371026,-0.058563,0.058491,-0.971749,0.296927,-0.226552,1.240375,0.185753,0.233159,3.405879,-3.218098,1.111304,0.029438,0.096520,0.000000,0.019431,-0.120158,0.000000
4.480000,3.218635,-0.266648,-1.494009,0.361371,-0.055585,0.056237,-0.959179,0.298625,-0.224167,1.273292,0.154007,0.243780,3.176240,-3.131703,1.011047,0.029617,0.095302,0.000000,0.016334,-0.123391,-0.000000
4.490000,3.222201,-0.267189,-1.493458,0.351843,-0.052591,0.054008,-0.946291,0.300010,-0.221678,1.304158,0.123427,0.254055,3.009861,-2.968899,1.077813,0.029765,0.094052,0.000000,0.013347,-0.126433,0.000000
4.500000,3.225672,-0.267700,-1.492929,0.342446,-0.049585,0.051804,-0.933101,0.301099,-0.219083,1.333366,0.094491,0.265027,2.816782,-2.834299,1.081404,0.029885,0.092772,0.000000,0.010522,-0.129314,0.000000
4.510000,3.229050,-0.268181,-1.492422,0.333182,-0.046570,0.049626,-0.919630,0.301904,-0.216379,1.360605,0.066737,0.275809,2.621375,-2.702207,1.081718,0.029976,0.091465,0.000000,0.007809,-0.132009,0.000000
4.520000,3.232336,-0.268631,-1.491937,0.324054,-0.043548,0.047476,-0.905896,0.302439,-0.213566,1.385698,0.040575,0.286715,2.405368,-2.544727,1.091492,0.030041,0.090132,0.000000,0.005252,-0.134499,0.000000
4.530000,3.235532,-0.269052,-1.491472,0.315065,-0.040522,0.045355,-0.891922,0.302719,-0.210645,1.408886,0.015537,0.297471,2.231946,-2.463764,1.058624,0.030082,0.088775,0.000000,0.002802,-0.136810,0.000000
4.540000,3.238638,-0.269442,-1.491029,0.306217,-0.037495,0.043264,-0.877725,0.302754,-0.207617,1.430149,-0.008420,0.308020,2.011247,-2.313643,1.057893,0.030098,0.087395,0.000000,0.000455,-0.138939,0.000000
4.550000,3.241657,-0.269802,-1.490607,0.297511,-0.034468,0.041203,-0.863327,0.302556,-0.204484,1.449171,-0.030866,0.318551,1.802111,-2.190205,1.040240,0.030091,0.085995,0.000000,-0.001746,-0.140854,-0.000000
4.560000,3.244589,-0.270131,-1.490205,0.288951,-0.031444,0.039175,-0.848748,0.302140,-0.201247,1.466216,-0.052198,0.328834,1.591462,-2.069200,1.018409,0.030063,0.084577,0.000000,-0.003840,-0.142582,-0.000000
4.570000,3.247436,-0.270431,-1.489823,0.280537,-0.028426,0.037179,-0.834011,0.301517,-0.197908,1.480853,-0.072190,0.338930,1.350068,-1.936815,0.997446,0.030015,0.083143,0.000000,-0.005806,-0.144080,-0.000000
4.580000,3.250200,-0.270700,-1.489462,0.272271,-0.025415,0.035217,-0.819138,0.300700,-0.194470,1.493514,-0.091095,0.348713,1.182185,-1.845024,0.958305,0.029947,0.081695,0.000000,-0.007667,-0.145390,0.000000
4.590000,3.252882,-0.270939,-1.489119,0.264155,-0.022412,0.033290,-0.804147,0.299698,-0.190935,1.504195,-0.108953,0.358137,0.938815,-1.719589,0.928528,0.029862,0.080235,0.000000,-0.009429,-0.146513,0.000000
4.600000,3.255484,-0.271148,-1.488796,0.256188,-0.019421,0.031398,-0.789062,0.298525,-0.187308,1.512407,-0.125558,0.367243,0.717943,-1.609363,0.889775,0.029759,0.078764,0.000000,-0.011070,-0.147398,-0.000000
4.610000,3.258006,-0.271327,-1.488491,0.248374,-0.016442,0.029544,-0.773906,0.297191,-0.183592,1.518349,-0.141125,0.375880,0.491595,-1.501900,0.846332,0.029641,0.077286,0.000000,-0.012613,-0.148066,-0.000000
4.620000,3.260452,-0.271477,-1.488205,0.240710,-0.013478,0.027727,-0.758701,0.295706,-0.179791,1.522430,-0.155583,0.384243,0.303518,-1.392639,0.816505,0.029507,0.075802,0.000000,-0.014049,-0.148555,-0.000000
4.630000,3.262821,-0.271597,-1.487936,0.233200,-0.010529,0.025948,-0.743466,0.294082,-0.175909,1.523974,-0.169040,0.392007,0.004369,-1.299451,0.735370,0.029360,0.074314,0.000000,-0.015389,-0.148800,0.000000
4.640000,3.265116,-0.271688,-1.487686,0.225841,-0.007597,0.024209,-0.728230,0.292328,-0.171953,1.522935,-0.181532,0.399122,-0.191355,-1.196898,0.696288,0.029200,0.072826,0.000000,-0.016639,-0.148796,0.000000
4.650000,3.267339,-0.271749,-1.487452,0.218635,-0.004683,0.022509,-0.713014,0.290455,-0.167928,1.519965,-0.193010,0.405840,-0.424007,-1.101832,0.637888,0.029028,0.071338,0.000000,-0.017790,-0.148604,-0.000000
4.660000,3.269489,-0.271781,-1.487235,0.211581,-0.001788,0.020850,-0.697839,0.288471,-0.163839,1.514551,-0.203658,0.411902,-0.656669,-1.011687,0.576491,0.028844,0.069853,0.000000,-0.018863,-0.148175,0.000000
4.670000,3.271571,-0.271785,-1.487035,0.204678,0.001086,0.019233,-0.682730,0.286386,-0.159692,1.506851,-0.213103,0.417382,-0.885602,-0.893922,0.516502,0.028651,0.068374,0.000000,-0.019819,-0.147524,0.000000
4.680000,3.273584,-0.271760,-1.486850,0.197926,0.003940,0.017657,-0.667710,0.284211,-0.155493,1.496788,-0.221884,0.422170,-1.127218,-0.863279,0.440524,0.028448,0.066902,0.000000,-0.020713,-0.146641,0.000000
4.690000,3.275530,-0.271706,-1.486682,0.191323,0.006770,0.016123,-0.652803,0.281950,-0.151251,1.484354,-0.230055,0.426232,-1.357282,-0.755346,0.373672,0.028237,0.065441,0.000000,-0.021550,-0.145525,-0.000000
4.700000,3.277410,-0.271624,-1.486528,0.184869,0.009578,0.014632,-0.638031,0.279614,-0.146971,1.469619,-0.237139,0.429618,-1.591630,-0.678061,0.300146,0.028017,0.063991,0.000000,-0.022282,-0.144183,0.000000
4.710000,3.279228,-0.271515,-1.486389,0.178562,0.012362,0.013184,-0.623418,0.277210,-0.142661,1.452620,-0.243532,0.432240,-1.823706,-0.602782,0.223784,0.027791,0.062557,0.000000,-0.022948,-0.142618,-0.000000
4.720000,3.280982,-0.271377,-1.486264,0.172400,0.015122,0.011779,-0.608987,0.274745,-0.138329,1.433002,-0.249220,0.434085,-2.084632,-0.533724,0.144686,0.027559,0.061139,0.000000,-0.023546,-0.140792,0.000000
4.730000,3.282676,-0.271212,-1.486153,0.166382,0.017857,0.010417,-0.594765,0.272228,-0.133982,1.411249,-0.254184,0.435127,-2.265500,-0.459615,0.063330,0.027320,0.059740,0.000000,-0.024075,-0.138754,0.000000
4.740000,3.284310,-0.271020,-1.486055,0.160504,0.020567,0.009099,-0.580769,0.269664,-0.129629,1.387388,-0.258455,0.435342,-2.521884,-0.396597,-0.020741,0.027077,0.058363,0.000000,-0.024538,-0.136506,-0.000000
4.750000,3.285887,-0.270801,-1.485971,0.154766,0.023250,0.007825,-0.567026,0.267061,-0.125278,1.360944,-0.262113,0.434708,-2.751346,-0.334015,-0.106689,0.026830,0.057010,0.000000,-0.024942,-0.133999,0.000000
4.760000,3.287406,-0.270555,-1.485899,0.149163,0.025908,0.006594,-0.553557,0.264424,-0.120937,1.332345,-0.265188,0.433285,-2.979458,-0.275397,-0.193249,0.026579,0.055683,0.000000,-0.025289,-0.131275,-0.000000
4.770000,3.288870,-0.270283,-1.485839,0.143693,0.028539,0.005406,-0.540387,0.261759,-0.116616,1.301257,-0.267573,0.430698,-3.227208,-0.208191,-0.309959,0.026324,0.054385,0.000000,-0.025571,-0.128301,0.000000
4.780000,3.290280,-0.269984,-1.485791,0.138354,0.031143,0.004261,-0.527539,0.259074,-0.112326,1.268033,-0.269490,0.427386,-3.417065,-0.175849,-0.352272,0.026067,0.053117,0.000000,-0.025808,-0.125110,0.000000
4.790000,3.291638,-0.269660,-1.485754,0.133142,0.033720,0.003159,-0.515034,0.256371,-0.108071,1.232701,-0.270978,0.423351,-3.659861,-0.116005,-0.469715,0.025808,0.051882,0.000000,-0.026002,-0.121703,0.000000
4.800000,3.292944,-0.269310,-1.485727,0.128052,0.036270,0.002100,-0.502894,0.253656,-0.103863,1.194933,-0.271872,0.418112,-3.882630,-0.069524,-0.563813,0.025548,0.050683,0.000000,-0.026140,-0.118050,-0.000000
4.810000,3.294199,-0.268935,-1.485711,0.123082,0.038793,0.001082,-0.491143,0.250935,-0.099712,1.154873,-0.272420,0.412001,-4.106674,-0.027199,-0.661320,0.025286,0.049521,0.000000,-0.026245,-0.114162,0.000000
4.820000,3.295406,-0.268534,-1.485705,0.118228,0.041289,0.000105,-0.479802,0.248210,-0.095627,1.113021,-0.272305,0.404829,-4.285806,0.037040,-0.768741,0.025023,0.048399,0.000000,-0.026285,-0.110090,0.000000
4.830000,3.296564,-0.268109,-1.485709,0.113485,0.043757,-0.000831,-0.468891,0.245489,-0.091618,1.068692,-0.271958,0.396716,-4.580301,0.031541,-0.854055,0.024760,0.047320,0.000000,-0.026303,-0.105764,0.000000
4.840000,3.297676,-0.267659,-1.485722,0.108849,0.046199,-0.001728,-0.458436,0.242772,-0.087695,1.021876,-0.271424,0.387650,-4.759850,0.087770,-0.964068,0.024497,0.046284,0.000000,-0.026303,-0.101182,-0.000000
4.850000,3.298741,-0.267185,-1.485744,0.104315,0.048613,-0.002585,-0.448458,0.240063,-0.083869,0.973317,-0.270321,0.377468,-4.974810,0.119498,-1.068003,0.024234,0.045296,0.000000,-0.026248,-0.096420,-0.000000
4.860000,3.299762,-0.266687,-1.485774,0.099878,0.051000,-0.003405,-0.438978,0.237366,-0.080149,0.922511,-0.268973,0.366260,-5.185769,0.149676,-1.173943,0.023972,0.044356,0.000000,-0.026169,-0.091426,0.000000
4.870000,3.300739,-0.266165,-1.485812,0.095533,0.053360,-0.004189,-0.430015,0.234684,-0.076547,0.869612,-0.267335,0.353983,-5.393673,0.177564,-1.281567,0.023711,0.043468,0.000000,-0.026062,-0.086214,0.000000
4.880000,3.301673,-0.265620,-1.485857,0.091276,0.055694,-0.004937,-0.421592,0.232020,-0.073073,0.814649,-0.265429,0.340623,-5.598288,0.203272,-1.390849,0.023451,0.042632,0.000000,-0.025929,-0.080789,0.000000
4.890000,3.302565,-0.265052,-1.485910,0.087100,0.058001,-0.005651,-0.413729,0.229376,-0.069739,0.757658,-0.263277,0.326161,-5.799373,0.226908,-1.501758,0.023192,0.041852,0.000000,-0.025772,-0.075153,-0.000000
4.900000,3.303416,-0.264460,-1.485970,0.082999,0.060281,-0.006332,-0.406446,0.226755,-0.066554,0.698673,-0.260898,0.310582,-5.996784,0.248601,-1.614284,0.022936,0.041129,0.000000,-0.025593,-0.069311,-0.000000
4.910000,3.304225,-0.263846,-1.486037,0.078969,0.062536,-0.006982,-0.399762,0.224159,-0.063531,0.637735,-0.258311,0.293870,-6.190164,0.268439,-1.728378,0.022681,0.040466,0.000000,-0.025394,-0.063265,-0.000000
4.920000,3.304995,-0.263209,-1.486110,0.075002,0.064765,-0.007603,-0.393697,0.221590,-0.060680,0.574884,-0.255535,0.276009,-6.379324,0.286541,-1.844010,0.022428,0.039864,0.000000,-0.025177,-0.057021,-0.000000
4.930000,3.305726,-0.262551,-1.486189,0.071093,0.066968,-0.008196,-0.388271,0.219049,-0.058014,0.510163,-0.252585,0.256985,-6.564029,0.303022,-1.961110,0.022177,0.039326,0.000000,-0.024943,-0.050583,0.000000
4.940000,3.306417,-0.261870,-1.486273,0.067234,0.069146,-0.008764,-0.383500,0.216539,-0.055545,0.443619,-0.249479,0.236783,-6.744048,0.318000,-2.079541,0.021929,0.038853,0.000000,-0.024693,-0.043956,-0.000000
4.950000,3.307070,-0.261168,-1.486364,0.063420,0.071299,-0.009308,-0.379404,0.214060,-0.053283,0.375298,-0.246231,0.215382,-6.919192,0.331541,-2.199994,0.021683,0.038447,0.000000,-0.024430,-0.037146,-0.000000
4.960000,3.307686,-0.260444,-1.486460,0.059644,0.073427,-0.009830,-0.376000,0.211614,-0.051241,0.305252,-0.242853,0.192776,-7.089157,0.343807,-2.321571,0.021440,0.038111,0.000000,-0.024154,-0.030159,0.000000
4.970000,3.308263,-0.259699,-1.486560,0.055898,0.075531,-0.010334,-0.373305,0.209203,-0.049431,0.233533,-0.239358,0.168946,-7.253729,0.354892,-2.444568,0.021200,0.037845,0.000000,-0.023867,-0.022999,-0.000000
4.980000,3.308804,-0.258934,-1.486666,0.052175,0.077611,-0.010820,-0.371335,0.206828,-0.047866,0.160196,-0.235758,0.143880,-7.412668,0.364908,-2.568979,0.020963,0.037651,0.000000,-0.023570,-0.015675,-0.000000
4.990000,3.309307,-0.258147,-1.486777,0.048469,0.079668,-0.011292,-0.370106,0.204488,-0.046558,0.085299,-0.232063,0.117562,-7.565776,0.373973,-2.694843,0.020729,0.037532,0.000000,-0.023264,-0.008193,-0.000000
5.000000,3.309773,-0.257340,-1.486892,0.044771,0.081701,-0.011752,-0.369634,0.202187,-0.045519,0.008900,-0.228282,0.089978,-7.712935,0.382209,-2.822271,0.020498,0.037488,0.000000,-0.022949,-0.000560,0.000000
