time,x,y,z,vx,vy,vz,ax,ay,az,jx,jy,jz,sx,sy,sz,roll,pitch,yaw,p,q,r
0.000000,-2.982802,-0.878920,-1.293130,-0.002979,0.005449,0.001042,0.008804,0.088850,0.176864,-1.203061,-0.867974,-5.704695,101.934838,8.676859,128.467411,0.009223,-0.000914,0.000000,-0.095556,0.125424,-0.000000
0.010000,-2.982832,-0.878861,-1.293112,-0.002934,0.006295,0.002546,0.001644,0.080599,0.125883,-0.251106,-0.782646,-4.526085,88.638255,8.388041,107.632559,0.008323,-0.000170,0.000000,-0.084701,0.026008,-0.000000
0.020000,-2.982861,-0.878794,-1.293081,-0.002916,0.007064,0.003596,0.003356,0.073187,0.085685,0.573269,-0.700224,-3.544678,76.411162,8.095935,89.007251,0.007526,-0.000345,0.000000,-0.074747,-0.058825,-0.000000
0.030000,-2.982890,-0.878720,-1.293041,-0.002842,0.007762,0.004290,0.012719,0.066585,0.054404,1.280529,-0.620737,-2.738964,65.207396,7.801078,72.474811,0.006825,-0.001304,0.000000,-0.065543,-0.130892,-0.000000
0.040000,-2.982918,-0.878639,-1.292996,-0.002640,0.008398,0.004708,0.028610,0.060762,0.030388,1.880674,-0.544210,-2.088595,54.980654,7.503983,57.918566,0.006213,-0.002925,0.000000,-0.056975,-0.191675,0.000000
0.050000,-2.982942,-0.878552,-1.292948,-0.002251,0.008980,0.004917,0.050007,0.055690,0.012179,2.383252,-0.470661,-1.574393,45.685604,7.205344,45.221923,0.005684,-0.005104,0.000000,-0.048956,-0.242413,0.000000
0.060000,-2.982962,-0.878460,-1.292898,-0.001625,0.009514,0.004967,0.075980,0.051339,-0.001494,2.797338,-0.400106,-1.178346,37.275261,6.905540,34.268100,0.005232,-0.007744,0.000000,-0.041417,-0.284157,-0.000000
0.070000,-2.982974,-0.878362,-1.292849,-0.000719,0.010009,0.004898,0.105688,0.047678,-0.011726,3.131553,-0.332553,-0.883610,29.703808,6.605179,24.940471,0.004854,-0.010760,0.000000,-0.034309,-0.317831,0.000000
0.080000,-2.982975,-0.878260,-1.292800,0.000499,0.010470,0.004741,0.138372,0.044678,-0.019451,3.394056,-0.268003,-0.674505,22.925122,6.304809,17.122358,0.004545,-0.014076,0.000000,-0.027596,-0.344257,-0.000000
0.090000,-2.982963,-0.878153,-1.292754,0.002056,0.010904,0.004515,0.173355,0.042308,-0.025453,3.592544,-0.206455,-0.536520,16.893068,6.004972,10.697063,0.004301,-0.017624,0.000000,-0.021249,-0.364187,-0.000000
0.100000,-2.982933,-0.878042,-1.292710,0.003972,0.011318,0.004235,0.210034,0.040539,-0.030374,3.734253,-0.147901,-0.456310,11.561562,5.706163,5.548004,0.004119,-0.021341,0.000000,-0.015251,-0.378318,-0.000000
0.110000,-2.982882,-0.877926,-1.292670,0.006261,0.011717,0.003909,0.247874,0.039340,-0.034731,3.825957,-0.092326,-0.421695,6.884454,5.409005,1.558423,0.003995,-0.025173,0.000000,-0.009585,-0.387303,-0.000000
0.120000,-2.982806,-0.877807,-1.292632,0.008932,0.012107,0.003541,0.286407,0.038683,-0.038923,3.873970,-0.039713,-0.421665,2.815629,5.114009,-1.388324,0.003926,-0.029072,0.000000,-0.004243,-0.391760,-0.000000
0.130000,-2.982702,-0.877684,-1.292599,0.011990,0.012492,0.003131,0.325227,0.038536,-0.043247,3.884143,0.009963,-0.446374,-0.691049,4.821717,-3.408912,0.003909,-0.032995,0.000000,0.000783,-0.392274,-0.000000
0.140000,-2.982565,-0.877558,-1.292570,0.015436,0.012879,0.002675,0.363982,0.038872,-0.047904,3.861869,0.056732,-0.487145,-3.681731,4.532664,-4.620012,0.003941,-0.036906,0.000000,0.005500,-0.389395,0.000000
0.150000,-2.982392,-0.877427,-1.292545,0.019268,0.013271,0.002171,0.402373,0.039661,-0.053018,3.812075,0.100629,-0.536465,-6.202571,4.247363,-5.138283,0.004018,-0.040774,0.000000,0.009913,-0.383641,-0.000000
0.160000,-2.982179,-0.877292,-1.292527,0.023481,0.013674,0.001613,0.440147,0.040875,-0.058641,3.739236,0.141696,-0.587990,-8.299183,3.966596,-5.080383,0.004138,-0.044571,0.000000,0.014028,-0.375493,0.000000
0.170000,-2.981921,-0.877153,-1.292513,0.028068,0.014090,0.000996,0.477094,0.042486,-0.064768,3.647353,0.179978,-0.636541,-10.018353,3.690603,-4.563021,0.004297,-0.048277,0.000000,0.017852,-0.365390,0.000000
0.180000,-2.981616,-0.877010,-1.292507,0.033020,0.014525,0.000316,0.513042,0.044466,-0.071348,3.539974,0.215526,-0.678107,-11.405880,3.420033,-3.702835,0.004494,-0.051874,0.000000,0.021391,-0.353728,-0.000000
0.190000,-2.981260,-0.876863,-1.292507,0.038325,0.014981,-0.000432,0.547852,0.046788,-0.078297,3.420187,0.248399,-0.709844,-12.507777,3.155426,-2.616470,0.004724,-0.055348,0.000000,0.024653,-0.340855,0.000000
0.200000,-2.980848,-0.876710,-1.292516,0.043973,0.015461,-0.001251,0.581414,0.049425,-0.085506,3.290608,0.278658,-0.730074,-13.371031,2.897441,-1.420795,0.004986,-0.058688,0.000000,0.027647,-0.327068,-0.000000
0.210000,-2.980379,-0.876553,-1.292533,0.049949,0.015970,-0.002144,0.613499,0.052361,-0.093387,3.121393,0.308394,-0.859201,-14.673523,2.686461,-2.622461,0.005277,-0.061869,0.000000,0.030521,-0.308621,0.000000
0.220000,-2.979848,-0.876391,-1.292559,0.056238,0.016509,-0.003118,0.644270,0.055556,-0.100961,3.050778,0.329054,-0.582189,-5.018366,1.799952,36.882969,0.005594,-0.064914,0.000000,0.032691,-0.302716,-0.000000
0.230000,-2.979253,-0.876223,-1.292595,0.062832,0.017082,-0.004153,0.674220,0.058952,-0.106054,2.904039,0.351835,-0.565468,-24.480129,2.767965,-34.206713,0.005931,-0.067888,0.000000,0.034944,-0.287650,-0.000000
0.240000,-2.978591,-0.876049,-1.292642,0.069715,0.017689,-0.005248,0.702031,0.062605,-0.113404,2.674850,0.377270,-0.838864,-15.686191,1.962592,0.859569,0.006293,-0.070627,0.000000,0.037273,-0.262251,0.000000
0.250000,-2.977858,-0.875869,-1.292700,0.076867,0.018335,-0.006422,0.728139,0.066462,-0.121184,2.542750,0.394125,-0.729615,-16.345958,1.764426,-0.286900,0.006674,-0.073187,0.000000,0.038965,-0.249305,-0.000000
0.260000,-2.977053,-0.875682,-1.292771,0.084273,0.019019,-0.007671,0.752717,0.070485,-0.128499,2.371782,0.409975,-0.733218,-16.660865,1.530137,-0.129726,0.007072,-0.075593,0.000000,0.040486,-0.231723,-0.000000
0.270000,-2.976172,-0.875489,-1.292854,0.091916,0.019745,-0.008992,0.775661,0.074664,-0.135818,2.220632,0.425872,-0.729439,-14.686089,1.528128,0.586177,0.007484,-0.077831,0.000000,0.042012,-0.216232,0.000000
0.280000,-2.975213,-0.875287,-1.292951,0.099781,0.020513,-0.010387,0.797072,0.078989,-0.143097,2.054574,0.437995,-0.727776,-18.545907,0.892370,-0.265036,0.007911,-0.079912,0.000000,0.043158,-0.199286,0.000000
0.290000,-2.974175,-0.875078,-1.293062,0.107851,0.021325,-0.011854,0.816691,0.083410,-0.150385,1.872933,0.446157,-0.728775,-16.624303,0.861757,0.362940,0.008346,-0.081811,0.000000,0.043906,-0.180817,-0.000000
0.300000,-2.973056,-0.874861,-1.293188,0.116109,0.022181,-0.013394,0.834621,0.087914,-0.157645,1.712624,0.454184,-0.723106,-16.566295,0.621321,0.469911,0.008789,-0.083538,0.000000,0.044645,-0.164584,0.000000
0.310000,-2.971853,-0.874634,-1.293330,0.124538,0.023083,-0.015007,0.850906,0.092479,-0.164853,1.544205,0.458401,-0.718438,-16.441084,0.369029,0.571051,0.009237,-0.085099,0.000000,0.045004,-0.147585,0.000000
0.320000,-2.970565,-0.874399,-1.293489,0.133122,0.024031,-0.016691,0.865565,0.097086,-0.172001,1.390121,0.462910,-0.710731,-15.010687,0.389082,0.863588,0.009689,-0.086496,0.000000,0.045396,-0.132089,0.000000
0.330000,-2.969190,-0.874154,-1.293664,0.141844,0.025025,-0.018447,0.878686,0.101722,-0.179070,1.230636,0.463164,-0.703406,-16.897797,-0.343358,0.596337,0.010144,-0.087739,0.000000,0.045366,-0.116100,0.000000
0.340000,-2.967727,-0.873898,-1.293858,0.150690,0.026066,-0.020272,0.890153,0.106333,-0.186073,1.065377,0.458928,-0.696712,-15.495111,-0.359921,0.846893,0.010595,-0.088816,0.000000,0.044892,-0.099578,0.000000
0.350000,-2.966176,-0.873632,-1.294070,0.159642,0.027152,-0.022168,0.900056,0.110904,-0.192993,0.915360,0.454727,-0.687395,-15.151297,-0.624917,0.909204,0.011042,-0.089737,0.000000,0.044428,-0.084635,-0.000000
0.360000,-2.964534,-0.873355,-1.294301,0.168686,0.028283,-0.024132,0.908449,0.115413,-0.199822,0.763659,0.446612,-0.678220,-14.772636,-0.895332,0.965810,0.011482,-0.090508,0.000000,0.043578,-0.069564,0.000000
0.370000,-2.962802,-0.873066,-1.294553,0.177806,0.029460,-0.026164,0.915375,0.119835,-0.206553,0.623797,0.437763,-0.667722,-13.592147,-0.975066,1.092782,0.011913,-0.091133,0.000000,0.042662,-0.055715,-0.000000
0.380000,-2.960978,-0.872766,-1.294825,0.186989,0.030680,-0.028263,0.920920,0.124154,-0.213176,0.483565,0.424996,-0.657222,-14.461797,-1.581725,1.005063,0.012334,-0.091622,0.000000,0.041361,-0.041864,0.000000
0.390000,-2.959062,-0.872453,-1.295118,0.196220,0.031942,-0.030427,0.925041,0.128321,-0.219698,0.342703,0.408153,-0.646826,-13.304731,-1.685798,1.113803,0.012739,-0.091970,0.000000,0.039662,-0.027980,-0.000000
0.400000,-2.957053,-0.872127,-1.295434,0.205485,0.033246,-0.032656,0.927822,0.132316,-0.226109,0.214134,0.390417,-0.635304,-12.805297,-1.962503,1.150414,0.013127,-0.092186,0.000000,0.037880,-0.015352,-0.000000
0.410000,-2.954952,-0.871788,-1.295772,0.214772,0.034588,-0.034949,0.929326,0.136116,-0.232403,0.087393,0.369172,-0.623519,-12.287347,-2.238247,1.189378,0.013496,-0.092277,0.000000,0.035757,-0.002931,-0.000000
0.420000,-2.952758,-0.871435,-1.296133,0.224068,0.035967,-0.037304,0.929608,0.139694,-0.238579,-0.029232,0.346097,-0.611676,-11.279721,-2.423309,1.195472,0.013842,-0.092249,0.000000,0.033458,0.008467,-0.000000
0.430000,-2.950471,-0.871068,-1.296518,0.233360,0.037381,-0.039720,0.928749,0.143027,-0.244635,-0.143289,0.319730,-0.599265,-11.536977,-2.851248,1.287286,0.014164,-0.092109,0.000000,0.030840,0.019587,0.000000
0.440000,-2.948091,-0.870687,-1.296927,0.242639,0.038827,-0.042196,0.926749,0.146077,-0.250562,-0.254977,0.290025,-0.586260,-10.551518,-3.042084,1.297406,0.014458,-0.091858,0.000000,0.027899,0.030451,-0.000000
0.450000,-2.945618,-0.870292,-1.297362,0.251892,0.040302,-0.044731,0.923688,0.148822,-0.256360,-0.356373,0.258497,-0.573170,-9.973450,-3.309798,1.337490,0.014721,-0.091504,0.000000,0.024783,0.040284,0.000000
0.460000,-2.943053,-0.869881,-1.297822,0.261109,0.041802,-0.047323,0.919632,0.151237,-0.262023,-0.453941,0.224088,-0.559274,-9.387969,-3.570427,1.385549,0.014952,-0.091053,0.000000,0.021389,0.049719,-0.000000
0.470000,-2.940396,-0.869455,-1.298309,0.270281,0.043325,-0.049971,0.914641,0.153296,-0.267548,-0.542721,0.187113,-0.545967,-8.513255,-3.824527,1.331393,0.015148,-0.090512,0.000000,0.017747,0.058285,0.000000
0.480000,-2.937647,-0.869014,-1.298822,0.279399,0.044867,-0.052673,0.908790,0.154971,-0.272938,-0.627262,0.147600,-0.531479,-8.398795,-4.076978,1.568704,0.015306,-0.089889,0.000000,0.013861,0.066414,-0.000000
0.490000,-2.934808,-0.868558,-1.299362,0.288454,0.046423,-0.055429,0.902108,0.156239,-0.278173,-0.707720,0.105612,-0.515687,-7.544513,-4.318715,1.535124,0.015425,-0.089185,0.000000,0.009739,0.074123,-0.000000
0.500000,-2.931879,-0.868086,-1.299931,0.297439,0.047990,-0.058236,0.894668,0.157076,-0.283254,-0.779415,0.061245,-0.500283,-6.939741,-4.554210,1.601580,0.015500,-0.088409,0.000000,0.005386,0.080969,0.000000
0.510000,-2.928860,-0.867598,-1.300527,0.306345,0.049563,-0.061094,0.886534,0.157457,-0.288173,-0.846254,0.014731,-0.483489,-6.334256,-4.777868,1.679407,0.015532,-0.087567,0.000000,0.000828,0.087322,-0.000000
0.520000,-2.925752,-0.867095,-1.301153,0.315167,0.051138,-0.063999,0.877770,0.157360,-0.292927,-0.905238,-0.034565,-0.467398,-5.553588,-5.049805,1.616480,0.015516,-0.086665,0.000000,-0.004000,0.092908,-0.000000
0.530000,-2.922557,-0.866575,-1.301807,0.323899,0.052709,-0.066952,0.868446,0.156760,-0.297515,-0.959242,-0.085607,-0.449529,-5.250344,-5.155942,1.961013,0.015451,-0.085710,0.000000,-0.008993,0.097990,-0.000000
0.540000,-2.919274,-0.866041,-1.302492,0.332535,0.054271,-0.069949,0.858601,0.155643,-0.301910,-1.008412,-0.138251,-0.429702,-4.492252,-5.401211,1.928320,0.015336,-0.084707,0.000000,-0.014138,0.102582,0.000000
0.550000,-2.915906,-0.865490,-1.303206,0.341070,0.055820,-0.072989,0.848305,0.153987,-0.306111,-1.049876,-0.193340,-0.410279,-3.893154,-5.584340,2.034465,0.015168,-0.083661,0.000000,-0.019521,0.106423,-0.000000
0.560000,-2.912453,-0.864924,-1.303952,0.349499,0.057349,-0.076070,0.837620,0.151772,-0.310109,-1.086133,-0.249799,-0.388937,-3.299328,-5.752233,2.152574,0.014945,-0.082580,0.000000,-0.025032,0.109741,0.000000
0.570000,-2.908917,-0.864343,-1.304728,0.357821,0.058853,-0.079191,0.826607,0.148981,-0.313893,-1.115330,-0.308772,-0.367961,-2.598934,-5.994920,2.124149,0.014666,-0.081468,0.000000,-0.030790,0.112374,0.000000
0.580000,-2.905297,-0.863747,-1.305536,0.366031,0.060327,-0.082348,0.815330,0.145594,-0.317460,-1.139349,-0.368705,-0.344747,-2.207838,-5.987984,2.522344,0.014329,-0.080334,0.000000,-0.036637,0.114488,0.000000
0.590000,-2.901596,-0.863137,-1.306375,0.374127,0.061763,-0.085539,0.803836,0.141605,-0.320779,-1.158335,-0.429403,-0.319109,-1.532046,-6.195168,2.525720,0.013933,-0.079180,0.000000,-0.042555,0.116095,-0.000000
0.600000,-2.897815,-0.862512,-1.307246,0.382107,0.063157,-0.088762,0.792187,0.136998,-0.323844,-1.170512,-0.492175,-0.293521,-0.962867,-6.311313,2.673613,0.013477,-0.078014,0.000000,-0.048678,0.117043,-0.000000
0.610000,-2.893955,-0.861874,-1.308150,0.389970,0.064501,-0.092015,0.780442,0.131760,-0.326641,-1.177526,-0.555542,-0.265645,-0.402724,-6.409961,2.831411,0.012959,-0.076841,0.000000,-0.054857,0.117477,0.000000
0.620000,-2.890016,-0.861222,-1.309087,0.397716,0.065790,-0.095294,0.768658,0.125880,-0.329157,-1.178247,-0.620773,-0.237525,0.220130,-6.586320,2.862757,0.012379,-0.075666,0.000000,-0.061221,0.117300,0.000000
0.630000,-2.886001,-0.860558,-1.310056,0.405343,0.067016,-0.098597,0.756894,0.119344,-0.331383,-1.173930,-0.686220,-0.206918,0.640478,-6.499158,3.261776,0.011735,-0.074496,0.000000,-0.067606,0.116622,-0.000000
0.640000,-2.881910,-0.859882,-1.311059,0.412854,0.068174,-0.101921,0.745196,0.112156,-0.333286,-1.164723,-0.751669,-0.173668,1.236577,-6.636167,3.319419,0.011027,-0.073335,0.000000,-0.073992,0.115455,0.000000
0.650000,-2.877744,-0.859195,-1.312095,0.420248,0.069257,-0.105262,0.733620,0.104306,-0.334856,-1.149549,-0.818486,-0.139923,1.759136,-6.676763,3.500319,0.010254,-0.072189,0.000000,-0.080518,0.113710,0.000000
0.660000,-2.873505,-0.858497,-1.313164,0.427527,0.070258,-0.108617,0.722220,0.095787,-0.336076,-1.129538,-0.885182,-0.103726,2.269986,-6.700699,3.687273,0.009417,-0.071062,0.000000,-0.087037,0.111485,0.000000
0.670000,-2.869194,-0.857790,-1.314267,0.434693,0.071171,-0.111982,0.711048,0.086598,-0.336928,-1.103923,-0.952826,-0.066647,2.823231,-6.785994,3.780011,0.008513,-0.069961,0.000000,-0.093658,0.108716,-0.000000
0.680000,-2.864812,-0.857074,-1.315404,0.441749,0.071988,-0.115354,0.700157,0.076733,-0.337400,-1.073697,-1.020017,-0.027047,3.219063,-6.648332,4.141982,0.007544,-0.068889,0.000000,-0.100241,0.105489,0.000000
0.690000,-2.860359,-0.856351,-1.316574,0.448697,0.072703,-0.118729,0.689589,0.066200,-0.337460,-1.039018,-1.086546,0.015171,3.742830,-6.695041,4.250573,0.006509,-0.067852,0.000000,-0.106770,0.101818,-0.000000
0.700000,-2.855838,-0.855621,-1.317778,0.455542,0.073310,-0.122102,0.679395,0.055000,-0.337094,-0.999123,-1.153528,0.058406,4.206225,-6.658738,4.447738,0.005408,-0.066855,0.000000,-0.113357,0.097639,0.000000
0.710000,-2.851249,-0.854885,-1.319016,0.462286,0.073801,-0.125469,0.669621,0.043133,-0.336283,-0.954884,-1.219733,0.104008,4.656766,-6.606872,4.645284,0.004242,-0.065901,0.000000,-0.119882,0.093029,-0.000000
0.720000,-2.846593,-0.854145,-1.320288,0.468936,0.074170,-0.128826,0.660313,0.030605,-0.335009,-0.905874,-1.285866,0.151058,5.126349,-6.590887,4.791175,0.003010,-0.064996,0.000000,-0.126418,0.087950,0.000000
0.730000,-2.841870,-0.853402,-1.321593,0.475494,0.074411,-0.132168,0.651517,0.017419,-0.333254,-0.852752,-1.350948,0.200387,5.495185,-6.422234,5.075235,0.001714,-0.064143,0.000000,-0.132870,0.082462,0.000000
0.740000,-2.837083,-0.852657,-1.322931,0.481968,0.074517,-0.135489,0.643271,0.003590,-0.330994,-0.795677,-1.414795,0.252016,5.934482,-6.371359,5.223245,0.000353,-0.063348,0.000000,-0.139222,0.076577,-0.000000
0.750000,-2.832231,-0.851912,-1.324302,0.488362,0.074481,-0.138786,0.635618,-0.010875,-0.328210,-0.734266,-1.478103,0.305070,6.330005,-6.261143,5.413746,-0.001071,-0.062613,0.000000,-0.145546,0.070263,-0.000000
0.760000,-2.827316,-0.851168,-1.325707,0.494682,0.074297,-0.142052,0.628598,-0.025967,-0.324885,-0.669075,-1.540050,0.360140,6.712140,-6.137051,5.598568,-0.002557,-0.061944,0.000000,-0.151764,0.063568,0.000000
0.770000,-2.822338,-0.850427,-1.327143,0.500936,0.073959,-0.145282,0.622250,-0.041673,-0.321001,-0.600013,-1.600900,0.417016,7.091640,-6.019712,5.776641,-0.004106,-0.061343,0.000000,-0.157903,0.056484,0.000000
0.780000,-2.817297,-0.849689,-1.328612,0.507130,0.073461,-0.148470,0.616610,-0.057980,-0.316539,-0.527424,-1.660172,0.475671,7.423498,-5.832231,5.953390,-0.005715,-0.060815,0.000000,-0.163920,0.049040,0.000000
0.790000,-2.812195,-0.848958,-1.330113,0.513271,0.072798,-0.151610,0.611712,-0.074871,-0.311482,-0.451468,-1.717717,0.536043,7.771344,-5.685358,6.118733,-0.007384,-0.060364,0.000000,-0.169801,0.041252,-0.000000
0.800000,-2.807032,-0.848234,-1.331644,0.519366,0.071962,-0.154697,0.607592,-0.092329,-0.305813,-0.372094,-1.773741,0.598029,8.093652,-5.506591,6.277833,-0.009111,-0.059991,0.000000,-0.175570,0.033112,0.000000
0.810000,-2.801808,-0.847519,-1.333206,0.525425,0.070949,-0.157725,0.604281,-0.110339,-0.299517,-0.289585,-1.827870,0.661447,8.400793,-5.315624,6.425656,-0.010894,-0.059702,0.000000,-0.181192,0.024644,0.000000
0.820000,-2.796524,-0.846816,-1.334798,0.531455,0.069754,-0.160686,0.601810,-0.128880,-0.292577,-0.204175,-1.879998,0.726707,8.683211,-5.109203,6.603903,-0.012734,-0.059500,0.000000,-0.186659,0.015868,-0.000000
0.830000,-2.791179,-0.846125,-1.336420,0.537464,0.068370,-0.163574,0.600207,-0.147932,-0.284979,-0.115880,-1.930040,0.793054,8.973056,-4.897128,6.662930,-0.014627,-0.059386,0.000000,-0.191965,0.006783,0.000000
0.840000,-2.785775,-0.845449,-1.338070,0.543462,0.066793,-0.166383,0.599501,-0.167474,-0.276713,-0.024860,-1.977872,0.860349,9.223698,-4.665934,6.815179,-0.016573,-0.059365,0.000000,-0.197098,-0.002595,-0.000000
0.850000,-2.780310,-0.844790,-1.339747,0.549457,0.065019,-0.169106,0.599718,-0.187482,-0.267767,0.068577,-2.023330,0.929139,9.465434,-4.424895,6.919849,-0.018568,-0.059439,0.000000,-0.202046,-0.012246,0.000000
0.860000,-2.774785,-0.844149,-1.341451,0.555459,0.063042,-0.171736,0.600881,-0.207932,-0.258129,0.164436,-2.066334,0.998602,9.690127,-4.171677,7.008121,-0.020613,-0.059611,0.000000,-0.206800,-0.022168,-0.000000
0.870000,-2.769201,-0.843529,-1.343182,0.561478,0.060859,-0.174266,0.603012,-0.228799,-0.247789,0.262169,-2.106695,1.069582,9.868729,-3.901409,7.150526,-0.022704,-0.059883,0.000000,-0.211345,-0.032318,-0.000000
0.880000,-2.763556,-0.842933,-1.344936,0.567523,0.058465,-0.176689,0.606131,-0.250057,-0.236736,0.362070,-2.144383,1.140833,10.109069,-3.634430,7.096095,-0.024839,-0.060258,0.000000,-0.215677,-0.042721,0.000000
0.890000,-2.757850,-0.842361,-1.346715,0.573604,0.055857,-0.178999,0.610261,-0.271678,-0.224972,0.463982,-2.179288,1.212160,10.254792,-3.341736,7.202155,-0.027017,-0.060739,0.000000,-0.219785,-0.053365,0.000000
0.900000,-2.752083,-0.841816,-1.348516,0.579732,0.053030,-0.181186,0.615415,-0.293633,-0.212489,0.567228,-2.211206,1.284522,10.407324,-3.042766,7.232671,-0.029234,-0.061326,0.000000,-0.223651,-0.064196,0.000000
0.910000,-2.746255,-0.841301,-1.350338,0.585916,0.049983,-0.183246,0.621611,-0.315892,-0.199283,0.672120,-2.240137,1.356651,10.542861,-2.733482,7.243549,-0.031489,-0.062024,0.000000,-0.227272,-0.075240,0.000000
0.920000,-2.740365,-0.840817,-1.352180,0.592167,0.046711,-0.185170,0.628860,-0.338424,-0.185352,0.777788,-2.265764,1.429826,10.611816,-2.398116,7.337113,-0.033779,-0.062832,0.000000,-0.230621,-0.086423,-0.000000
0.930000,-2.734412,-0.840368,-1.354041,0.598497,0.043214,-0.186951,0.637171,-0.361197,-0.170690,0.884802,-2.288230,1.502255,10.788214,-2.093448,7.144263,-0.036100,-0.063754,0.000000,-0.233705,-0.097798,-0.000000
0.940000,-2.728395,-0.839954,-1.355919,0.604914,0.039487,-0.188581,0.646560,-0.384178,-0.155310,0.992990,-2.307438,1.573695,10.821379,-1.738452,7.192816,-0.038452,-0.064790,0.000000,-0.236513,-0.109349,0.000000
0.950000,-2.722313,-0.839579,-1.357812,0.611431,0.035529,-0.190054,0.657031,-0.407333,-0.139213,1.101372,-2.323034,1.645613,10.875537,-1.386855,7.135736,-0.040830,-0.065943,0.000000,-0.239013,-0.120993,-0.000000
0.960000,-2.716166,-0.839244,-1.359720,0.618059,0.031340,-0.191363,0.668590,-0.430627,-0.122403,1.210384,-2.335127,1.716307,10.907944,-1.024990,7.057545,-0.043231,-0.067213,0.000000,-0.241208,-0.132768,0.000000
0.970000,-2.709951,-0.838953,-1.361639,0.624807,0.026917,-0.192500,0.681238,-0.454023,-0.104885,1.319318,-2.343454,1.787233,10.889912,-0.643619,7.068810,-0.045653,-0.068601,0.000000,-0.243074,-0.144615,0.000000
0.980000,-2.703669,-0.838706,-1.363569,0.631687,0.022259,-0.193458,0.694977,-0.477484,-0.086664,1.428413,-2.348069,1.856451,10.925632,-0.277932,6.770002,-0.048091,-0.070108,0.000000,-0.244608,-0.156551,-0.000000
0.990000,-2.697317,-0.838508,-1.365508,0.638710,0.017367,-0.194231,0.709807,-0.500972,-0.067763,1.537457,-2.348881,1.923701,10.864366,0.122229,6.733288,-0.050544,-0.071736,0.000000,-0.245793,-0.168556,0.000000
1.000000,-2.690894,-0.838360,-1.367453,0.645887,0.012240,-0.194811,0.725723,-0.524448,-0.048190,1.645748,-2.345637,1.990580,10.804300,0.523491,6.583002,-0.053006,-0.073484,0.000000,-0.246608,-0.180573,0.000000
1.010000,-2.684399,-0.838264,-1.369403,0.653228,0.006878,-0.195193,0.742719,-0.547871,-0.027960,1.753372,-2.338247,2.055298,10.718395,0.936813,6.411948,-0.055474,-0.075352,0.000000,-0.247032,-0.192601,0.000000
1.020000,-2.677829,-0.838223,-1.371356,0.660745,0.001283,-0.195368,0.760787,-0.571201,-0.007086,1.860051,-2.327047,2.119258,10.611152,1.323409,6.324376,-0.057945,-0.077342,0.000000,-0.247102,-0.204625,0.000000
1.030000,-2.671183,-0.838239,-1.373310,0.668447,-0.004546,-0.195332,0.779916,-0.594397,0.014417,1.965467,-2.311356,2.180620,10.467829,1.816903,5.943288,-0.060415,-0.079452,0.000000,-0.246732,-0.216601,-0.000000
1.040000,-2.664460,-0.838315,-1.375262,0.676347,-0.010605,-0.195078,0.800092,-0.617412,0.036516,2.069360,-2.291058,2.239131,10.308356,2.225224,5.809253,-0.062879,-0.081681,0.000000,-0.245904,-0.228500,-0.000000
1.050000,-2.657656,-0.838452,-1.377211,0.684453,-0.016893,-0.194600,0.821298,-0.640205,0.059196,2.171519,-2.266660,2.296297,10.117869,2.674360,5.567845,-0.065332,-0.084030,0.000000,-0.244672,-0.240315,0.000000
1.060000,-2.650770,-0.838653,-1.379153,0.692776,-0.023408,-0.193892,0.843516,-0.662729,0.082431,2.271692,-2.237394,2.350357,9.901560,3.135471,5.305548,-0.067770,-0.086498,0.000000,-0.242939,-0.252004,-0.000000
1.070000,-2.643800,-0.838921,-1.381088,0.701326,-0.030147,-0.192950,0.866723,-0.684941,0.106199,2.369360,-2.204336,2.402944,9.637518,3.520810,5.146710,-0.070189,-0.089082,0.000000,-0.240822,-0.263528,-0.000000
1.080000,-2.636743,-0.839257,-1.383011,0.710114,-0.037106,-0.191767,0.890895,-0.706798,0.130478,2.464561,-2.166040,2.451930,9.398029,4.140836,4.646028,-0.072585,-0.091781,0.000000,-0.238149,-0.274870,-0.000000
1.090000,-2.629596,-0.839664,-1.384922,0.719147,-0.044281,-0.190339,0.916005,-0.728243,0.155224,2.557017,-2.122374,2.497073,9.078036,4.549741,4.442841,-0.074950,-0.094593,0.000000,-0.234897,-0.285996,-0.000000
1.100000,-2.622359,-0.840143,-1.386817,0.728437,-0.051669,-0.188661,0.942023,-0.749232,0.180414,2.646104,-2.074655,2.540203,8.745130,5.039212,4.118149,-0.077281,-0.097516,0.000000,-0.231207,-0.296857,0.000000
1.110000,-2.615027,-0.840698,-1.388694,0.737991,-0.059264,-0.186729,0.968907,-0.769720,0.206017,2.729810,-2.022061,2.579979,8.342535,5.526983,3.788284,-0.079573,-0.100546,0.000000,-0.226979,-0.307227,-0.000000
1.120000,-2.607598,-0.841329,-1.390551,0.747818,-0.067062,-0.184539,0.996634,-0.789654,0.231998,2.816089,-1.963669,2.615497,8.567333,6.107309,3.357974,-0.081819,-0.103681,0.000000,-0.222095,-0.317910,-0.000000
1.130000,-2.600070,-0.842040,-1.392384,0.757926,-0.075055,-0.182088,1.025198,-0.808979,0.258317,2.893902,-1.900843,2.648036,6.979897,6.457491,3.149074,-0.084013,-0.106922,0.000000,-0.216706,-0.327779,-0.000000
1.140000,-2.592439,-0.842831,-1.394192,0.768324,-0.083239,-0.179372,1.054479,-0.827656,0.284949,2.962493,-1.833590,2.677525,7.078217,7.039276,2.701214,-0.086151,-0.110257,0.000000,-0.210806,-0.336745,-0.000000
1.150000,-2.584702,-0.843705,-1.395971,0.779018,-0.091606,-0.176388,1.084459,-0.845630,0.311852,3.032455,-1.760427,2.702405,6.566709,7.548998,2.317575,-0.088227,-0.113684,0.000000,-0.204211,-0.345876,0.000000
1.160000,-2.576857,-0.844664,-1.397719,0.790015,-0.100149,-0.173134,1.115107,-0.862838,0.338983,3.096422,-1.679869,2.723098,6.069307,8.115586,1.908503,-0.090232,-0.117199,0.000000,-0.196765,-0.354408,0.000000
1.170000,-2.568901,-0.845709,-1.399433,0.801322,-0.108860,-0.169608,1.146358,-0.879245,0.366307,3.152350,-1.602224,2.741360,5.261060,7.847912,1.655123,-0.092164,-0.120798,0.000000,-0.189555,-0.362140,-0.000000
1.180000,-2.560830,-0.846842,-1.401110,0.812944,-0.117731,-0.165807,1.178143,-0.894843,0.393792,3.204690,-1.513791,2.754338,5.207803,9.851987,0.935840,-0.094019,-0.124472,0.000000,-0.181114,-0.369487,0.000000
1.190000,-2.552641,-0.848064,-1.402748,0.824887,-0.126754,-0.161731,1.210441,-0.909479,0.421375,3.253418,-1.413977,2.761802,4.383619,9.671846,0.643129,-0.095781,-0.128219,0.000000,-0.171365,-0.376434,0.000000
1.200000,-2.544331,-0.849377,-1.404344,0.837155,-0.135918,-0.157379,1.243180,-0.923138,0.449020,3.293563,-1.316648,2.766423,3.791441,10.229950,0.192171,-0.097448,-0.132032,0.000000,-0.161783,-0.382486,-0.000000
1.210000,-2.535897,-0.850783,-1.405895,0.849752,-0.145213,-0.152751,1.276288,-0.935788,0.476686,3.326798,-1.212463,2.766128,3.136152,10.737713,-0.261157,-0.099014,-0.135903,0.000000,-0.151363,-0.387775,0.000000
1.220000,-2.527335,-0.852282,-1.407398,0.862681,-0.154630,-0.147846,1.309717,-0.947360,0.504327,3.358833,-1.100711,2.761086,2.991640,11.482596,-0.739493,-0.100472,-0.139825,0.000000,-0.140015,-0.392891,-0.000000
1.230000,-2.518642,-0.853876,-1.408851,0.875947,-0.164156,-0.142665,1.343429,-0.957792,0.531893,3.380775,-0.985545,2.751504,1.385217,11.544300,-1.177730,-0.101813,-0.143796,0.000000,-0.128185,-0.396892,-0.000000
1.240000,-2.509815,-0.855565,-1.410250,0.889550,-0.173782,-0.137208,1.377295,-0.967062,0.559341,3.392061,-0.867276,2.737328,1.147705,12.236631,-1.667647,-0.103034,-0.147800,0.000000,-0.115902,-0.399701,0.000000
1.250000,-2.500850,-0.857352,-1.411594,0.903493,-0.183494,-0.131478,1.411268,-0.975111,0.586623,3.401313,-0.741964,2.718211,0.422835,12.693628,-2.147657,-0.104127,-0.151832,0.000000,-0.102729,-0.402206,0.000000
1.260000,-2.491744,-0.859235,-1.412879,0.917776,-0.193280,-0.125477,1.445283,-0.981889,0.613690,3.400172,-0.612853,2.694397,-0.332395,13.139631,-2.631411,-0.105087,-0.155884,0.000000,-0.089020,-0.403518,0.000000
1.270000,-2.482493,-0.861217,-1.414102,0.932399,-0.203127,-0.119205,1.479273,-0.987353,0.640494,3.397581,-0.479107,2.665426,-0.498070,13.592576,-3.148276,-0.105906,-0.159947,0.000000,-0.074663,-0.404557,-0.000000
1.280000,-2.473095,-0.863298,-1.415262,0.947361,-0.213022,-0.112668,1.513195,-0.991458,0.666983,3.383663,-0.341360,2.631735,-2.295916,13.952721,-3.590012,-0.106578,-0.164016,0.000000,-0.059746,-0.404276,0.000000
1.290000,-2.463545,-0.865478,-1.416355,0.962662,-0.222952,-0.105867,1.546904,-0.994167,0.693113,3.357943,-0.199852,2.593313,-2.534400,14.358529,-4.109995,-0.107099,-0.168074,0.000000,-0.044295,-0.402608,0.000000
1.300000,-2.453840,-0.867757,-1.417379,0.978298,-0.232901,-0.098807,1.580353,-0.995442,0.718832,3.330318,-0.054390,2.549655,-3.303394,14.716009,-4.606584,-0.107462,-0.172114,0.000000,-0.028265,-0.400578,-0.000000
1.310000,-2.443978,-0.870136,-1.418330,0.994268,-0.242855,-0.091492,1.613480,-0.995238,0.744086,3.293945,0.095950,2.500310,-4.039892,15.077295,-5.121047,-0.107662,-0.176128,0.000000,-0.011563,-0.397440,-0.000000
1.320000,-2.433954,-0.872614,-1.419208,1.010567,-0.252801,-0.083927,1.646201,-0.993533,0.768832,3.248908,0.244574,2.448535,-4.898206,14.904248,-5.371157,-0.107694,-0.180105,0.000000,0.005062,-0.393252,0.000000
1.330000,-2.423765,-0.875192,-1.420008,1.027190,-0.262721,-0.076117,1.678437,-0.990323,0.793033,3.197439,0.399423,2.390008,-5.391081,16.067946,-6.338121,-0.107558,-0.184036,0.000000,0.022514,-0.388157,-0.000000
1.340000,-2.413409,-0.877869,-1.420729,1.044134,-0.272602,-0.068068,1.710130,-0.985522,0.816608,3.139768,0.560516,2.324558,-6.208641,15.879969,-6.612825,-0.107241,-0.187911,0.000000,0.040798,-0.382163,-0.000000
1.350000,-2.402882,-0.880644,-1.421369,1.061391,-0.282426,-0.059787,1.741204,-0.979126,0.839518,3.073908,0.719136,2.256589,-6.892217,16.100778,-7.118405,-0.106743,-0.191720,0.000000,0.058914,-0.375135,0.000000
1.360000,-2.392180,-0.883517,-1.421924,1.078955,-0.292179,-0.051280,1.771595,-0.971132,0.861717,3.003331,0.879643,2.182132,-7.525160,16.235336,-7.625671,-0.106061,-0.195454,0.000000,0.077379,-0.367355,0.000000
1.370000,-2.381301,-0.886487,-1.422393,1.096820,-0.301843,-0.042555,1.801225,-0.961510,0.883156,2.920669,1.045919,2.105446,-8.706465,16.777341,-7.851917,-0.105192,-0.199103,0.000000,0.096544,-0.358117,0.000000
1.380000,-2.370243,-0.889553,-1.422775,1.114977,-0.311403,-0.033620,1.830002,-0.950223,0.903802,2.835513,1.210102,2.022148,-8.311142,16.043849,-8.810186,-0.104131,-0.202654,0.000000,0.115621,-0.348344,-0.000000
1.390000,-2.359001,-0.892715,-1.423065,1.133417,-0.320843,-0.024482,1.857931,-0.937319,0.923576,2.748534,1.371383,1.932152,-9.379516,16.441093,-9.043770,-0.102881,-0.206106,0.000000,0.134512,-0.338100,0.000000
1.400000,-2.347573,-0.895970,-1.423264,1.152133,-0.330144,-0.015151,1.884931,-0.922777,0.942441,2.650562,1.536738,1.840100,-9.911779,16.385155,-9.506245,-0.101439,-0.209447,0.000000,0.153896,-0.326499,-0.000000
1.410000,-2.335957,-0.899317,-1.423368,1.171113,-0.339293,-0.005637,1.910937,-0.906601,0.960369,2.550071,1.698208,1.744962,-10.408603,16.252813,-9.900919,-0.099804,-0.212669,0.000000,0.172927,-0.314427,0.000000
1.420000,-2.324150,-0.902755,-1.423376,1.190348,-0.348271,0.004053,1.935898,-0.888790,0.977296,2.440401,1.864864,1.638620,-11.300006,16.727126,-10.993533,-0.097977,-0.215762,0.000000,0.192655,-0.300974,0.000000
1.430000,-2.312150,-0.906282,-1.423286,1.209827,-0.357063,0.013906,1.959741,-0.869326,0.993146,2.328801,2.025383,1.532939,-11.007934,15.357093,-10.128132,-0.095954,-0.218716,0.000000,0.211721,-0.287194,-0.000000
1.440000,-2.299953,-0.909896,-1.423097,1.229539,-0.365652,0.023912,1.982471,-0.848309,1.007963,2.215887,2.178754,1.428611,-11.792158,15.653773,-11.109197,-0.093746,-0.221532,0.000000,0.229996,-0.273179,-0.000000
1.450000,-2.287558,-0.913594,-1.422807,1.249472,-0.374024,0.034061,2.004028,-0.825735,1.021677,2.094952,2.335345,1.313995,-12.167869,15.310920,-11.437596,-0.091352,-0.224199,0.000000,0.248709,-0.257926,-0.000000
1.460000,-2.274963,-0.917375,-1.422415,1.269615,-0.382162,0.044342,2.024359,-0.801633,1.034245,1.970591,2.483975,1.199039,-12.542422,14.884092,-11.750421,-0.088775,-0.226711,0.000000,0.266526,-0.242172,0.000000
1.470000,-2.262165,-0.921237,-1.421920,1.289955,-0.390052,0.054742,2.043440,-0.776031,1.045632,1.845672,2.637248,1.077203,-12.589083,15.298846,-12.420240,-0.086018,-0.229061,0.000000,0.284891,-0.226071,0.000000
1.480000,-2.249163,-0.925175,-1.421320,1.310480,-0.397678,0.065250,2.061254,-0.748927,1.055788,1.715701,2.780062,0.954759,-13.404114,13.241548,-12.059818,-0.083082,-0.231247,0.000000,0.302057,-0.209297,-0.000000
1.490000,-2.235955,-0.929189,-1.420615,1.331176,-0.405026,0.075854,2.077737,-0.720472,1.064728,1.580811,2.911294,0.832134,-13.413051,13.465028,-12.658704,-0.079982,-0.233259,0.000000,0.317881,-0.191887,0.000000
1.500000,-2.222539,-0.933275,-1.419803,1.352030,-0.412083,0.086541,2.092874,-0.690683,1.072407,1.446244,3.045243,0.703294,-13.648251,12.851528,-12.911675,-0.076722,-0.235096,0.000000,0.333992,-0.174258,0.000000
1.510000,-2.208914,-0.937430,-1.418884,1.373029,-0.418835,0.097298,2.106658,-0.659598,1.078778,1.310365,3.170750,0.570105,-13.804441,12.228159,-13.219393,-0.073306,-0.236754,0.000000,0.349119,-0.156289,0.000000
1.520000,-2.195078,-0.941651,-1.417857,1.394159,-0.425270,0.108112,2.119054,-0.627291,1.083840,1.167676,3.289539,0.443596,-14.452186,11.537868,-12.569419,-0.069743,-0.238228,0.000000,0.363345,-0.137683,-0.000000
1.530000,-2.181030,-0.945934,-1.416721,1.415405,-0.431377,0.118970,2.130021,-0.593830,1.087617,1.027217,3.401693,0.308491,-13.624787,10.887498,-14.463953,-0.066041,-0.239514,0.000000,0.376802,-0.119031,0.000000
1.540000,-2.166770,-0.950277,-1.415477,1.436755,-0.437143,0.129860,2.139611,-0.559280,1.089975,0.889747,3.506880,0.164278,-14.140328,10.129686,-13.881333,-0.062209,-0.240614,0.000000,0.389431,-0.100406,-0.000000
1.550000,-2.152295,-0.954676,-1.414124,1.458193,-0.442559,0.140765,2.147793,-0.523718,1.090934,0.746891,3.604306,0.026729,-14.148176,9.365162,-14.117343,-0.058256,-0.241524,0.000000,0.401011,-0.081335,-0.000000
1.560000,-2.137605,-0.959127,-1.412662,1.479706,-0.447615,0.151674,2.154561,-0.487222,1.090492,0.606922,3.693502,-0.115329,-14.107434,8.560290,-14.299049,-0.054193,-0.242244,0.000000,0.411567,-0.062428,-0.000000
1.570000,-2.122701,-0.963627,-1.411091,1.501279,-0.452301,0.162570,2.159912,-0.449868,1.088621,0.462397,3.776261,-0.259253,-14.531912,7.898960,-14.473284,-0.050028,-0.242772,0.000000,0.421257,-0.042965,0.000000
1.580000,-2.107580,-0.968172,-1.409411,1.522899,-0.456609,0.173441,2.163824,-0.411729,1.085303,0.321850,3.849547,-0.404535,-13.563927,6.751826,-14.578390,-0.045772,-0.243106,0.000000,0.429744,-0.023894,-0.000000
1.590000,-2.092243,-0.972758,-1.407622,1.544551,-0.460533,0.184271,2.166366,-0.372910,1.080526,0.185971,3.913013,-0.550900,-13.868823,6.027336,-14.698507,-0.041437,-0.243253,0.000000,0.436976,-0.005311,-0.000000
1.600000,-2.076689,-0.977381,-1.405725,1.566222,-0.464066,0.195047,2.167528,-0.333491,1.074281,0.046804,3.969277,-0.698335,-13.698532,5.133604,-14.775331,-0.037035,-0.243211,0.000000,0.443229,0.013628,0.000000
1.610000,-2.060918,-0.982038,-1.403721,1.587897,-0.467201,0.205752,2.167316,-0.293556,1.066562,-0.088946,4.016240,-0.845361,-13.509554,4.232818,-14.802698,-0.032577,-0.242982,0.000000,0.448265,0.032146,0.000000
1.620000,-2.044931,-0.986724,-1.401611,1.609564,-0.469935,0.216373,2.165751,-0.253199,1.057359,-0.223873,4.053673,-0.995922,-13.410875,3.275105,-15.131395,-0.028074,-0.242568,0.000000,0.452065,0.050613,0.000000
1.630000,-2.028727,-0.991435,-1.399394,1.631208,-0.472264,0.226894,2.162849,-0.212512,1.046652,-0.355808,4.082193,-1.144255,-12.970306,2.428114,-14.524459,-0.023539,-0.241971,0.000000,0.454678,0.068628,-0.000000
1.640000,-2.012307,-0.996168,-1.397073,1.652816,-0.474185,0.237301,2.158646,-0.171585,1.034484,-0.484431,4.101746,-1.289794,-12.811806,1.458279,-14.752081,-0.018984,-0.241196,0.000000,0.456102,0.086129,-0.000000
1.650000,-1.995671,-1.000917,-1.394648,1.674377,-0.475695,0.247579,2.153164,-0.130510,1.020846,-0.611456,4.111540,-1.437700,-12.528909,0.523350,-14.649970,-0.014422,-0.240248,0.000000,0.456260,0.103424,-0.000000
1.660000,-1.978819,-1.005680,-1.392122,1.695876,-0.476795,0.257713,2.146425,-0.089392,1.005745,-0.736026,4.110342,-1.581889,-12.246185,-0.449129,-14.490680,-0.009864,-0.239129,0.000000,0.455013,0.120249,-0.000000
1.670000,-1.961753,-1.010452,-1.389495,1.717301,-0.477483,0.267689,2.138465,-0.048310,0.989189,-0.855072,4.105451,-1.730238,-11.692040,-0.832575,-14.874249,-0.005323,-0.237845,0.000000,0.453180,0.136469,0.000000
1.680000,-1.944474,-1.015229,-1.386769,1.738641,-0.477761,0.277492,2.129328,-0.007329,0.971162,-0.972584,4.087320,-1.872979,-11.811967,-2.801703,-13.659081,-0.000806,-0.236401,0.000000,0.449707,0.152248,0.000000
1.690000,-1.926981,-1.020006,-1.383946,1.759884,-0.477631,0.287108,2.119017,0.033388,0.951753,-1.088594,4.055612,-2.009367,-11.254522,-3.230469,-13.915239,0.003666,-0.234802,0.000000,0.444581,0.167563,0.000000
1.700000,-1.909276,-1.024780,-1.381027,1.781018,-0.477095,0.296523,2.107578,0.073776,0.930960,-1.198760,4.020152,-2.148613,-10.909420,-4.164995,-13.627637,0.008084,-0.233052,0.000000,0.438893,0.182179,0.000000
1.710000,-1.891361,-1.029546,-1.378016,1.802032,-0.476157,0.305722,2.095053,0.113758,0.908799,-1.305524,3.974928,-2.282915,-10.533662,-5.041419,-13.318928,0.012439,-0.231160,0.000000,0.432000,0.196151,0.000000
1.720000,-1.873236,-1.034302,-1.374914,1.822915,-0.474821,0.314694,2.081472,0.153232,0.885305,-1.410251,3.917890,-2.415735,-10.320323,-6.202239,-13.151777,0.016719,-0.229130,0.000000,0.423694,0.209708,-0.000000
1.730000,-1.854903,-1.039042,-1.371723,1.843658,-0.473094,0.323424,2.066865,0.192095,0.860500,-1.510015,3.854329,-2.543998,-9.628232,-6.500150,-12.493552,0.020911,-0.226968,0.000000,0.414578,0.222459,0.000000
1.740000,-1.836363,-1.043762,-1.368446,1.864249,-0.470981,0.331900,2.051290,0.230300,0.834442,-1.604609,3.784758,-2.667310,-9.380330,-7.569861,-12.253820,0.025008,-0.224683,0.000000,0.404729,0.234373,-0.000000
1.750000,-1.817619,-1.048460,-1.365086,1.884680,-0.468490,0.340109,2.034779,0.267752,0.807160,-1.696836,3.704413,-2.788233,-8.973522,-8.332020,-11.837512,0.029001,-0.222281,0.000000,0.393645,0.245811,0.000000
1.760000,-1.798670,-1.053131,-1.361645,1.904942,-0.465629,0.348039,2.017367,0.304378,0.778693,-1.784893,3.620050,-2.904556,-8.575657,-9.014081,-11.405074,0.032880,-0.219767,0.000000,0.382087,0.256528,-0.000000
1.770000,-1.779520,-1.057771,-1.358126,1.925025,-0.462406,0.355679,1.999100,0.340092,0.749086,-1.867774,3.519847,-3.016094,-8.060300,-10.554417,-10.916423,0.036636,-0.217150,0.000000,0.368802,0.266420,-0.000000
1.780000,-1.760171,-1.062378,-1.354532,1.944921,-0.458831,0.363017,1.980022,0.374776,0.718386,-1.947356,3.418871,-3.123181,-7.857973,-9.619481,-10.498190,0.040256,-0.214437,0.000000,0.355441,0.275696,0.000000
1.790000,-1.740623,-1.066947,-1.350866,1.964623,-0.454914,0.370043,1.960163,0.408474,0.686637,-2.023724,3.318176,-3.225637,-7.355543,-10.982540,-9.971961,0.043745,-0.211634,0.000000,0.342131,0.284368,-0.000000
1.800000,-1.720879,-1.071475,-1.347132,1.984122,-0.450665,0.376747,1.939566,0.441084,0.653891,-2.094982,3.203350,-3.322708,-6.957533,-11.506971,-9.456922,0.047093,-0.208747,0.000000,0.327355,0.292228,0.000000
1.810000,-1.700941,-1.075959,-1.343333,2.003412,-0.446096,0.383118,1.918273,0.472534,0.620204,-2.162960,3.085779,-3.413755,-6.567470,-12.016902,-8.906083,0.050292,-0.205785,0.000000,0.312360,0.299462,-0.000000
1.820000,-1.680811,-1.080396,-1.339471,2.022485,-0.441218,0.389148,1.896326,0.502782,0.585622,-2.225692,2.963001,-3.502215,-6.048910,-12.514977,-8.631764,0.053339,-0.202753,0.000000,0.296881,0.305951,-0.000000
1.830000,-1.660492,-1.084782,-1.335551,2.041336,-0.436044,0.394827,1.873769,0.531780,0.550186,-2.285410,2.835968,-3.583162,-5.897946,-12.883843,-7.550861,0.056229,-0.199659,0.000000,0.281068,0.311830,0.000000
1.840000,-1.639985,-1.089116,-1.331576,2.059959,-0.430587,0.400149,1.850626,0.559489,0.513986,-2.342274,2.705145,-3.656260,-5.406336,-13.289537,-7.220030,0.058959,-0.196508,0.000000,0.264993,0.317123,-0.000000
1.850000,-1.619294,-1.093393,-1.327549,2.078347,-0.424859,0.405105,1.826941,0.585870,0.477068,-2.394159,2.570470,-3.726231,-5.041340,-13.621470,-6.620205,0.061528,-0.193308,0.000000,0.248637,0.321722,-0.000000
1.860000,-1.598419,-1.097612,-1.323475,2.096496,-0.418874,0.409688,1.802753,0.610895,0.439482,-2.442989,2.434153,-3.790041,-4.685213,-13.880774,-6.034452,0.063932,-0.190063,0.000000,0.232265,0.325774,0.000000
1.870000,-1.577364,-1.101770,-1.319357,2.114400,-0.412646,0.413892,1.778097,0.634525,0.401296,-2.487519,2.290741,-3.845925,-4.262169,-14.554674,-5.244528,0.066170,-0.186781,0.000000,0.215333,0.329132,0.000000
1.880000,-1.556132,-1.105864,-1.315198,2.132056,-0.406188,0.417712,1.753012,0.656714,0.362579,-2.529104,2.148236,-3.897080,-4.057993,-13.931196,-4.989135,0.068240,-0.183468,0.000000,0.198672,0.332012,-0.000000
1.890000,-1.534724,-1.109893,-1.311004,2.149459,-0.399516,0.421142,1.727523,0.677497,0.323369,-2.567911,2.007430,-3.943615,-3.665206,-14.464021,-4.213631,0.070145,-0.180127,0.000000,0.182364,0.334445,0.000000
1.900000,-1.513144,-1.113854,-1.306777,2.166605,-0.392643,0.424178,1.701667,0.696840,0.283735,-2.602794,1.861159,-3.982232,-3.353152,-14.542083,-3.613239,0.071885,-0.176765,0.000000,0.165702,0.336266,0.000000
1.910000,-1.491393,-1.117745,-1.302521,2.183491,-0.385584,0.426816,1.675475,0.714726,0.243742,-2.635330,1.716037,-4.015332,-3.061889,-14.579583,-3.006492,0.073461,-0.173386,0.000000,0.149360,0.337696,-0.000000
1.920000,-1.469475,-1.121565,-1.298242,2.200114,-0.378354,0.429052,1.648978,0.731152,0.203448,-2.663207,1.568751,-4.042362,-2.607431,-14.769008,-2.400485,0.074872,-0.169995,0.000000,0.133004,0.338505,-0.000000
1.930000,-1.447392,-1.125312,-1.293942,2.216470,-0.370966,0.430884,1.622215,0.746107,0.162915,-2.689451,1.422928,-4.063362,-2.646512,-14.385258,-1.800211,0.076122,-0.166597,0.000000,0.117011,0.339013,0.000000
1.940000,-1.425146,-1.128984,-1.289625,2.232557,-0.363436,0.432310,1.595193,0.759618,0.122201,-2.714329,1.279132,-4.078372,-2.239022,-14.469545,-1.202178,0.077214,-0.163196,0.000000,0.101438,0.339259,0.000000
1.950000,-1.402741,-1.132580,-1.285297,2.248373,-0.355779,0.433328,1.567944,0.771685,0.081367,-2.735065,1.134542,-4.087431,-2.002820,-14.339686,-0.611251,0.078151,-0.159794,0.000000,0.085995,0.338980,0.000000
1.960000,-1.380180,-1.136099,-1.280960,2.263916,-0.348007,0.433937,1.540495,0.782318,0.040472,-2.754525,0.992380,-4.090723,-1.787589,-14.167740,-0.029682,0.078936,-0.156396,0.000000,0.071009,0.338477,0.000000
1.970000,-1.357464,-1.139540,-1.276620,2.279182,-0.340137,0.434137,1.512869,0.791533,-0.000426,-2.769922,0.850567,-4.087875,-1.394152,-14.109790,0.578888,0.079572,-0.153005,0.000000,0.056266,0.337480,-0.000000
1.980000,-1.334597,-1.142901,-1.272279,2.294172,-0.332181,0.433929,1.485098,0.799341,-0.041268,-2.784552,0.711963,-4.079575,-1.537475,-13.602427,1.078622,0.080063,-0.149625,0.000000,0.042048,0.336339,-0.000000
1.990000,-1.311581,-1.146183,-1.267942,2.308884,-0.324155,0.433312,1.457179,0.805785,-0.082000,-2.798699,0.577040,-4.065961,-1.193311,-13.456144,1.661133,0.080415,-0.146257,0.000000,0.028393,0.335093,-0.000000
2.000000,-1.288420,-1.149384,-1.263614,2.323316,-0.316070,0.432289,1.429137,0.810885,-0.122567,-2.809325,0.443630,-4.046561,-1.034387,-13.140925,2.197996,0.080632,-0.142903,0.000000,0.015079,0.333446,0.000000
2.010000,-1.265116,-1.152504,-1.259298,2.337466,-0.307941,0.430861,1.400994,0.814673,-0.162917,-2.819152,0.314441,-4.022637,-0.887670,-12.787844,2.708026,0.080718,-0.139567,0.000000,0.002360,0.331693,-0.000000
2.020000,-1.241672,-1.155543,-1.254998,2.351335,-0.299781,0.429032,1.372763,0.817179,-0.202993,-2.826703,0.187090,-3.991313,-0.668954,-12.584136,3.434103,0.080680,-0.136249,0.000000,-0.009987,0.329660,-0.000000
2.030000,-1.218090,-1.158500,-1.250719,2.364921,-0.291602,0.426803,1.344462,0.818432,-0.242733,-2.833504,0.064814,-3.956531,-0.694733,-11.863593,3.515697,0.080521,-0.132952,0.000000,-0.021682,0.327559,0.000000
2.040000,-1.194374,-1.161375,-1.246463,2.378224,-0.283416,0.424178,1.316094,0.818494,-0.282115,-2.839743,-0.051981,-3.918626,-0.510538,-11.585323,4.183734,0.080249,-0.129676,0.000000,-0.032699,0.325415,-0.000000
2.050000,-1.170527,-1.164168,-1.242236,2.391243,-0.275236,0.421162,1.287674,0.817400,-0.321081,-2.844134,-0.166010,-3.873945,-0.414154,-11.122542,4.628378,0.079868,-0.126423,0.000000,-0.043286,0.323066,0.000000
2.060000,-1.146550,-1.166880,-1.238041,2.403978,-0.267072,0.417758,1.259213,0.815192,-0.359583,-2.848027,-0.274783,-3.825758,-0.330124,-10.641620,5.057415,0.079385,-0.123194,0.000000,-0.053237,0.320689,0.000000
2.070000,-1.122448,-1.169510,-1.233882,2.416427,-0.258936,0.413972,1.230719,0.811920,-0.397578,-2.850431,-0.378896,-3.772370,-0.188222,-10.164834,5.565844,0.078805,-0.119990,0.000000,-0.062607,0.318175,-0.000000
2.080000,-1.098223,-1.172059,-1.229763,2.428592,-0.250837,0.409808,1.202205,0.807632,-0.435019,-2.852577,-0.477746,-3.715579,-0.243643,-9.601872,5.787508,0.078135,-0.116811,0.000000,-0.071363,0.315667,0.000000
2.090000,-1.073877,-1.174527,-1.225688,2.440471,-0.242786,0.405273,1.173668,0.802383,-0.471879,-2.854612,-0.571138,-3.655651,-0.128828,-9.086976,6.246549,0.077380,-0.113657,0.000000,-0.079499,0.313187,0.000000
2.100000,-1.049414,-1.176915,-1.221659,2.452065,-0.234792,0.400373,1.145117,0.796226,-0.508116,-2.855493,-0.659328,-3.591156,-0.084418,-8.535492,6.597769,0.076547,-0.110529,0.000000,-0.087040,0.310622,-0.000000
2.110000,-1.024837,-1.179223,-1.217681,2.463374,-0.226864,0.395113,1.116558,0.789215,-0.543694,-2.856157,-0.742002,-3.523969,-0.046203,-7.974550,6.922392,0.075641,-0.107426,0.000000,-0.093982,0.308087,0.000000
2.120000,-1.000148,-1.181452,-1.213758,2.474396,-0.219011,0.389501,1.087995,0.781407,-0.578578,-2.856410,-0.818575,-3.451985,-0.009031,-7.360523,7.387462,0.074670,-0.104350,0.000000,-0.100263,0.305543,0.000000
2.130000,-0.975350,-1.183603,-1.209892,2.485133,-0.211239,0.383544,1.059431,0.772861,-0.612728,-2.856432,-0.889644,-3.378042,0.003480,-6.852486,7.394897,0.073638,-0.101298,0.000000,-0.105973,0.303039,-0.000000
2.140000,-0.950446,-1.185677,-1.206088,2.495585,-0.203556,0.377249,1.030867,0.763632,-0.646134,-2.856292,-0.955157,-3.302465,0.026773,-6.227095,7.801562,0.072552,-0.098272,0.000000,-0.111117,0.300585,-0.000000
2.150000,-0.925439,-1.187675,-1.202348,2.505751,-0.195968,0.370624,1.002306,0.753780,-0.678762,-2.855942,-1.014358,-3.222798,0.038764,-5.634321,8.044467,0.071418,-0.095271,0.000000,-0.115617,0.298156,0.000000
2.160000,-0.900332,-1.189597,-1.198677,2.515631,-0.188482,0.363677,0.973749,0.743363,-0.710586,-2.855468,-1.067962,-3.141658,0.046941,-5.041687,8.263203,0.070241,-0.092294,0.000000,-0.119567,0.295785,0.000000
2.170000,-0.875128,-1.191445,-1.195076,2.525226,-0.181103,0.356415,0.945196,0.732444,-0.741582,-2.855096,-1.114780,-3.056838,0.034916,-4.364767,8.616994,0.069029,-0.089340,0.000000,-0.122850,0.293475,0.000000
2.180000,-0.849828,-1.193219,-1.191549,2.534535,-0.173835,0.348848,0.916647,0.721085,-0.771720,-2.854608,-1.156159,-2.971074,0.062373,-3.912559,8.529929,0.067786,-0.086410,0.000000,-0.125619,0.291229,-0.000000
2.190000,-0.824438,-1.194922,-1.188100,2.543559,-0.166682,0.340984,0.888104,0.709338,-0.801002,-2.854026,-1.192168,-2.884674,0.045206,-3.246473,8.828188,0.066518,-0.083502,0.000000,-0.127888,0.289052,-0.000000
2.200000,-0.798958,-1.196553,-1.184731,2.552297,-0.159649,0.332831,0.859566,0.697265,-0.829402,-2.853636,-1.221465,-2.795266,0.040166,-2.657083,8.969624,0.065231,-0.080616,0.000000,-0.129525,0.286951,-0.000000
2.210000,-0.773393,-1.198115,-1.181444,2.560750,-0.152738,0.324399,0.831032,0.684926,-0.856906,-2.853065,-1.245334,-2.705243,0.036630,-2.074789,9.091505,0.063929,-0.077750,0.000000,-0.130671,0.284911,0.000000
2.220000,-0.747744,-1.199609,-1.178244,2.568918,-0.145951,0.315696,0.802502,0.672381,-0.883499,-2.853250,-1.262588,-2.612947,-0.037840,-1.418728,9.307096,0.062619,-0.074905,0.000000,-0.131210,0.283006,-0.000000
2.230000,-0.722015,-1.201035,-1.175131,2.576800,-0.139291,0.306732,0.773969,0.659692,-0.909164,-2.853066,-1.274610,-2.520370,0.075666,-0.988355,9.203781,0.061306,-0.072079,0.000000,-0.131290,0.281145,-0.000000
2.240000,-0.696209,-1.202395,-1.172110,2.584397,-0.132758,0.297516,0.745442,0.646906,-0.933906,-2.852469,-1.281544,-2.427757,0.007352,-0.358133,9.374477,0.059995,-0.069272,0.000000,-0.130929,0.279324,-0.000000
2.250000,-0.670328,-1.203690,-1.169182,2.591709,-0.126353,0.288057,0.716916,0.634083,-0.957712,-2.852612,-1.282166,-2.333425,0.000555,0.190008,9.431116,0.058690,-0.066482,0.000000,-0.130008,0.277639,-0.000000
2.260000,-0.644376,-1.204922,-1.166350,2.598736,-0.120076,0.278364,0.688391,0.621278,-0.980576,-2.852409,-1.277913,-2.239229,-0.003354,0.721772,9.469866,0.057396,-0.063709,0.000000,-0.128674,0.276001,0.000000
2.270000,-0.618355,-1.206092,-1.163615,2.605477,-0.113927,0.268448,0.659865,0.608547,-1.002491,-2.853077,-1.267193,-2.143483,-0.087997,1.358596,9.614951,0.056118,-0.060952,0.000000,-0.126773,0.274510,0.000000
2.280000,-0.592267,-1.207201,-1.160981,2.611933,-0.107905,0.258318,0.631332,0.595948,-1.023448,-2.853281,-1.252078,-2.048276,0.048715,1.659798,9.422531,0.054862,-0.058210,0.000000,-0.124512,0.273055,-0.000000
2.290000,-0.566117,-1.208251,-1.158450,2.618103,-0.102007,0.247982,0.602801,0.583519,-1.043459,-2.852953,-1.232806,-1.953813,-0.025495,2.253978,9.531070,0.053629,-0.055483,0.000000,-0.121913,0.271629,-0.000000
2.300000,-0.539906,-1.209242,-1.156022,2.623989,-0.096233,0.237452,0.574269,0.571313,-1.062519,-2.853426,-1.207577,-1.858221,-0.026414,2.726749,9.523124,0.052425,-0.052769,0.000000,-0.118803,0.270344,0.000000
2.310000,-0.513638,-1.210176,-1.153701,2.629589,-0.090580,0.226735,0.545734,0.559380,-1.080626,-2.853556,-1.178404,-1.763232,-0.025843,3.177725,9.506452,0.051254,-0.050069,0.000000,-0.115377,0.269102,0.000000
2.320000,-0.487315,-1.211054,-1.151488,2.634903,-0.085045,0.215842,0.517196,0.547766,-1.097782,-2.854181,-1.143414,-1.667812,-0.073272,3.746594,9.544150,0.050120,-0.047380,0.000000,-0.111459,0.267974,-0.000000
2.330000,-0.460941,-1.211877,-1.149385,2.639933,-0.079624,0.204783,0.488652,0.536522,-1.113985,-2.854479,-1.105021,-1.573048,0.014659,3.926569,9.406672,0.049026,-0.044702,0.000000,-0.107275,0.266889,0.000000
2.340000,-0.434518,-1.212647,-1.147393,2.644677,-0.074313,0.193566,0.460108,0.525675,-1.129246,-2.854401,-1.063518,-1.479044,-0.024625,4.441854,9.425955,0.047975,-0.042036,0.000000,-0.102851,0.265842,-0.000000
2.350000,-0.408048,-1.213364,-1.145514,2.649135,-0.069109,0.182201,0.431562,0.515270,-1.143565,-2.854745,-1.016853,-1.384818,-0.018430,4.816024,9.386139,0.046970,-0.039379,0.000000,-0.097996,0.264899,0.000000
2.360000,-0.381536,-1.214029,-1.143749,2.653308,-0.064006,0.170698,0.403014,0.505348,-1.156943,-2.854821,-0.967167,-1.290872,-0.010827,5.167920,9.351331,0.046016,-0.036732,0.000000,-0.092906,0.264000,0.000000
2.370000,-0.354983,-1.214644,-1.142101,2.657195,-0.059000,0.159065,0.374465,0.495943,-1.169387,-2.855089,-0.913106,-1.198269,-0.028480,5.591971,9.218969,0.045113,-0.034093,0.000000,-0.087460,0.263189,-0.000000
2.380000,-0.328393,-1.215209,-1.140569,2.660797,-0.054085,0.147313,0.345913,0.487094,-1.180907,-2.855094,-0.856422,-1.105449,0.028092,5.739614,9.346429,0.044267,-0.031462,0.000000,-0.081811,0.262417,-0.000000
2.390000,-0.301768,-1.215726,-1.139155,2.664113,-0.049256,0.135450,0.317364,0.478821,-1.191495,-2.854803,-0.797405,-1.012346,0.016280,6.109108,9.224170,0.043478,-0.028839,0.000000,-0.075982,0.261681,0.000000
2.400000,-0.275112,-1.216195,-1.137860,2.667144,-0.044507,0.123486,0.288816,0.471159,-1.201159,-2.854644,-0.734733,-0.920534,0.029646,6.372351,9.188553,0.042748,-0.026223,0.000000,-0.069858,0.261024,0.000000
2.410000,-0.248426,-1.216617,-1.136685,2.669890,-0.039831,0.111430,0.260272,0.464133,-1.209903,-2.854216,-0.669953,-0.828106,0.045107,6.612144,9.166482,0.042081,-0.023614,0.000000,-0.063570,0.260404,0.000000
2.420000,-0.221715,-1.216992,-1.135632,2.672350,-0.035222,0.099291,0.231732,0.457770,-1.217733,-2.853831,-0.602267,-0.738399,0.042270,6.889320,8.902457,0.041478,-0.021010,0.000000,-0.057056,0.259855,-0.000000
2.430000,-0.194980,-1.217321,-1.134700,2.674524,-0.030673,0.087078,0.203196,0.452093,-1.224665,-2.853155,-0.532912,-0.647381,0.093421,6.976739,9.305729,0.040940,-0.018412,0.000000,-0.050409,0.259338,-0.000000
2.440000,-0.168225,-1.217605,-1.133890,2.676414,-0.026178,0.074801,0.174670,0.447116,-1.230674,-2.852162,-0.462172,-0.554842,0.095171,7.199337,9.074504,0.040470,-0.015819,0.000000,-0.043653,0.258850,-0.000000
2.450000,-0.141453,-1.217845,-1.133204,2.678018,-0.021728,0.062468,0.146153,0.442858,-1.235773,-2.851160,-0.389276,-0.464789,0.115369,7.343492,9.064330,0.040068,-0.013231,0.000000,-0.036730,0.258426,0.000000
2.460000,-0.114666,-1.218040,-1.132641,2.679337,-0.017318,0.050089,0.117648,0.439334,-1.239965,-2.849763,-0.315364,-0.373713,0.138739,7.461968,9.059984,0.039736,-0.010647,0.000000,-0.029726,0.258025,-0.000000
2.470000,-0.087867,-1.218191,-1.132202,2.680371,-0.012939,0.037672,0.089157,0.436556,-1.243254,-2.848618,-0.239868,-0.284420,0.115155,7.606608,8.888176,0.039474,-0.008066,0.000000,-0.022599,0.257707,-0.000000
2.480000,-0.061059,-1.218299,-1.131888,2.681120,-0.008584,0.025226,0.060678,0.434538,-1.245650,-2.846937,-0.163869,-0.194072,0.222008,7.588241,9.184827,0.039284,-0.005488,0.000000,-0.015433,0.257400,0.000000
2.490000,-0.034246,-1.218363,-1.131698,2.681584,-0.004246,0.012762,0.032220,0.433279,-1.247131,-2.844678,-0.087653,-0.102509,0.204657,7.677594,9.038483,0.039165,-0.002914,0.000000,-0.008248,0.257098,-0.000000
2.500000,-0.007429,-1.218384,-1.131632,2.681764,0.000084,0.000287,0.003783,0.432788,-1.247707,-2.842629,-0.010629,-0.012528,0.230028,7.696550,9.047565,0.039119,-0.000342,0.000000,-0.001001,0.256876,-0.000000
2.510000,0.019389,-1.218361,-1.131692,2.681660,0.004412,-0.012189,-0.024631,0.433066,-1.247379,-2.840125,0.066151,0.077953,0.255468,7.688416,9.053487,0.039145,0.002228,0.000000,0.006227,0.256671,0.000000
2.520000,0.046204,-1.218296,-1.131876,2.681272,0.008748,-0.024658,-0.053020,0.434113,-1.246147,-2.837662,0.143361,0.168590,0.251907,7.717085,9.070142,0.039244,0.004795,0.000000,0.013496,0.256529,0.000000
2.530000,0.073013,-1.218186,-1.132185,2.680600,0.013097,-0.037109,-0.081383,0.435930,-1.244008,-2.834776,0.219734,0.259279,0.325690,7.552448,9.068125,0.039415,0.007362,0.000000,0.020696,0.256407,-0.000000
2.540000,0.099815,-1.218034,-1.132618,2.679644,0.017469,-0.049535,-0.109714,0.438503,-1.240961,-2.831453,0.294977,0.350044,0.323757,7.524326,9.089264,0.039657,0.009928,0.000000,0.027803,0.256305,0.000000
2.550000,0.126605,-1.217837,-1.133176,2.678406,0.021870,-0.061925,-0.138012,0.441829,-1.237006,-2.828176,0.369860,0.441035,0.346182,7.416043,9.105577,0.039971,0.012493,0.000000,0.034891,0.256267,-0.000000
2.560000,0.153382,-1.217596,-1.133857,2.676884,0.026308,-0.074272,-0.166277,0.445895,-1.232140,-2.824723,0.443180,0.532170,0.363982,7.280899,9.124238,0.040355,0.015057,0.000000,0.041853,0.256272,0.000000
2.570000,0.180142,-1.217311,-1.134661,2.675080,0.030790,-0.086565,-0.194504,0.450690,-1.226362,-2.820720,0.515737,0.623549,0.417137,7.190327,9.149555,0.040808,0.017622,0.000000,0.048764,0.256287,-0.000000
2.580000,0.206882,-1.216980,-1.135588,2.672994,0.035324,-0.098796,-0.222691,0.456202,-1.219668,-2.816790,0.586151,0.715118,0.367883,6.887273,9.164440,0.041329,0.020187,0.000000,0.055504,0.256368,0.000000
2.590000,0.233601,-1.216604,-1.136637,2.670627,0.039916,-0.110955,-0.250841,0.462405,-1.212059,-2.812980,0.654129,0.806892,0.413139,6.740659,9.193032,0.041917,0.022754,0.000000,0.062048,0.256521,0.000000
2.600000,0.260294,-1.216182,-1.137807,2.667978,0.044574,-0.123034,-0.278949,0.469280,-1.203529,-2.808700,0.720575,0.898964,0.423229,6.508485,9.219217,0.042570,0.025322,0.000000,0.068481,0.256692,0.000000
2.610000,0.286959,-1.215712,-1.139097,2.665048,0.049304,-0.135023,-0.307016,0.476807,-1.194076,-2.804585,0.784198,0.991774,0.428885,6.250762,9.256588,0.043286,0.027893,0.000000,0.074689,0.256941,-0.000000
2.620000,0.313594,-1.215195,-1.140507,2.661837,0.054112,-0.146913,-0.335038,0.484959,-1.183700,-2.799859,0.845867,1.083303,0.487303,6.041799,9.133156,0.044063,0.030466,0.000000,0.080747,0.257192,-0.000000
2.630000,0.340195,-1.214630,-1.142035,2.658347,0.059005,-0.158694,-0.363014,0.493712,-1.172405,-2.795449,0.904174,1.176202,0.393256,5.614659,9.449331,0.044900,0.033042,0.000000,0.086539,0.257537,0.000000
2.640000,0.366760,-1.214015,-1.143680,2.654577,0.063989,-0.170358,-0.390949,0.503030,-1.160170,-2.791422,0.958842,1.270590,0.440667,5.352932,9.343539,0.045793,0.035622,0.000000,0.092042,0.257985,-0.000000
2.650000,0.393286,-1.213350,-1.145442,2.650528,0.069068,-0.181894,-0.418840,0.512881,-1.146999,-2.786890,1.010840,1.363790,0.436417,5.005568,9.380724,0.046740,0.038207,0.000000,0.097334,0.258445,-0.000000
2.660000,0.419770,-1.212633,-1.147318,2.646201,0.074248,-0.193294,-0.446688,0.523233,-1.132889,-2.782669,1.058859,1.458347,0.429097,4.634310,9.422679,0.047739,0.040797,0.000000,0.102309,0.259003,0.000000
2.670000,0.446209,-1.211864,-1.149307,2.641595,0.079534,-0.204549,-0.474492,0.534049,-1.117839,-2.778114,1.103810,1.551240,0.460252,4.315048,9.260228,0.048786,0.043393,0.000000,0.107039,0.259588,0.000000
2.680000,0.472601,-1.211042,-1.151408,2.636711,0.084930,-0.215648,-0.502252,0.545294,-1.101858,-2.773920,1.144304,1.645740,0.377526,3.779296,9.642357,0.049878,0.045996,0.000000,0.111410,0.260277,-0.000000
2.690000,0.498942,-1.210165,-1.153619,2.631550,0.090441,-0.226583,-0.529972,0.556919,-1.084918,-2.770140,1.180091,1.741950,0.399478,3.412785,9.493038,0.051013,0.048606,0.000000,0.115401,0.261079,0.000000
2.700000,0.525231,-1.209233,-1.155939,2.626112,0.096070,-0.237343,-0.557653,0.568884,-1.067026,-2.766120,1.212173,1.836478,0.382716,2.963073,9.517010,0.052185,0.051224,0.000000,0.119089,0.261918,0.000000
2.710000,0.551464,-1.208244,-1.158366,2.620397,0.101820,-0.247920,-0.585296,0.581145,-1.048185,-2.762473,1.239137,1.931832,0.363274,2.490754,9.529485,0.053393,0.053852,0.000000,0.122355,0.262864,-0.000000
2.720000,0.577638,-1.207196,-1.160897,2.614406,0.107694,-0.258304,-0.612902,0.593656,-1.028391,-2.758705,1.262520,2.026830,0.373484,2.120924,9.490723,0.054632,0.056489,0.000000,0.125335,0.263867,0.000000
2.730000,0.603751,-1.206089,-1.163531,2.608139,0.113694,-0.268485,-0.640472,0.606375,-1.007647,-2.755354,1.280199,2.122078,0.295914,1.410316,9.557793,0.055898,0.059137,0.000000,0.127834,0.264979,-0.000000
2.740000,0.629800,-1.204922,-1.166266,2.601597,0.119822,-0.278454,-0.668011,0.619239,-0.985949,-2.752460,1.291931,2.217501,0.299206,0.996450,9.502575,0.057187,0.061797,0.000000,0.129829,0.266206,0.000000
2.750000,0.655782,-1.203692,-1.169099,2.594779,0.126079,-0.288201,-0.695520,0.632201,-0.963300,-2.749515,1.299545,2.312275,0.272971,0.461938,9.472602,0.058494,0.064470,0.000000,0.131481,0.267497,-0.000000
2.760000,0.681694,-1.202400,-1.172029,2.587686,0.132466,-0.297716,-0.723003,0.645209,-0.939706,-2.747074,1.301030,2.406456,0.243326,-0.089987,9.420937,0.059814,0.067157,0.000000,0.132602,0.268905,-0.000000
2.770000,0.707535,-1.201043,-1.175053,2.580319,0.138983,-0.306992,-0.750460,0.658210,-0.915168,-2.744391,1.298415,2.501195,0.265663,-0.509562,9.466226,0.061145,0.069858,0.000000,0.133384,0.270369,0.000000
2.780000,0.733300,-1.199620,-1.178168,2.572677,0.145630,-0.316017,-0.777893,0.671155,-0.889687,-2.742340,1.289234,2.594510,0.143525,-1.330522,9.192299,0.062480,0.072575,0.000000,0.133584,0.271958,0.000000
2.790000,0.758987,-1.198130,-1.181372,2.564761,0.152405,-0.324782,-0.805310,0.683971,-0.863284,-2.740965,1.273288,2.686158,0.159182,-1.784717,9.192961,0.063814,0.075308,0.000000,0.133175,0.273676,0.000000
2.800000,0.784594,-1.196571,-1.184663,2.556571,0.159309,-0.333279,-0.832711,0.696607,-0.835963,-2.739393,1.252870,2.777813,0.127675,-2.374750,9.076627,0.065142,0.078060,0.000000,0.132376,0.275453,0.000000
2.810000,0.810118,-1.194943,-1.188037,2.548107,0.166337,-0.341498,-0.860101,0.709006,-0.807735,-2.738553,1.225940,2.867395,0.092557,-2.970413,8.934554,0.066460,0.080830,0.000000,0.130980,0.277361,-0.000000
2.820000,0.835555,-1.193244,-1.191492,2.539369,0.173488,-0.349431,-0.887479,0.721109,-0.778612,-2.737059,1.193829,2.957341,0.155853,-3.492789,8.956299,0.067761,0.083619,0.000000,0.129120,0.279291,0.000000
2.830000,0.860904,-1.191473,-1.195025,2.530357,0.180758,-0.357068,-0.914845,0.732861,-0.748598,-2.736494,1.155228,3.044461,-0.044176,-4.228992,8.461482,0.069040,0.086429,0.000000,0.126646,0.281366,-0.000000
2.840000,0.886162,-1.189628,-1.198632,2.521072,0.188143,-0.364400,-0.942213,0.744192,-0.717734,-2.736912,1.110061,3.128424,0.012078,-4.763700,8.423632,0.070291,0.089260,0.000000,0.123540,0.283588,0.000000
2.850000,0.911325,-1.187710,-1.202312,2.511513,0.195640,-0.371420,-0.969580,0.755045,-0.686029,-2.736674,1.059608,3.212054,-0.015358,-5.367151,8.202839,0.071509,0.092114,0.000000,0.119935,0.285826,0.000000
2.860000,0.936391,-1.185715,-1.206060,2.501680,0.203243,-0.378118,-0.996949,0.765362,-0.653504,-2.737101,1.002694,3.292478,-0.039670,-5.970746,7.958247,0.072688,0.094992,0.000000,0.115690,0.288180,-0.000000
2.870000,0.961357,-1.183644,-1.209873,2.491574,0.210945,-0.384487,-1.024321,0.775083,-0.620182,-2.737180,0.940616,3.371883,-0.004316,-6.487220,7.841824,0.073821,0.097893,0.000000,0.110936,0.290574,0.000000
2.880000,0.986221,-1.181496,-1.213748,2.481194,0.218742,-0.390519,-1.051694,0.784152,-0.586080,-2.737777,0.872062,3.447618,-0.115131,-7.223776,7.299203,0.074904,0.100820,0.000000,0.105519,0.293064,0.000000
2.890000,1.010980,-1.179269,-1.217682,2.470540,0.226626,-0.396206,-1.079078,0.792502,-0.551243,-2.738880,0.797039,3.519363,-0.075400,-7.735821,7.124445,0.075929,0.103772,0.000000,0.099427,0.295644,0.000000
2.900000,1.035631,-1.176963,-1.221671,2.459612,0.234590,-0.401541,-1.106470,0.800077,-0.515697,-2.739512,0.717007,3.589372,-0.078758,-8.312330,6.795797,0.076891,0.106750,0.000000,0.092805,0.298241,-0.000000
2.910000,1.060172,-1.174577,-1.225712,2.448411,0.242625,-0.406518,-1.133869,0.806822,-0.479471,-2.740262,0.630956,3.655125,-0.072798,-8.876533,6.441408,0.077783,0.109754,0.000000,0.085527,0.300885,-0.000000
2.920000,1.084599,-1.172111,-1.229800,2.436935,0.250723,-0.411129,-1.161275,0.812679,-0.442599,-2.740962,0.539704,3.718963,-0.063417,-9.390720,6.235086,0.078600,0.112786,0.000000,0.077677,0.303582,-0.000000
2.930000,1.108909,-1.169563,-1.233933,2.425185,0.258875,-0.415368,-1.188687,0.817597,-0.405109,-2.741455,0.442792,3.777917,-0.033624,-9.989582,5.549556,0.079335,0.115845,0.000000,0.069179,0.306282,0.000000
2.940000,1.133101,-1.166933,-1.238106,2.413161,0.267072,-0.419229,-1.216103,0.821517,-0.367059,-2.741648,0.340357,3.831662,-0.005795,-10.475104,5.284744,0.079981,0.118931,0.000000,0.060030,0.308968,0.000000
2.950000,1.157172,-1.164221,-1.242316,2.400863,0.275302,-0.422707,-1.243519,0.824388,-0.328483,-2.741518,0.233190,3.882797,0.035921,-10.974097,4.850516,0.080533,0.122044,0.000000,0.050316,0.311663,-0.000000
2.960000,1.181118,-1.161427,-1.246559,2.388291,0.283556,-0.425797,-1.270931,0.826164,-0.289422,-2.740816,0.121139,3.928523,0.090126,-11.448821,4.391858,0.080985,0.125184,0.000000,0.039988,0.314307,-0.000000
2.970000,1.204937,-1.158550,-1.250831,2.375445,0.291822,-0.428494,-1.298335,0.826794,-0.249920,-2.739826,0.004140,3.971497,0.125599,-11.931045,4.102664,0.081331,0.128351,0.000000,0.029049,0.316954,-0.000000
2.980000,1.228626,-1.155590,-1.255128,2.362324,0.300088,-0.430794,-1.325725,0.826233,-0.210013,-2.737934,-0.117065,4.008476,0.255282,-12.305079,3.287468,0.081565,0.131544,0.000000,0.017536,0.319499,-0.000000
2.990000,1.252182,-1.152548,-1.259446,2.348930,0.308342,-0.432693,-1.353090,0.824440,-0.169772,-2.734995,-0.242193,4.039160,0.318952,-12.732025,2.944969,0.081680,0.134762,0.000000,0.005463,0.321915,0.000000
3.000000,1.275603,-1.149424,-1.263780,2.335263,0.316572,-0.434189,-1.380423,0.821375,-0.129239,-2.731374,-0.371474,4.066490,0.423089,-13.103082,2.420752,0.081672,0.138003,0.000000,-0.007181,0.324270,0.000000
3.010000,1.298887,-1.146217,-1.268128,2.321322,0.324765,-0.435277,-1.407712,0.817000,-0.088462,-2.726187,-0.504119,4.088029,0.547820,-13.442103,1.888346,0.081535,0.141268,0.000000,-0.020344,0.326437,-0.000000
3.020000,1.322029,-1.142928,-1.272485,2.307109,0.332908,-0.435957,-1.434948,0.811280,-0.047496,-2.721003,-0.640405,4.104246,0.558313,-13.788719,1.349468,0.081263,0.144554,0.000000,-0.034062,0.328569,0.000000
3.030000,1.345028,-1.139559,-1.276846,2.292623,0.340986,-0.436227,-1.462124,0.804183,-0.006396,-2.713569,-0.779344,4.114907,0.932957,-13.992477,0.780618,0.080852,0.147860,0.000000,-0.048244,0.330431,0.000000
3.040000,1.367881,-1.136109,-1.281208,2.277866,0.348987,-0.436085,-1.489210,0.795686,0.034783,-2.703644,-0.920555,4.119891,0.987138,-14.264620,0.217863,0.080297,0.151183,0.000000,-0.062859,0.331986,-0.000000
3.050000,1.390584,-1.132580,-1.285566,2.262839,0.356895,-0.435531,-1.516196,0.785763,0.075983,-2.693202,-1.064332,4.119201,1.171061,-14.463452,-0.360808,0.079593,0.154521,0.000000,-0.077945,0.333420,0.000000
3.060000,1.413136,-1.128971,-1.289917,2.247543,0.364697,-0.434565,-1.543065,0.774397,0.117145,-2.680141,-1.209108,4.112072,1.373943,-14.610394,-0.960032,0.078737,0.157871,0.000000,-0.093352,0.334501,0.000000
3.070000,1.435534,-1.125286,-1.294256,2.231978,0.372378,-0.433188,-1.569798,0.761566,0.158213,-2.666313,-1.357556,4.100954,1.461886,-14.950809,-1.368018,0.077724,0.161231,0.000000,-0.109337,0.335440,0.000000
3.080000,1.457775,-1.121524,-1.298579,2.216147,0.379924,-0.431402,-1.596380,0.747248,0.199139,-2.649429,-1.505434,4.082525,1.919668,-14.613807,-2.321815,0.076550,0.164599,0.000000,-0.125495,0.335945,0.000000
3.090000,1.479856,-1.117688,-1.302883,2.200051,0.387318,-0.429206,-1.622775,0.731463,0.239838,-2.629238,-1.652147,4.056590,2.052705,-14.844358,-2.761671,0.075214,0.167968,0.000000,-0.141764,0.335968,0.000000
3.100000,1.501775,-1.113779,-1.307162,2.183693,0.394548,-0.426606,-1.648962,0.714196,0.280258,-2.607746,-1.801131,4.026394,2.316803,-14.822825,-3.381359,0.073713,0.171337,0.000000,-0.158471,0.335756,-0.000000
3.110000,1.523529,-1.109798,-1.311413,2.167073,0.401597,-0.423602,-1.674916,0.695447,0.320342,-2.582614,-1.948382,3.989201,2.603799,-14.749813,-4.001719,0.072044,0.174700,0.000000,-0.175219,0.335011,0.000000
3.120000,1.545116,-1.105747,-1.315633,2.150195,0.408452,-0.420200,-1.700613,0.675221,0.360026,-2.556616,-2.097173,3.946873,2.703288,-14.874619,-4.517628,0.070207,0.178054,0.000000,-0.192331,0.334034,-0.000000
3.130000,1.566532,-1.101629,-1.319816,2.133062,0.415097,-0.416403,-1.726034,0.653514,0.399256,-2.526299,-2.243069,3.897724,3.365673,-14.292964,-5.313368,0.068198,0.181395,0.000000,-0.209349,0.332430,0.000000
3.140000,1.587776,-1.097446,-1.323960,2.115676,0.421517,-0.412217,-1.751123,0.630372,0.437957,-2.491379,-2.385432,3.841711,3.514552,-14.299341,-5.833924,0.066021,0.184716,0.000000,-0.226193,0.330149,0.000000
3.150000,1.608845,-1.093200,-1.328059,2.098040,0.427699,-0.407646,-1.775858,0.605803,0.476074,-2.455064,-2.527818,3.780603,3.856210,-14.042882,-6.440786,0.063673,0.188011,0.000000,-0.243216,0.327542,0.000000
3.160000,1.629736,-1.088893,-1.332111,2.080160,0.433629,-0.402698,-1.800208,0.579832,0.513549,-2.414249,-2.665940,3.713414,4.212294,-13.729938,-7.032171,0.061157,0.191277,0.000000,-0.259957,0.324257,-0.000000
3.170000,1.650447,-1.084528,-1.336112,2.062038,0.439291,-0.397378,-1.824139,0.552483,0.550320,-2.371701,-2.803689,3.639654,4.395119,-13.661305,-7.682610,0.058474,0.194507,0.000000,-0.276819,0.320555,-0.000000
3.180000,1.670976,-1.080108,-1.340058,2.043678,0.444674,-0.391694,-1.847625,0.523778,0.586325,-2.324297,-2.935842,3.560548,5.090391,-12.756706,-8.135383,0.055623,0.197697,0.000000,-0.293223,0.316124,0.000000
3.190000,1.691320,-1.075636,-1.343945,2.025087,0.449763,-0.385654,-1.870608,0.493788,0.621514,-2.271808,-3.061723,3.476269,5.311617,-12.564269,-8.754118,0.052611,0.200837,0.000000,-0.309074,0.310931,-0.000000
3.200000,1.711477,-1.071114,-1.347770,2.006268,0.454545,-0.379266,-1.893056,0.462547,0.655829,-2.217221,-3.185685,3.385818,5.704286,-12.068196,-9.297462,0.049441,0.203923,0.000000,-0.324823,0.305252,0.000000
3.210000,1.731445,-1.066546,-1.351529,1.987227,0.459010,-0.372540,-1.914936,0.430102,0.689212,-2.158057,-3.302296,3.289879,6.100365,-11.507900,-9.832750,0.046117,0.206947,0.000000,-0.339866,0.298834,-0.000000
3.220000,1.751221,-1.061935,-1.355219,1.967971,0.463144,-0.365485,-1.936206,0.396499,0.721613,-2.095464,-3.418101,3.189726,6.447130,-11.392482,-10.247605,0.042644,0.209904,0.000000,-0.354874,0.291814,-0.000000
3.230000,1.770804,-1.057284,-1.358837,1.948506,0.466936,-0.358111,-1.956831,0.361772,0.752987,-2.028513,-3.524686,3.083879,6.944351,-9.909898,-10.920082,0.039023,0.212786,0.000000,-0.368931,0.284052,0.000000
3.240000,1.790190,-1.052597,-1.362380,1.928837,0.470376,-0.350429,-1.976762,0.326041,0.783272,-1.957138,-3.621292,2.972472,7.302569,-9.660508,-11.303867,0.035269,0.215587,0.000000,-0.381924,0.275535,-0.000000
3.250000,1.809380,-1.047878,-1.365845,1.908973,0.473453,-0.342450,-1.995962,0.289350,0.812425,-1.882216,-3.715593,2.857426,7.709876,-8.938953,-11.754526,0.031385,0.218298,0.000000,-0.394651,0.266394,0.000000
3.260000,1.828369,-1.043129,-1.369228,1.888920,0.476160,-0.334185,-2.014390,0.251761,0.840409,-1.802692,-3.800848,2.738861,8.122720,-8.188660,-12.153933,0.027379,0.220915,0.000000,-0.406361,0.256515,-0.000000
3.270000,1.847157,-1.038356,-1.372528,1.868688,0.478486,-0.325646,-2.032008,0.213351,0.867173,-1.720432,-3.880010,2.612600,8.398628,-7.558424,-12.899827,0.023260,0.223428,0.000000,-0.417362,0.245992,-0.000000
3.280000,1.865742,-1.033561,-1.375741,1.848283,0.480424,-0.316845,-2.048782,0.174191,0.892659,-1.633263,-3.950233,2.485027,9.036627,-6.478533,-12.603974,0.019036,0.225833,0.000000,-0.427302,0.234746,-0.000000
3.290000,1.884123,-1.028749,-1.378864,1.827715,0.481968,-0.307797,-2.064656,0.134379,0.916873,-1.541133,-4.011099,2.356696,9.317798,-5.770579,-13.252907,0.014718,0.228122,0.000000,-0.436115,0.222785,0.000000
3.300000,1.902296,-1.023923,-1.381896,1.806993,0.483110,-0.298512,-2.079597,0.093991,0.939767,-1.446336,-4.064869,2.221727,9.711060,-4.898606,-13.540612,0.010316,0.230288,0.000000,-0.444039,0.210211,-0.000000
3.310000,1.920262,-1.019088,-1.384833,1.786126,0.483846,-0.289006,-2.093568,0.053119,0.961305,-1.347137,-4.107925,2.085515,10.094603,-3.977329,-13.798969,0.005842,0.232324,0.000000,-0.450648,0.196974,0.000000
3.320000,1.938018,-1.014247,-1.387675,1.765125,0.484171,-0.279291,-2.106530,0.011842,0.981461,-1.244779,-4.146815,1.944910,10.406435,-3.536784,-14.217622,0.001305,0.234225,0.000000,-0.456649,0.183133,0.000000
3.330000,1.955564,-1.009406,-1.390419,1.743999,0.484082,-0.269381,-2.118449,-0.029773,1.000201,-1.138388,-4.173128,1.803349,10.870553,-1.715063,-14.086295,-0.003286,0.235985,0.000000,-0.461097,0.168686,0.000000
3.340000,1.972898,-1.004567,-1.393062,1.722760,0.483575,-0.259292,-2.129284,-0.071575,1.017527,-1.028056,-4.186340,1.661283,11.161432,-1.188360,-14.421699,-0.007912,0.237597,0.000000,-0.463923,0.153664,0.000000
3.350000,1.990019,-0.999736,-1.395604,1.701417,0.482650,-0.249036,-2.139002,-0.113488,1.033413,-0.914940,-4.194627,1.515871,11.490098,-0.205086,-14.555444,-0.012562,0.239056,0.000000,-0.466016,0.138126,0.000000
3.360000,2.006926,-0.994915,-1.398042,1.679983,0.481305,-0.238628,-2.147574,-0.155425,1.047844,-0.799096,-4.190891,1.370073,11.786010,0.786565,-14.657007,-0.017227,0.240358,0.000000,-0.466584,0.122165,-0.000000
3.370000,2.023618,-0.990111,-1.400376,1.658470,0.479541,-0.228084,-2.154965,-0.197287,1.060807,-0.678268,-4.180421,1.222303,12.268908,1.469063,-14.835242,-0.021891,0.241498,0.000000,-0.466207,0.105506,0.000000
3.380000,2.040095,-0.985326,-1.402604,1.636888,0.477360,-0.217417,-2.161136,-0.238992,1.072291,-0.556042,-4.158123,1.074662,12.169408,2.994706,-14.685679,-0.026546,0.242468,0.000000,-0.464318,0.088604,-0.000000
3.390000,2.056356,-0.980565,-1.404724,1.615251,0.474763,-0.206643,-2.166083,-0.280408,1.082303,-0.432784,-4.123818,0.927554,12.586637,3.701656,-14.787685,-0.031172,0.243270,0.000000,-0.460897,0.071521,-0.000000
3.400000,2.072400,-0.975832,-1.406736,1.593571,0.471753,-0.195776,-2.169775,-0.321449,1.090838,-0.305308,-4.082743,0.779501,12.796558,4.673842,-14.760625,-0.035761,0.243897,0.000000,-0.456525,0.053889,0.000000
3.410000,2.088227,-0.971131,-1.408639,1.571860,0.468335,-0.184831,-2.172183,-0.362036,1.097903,-0.175770,-4.033308,0.633749,12.999842,5.579517,-14.673089,-0.040299,0.244347,0.000000,-0.451040,0.036041,0.000000
3.420000,2.103837,-0.966467,-1.410433,1.550131,0.464514,-0.173823,-2.173293,-0.402055,1.103493,-0.046393,-3.967810,0.483495,12.975298,7.157829,-15.093076,-0.044774,0.244618,0.000000,-0.443558,0.018047,-0.000000
3.430000,2.119230,-0.961842,-1.412116,1.528398,0.460296,-0.162766,-2.173100,-0.441380,1.107590,0.085836,-3.897760,0.337853,13.468921,6.837145,-14.021804,-0.049169,0.244708,0.000000,-0.435409,-0.000159,0.000000
3.440000,2.134405,-0.957262,-1.413688,1.506674,0.455689,-0.151676,-2.171567,-0.480001,1.110270,0.220769,-3.823887,0.197501,13.407042,8.295638,-14.326117,-0.053481,0.244614,0.000000,-0.426696,-0.018527,0.000000
3.450000,2.149363,-0.952730,-1.415149,1.484971,0.450699,-0.140565,-2.168690,-0.517801,1.111524,0.354768,-3.735014,0.053814,13.492030,9.113108,-14.125612,-0.057696,0.244337,0.000000,-0.416135,-0.036885,0.000000
3.460000,2.164105,-0.948249,-1.416499,1.463304,0.445336,-0.129450,-2.164471,-0.554684,1.111361,0.489083,-3.640338,-0.085871,13.519095,9.914050,-13.907060,-0.061801,0.243876,0.000000,-0.404802,-0.055155,0.000000
3.470000,2.178630,-0.943824,-1.417738,1.441686,0.439609,-0.118343,-2.158895,-0.590574,1.109806,0.626449,-3.535943,-0.225169,13.798723,10.865424,-13.852052,-0.065787,0.243230,0.000000,-0.392258,-0.073717,-0.000000
3.480000,2.192939,-0.939458,-1.418866,1.420131,0.433528,-0.107258,-2.151949,-0.625382,1.106871,0.761799,-3.425116,-0.360810,13.260349,11.291325,-13.269829,-0.069644,0.242400,0.000000,-0.378898,-0.091925,-0.000000
3.490000,2.207032,-0.935155,-1.419883,1.398652,0.427105,-0.096210,-2.143669,-0.659057,1.102604,0.894554,-3.308330,-0.492460,13.435197,12.155005,-13.154862,-0.073363,0.241389,0.000000,-0.364792,-0.109696,-0.000000
3.500000,2.220912,-0.930917,-1.420790,1.377262,0.420351,-0.085211,-2.134050,-0.691519,1.097024,1.029089,-3.182946,-0.623021,13.315434,12.820493,-12.857349,-0.076936,0.240199,0.000000,-0.349649,-0.127569,0.000000
3.510000,2.234578,-0.926749,-1.421588,1.355975,0.413279,-0.074274,-2.123104,-0.722693,1.090151,1.159590,-3.050789,-0.751205,13.127603,13.467758,-12.573500,-0.080353,0.238832,0.000000,-0.333685,-0.144873,-0.000000
3.520000,2.248032,-0.922653,-1.422276,1.334805,0.405902,-0.063412,-2.110836,-0.752525,1.082026,1.294726,-2.914984,-0.872573,13.554109,13.818290,-11.895433,-0.083608,0.237291,0.000000,-0.317320,-0.162418,-0.000000
3.530000,2.261275,-0.918632,-1.422856,1.313763,0.398233,-0.052637,-2.097233,-0.780967,1.072700,1.423427,-2.771795,-0.993217,12.169185,14.816192,-12.237396,-0.086697,0.235575,0.000000,-0.300080,-0.179163,-0.000000
3.540000,2.274308,-0.914689,-1.423329,1.292864,0.390287,-0.041962,-2.082395,-0.807936,1.062162,1.544842,-2.621494,-1.113288,12.449899,15.102165,-11.575616,-0.089607,0.233697,0.000000,-0.282004,-0.195011,0.000000
3.550000,2.287132,-0.910827,-1.423696,1.272119,0.382079,-0.031398,-2.066320,-0.833391,1.050461,1.669398,-2.468783,-1.226387,12.113881,15.564517,-11.240998,-0.092336,0.231659,0.000000,-0.263712,-0.210918,0.000000
3.560000,2.299751,-0.907048,-1.423957,1.251542,0.373624,-0.020956,-2.049033,-0.857300,1.037633,1.787232,-2.312367,-1.338801,11.732689,15.940035,-10.918820,-0.094880,0.229464,0.000000,-0.244991,-0.225976,0.000000
3.570000,2.312164,-0.903355,-1.424115,1.231143,0.364939,-0.010649,-2.030565,-0.879608,1.023722,1.906567,-2.148045,-1.441772,11.852004,16.691597,-9.985298,-0.097233,0.227119,0.000000,-0.225503,-0.240849,-0.000000
3.580000,2.324374,-0.899750,-1.424171,1.210934,0.356038,-0.000485,-2.010929,-0.900261,1.008795,2.018351,-1.983418,-1.545014,10.491008,16.217329,-10.670930,-0.099390,0.224627,0.000000,-0.205977,-0.254804,0.000000
3.590000,2.336383,-0.896235,-1.424126,1.190928,0.346939,0.009524,-1.990228,-0.919280,0.992818,2.121895,-1.819369,-1.648845,10.492880,16.808286,-9.778482,-0.101353,0.222001,0.000000,-0.186511,-0.267771,0.000000
3.600000,2.348193,-0.892812,-1.423981,1.171133,0.337658,0.019368,-1.968485,-0.936625,0.975855,2.225752,-1.649367,-1.743214,9.994624,16.957029,-9.406685,-0.103118,0.219245,0.000000,-0.166531,-0.280423,-0.000000
3.610000,2.359807,-0.889483,-1.423739,1.151561,0.328212,0.029038,-1.945732,-0.952289,0.957969,2.324082,-1.483797,-1.832904,9.507446,16.969044,-8.954359,-0.104686,0.216366,0.000000,-0.147121,-0.292254,0.000000
3.620000,2.371225,-0.886248,-1.423401,1.132222,0.318618,0.038524,-1.922033,-0.966234,0.939178,2.414353,-1.302621,-1.926170,8.698565,18.459183,-9.284173,-0.106053,0.213371,0.000000,-0.126003,-0.303188,-0.000000
3.630000,2.382452,-0.883111,-1.422969,1.113123,0.308893,0.047818,-1.897455,-0.978381,0.919481,2.501246,-1.131545,-2.009888,8.681578,15.721725,-7.444808,-0.107211,0.210270,0.000000,-0.106153,-0.313419,-0.000000
3.640000,2.393489,-0.880071,-1.422445,1.094275,0.299055,0.056911,-1.872018,-0.988911,0.899017,2.584777,-0.972232,-2.083377,7.864688,16.937448,-7.667895,-0.108182,0.207069,0.000000,-0.087759,-0.322947,-0.000000
3.650000,2.404338,-0.877130,-1.421831,1.075686,0.289121,0.065796,-1.845791,-0.997767,0.877797,2.659813,-0.799802,-2.159681,7.295850,16.737716,-7.176439,-0.108960,0.203776,0.000000,-0.067965,-0.331523,0.000000
3.660000,2.415003,-0.874289,-1.421130,1.057362,0.279106,0.074465,-1.818839,-1.004937,0.855854,2.729442,-0.634522,-2.227886,6.693481,16.519048,-6.681107,-0.109545,0.200402,0.000000,-0.049110,-0.339237,-0.000000
3.670000,2.425486,-0.871548,-1.420343,1.039311,0.269027,0.082911,-1.791217,-1.010449,0.833238,2.794250,-0.467652,-2.295293,6.201006,16.646250,-6.588569,-0.109942,0.196953,0.000000,-0.030171,-0.346320,-0.000000
3.680000,2.435790,-0.868908,-1.419473,1.021540,0.258902,0.091127,-1.762978,-1.014308,0.809975,2.852058,-0.305966,-2.355218,5.356541,15.678449,-5.389938,-0.110151,0.193437,0.000000,-0.011955,-0.352403,-0.000000
3.690000,2.445918,-0.866370,-1.418521,1.004053,0.248746,0.099108,-1.734200,-1.016589,0.786161,2.902654,-0.150119,-2.407367,4.826376,15.689125,-5.253292,-0.110183,0.189865,0.000000,0.005464,-0.357471,0.000000
3.700000,2.455872,-0.863934,-1.417491,0.986857,0.238576,0.106849,-1.704941,-1.017306,0.761827,2.948003,0.005982,-2.458490,4.176319,15.322876,-4.759331,-0.110042,0.186246,0.000000,0.022812,-0.361881,-0.000000
3.710000,2.465656,-0.861599,-1.416385,0.969956,0.228405,0.114343,-1.675273,-1.016479,0.737002,2.984296,0.159008,-2.506078,3.479091,14.975294,-4.332231,-0.109729,0.182587,0.000000,0.039709,-0.365186,-0.000000
3.720000,2.475272,-0.859365,-1.415205,0.953353,0.218251,0.121587,-1.645246,-1.014163,0.711754,3.021232,0.302619,-2.541230,3.521727,14.036612,-3.113840,-0.109252,0.178898,0.000000,0.055353,-0.368253,-0.000000
3.730000,2.484724,-0.857234,-1.413954,0.937052,0.208127,0.128577,-1.614890,-1.010426,0.686172,3.046627,0.445835,-2.577083,1.545667,14.612238,-4.071222,-0.108622,0.175183,0.000000,0.070891,-0.370058,0.000000
3.740000,2.494015,-0.855203,-1.412634,0.921056,0.198047,0.135310,-1.584357,-1.005245,0.660205,3.059965,0.588853,-2.614298,1.512373,13.691564,-2.954697,-0.107834,0.171458,0.000000,0.086345,-0.370564,0.000000
3.750000,2.503146,-0.853272,-1.411249,0.905366,0.188027,0.141780,-1.553683,-0.998687,0.633932,3.073592,0.722125,-2.639760,0.826366,13.255801,-2.556190,-0.106900,0.167728,0.000000,0.100528,-0.370845,-0.000000
3.760000,2.512123,-0.851442,-1.409800,0.889982,0.178078,0.147987,-1.522912,-0.990804,0.607412,3.079498,0.853732,-2.663779,0.194986,12.812736,-2.150556,-0.105824,0.164001,0.000000,0.114437,-0.370256,-0.000000
3.770000,2.520947,-0.849711,-1.408290,0.874907,0.168215,0.153928,-1.492127,-0.981648,0.580678,3.076052,0.976028,-2.681893,-0.724154,11.886869,-1.569240,-0.104615,0.160285,0.000000,0.127215,-0.368558,0.000000
3.780000,2.529622,-0.848077,-1.406722,0.860140,0.158449,0.159600,-1.461404,-0.971288,0.553782,3.068380,1.096522,-2.697198,-0.801979,12.217451,-1.496217,-0.103281,0.156591,0.000000,0.139689,-0.366356,0.000000
3.790000,2.538151,-0.846541,-1.405099,0.845679,0.148793,0.165003,-1.430770,-0.959720,0.526742,3.056902,1.215422,-2.709911,-1.648485,11.315193,-0.951234,-0.101822,0.152920,0.000000,0.151882,-0.363705,0.000000
3.800000,2.546537,-0.845101,-1.403423,0.831524,0.139258,0.170135,-1.400298,-0.947015,0.499604,3.036838,1.324869,-2.717071,-2.201329,10.816729,-0.578064,-0.100247,0.149283,0.000000,0.162948,-0.360066,-0.000000
3.810000,2.554782,-0.843756,-1.401697,0.817672,0.129856,0.174995,-1.370036,-0.933239,0.472413,3.015005,1.429466,-2.720515,-2.679672,10.272711,-0.197215,-0.098565,0.145683,0.000000,0.173387,-0.356194,0.000000
3.820000,2.562891,-0.842503,-1.399924,0.804122,0.120597,0.179583,-1.340055,-0.918430,0.445200,2.978565,1.531873,-2.721826,-4.100006,10.040541,0.016358,-0.096780,0.142130,0.000000,0.183519,-0.350784,-0.000000
3.830000,2.570866,-0.841343,-1.398106,0.790870,0.111491,0.183899,-1.310455,-0.902628,0.417993,2.943672,1.626751,-2.718482,-2.858155,8.928716,0.653572,-0.094898,0.138634,0.000000,0.192739,-0.345491,0.000000
3.840000,2.578709,-0.840273,-1.396247,0.777912,0.102548,0.187943,-1.281169,-0.885923,0.390846,2.911314,1.713800,-2.710454,-4.116759,8.648728,0.866994,-0.092929,0.135188,0.000000,0.201027,-0.340424,0.000000
3.850000,2.586425,-0.839292,-1.394348,0.765245,0.093775,0.191716,-1.252282,-0.868357,0.363789,2.865754,1.798283,-2.700457,-4.484007,8.079567,1.213292,-0.090878,0.131801,0.000000,0.208984,-0.333997,-0.000000
3.860000,2.594015,-0.838397,-1.392413,0.752865,0.085183,0.195219,-1.223852,-0.849981,0.336850,2.819773,1.875939,-2.686657,-4.839958,7.512543,1.544694,-0.088752,0.128480,0.000000,0.216140,-0.327517,0.000000
3.870000,2.601483,-0.837587,-1.390445,0.740767,0.076778,0.198454,-1.195909,-0.830852,0.310066,2.767832,1.949098,-2.669600,-5.414891,7.060161,1.865620,-0.086557,0.125227,0.000000,0.222757,-0.320427,0.000000
3.880000,2.608832,-0.836861,-1.388445,0.728945,0.068568,0.201421,-1.168500,-0.811021,0.283469,2.714270,2.015905,-2.649370,-5.288789,6.300097,2.178629,-0.084299,0.122048,0.000000,0.228645,-0.313184,-0.000000
3.890000,2.616063,-0.836215,-1.386417,0.717395,0.060560,0.204124,-1.141626,-0.790556,0.257089,2.659548,2.076315,-2.626070,-5.780726,5.842739,2.479212,-0.081987,0.118942,0.000000,0.233810,-0.305840,0.000000
3.900000,2.623180,-0.835649,-1.384364,0.706110,0.052759,0.206564,-1.115328,-0.769508,0.230957,2.599849,2.132275,-2.599818,-6.025102,5.290853,2.769687,-0.079625,0.115912,0.000000,0.238465,-0.298011,-0.000000
3.910000,2.630186,-0.835159,-1.382287,0.695086,0.045172,0.208744,-1.089636,-0.747921,0.205101,2.537955,2.184474,-2.571051,-6.259432,4.791215,3.043137,-0.077219,0.112963,0.000000,0.242689,-0.289993,0.000000
3.920000,2.637083,-0.834745,-1.380190,0.684316,0.037802,0.210667,-1.064568,-0.725865,0.179550,2.475605,2.224823,-2.538412,-6.295159,3.629063,3.422110,-0.074776,0.110095,0.000000,0.245647,-0.281952,-0.000000
3.930000,2.643873,-0.834403,-1.378074,0.673793,0.030656,0.212336,-1.040135,-0.703425,0.154338,2.410267,2.264415,-2.503920,-6.770785,4.302183,3.472735,-0.072306,0.107309,0.000000,0.248506,-0.273656,0.000000
3.940000,2.650560,-0.834131,-1.375944,0.663511,0.023735,0.213755,-1.016373,-0.680574,0.129477,2.342087,2.303843,-2.467766,-6.770441,3.232840,3.817487,-0.069806,0.104608,0.000000,0.251331,-0.265126,-0.000000
3.950000,2.657144,-0.833927,-1.373800,0.653463,0.017045,0.214927,-0.993290,-0.657391,0.104996,2.274189,2.332098,-2.428132,-6.895015,2.771347,4.046978,-0.067284,0.101993,0.000000,0.252986,-0.256662,-0.000000
3.960000,2.663630,-0.833789,-1.371646,0.643643,0.010588,0.215856,-0.970889,-0.633941,0.080921,2.206042,2.357199,-2.386373,-6.961036,2.293541,4.273099,-0.064747,0.099463,0.000000,0.254311,-0.248226,0.000000
3.970000,2.670018,-0.833715,-1.369484,0.634043,0.004367,0.216547,-0.949190,-0.610260,0.057273,2.132931,2.378402,-2.342983,-7.432561,1.907339,4.432133,-0.062199,0.097020,0.000000,0.255242,-0.239347,0.000000
3.980000,2.676311,-0.833701,-1.367316,0.624656,-0.001616,0.217003,-0.928221,-0.586390,0.034070,2.062187,2.394508,-2.297155,-6.704909,1.314404,4.732526,-0.059644,0.094666,0.000000,0.255652,-0.230762,-0.000000
3.990000,2.682512,-0.833746,-1.365144,0.615476,-0.007360,0.217230,-0.907935,-0.562387,0.011338,1.994378,2.405576,-2.248959,-7.079437,0.943437,4.875285,-0.057087,0.092395,0.000000,0.255555,-0.222526,-0.000000
4.000000,2.688621,-0.833847,-1.362972,0.606495,-0.012864,0.217232,-0.888351,-0.538290,-0.010905,1.922593,2.413059,-2.199436,-7.047145,0.513591,5.056698,-0.054534,0.090210,0.000000,0.255114,-0.213951,0.000000
4.010000,2.694642,-0.834003,-1.360801,0.597707,-0.018126,0.217013,-0.869477,-0.514139,-0.032645,1.852267,2.416413,-2.148202,-7.007491,0.105633,5.221069,-0.051986,0.088109,0.000000,0.254274,-0.205583,0.000000
4.020000,2.700576,-0.834209,-1.358632,0.589103,-0.023146,0.216580,-0.851303,-0.489979,-0.053861,1.782578,2.414723,-2.094750,-6.933726,-0.389262,5.435586,-0.049450,0.086092,0.000000,0.252945,-0.197333,-0.000000
4.030000,2.706425,-0.834465,-1.356470,0.580678,-0.027926,0.215938,-0.833823,-0.465855,-0.074536,1.713516,2.409768,-2.040200,-6.875459,-0.597657,5.471324,-0.046928,0.084157,0.000000,0.251318,-0.189208,0.000000
4.040000,2.712190,-0.834767,-1.354314,0.572425,-0.032464,0.215091,-0.817030,-0.441794,-0.094662,1.645269,2.401762,-1.984714,-6.764141,-1.053991,5.656288,-0.044424,0.082303,0.000000,0.249417,-0.181227,0.000000
4.050000,2.717874,-0.835113,-1.352168,0.564336,-0.036762,0.214047,-0.800914,-0.417836,-0.114224,1.578231,2.389184,-1.927385,-6.646960,-1.406731,5.775260,-0.041942,0.080528,0.000000,0.247090,-0.173418,-0.000000
4.060000,2.723477,-0.835501,-1.350034,0.556404,-0.040821,0.212809,-0.785462,-0.394020,-0.133208,1.512428,2.373585,-1.869178,-6.512305,-1.744680,5.882852,-0.039483,0.078831,0.000000,0.244500,-0.165792,-0.000000
4.070000,2.729003,-0.835929,-1.347913,0.548624,-0.044643,0.211384,-0.770661,-0.370378,-0.151603,1.448024,2.354026,-1.809595,-6.364646,-2.131753,6.013848,-0.037053,0.077209,0.000000,0.241554,-0.158357,0.000000
4.080000,2.734450,-0.836393,-1.345807,0.540989,-0.048229,0.209779,-0.756496,-0.346948,-0.169397,1.385212,2.331692,-1.749315,-6.195302,-2.331503,6.039845,-0.034653,0.075661,0.000000,0.238375,-0.151136,0.000000
4.090000,2.739823,-0.836893,-1.343718,0.533492,-0.051582,0.207998,-0.742950,-0.323753,-0.186587,1.324136,2.306776,-1.688472,-6.019196,-2.682586,6.145080,-0.032286,0.074184,0.000000,0.234986,-0.144140,-0.000000
4.100000,2.745121,-0.837424,-1.341648,0.526128,-0.054705,0.206049,-0.730007,-0.300825,-0.203163,1.264883,2.278372,-1.626603,-5.827933,-2.962575,6.208733,-0.029954,0.072776,0.000000,0.231295,-0.137373,0.000000
4.110000,2.750346,-0.837986,-1.339597,0.518890,-0.057600,0.203937,-0.717647,-0.278193,-0.219118,1.207514,2.247488,-1.564330,-5.628530,-3.227766,6.261302,-0.027661,0.071435,0.000000,0.227407,-0.130842,0.000000
4.120000,2.755499,-0.838575,-1.337569,0.511773,-0.060270,0.201669,-0.705849,-0.255885,-0.234447,1.152464,2.213731,-1.501246,-5.392858,-3.506533,6.336515,-0.025407,0.070157,0.000000,0.223283,-0.124584,-0.000000
4.130000,2.760582,-0.839191,-1.335565,0.504771,-0.062719,0.199250,-0.694591,-0.233926,-0.249142,1.099413,2.177711,-1.437996,-5.216269,-3.694708,6.311157,-0.023196,0.068941,0.000000,0.218985,-0.118569,-0.000000
4.140000,2.765595,-0.839829,-1.333585,0.497880,-0.064950,0.196688,-0.683854,-0.212338,-0.263206,1.048430,2.139592,-1.374706,-4.965982,-3.941103,6.362654,-0.021028,0.067784,0.000000,0.214531,-0.112801,0.000000
4.150000,2.770540,-0.840489,-1.331631,0.491093,-0.066967,0.193988,-0.673613,-0.191143,-0.276635,1.000009,2.099061,-1.310923,-4.730604,-4.148047,6.374837,-0.018906,0.066684,0.000000,0.209888,-0.107324,0.000000
4.160000,2.775417,-0.841168,-1.329705,0.484406,-0.068774,0.191158,-0.663846,-0.170362,-0.289425,0.953820,2.056754,-1.247222,-4.490149,-4.338304,6.377188,-0.016831,0.065637,0.000000,0.205120,-0.102105,0.000000
4.170000,2.780228,-0.841864,-1.327809,0.477814,-0.070376,0.188202,-0.654528,-0.150016,-0.301578,0.910372,2.012093,-1.183289,-4.214228,-4.565041,6.395026,-0.014804,0.064640,0.000000,0.200169,-0.097190,0.000000
4.180000,2.784974,-0.842575,-1.325942,0.471314,-0.071776,0.185128,-0.645631,-0.130125,-0.313092,0.869220,1.966055,-1.119620,-4.016101,-4.639222,6.336958,-0.012827,0.063692,0.000000,0.195132,-0.092535,-0.000000
4.190000,2.789655,-0.843299,-1.324106,0.464900,-0.072980,0.181942,-0.637136,-0.110698,-0.323972,0.830379,1.918821,-1.056319,-3.735779,-4.832113,6.334633,-0.010902,0.062789,0.000000,0.190026,-0.088140,-0.000000
4.200000,2.794272,-0.844034,-1.322303,0.458570,-0.073991,0.178651,-0.629014,-0.091755,-0.334218,0.794378,1.869688,-0.993064,-3.479907,-4.965660,6.302131,-0.009027,0.061928,0.000000,0.184779,-0.084052,0.000000
4.210000,2.798826,-0.844778,-1.320534,0.452319,-0.074816,0.175260,-0.621241,-0.073308,-0.343835,0.760682,1.819525,-0.930252,-3.225218,-5.084971,6.262091,-0.007206,0.061107,0.000000,0.179477,-0.080219,0.000000
4.220000,2.803318,-0.845529,-1.318798,0.446144,-0.075459,0.171776,-0.613789,-0.055370,-0.352825,0.730186,1.767846,-0.867819,-2.906772,-5.228801,6.220186,-0.005438,0.060322,0.000000,0.174070,-0.076725,-0.000000
4.230000,2.807749,-0.846286,-1.317098,0.440042,-0.075925,0.168206,-0.606630,-0.037953,-0.361193,0.701860,1.715408,-0.805936,-2.759547,-5.256176,6.155135,-0.003725,0.059571,0.000000,0.168631,-0.073469,0.000000
4.240000,2.812119,-0.847047,-1.315435,0.434010,-0.076220,0.164554,-0.599745,-0.021063,-0.368945,0.675653,1.662367,-0.744679,-2.448963,-5.369715,6.098168,-0.002066,0.058852,0.000000,0.163173,-0.070443,-0.000000
4.250000,2.816430,-0.847810,-1.313808,0.428046,-0.076349,0.160829,-0.593106,-0.004710,-0.376088,0.652602,1.608225,-0.684019,-2.195282,-5.436765,6.029437,-0.000462,0.058161,0.000000,0.157647,-0.067748,-0.000000
4.260000,2.820681,-0.848574,-1.312218,0.422147,-0.076316,0.157035,-0.586685,0.011100,-0.382628,0.631891,1.553651,-0.624078,-1.942667,-5.491053,5.954751,0.001087,0.057496,0.000000,0.152114,-0.065303,0.000000
4.270000,2.824873,-0.849336,-1.310667,0.416312,-0.076128,0.153178,-0.580459,0.026360,-0.388573,0.613784,1.498306,-0.564972,-1.683953,-5.561334,5.868315,0.002581,0.056854,0.000000,0.146541,-0.063132,0.000000
4.280000,2.829007,-0.850096,-1.309155,0.410538,-0.075791,0.149265,-0.574402,0.041065,-0.393930,0.598101,1.442769,-0.506670,-1.453448,-5.543718,5.791382,0.004018,0.056233,0.000000,0.140982,-0.061215,0.000000
4.290000,2.833084,-0.850851,-1.307682,0.404823,-0.075309,0.145301,-0.568489,0.055215,-0.398709,0.584796,1.387176,-0.449222,-1.203514,-5.587765,5.694220,0.005400,0.055629,0.000000,0.135448,-0.059549,-0.000000
4.300000,2.837104,-0.851601,-1.306249,0.399168,-0.074688,0.141293,-0.562698,0.068807,-0.402918,0.573960,1.331170,-0.392776,-0.967834,-5.596330,5.596969,0.006727,0.055041,0.000000,0.129901,-0.058141,0.000000
4.310000,2.841067,-0.852345,-1.304856,0.393569,-0.073935,0.137245,-0.557004,0.081839,-0.406568,0.565190,1.275245,-0.337328,-0.742091,-5.594169,5.494291,0.007998,0.054466,0.000000,0.124389,-0.056950,0.000000
4.320000,2.844975,-0.853080,-1.303504,0.388027,-0.073053,0.133163,-0.551383,0.094312,-0.409668,0.559510,1.219255,-0.282882,-0.438730,-5.595194,5.391700,0.009215,0.053901,0.000000,0.118894,-0.056076,-0.000000
4.330000,2.848828,-0.853805,-1.302193,0.382541,-0.072050,0.129053,-0.545808,0.106225,-0.412229,0.555477,1.163520,-0.229560,-0.370485,-5.549931,5.272106,0.010376,0.053344,0.000000,0.113446,-0.055378,-0.000000
4.340000,2.852626,-0.854520,-1.300923,0.377111,-0.070931,0.124921,-0.540268,0.117583,-0.414263,0.552958,1.108147,-0.177405,-0.090522,-5.530205,5.160689,0.011484,0.052793,0.000000,0.108053,-0.054843,0.000000
4.350000,2.856371,-0.855224,-1.299695,0.371736,-0.069700,0.120770,-0.534739,0.128389,-0.415781,0.553267,1.053005,-0.126376,0.106929,-5.489532,5.041656,0.012538,0.052246,0.000000,0.102700,-0.054598,-0.000000
4.360000,2.860061,-0.855914,-1.298508,0.366416,-0.068365,0.116607,-0.529198,0.138645,-0.416795,0.555161,0.998357,-0.076531,0.295960,-5.440436,4.920082,0.013538,0.051700,0.000000,0.097410,-0.054521,-0.000000
4.370000,2.863699,-0.856591,-1.297363,0.361152,-0.066929,0.112436,-0.523627,0.148358,-0.417316,0.559392,0.944209,-0.028048,0.523941,-5.386218,4.782727,0.014486,0.051154,0.000000,0.092183,-0.054687,0.000000
4.380000,2.867284,-0.857252,-1.296259,0.355944,-0.065399,0.108262,-0.518006,0.157532,-0.417359,0.565090,0.890693,0.019253,0.613366,-5.315593,4.677164,0.015382,0.050606,0.000000,0.087029,-0.055010,-0.000000
4.390000,2.870818,-0.857898,-1.295197,0.350792,-0.063780,0.104090,-0.512321,0.166174,-0.416935,0.572128,0.837889,0.065354,0.817568,-5.245639,4.535939,0.016227,0.050053,0.000000,0.081954,-0.055477,0.000000
4.400000,2.874300,-0.858528,-1.294177,0.345698,-0.062078,0.099925,-0.506556,0.174292,-0.416057,0.581199,0.785815,0.110020,0.969831,-5.166040,4.403721,0.017021,0.049495,0.000000,0.076958,-0.056156,-0.000000
4.410000,2.877732,-0.859140,-1.293199,0.340661,-0.060296,0.095770,-0.500693,0.181893,-0.414739,0.591570,0.734603,0.153471,1.112341,-5.079328,4.270862,0.017766,0.048930,0.000000,0.072053,-0.056976,0.000000
4.420000,2.881114,-0.859733,-1.292262,0.335684,-0.058442,0.091631,-0.494719,0.188986,-0.412994,0.603501,0.684212,0.195291,1.262687,-4.994012,4.107641,0.018463,0.048355,0.000000,0.067232,-0.057964,0.000000
4.430000,2.884446,-0.860308,-1.291366,0.330767,-0.056518,0.087512,-0.488619,0.195581,-0.410837,0.616588,0.634826,0.235931,1.352553,-4.882147,4.020603,0.019111,0.047770,0.000000,0.062512,-0.059077,-0.000000
4.440000,2.887729,-0.860863,-1.290512,0.325912,-0.054532,0.083416,-0.482384,0.201687,-0.408279,0.630707,0.586507,0.275398,1.478869,-4.784750,3.857639,0.019713,0.047173,0.000000,0.057899,-0.060305,0.000000
4.450000,2.890965,-0.861399,-1.289698,0.321120,-0.052486,0.079348,-0.476001,0.207314,-0.405335,0.646053,0.539179,0.313205,1.578165,-4.675767,3.718793,0.020270,0.046563,0.000000,0.053382,-0.061668,-0.000000
4.460000,2.894152,-0.861913,-1.288925,0.316393,-0.050387,0.075310,-0.469461,0.212474,-0.402019,0.662046,0.492960,0.349719,1.661357,-4.562898,3.578694,0.020781,0.045939,0.000000,0.048973,-0.063109,0.000000
4.470000,2.897293,-0.862406,-1.288191,0.311732,-0.048238,0.071308,-0.462754,0.217177,-0.398345,0.679636,0.447976,0.384729,1.813165,-4.437522,3.428118,0.021249,0.045300,0.000000,0.044681,-0.064720,-0.000000
4.480000,2.900387,-0.862878,-1.287498,0.307138,-0.046045,0.067345,-0.455868,0.221437,-0.394329,0.697394,0.404131,0.418385,1.735083,-4.331148,3.303217,0.021675,0.044644,0.000000,0.040498,-0.066363,0.000000
4.490000,2.903436,-0.863327,-1.286844,0.302615,-0.043811,0.063423,-0.448806,0.225264,-0.389982,0.715143,0.361452,0.450690,1.854810,-4.199637,3.152614,0.022060,0.043972,0.000000,0.036425,-0.068020,-0.000000
4.500000,2.906439,-0.863754,-1.286230,0.298163,-0.041541,0.059546,-0.441561,0.228671,-0.385320,0.734082,0.320112,0.481479,1.890305,-4.072538,3.010307,0.022404,0.043283,0.000000,0.032478,-0.069808,-0.000000
4.510000,2.909399,-0.864158,-1.285653,0.293784,-0.039239,0.055717,-0.434125,0.231670,-0.380357,0.753044,0.279990,0.510952,1.915249,-3.943522,2.869226,0.022710,0.042576,0.000000,0.028645,-0.071613,0.000000
4.520000,2.912315,-0.864538,-1.285115,0.289481,-0.036909,0.051940,-0.426498,0.234275,-0.375107,0.772487,0.241320,0.538725,1.956645,-3.797808,2.699978,0.022978,0.041850,0.000000,0.024946,-0.073482,-0.000000
4.530000,2.915189,-0.864896,-1.284614,0.285255,-0.034555,0.048216,-0.418676,0.236501,-0.369586,0.791826,0.203882,0.565259,1.908627,-3.689682,2.607219,0.023209,0.041106,0.000000,0.021361,-0.075354,0.000000
4.540000,2.918021,-0.865229,-1.284151,0.281108,-0.032180,0.044549,-0.410662,0.238357,-0.363806,0.810919,0.167684,0.590574,1.922866,-3.542223,2.441229,0.023405,0.040343,0.000000,0.017891,-0.077216,0.000000
4.550000,2.920811,-0.865539,-1.283723,0.277042,-0.029789,0.040941,-0.402457,0.239859,-0.357781,0.830117,0.132976,0.614209,1.899798,-3.406629,2.300479,0.023567,0.039561,0.000000,0.014558,-0.079105,-0.000000
4.560000,2.923562,-0.865825,-1.283332,0.273060,-0.027384,0.037394,-0.394062,0.241021,-0.351526,0.848804,0.099517,0.636567,1.862671,-3.271284,2.160326,0.023697,0.038760,0.000000,0.011339,-0.080957,-0.000000
4.570000,2.926273,-0.866087,-1.282975,0.269162,-0.024969,0.033911,-0.385480,0.241855,-0.345055,0.867579,0.067679,0.657317,1.864101,-3.109558,2.000242,0.023795,0.037941,0.000000,0.008270,-0.082833,0.000000
4.580000,2.928945,-0.866324,-1.282653,0.265351,-0.022548,0.030494,-0.376713,0.242378,-0.338384,0.885498,0.037043,0.676794,1.716907,-3.018047,1.895663,0.023862,0.037103,0.000000,0.005311,-0.084639,-0.000000
4.590000,2.931580,-0.866538,-1.282365,0.261628,-0.020123,0.027144,-0.367774,0.242600,-0.331523,0.902408,0.007590,0.695018,1.689666,-2.859073,1.738613,0.023901,0.036248,0.000000,0.002460,-0.086358,0.000000
4.600000,2.934178,-0.866727,-1.282110,0.257996,-0.017697,0.023864,-0.358666,0.242536,-0.324489,0.919025,-0.020254,0.711658,1.605925,-2.723489,1.600004,0.023912,0.035376,0.000000,-0.000243,-0.088062,-0.000000
4.610000,2.936740,-0.866892,-1.281887,0.254455,-0.015273,0.020655,-0.349397,0.242199,-0.317294,0.934508,-0.046903,0.727016,1.510349,-2.589582,1.462285,0.023897,0.034487,0.000000,-0.002837,-0.089667,0.000000
4.620000,2.939268,-0.867032,-1.281697,0.251008,-0.012854,0.017519,-0.339977,0.241603,-0.309954,0.949395,-0.071895,0.740817,1.444236,-2.425214,1.307171,0.023856,0.033582,0.000000,-0.005277,-0.091226,0.000000
4.630000,2.941761,-0.867149,-1.281537,0.247656,-0.010442,0.014456,-0.330414,0.240765,-0.302482,0.962915,-0.095752,0.753356,1.257501,-2.347037,1.200971,0.023791,0.032662,0.000000,-0.007615,-0.092661,0.000000
4.640000,2.944221,-0.867241,-1.281407,0.244400,-0.008039,0.011469,-0.320724,0.239692,-0.294891,0.974935,-0.118511,0.764650,1.166041,-2.188455,1.048593,0.023704,0.031729,0.000000,-0.009852,-0.093959,-0.000000
4.650000,2.946649,-0.867310,-1.281307,0.241242,-0.005649,0.008559,-0.310918,0.238400,-0.287194,0.986014,-0.139664,0.774411,1.027706,-2.059034,0.912711,0.023595,0.030783,0.000000,-0.011940,-0.095174,0.000000
4.660000,2.949046,-0.867354,-1.281236,0.238182,-0.003272,0.005726,-0.301010,0.236902,-0.279406,0.995437,-0.159730,0.782924,0.878543,-1.932701,0.777819,0.023466,0.029825,0.000000,-0.013928,-0.096234,-0.000000
4.670000,2.951413,-0.867375,-1.281192,0.235222,-0.000911,0.002971,-0.291013,0.235211,-0.271541,1.003768,-0.178124,0.789858,0.763508,-1.767533,0.620787,0.023317,0.028858,0.000000,-0.015760,-0.097196,0.000000
4.680000,2.953751,-0.867373,-1.281176,0.232362,0.001432,0.000295,-0.280941,0.233343,-0.263613,1.010199,-0.195529,0.795585,0.520428,-1.714389,0.524957,0.023151,0.027882,0.000000,-0.017501,-0.097977,0.000000
4.690000,2.956061,-0.867347,-1.281186,0.229603,0.003755,-0.002301,-0.270816,0.231304,-0.255633,1.014606,-0.211992,0.800122,0.382264,-1.557395,0.370736,0.022967,0.026898,0.000000,-0.019156,-0.098563,-0.000000
4.700000,2.958343,-0.867298,-1.281222,0.226946,0.006057,-0.004817,-0.260653,0.229109,-0.247616,1.017633,-0.226862,0.803100,0.197716,-1.438306,0.236522,0.022768,0.025910,0.000000,-0.020661,-0.099019,-0.000000
4.710000,2.960600,-0.867226,-1.281282,0.224390,0.008337,-0.007253,-0.250470,0.226769,-0.239575,1.018516,-0.240797,0.804869,0.003248,-1.322888,0.103114,0.022554,0.024918,0.000000,-0.022080,-0.099266,-0.000000
4.720000,2.962832,-0.867131,-1.281367,0.221937,0.010592,-0.009609,-0.240287,0.224299,-0.231524,1.017909,-0.253085,0.805030,-0.150769,-1.160476,-0.057087,0.022327,0.023925,0.000000,-0.023342,-0.099370,-0.000000
4.730000,2.965039,-0.867014,-1.281474,0.219585,0.012822,-0.011884,-0.230120,0.221710,-0.223478,1.014955,-0.264548,0.804017,-0.441959,-1.133071,-0.145303,0.022088,0.022931,0.000000,-0.024527,-0.099242,0.000000
4.740000,2.967224,-0.866875,-1.281604,0.217334,0.015026,-0.014079,-0.219996,0.219010,-0.215448,1.009552,-0.275239,0.801843,-0.614448,-0.979805,-0.303367,0.021837,0.021940,0.000000,-0.025641,-0.098873,0.000000
4.750000,2.969386,-0.866713,-1.281756,0.215185,0.017202,-0.016193,-0.209934,0.216211,-0.207447,1.002426,-0.284368,0.798063,-0.836041,-0.871932,-0.438620,0.021575,0.020954,0.000000,-0.026605,-0.098332,0.000000
4.760000,2.971528,-0.866531,-1.281928,0.213135,0.019350,-0.018228,-0.199956,0.213325,-0.199490,0.992834,-0.292786,0.793084,-1.063344,-0.768912,-0.573653,0.021305,0.019974,0.000000,-0.027503,-0.097545,-0.000000
4.770000,2.973649,-0.866326,-1.282120,0.211185,0.021468,-0.020183,-0.190084,0.210362,-0.191591,0.981325,-0.299356,0.786436,-1.258343,-0.587050,-0.740294,0.021026,0.019003,0.000000,-0.028221,-0.096566,0.000000
4.780000,2.975752,-0.866101,-1.282331,0.209333,0.023557,-0.022060,-0.180338,0.207339,-0.183765,0.967248,-0.305406,0.778607,-1.558366,-0.624530,-0.825225,0.020740,0.018043,0.000000,-0.028890,-0.095328,0.000000
4.790000,2.977836,-0.865855,-1.282561,0.207578,0.025615,-0.023859,-0.170748,0.204255,-0.176023,0.950535,-0.311006,0.769606,-1.765308,-0.453449,-0.991326,0.020448,0.017097,0.000000,-0.029518,-0.093822,0.000000
4.800000,2.979904,-0.865589,-1.282808,0.205918,0.027642,-0.025580,-0.161334,0.201125,-0.168379,0.931766,-0.314835,0.758911,-2.008565,-0.354354,-1.131904,0.020151,0.016167,0.000000,-0.029973,-0.092106,0.000000
4.810000,2.981955,-0.865303,-1.283072,0.204350,0.029637,-0.027227,-0.152121,0.197959,-0.160848,0.910352,-0.318300,0.747167,-2.253916,-0.261613,-1.270168,0.019849,0.015255,0.000000,-0.030392,-0.090119,-0.000000
4.820000,2.983991,-0.864996,-1.283352,0.202874,0.031601,-0.028798,-0.143134,0.194769,-0.153445,0.886900,-0.319365,0.733004,-2.458913,-0.025492,-1.510845,0.019544,0.014365,0.000000,-0.030576,-0.087924,-0.000000
4.830000,2.986013,-0.864671,-1.283648,0.201487,0.033533,-0.030296,-0.134393,0.191571,-0.146190,0.860705,-0.320364,0.718032,-2.780854,-0.176359,-1.482564,0.019237,0.013498,0.000000,-0.030753,-0.085444,-0.000000
4.840000,2.988021,-0.864326,-1.283958,0.200186,0.035432,-0.031722,-0.125929,0.188361,-0.139086,0.831732,-0.321387,0.702289,-2.991262,0.046925,-1.719045,0.018929,0.012657,0.000000,-0.030933,-0.082677,-0.000000
4.850000,2.990017,-0.863962,-1.284282,0.198967,0.037300,-0.033078,-0.117765,0.185153,-0.132153,0.800689,-0.320050,0.684082,-3.239180,0.145861,-1.870695,0.018620,0.011844,0.000000,-0.030879,-0.079695,-0.000000
4.860000,2.992001,-0.863580,-1.284619,0.197829,0.039136,-0.034366,-0.109924,0.181961,-0.125409,0.767071,-0.318061,0.664581,-3.484125,0.252504,-2.030299,0.018311,0.011063,0.000000,-0.030760,-0.076444,-0.000000
4.870000,2.993973,-0.863180,-1.284969,0.196768,0.040939,-0.035587,-0.102431,0.178795,-0.118867,0.731014,-0.314987,0.643459,-3.726866,0.362943,-2.195105,0.018005,0.010316,0.000000,-0.030532,-0.072937,0.000000
4.880000,2.995936,-0.862761,-1.285331,0.195779,0.042712,-0.036744,-0.095312,0.175665,-0.112545,0.692544,-0.310787,0.620660,-3.966610,0.477860,-2.365641,0.017701,0.009605,0.000000,-0.030191,-0.069177,0.000000
4.890000,2.997889,-0.862325,-1.285704,0.194860,0.044453,-0.037839,-0.088588,0.172583,-0.106460,0.651695,-0.305413,0.596125,-4.202476,0.597927,-2.542430,0.017401,0.008933,0.000000,-0.029732,-0.065166,-0.000000
4.900000,2.999834,-0.861872,-1.286087,0.194006,0.046163,-0.038874,-0.082286,0.169561,-0.100629,0.608502,-0.298808,0.569789,-4.434460,0.723959,-2.726010,0.017107,0.008303,0.000000,-0.029148,-0.060909,-0.000000
4.910000,3.001770,-0.861402,-1.286481,0.193213,0.047844,-0.039852,-0.076426,0.166612,-0.095070,0.563021,-0.290911,0.541580,-4.660940,0.856494,-2.916903,0.016819,0.007716,0.000000,-0.028434,-0.056408,-0.000000
4.920000,3.003698,-0.860916,-1.286884,0.192476,0.049496,-0.040776,-0.071033,0.163748,-0.089804,0.515303,-0.281654,0.511424,-4.881482,0.996277,-3.115641,0.016539,0.007175,0.000000,-0.027582,-0.051671,0.000000
4.930000,3.005619,-0.860412,-1.287296,0.191791,0.051120,-0.041649,-0.066127,0.160983,-0.084849,0.465413,-0.270959,0.479240,-5.095338,1.143993,-3.322764,0.016268,0.006683,0.000000,-0.026583,-0.046704,0.000000
4.940000,3.007534,-0.859893,-1.287717,0.191152,0.052716,-0.042474,-0.061731,0.158334,-0.080226,0.413421,-0.258745,0.444939,-5.301755,1.300311,-3.538831,0.016007,0.006242,0.000000,-0.025430,-0.041513,0.000000
4.950000,3.009442,-0.859358,-1.288146,0.190554,0.054287,-0.043255,-0.057865,0.155814,-0.075957,0.359406,-0.244921,0.408433,-5.499999,1.466025,-3.764183,0.015760,0.005853,0.000000,-0.024114,-0.036108,0.000000
4.960000,3.011345,-0.858808,-1.288582,0.189993,0.055833,-0.043995,-0.054550,0.153441,-0.072065,0.303451,-0.229391,0.369623,-5.689307,1.641706,-3.999571,0.015526,0.005520,0.000000,-0.022624,-0.030496,-0.000000
4.970000,3.013242,-0.858242,-1.289026,0.189461,0.057356,-0.044698,-0.051803,0.151232,-0.068573,0.245652,-0.212052,0.328407,-5.868943,1.828090,-4.245442,0.015308,0.005244,0.000000,-0.020950,-0.024689,-0.000000
4.980000,3.015135,-0.857661,-1.289476,0.188955,0.058858,-0.045368,-0.049642,0.149206,-0.065505,0.186107,-0.192791,0.284678,-6.038179,2.025875,-4.502326,0.015107,0.005027,0.000000,-0.019081,-0.018698,0.000000
4.990000,3.017022,-0.857065,-1.289933,0.188467,0.060341,-0.046009,-0.048086,0.147383,-0.062888,0.124925,-0.171494,0.238322,-6.196273,2.235765,-4.770744,0.014927,0.004870,0.000000,-0.017005,-0.012534,0.000000
5.000000,3.018904,-0.856454,-1.290396,0.187991,0.061806,-0.046627,-0.047149,0.145783,-0.060748,0.062221,-0.148034,0.189223,-6.342413,2.458454,-5.051203,0.014768,0.004777,0.000000,-0.014710,-0.006211,-0.000000
