time,x,y,z,vx,vy,vz,ax,ay,az,jx,jy,jz,sx,sy,sz,roll,pitch,yaw,p,q,r
0.000000,-3.281270,0.254731,-1.486751,-0.003119,0.005747,0.007328,-0.016293,0.031000,-0.072815,-0.629114,1.549208,-2.637465,22.436842,0.309293,88.114137,0.003137,0.001649,0.000000,0.155919,0.063217,-0.000000
0.010000,-3.281301,0.254789,-1.486677,-0.003282,0.006057,0.006600,-0.022584,0.046492,-0.099190,-0.404746,1.552301,-1.756324,53.142955,-37.910217,186.913796,0.004692,0.002279,0.000000,0.155817,0.040441,0.000000
0.020000,-3.281336,0.254853,-1.486619,-0.003571,0.006677,0.005344,-0.024388,0.062046,-0.107942,0.433745,0.791003,1.100810,79.907911,-75.636882,221.191593,0.006256,0.002459,0.000000,0.080446,-0.043459,0.000000
0.030000,-3.281373,0.254922,-1.486571,-0.003770,0.007298,0.004441,-0.013910,0.062312,-0.077173,1.193413,0.039563,2.667508,52.056880,-36.408498,41.023268,0.006302,0.001407,0.000000,0.005703,-0.120321,0.000000
0.040000,-3.281411,0.254999,-1.486530,-0.003849,0.007923,0.003801,-0.000520,0.062837,-0.054591,1.474883,0.062833,1.921276,27.192916,2.060057,-67.830559,0.006370,0.000053,0.000000,0.007610,-0.149499,0.000000
0.050000,-3.281450,0.255081,-1.486495,-0.003780,0.008555,0.003349,0.015588,0.063569,-0.038748,1.737271,0.080764,1.310897,25.301315,1.519138,-55.104312,0.006454,-0.001583,0.000000,0.009057,-0.176602,-0.000000
0.060000,-3.281487,0.255170,-1.486463,-0.003538,0.009195,0.003026,0.034225,0.064452,-0.028373,1.980909,0.093216,0.819190,23.444223,0.966613,-44.040743,0.006551,-0.003479,0.000000,0.010015,-0.201628,0.000000
0.070000,-3.281521,0.255265,-1.486434,-0.003096,0.009844,0.002782,0.055206,0.065433,-0.022364,2.206155,0.100096,0.430082,21.624362,0.407091,-34.529097,0.006655,-0.005615,0.000000,0.010462,-0.224610,-0.000000
0.080000,-3.281549,0.255367,-1.486407,-0.002433,0.010503,0.002578,0.078349,0.066454,-0.019772,2.413396,0.101358,0.128608,19.844470,-0.154814,-26.458615,0.006760,-0.007970,0.000000,0.010386,-0.245602,0.000000
0.090000,-3.281569,0.255475,-1.486382,-0.001529,0.011173,0.002386,0.103474,0.067460,-0.019792,2.603045,0.097000,-0.099091,18.107272,-0.714494,-19.718532,0.006862,-0.010526,0.000000,0.009779,-0.264670,-0.000000
0.100000,-3.281579,0.255590,-1.486360,-0.000364,0.011853,0.002183,0.130409,0.068394,-0.021754,2.775542,0.087068,-0.265763,16.415487,-1.267340,-14.198078,0.006956,-0.013263,0.000000,0.008641,-0.281889,0.000000
0.110000,-3.281577,0.255712,-1.486339,0.001079,0.012541,0.001951,0.158985,0.069201,-0.025107,2.931354,0.071653,-0.383052,14.771857,-1.808740,-9.786510,0.007035,-0.016164,0.000000,0.006976,-0.297335,-0.000000
0.120000,-3.281558,0.255841,-1.486321,0.002816,0.013237,0.001680,0.189037,0.069827,-0.029415,3.070979,0.050893,-0.461493,13.179065,-2.334086,-6.373066,0.007095,-0.019210,0.000000,0.004796,-0.311086,0.000000
0.130000,-3.281520,0.255977,-1.486305,0.004860,0.013937,0.001363,0.220405,0.070219,-0.034337,3.194936,0.024972,-0.510513,11.639840,-2.838767,-3.846976,0.007131,-0.022385,0.000000,0.002114,-0.323214,-0.000000
0.140000,-3.281461,0.256120,-1.486293,0.007224,0.014641,0.000994,0.252935,0.070327,-0.039625,3.303775,-0.005882,-0.538433,10.157051,-3.318173,-2.097515,0.007138,-0.025674,0.000000,-0.001048,-0.333789,0.000000
0.150000,-3.281376,0.256270,-1.486285,0.009919,0.015344,0.000570,0.286480,0.070102,-0.045106,3.398077,-0.041392,-0.552464,8.733315,-3.767695,-1.013900,0.007110,-0.029061,0.000000,-0.004668,-0.342876,0.000000
0.160000,-3.281262,0.256426,-1.486282,0.012953,0.016043,0.000092,0.320897,0.069499,-0.050674,3.478442,-0.081236,-0.558711,7.371189,-4.182723,-0.485336,0.007044,-0.032532,0.000000,-0.008713,-0.350535,0.000000
0.170000,-3.281117,0.256590,-1.486284,0.016337,0.016734,-0.000443,0.356049,0.068477,-0.056280,3.545501,-0.125046,-0.562170,6.074870,-4.557220,-0.383940,0.006936,-0.036072,0.000000,-0.013150,-0.356826,-0.000000
0.180000,-3.280936,0.256761,-1.486291,0.020074,0.017413,-0.001034,0.391807,0.066998,-0.061918,3.599939,-0.172380,-0.566389,4.869242,-4.861663,-0.298891,0.006781,-0.039668,0.000000,-0.017934,-0.361809,-0.000000
0.190000,-3.280715,0.256939,-1.486304,0.024173,0.018074,-0.001681,0.428048,0.065029,-0.067608,3.642885,-0.222280,-0.568148,3.749239,-5.100057,-0.223166,0.006577,-0.043308,0.000000,-0.022964,-0.365615,-0.000000
0.200000,-3.280452,0.257123,-1.486324,0.028635,0.018713,-0.002386,0.464665,0.062552,-0.073281,3.674924,-0.274382,-0.570853,2.554571,-5.451632,-2.260174,0.006322,-0.046981,0.000000,-0.028205,-0.368295,-0.000000
0.210000,-3.280142,0.257313,-1.486352,0.033466,0.019325,-0.003147,0.501546,0.059542,-0.079025,3.693977,-0.331312,-0.613352,1.305470,-5.892080,-6.061914,0.006013,-0.050674,0.000000,-0.033944,-0.369440,-0.000000
0.220000,-3.279783,0.257509,-1.486387,0.038666,0.019904,-0.003967,0.538544,0.055926,-0.085548,3.701033,-0.392223,-0.692091,0.471905,-5.889977,-5.168965,0.005643,-0.054369,0.000000,-0.040085,-0.369105,0.000000
0.230000,-3.279369,0.257711,-1.486431,0.044237,0.020444,-0.004858,0.575567,0.051697,-0.092867,3.703415,-0.449112,-0.716731,0.061068,-5.436688,0.643073,0.005212,-0.058056,0.000000,-0.045763,-0.368518,-0.000000
0.240000,-3.278898,0.257918,-1.486484,0.050178,0.020938,-0.005824,0.612612,0.046944,-0.099882,3.702255,-0.500957,-0.679230,-0.571947,-5.257517,2.671418,0.004728,-0.061740,0.000000,-0.050885,-0.367945,-0.000000
0.250000,-3.278366,0.258130,-1.486548,0.056489,0.021382,-0.006856,0.649612,0.041678,-0.106451,3.691976,-0.554262,-0.663303,-1.463043,-5.383951,0.110904,0.004194,-0.065415,0.000000,-0.056154,-0.366351,0.000000
0.260000,-3.277768,0.258346,-1.486622,0.063170,0.021771,-0.007953,0.686452,0.035859,-0.113148,3.672994,-0.608636,-0.677012,-2.181761,-5.329875,-1.076979,0.003605,-0.069067,0.000000,-0.061525,-0.363682,0.000000
0.270000,-3.277102,0.258565,-1.486707,0.070218,0.022100,-0.009119,0.723072,0.029505,-0.119992,3.648341,-0.660860,-0.684842,-2.777032,-5.170216,-0.357570,0.002963,-0.072689,0.000000,-0.066658,-0.360471,-0.000000
0.280000,-3.276364,0.258788,-1.486804,0.077631,0.022362,-0.010353,0.759419,0.022642,-0.126845,3.617453,-0.712040,-0.684163,-3.411101,-5.085401,0.212731,0.002272,-0.076276,0.000000,-0.071666,-0.356698,-0.000000
0.290000,-3.275550,0.259012,-1.486914,0.085407,0.022552,-0.011656,0.795421,0.015265,-0.133675,3.580119,-0.762568,-0.680588,-3.985547,-4.933790,0.466951,0.001530,-0.079823,0.000000,-0.076592,-0.352310,0.000000
0.300000,-3.274656,0.259239,-1.487037,0.093540,0.022667,-0.013026,0.831021,0.007390,-0.140457,3.537742,-0.810716,-0.674824,-4.444626,-4.657987,0.681962,0.000740,-0.083323,0.000000,-0.081264,-0.347448,0.000000
0.310000,-3.273679,0.259466,-1.487174,0.102027,0.022700,-0.014465,0.866176,-0.000950,-0.147171,3.491226,-0.855727,-0.666948,-4.870189,-4.367256,0.897487,-0.000095,-0.086772,0.000000,-0.085608,-0.342208,0.000000
0.320000,-3.272615,0.259693,-1.487326,0.110863,0.022648,-0.015970,0.900846,-0.009724,-0.153796,3.440339,-0.898061,-0.656874,-5.356166,-4.138279,1.114259,-0.000972,-0.090167,0.000000,-0.089673,-0.336572,-0.000000
0.330000,-3.271462,0.259919,-1.487494,0.120044,0.022506,-0.017541,0.934983,-0.018911,-0.160309,3.384103,-0.938493,-0.644663,-5.884944,-3.940073,1.323420,-0.001888,-0.093503,0.000000,-0.093537,-0.330448,0.000000
0.340000,-3.270214,0.260143,-1.487677,0.129563,0.022270,-0.019176,0.968528,-0.028494,-0.166689,3.322640,-0.976863,-0.630406,-6.342153,-3.682243,1.524794,-0.002843,-0.096776,0.000000,-0.097187,-0.323853,0.000000
0.350000,-3.268870,0.260364,-1.487877,0.139414,0.021936,-0.020874,1.001435,-0.038448,-0.172917,3.257260,-1.012138,-0.614167,-6.700870,-3.350901,1.718802,-0.003832,-0.099980,0.000000,-0.100522,-0.316920,0.000000
0.360000,-3.267426,0.260582,-1.488095,0.149592,0.021501,-0.022634,1.033673,-0.048737,-0.178972,3.188622,-1.043881,-0.596030,-7.044590,-3.010105,1.904263,-0.004853,-0.103114,0.000000,-0.103501,-0.309719,-0.000000
0.370000,-3.265878,0.260794,-1.488330,0.160088,0.020961,-0.024454,1.065208,-0.059326,-0.184837,3.116368,-1.072340,-0.576082,-7.447456,-2.701641,2.081057,-0.005902,-0.106175,0.000000,-0.106151,-0.302217,-0.000000
0.380000,-3.264224,0.261001,-1.488584,0.170896,0.020314,-0.026331,1.096000,-0.070184,-0.190494,3.039673,-1.097914,-0.554409,-7.888480,-2.407455,2.248777,-0.006976,-0.109159,0.000000,-0.108515,-0.294334,-0.000000
0.390000,-3.262461,0.261200,-1.488857,0.182008,0.019557,-0.028264,1.126001,-0.081284,-0.195926,2.958598,-1.120489,-0.531107,-8.277856,-2.078778,2.406097,-0.008072,-0.112062,0.000000,-0.110585,-0.286079,-0.000000
0.400000,-3.260584,0.261392,-1.489149,0.193416,0.018689,-0.030250,1.155172,-0.092594,-0.201116,2.874116,-1.139489,-0.506287,-8.595413,-1.708690,2.552602,-0.009188,-0.114881,0.000000,-0.112304,-0.277550,0.000000
0.410000,-3.258592,0.261574,-1.489462,0.205111,0.017706,-0.032286,1.183484,-0.104074,-0.206051,2.786690,-1.154663,-0.480055,-8.905417,-1.331815,2.688155,-0.010319,-0.117613,0.000000,-0.113650,-0.268792,-0.000000
0.420000,-3.256482,0.261746,-1.489795,0.217086,0.016607,-0.034371,1.210906,-0.115687,-0.210717,2.696008,-1.166125,-0.452524,-9.263900,-0.969885,2.811318,-0.011461,-0.120257,0.000000,-0.114639,-0.259776,0.000000
0.430000,-3.254250,0.261906,-1.490149,0.229329,0.015392,-0.036500,1.237404,-0.127396,-0.215102,2.601412,-1.174061,-0.423828,-9.654025,-0.613093,2.921079,-0.012611,-0.122809,0.000000,-0.115289,-0.250436,0.000000
0.440000,-3.251895,0.262054,-1.490525,0.241834,0.014059,-0.038673,1.262934,-0.139168,-0.219194,2.502927,-1.178387,-0.394102,-10.006840,-0.236480,3.018073,-0.013767,-0.125266,0.000000,-0.115595,-0.240775,0.000000
0.450000,-3.249414,0.262187,-1.490922,0.254588,0.012608,-0.040884,1.287462,-0.150964,-0.222984,2.401275,-1.178790,-0.363467,-10.306212,0.162546,3.103369,-0.014923,-0.127625,0.000000,-0.115527,-0.230862,0.000000
0.460000,-3.246804,0.262306,-1.491342,0.267583,0.011040,-0.043132,1.310960,-0.162744,-0.226463,2.296803,-1.175136,-0.332035,-10.600607,0.566142,3.175398,-0.016077,-0.129884,0.000000,-0.115075,-0.220730,-0.000000
0.470000,-3.244062,0.262408,-1.491785,0.280807,0.009354,-0.045414,1.333398,-0.174467,-0.229625,2.189263,-1.167467,-0.299959,-10.933054,0.965255,3.229068,-0.017225,-0.132041,0.000000,-0.114244,-0.210352,-0.000000
0.480000,-3.241187,0.262493,-1.492251,0.294251,0.007550,-0.047725,1.354745,-0.186093,-0.232462,2.078142,-1.155831,-0.267453,-11.290241,1.365111,3.263403,-0.018362,-0.134092,0.000000,-0.113039,-0.199675,-0.000000
0.490000,-3.238177,0.262559,-1.492740,0.307902,0.005632,-0.050063,1.374961,-0.197583,-0.234974,1.963458,-1.140165,-0.234691,-11.617926,1.775243,3.284116,-0.019486,-0.136035,0.000000,-0.111456,-0.188697,-0.000000
0.500000,-3.235029,0.262606,-1.493252,0.321750,0.003599,-0.052424,1.394014,-0.208896,-0.237156,1.845783,-1.120326,-0.201771,-11.903013,2.194663,3.295495,-0.020591,-0.137867,0.000000,-0.109482,-0.177471,-0.000000
0.510000,-3.231742,0.262631,-1.493788,0.335782,0.001454,-0.054806,1.411877,-0.219990,-0.239009,1.725398,-1.096272,-0.168781,-12.182690,2.616335,3.292441,-0.021675,-0.139585,0.000000,-0.107111,-0.166022,0.000000
0.520000,-3.228314,0.262635,-1.494348,0.349988,-0.000801,-0.057204,1.428522,-0.230822,-0.240532,1.602130,-1.068000,-0.135922,-12.489797,3.041050,3.261687,-0.022734,-0.141188,0.000000,-0.104345,-0.154327,-0.000000
0.530000,-3.224742,0.262615,-1.494932,0.364353,-0.003163,-0.059617,1.443919,-0.241350,-0.241727,1.475602,-1.035451,-0.103547,-12.813384,3.471040,3.202852,-0.023762,-0.142673,0.000000,-0.101177,-0.142343,0.000000
0.540000,-3.221027,0.262572,-1.495540,0.378866,-0.005628,-0.062039,1.458034,-0.251531,-0.242603,1.345862,-0.998579,-0.071865,-13.110834,3.903392,3.132999,-0.024757,-0.144036,0.000000,-0.097603,-0.130068,-0.000000
0.550000,-3.217165,0.262503,-1.496173,0.393514,-0.008193,-0.064469,1.470837,-0.261322,-0.243165,1.213386,-0.957383,-0.040887,-13.371930,4.334330,3.060941,-0.025714,-0.145275,0.000000,-0.093620,-0.117546,0.000000
0.560000,-3.213156,0.262408,-1.496830,0.408283,-0.010854,-0.066902,1.482302,-0.270679,-0.243421,1.078423,-0.911892,-0.010646,-13.624964,4.765325,2.973938,-0.026630,-0.146388,0.000000,-0.089231,-0.104797,-0.000000
0.570000,-3.208999,0.262286,-1.497511,0.423160,-0.013607,-0.069337,1.492405,-0.279559,-0.243378,0.940886,-0.862077,0.018592,-13.893419,5.203976,2.848367,-0.027499,-0.147372,0.000000,-0.084432,-0.091805,-0.000000
0.580000,-3.204693,0.262136,-1.498217,0.438131,-0.016446,-0.071770,1.501120,-0.287920,-0.243049,0.800555,-0.807813,0.046321,-14.167986,5.649884,2.685986,-0.028318,-0.148225,0.000000,-0.079209,-0.078538,0.000000
0.590000,-3.200237,0.261957,-1.498946,0.453182,-0.019365,-0.074198,1.508416,-0.295716,-0.242451,0.657527,-0.749079,0.072311,-14.417109,6.091377,2.518117,-0.029083,-0.148943,0.000000,-0.073555,-0.064997,0.000000
0.600000,-3.195630,0.261748,-1.499701,0.468299,-0.022360,-0.076619,1.514270,-0.302902,-0.241602,0.512213,-0.685985,0.096683,-14.634126,6.523058,2.358503,-0.029790,-0.149525,0.000000,-0.067482,-0.051222,0.000000
0.610000,-3.190871,0.261509,-1.500479,0.483467,-0.025423,-0.079030,1.518661,-0.309435,-0.240518,0.364844,-0.618618,0.119481,-14.839019,6.952138,2.185144,-0.030433,-0.149968,0.000000,-0.060994,-0.037230,-0.000000
0.620000,-3.185960,0.261240,-1.501281,0.498672,-0.028549,-0.081429,1.521567,-0.315274,-0.239213,0.215432,-0.546942,0.140386,-15.044885,7.389735,1.963524,-0.031010,-0.150270,0.000000,-0.054086,-0.023014,-0.000000
0.630000,-3.180897,0.260938,-1.502107,0.513899,-0.031729,-0.083814,1.522969,-0.320374,-0.237710,0.063946,-0.470823,0.158752,-15.243934,7.833443,1.698306,-0.031515,-0.150429,0.000000,-0.046740,-0.008558,0.000000
0.640000,-3.175682,0.260605,-1.502957,0.529132,-0.034956,-0.086183,1.522846,-0.324691,-0.236038,-0.089446,-0.390274,0.174352,-15.417507,8.266919,1.436089,-0.031944,-0.150441,0.000000,-0.038954,0.006129,-0.000000
0.650000,-3.170315,0.260239,-1.503831,0.544356,-0.038223,-0.088535,1.521180,-0.328180,-0.234223,-0.244404,-0.305485,0.187474,-15.563388,8.684057,1.195512,-0.032294,-0.150306,0.000000,-0.030745,0.021013,0.000000
0.660000,-3.164795,0.259841,-1.504728,0.559555,-0.041520,-0.090868,1.517958,-0.330800,-0.232288,-0.400714,-0.216592,0.198263,-15.692115,9.094903,0.944906,-0.032559,-0.150021,0.000000,-0.022123,0.036075,0.000000
0.670000,-3.159124,0.259409,-1.505648,0.574715,-0.044839,-0.093181,1.513166,-0.332512,-0.230258,-0.558246,-0.123587,0.206372,-15.804684,9.511757,0.639550,-0.032736,-0.149584,0.000000,-0.013084,0.051309,-0.000000
0.680000,-3.153301,0.258944,-1.506592,0.589819,-0.048170,-0.095473,1.506793,-0.333272,-0.228161,-0.716808,-0.026357,0.211054,-15.895372,9.930879,0.287707,-0.032821,-0.148994,0.000000,-0.003612,0.066712,-0.000000
0.690000,-3.147327,0.258446,-1.507558,0.604851,-0.051504,-0.097744,1.498830,-0.333039,-0.226037,-0.876154,0.075031,0.212126,-15.961177,10.334136,-0.049360,-0.032809,-0.148249,0.000000,0.006290,0.082264,0.000000
0.700000,-3.141204,0.257914,-1.508547,0.619795,-0.054831,-0.099994,1.489270,-0.331771,-0.223918,-1.036031,0.180325,0.210066,-16.005147,10.716198,-0.349915,-0.032695,-0.147348,0.000000,0.016599,0.097935,-0.000000
0.710000,-3.134931,0.257349,-1.509558,0.634636,-0.058139,-0.102222,1.478109,-0.329432,-0.221835,-1.196257,0.289355,0.205128,-16.026823,11.087872,-0.654421,-0.032476,-0.146289,0.000000,0.027298,0.113703,-0.000000
0.720000,-3.128511,0.256751,-1.510591,0.649357,-0.061419,-0.104430,1.465345,-0.325984,-0.219816,-1.356568,0.402083,0.196978,-16.013886,11.458470,-1.012157,-0.032149,-0.145072,0.000000,0.038387,0.129551,0.000000
0.730000,-3.121944,0.256121,-1.511646,0.663943,-0.064659,-0.106619,1.450978,-0.321390,-0.217896,-1.516534,0.518524,0.184885,-15.963433,11.823355,-1.410820,-0.031709,-0.143697,0.000000,0.049872,0.145444,-0.000000
0.740000,-3.115232,0.255458,-1.512723,0.678377,-0.067847,-0.108788,1.435014,-0.315614,-0.216118,-1.675836,0.638550,0.168762,-15.890024,12.168205,-1.781970,-0.031152,-0.142162,0.000000,0.061742,0.161353,0.000000
0.750000,-3.108377,0.254764,-1.513822,0.692643,-0.070971,-0.110941,1.417461,-0.308620,-0.214520,-1.834335,0.761888,0.149245,-15.802139,12.489889,-2.104150,-0.030474,-0.140468,0.000000,0.073967,0.177252,-0.000000
0.760000,-3.101379,0.254038,-1.514942,0.706726,-0.074020,-0.113079,1.398327,-0.300376,-0.213133,-1.991879,0.888348,0.126679,-15.687452,12.796168,-2.421137,-0.029672,-0.138615,0.000000,0.086528,0.193120,0.000000
0.770000,-3.094242,0.253283,-1.516084,0.720610,-0.076979,-0.115204,1.377623,-0.290853,-0.211987,-2.148084,1.017812,0.100822,-15.520793,13.090338,-2.778172,-0.028743,-0.136604,0.000000,0.099414,0.208919,-0.000000
0.780000,-3.086967,0.252499,-1.517246,0.734279,-0.079837,-0.117319,1.355366,-0.280020,-0.211117,-2.302295,1.150155,0.071115,-15.302801,13.368111,-3.159834,-0.027684,-0.134435,0.000000,0.112613,0.224589,-0.000000
0.790000,-3.079557,0.251687,-1.518430,0.747717,-0.082579,-0.119426,1.331578,-0.267849,-0.210565,-2.454140,1.285174,0.037626,-15.065346,13.622954,-3.501944,-0.026491,-0.132111,0.000000,0.126102,0.240086,0.000000
0.800000,-3.072013,0.250847,-1.519635,0.760910,-0.085194,-0.121530,1.306283,-0.254316,-0.210364,-2.603602,1.422614,0.001076,-14.821385,13.854533,-3.788569,-0.025162,-0.129632,0.000000,0.139852,0.255395,0.000000
0.810000,-3.064338,0.249983,-1.520861,0.773843,-0.087666,-0.123633,1.279506,-0.239397,-0.210543,-2.750567,1.562265,-0.038146,-14.547324,14.065030,-4.058819,-0.023694,-0.127001,0.000000,0.153836,0.270492,-0.000000
0.820000,-3.056536,0.249094,-1.522108,0.786500,-0.089982,-0.125741,1.251272,-0.223071,-0.211127,-2.894549,1.703914,-0.080100,-14.208539,14.250645,-4.340612,-0.022085,-0.124220,0.000000,0.168029,0.285324,-0.000000
0.830000,-3.048608,0.248183,-1.523375,0.798868,-0.092127,-0.127856,1.221615,-0.205319,-0.212145,-3.034738,1.847278,-0.124958,-13.809854,14.408441,-4.617254,-0.020333,-0.121293,0.000000,0.182400,0.299806,0.000000
0.840000,-3.040559,0.247251,-1.524665,0.810933,-0.094088,-0.129984,1.190577,-0.186125,-0.213626,-3.170746,1.992083,-0.172445,-13.396187,14.541144,-4.846818,-0.018437,-0.118223,0.000000,0.196914,0.313888,-0.000000
0.850000,-3.032390,0.246301,-1.525975,0.822680,-0.095850,-0.132128,1.158200,-0.165477,-0.215594,-3.302662,2.138101,-0.221894,-12.981316,14.651162,-5.024798,-0.016395,-0.115014,0.000000,0.211541,0.327564,-0.000000
0.860000,-3.024105,0.245334,-1.527307,0.834097,-0.097397,-0.134295,1.124524,-0.143363,-0.218064,-3.430372,2.285106,-0.272941,-12.533763,14.734316,-5.173562,-0.014206,-0.111671,0.000000,0.226250,0.340809,-0.000000
0.870000,-3.015708,0.244353,-1.528661,0.845170,-0.098717,-0.136490,1.089592,-0.119775,-0.221053,-3.553337,2.432787,-0.325366,-12.019634,14.780243,-5.290443,-0.011870,-0.108198,0.000000,0.241003,0.353560,0.000000
0.880000,-3.007202,0.243360,-1.530037,0.855888,-0.099793,-0.138717,1.053457,-0.094708,-0.224572,-3.670765,2.580711,-0.378750,-11.447597,14.787790,-5.361159,-0.009386,-0.104600,0.000000,0.255748,0.365727,-0.000000
0.890000,-2.998590,0.242357,-1.531435,0.866239,-0.100611,-0.140981,1.016177,-0.068161,-0.228628,-3.782289,2.728543,-0.432589,-10.862022,14.768397,-5.384086,-0.006755,-0.100883,0.000000,0.270443,0.377261,0.000000
0.900000,-2.989877,0.241348,-1.532857,0.876212,-0.101156,-0.143289,0.977811,-0.040137,-0.233223,-3.888005,2.876079,-0.486432,-10.274163,14.727206,-5.371293,-0.003978,-0.097054,0.000000,0.285060,0.388160,-0.000000
0.910000,-2.981066,0.240334,-1.534301,0.885796,-0.101414,-0.145646,0.938417,-0.010639,-0.238356,-3.987772,3.023087,-0.540015,-9.654128,14.654249,-5.316748,-0.001054,-0.093120,0.000000,0.299567,0.398402,0.000000
0.920000,-2.972161,0.239320,-1.535770,0.894980,-0.101369,-0.148056,0.898056,0.020325,-0.244024,-4.081088,3.169164,-0.592767,-8.976231,14.532807,-5.176048,0.002014,-0.089087,0.000000,0.313917,0.407927,0.000000
0.930000,-2.963166,0.238307,-1.537262,0.903757,-0.101007,-0.150526,0.856795,0.052744,-0.250212,-4.167297,3.313743,-0.643536,-8.250242,14.363783,-4.941025,0.005224,-0.084962,0.000000,0.328045,0.416656,-0.000000
0.940000,-2.954086,0.237299,-1.538780,0.912116,-0.100314,-0.153060,0.814710,0.086600,-0.256894,-4.246092,3.456440,-0.691587,-7.510207,14.167244,-4.666179,0.008574,-0.080754,0.000000,0.341909,0.424551,-0.000000
0.950000,-2.944924,0.236301,-1.540323,0.920051,-0.099275,-0.155664,0.771873,0.121873,-0.264043,-4.317501,3.597088,-0.736859,-6.762044,13.948771,-4.386191,0.012062,-0.076471,0.000000,0.355486,0.431616,-0.000000
0.960000,-2.935685,0.235314,-1.541893,0.927554,-0.097877,-0.158341,0.728360,0.158542,-0.271631,-4.381333,3.735415,-0.779311,-5.984047,13.693020,-4.056712,0.015684,-0.072121,0.000000,0.368747,0.437831,-0.000000
0.970000,-2.926373,0.234343,-1.543490,0.934618,-0.096104,-0.161097,0.684247,0.196581,-0.279630,-4.437182,3.870948,-0.817993,-5.165275,13.383946,-3.578573,0.019436,-0.067713,0.000000,0.381641,0.443152,0.000000
0.980000,-2.916992,0.233392,-1.545115,0.941239,-0.093945,-0.163934,0.639616,0.235961,-0.287991,-4.484639,4.003094,-0.850882,-4.314644,13.024790,-2.953746,0.023316,-0.063256,0.000000,0.394114,0.447532,-0.000000
0.990000,-2.907548,0.232464,-1.546769,0.947410,-0.091385,-0.166856,0.594554,0.276643,-0.296647,-4.523475,4.131444,-0.877068,-3.447174,12.634732,-2.311507,0.027318,-0.058760,0.000000,0.406130,0.450950,0.000000
1.000000,-2.898044,0.231564,-1.548452,0.953130,-0.088412,-0.169867,0.549146,0.318589,-0.305533,-4.553582,4.255789,-0.897113,-2.560126,12.218399,-1.710842,0.031438,-0.054234,0.000000,0.417672,0.453411,-0.000000
1.010000,-2.888485,0.230696,-1.550166,0.958393,-0.085013,-0.172967,0.503482,0.361759,-0.314590,-4.574678,4.375812,-0.911285,-1.645601,11.761600,-1.058016,0.035671,-0.049688,0.000000,0.428713,0.454899,0.000000
1.020000,-2.878876,0.229864,-1.551912,0.963199,-0.081177,-0.176159,0.457653,0.406106,-0.323758,-4.586494,4.491021,-0.918273,-0.715338,11.250918,-0.199937,0.040012,-0.045131,0.000000,0.439215,0.455394,0.000000
1.030000,-2.869221,0.229072,-1.553689,0.967546,-0.076891,-0.179442,0.411752,0.451579,-0.332955,-4.588984,4.600830,-0.915284,0.225031,10.688963,0.845530,0.044456,-0.040573,0.000000,0.449145,0.454894,0.000000
1.040000,-2.859525,0.228326,-1.555501,0.971434,-0.072145,-0.182818,0.365873,0.498122,-0.342064,-4.581994,4.704800,-0.901362,1.190469,10.092101,1.874661,0.048995,-0.036024,0.000000,0.458478,0.453402,-0.000000
1.050000,-2.849793,0.227630,-1.557346,0.974864,-0.066929,-0.186284,0.320112,0.545675,-0.350982,-4.565175,4.802672,-0.877791,2.190315,9.469559,2.809005,0.053625,-0.031494,0.000000,0.467204,0.450909,0.000000
1.060000,-2.840028,0.226988,-1.559226,0.977837,-0.061232,-0.189837,0.274570,0.594176,-0.359620,-4.538187,4.894191,-0.845182,3.212072,8.809063,3.789395,0.058339,-0.026992,0.000000,0.475312,0.447404,0.000000
1.070000,-2.830236,0.226405,-1.561143,0.980355,-0.055045,-0.193476,0.229349,0.643559,-0.367886,-4.500933,4.978854,-0.802003,4.230325,8.084315,5.007401,0.063131,-0.022530,0.000000,0.482781,0.442893,-0.000000
1.080000,-2.820421,0.225887,-1.563096,0.982424,-0.048361,-0.197195,0.184551,0.693753,-0.375660,-4.453581,5.055877,-0.745034,5.249783,7.298374,6.427684,0.067995,-0.018117,0.000000,0.489580,0.437409,-0.000000
1.090000,-2.810588,0.225438,-1.565087,0.984046,-0.041170,-0.200989,0.140277,0.744676,-0.382787,-4.395938,5.124821,-0.673449,6.301989,6.485857,7.791468,0.072923,-0.013762,0.000000,0.495704,0.430958,-0.000000
1.100000,-2.800740,0.225063,-1.567116,0.985229,-0.033467,-0.204851,0.096632,0.796249,-0.389129,-4.327541,5.185595,-0.589205,7.372341,5.649008,9.007548,0.077909,-0.009474,0.000000,0.501162,0.423526,-0.000000
1.110000,-2.790883,0.224768,-1.569184,0.985979,-0.025245,-0.208772,0.053726,0.848388,-0.394571,-4.248491,5.237801,-0.493298,8.439853,4.764448,10.249084,0.082946,-0.005265,0.000000,0.505939,0.415143,0.000000
1.120000,-2.781020,0.224558,-1.571291,0.986304,-0.016499,-0.212742,0.011662,0.901005,-0.398995,-4.158744,5.280884,-0.384223,9.549812,3.831468,11.728165,0.088028,-0.001142,0.000000,0.510024,0.405826,0.000000
1.130000,-2.771157,0.224438,-1.573438,0.986212,-0.007225,-0.216752,-0.029449,0.954006,-0.402255,-4.057495,5.314431,-0.258735,10.710499,2.855575,13.394109,0.093147,0.002884,0.000000,0.513441,0.395518,-0.000000
1.140000,-2.761296,0.224414,-1.575626,0.985715,0.002581,-0.220787,-0.069487,1.007294,-0.404170,-3.944534,5.337995,-0.116341,11.855765,1.836436,14.955607,0.098297,0.006803,0.000000,0.516193,0.384223,-0.000000
1.150000,-2.751443,0.224490,-1.577854,0.984822,0.012921,-0.224835,-0.108339,1.060766,-0.404582,-3.820379,5.351159,0.040377,12.975809,0.792925,16.321574,0.103472,0.010606,0.000000,0.518255,0.372012,-0.000000
1.160000,-2.741600,0.224672,-1.580123,0.983548,0.023796,-0.228879,-0.145895,1.114317,-0.403362,-3.685018,5.353854,0.210091,14.114147,-0.275822,17.680752,0.108663,0.014284,0.000000,0.519644,0.358894,-0.000000
1.170000,-2.731772,0.224966,-1.582432,0.981905,0.035207,-0.232902,-0.182040,1.167843,-0.400380,-3.538096,5.345643,0.393992,15.278126,-1.427524,19.229766,0.113865,0.017827,0.000000,0.520366,0.344850,0.000000
1.180000,-2.721962,0.225376,-1.584781,0.979907,0.047153,-0.236887,-0.216657,1.221230,-0.395482,-3.379455,5.325303,0.594686,16.458894,-2.669116,20.901711,0.119071,0.021226,0.000000,0.520370,0.329876,-0.000000
1.190000,-2.712173,0.225909,-1.587169,0.977571,0.059632,-0.240812,-0.249629,1.274349,-0.388486,-3.208919,5.292261,0.812027,17.645345,-3.918707,22.421761,0.124274,0.024472,0.000000,0.519641,0.313966,0.000000
1.200000,-2.702410,0.226569,-1.589597,0.974915,0.072640,-0.244656,-0.280835,1.327075,-0.379242,-3.026549,5.246929,1.043121,18.780347,-5.127010,23.740380,0.129465,0.027555,0.000000,0.518222,0.297120,-0.000000
1.210000,-2.692675,0.227362,-1.592063,0.971955,0.086173,-0.248397,-0.310160,1.379288,-0.367624,-2.833312,5.189720,1.286834,19.873052,-6.351383,25.026047,0.134639,0.030465,0.000000,0.516170,0.279426,-0.000000
1.220000,-2.682971,0.228292,-1.594565,0.968711,0.100226,-0.252009,-0.337502,1.430869,-0.353505,-2.629088,5.119901,1.543642,21.087220,-7.712998,26.349478,0.139790,0.033195,0.000000,0.513450,0.260863,0.000000
1.230000,-2.673301,0.229366,-1.597103,0.965205,0.114791,-0.255467,-0.362742,1.481686,-0.336751,-2.411567,5.035460,1.813824,22.427621,-9.199200,27.635777,0.144910,0.035734,0.000000,0.509903,0.241193,-0.000000
1.240000,-2.663667,0.230588,-1.599674,0.961457,0.129859,-0.258744,-0.385733,1.531579,-0.317228,-2.180535,4.935917,2.096358,23.662692,-10.643103,28.777678,0.149989,0.038070,0.000000,0.505493,0.220373,-0.000000
1.250000,-2.654072,0.231963,-1.602278,0.957490,0.145422,-0.261811,-0.406352,1.580404,-0.294824,-1.938313,4.822598,2.389377,24.733127,-11.992554,29.789730,0.155021,0.040192,0.000000,0.500342,0.198594,0.000000
1.260000,-2.644517,0.233497,-1.604910,0.953329,0.161467,-0.264640,-0.424499,1.628031,-0.269441,-1.685873,4.696066,2.692152,25.792990,-13.358690,30.720007,0.159997,0.042090,0.000000,0.494506,0.175915,0.000000
1.270000,-2.635005,0.235193,-1.607570,0.949000,0.177983,-0.267200,-0.440070,1.674325,-0.240981,-1.422454,4.555425,3.003778,26.950470,-14.853747,31.482463,0.164912,0.043756,0.000000,0.487897,0.152219,-0.000000
1.280000,-2.625537,0.237056,-1.610254,0.944528,0.194954,-0.269460,-0.452948,1.719139,-0.209365,-1.146863,4.398991,3.321801,28.149369,-16.443360,32.025631,0.169757,0.045177,0.000000,0.480316,0.127332,0.000000
1.290000,-2.616115,0.239092,-1.612960,0.939941,0.212365,-0.271388,-0.463007,1.762305,-0.174545,-0.859466,4.226557,3.644290,29.244416,-17.973583,32.449259,0.174520,0.046339,0.000000,0.471705,0.101223,0.000000
1.300000,-2.606738,0.241304,-1.615682,0.935268,0.230200,-0.272951,-0.470138,1.803670,-0.136480,-0.561975,4.039520,3.970787,30.227330,-19.395209,32.871344,0.179192,0.047232,0.000000,0.462177,0.073997,-0.000000
1.310000,-2.597409,0.243696,-1.618419,0.930538,0.248439,-0.274117,-0.474246,1.843096,-0.095129,-0.254920,3.838653,4.301717,31.185452,-20.806658,33.195189,0.183765,0.047842,0.000000,0.451797,0.045641,-0.000000
1.320000,-2.588128,0.246272,-1.621165,0.925783,0.267062,-0.274853,-0.475236,1.880443,-0.050445,0.061734,3.623386,4.634690,32.112586,-22.315179,33.068287,0.188230,0.048159,0.000000,0.440443,0.016066,0.000000
1.330000,-2.578894,0.249037,-1.623916,0.921034,0.286048,-0.275126,-0.473012,1.915563,-0.002435,0.387332,3.392350,4.963083,32.971608,-23.884361,32.478685,0.192575,0.048168,0.000000,0.427819,-0.014778,-0.000000
1.340000,-2.569707,0.251993,-1.626667,0.916323,0.305373,-0.274902,-0.467489,1.948290,0.048816,0.721166,3.145699,5.284264,33.765569,-25.362763,31.887288,0.196787,0.047856,0.000000,0.413834,-0.046921,-0.000000
1.350000,-2.560567,0.255145,-1.629414,0.911684,0.325014,-0.274150,-0.458588,1.978477,0.103250,1.062643,2.885094,5.600829,34.485410,-26.728202,31.475495,0.200853,0.047209,0.000000,0.398636,-0.080382,-0.000000
1.360000,-2.551473,0.258494,-1.632150,0.907151,0.344943,-0.272837,-0.446236,2.005992,0.160833,1.410875,2.611135,5.913774,35.118698,-28.072278,30.908345,0.204760,0.046213,0.000000,0.382240,-0.115165,0.000000
1.370000,-2.542424,0.262043,-1.634870,0.902759,0.365133,-0.270933,-0.430371,2.030700,0.221525,1.765017,2.323649,6.218995,35.683422,-29.416540,29.727319,0.208498,0.044854,0.000000,0.364472,-0.151305,0.000000
1.380000,-2.533418,0.265796,-1.637569,0.898544,0.385557,-0.268407,-0.410936,2.052465,0.285213,2.124543,2.022804,6.508320,36.169483,-30.716837,28.009182,0.212050,0.043117,0.000000,0.345082,-0.188886,-0.000000
1.390000,-2.524453,0.269755,-1.640239,0.894540,0.406183,-0.265229,-0.387880,2.071156,0.351692,2.488407,1.709312,6.779179,36.539204,-31.937549,26.352304,0.215399,0.040986,0.000000,0.323972,-0.227915,0.000000
1.400000,-2.515527,0.273920,-1.642873,0.890786,0.426980,-0.261373,-0.361168,2.086651,0.420796,2.855327,1.384053,7.035366,36.837529,-33.104075,24.933997,0.218529,0.038447,0.000000,0.301196,-0.268341,0.000000
1.410000,-2.506638,0.278294,-1.645466,0.887317,0.447916,-0.256813,-0.330774,2.098837,0.492399,3.225158,1.047231,7.277859,37.075698,-34.225294,23.341515,0.221422,0.035485,0.000000,0.276676,-0.310243,-0.000000
1.420000,-2.497781,0.282878,-1.648010,0.884170,0.468957,-0.251525,-0.296665,2.107596,0.566354,3.596841,0.699547,7.502197,37.092182,-35.208123,21.149845,0.224061,0.032083,0.000000,0.250251,-0.353628,-0.000000
1.430000,-2.488954,0.287673,-1.650497,0.881384,0.490068,-0.245486,-0.258837,2.112828,0.642443,3.967001,0.343068,7.700856,36.862091,-36.035364,18.472678,0.226426,0.028226,0.000000,0.221812,-0.398248,0.000000
1.440000,-2.480153,0.292680,-1.652919,0.878994,0.511213,-0.238676,-0.217325,2.114457,0.720371,4.334083,-0.021160,7.871650,36.598998,-36.821543,15.871534,0.228495,0.023905,0.000000,0.191258,-0.444002,-0.000000
1.450000,-2.471374,0.297898,-1.655270,0.877037,0.532357,-0.231078,-0.172155,2.112405,0.799876,4.698981,-0.393363,8.018287,36.377616,-37.587287,13.527430,0.230248,0.019105,0.000000,0.158502,-0.491025,0.000000
1.460000,-2.462613,0.303327,-1.657541,0.875551,0.553461,-0.222678,-0.123345,2.106590,0.880736,5.061635,-0.772906,8.142199,36.041150,-38.243369,11.065059,0.231662,0.013813,0.000000,0.123488,-0.539354,-0.000000
1.470000,-2.453863,0.308967,-1.659724,0.874570,0.574489,-0.213464,-0.070922,2.096947,0.962720,5.419804,-1.158230,8.239588,35.408281,-38.735622,8.054964,0.232714,0.008016,0.000000,0.086131,-0.588780,0.000000
1.480000,-2.445121,0.314817,-1.661810,0.874132,0.595400,-0.203424,-0.014949,2.083426,1.045528,5.769801,-1.547618,8.303298,34.514832,-39.080665,4.616725,0.233381,0.001706,0.000000,0.046277,-0.638896,0.000000
1.490000,-2.436381,0.320875,-1.663792,0.874271,0.616157,-0.192553,0.044474,2.065994,1.128786,6.110101,-1.939843,8.331922,33.592085,-39.333806,1.334710,0.233635,-0.005123,0.000000,0.003873,-0.689473,0.000000
1.500000,-2.427636,0.327140,-1.665661,0.875022,0.636720,-0.180848,0.107253,2.044629,1.212167,6.441643,-2.334294,8.329992,32.716048,-39.531126,-1.674262,0.233453,-0.012474,0.000000,-0.041033,-0.740536,-0.000000
1.510000,-2.418880,0.333609,-1.667409,0.876416,0.657050,-0.168310,0.173306,2.019309,1.295386,6.764422,-2.730466,8.298437,31.724351,-39.624532,-4.783964,0.232810,-0.020351,0.000000,-0.088479,-0.791990,-0.000000
1.520000,-2.410107,0.340281,-1.669027,0.878488,0.677106,-0.154941,0.242541,1.990019,1.378135,7.076130,-3.126785,8.234313,30.422211,-39.491395,-8.203473,0.231678,-0.028757,0.000000,-0.138464,-0.843434,0.000000
1.530000,-2.401310,0.347151,-1.670508,0.881267,0.696850,-0.140747,0.314829,1.956773,1.460072,7.372866,-3.520294,8.134368,28.851809,-39.125912,-11.787616,0.230034,-0.037687,0.000000,-0.190808,-0.894219,-0.000000
1.540000,-2.392482,0.354218,-1.671842,0.884784,0.716242,-0.125739,0.389999,1.919613,1.540823,7.653166,-3.909303,7.998561,27.269046,-38.686154,-15.244984,0.227856,-0.047128,0.000000,-0.245342,-0.943924,0.000000
1.550000,-2.383615,0.361476,-1.673023,0.889067,0.735242,-0.109931,0.467892,1.878587,1.620043,7.918247,-4.294017,7.829468,25.745542,-38.272156,-18.556610,0.225122,-0.057068,0.000000,-0.302008,-0.992426,-0.000000
1.560000,-2.374701,0.368923,-1.674041,0.894142,0.753813,-0.093338,0.548364,1.833733,1.697412,8.168077,-4.674746,7.627429,24.108097,-37.764437,-21.884218,0.221810,-0.067492,0.000000,-0.360781,-1.039419,-0.000000
1.570000,-2.365732,0.376552,-1.674889,0.900034,0.771917,-0.075982,0.631254,1.785092,1.772592,8.400409,-5.049306,7.391784,22.189991,-36.890697,-25.204206,0.217901,-0.078379,0.000000,-0.421323,-1.084284,0.000000
1.580000,-2.356700,0.384361,-1.675561,0.906767,0.789515,-0.057886,0.716372,1.732747,1.845248,8.611876,-5.412560,7.123344,20.037070,-35.666662,-28.421544,0.213379,-0.089701,0.000000,-0.482834,-1.126233,-0.000000
1.590000,-2.347597,0.392343,-1.676047,0.914362,0.806572,-0.039077,0.803491,1.676841,1.915059,8.801150,-5.762639,6.823353,17.873693,-34.456718,-31.543594,0.208240,-0.101424,0.000000,-0.544816,-1.164695,0.000000
1.600000,-2.338413,0.400492,-1.676342,0.922837,0.823052,-0.019585,0.892395,1.617494,1.981715,8.969350,-6.101694,6.492473,15.808238,-33.390479,-34.657744,0.202479,-0.113506,0.000000,-0.607227,-1.199382,0.000000
1.610000,-2.329140,0.408804,-1.676439,0.932210,0.838922,0.000557,0.982878,1.554807,2.044908,9.117315,-6.430449,6.130198,13.691006,-32.214882,-37.717444,0.196093,-0.125907,0.000000,-0.669843,-1.229945,0.000000
1.620000,-2.319769,0.417271,-1.676331,0.942495,0.854148,0.021313,1.074741,1.488885,2.104319,9.243170,-6.745992,5.738124,11.251212,-30.622195,-40.427115,0.189081,-0.138580,0.000000,-0.731883,-1.255730,-0.000000
1.630000,-2.310290,0.425887,-1.676013,0.953705,0.868700,0.042643,1.167742,1.419887,2.159671,9.342339,-7.042892,5.321655,8.534881,-28.684919,-42.752137,0.181455,-0.151470,0.000000,-0.792096,-1.275829,0.000000
1.640000,-2.300694,0.434645,-1.675478,0.965850,0.882546,0.064506,1.261588,1.348027,2.210752,9.413868,-7.319690,4.883081,5.917558,-26.812767,-45.060097,0.173240,-0.164514,0.000000,-0.849777,-1.289779,-0.000000
1.650000,-2.290973,0.443538,-1.674722,0.978936,0.895660,0.086858,1.356019,1.273493,2.257332,9.460691,-7.579148,4.420454,3.467603,-25.096751,-47.494516,0.164462,-0.177649,0.000000,-0.904848,-1.297564,0.000000
1.660000,-2.281116,0.452558,-1.673741,0.992970,0.908016,0.109653,1.450802,1.196444,2.299161,9.483220,-7.821625,3.933191,0.943641,-23.265994,-49.770477,0.155148,-0.190811,0.000000,-0.956885,-1.298913,-0.000000
1.670000,-2.271114,0.461698,-1.672529,1.007952,0.919589,0.132842,1.545684,1.117061,2.335996,9.479563,-8.044468,3.425044,-1.758262,-21.132604,-51.494229,0.145330,-0.203933,0.000000,-1.004989,-1.293421,-0.000000
1.680000,-2.260957,0.470950,-1.671084,1.023884,0.930357,0.156373,1.640393,1.035555,2.367662,9.448055,-8.244277,2.903306,-4.544023,-18.788462,-52.713454,0.135055,-0.216945,0.000000,-1.048142,-1.280913,0.000000
1.690000,-2.250636,0.480305,-1.669402,1.040760,0.940300,0.180195,1.734645,0.952175,2.394062,9.388683,-8.420237,2.370775,-7.270017,-16.485556,-53.921343,0.124376,-0.229777,0.000000,-1.085819,-1.261418,0.000000
1.700000,-2.240142,0.489756,-1.667480,1.058576,0.949401,0.204254,1.828167,0.867150,2.415077,9.302654,-8.573989,1.824879,-9.929095,-14.279698,-55.293762,0.113348,-0.242360,0.000000,-1.117960,-1.235040,-0.000000
1.710000,-2.229464,0.499293,-1.665317,1.077324,0.957643,0.228496,1.920698,0.780695,2.430560,9.190101,-8.705831,1.264900,-12.596996,-12.015073,-56.471126,0.102027,-0.254627,0.000000,-1.144353,-1.201853,-0.000000
1.720000,-2.218595,0.508909,-1.662910,1.096990,0.965014,0.252865,2.011969,0.693034,2.440375,9.050715,-8.814290,0.695457,-15.257402,-9.580255,-56.981596,0.090472,-0.266514,0.000000,-1.164559,-1.162128,-0.000000
1.730000,-2.207525,0.518593,-1.660260,1.117563,0.971504,0.277304,2.101712,0.604410,2.444469,8.884953,-8.897436,0.125268,-17.866399,-7.037757,-56.902913,0.078746,-0.277958,0.000000,-1.178157,-1.116482,-0.000000
1.740000,-2.196244,0.528339,-1.657364,1.139025,0.977103,0.301755,2.189668,0.515085,2.442881,8.693387,-8.955045,-0.442602,-20.428391,-4.549992,-56.844494,0.066919,-0.288906,0.000000,-1.185140,-1.065445,0.000000
1.750000,-2.184744,0.538135,-1.654224,1.161356,0.981805,0.326161,2.275580,0.425309,2.435617,8.476385,-8.988436,-1.011622,-22.954698,-2.139555,-57.006813,0.055054,-0.299309,0.000000,-1.185831,-1.009320,0.000000
1.760000,-2.173017,0.547975,-1.650841,1.184536,0.985609,0.350467,2.359195,0.335316,2.422648,8.234293,-8.997836,-1.582738,-25.421083,0.283776,-56.963592,0.043212,-0.309119,0.000000,-1.180442,-0.948512,0.000000
1.770000,-2.161053,0.557848,-1.647215,1.208540,0.988512,0.374614,2.440266,0.245352,2.403962,7.967963,-8.982760,-2.150894,-27.766152,2.731415,-56.213586,0.031454,-0.318294,0.000000,-1.169121,-0.883748,-0.000000
1.780000,-2.148846,0.567745,-1.643349,1.233342,0.990516,0.398546,2.518555,0.155661,2.379630,7.678970,-8.943208,-2.707010,-29.969540,5.148386,-54.874845,0.019838,-0.326801,0.000000,-1.152164,-0.816037,-0.000000
1.790000,-2.136386,0.577658,-1.639244,1.258911,0.991625,0.422207,2.593845,0.066488,2.349822,7.368573,-8.879793,-3.248391,-32.091874,7.503423,-53.606426,0.008418,-0.334617,0.000000,-1.130043,-0.746099,0.000000
1.800000,-2.123668,0.587578,-1.634905,1.285219,0.991846,0.445543,2.665926,-0.021935,2.314663,7.037132,-8.793140,-3.779138,-34.218624,9.853616,-52.557617,-0.002757,-0.341724,0.000000,-1.103255,-0.674237,0.000000
1.810000,-2.110682,0.597495,-1.630333,1.312230,0.991186,0.468500,2.734588,-0.109375,2.274239,6.684200,-8.682720,-4.299543,-36.284154,12.194312,-51.287272,-0.013643,-0.348104,0.000000,-1.072136,-0.600779,-0.000000
1.820000,-2.097423,0.607401,-1.625535,1.339910,0.989658,0.491028,2.799610,-0.195589,2.228672,6.311449,-8.549253,-4.804884,-38.014678,14.325095,-49.471469,-0.024197,-0.353744,0.000000,-1.037197,-0.526489,-0.000000
1.830000,-2.083884,0.617288,-1.620513,1.368222,0.987275,0.513074,2.860817,-0.280360,2.178142,5.923907,-8.396218,-5.288973,-39.398581,16.215581,-47.255923,-0.034385,-0.358641,0.000000,-0.999297,-0.452538,-0.000000
1.840000,-2.070059,0.627147,-1.615273,1.397127,0.984051,0.534590,2.918088,-0.363513,2.122892,5.523477,-8.224942,-5.750002,-40.790074,18.119957,-45.068440,-0.044182,-0.362805,0.000000,-0.958997,-0.379481,-0.000000
1.850000,-2.055941,0.636969,-1.609821,1.426584,0.980004,0.555532,2.971286,-0.444859,2.063142,5.108105,-8.033819,-6.190341,-42.305284,20.131155,-42.992907,-0.053565,-0.366243,0.000000,-0.916461,-0.307196,0.000000
1.860000,-2.041527,0.646747,-1.604162,1.456552,0.975154,0.575853,3.020250,-0.524190,1.999085,4.677372,-7.822319,-6.609860,-43.685453,22.054812,-40.759158,-0.062512,-0.368963,0.000000,-0.871960,-0.235822,0.000000
1.870000,-2.026810,0.656472,-1.598304,1.486989,0.969520,0.595513,3.064834,-0.601305,1.930944,4.234396,-7.592723,-7.005525,-44.640408,23.645727,-38.199429,-0.071006,-0.370975,0.000000,-0.826083,-0.165970,0.000000
1.880000,-2.011787,0.666137,-1.592252,1.517849,0.963128,0.614472,3.104938,-0.676044,1.858975,3.784564,-7.349404,-7.373849,-45.231354,24.940908,-35.420394,-0.079036,-0.372297,0.000000,-0.779615,-0.098455,0.000000
1.890000,-1.996453,0.675735,-1.586014,1.549088,0.956000,0.632693,3.140525,-0.748293,1.783467,3.329769,-7.093905,-7.713932,-45.826943,26.246498,-32.658496,-0.086601,-0.372956,0.000000,-0.732944,-0.033536,-0.000000
1.900000,-1.980805,0.685257,-1.579598,1.580659,0.948162,0.650141,3.171534,-0.817922,1.704696,2.868025,-6.824474,-8.027019,-46.536975,27.665014,-29.925245,-0.093699,-0.372976,0.000000,-0.686037,0.029068,0.000000
1.910000,-1.964840,0.694698,-1.573012,1.612518,0.939641,0.666787,3.197885,-0.884783,1.622927,2.399030,-6.540604,-8.312437,-47.103134,28.974573,-27.089106,-0.100326,-0.372378,0.000000,-0.638994,0.089396,-0.000000
1.920000,-1.948555,0.704050,-1.566263,1.644617,0.930466,0.682600,3.219514,-0.948735,1.538448,1.925962,-6.244983,-8.568801,-47.245891,29.900511,-24.184301,-0.106483,-0.371185,0.000000,-0.592239,0.147120,-0.000000
1.930000,-1.931948,0.713307,-1.559360,1.676909,0.920666,0.697556,3.236405,-1.009683,1.451551,1.454112,-5.942594,-8.796123,-47.035740,30.495505,-21.285413,-0.112175,-0.369425,0.000000,-0.546380,0.201787,-0.000000
1.940000,-1.915017,0.722463,-1.552311,1.709345,0.910272,0.711631,3.248597,-1.067586,1.362525,0.985247,-5.635073,-8.994509,-46.836331,31.112356,-18.365798,-0.117415,-0.367129,0.000000,-0.501616,0.253351,-0.000000
1.950000,-1.897761,0.731513,-1.545127,1.741881,0.899315,0.724806,3.256110,-1.122384,1.271661,0.517385,-5.320347,-9.163439,-46.736905,31.844858,-15.373574,-0.122212,-0.364328,0.000000,-0.457750,0.302135,-0.000000
1.960000,-1.880179,0.740450,-1.537815,1.774467,0.887825,0.737064,3.258944,-1.173993,1.179256,0.050509,-4.998175,-9.301980,-46.491934,32.448146,-12.358325,-0.126574,-0.361046,0.000000,-0.414776,0.348250,0.000000
1.970000,-1.862272,0.749269,-1.530386,1.807059,0.875835,0.748391,3.257120,-1.222348,1.085621,-0.412454,-4.671384,-9.410606,-45.896133,32.694471,-9.499020,-0.130512,-0.357311,0.000000,-0.372967,0.391573,-0.000000
1.980000,-1.844038,0.757966,-1.522848,1.839610,0.863378,0.758777,3.250695,-1.267421,0.991044,-0.867414,-4.344286,-9.491961,-45.027994,32.655436,-6.814996,-0.134038,-0.353151,0.000000,-0.332686,0.431960,0.000000
1.990000,-1.825479,0.766537,-1.515210,1.872073,0.850486,0.768212,3.239771,-1.309233,0.895782,-1.313013,-4.018276,-9.546906,-44.158258,32.625394,-4.093393,-0.137170,-0.348596,0.000000,-0.293999,0.469476,0.000000
2.000000,-1.806597,0.774976,-1.507483,1.904405,0.837193,0.776692,3.224435,-1.347787,0.800106,-1.750579,-3.691778,-9.573829,-43.339653,32.667244,-1.242912,-0.139922,-0.343675,0.000000,-0.256709,0.504360,-0.000000
2.010000,-1.787391,0.783281,-1.499676,1.936562,0.823531,0.784214,3.204760,-1.383069,0.704305,-2.179807,-3.364931,-9.571764,-42.398117,32.584668,1.564093,-0.142307,-0.338412,0.000000,-0.220781,0.536713,-0.000000
2.020000,-1.767865,0.791447,-1.491799,1.968501,0.809532,0.790778,3.180839,-1.415085,0.608671,-2.598541,-3.040085,-9.542547,-41.227615,32.236136,4.058925,-0.144341,-0.332833,0.000000,-0.186352,0.566552,0.000000
2.030000,-1.748021,0.799471,-1.483861,2.000179,0.795229,0.796388,3.152789,-1.443870,0.513454,-3.004359,-2.720208,-9.490585,-39.893579,31.686891,6.264611,-0.146037,-0.326963,0.000000,-0.153572,0.593947,-0.000000
2.040000,-1.727862,0.807351,-1.475871,2.031556,0.780654,0.801047,3.120752,-1.469489,0.418859,-3.396413,-2.406347,-9.417255,-38.541820,31.123526,8.513819,-0.147415,-0.320828,0.000000,-0.122436,0.619001,0.000000
2.050000,-1.707390,0.815084,-1.467840,2.062594,0.765839,0.804765,3.084861,-1.491997,0.325109,-3.775195,-2.097737,-9.320309,-37.185907,30.579981,10.914626,-0.148489,-0.314448,0.000000,-0.092825,0.641828,-0.000000
2.060000,-1.686610,0.822668,-1.459776,2.093254,0.750814,0.807550,3.045248,-1.511444,0.232453,-4.140131,-1.794747,-9.198962,-35.741877,29.938732,13.220636,-0.149273,-0.307849,0.000000,-0.064706,0.662485,0.000000
2.070000,-1.665525,0.830101,-1.451689,2.123499,0.735610,0.809414,3.002058,-1.527892,0.141130,-4.490033,-1.498963,-9.055896,-34.206215,29.133859,15.137994,-0.149785,-0.301050,0.000000,-0.038116,0.681071,0.000000
2.080000,-1.644140,0.837380,-1.443588,2.153295,0.720257,0.810372,2.955447,-1.541423,0.051335,-4.824255,-1.212070,-8.896202,-32.621973,28.211774,16.721838,-0.150037,-0.294073,0.000000,-0.013071,0.697787,0.000000
2.090000,-1.622459,0.844506,-1.435481,2.182608,0.704782,0.810441,2.905573,-1.552134,-0.036794,-5.142472,-0.934727,-8.721460,-31.003996,27.265714,18.342017,-0.150048,-0.286935,0.000000,0.010463,0.712740,-0.000000
2.100000,-1.600488,0.851476,-1.427379,2.211406,0.689214,0.809636,2.852598,-1.560118,-0.123094,-5.444335,-0.666756,-8.529362,-29.332323,26.301800,20.098283,-0.149830,-0.279655,0.000000,0.032541,0.725925,0.000000
2.110000,-1.578231,0.858290,-1.419289,2.239660,0.673580,0.807979,2.796686,-1.565469,-0.207381,-5.729119,-0.408691,-8.319494,-27.613717,25.269141,21.728478,-0.149398,-0.272251,0.000000,0.053172,0.737356,-0.000000
2.120000,-1.555695,0.864948,-1.411219,2.267340,0.657905,0.805489,2.738015,-1.568292,-0.289484,-5.996609,-0.161373,-8.094792,-25.926641,24.177159,22.976842,-0.148767,-0.264741,0.000000,0.072380,0.747172,-0.000000
2.130000,-1.532884,0.871448,-1.403179,2.294420,0.642214,0.802189,2.676754,-1.568696,-0.369277,-6.247652,0.074852,-7.859957,-24.287343,23.055512,23.914604,-0.147951,-0.257140,0.000000,0.090247,0.755634,0.000000
2.140000,-1.509806,0.877792,-1.395176,2.320875,0.626531,0.798103,2.613062,-1.566795,-0.446683,-6.482356,0.299737,-7.616500,-22.604904,21.900772,24.866784,-0.146963,-0.249460,0.000000,0.106821,0.762835,0.000000
2.150000,-1.486467,0.883979,-1.387217,2.346681,0.610878,0.793255,2.547107,-1.562702,-0.521607,-6.699750,0.512867,-7.362621,-20.837915,20.693947,25.906618,-0.145815,-0.241715,0.000000,0.122090,0.768693,-0.000000
2.160000,-1.462873,0.890009,-1.379310,2.371817,0.595277,0.787671,2.479067,-1.556537,-0.593936,-6.899115,0.713616,-7.098368,-19.063585,19.450806,26.811623,-0.144521,-0.233920,0.000000,0.136042,0.773191,-0.000000
2.170000,-1.439030,0.895884,-1.371463,2.396263,0.579747,0.781377,2.409125,-1.548429,-0.663574,-7.081021,0.901883,-6.826389,-17.408167,18.241638,27.405077,-0.143094,-0.226087,0.000000,0.148739,0.776480,-0.000000
2.180000,-1.414947,0.901604,-1.363683,2.420000,0.564308,0.774400,2.337447,-1.538500,-0.730463,-7.247278,1.078449,-6.550266,-15.863777,17.076225,27.755037,-0.141547,-0.218228,0.000000,0.160328,0.778823,0.000000
2.190000,-1.390630,0.907170,-1.355975,2.443012,0.548977,0.766767,2.264179,-1.526860,-0.794580,-7.398297,1.243408,-6.271288,-14.276864,15.872158,28.088855,-0.139888,-0.210351,0.000000,0.170860,0.780296,-0.000000
2.200000,-1.366087,0.912584,-1.348348,2.465283,0.533771,0.758508,2.189481,-1.513631,-0.855889,-7.532815,1.395892,-5.988489,-12.598732,14.594021,28.453468,-0.138129,-0.202466,0.000000,0.180273,0.780783,-0.000000
2.210000,-1.341325,0.917846,-1.340805,2.486801,0.518704,0.749650,2.113523,-1.498942,-0.914349,-7.650271,1.535288,-5.702219,-10.945519,13.309895,28.699170,-0.136282,-0.194583,0.000000,0.188542,0.780252,-0.000000
2.220000,-1.316351,0.922958,-1.333355,2.507554,0.503792,0.740221,2.036475,-1.482926,-0.969934,-7.751726,1.662090,-5.414506,-9.454125,12.126144,28.719880,-0.134358,-0.186713,0.000000,0.195752,0.778844,-0.000000
2.230000,-1.291174,0.927922,-1.326001,2.527531,0.489046,0.730251,1.958488,-1.465701,-1.022640,-7.839354,1.777811,-5.127821,-8.100334,11.034183,28.566791,-0.132367,-0.178863,0.000000,0.202078,0.776791,0.000000
2.240000,-1.265800,0.932739,-1.318750,2.546723,0.474478,0.719768,1.879688,-1.447369,-1.072490,-7.913732,1.882774,-4.843170,-6.715130,9.903898,28.381642,-0.130316,-0.171038,0.000000,0.207572,0.774155,0.000000
2.250000,-1.240239,0.937411,-1.311605,2.565124,0.460099,0.708801,1.800214,-1.428045,-1.119503,-7.973657,1.975889,-4.560188,-5.252937,8.695830,28.189432,-0.128215,-0.163246,0.000000,0.212143,0.770813,0.000000
2.260000,-1.214498,0.941941,-1.304573,2.582728,0.445917,0.697378,1.720215,-1.407852,-1.163694,-8.018791,2.056690,-4.279381,-3.836075,7.507333,27.902542,-0.126073,-0.155493,0.000000,0.215764,0.766733,0.000000
2.270000,-1.188585,0.946330,-1.297658,2.599529,0.431941,0.685527,1.639838,-1.386911,-1.205091,-8.050378,2.126036,-4.002138,-2.586943,6.447741,27.476269,-0.123900,-0.147787,0.000000,0.218529,0.762034,0.000000
2.280000,-1.162507,0.950580,-1.290863,2.615524,0.418179,0.673276,1.559208,-1.365331,-1.243737,-8.070530,2.185645,-3.729856,-1.474888,5.495535,26.946801,-0.121702,-0.140133,0.000000,0.220605,0.756902,0.000000
2.290000,-1.136274,0.954693,-1.284192,2.630713,0.404635,0.660653,1.478427,-1.343198,-1.279688,-8.079876,2.235947,-3.463202,-0.347056,4.515640,26.379693,-0.119487,-0.132534,0.000000,0.222036,0.751381,0.000000
2.300000,-1.109893,0.958672,-1.277650,2.645093,0.391315,0.647683,1.397610,-1.320612,-1.313001,-8.077471,2.275958,-3.202262,0.834316,3.473261,25.778721,-0.117261,-0.124995,0.000000,0.222735,0.745366,0.000000
2.310000,-1.083372,0.962519,-1.271239,2.658665,0.378223,0.634393,1.316878,-1.297679,-1.343733,-8.063189,2.305412,-2.947627,1.961894,2.465508,25.110303,-0.115032,-0.117522,0.000000,0.222684,0.738833,-0.000000
2.320000,-1.056720,0.966237,-1.264962,2.671431,0.365361,0.620808,1.236346,-1.274504,-1.371953,-8.038233,2.325268,-2.700056,2.938260,1.585260,24.386202,-0.112807,-0.110119,0.000000,0.221969,0.731870,-0.000000
2.330000,-1.029944,0.969827,-1.258823,2.683392,0.352733,0.606954,1.156113,-1.251174,-1.397734,-8.004424,2.337117,-2.459903,3.793407,0.807432,23.628865,-0.110593,-0.102790,0.000000,0.220726,0.724616,0.000000
2.340000,-1.003052,0.973291,-1.252823,2.694553,0.340338,0.592853,1.076258,-1.227761,-1.421151,-7.962365,2.341417,-2.227479,4.650922,0.016152,22.831549,-0.108393,-0.095536,0.000000,0.218991,0.717102,0.000000
2.350000,-0.976053,0.976633,-1.246966,2.704917,0.328177,0.578530,0.996866,-1.204346,-1.442284,-7.911406,2.337440,-2.003272,5.538488,-0.816021,21.977023,-0.106212,-0.088362,0.000000,0.216701,0.709248,-0.000000
2.360000,-0.948954,0.979855,-1.241252,2.714490,0.316251,0.564008,0.918030,-1.181013,-1.461217,-7.851595,2.325096,-1.787938,6.371946,-1.608111,21.081594,-0.104058,-0.081270,0.000000,0.213844,0.701037,0.000000
2.370000,-0.921763,0.982958,-1.235685,2.723278,0.304557,0.549306,0.839834,-1.157844,-1.478042,-7.783967,2.305278,-1.581640,7.084312,-2.289548,20.209326,-0.101935,-0.074264,0.000000,0.210492,0.692534,-0.000000
2.380000,-0.894488,0.985946,-1.230266,2.731287,0.293094,0.534447,0.762350,-1.134907,-1.492849,-7.709909,2.279305,-1.383752,7.701952,-2.883551,19.368389,-0.099848,-0.067346,0.000000,0.206746,0.683829,-0.000000
2.390000,-0.867137,0.988820,-1.224996,2.738525,0.281859,0.519449,0.685636,-1.112258,-1.505717,-7.629928,2.247607,-1.194272,8.311443,-3.479556,18.483247,-0.097800,-0.060517,0.000000,0.202636,0.674941,-0.000000
2.400000,-0.839718,0.991583,-1.219877,2.745000,0.270849,0.504332,0.609752,-1.089955,-1.516735,-7.543680,2.209714,-1.014087,8.928213,-4.095725,17.519924,-0.095795,-0.053781,0.000000,0.198120,0.665821,-0.000000
2.410000,-0.812237,0.994237,-1.214910,2.750720,0.260060,0.489114,0.534762,-1.068063,-1.525999,-7.451364,2.165692,-0.843874,9.495815,-4.671480,16.540481,-0.093838,-0.047139,0.000000,0.193201,0.656462,-0.000000
2.420000,-0.784703,0.996784,-1.210095,2.755695,0.249488,0.473812,0.460725,-1.046641,-1.533612,-7.353764,2.116285,-0.683277,9.981770,-5.163576,15.646090,-0.091931,-0.040593,0.000000,0.187931,0.646905,0.000000
2.430000,-0.757123,0.999227,-1.205434,2.759934,0.239127,0.458442,0.387687,-1.025738,-1.539665,-7.251728,2.062421,-0.530952,10.406721,-5.591662,14.827827,-0.090079,-0.034145,0.000000,0.182374,0.637195,-0.000000
2.440000,-0.729504,1.001567,-1.200926,2.763449,0.228973,0.443019,0.315690,-1.005393,-1.544231,-7.145629,2.004451,-0.386721,10.813925,-6.011343,13.960895,-0.088284,-0.027797,0.000000,0.176551,0.627344,0.000000
2.450000,-0.701854,1.003807,-1.196573,2.766248,0.219019,0.427558,0.244774,-0.985649,-1.547399,-7.035450,1.942194,-0.251734,11.205919,-6.430349,13.015333,-0.086548,-0.021549,0.000000,0.170448,0.617330,-0.000000
2.460000,-0.674180,1.005947,-1.192375,2.768344,0.209260,0.412071,0.174981,-0.966549,-1.549266,-6.921511,1.875844,-0.126414,11.557262,-6.812867,12.083099,-0.084875,-0.015403,0.000000,0.164079,0.607161,-0.000000
2.470000,-0.646487,1.007992,-1.188332,2.769748,0.199688,0.396572,0.106344,-0.948132,-1.549927,-6.804304,1.805937,-0.010072,11.869173,-7.143933,11.244015,-0.083266,-0.009361,0.000000,0.157477,0.596855,0.000000
2.480000,-0.618785,1.009941,-1.184444,2.770471,0.190297,0.381073,0.038895,-0.930430,-1.549468,-6.684128,1.732966,0.098466,12.153956,-7.437365,10.473978,-0.081725,-0.003424,0.000000,0.150670,0.586419,0.000000
2.490000,-0.591078,1.011798,-1.180710,2.770526,0.181080,0.365583,-0.027338,-0.913472,-1.547958,-6.561225,1.657189,0.199407,12.411967,-7.713021,9.677706,-0.080253,0.002407,0.000000,0.143676,0.575856,0.000000
2.500000,-0.563374,1.013563,-1.177132,2.769924,0.172028,0.350113,-0.092330,-0.897286,-1.545479,-6.435888,1.578705,0.292020,12.637966,-7.969268,8.843569,-0.078851,0.008131,0.000000,0.136501,0.565175,-0.000000
2.510000,-0.535679,1.015238,-1.173708,2.768679,0.163134,0.334673,-0.156056,-0.881898,-1.542118,-6.308466,1.497804,0.376279,12.835883,-8.195457,8.039722,-0.077523,0.013746,0.000000,0.129168,0.554389,-0.000000
2.520000,-0.508000,1.016825,-1.170438,2.766803,0.154390,0.319271,-0.218499,-0.867330,-1.537954,-6.179171,1.414796,0.452815,13.024546,-8.400315,7.299354,-0.076268,0.019252,0.000000,0.121693,0.543500,0.000000
2.530000,-0.480343,1.018326,-1.167323,2.764309,0.145787,0.303914,-0.279639,-0.853602,-1.533061,-6.047975,1.329798,0.522266,13.206635,-8.590513,6.603380,-0.075089,0.024648,0.000000,0.114080,0.532493,-0.000000
2.540000,-0.452714,1.019741,-1.164360,2.761210,0.137318,0.288610,-0.339458,-0.840734,-1.527509,-5.915038,1.242986,0.584882,13.360761,-8.755738,5.916405,-0.073987,0.029932,0.000000,0.106338,0.521369,-0.000000
2.550000,-0.425119,1.021072,-1.161550,2.757520,0.128973,0.273364,-0.397940,-0.828743,-1.521364,-5.780760,1.154683,0.640594,13.480467,-8.888644,5.232720,-0.072962,0.035104,0.000000,0.098493,0.510149,0.000000
2.560000,-0.397564,1.022321,-1.158893,2.753251,0.120743,0.258183,-0.455074,-0.817641,-1.514697,-5.645429,1.065213,0.689537,13.583761,-8.999016,4.578811,-0.072017,0.040163,0.000000,0.090571,0.498849,-0.000000
2.570000,-0.370054,1.023487,-1.156387,2.748418,0.112620,0.243070,-0.510849,-0.807438,-1.507573,-5.509085,0.974703,0.732170,13.691485,-9.108648,3.978599,-0.071151,0.045107,0.000000,0.082577,0.487461,-0.000000
2.580000,-0.342596,1.024573,-1.154031,2.743034,0.104594,0.228031,-0.565255,-0.798147,-1.500053,-5.371599,0.883040,0.769109,13.801346,-9.217456,3.427720,-0.070365,0.049937,0.000000,0.074496,0.475966,-0.000000
2.590000,-0.315193,1.025579,-1.151826,2.737113,0.096657,0.213069,-0.618281,-0.789778,-1.492191,-5.233058,0.790353,0.800724,13.889779,-9.298558,2.898310,-0.069661,0.054650,0.000000,0.066335,0.464366,-0.000000
2.600000,-0.287853,1.026506,-1.149770,2.730669,0.088799,0.198187,-0.669916,-0.782339,-1.484039,-5.093803,0.697069,0.827075,13.948987,-9.342794,2.374794,-0.069039,0.059247,0.000000,0.058131,0.452683,-0.000000
2.610000,-0.260580,1.027355,-1.147862,2.723715,0.081010,0.183388,-0.720157,-0.775836,-1.475649,-4.954078,0.603498,0.848220,13.997879,-9.370530,1.879035,-0.068499,0.063725,0.000000,0.049910,0.440931,-0.000000
2.620000,-0.233379,1.028126,-1.146102,2.716266,0.073282,0.168674,-0.768998,-0.770270,-1.467074,-4.813846,0.509658,0.864656,14.061613,-9.406951,1.457834,-0.068041,0.068086,0.000000,0.041670,0.429103,-0.000000
2.630000,-0.206255,1.028821,-1.144489,2.708335,0.065605,0.154047,-0.816434,-0.765643,-1.458356,-4.672846,0.415359,0.877377,14.137736,-9.447785,1.108850,-0.067665,0.072327,0.000000,0.033387,0.417177,0.000000
2.640000,-0.179212,1.029438,-1.143021,2.699937,0.057969,0.139507,-0.862455,-0.761962,-1.449527,-4.531091,0.320703,0.886833,14.195903,-9.461696,0.771080,-0.067373,0.076449,0.000000,0.025070,0.405152,0.000000
2.650000,-0.152256,1.029980,-1.141699,2.691086,0.050365,0.125056,-0.907056,-0.759229,-1.440620,-4.388928,0.226125,0.892799,14.224395,-9.440631,0.423314,-0.067164,0.080449,0.000000,0.016757,0.393054,0.000000
2.660000,-0.125391,1.030446,-1.140520,2.681796,0.042784,0.110695,-0.950233,-0.757440,-1.431671,-4.246603,0.131890,0.895299,14.246372,-9.407099,0.109004,-0.067038,0.084327,0.000000,0.008472,0.380902,0.000000
2.670000,-0.098620,1.030836,-1.139485,2.672081,0.035217,0.096423,-0.991988,-0.756591,-1.422714,-4.104000,0.037983,0.894979,14.295616,-9.382244,-0.119226,-0.066995,0.088084,0.000000,0.000211,0.368687,0.000000
2.680000,-0.071949,1.031150,-1.138592,2.661956,0.027653,0.082241,-1.032313,-0.756680,-1.413771,-3.960691,-0.055755,0.892914,14.368065,-9.360531,-0.273377,-0.067034,0.091718,0.000000,-0.008046,0.356378,-0.000000
2.690000,-0.045381,1.031389,-1.137840,2.651435,0.020083,0.068147,-1.071201,-0.757706,-1.404855,-3.816639,-0.149228,0.889511,14.420839,-9.315518,-0.421871,-0.067155,0.095227,0.000000,-0.016292,0.343973,0.000000
2.700000,-0.018920,1.031552,-1.137229,2.640532,0.012498,0.054143,-1.108646,-0.759665,-1.395981,-3.672274,-0.242065,0.884477,14.439857,-9.238556,-0.576546,-0.067360,0.098613,0.000000,-0.024492,0.331510,-0.000000
2.710000,0.007430,1.031639,-1.136757,2.629262,0.004890,0.040228,-1.144647,-0.762548,-1.387166,-3.527842,-0.333999,0.877980,14.455957,-9.148287,-0.691302,-0.067645,0.101873,0.000000,-0.032622,0.319009,0.000000
2.720000,0.033665,1.031650,-1.136424,2.617639,-0.002753,0.026400,-1.179203,-0.766345,-1.378421,-3.383155,-0.425031,0.870651,14.505684,-9.067727,-0.742059,-0.068012,0.105007,0.000000,-0.040686,0.306459,0.000000
2.730000,0.059782,1.031584,-1.136229,2.605678,-0.010437,0.012659,-1.212310,-0.771048,-1.369753,-3.237728,-0.515354,0.863139,14.581375,-8.992256,-0.744626,-0.068459,0.108016,0.000000,-0.048703,0.293825,0.000000
2.740000,0.085779,1.031441,-1.136171,2.593393,-0.018173,-0.000995,-1.243958,-0.776652,-1.361159,-3.091527,-0.604876,0.855758,14.635954,-8.891708,-0.729162,-0.068986,0.110898,0.000000,-0.056668,0.281108,-0.000000
2.750000,0.111650,1.031220,-1.136249,2.580799,-0.025970,-0.014564,-1.274141,-0.783146,-1.352638,-2.945009,-0.693188,0.848556,14.657080,-8.756997,-0.697438,-0.069593,0.113651,0.000000,-0.064543,0.268348,-0.000000
2.760000,0.137395,1.030921,-1.136462,2.567910,-0.033836,-0.028048,-1.302858,-0.790516,-1.344188,-2.798386,-0.780016,0.841810,14.677186,-8.608705,-0.630729,-0.070277,0.116277,0.000000,-0.072306,0.255569,-0.000000
2.770000,0.163008,1.030544,-1.136810,2.554742,-0.041781,-0.041448,-1.330108,-0.798746,-1.335801,-2.651465,-0.865362,0.835941,14.725941,-8.468412,-0.526749,-0.071039,0.118775,0.000000,-0.079959,0.242760,0.000000
2.780000,0.188489,1.030086,-1.137291,2.541308,-0.049811,-0.054764,-1.355887,-0.807823,-1.327469,-2.503867,-0.949384,0.831275,14.793724,-8.329443,-0.392532,-0.071876,0.121145,0.000000,-0.087518,0.229890,0.000000
2.790000,0.213835,1.029547,-1.137905,2.527624,-0.057937,-0.067997,-1.380186,-0.817734,-1.319176,-2.355591,-1.031951,0.828091,14.841943,-8.163189,-0.231491,-0.072789,0.123385,0.000000,-0.094973,0.216965,-0.000000
2.800000,0.239042,1.028927,-1.138651,2.513704,-0.066166,-0.081147,-1.402999,-0.828462,-1.310907,-2.207028,-1.112648,0.826645,14.861940,-7.966703,-0.047191,-0.073776,0.125496,0.000000,-0.102291,0.204023,0.000000
2.810000,0.264109,1.028224,-1.139528,2.499564,-0.074506,-0.094215,-1.424326,-0.839987,-1.302643,-2.058352,-1.191285,0.827147,14.879266,-7.758411,0.161270,-0.074835,0.127477,0.000000,-0.109455,0.191082,-0.000000
2.820000,0.289033,1.027437,-1.140536,2.485218,-0.082966,-0.107200,-1.444166,-0.852288,-1.294364,-1.909443,-1.267816,0.829870,14.913326,-7.541586,0.403075,-0.075965,0.129328,0.000000,-0.116464,0.178137,-0.000000
2.830000,0.313813,1.026565,-1.141672,2.470681,-0.091552,-0.120102,-1.462515,-0.865343,-1.286046,-1.760086,-1.342117,0.835208,14.955811,-7.309138,0.677999,-0.077164,0.131050,0.000000,-0.123312,0.165173,0.000000
2.840000,0.338447,1.025606,-1.142938,2.455967,-0.100273,-0.132921,-1.479368,-0.879130,-1.277660,-1.610326,-1.413999,0.843430,14.980701,-7.056956,0.971120,-0.078431,0.132641,0.000000,-0.129984,0.152198,0.000000
2.850000,0.362932,1.024559,-1.144331,2.441093,-0.109135,-0.145656,-1.494722,-0.893623,-1.269177,-1.460472,-1.483256,0.854631,14.980993,-6.785331,1.273493,-0.079764,0.134103,0.000000,-0.136463,0.139242,0.000000
2.860000,0.387269,1.023423,-1.145851,2.426073,-0.118145,-0.158305,-1.508577,-0.908795,-1.260567,-1.310707,-1.549706,0.868900,14.973093,-6.495777,1.594093,-0.081161,0.135435,0.000000,-0.142737,0.126320,0.000000
2.870000,0.411454,1.022196,-1.147497,2.410922,-0.127311,-0.170867,-1.520936,-0.924617,-1.251799,-1.161010,-1.613171,0.886513,14.972223,-6.186927,1.952048,-0.082619,0.136638,0.000000,-0.148794,0.113436,-0.000000
2.880000,0.435487,1.020877,-1.149268,2.395654,-0.136637,-0.183341,-1.531797,-0.941058,-1.242837,-1.011262,-1.673444,0.907941,14.972425,-5.856891,2.344548,-0.084137,0.137711,0.000000,-0.154619,0.100582,-0.000000
2.890000,0.459367,1.019464,-1.151164,2.380286,-0.146132,-0.195724,-1.541161,-0.958086,-1.233640,-0.861561,-1.730309,0.933403,14.951956,-5.506426,2.743168,-0.085711,0.138656,0.000000,-0.160199,0.087770,0.000000
2.900000,0.483093,1.017954,-1.153182,2.364831,-0.155799,-0.208013,-1.549029,-0.975665,-1.224169,-0.712223,-1.783573,0.962804,14.905672,-5.138936,3.136536,-0.087341,0.139473,0.000000,-0.165517,0.075025,0.000000
2.910000,0.506664,1.016348,-1.155324,2.349305,-0.165645,-0.220207,-1.555405,-0.993757,-1.214384,-0.563448,-1.833088,0.996134,14.846599,-4.752571,3.542327,-0.089022,0.140163,0.000000,-0.170563,0.062363,-0.000000
2.920000,0.530079,1.014641,-1.157587,2.333723,-0.175674,-0.232301,-1.560298,-1.012326,-1.204246,-0.415291,-1.878624,1.033651,14.783306,-4.335698,3.983821,-0.090752,0.140725,0.000000,-0.175321,0.049790,0.000000
2.930000,0.553338,1.012834,-1.159970,2.318099,-0.185891,-0.244292,-1.563711,-1.031330,-1.193711,-0.267782,-1.919802,1.075811,14.709876,-3.886541,4.455066,-0.092528,0.141162,0.000000,-0.179763,0.037312,-0.000000
2.940000,0.576441,1.010924,-1.162472,2.302449,-0.196301,-0.256175,-1.565653,-1.050722,-1.182730,-0.121093,-1.956355,1.122752,14.613054,-3.420048,4.921856,-0.094347,0.141475,0.000000,-0.183871,0.024943,0.000000
2.950000,0.599387,1.008908,-1.165093,2.286786,-0.206906,-0.267946,-1.566133,-1.070457,-1.171256,0.024479,-1.988203,1.174248,14.492430,-2.946496,5.370912,-0.096206,0.141663,0.000000,-0.187637,0.012703,0.000000
2.960000,0.622177,1.006786,-1.167831,2.271126,-0.217710,-0.279600,-1.565164,-1.090486,-1.159245,0.168755,-2.015285,1.230171,14.354672,-2.454255,5.823168,-0.098100,0.141730,0.000000,-0.191057,0.000602,-0.000000
2.970000,0.644810,1.004554,-1.170685,2.255483,-0.228716,-0.291131,-1.562758,-1.110763,-1.146653,0.311573,-2.037288,1.290711,14.195412,-1.915082,6.305914,-0.100027,0.141675,0.000000,-0.194109,-0.011346,0.000000
2.980000,0.667286,1.002211,-1.173654,2.239871,-0.239925,-0.302533,-1.558932,-1.131232,-1.133431,0.452663,-2.053586,1.356289,14.009564,-1.330306,6.811164,-0.101983,0.141502,0.000000,-0.196741,-0.023116,0.000000
2.990000,0.689607,0.999755,-1.176736,2.224304,-0.251340,-0.313800,-1.553705,-1.151834,-1.119527,0.591764,-2.063894,1.426934,13.801174,-0.737499,7.298687,-0.103962,0.141210,0.000000,-0.198931,-0.034691,0.000000
3.000000,0.711772,0.997184,-1.179930,2.208797,-0.262962,-0.324924,-1.547097,-1.172510,-1.104892,0.728687,-2.068336,1.502263,13.576948,-0.149191,7.758179,-0.105961,0.140804,0.000000,-0.200688,-0.046062,0.000000
3.010000,0.733783,0.994496,-1.183235,2.193362,-0.274791,-0.335898,-1.539131,-1.193201,-1.089482,0.863303,-2.066878,1.582098,13.331439,0.460863,8.213577,-0.107976,0.140284,0.000000,-0.202010,-0.057226,-0.000000
3.020000,0.755640,0.991689,-1.186648,2.178014,-0.286826,-0.346714,-1.529831,-1.213848,-1.073250,0.995316,-2.059119,1.666534,13.042754,1.122411,8.681077,-0.110002,0.139652,0.000000,-0.202861,-0.068160,0.000000
3.030000,0.777343,0.988760,-1.190169,2.162766,-0.299067,-0.357363,-1.519225,-1.234384,-1.056151,1.124158,-2.044430,1.755719,12.708823,1.830082,9.150485,-0.112034,0.138912,0.000000,-0.203188,-0.078817,0.000000
3.040000,0.798895,0.985707,-1.193795,2.147630,-0.311514,-0.367837,-1.507348,-1.254736,-1.038136,1.249492,-2.022518,1.849544,12.357257,2.544123,9.596275,-0.114066,0.138066,0.000000,-0.202962,-0.089174,0.000000
3.050000,0.820296,0.982529,-1.197526,2.132619,-0.324162,-0.378126,-1.494235,-1.274834,-1.019160,1.371303,-1.993547,1.947645,12.002070,3.240259,10.010783,-0.116093,0.137117,0.000000,-0.202195,-0.099239,0.000000
3.060000,0.841547,0.979224,-1.201358,2.117745,-0.337010,-0.388220,-1.479922,-1.294607,-0.999183,1.489533,-1.957712,2.049759,11.621991,3.946113,10.407227,-0.118110,0.136067,0.000000,-0.200898,-0.109017,0.000000
3.070000,0.862651,0.975789,-1.205290,2.103020,-0.350054,-0.398109,-1.464444,-1.313988,-0.978165,1.603743,-1.914625,2.155790,11.178626,4.725112,10.796735,-0.120111,0.134921,0.000000,-0.199035,-0.118473,-0.000000
3.080000,0.883608,0.972223,-1.209320,2.088456,-0.363290,-0.407783,-1.447847,-1.332900,-0.956067,1.713106,-1.863210,2.265694,10.674886,5.571114,11.171611,-0.122091,0.133680,0.000000,-0.196503,-0.127539,-0.000000
3.090000,0.904420,0.968523,-1.213446,2.074063,-0.376712,-0.417231,-1.430182,-1.351252,-0.932851,1.817241,-1.803203,2.379222,10.160750,6.396700,11.511861,-0.124041,0.132350,0.000000,-0.193270,-0.136187,-0.000000
3.100000,0.925089,0.964689,-1.217665,2.059853,-0.390315,-0.426440,-1.411502,-1.368964,-0.908483,1.916321,-1.735276,2.495931,9.655619,7.177584,11.814977,-0.125956,0.130935,0.000000,-0.189388,-0.144443,0.000000
3.110000,0.945617,0.960717,-1.221974,2.045833,-0.404092,-0.435400,-1.391856,-1.385958,-0.882932,2.010353,-1.659651,2.615521,9.123880,7.971832,12.089765,-0.127829,0.129438,0.000000,-0.184866,-0.152314,-0.000000
3.120000,0.966006,0.956607,-1.226373,2.032015,-0.418034,-0.444099,-1.371295,-1.402157,-0.856172,2.098799,-1.575840,2.737727,8.516303,8.829177,12.331266,-0.129654,0.127863,0.000000,-0.179649,-0.159757,0.000000
3.130000,0.986257,0.952356,-1.230856,2.018407,-0.432135,-0.452524,-1.349880,-1.417475,-0.828178,2.180679,-1.483067,2.862147,7.840794,9.730355,12.531108,-0.131422,0.126216,0.000000,-0.173650,-0.166690,-0.000000
3.140000,1.006374,0.947964,-1.235423,2.005018,-0.446384,-0.460662,-1.327681,-1.431818,-0.798929,2.255614,-1.381232,2.988349,7.162536,10.607694,12.691194,-0.133127,0.124500,0.000000,-0.166845,-0.173083,-0.000000
3.150000,1.026358,0.943429,-1.240070,1.991854,-0.460771,-0.468502,-1.304767,-1.445099,-0.768411,2.323930,-1.270913,3.115970,6.505816,11.444649,12.821225,-0.134759,0.122723,0.000000,-0.159268,-0.178969,0.000000
3.160000,1.046211,0.938749,-1.244793,1.978922,-0.475286,-0.476031,-1.281203,-1.457236,-0.736610,2.385731,-1.152339,3.244773,5.825938,12.283594,12.914327,-0.136312,0.120888,0.000000,-0.150925,-0.184361,0.000000
3.170000,1.065936,0.933923,-1.249590,1.966230,-0.489916,-0.483234,-1.257053,-1.468146,-0.703515,2.440449,-1.025242,3.374257,5.063706,13.157598,12.934506,-0.137778,0.119000,0.000000,-0.141769,-0.189210,-0.000000
3.180000,1.085535,0.928950,-1.254458,1.953781,-0.504649,-0.490101,-1.232394,-1.477741,-0.669125,2.487005,-0.889187,3.503463,4.231091,14.052275,12.876749,-0.139147,0.117067,0.000000,-0.131729,-0.193422,-0.000000
3.190000,1.105012,0.923830,-1.259392,1.941582,-0.519471,-0.496617,-1.207313,-1.485930,-0.633446,2.525071,-0.744196,3.631792,3.408041,14.919513,12.785117,-0.140412,0.115094,0.000000,-0.120779,-0.196966,-0.000000
3.200000,1.124367,0.918561,-1.264390,1.929635,-0.534367,-0.502770,-1.181892,-1.492625,-0.596489,2.555166,-0.590797,3.759166,2.619219,15.736249,12.681824,-0.141563,0.113088,0.000000,-0.108946,-0.199886,0.000000
3.210000,1.143604,0.913143,-1.269448,1.917944,-0.549323,-0.508547,-1.156209,-1.497746,-0.558263,2.577455,-0.429471,3.885429,1.811661,16.531244,12.531598,-0.142591,0.111055,0.000000,-0.096253,-0.202189,-0.000000
3.220000,1.162726,0.907575,-1.274561,1.906511,-0.564322,-0.513935,-1.130343,-1.501215,-0.518780,2.591399,-0.260172,4.009798,0.930189,17.356050,12.271165,-0.143487,0.109002,0.000000,-0.082660,-0.203823,0.000000
3.230000,1.181735,0.901856,-1.279726,1.895337,-0.579347,-0.518922,-1.104381,-1.502949,-0.478067,2.596059,-0.082350,4.130852,-0.010138,18.195887,11.903248,-0.144243,0.106936,0.000000,-0.068069,-0.204704,0.000000
3.240000,1.200633,0.895988,-1.284939,1.884423,-0.594381,-0.523496,-1.078422,-1.502862,-0.436163,2.591196,0.103745,4.247863,-0.933121,18.975621,11.508907,-0.144848,0.104865,0.000000,-0.052466,-0.204799,0.000000
3.250000,1.219423,0.889969,-1.290196,1.873769,-0.609405,-0.527646,-1.052557,-1.500874,-0.393110,2.577396,0.297162,4.361030,-1.805284,19.704678,11.128525,-0.145292,0.102797,0.000000,-0.035916,-0.204146,-0.000000
3.260000,1.238108,0.883799,-1.295492,1.863372,-0.624399,-0.531359,-1.026874,-1.496918,-0.348943,2.555090,0.497839,4.470433,-2.676077,20.426230,10.702434,-0.145566,0.100739,0.000000,-0.018397,-0.202770,0.000000
3.270000,1.256690,0.877481,-1.300823,1.853231,-0.639343,-0.534624,-1.001456,-1.490918,-0.303701,2.523875,0.705687,4.575079,-3.624464,21.087780,10.122457,-0.145659,0.098698,0.000000,0.000127,-0.200622,-0.000000
3.280000,1.275173,0.871013,-1.306185,1.843343,-0.654217,-0.537433,-0.976396,-1.482805,-0.257441,2.482601,0.919595,4.672882,-4.631582,21.669428,9.400736,-0.145562,0.096683,0.000000,0.019611,-0.197590,-0.000000
3.290000,1.293557,0.864396,-1.311572,1.833703,-0.668999,-0.539773,-0.951804,-1.472526,-0.210243,2.431243,1.139076,4.763093,-5.586926,22.239023,8.680559,-0.145266,0.094704,0.000000,0.040049,-0.193654,0.000000
3.300000,1.311847,0.857633,-1.316980,1.824307,-0.683668,-0.541637,-0.927772,-1.460023,-0.162179,2.370863,1.364375,4.846494,-6.486002,22.789228,8.000955,-0.144760,0.092769,0.000000,0.061485,-0.188883,0.000000
3.310000,1.330043,0.850723,-1.322405,1.815148,-0.698200,-0.543017,-0.904386,-1.445238,-0.113313,2.301523,1.594860,4.923112,-7.396976,23.268984,7.263503,-0.144035,0.090886,0.000000,0.083886,-0.183261,0.000000
3.320000,1.348150,0.843669,-1.327841,1.806219,-0.712572,-0.543904,-0.881741,-1.428126,-0.063717,2.222923,1.829755,4.991764,-8.303054,23.709268,6.379785,-0.143081,0.089066,0.000000,0.107224,-0.176739,0.000000
3.330000,1.366168,0.836471,-1.333283,1.797513,-0.726762,-0.544291,-0.859928,-1.408643,-0.013478,2.135462,2.069045,5.050708,-9.174984,24.125167,5.376371,-0.141889,0.087315,0.000000,0.131551,-0.169346,-0.000000
3.340000,1.384100,0.829133,-1.338726,1.789021,-0.740745,-0.544173,-0.839032,-1.386745,0.037297,2.039423,2.312258,5.099291,-10.034011,24.461756,4.369920,-0.140449,0.085645,0.000000,0.156856,-0.161087,-0.000000
3.350000,1.401948,0.821657,-1.344166,1.780732,-0.754497,-0.543545,-0.819139,-1.362398,0.088508,1.934782,2.558281,5.138107,-10.883205,24.706587,3.410888,-0.138751,0.084062,0.000000,0.183045,-0.151923,-0.000000
3.360000,1.419715,0.814043,-1.349597,1.772638,-0.767993,-0.542403,-0.800336,-1.335579,0.140059,1.821759,2.806390,5.167509,-11.701246,24.891924,2.420876,-0.136786,0.082577,0.000000,0.210061,-0.141847,-0.000000
3.370000,1.437401,0.806297,-1.355014,1.764726,-0.781209,-0.540744,-0.782704,-1.306270,0.191858,1.700757,3.056119,5.186524,-12.480927,25.021477,1.272531,-0.134548,0.081199,0.000000,0.237889,-0.130877,-0.000000
3.380000,1.455009,0.798419,-1.360412,1.756984,-0.794118,-0.538566,-0.766321,-1.274457,0.243790,1.572141,3.306819,5.192959,-13.224339,25.069263,-0.013963,-0.132027,0.079936,0.000000,0.266506,-0.119042,-0.000000
3.390000,1.472541,0.790414,-1.365786,1.749399,-0.806698,-0.535868,-0.751261,-1.240134,0.295717,1.436270,3.557504,5.186245,-13.931704,25.027648,-1.262559,-0.129216,0.078798,0.000000,0.295826,-0.106355,0.000000
3.400000,1.489997,0.782285,-1.371130,1.741959,-0.818921,-0.532652,-0.737596,-1.203307,0.347515,1.293507,3.807372,5.167708,-14.603386,24.968326,-2.414113,-0.126109,0.077792,0.000000,0.325749,-0.092817,-0.000000
3.410000,1.507380,0.774036,-1.376439,1.734647,-0.830764,-0.528918,-0.725391,-1.163986,0.399071,1.144203,4.056871,5.137963,-15.233277,24.884237,-3.584384,-0.122699,0.076928,0.000000,0.356309,-0.078436,0.000000
3.420000,1.524690,0.765670,-1.381708,1.727451,-0.842201,-0.524670,-0.714712,-1.122169,0.450274,0.988841,4.305057,5.096021,-15.804830,24.558675,-4.902461,-0.118981,0.076212,0.000000,0.387414,-0.063251,0.000000
3.430000,1.541929,0.757192,-1.386932,1.720353,-0.853207,-0.519912,-0.705614,-1.077885,0.500992,0.828106,4.548044,5.039913,-16.309196,23.978443,-6.325889,-0.114949,0.075654,0.000000,0.418659,-0.047332,0.000000
3.440000,1.559097,0.748606,-1.392106,1.713339,-0.863759,-0.514650,-0.698150,-1.031209,0.551072,0.662657,4.784626,4.969503,-16.762638,23.437098,-7.676647,-0.110606,0.075260,0.000000,0.449879,-0.030734,-0.000000
3.450000,1.576196,0.739917,-1.397225,1.706390,-0.873831,-0.508891,-0.692361,-0.982193,0.600382,0.492853,5.016786,4.886380,-17.207408,22.992265,-8.943071,-0.105950,0.075037,0.000000,0.481224,-0.013475,0.000000
3.460000,1.593225,0.731129,-1.402284,1.699491,-0.883402,-0.502643,-0.688292,-0.930873,0.648800,0.318509,5.244471,4.790641,-17.623665,22.440519,-10.234528,-0.100980,0.074990,0.000000,0.512642,0.004473,-0.000000
3.470000,1.610185,0.722249,-1.407278,1.692624,-0.892449,-0.495915,-0.685991,-0.877303,0.696195,0.140380,5.465597,4.681690,-17.880926,21.676646,-11.540756,-0.095696,0.075128,0.000000,0.543861,0.023025,-0.000000
3.480000,1.627077,0.713280,-1.412202,1.685771,-0.900949,-0.488719,-0.685485,-0.821561,0.742434,-0.039109,5.678004,4.559826,-17.974744,20.764091,-12.814129,-0.090102,0.075454,0.000000,0.574571,0.041918,-0.000000
3.490000,1.643901,0.704230,-1.417052,1.678915,-0.908880,-0.481066,-0.686773,-0.763743,0.787391,-0.219115,5.880879,4.425407,-18.078276,19.830700,-14.065072,-0.084204,0.075970,0.000000,0.604602,0.061047,-0.000000
3.500000,1.660656,0.695103,-1.421824,1.672036,-0.916223,-0.472971,-0.689867,-0.703943,0.830942,-0.400675,6.074618,4.278525,-18.228737,18.909778,-15.301828,-0.078009,0.076680,0.000000,0.633908,0.080511,-0.000000
3.510000,1.677342,0.685905,-1.426512,1.665117,-0.922959,-0.464448,-0.694787,-0.642251,0.872962,-0.583690,6.259074,4.119371,-18.304248,17.916580,-16.504905,-0.071526,0.077586,0.000000,0.662380,0.100281,0.000000
3.520000,1.693958,0.676644,-1.431113,1.658140,-0.929068,-0.455512,-0.701541,-0.578762,0.913329,-0.766760,6.432950,3.948427,-18.227625,16.758853,-17.646285,-0.064762,0.078691,0.000000,0.689769,0.120180,-0.000000
3.530000,1.710504,0.667324,-1.435622,1.651086,-0.934534,-0.446181,-0.710122,-0.513592,0.951930,-0.948242,6.594251,3.766445,-18.033792,15.459938,-18.722873,-0.057730,0.079996,0.000000,0.715738,0.140000,-0.000000
3.540000,1.726980,0.657953,-1.440036,1.643938,-0.939340,-0.436473,-0.720506,-0.446877,0.988658,-1.127436,6.742149,3.573969,-17.817052,14.145015,-19.757889,-0.050448,0.081497,0.000000,0.740079,0.159630,-0.000000
3.550000,1.743383,0.648537,-1.444352,1.636676,-0.943472,-0.426408,-0.732671,-0.378749,1.023409,-1.304583,6.877151,3.371287,-17.608058,12.862085,-20.754980,-0.042930,0.083193,0.000000,0.762733,0.179057,0.000000
3.560000,1.759713,0.639083,-1.448564,1.629284,-0.946915,-0.416005,-0.746598,-0.309334,1.056084,-1.479597,6.999390,3.158870,-17.341855,11.528736,-21.688069,-0.035194,0.085081,0.000000,0.783599,0.198232,0.000000
3.570000,1.775969,0.629599,-1.452672,1.621744,-0.949658,-0.405286,-0.762263,-0.238761,1.086587,-1.651420,7.107726,2.937526,-16.933281,10.031645,-22.527787,-0.027259,0.087160,0.000000,0.802433,0.216996,-0.000000
3.580000,1.792148,0.620090,-1.456670,1.614039,-0.951690,-0.394273,-0.779626,-0.167179,1.114834,-1.818262,7.200023,2.708314,-16.399141,8.390446,-23.264582,-0.019148,0.089423,0.000000,0.818879,0.235106,0.000000
3.590000,1.808250,0.610565,-1.460557,1.606152,-0.953002,-0.382989,-0.798628,-0.094761,1.140753,-1.979403,7.275535,2.472234,-15.852912,6.764461,-23.926190,-0.010884,0.091863,0.000000,0.832747,0.252438,-0.000000
3.600000,1.824271,0.601030,-1.464330,1.598067,-0.953586,-0.371458,-0.819214,-0.021669,1.164279,-2.135321,7.335312,2.229790,-15.327166,5.238674,-24.583390,-0.002495,0.094472,0.000000,0.844064,0.269002,-0.000000
3.610000,1.840211,0.591493,-1.467986,1.589768,-0.953435,-0.359704,-0.841334,0.051946,1.185349,-2.285947,7.380309,1.980566,-14.745753,3.708063,-25.202691,0.005994,0.097242,0.000000,0.852859,0.284735,0.000000
3.620000,1.856067,0.581961,-1.471524,1.581240,-0.952547,-0.347751,-0.864933,0.125938,1.203890,-2.430236,7.409474,1.725736,-14.035032,1.967633,-25.562976,0.014559,0.100166,0.000000,0.858939,0.299481,-0.000000
3.630000,1.871836,0.572442,-1.474941,1.572469,-0.950917,-0.335626,-0.889939,0.200135,1.219864,-2.566647,7.419661,1.469307,-13.218380,0.054433,-25.652130,0.023170,0.103232,0.000000,0.861893,0.313065,-0.000000
3.640000,1.887516,0.562943,-1.478237,1.563441,-0.948544,-0.323354,-0.916266,0.274331,1.233277,-2.694603,7.410562,1.212694,-12.395195,-1.745086,-25.764852,0.031794,0.106428,0.000000,0.861662,0.325401,-0.000000
3.650000,1.903105,0.553471,-1.481408,1.554144,-0.945430,-0.310961,-0.943831,0.348346,1.244118,-2.814551,7.384760,0.954010,-11.593996,-3.404747,-25.997812,0.040400,0.109742,0.000000,0.858526,0.336485,0.000000
3.660000,1.918599,0.544035,-1.484456,1.544565,-0.941577,-0.298472,-0.972557,0.422026,1.252357,-2.926483,7.342467,0.692737,-10.750720,-5.104993,-26.141081,0.048961,0.113162,0.000000,0.852502,0.346279,-0.000000
3.670000,1.933996,0.534640,-1.487378,1.534693,-0.936989,-0.285913,-1.002361,0.495196,1.257972,-3.029565,7.282660,0.431188,-9.803187,-6.845233,-25.967468,0.057447,0.116675,0.000000,0.843496,0.354694,0.000000
3.680000,1.949293,0.525295,-1.490174,1.524517,-0.931673,-0.273312,-1.033148,0.567679,1.260980,-3.122547,7.205563,0.173388,-8.773333,-8.544497,-25.534735,0.065828,0.120267,0.000000,0.831600,0.361625,0.000000
3.690000,1.964486,0.516006,-1.492844,1.514030,-0.925636,-0.260694,-1.064812,0.639307,1.261440,-3.205032,7.111770,-0.079506,-7.748277,-10.203518,-25.136499,0.074076,0.123922,0.000000,0.816955,0.367042,0.000000
3.700000,1.979573,0.506782,-1.495388,1.503221,-0.918887,-0.248083,-1.097249,0.709915,1.259390,-3.277513,7.001492,-0.329342,-6.750696,-11.876648,-24.835721,0.082164,0.127627,0.000000,0.799642,0.370979,-0.000000
3.710000,1.994551,0.497629,-1.497806,1.492085,-0.911438,-0.235506,-1.130362,0.779337,1.254853,-3.340046,6.874237,-0.576221,-5.726999,-13.543022,-24.433684,0.090066,0.131366,0.000000,0.779681,0.373449,0.000000
3.720000,2.009415,0.488553,-1.500098,1.480614,-0.903300,-0.222986,-1.164050,0.847399,1.247866,-3.392053,6.730632,-0.818016,-4.634390,-15.041713,-23.788149,0.097756,0.135125,0.000000,0.757259,0.374430,0.000000
3.730000,2.024163,0.479563,-1.502265,1.468804,-0.894490,-0.210549,-1.198203,0.913950,1.238493,-3.432734,6.573402,-1.051984,-3.491197,-16.355367,-22.960684,0.105210,0.138889,0.000000,0.732823,0.373900,0.000000
3.740000,2.038791,0.470664,-1.504309,1.456650,-0.885021,-0.198216,-1.232704,0.978867,1.226826,-3.461876,6.403525,-1.277229,-2.361505,-17.689100,-22.135976,0.112411,0.142643,0.000000,0.706608,0.371880,-0.000000
3.750000,2.053296,0.461862,-1.506230,1.444149,-0.874912,-0.186012,-1.267441,1.042020,1.212948,-3.479964,6.219620,-1.494703,-1.281397,-19.121357,-21.365835,0.119341,0.146373,0.000000,0.678559,0.368449,-0.000000
3.760000,2.067674,0.453165,-1.508029,1.431301,-0.864181,-0.173957,-1.302304,1.103260,1.196932,-3.487504,6.021097,-1.704546,-0.213102,-20.497207,-20.530126,0.125981,0.150064,0.000000,0.648718,0.363699,-0.000000
3.770000,2.081922,0.444579,-1.509709,1.418103,-0.852847,-0.162073,-1.337191,1.162442,1.178857,-3.484226,5.809676,-1.905306,0.925125,-21.610836,-19.505408,0.132315,0.153704,0.000000,0.617415,0.357667,0.000000
3.780000,2.096036,0.436108,-1.511271,1.404557,-0.840932,-0.150380,-1.371988,1.219453,1.158826,-3.469002,5.588881,-2.094654,2.111848,-22.499235,-18.332912,0.138329,0.157280,0.000000,0.585193,0.350314,0.000000
3.790000,2.110013,0.427760,-1.512717,1.390664,-0.828458,-0.138897,-1.406571,1.274220,1.136964,-3.441989,5.359692,-2.271964,3.227909,-23.421582,-17.182968,0.144019,0.160778,0.000000,0.552276,0.341721,0.000000
3.800000,2.123849,0.419539,-1.514049,1.376426,-0.815448,-0.127641,-1.440828,1.326647,1.113387,-3.404444,5.120449,-2.438313,4.295335,-24.414831,-16.085898,0.149375,0.164186,0.000000,0.518556,0.332059,0.000000
3.810000,2.137542,0.411451,-1.515269,1.361847,-0.801925,-0.116629,-1.474660,1.376629,1.088198,-3.356082,4.871395,-2.593682,5.382471,-25.297445,-14.935842,0.154390,0.167493,0.000000,0.484150,0.321347,-0.000000
3.820000,2.151086,0.403501,-1.516381,1.346933,-0.787915,-0.105877,-1.507950,1.424075,1.061513,-3.296794,4.614500,-2.737030,6.384681,-25.987024,-13.686584,0.159059,0.170690,0.000000,0.449376,0.309640,-0.000000
3.830000,2.164480,0.395693,-1.517387,1.331688,-0.773444,-0.095399,-1.540595,1.468919,1.033457,-3.228389,4.351655,-2.867414,7.259043,-26.534423,-12.381827,0.163379,0.173765,0.000000,0.414522,0.297201,-0.000000
3.840000,2.177720,0.388032,-1.518289,1.316121,-0.758537,-0.085208,-1.572517,1.511108,1.004165,-3.151613,4.083812,-2.984667,8.146295,-27.032944,-11.089859,0.167351,0.176714,0.000000,0.379751,0.284157,0.000000
3.850000,2.190803,0.380522,-1.519091,1.300238,-0.743221,-0.075316,-1.603628,1.550595,0.973764,-3.065463,3.810996,-3.089211,9.119418,-27.528430,-9.816057,0.170975,0.179529,0.000000,0.345109,0.270432,-0.000000
3.860000,2.203725,0.373167,-1.519796,1.284048,-0.727525,-0.065733,-1.633827,1.587328,0.942381,-2.969225,3.533243,-3.180988,10.069581,-27.953418,-8.526880,0.174254,0.182203,0.000000,0.310642,0.255986,-0.000000
3.870000,2.216484,0.365972,-1.520406,1.267561,-0.711475,-0.056468,-1.663012,1.621260,0.910144,-2.864071,3.251927,-3.259749,10.811223,-28.165058,-7.231355,0.177190,0.184728,0.000000,0.276529,0.240989,0.000000
3.880000,2.229076,0.358938,-1.520925,1.250788,-0.695100,-0.047530,-1.691108,1.652367,0.877186,-2.753001,2.969942,-3.325615,11.368308,-28.168528,-5.956542,0.179786,0.187100,0.000000,0.243084,0.225786,0.000000
3.890000,2.241499,0.352070,-1.521356,1.233739,-0.678427,-0.038924,-1.718072,1.680658,0.843632,-2.636705,2.688557,-3.378879,11.979820,-28.156396,-4.700964,0.182053,0.189318,0.000000,0.210438,0.210465,-0.000000
3.900000,2.253751,0.345369,-1.521703,1.216426,-0.661486,-0.030657,-1.743842,1.706138,0.809608,-2.513404,2.406814,-3.419634,12.682480,-28.232776,-3.424192,0.183997,0.191381,0.000000,0.178493,0.194854,-0.000000
3.910000,2.265828,0.338840,-1.521969,1.198862,-0.644305,-0.022732,-1.768340,1.728795,0.775239,-2.383055,2.123901,-3.447363,13.310398,-28.261682,-2.142733,0.185624,0.193283,0.000000,0.147168,0.178978,0.000000
3.920000,2.277728,0.332483,-1.522158,1.181060,-0.626911,-0.015152,-1.791503,1.748616,0.740661,-2.247196,1.841580,-3.462489,13.788785,-27.978668,-0.992793,0.186942,0.195023,0.000000,0.116622,0.163002,0.000000
3.930000,2.289449,0.326302,-1.522272,1.163032,-0.609332,-0.007919,-1.813284,1.765626,0.705990,-2.107280,1.564328,-3.467219,14.166782,-27.426866,0.010020,0.187958,0.196601,0.000000,0.087253,0.147039,0.000000
3.940000,2.300989,0.320297,-1.522316,1.144794,-0.591598,-0.001033,-1.833649,1.779902,0.671316,-1.963861,1.293043,-3.462289,14.531118,-26.962945,1.040191,0.188688,0.198018,0.000000,0.059108,0.131134,0.000000
3.950000,2.312345,0.314470,-1.522293,1.126359,-0.573734,0.005507,-1.852561,1.791487,0.636744,-1.816657,1.025069,-3.446415,14.916318,-26.599072,2.169143,0.189142,0.199272,0.000000,0.031906,0.115284,0.000000
3.960000,2.323516,0.308822,-1.522206,1.107743,-0.555768,0.011702,-1.869982,1.800404,0.602388,-1.665534,0.761062,-3.418906,15.262293,-26.103291,3.265057,0.189327,0.200366,0.000000,0.005699,0.099488,-0.000000
3.970000,2.334500,0.303354,-1.522059,1.088960,-0.537726,0.017555,-1.885872,1.806708,0.568366,-1.511411,0.503003,-3.381114,15.464389,-25.516148,4.140265,0.189257,0.201299,0.000000,-0.019375,0.083809,0.000000
3.980000,2.345295,0.298067,-1.521855,1.070025,-0.519634,0.023070,-1.900210,1.810464,0.534766,-1.356246,0.250739,-3.336100,15.538849,-24.927521,4.823285,0.188941,0.202073,0.000000,-0.043434,0.068375,-0.000000
3.990000,2.355900,0.292962,-1.521598,1.050955,-0.501517,0.028250,-1.912997,1.811723,0.501644,-1.200635,0.004453,-3.284648,15.625740,-24.271016,5.553361,0.188389,0.202692,0.000000,-0.066511,0.053218,0.000000
4.000000,2.366314,0.288037,-1.521290,1.031765,-0.483400,0.033103,-1.924223,1.810553,0.469073,-1.043732,-0.234682,-3.225033,15.745349,-23.526889,6.385159,0.187611,0.203157,0.000000,-0.088487,0.038278,0.000000
4.010000,2.376536,0.283294,-1.520936,1.012471,-0.465306,0.037632,-1.933872,1.807030,0.437143,-0.885728,-0.466085,-3.156945,15.804608,-22.751717,7.150543,0.186620,0.203472,0.000000,-0.109335,0.023567,-0.000000
4.020000,2.386564,0.278731,-1.520537,0.993088,-0.447259,0.041845,-1.941938,1.801231,0.405934,-0.727640,-0.689716,-3.082022,15.772174,-21.972175,7.718138,0.185425,0.203637,0.000000,-0.129120,0.009142,0.000000
4.030000,2.396397,0.274348,-1.520099,0.973632,-0.429281,0.045751,-1.948424,1.793235,0.375503,-0.570284,-0.905529,-3.002582,15.681339,-21.177765,8.135596,0.184038,0.203658,0.000000,-0.147918,-0.004978,0.000000
4.040000,2.406036,0.270145,-1.519622,0.954119,-0.411394,0.049355,-1.953343,1.783121,0.345882,-0.414013,-1.113271,-2.919310,15.570661,-20.346697,8.567008,0.182467,0.203537,0.000000,-0.165749,-0.018788,-0.000000
4.050000,2.415480,0.266121,-1.519112,0.934565,-0.393619,0.052668,-1.956705,1.770970,0.317116,-0.258871,-1.312462,-2.831242,15.442730,-19.464487,9.053070,0.180723,0.203276,0.000000,-0.182575,-0.032278,0.000000
4.060000,2.424728,0.262273,-1.518569,0.914985,-0.375975,0.055698,-1.958521,1.756871,0.289257,-0.105158,-1.502561,-2.738249,15.275698,-18.554019,9.481539,0.178816,0.202881,0.000000,-0.198370,-0.045429,0.000000
4.070000,2.433780,0.258601,-1.517998,0.895395,-0.358482,0.058453,-1.958808,1.740919,0.262351,0.046643,-1.683543,-2.641612,15.064799,-17.675585,9.747698,0.176756,0.202353,0.000000,-0.213183,-0.058237,-0.000000
4.080000,2.442636,0.255103,-1.517400,0.875809,-0.341157,0.060945,-1.957588,1.723200,0.236425,0.196138,-1.856073,-2.543295,14.820686,-16.831677,9.885359,0.174552,0.201698,0.000000,-0.227139,-0.070715,0.000000
4.090000,2.451296,0.251778,-1.516779,0.856243,-0.324018,0.063182,-1.954885,1.703797,0.211486,0.343057,-2.020176,-2.443904,14.552604,-15.949576,10.030956,0.172213,0.200917,0.000000,-0.240271,-0.082864,-0.000000
4.100000,2.459760,0.248623,-1.516136,0.836711,-0.307081,0.065175,-1.950727,1.682797,0.187547,0.487190,-2.175064,-2.342676,14.258672,-15.004806,10.211077,0.169746,0.200016,0.000000,-0.252507,-0.094659,-0.000000
4.110000,2.468030,0.245636,-1.515475,0.817229,-0.290362,0.066933,-1.945141,1.660296,0.164632,0.628230,-2.320273,-2.239683,13.936823,-14.054174,10.335827,0.167162,0.198997,0.000000,-0.263820,-0.106085,0.000000
4.120000,2.476105,0.242816,-1.514798,0.797809,-0.273875,0.068467,-1.938162,1.636391,0.142754,0.765926,-2.456148,-2.135959,13.599205,-13.167788,10.349138,0.164470,0.197864,0.000000,-0.274276,-0.117150,-0.000000
4.130000,2.483986,0.240159,-1.514106,0.778465,-0.257634,0.069788,-1.929823,1.611173,0.121913,0.900214,-2.583628,-2.032700,13.250905,-12.334596,10.283437,0.161677,0.196622,0.000000,-0.283999,-0.127883,0.000000
4.140000,2.491674,0.237663,-1.513402,0.759212,-0.241651,0.070905,-1.920158,1.584719,0.102100,1.030944,-2.702840,-1.930291,12.879577,-11.469533,10.212717,0.158790,0.195273,0.000000,-0.293016,-0.138284,-0.000000
4.150000,2.499170,0.235326,-1.512688,0.740062,-0.225939,0.071830,-1.909204,1.557116,0.083307,1.157806,-2.813019,-1.828446,12.477479,-10.553334,10.140002,0.155816,0.193821,0.000000,-0.301257,-0.148328,0.000000
4.160000,2.506475,0.233144,-1.511965,0.721028,-0.210509,0.072572,-1.897002,1.528459,0.065531,1.280494,-2.913906,-1.727491,12.057156,-9.648576,10.020870,0.152764,0.192270,0.000000,-0.308707,-0.157999,0.000000
4.170000,2.513591,0.231116,-1.511236,0.702122,-0.195370,0.073141,-1.883594,1.498838,0.048757,1.398949,-3.005990,-1.628028,11.645200,-8.808670,9.860119,0.149642,0.190624,0.000000,-0.315427,-0.167309,-0.000000
4.180000,2.520518,0.229237,-1.510503,0.683356,-0.180532,0.073547,-1.869023,1.468339,0.032970,1.513398,-3.090080,-1.530288,11.241807,-8.018016,9.678031,0.146455,0.188886,0.000000,-0.321501,-0.176292,-0.000000
4.190000,2.527258,0.227505,-1.509765,0.664742,-0.166003,0.073800,-1.853326,1.437036,0.018151,1.623785,-3.166351,-1.434468,10.815546,-7.213007,9.470204,0.143211,0.187060,0.000000,-0.326951,-0.184951,0.000000
4.200000,2.533813,0.225917,-1.509027,0.646290,-0.151791,0.073910,-1.836547,1.405012,0.004281,1.729709,-3.234340,-1.340884,10.357381,-6.380589,9.230006,0.139916,0.185148,0.000000,-0.331736,-0.193256,0.000000
4.210000,2.540184,0.224469,-1.508287,0.628011,-0.137903,0.073886,-1.818732,1.372350,-0.008666,1.830933,-3.293963,-1.249868,9.892026,-5.566846,8.966336,0.136576,0.183156,0.000000,-0.335849,-0.201195,-0.000000
4.220000,2.546373,0.223159,-1.507549,0.609915,-0.124344,0.073736,-1.799928,1.339132,-0.020717,1.927550,-3.345677,-1.161557,9.446413,-4.809772,8.701350,0.133198,0.181087,0.000000,-0.339336,-0.208780,0.000000
4.230000,2.552382,0.221982,-1.506813,0.592012,-0.111121,0.073471,-1.780181,1.305436,-0.031897,2.019861,-3.390158,-1.075841,9.015752,-4.097795,8.438132,0.129789,0.178943,0.000000,-0.342255,-0.216042,0.000000
4.240000,2.558213,0.220936,-1.506079,0.574311,-0.098236,0.073098,-1.759531,1.271329,-0.042233,2.107865,-3.427633,-0.992795,8.568412,-3.385363,8.152799,0.126353,0.176729,0.000000,-0.344625,-0.222983,-0.000000
4.250000,2.563868,0.220017,-1.505351,0.556822,-0.085694,0.072627,-1.738024,1.236883,-0.051753,2.191229,-3.457865,-0.912785,8.097447,-2.661131,7.832600,0.122896,0.174447,0.000000,-0.346424,-0.229577,0.000000
4.260000,2.569350,0.219222,-1.504627,0.539551,-0.073498,0.072063,-1.715706,1.202172,-0.060489,2.269814,-3.480855,-0.836143,7.626734,-1.957936,7.499071,0.119424,0.172102,0.000000,-0.347648,-0.235817,-0.000000
4.270000,2.574659,0.218548,-1.503909,0.522507,-0.061650,0.071417,-1.692627,1.167266,-0.068476,2.343764,-3.497024,-0.762803,7.177365,-1.308279,7.194190,0.115943,0.169697,0.000000,-0.348332,-0.241712,-0.000000
4.280000,2.579800,0.217989,-1.503199,0.505698,-0.050153,0.070694,-1.668831,1.132232,-0.075745,2.413361,-3.507021,-0.692259,6.744150,-0.703500,6.917162,0.112457,0.167235,0.000000,-0.348525,-0.247283,-0.000000
4.290000,2.584773,0.217544,-1.502495,0.489131,-0.039006,0.069902,-1.644360,1.097126,-0.082321,2.478647,-3.511094,-0.624460,6.302567,-0.103297,6.616886,0.108972,0.164720,0.000000,-0.348245,-0.252530,-0.000000
4.300000,2.589582,0.217209,-1.501801,0.472811,-0.028210,0.069047,-1.619258,1.062010,-0.088234,2.539412,-3.509087,-0.559921,5.845861,0.498690,6.276121,0.105492,0.162154,0.000000,-0.347475,-0.257439,-0.000000
4.310000,2.594230,0.216980,-1.501114,0.456746,-0.017766,0.068137,-1.593572,1.026944,-0.093520,2.595564,-3.501120,-0.498937,5.392514,1.074337,5.933944,0.102023,0.159542,0.000000,-0.346223,-0.262003,0.000000
4.320000,2.598717,0.216854,-1.500438,0.440940,-0.007671,0.067177,-1.567347,0.991987,-0.098213,2.647262,-3.487600,-0.441242,4.963343,1.608027,5.638889,0.098568,0.156887,0.000000,-0.344518,-0.266230,-0.000000
4.330000,2.603048,0.216827,-1.499771,0.425399,0.002074,0.066173,-1.540627,0.957192,-0.102345,2.694831,-3.468960,-0.386160,4.554431,2.107993,5.383052,0.095132,0.154191,0.000000,-0.342387,-0.270139,0.000000
4.340000,2.607225,0.216895,-1.499114,0.410127,0.011472,0.065130,-1.513450,0.922608,-0.105936,2.738351,-3.445440,-0.333581,4.140424,2.592648,5.106494,0.091720,0.151459,0.000000,-0.339847,-0.273732,-0.000000
4.350000,2.611251,0.217056,-1.498468,0.395130,0.020526,0.064054,-1.485860,0.888283,-0.109016,2.777640,-3.417107,-0.284030,3.715477,3.066641,4.793836,0.088335,0.148693,0.000000,-0.336903,-0.276997,0.000000
4.360000,2.615128,0.217306,-1.497833,0.380410,0.029238,0.062950,-1.457898,0.854266,-0.111617,2.812661,-3.384107,-0.237705,3.298079,3.517185,4.488513,0.084982,0.145897,0.000000,-0.333564,-0.279929,-0.000000
4.370000,2.618859,0.217641,-1.497209,0.365972,0.037612,0.061822,-1.429606,0.820601,-0.113770,2.843601,-3.346763,-0.194260,2.904259,3.930435,4.231621,0.081664,0.143074,0.000000,-0.329851,-0.282537,-0.000000
4.380000,2.622447,0.218058,-1.496597,0.351818,0.045650,0.060674,-1.401026,0.787331,-0.115502,2.870746,-3.305499,-0.153072,2.529281,4.309689,4.012195,0.078384,0.140228,0.000000,-0.325796,-0.284836,0.000000
4.390000,2.625895,0.218554,-1.495996,0.337951,0.053358,0.059512,-1.372191,0.754491,-0.116832,2.894187,-3.260569,-0.114016,2.153811,4.672884,3.779402,0.075148,0.137360,0.000000,-0.321416,-0.286832,0.000000
4.400000,2.629206,0.219125,-1.495407,0.324374,0.060740,0.058338,-1.343142,0.722119,-0.117782,2.913822,-3.212041,-0.077484,1.773815,5.025261,3.520880,0.071956,0.134475,0.000000,-0.316716,-0.288515,-0.000000
4.410000,2.632383,0.219769,-1.494829,0.311088,0.067801,0.057156,-1.313915,0.690250,-0.118381,2.929663,-3.160064,-0.043598,1.403090,5.354566,3.272504,0.068813,0.131575,0.000000,-0.311706,-0.289884,0.000000
4.420000,2.635428,0.220481,-1.494263,0.298096,0.074545,0.055970,-1.284549,0.658918,-0.118654,2.941884,-3.104950,-0.012034,1.052993,5.648105,3.066930,0.065722,0.128663,0.000000,-0.306411,-0.290949,-0.000000
4.430000,2.638345,0.221260,-1.493710,0.285397,0.080979,0.054783,-1.255077,0.628151,-0.118622,2.950723,-3.047102,0.017741,0.720041,5.909673,2.894295,0.062685,0.125743,0.000000,-0.300861,-0.291723,-0.000000
4.440000,2.641136,0.222101,-1.493168,0.272994,0.087108,0.053598,-1.225534,0.597976,-0.118300,2.956285,-2.986756,0.045852,0.390333,6.156073,2.713446,0.059705,0.122817,0.000000,-0.295076,-0.292211,-0.000000
4.450000,2.643805,0.223002,-1.492638,0.260887,0.092938,0.052417,-1.195952,0.568416,-0.117705,2.958530,-2.923980,0.072009,0.059676,6.390113,2.515211,0.056783,0.119888,0.000000,-0.289061,-0.292411,0.000000
4.460000,2.646354,0.223960,-1.492119,0.249075,0.098476,0.051244,-1.166363,0.539496,-0.116859,2.957478,-2.858954,0.096156,-0.262029,6.600852,2.327808,0.053924,0.116959,0.000000,-0.282831,-0.292322,-0.000000
4.470000,2.648786,0.224971,-1.491613,0.237559,0.103728,0.050080,-1.136802,0.511237,-0.115782,2.953289,-2.791963,0.118566,-0.563249,6.783134,2.173893,0.051127,0.114033,0.000000,-0.276409,-0.291952,0.000000
4.480000,2.651105,0.226034,-1.491118,0.226339,0.108701,0.048928,-1.107298,0.483657,-0.114488,2.946213,-2.723291,0.139634,-0.846560,6.940577,2.044708,0.048395,0.111113,0.000000,-0.269819,-0.291321,-0.000000
4.490000,2.653313,0.227145,-1.490634,0.215414,0.113401,0.047790,-1.077878,0.456771,-0.112989,2.936358,-2.653152,0.159460,-1.126795,7.080146,1.911242,0.045731,0.108200,0.000000,-0.263079,-0.290435,-0.000000
4.500000,2.655413,0.228302,-1.490162,0.204782,0.117837,0.046668,-1.048571,0.430594,-0.111299,2.923677,-2.581688,0.177859,-1.407220,7.205542,1.769168,0.043134,0.105298,0.000000,-0.256204,-0.289289,-0.000000
4.510000,2.657409,0.229502,-1.489701,0.194442,0.122013,0.045564,-1.019404,0.405138,-0.109432,2.908213,-2.509041,0.194843,-1.677685,7.312558,1.637562,0.040607,0.102409,0.000000,-0.249204,-0.287884,0.000000
4.520000,2.659302,0.230743,-1.489251,0.184393,0.125939,0.044480,-0.990406,0.380413,-0.107402,2.890124,-2.435437,0.210610,-1.930631,7.391868,1.525280,0.038150,0.099535,0.000000,-0.242102,-0.286233,0.000000
4.530000,2.661097,0.232021,-1.488811,0.174634,0.129622,0.043416,-0.961602,0.356429,-0.105220,2.869601,-2.361204,0.225349,-2.169094,7.444861,1.425502,0.035765,0.096680,0.000000,-0.234926,-0.284351,-0.000000
4.540000,2.662795,0.233335,-1.488382,0.165161,0.133068,0.042375,-0.933014,0.333189,-0.102895,2.846742,-2.286540,0.239120,-2.402789,7.485107,1.326833,0.033451,0.093845,0.000000,-0.227697,-0.282245,0.000000
4.550000,2.664400,0.234682,-1.487964,0.155974,0.136285,0.041358,-0.904667,0.310698,-0.100438,2.821545,-2.211502,0.251885,-2.634395,7.516362,1.228399,0.031211,0.091032,0.000000,-0.220418,-0.279914,-0.000000
4.560000,2.665914,0.236061,-1.487555,0.147068,0.139282,0.040366,-0.876583,0.288959,-0.097857,2.794054,-2.136213,0.263688,-2.857470,7.530162,1.136907,0.029043,0.088244,0.000000,-0.213103,-0.277360,-0.000000
4.570000,2.667341,0.237468,-1.487157,0.138442,0.142065,0.039401,-0.848786,0.267974,-0.095164,2.764396,-2.060898,0.274624,-3.065518,7.519940,1.053250,0.026949,0.085482,0.000000,-0.205772,-0.274594,0.000000
4.580000,2.668683,0.238902,-1.486767,0.130092,0.144641,0.038463,-0.821295,0.247741,-0.092365,2.732743,-1.985814,0.284753,-3.260551,7.488908,0.974231,0.024928,0.082750,0.000000,-0.198451,-0.271630,0.000000
4.590000,2.669943,0.240361,-1.486387,0.122016,0.147019,0.037554,-0.794131,0.228258,-0.089469,2.699185,-1.911120,0.294108,-3.451402,7.446748,0.898098,0.022980,0.080048,0.000000,-0.191156,-0.268477,-0.000000
4.600000,2.671123,0.241842,-1.486016,0.114210,0.149206,0.036674,-0.767312,0.209519,-0.086483,2.663715,-1.836879,0.302715,-3.640474,7.396463,0.826118,0.021105,0.077379,0.000000,-0.183892,-0.265133,-0.000000
4.610000,2.672227,0.243345,-1.485654,0.106670,0.151210,0.035824,-0.740857,0.191520,-0.083414,2.626375,-1.763191,0.310631,-3.822095,7.332516,0.758365,0.019302,0.074744,0.000000,-0.176671,-0.261600,-0.000000
4.620000,2.673257,0.244867,-1.485300,0.099393,0.153037,0.035005,-0.714784,0.174255,-0.080270,2.587273,-1.690229,0.317882,-3.991250,7.249485,0.689825,0.017571,0.072146,0.000000,-0.169509,-0.257888,0.000000
4.630000,2.674215,0.246406,-1.484954,0.092374,0.154695,0.034219,-0.689111,0.157715,-0.077057,2.546550,-1.618201,0.324427,-4.149968,7.149823,0.619164,0.015912,0.069586,0.000000,-0.162427,-0.254011,-0.000000
4.640000,2.675104,0.247960,-1.484615,0.085610,0.156191,0.033464,-0.663853,0.141891,-0.073782,2.504274,-1.547232,0.330266,-4.305301,7.042136,0.552230,0.014323,0.067065,0.000000,-0.155440,-0.249974,-0.000000
4.650000,2.675927,0.249529,-1.484284,0.079097,0.157533,0.032743,-0.639026,0.126771,-0.070451,2.460444,-1.477358,0.335472,-4.459069,6.928968,0.492556,0.012803,0.064586,0.000000,-0.148549,-0.245777,-0.000000
4.660000,2.676686,0.251111,-1.483960,0.072830,0.158727,0.032055,-0.614644,0.112344,-0.067072,2.415093,-1.408653,0.340117,-4.607029,6.805694,0.435097,0.011352,0.062149,0.000000,-0.141763,-0.241422,0.000000
4.670000,2.677384,0.252704,-1.483643,0.066804,0.159780,0.031402,-0.590724,0.098598,-0.063649,2.368303,-1.341245,0.344174,-4.745762,6.668745,0.369237,0.009968,0.059757,0.000000,-0.135096,-0.236916,0.000000
4.680000,2.678022,0.254307,-1.483332,0.061015,0.160699,0.030782,-0.567278,0.085519,-0.060189,2.320177,-1.275278,0.347501,-4.876980,6.520590,0.295448,0.008650,0.057411,0.000000,-0.128563,-0.232270,0.000000
4.690000,2.678604,0.255918,-1.483028,0.055459,0.161490,0.030198,-0.544320,0.073092,-0.056699,2.270764,-1.210833,0.350082,-5.005856,6.367526,0.227043,0.007397,0.055112,0.000000,-0.122171,-0.227488,0.000000
4.700000,2.679132,0.257537,-1.482728,0.050129,0.162160,0.029648,-0.521863,0.061302,-0.053187,2.220060,-1.147927,0.352042,-5.133821,6.210926,0.167331,0.006206,0.052861,0.000000,-0.115923,-0.222570,-0.000000
4.710000,2.679607,0.259161,-1.482435,0.045021,0.162716,0.029134,-0.499919,0.050134,-0.049658,2.168087,-1.086614,0.353429,-5.258034,6.047932,0.106568,0.005078,0.050660,0.000000,-0.109826,-0.217515,-0.000000
4.720000,2.680032,0.260791,-1.482146,0.040131,0.163163,0.028655,-0.478501,0.039570,-0.046118,2.114900,-1.026969,0.354174,-5.376255,5.878230,0.036252,0.004010,0.048511,0.000000,-0.103886,-0.212331,-0.000000
4.730000,2.680409,0.262424,-1.481862,0.035451,0.163507,0.028212,-0.457621,0.029594,-0.042575,2.060562,-0.969050,0.354154,-5.489818,5.703942,-0.041294,0.003000,0.046414,0.000000,-0.098111,-0.207022,-0.000000
4.740000,2.680741,0.264061,-1.481582,0.030978,0.163755,0.027804,-0.437290,0.020189,-0.039035,2.005103,-0.912890,0.353348,-5.602557,5.527139,-0.115730,0.002048,0.044370,0.000000,-0.092505,-0.201593,0.000000
4.750000,2.681029,0.265700,-1.481305,0.026706,0.163911,0.027431,-0.417519,0.011336,-0.035508,1.948511,-0.858507,0.351840,-5.715592,5.348335,-0.183790,0.001150,0.042382,0.000000,-0.087069,-0.196041,0.000000
4.760000,2.681275,0.267339,-1.481033,0.022628,0.163982,0.027094,-0.398320,0.003019,-0.031999,1.890791,-0.805923,0.349672,-5.827008,5.167612,-0.252954,0.000306,0.040449,0.000000,-0.081806,-0.190365,0.000000
4.770000,2.681481,0.268979,-1.480764,0.018739,0.163972,0.026791,-0.379703,-0.004782,-0.028514,1.831971,-0.755155,0.346780,-5.935734,4.986579,-0.332345,-0.000486,0.038574,0.000000,-0.076718,-0.184569,0.000000
4.780000,2.681650,0.270619,-1.480497,0.015034,0.163886,0.026523,-0.361680,-0.012084,-0.025063,1.772077,-0.706192,0.343025,-6.042961,4.807015,-0.420274,-0.001228,0.036758,0.000000,-0.071806,-0.178655,-0.000000
4.790000,2.681782,0.272257,-1.480233,0.011506,0.163730,0.026290,-0.344262,-0.018906,-0.021654,1.711112,-0.659014,0.338375,-6.150909,4.628472,-0.505083,-0.001922,0.035001,0.000000,-0.067066,-0.172624,-0.000000
4.800000,2.681880,0.273893,-1.479971,0.008149,0.163508,0.026090,-0.327458,-0.025265,-0.018295,1.649059,-0.613622,0.332923,-6.260488,4.446937,-0.582969,-0.002569,0.033306,0.000000,-0.062500,-0.166473,0.000000
4.810000,2.681945,0.275527,-1.479711,0.004956,0.163225,0.025924,-0.311281,-0.031178,-0.014995,1.585902,-0.570076,0.326716,-6.371053,4.264498,-0.662061,-0.003172,0.031672,0.000000,-0.058115,-0.160200,0.000000
4.820000,2.681979,0.277158,-1.479453,0.001923,0.162884,0.025790,-0.295740,-0.036666,-0.011761,1.521638,-0.528332,0.319682,-6.482002,4.095588,-0.751893,-0.003731,0.030102,0.000000,-0.053906,-0.153805,0.000000
4.830000,2.681984,0.278785,-1.479196,-0.000958,0.162491,0.025689,-0.280848,-0.041745,-0.008602,1.456262,-0.488164,0.311678,-6.594205,3.941027,-0.849947,-0.004250,0.028596,0.000000,-0.049850,-0.147287,0.000000
4.840000,2.681960,0.280408,-1.478939,-0.003694,0.162049,0.025618,-0.266615,-0.046429,-0.005528,1.389753,-0.449512,0.302683,-6.709298,3.782850,-0.943860,-0.004728,0.027156,0.000000,-0.045942,-0.140644,-0.000000
4.850000,2.681910,0.282026,-1.478683,-0.006291,0.161563,0.025578,-0.253053,-0.050735,-0.002548,1.322076,-0.412507,0.292801,-6.827714,3.619996,-1.032800,-0.005169,0.025783,0.000000,-0.042196,-0.133873,-0.000000
4.860000,2.681834,0.283639,-1.478428,-0.008755,0.161035,0.025567,-0.240173,-0.054680,0.000328,1.253199,-0.377112,0.282027,-6.949284,3.465779,-1.124865,-0.005572,0.024478,0.000000,-0.038608,-0.126969,0.000000
4.870000,2.681735,0.285246,-1.478172,-0.011094,0.160469,0.025585,-0.227989,-0.058277,0.003092,1.183090,-0.343191,0.270303,-7.074474,3.321889,-1.220606,-0.005941,0.023244,0.000000,-0.035164,-0.119931,0.000000
4.880000,2.681612,0.286848,-1.477916,-0.013315,0.159869,0.025629,-0.216512,-0.061543,0.005734,1.111710,-0.310674,0.257615,-7.203925,3.184542,-1.317064,-0.006276,0.022080,0.000000,-0.031859,-0.112753,0.000000
4.890000,2.681468,0.288444,-1.477659,-0.015424,0.159238,0.025699,-0.205755,-0.064491,0.008245,1.039012,-0.279500,0.243962,-7.338157,3.054061,-1.413927,-0.006578,0.020989,0.000000,-0.028686,-0.105431,0.000000
4.900000,2.681304,0.290033,-1.477402,-0.017430,0.158579,0.025794,-0.195731,-0.067133,0.010614,0.964947,-0.249593,0.229337,-7.477664,2.931647,-1.511450,-0.006849,0.019971,0.000000,-0.025638,-0.097961,-0.000000
4.910000,2.681120,0.291615,-1.477143,-0.019339,0.157896,0.025912,-0.186456,-0.069483,0.012831,0.889459,-0.220867,0.213733,-7.622888,2.817936,-1.609510,-0.007091,0.019029,0.000000,-0.022706,-0.090337,-0.000000
4.920000,2.680917,0.293191,-1.476884,-0.021159,0.157190,0.026051,-0.177942,-0.071551,0.014888,0.812489,-0.193234,0.197146,-7.774301,2.713532,-1.707969,-0.007303,0.018164,0.000000,-0.019881,-0.082553,-0.000000
4.930000,2.680696,0.294759,-1.476622,-0.022898,0.156465,0.026209,-0.170206,-0.073347,0.016774,0.733973,-0.166597,0.179574,-7.932410,2.619037,-1.806704,-0.007488,0.017378,0.000000,-0.017155,-0.074604,-0.000000
4.940000,2.680459,0.296320,-1.476359,-0.024563,0.155723,0.026386,-0.163263,-0.074883,0.018480,0.653841,-0.140853,0.161012,-8.097696,2.535054,-1.905578,-0.007646,0.016672,0.000000,-0.014517,-0.066482,0.000000
4.950000,2.680205,0.297874,-1.476095,-0.026163,0.154967,0.026579,-0.157129,-0.076165,0.019995,0.572019,-0.115896,0.141462,-8.270636,2.462185,-2.004444,-0.007779,0.016049,0.000000,-0.011956,-0.058180,-0.000000
4.960000,2.679936,0.299420,-1.475828,-0.027706,0.154199,0.026786,-0.151822,-0.077201,0.021309,0.488428,-0.091610,0.120923,-8.451722,2.401032,-2.103182,-0.007886,0.015509,0.000000,-0.009461,-0.049692,-0.000000
4.970000,2.679651,0.300958,-1.475559,-0.029200,0.153423,0.027005,-0.147360,-0.077997,0.022413,0.402984,-0.067875,0.099398,78.238240,51.755947,-17.468829,-0.007968,0.015055,0.000000,-0.007019,-0.041009,0.000000
4.980000,2.679352,0.302488,-1.475288,-0.030653,0.152640,0.027234,-0.143763,-0.078558,0.023297,2.053193,0.943509,-0.228453,163.229290,101.107343,-33.198894,-0.008026,0.014689,0.000000,0.096553,-0.210085,0.000000
4.990000,2.679038,0.304010,-1.475014,-0.032075,0.151852,0.027471,-0.106297,-0.059127,0.017844,3.667570,1.954272,-0.564580,76.767526,51.094277,-17.770503,-0.006038,0.010855,0.000000,0.199880,-0.375116,0.000000
5.000000,2.678710,0.305525,-1.474738,-0.032779,0.151457,0.027591,-0.070411,-0.039473,0.012005,3.588543,1.965395,-0.583863,-7.902687,1.112302,-1.928370,-0.004029,0.007186,0.000000,0.200813,-0.366659,0.000000
