time,x,y,z,vx,vy,vz,ax,ay,az,jx,jy,jz,sx,sy,sz,roll,pitch,yaw,p,q,r
0.000000,-2.678206,0.248217,-1.489780,-0.003130,0.005944,0.003914,-0.016422,0.050607,0.010599,-0.681959,2.051817,0.288898,16.046001,-49.480366,-22.209797,0.005164,0.001676,0.000000,0.209528,0.069640,-0.000000
0.010000,-2.678238,0.248276,-1.489741,-0.003294,0.006450,0.004020,-0.023242,0.071125,0.013488,-0.521499,1.557014,0.066800,43.186021,-127.005334,-38.841626,0.007260,0.002372,0.000000,0.158975,0.053248,0.000000
0.020000,-2.678272,0.248346,-1.489700,-0.003595,0.007366,0.004184,-0.026852,0.081747,0.011935,0.181761,-0.488289,-0.487934,66.315045,-182.496993,-41.352913,0.008343,0.002741,0.000000,-0.050247,-0.018686,0.000000
0.030000,-2.678309,0.248423,-1.489657,-0.003831,0.008085,0.004258,-0.019607,0.061359,0.003730,0.804802,-2.092926,-0.760258,38.930501,-85.109305,-8.284271,0.006257,0.001999,0.000000,-0.213903,-0.082223,0.000000
0.040000,-2.678349,0.248507,-1.489615,-0.003987,0.008593,0.004258,-0.010756,0.039889,-0.003270,0.960371,-2.190475,-0.653620,15.071343,-8.697438,9.364680,0.004065,0.001096,0.000000,-0.223482,-0.097937,-0.000000
0.050000,-2.678389,0.248595,-1.489572,-0.004046,0.008882,0.004193,-0.000399,0.017550,-0.009343,1.106229,-2.266875,-0.572965,14.111473,-6.613392,6.959041,0.001787,0.000041,0.000000,-0.230962,-0.112660,0.000000
0.060000,-2.678430,0.248685,-1.489531,-0.003995,0.008944,0.004071,0.011368,-0.005449,-0.014729,1.242601,-2.322743,-0.514439,13.175191,-4.592704,4.925654,-0.000555,-0.001157,0.000000,-0.236389,-0.126416,-0.000000
0.070000,-2.678469,0.248774,-1.489491,-0.003819,0.008774,0.003898,0.024453,-0.028905,-0.019632,1.369732,-2.358729,-0.474451,12.264236,-2.638381,3.238385,-0.002941,-0.002488,0.000000,-0.239815,-0.139226,-0.000000
0.080000,-2.678506,0.248861,-1.489453,-0.003506,0.008366,0.003679,0.038763,-0.052623,-0.024218,1.487885,-2.375511,-0.449671,11.380329,-0.753430,1.871102,-0.005351,-0.003942,0.000000,-0.241299,-0.151112,-0.000000
0.090000,-2.678539,0.248942,-1.489417,-0.003044,0.007721,0.003414,0.054211,-0.076415,-0.028625,1.597339,-2.373797,-0.437029,10.525208,1.059141,0.797668,-0.007767,-0.005510,0.000000,-0.240903,-0.162099,0.000000
0.100000,-2.678567,0.249015,-1.489385,-0.002422,0.006838,0.003106,0.070710,-0.100099,-0.032959,1.698390,-2.354328,-0.433718,9.700611,2.796323,-0.008053,-0.010169,-0.007184,0.000000,-0.238698,-0.172214,0.000000
0.110000,-2.678588,0.249078,-1.489355,-0.001629,0.005719,0.002755,0.088178,-0.123502,-0.037299,1.791351,-2.317871,-0.437190,8.908269,4.455110,-0.572192,-0.012541,-0.008954,0.000000,-0.234758,-0.181487,-0.000000
0.120000,-2.678599,0.249129,-1.489329,-0.000658,0.004368,0.002360,0.106537,-0.146457,-0.041703,1.876555,-2.265226,-0.445162,8.149930,6.032496,-0.920873,-0.014864,-0.010814,0.000000,-0.229166,-0.189948,-0.000000
0.130000,-2.678601,0.249166,-1.489308,0.000501,0.002790,0.001921,0.125709,-0.168806,-0.046203,1.954350,-2.197221,-0.455608,7.427325,7.525472,-1.080234,-0.017124,-0.012754,0.000000,-0.222010,-0.197636,-0.000000
0.140000,-2.678589,0.249185,-1.489291,0.001856,0.000992,0.001436,0.145624,-0.190401,-0.050815,2.025101,-2.114716,-0.466766,6.742136,8.931029,-1.076446,-0.019304,-0.014767,0.000000,-0.213381,-0.204587,0.000000
0.150000,-2.678564,0.249185,-1.489279,0.003414,-0.001018,0.000905,0.166211,-0.211101,-0.055538,2.089192,-2.018601,-0.477137,6.096146,10.246162,-0.935609,-0.021391,-0.016846,0.000000,-0.203378,-0.210844,0.000000
0.160000,-2.678521,0.249165,-1.489273,0.005180,-0.003230,0.000325,0.187408,-0.230773,-0.060358,2.147024,-1.909793,-0.485479,5.491151,11.467864,-0.683819,-0.023372,-0.018985,0.000000,-0.192102,-0.216451,-0.000000
0.170000,-2.678460,0.249121,-1.489273,0.007162,-0.005634,-0.000303,0.209152,-0.249296,-0.065248,2.199015,-1.789243,-0.490813,4.929710,12.591471,-0.351351,-0.025234,-0.021176,0.000000,-0.179657,-0.221457,0.000000
0.180000,-2.678378,0.249052,-1.489279,0.009363,-0.008216,-0.000980,0.231388,-0.266558,-0.070174,2.245619,-1.657964,-0.492506,4.429440,13.585092,-0.035758,-0.026965,-0.023415,0.000000,-0.166153,-0.225912,-0.000000
0.190000,-2.678273,0.248957,-1.489292,0.011790,-0.010965,-0.001706,0.254064,-0.282456,-0.075098,2.287604,-1.517541,-0.491528,3.986639,14.455708,0.261553,-0.028557,-0.025696,0.000000,-0.151754,-0.229896,0.000000
0.200000,-2.678142,0.248833,-1.489313,0.014445,-0.013865,-0.002482,0.277140,-0.296909,-0.080004,2.325351,-1.368849,-0.487275,3.485684,15.413468,1.041382,-0.030000,-0.028015,0.000000,-0.136555,-0.233452,-0.000000
0.210000,-2.677984,0.248679,-1.489342,0.017333,-0.016903,-0.003306,0.300571,-0.309833,-0.084843,2.357318,-1.209272,-0.470701,2.940854,16.432531,2.221134,-0.031288,-0.030367,0.000000,-0.120324,-0.236458,-0.000000
0.220000,-2.677796,0.248495,-1.489379,0.020456,-0.020062,-0.004178,0.324286,-0.321094,-0.089418,2.384168,-1.040199,-0.442852,2.690211,16.899125,2.263727,-0.032407,-0.032746,0.000000,-0.103208,-0.238992,-0.000000
0.230000,-2.677575,0.248278,-1.489426,0.023818,-0.023325,-0.005095,0.348255,-0.330637,-0.093700,2.411122,-0.871290,-0.425426,2.738649,16.806924,1.115334,-0.033352,-0.035150,0.000000,-0.086109,-0.241513,0.000000
0.240000,-2.677319,0.248028,-1.489481,0.027421,-0.026675,-0.006052,0.372509,-0.338520,-0.097927,2.438941,-0.704060,-0.420545,2.621751,16.998783,0.847581,-0.034129,-0.037579,0.000000,-0.069167,-0.244077,0.000000
0.250000,-2.677026,0.247745,-1.489547,0.031268,-0.030095,-0.007053,0.397034,-0.344718,-0.102111,2.463557,-0.531314,-0.408475,2.314060,17.503623,1.657028,-0.034736,-0.040034,0.000000,-0.051722,-0.246345,0.000000
0.260000,-2.676694,0.247426,-1.489622,0.035362,-0.033569,-0.008095,0.421780,-0.349146,-0.106096,2.485223,-0.353988,-0.387405,2.125164,17.761200,2.124621,-0.035164,-0.042509,0.000000,-0.033878,-0.248360,0.000000
0.270000,-2.676319,0.247073,-1.489708,0.039704,-0.037078,-0.009175,0.446738,-0.351798,-0.109859,2.506060,-0.176090,-0.365982,2.017775,17.889292,2.109751,-0.035413,-0.045004,0.000000,-0.016006,-0.250304,0.000000
0.280000,-2.675900,0.246685,-1.489806,0.044297,-0.040605,-0.010292,0.471901,-0.352668,-0.113416,2.525578,0.003798,-0.345210,1.875218,18.101720,2.100592,-0.035484,-0.047519,0.000000,0.002041,-0.252123,0.000000
0.290000,-2.675433,0.246261,-1.489914,0.049142,-0.044131,-0.011443,0.497250,-0.351722,-0.116763,2.543565,0.185945,-0.323970,1.770619,18.196466,2.156321,-0.035373,-0.050050,0.000000,0.020288,-0.253802,0.000000
0.300000,-2.674917,0.245802,-1.490035,0.054242,-0.047639,-0.012627,0.522773,-0.348949,-0.119895,2.560990,0.367727,-0.302083,1.741171,18.092120,2.222183,-0.035078,-0.052598,0.000000,0.038474,-0.255440,0.000000
0.310000,-2.674348,0.245308,-1.490167,0.059597,-0.051110,-0.013841,0.548469,-0.344367,-0.122805,2.578388,0.547787,-0.279527,1.726252,17.945349,2.275486,-0.034603,-0.055162,0.000000,0.056464,-0.257091,-0.000000
0.320000,-2.673725,0.244780,-1.490311,0.065211,-0.054527,-0.015083,0.574340,-0.337993,-0.125486,2.595515,0.726634,-0.256574,1.666420,17.886932,2.289584,-0.033949,-0.057743,0.000000,0.074313,-0.258730,-0.000000
0.330000,-2.673044,0.244218,-1.490469,0.071084,-0.057870,-0.016351,0.600380,-0.329834,-0.127937,2.611717,0.905526,-0.233735,1.575347,17.875695,2.270015,-0.033117,-0.060340,0.000000,0.092152,-0.260289,-0.000000
0.340000,-2.672303,0.243623,-1.490638,0.077219,-0.061123,-0.017642,0.626575,-0.319883,-0.130161,2.627022,1.084148,-0.211173,1.523334,17.755281,2.253749,-0.032106,-0.062951,0.000000,0.109951,-0.261769,0.000000
0.350000,-2.671500,0.242995,-1.490821,0.083616,-0.064268,-0.018954,0.652920,-0.308152,-0.132160,2.642183,1.260631,-0.188660,1.525262,17.496501,2.251405,-0.030918,-0.065578,0.000000,0.127524,-0.263248,-0.000000
0.360000,-2.670631,0.242337,-1.491018,0.090277,-0.067286,-0.020285,0.679418,-0.294670,-0.133934,2.657528,1.434078,-0.166145,1.528902,17.211410,2.239110,-0.029556,-0.068219,0.000000,0.144783,-0.264757,-0.000000
0.370000,-2.669694,0.241650,-1.491227,0.097204,-0.070161,-0.021633,0.706071,-0.279470,-0.135483,2.672761,1.604859,-0.143878,1.489935,16.983699,2.195192,-0.028022,-0.070875,0.000000,0.161769,-0.266267,-0.000000
0.380000,-2.668687,0.240934,-1.491450,0.104399,-0.072876,-0.022995,0.732874,-0.262573,-0.136811,2.687326,1.773752,-0.122241,1.420901,16.783012,2.128240,-0.026320,-0.073546,0.000000,0.178561,-0.267718,0.000000
0.390000,-2.667606,0.240192,-1.491687,0.111862,-0.075413,-0.024369,0.759817,-0.243995,-0.137928,2.701179,1.940520,-0.101313,1.373716,16.509848,2.068643,-0.024451,-0.076231,0.000000,0.195136,-0.269103,0.000000
0.400000,-2.666450,0.239426,-1.491938,0.119595,-0.077756,-0.025753,0.786897,-0.223763,-0.138838,2.714801,2.103949,-0.080868,1.359301,16.146819,2.022381,-0.022418,-0.078930,0.000000,0.211374,-0.270473,0.000000
0.410000,-2.665214,0.238637,-1.492202,0.127600,-0.079888,-0.027146,0.814113,-0.201916,-0.139545,2.728365,2.263456,-0.060865,1.339375,15.764724,1.971083,-0.020224,-0.081642,0.000000,0.227216,-0.271844,-0.000000
0.420000,-2.663898,0.237828,-1.492480,0.135877,-0.081794,-0.028544,0.841464,-0.178494,-0.140055,2.741588,2.419244,-0.041447,1.280603,15.414249,1.905637,-0.017873,-0.084368,0.000000,0.242684,-0.273185,-0.000000
0.430000,-2.662497,0.237001,-1.492773,0.144429,-0.083458,-0.029947,0.868945,-0.153531,-0.140374,2.753978,2.571741,-0.022753,1.192102,15.075814,1.834309,-0.015370,-0.087107,0.000000,0.257819,-0.274446,0.000000
0.440000,-2.661009,0.236159,-1.493079,0.153256,-0.084865,-0.031352,0.896544,-0.127059,-0.140510,2.765430,2.720760,-0.004761,1.113353,14.689227,1.771170,-0.012717,-0.089858,0.000000,0.272604,-0.275615,-0.000000
0.450000,-2.659432,0.235304,-1.493400,0.162360,-0.085999,-0.032757,0.924254,-0.099116,-0.140469,2.776245,2.865526,0.012671,1.053403,14.244484,1.715750,-0.009918,-0.092620,0.000000,0.286959,-0.276723,0.000000
0.460000,-2.657762,0.234439,-1.493735,0.171741,-0.086847,-0.034161,0.952069,-0.069748,-0.140257,2.786498,3.005649,0.029554,0.983314,13.784180,1.661474,-0.006978,-0.095392,0.000000,0.300844,-0.277777,-0.000000
0.470000,-2.655997,0.233567,-1.494083,0.181401,-0.087394,-0.035562,0.979984,-0.039003,-0.139878,2.795911,3.141209,0.045900,0.876295,13.337582,1.615671,-0.003901,-0.098175,0.000000,0.314267,-0.278748,-0.000000
0.480000,-2.654134,0.232691,-1.494446,0.191341,-0.087627,-0.036959,1.007987,-0.006924,-0.139339,2.804024,3.272401,0.061868,0.739212,12.892633,1.583936,-0.000692,-0.100967,0.000000,0.327246,-0.279590,0.000000
0.490000,-2.652170,0.231814,-1.494822,0.201561,-0.087533,-0.038349,1.036064,0.026445,-0.138641,2.810695,3.399062,0.077579,0.604465,12.414658,1.558771,0.002644,-0.103767,0.000000,0.339764,-0.280292,-0.000000
0.500000,-2.650103,0.230940,-1.495213,0.212062,-0.087098,-0.039732,1.064201,0.061057,-0.137787,2.816114,3.520694,0.093043,0.480218,11.898639,1.532843,0.006103,-0.106573,0.000000,0.351770,-0.280870,0.000000
0.510000,-2.647929,0.230072,-1.495617,0.222845,-0.086311,-0.041105,1.092386,0.096859,-0.136780,2.820299,3.637035,0.108236,0.343018,11.368960,1.514437,0.009679,-0.109385,0.000000,0.363236,-0.281328,-0.000000
0.520000,-2.645646,0.229214,-1.496035,0.233910,-0.085161,-0.042467,1.120607,0.133798,-0.135622,2.822974,3.748073,0.123332,0.169956,10.840430,1.527382,0.013368,-0.112200,0.000000,0.374162,-0.281637,0.000000
0.530000,-2.643251,0.228369,-1.496466,0.245257,-0.083636,-0.043817,1.148846,0.171821,-0.134313,2.823699,3.853843,0.138783,-0.033259,10.305963,1.573156,0.017162,-0.115018,0.000000,0.384549,-0.281761,0.000000
0.540000,-2.640741,0.227541,-1.496911,0.256887,-0.081725,-0.045153,1.177081,0.210875,-0.132847,2.822309,3.954193,0.154795,-0.238197,9.748336,1.622302,0.021058,-0.117836,0.000000,0.394385,-0.281685,-0.000000
0.550000,-2.638113,0.226735,-1.497369,0.268799,-0.079418,-0.046474,1.205292,0.250904,-0.131217,2.818935,4.048810,0.171230,-0.436999,9.165452,1.660727,0.025050,-0.120653,0.000000,0.403637,-0.281422,-0.000000
0.560000,-2.635365,0.225953,-1.497841,0.280993,-0.076706,-0.047778,1.233460,0.291851,-0.129422,2.813569,4.137502,0.188010,-0.649828,8.569415,1.711299,0.029131,-0.123466,0.000000,0.412288,-0.280971,0.000000
0.570000,-2.632493,0.225200,-1.498325,0.293468,-0.073581,-0.049063,1.261563,0.333654,-0.127457,2.805938,4.220198,0.205455,-0.897533,7.966987,1.813520,0.033296,-0.126275,0.000000,0.420331,-0.280309,-0.000000
0.580000,-2.629495,0.224481,-1.498822,0.306224,-0.070033,-0.050327,1.289578,0.376255,-0.125313,2.795618,4.296842,0.224280,-1.174996,7.354652,1.964410,0.037538,-0.129076,0.000000,0.427766,-0.279405,0.000000
0.590000,-2.626369,0.223800,-1.499331,0.319259,-0.066056,-0.051569,1.317476,0.419591,-0.122972,2.782438,4.367291,0.244744,-1.455569,6.724750,2.113065,0.041851,-0.131867,0.000000,0.434582,-0.278246,0.000000
0.600000,-2.623110,0.223160,-1.499853,0.332573,-0.061642,-0.052786,1.345227,0.463601,-0.120418,2.766507,4.431337,0.266541,-1.731142,6.076499,2.239162,0.046229,-0.134646,0.000000,0.440761,-0.276843,0.000000
0.610000,-2.619717,0.222567,-1.500387,0.346164,-0.056784,-0.053977,1.372806,0.508218,-0.117641,2.747815,4.488821,0.289527,-2.020088,5.415352,2.379339,0.050666,-0.137410,0.000000,0.446291,-0.275195,-0.000000
0.620000,-2.616187,0.222025,-1.500933,0.360029,-0.051477,-0.055139,1.400183,0.553377,-0.114628,2.726105,4.539644,0.314128,-2.342712,4.744239,2.586245,0.055155,-0.140157,0.000000,0.451167,-0.273282,-0.000000
0.630000,-2.612516,0.221537,-1.501490,0.374168,-0.045716,-0.056270,1.427328,0.599011,-0.111358,2.700961,4.583706,0.341252,-2.694075,4.061516,2.852024,0.059690,-0.142884,0.000000,0.455390,-0.271081,-0.000000
0.640000,-2.608703,0.221110,-1.502058,0.388576,-0.039497,-0.057366,1.454203,0.645051,-0.107803,2.672223,4.620874,0.371169,-3.047382,3.364046,3.107258,0.064263,-0.145588,0.000000,0.458956,-0.268583,-0.000000
0.650000,-2.604745,0.220747,-1.502637,0.403252,-0.032815,-0.058426,1.480772,0.691428,-0.103935,2.640013,4.650987,0.403397,-3.394069,2.652466,3.327378,0.068869,-0.148267,0.000000,0.461854,-0.265795,0.000000
0.660000,-2.600638,0.220454,-1.503227,0.418191,-0.025668,-0.059445,1.507003,0.738071,-0.099735,2.604342,4.673923,0.437716,-3.752076,1.929042,3.560290,0.073500,-0.150917,0.000000,0.464075,-0.262720,0.000000
0.670000,-2.596381,0.220234,-1.503826,0.433392,-0.018054,-0.060421,1.532859,0.784907,-0.095181,2.564972,4.689568,0.474603,-4.141732,1.192481,3.865861,0.078150,-0.153535,0.000000,0.465621,-0.259344,-0.000000
0.680000,-2.591971,0.220093,-1.504435,0.448849,-0.009970,-0.061349,1.558302,0.831862,-0.090243,2.521507,4.697773,0.515033,-4.557905,0.441805,4.231401,0.082813,-0.156120,0.000000,0.466493,-0.255645,0.000000
0.690000,-2.587404,0.220035,-1.505053,0.464558,-0.001417,-0.062225,1.583289,0.878862,-0.084880,2.473814,4.698404,0.559231,-4.972865,-0.320577,4.576571,0.087480,-0.158666,0.000000,0.466690,-0.251620,0.000000
0.700000,-2.582679,0.220064,-1.505680,0.480514,0.007607,-0.063046,1.607779,0.925830,-0.079058,2.422050,4.691361,0.606565,-5.377128,-1.091792,4.875461,0.092147,-0.161171,0.000000,0.466207,-0.247277,0.000000
0.710000,-2.577794,0.220187,-1.506314,0.496713,0.017100,-0.063807,1.631730,0.972689,-0.072749,2.366271,4.676568,0.656740,-5.788771,-1.873428,5.181644,0.096805,-0.163633,0.000000,0.465044,-0.242620,0.000000
0.720000,-2.572745,0.220406,-1.506956,0.513149,0.027061,-0.064501,1.655104,1.019362,-0.065923,2.306275,4.653893,0.710198,-6.229276,-2.672417,5.554704,0.101448,-0.166047,0.000000,0.463200,-0.237640,-0.000000
0.730000,-2.567531,0.220728,-1.507604,0.529815,0.037487,-0.065125,1.677856,1.065767,-0.058545,2.241686,4.623120,0.767834,-6.693153,-3.489018,5.978264,0.106069,-0.168410,0.000000,0.460675,-0.232317,0.000000
0.740000,-2.562149,0.221156,-1.508258,0.546706,0.048376,-0.065672,1.699938,1.111824,-0.050566,2.172412,4.584112,0.829763,-7.150281,-4.313158,6.370775,0.110662,-0.170719,0.000000,0.457469,-0.226648,-0.000000
0.750000,-2.556597,0.221696,-1.508918,0.563814,0.059724,-0.066136,1.721304,1.157450,-0.041949,2.098680,4.536856,0.895250,-7.590091,-5.137768,6.708886,0.115219,-0.172971,0.000000,0.453582,-0.220645,0.000000
0.760000,-2.550873,0.222351,-1.509581,0.581132,0.071525,-0.066511,1.741911,1.202561,-0.032661,2.020610,4.481357,0.963941,-8.031778,-5.969707,7.045014,0.119733,-0.175162,0.000000,0.449020,-0.214317,0.000000
0.770000,-2.544974,0.223126,-1.510248,0.598652,0.083775,-0.066790,1.761716,1.247077,-0.022671,1.938045,4.417462,1.036150,-8.498074,-6.826518,7.428355,0.124199,-0.177289,0.000000,0.443780,-0.207653,0.000000
0.780000,-2.538899,0.224026,-1.510917,0.616367,0.096467,-0.066964,1.780672,1.290910,-0.011938,1.850648,4.344827,1.112508,-8.982586,-7.707498,7.840203,0.128609,-0.179347,0.000000,0.437846,-0.200635,0.000000
0.790000,-2.532647,0.225055,-1.511587,0.634266,0.109593,-0.067028,1.798729,1.333973,-0.000420,1.758393,4.263312,1.192954,-9.452803,-8.587850,8.211390,0.132957,-0.181335,0.000000,0.431213,-0.193257,0.000000
0.800000,-2.526214,0.226218,-1.512257,0.652341,0.123146,-0.066973,1.815840,1.376177,0.011921,1.661592,4.173070,1.276736,-9.897736,-9.453979,8.527266,0.137234,-0.183247,0.000000,0.423893,-0.185538,0.000000
0.810000,-2.519600,0.227518,-1.512927,0.670583,0.137117,-0.066790,1.831961,1.417435,0.025114,1.560438,4.074233,1.363499,-10.337480,-10.322652,8.829770,0.141435,-0.185081,0.000000,0.415899,-0.177489,-0.000000
0.820000,-2.512803,0.228960,-1.513593,0.688980,0.151495,-0.066471,1.847049,1.457661,0.039191,1.454843,3.966617,1.453331,-10.794481,-11.226801,9.142466,0.145552,-0.186833,0.000000,0.407219,-0.169100,0.000000
0.830000,-2.505820,0.230548,-1.514256,0.707524,0.166270,-0.066006,1.861058,1.496767,0.054181,1.344549,3.849697,1.546349,-11.261539,-12.163001,9.446954,0.149580,-0.188499,0.000000,0.397806,-0.160346,-0.000000
0.840000,-2.498652,0.232286,-1.514913,0.726201,0.181430,-0.065387,1.873940,1.534655,0.070118,1.229612,3.723357,1.642270,-11.705666,-13.085143,9.707312,0.153509,-0.190076,0.000000,0.387648,-0.151222,0.000000
0.850000,-2.491296,0.234177,-1.515564,0.745002,0.196963,-0.064604,1.885650,1.571234,0.087026,1.110435,3.587994,1.740495,-12.115840,-13.972921,9.921849,0.157333,-0.191560,0.000000,0.376773,-0.141753,0.000000
0.860000,-2.483752,0.236225,-1.516205,0.763914,0.212855,-0.063646,1.896149,1.606415,0.104927,0.987295,3.443898,1.840707,-12.511838,-14.856986,10.108276,0.161045,-0.192947,0.000000,0.365201,-0.131953,0.000000
0.870000,-2.476018,0.238434,-1.516837,0.782925,0.229091,-0.062505,1.905396,1.640112,0.123840,0.860198,3.290854,1.942660,-12.914739,-15.784540,10.256778,0.164637,-0.194233,0.000000,0.352904,-0.121812,0.000000
0.880000,-2.468093,0.240807,-1.517456,0.802022,0.245657,-0.061170,1.913353,1.672232,0.143781,0.729000,3.128207,2.045843,-13.316456,-16.747689,10.353773,0.168103,-0.195416,0.000000,0.339803,-0.111297,-0.000000
0.890000,-2.459978,0.243347,-1.518060,0.821192,0.262536,-0.059630,1.919976,1.702676,0.164757,0.593869,2.955900,2.149736,-13.685093,-17.680350,10.407119,0.171434,-0.196491,0.000000,0.325873,-0.100406,-0.000000
0.900000,-2.451670,0.246058,-1.518648,0.840422,0.279711,-0.057875,1.925230,1.731350,0.186775,0.455298,2.774600,2.253985,-14.012701,-18.555620,10.433317,0.174621,-0.197454,0.000000,0.311162,-0.089170,0.000000
0.910000,-2.443169,0.248941,-1.519218,0.859697,0.297163,-0.055894,1.929082,1.758168,0.209837,0.313615,2.584788,2.358402,-14.317457,-19.416674,10.419490,0.177657,-0.198302,0.000000,0.295699,-0.077607,0.000000
0.920000,-2.434476,0.252001,-1.519766,0.879004,0.314874,-0.053678,1.931502,1.783046,0.233943,0.168949,2.386267,2.462375,-14.610288,-20.324658,10.309815,0.180535,-0.199031,0.000000,0.279437,-0.065705,-0.000000
0.930000,-2.425589,0.255239,-1.520291,0.898327,0.332824,-0.051215,1.932461,1.805894,0.259085,0.021410,2.178295,2.564598,-14.881823,-21.266877,10.097233,0.183246,-0.199637,0.000000,0.262260,-0.053437,0.000000
0.940000,-2.416509,0.258657,-1.520790,0.917653,0.350992,-0.048496,1.931930,1.826612,0.285235,-0.128687,1.960929,2.664319,-15.113629,-22.157170,9.851637,0.185781,-0.200117,0.000000,0.244135,-0.040804,0.000000
0.950000,-2.407236,0.262259,-1.521261,0.936966,0.369356,-0.045510,1.929887,1.845112,0.312371,-0.280863,1.735152,2.761631,-15.306275,-22.965270,9.615576,0.188129,-0.200467,0.000000,0.225135,-0.027841,-0.000000
0.960000,-2.397770,0.266044,-1.521700,0.956251,0.387894,-0.042249,1.926313,1.861315,0.340468,-0.434813,1.501624,2.856631,-15.467803,-23.746303,9.334014,0.190283,-0.200684,0.000000,0.205299,-0.014567,-0.000000
0.970000,-2.388111,0.270016,-1.522106,0.975492,0.406582,-0.038701,1.921191,1.875145,0.369504,-0.590219,1.260225,2.948311,-15.586517,-24.564873,8.887993,0.192235,-0.200764,0.000000,0.184565,-0.000976,-0.000000
0.980000,-2.378260,0.274176,-1.522475,0.994674,0.425397,-0.034859,1.914509,1.886519,0.399434,-0.746543,1.010326,3.034391,-15.654365,-25.401543,8.282635,0.193974,-0.200703,0.000000,0.162793,0.012938,-0.000000
0.990000,-2.368218,0.278524,-1.522803,1.013782,0.444313,-0.030712,1.906260,1.895351,0.430191,-0.903306,0.752195,3.113964,-15.683282,-26.164474,7.674152,0.195490,-0.200500,0.000000,0.139953,0.027163,-0.000000
1.000000,-2.357984,0.283062,-1.523089,1.032800,0.463304,-0.026255,1.896443,1.901563,0.461714,-1.060209,0.487037,3.187874,-15.685549,-26.832399,7.125165,0.196773,-0.200149,0.000000,0.116143,0.041664,-0.000000
1.010000,-2.347562,0.287790,-1.523328,1.051711,0.482344,-0.021478,1.885056,1.905092,0.493949,-1.217017,0.215547,3.256467,-15.648129,-27.461579,6.524366,0.197812,-0.199649,0.000000,0.091402,0.056427,0.000000
1.020000,-2.336950,0.292709,-1.523518,1.070501,0.501406,-0.016376,1.872102,1.905874,0.526843,-1.373171,-0.062195,3.318361,-15.531117,-28.087158,5.714204,0.198600,-0.198998,0.000000,0.065670,0.071437,-0.000000
1.030000,-2.326151,0.297819,-1.523656,1.089153,0.520462,-0.010941,1.857593,1.903848,0.560316,-1.527640,-0.346197,3.370752,-15.331580,-28.683779,4.720463,0.199125,-0.198191,0.000000,0.038845,0.086658,0.000000
1.040000,-2.315167,0.303118,-1.523737,1.107653,0.539483,-0.005169,1.841550,1.898950,0.594258,-1.679803,-0.635870,3.412770,-15.099510,-29.199046,3.752176,0.199376,-0.197229,0.000000,0.010924,0.102056,-0.000000
1.050000,-2.303998,0.308608,-1.523759,1.125984,0.558441,0.000944,1.823997,1.891131,0.628571,-1.829630,-0.930177,3.445795,-14.861660,-29.638418,2.878261,0.199342,-0.196108,0.000000,-0.017999,0.117606,-0.000000
1.060000,-2.292647,0.314287,-1.523718,1.144132,0.577305,0.007402,1.804957,1.880347,0.663174,-1.977036,-1.228639,3.470336,-14.579374,-30.028325,1.956131,0.199015,-0.194828,0.000000,-0.047903,0.133297,0.000000
1.070000,-2.281116,0.320154,-1.523611,1.162083,0.596047,0.014207,1.784456,1.866558,0.697978,-2.121217,-1.530744,3.484918,-14.178259,-30.333411,0.822391,0.198383,-0.193388,0.000000,-0.078806,0.149081,0.000000
1.080000,-2.269406,0.326208,-1.523434,1.179822,0.614637,0.021362,1.762533,1.849732,0.732872,-2.260601,-1.835307,3.486784,-13.660009,-30.537098,-0.483958,0.197437,-0.191786,0.000000,-0.110681,0.164852,-0.000000
1.090000,-2.257519,0.332447,-1.523184,1.197334,0.633042,0.028865,1.739244,1.829852,0.767714,-2.394418,-2.141486,3.475239,-13.122677,-30.680491,-1.742637,0.196168,-0.190025,0.000000,-0.143489,0.180537,-0.000000
1.100000,-2.245459,0.338869,-1.522857,1.214606,0.651234,0.036716,1.714644,1.806902,0.802377,-2.523055,-2.448917,3.451931,-12.627188,-30.766788,-2.876807,0.194566,-0.188104,0.000000,-0.177179,0.196138,-0.000000
1.110000,-2.233227,0.345472,-1.522450,1.231627,0.669180,0.044912,1.688783,1.780873,0.836752,-2.646961,-2.756822,3.417702,-12.102078,-30.760443,-4.032293,0.192622,-0.186026,0.000000,-0.211671,0.211675,0.000000
1.120000,-2.220827,0.352253,-1.521959,1.248382,0.686851,0.053451,1.661705,1.751766,0.870731,-2.765096,-3.064125,3.371285,-11.385619,-30.649069,-5.387477,0.190330,-0.183790,0.000000,-0.246894,0.227050,0.000000
1.130000,-2.208260,0.359209,-1.521381,1.264861,0.704215,0.062327,1.633481,1.719591,0.904178,-2.874674,-3.369803,3.309953,-10.493758,-30.420084,-6.892378,0.187683,-0.181401,0.000000,-0.282807,0.242004,-0.000000
1.140000,-2.195529,0.366337,-1.520712,1.281052,0.721243,0.071534,1.604212,1.684370,0.936930,-2.974971,-3.672527,3.233437,-9.644671,-30.083031,-8.301841,0.184673,-0.178863,0.000000,-0.319270,0.256434,-0.000000
1.150000,-2.182639,0.373634,-1.519950,1.296945,0.737903,0.081066,1.573981,1.646140,0.968847,-3.067567,-3.971464,3.143916,-8.882035,-29.775025,-9.584531,0.181296,-0.176183,0.000000,-0.356125,0.270437,-0.000000
1.160000,-2.169590,0.381095,-1.519091,1.312531,0.754166,0.090911,1.542860,1.604940,0.999808,-3.152612,-4.268028,3.041747,-8.059258,-29.472518,-10.894430,0.177548,-0.173364,0.000000,-0.393493,0.283991,-0.000000
1.170000,-2.156388,0.388717,-1.518132,1.327802,0.770002,0.101062,1.510929,1.560780,1.029682,-3.228752,-4.560914,2.926027,-7.094352,-28.763636,-12.263333,0.173424,-0.170412,0.000000,-0.431222,0.296932,0.000000
1.180000,-2.143034,0.396495,-1.517070,1.342750,0.785381,0.111505,1.478285,1.513722,1.058329,-3.294499,-4.843300,2.796480,-6.032151,-27.634110,-13.623629,0.168923,-0.167335,0.000000,-0.468528,0.309060,0.000000
1.190000,-2.129533,0.404425,-1.515902,1.357368,0.800276,0.122228,1.445039,1.463914,1.085611,-3.349395,-5.113596,2.653555,-4.979667,-26.646950,-14.929835,0.164052,-0.164142,0.000000,-0.505155,0.320270,0.000000
1.200000,-2.115887,0.412501,-1.514625,1.371651,0.814660,0.133217,1.411297,1.411450,1.111400,-3.394092,-5.376239,2.497883,-3.991379,-25.889455,-16.216291,0.158818,-0.160843,0.000000,-0.541496,0.330572,0.000000
1.210000,-2.102100,0.420718,-1.513237,1.385594,0.828505,0.144456,1.377157,1.356389,1.135569,-3.429223,-5.631385,2.329229,-2.998148,-24.978764,-17.495680,0.153222,-0.157447,0.000000,-0.577489,0.339994,0.000000
1.220000,-2.088175,0.429071,-1.511736,1.399194,0.841787,0.155929,1.342713,1.298823,1.157985,-3.454055,-5.875815,2.147970,-1.857867,-23.789699,-18.652334,0.147268,-0.153963,0.000000,-0.612675,0.348397,0.000000
1.230000,-2.074116,0.437554,-1.510119,1.412448,0.854482,0.167616,1.308076,1.238873,1.178529,-3.466380,-6.107179,1.956182,-0.595688,-22.454369,-19.663026,0.140968,-0.150403,0.000000,-0.646655,0.355446,0.000000
1.240000,-2.059926,0.446160,-1.508383,1.425355,0.866565,0.179499,1.273385,1.176679,1.197108,-3.465969,-6.324902,1.754709,0.589334,-21.117410,-20.672710,0.134335,-0.146783,0.000000,-0.679236,0.361049,-0.000000
1.250000,-2.045609,0.454885,-1.506529,1.437916,0.878015,0.191558,1.238757,1.112375,1.213623,-3.454594,-6.529528,1.542728,1.683477,-19.786822,-21.725403,0.127384,-0.143117,0.000000,-0.710365,0.365372,-0.000000
1.260000,-2.031168,0.463721,-1.504552,1.450131,0.888812,0.203772,1.204293,1.046088,1.227963,-3.432300,-6.720638,1.320201,2.811600,-18.375612,-22.708454,0.120129,-0.139417,0.000000,-0.739872,0.368372,-0.000000
1.270000,-2.016606,0.472661,-1.502453,1.462002,0.898937,0.216117,1.170111,0.977962,1.240027,-3.398362,-6.897040,1.088559,3.959382,-16.854103,-23.505251,0.112588,-0.135697,0.000000,-0.767473,0.369903,-0.000000
1.280000,-2.001928,0.481699,-1.500230,1.473533,0.908371,0.228572,1.136326,0.908148,1.249734,-3.353112,-7.057721,0.850096,5.067976,-15.251423,-24.135339,0.104781,-0.131973,0.000000,-0.792899,0.369930,-0.000000
1.290000,-1.987136,0.490828,-1.497882,1.484728,0.917100,0.241112,1.103049,0.836807,1.257029,-3.297002,-7.202068,0.605852,6.157476,-13.613154,-24.738053,0.096732,-0.128259,0.000000,-0.815949,0.368457,0.000000
1.300000,-1.972233,0.500041,-1.495408,1.495594,0.925108,0.253713,1.070386,0.764106,1.261851,-3.229962,-7.329984,0.355335,7.283727,-11.989062,-25.375707,0.088464,-0.124570,0.000000,-0.836506,0.365462,-0.000000
1.310000,-1.957224,0.509331,-1.492807,1.506136,0.932382,0.266349,1.038449,0.690208,1.264135,-3.151328,-7.441849,0.098338,8.417800,-10.354465,-25.942319,0.080004,-0.120922,0.000000,-0.854512,0.360853,-0.000000
1.320000,-1.942111,0.518689,-1.490081,1.516363,0.938912,0.278995,1.007359,0.615269,1.263818,-3.061606,-7.537073,-0.163511,9.400609,-8.582209,-26.256133,0.071377,-0.117331,0.000000,-0.869784,0.354652,0.000000
1.330000,-1.926897,0.528109,-1.487228,1.526283,0.944687,0.291625,0.977217,0.539466,1.260865,-2.963315,-7.613494,-0.426785,10.229467,-6.683749,-26.335154,0.062612,-0.113812,0.000000,-0.881967,0.347102,-0.000000
1.340000,-1.911585,0.537583,-1.484248,1.535907,0.949701,0.304213,0.948093,0.462999,1.255282,-2.857017,-7.670748,-0.690214,11.110061,-4.845738,-26.413994,0.053741,-0.110377,0.000000,-0.890955,0.338262,-0.000000
1.350000,-1.896178,0.547103,-1.481143,1.545245,0.953947,0.316731,0.920077,0.386051,1.247061,-2.741114,-7.710408,-0.955064,12.061248,-3.091202,-26.562344,0.044796,-0.107038,0.000000,-0.896902,0.327978,0.000000
1.360000,-1.880680,0.556662,-1.477914,1.554309,0.957422,0.329154,0.893271,0.308791,1.236181,-2.615792,-7.732572,-1.221461,12.936986,-1.305243,-26.614154,0.035806,-0.103811,0.000000,-0.899794,0.316295,0.000000
1.370000,-1.865092,0.566251,-1.474560,1.563110,0.960123,0.341455,0.867761,0.231400,1.222632,-2.482374,-7.736513,-1.487347,13.711294,0.516032,-26.397780,0.026804,-0.100709,0.000000,-0.899528,0.303367,0.000000
1.380000,-1.849418,0.575864,-1.471085,1.571664,0.962050,0.353607,0.843623,0.154061,1.206434,-2.341566,-7.722251,-1.749417,14.426650,2.322859,-25.953879,0.017819,-0.097743,0.000000,-0.896113,0.289273,0.000000
1.390000,-1.833659,0.585492,-1.467488,1.579983,0.963204,0.365583,0.820930,0.076955,1.187643,-2.193841,-7.690056,-2.006425,15.099059,4.103698,-25.504572,0.008885,-0.094923,0.000000,-0.889624,0.274096,0.000000
1.400000,-1.817818,0.595128,-1.463773,1.588082,0.963589,0.377359,0.799747,0.000260,1.166305,-2.039585,-7.640177,-2.259508,15.746064,5.857060,-25.135791,0.000030,-0.092261,0.000000,-0.880150,0.257940,-0.000000
1.410000,-1.801897,0.604764,-1.459941,1.595978,0.963210,0.388909,0.780138,-0.075849,1.142453,-1.878920,-7.572915,-2.509141,16.351737,7.576596,-24.694063,-0.008715,-0.089765,0.000000,-0.867791,0.240872,0.000000
1.420000,-1.785899,0.614392,-1.455995,1.603685,0.962072,0.400209,0.762168,-0.151198,1.116123,-1.712550,-7.488645,-2.753390,16.838277,9.252950,-23.959739,-0.017323,-0.087444,0.000000,-0.852675,0.223000,0.000000
1.430000,-1.769824,0.624006,-1.451937,1.611221,0.960186,0.411232,0.745887,-0.225622,1.087385,-1.542155,-7.387856,-2.988336,17.200875,10.865275,-22.973718,-0.025767,-0.085304,0.000000,-0.834964,0.204532,0.000000
1.440000,-1.753674,0.633596,-1.447770,1.618603,0.957560,0.421956,0.731325,-0.298956,1.056356,-1.368533,-7.271340,-3.212864,17.540880,12.412065,-22.031726,-0.034020,-0.083352,0.000000,-0.814873,0.185599,-0.000000
1.450000,-1.737452,0.643157,-1.443498,1.625848,0.954207,0.432359,0.718516,-0.371048,1.023128,-1.191337,-7.139615,-3.428970,17.895695,13.981803,-21.211433,-0.042062,-0.081590,0.000000,-0.792574,0.166232,0.000000
1.460000,-1.721157,0.652680,-1.439123,1.632973,0.950139,0.442419,0.707498,-0.441748,0.987776,-1.010619,-6.991704,-3.637093,18.191128,15.555680,-20.316384,-0.049871,-0.080024,0.000000,-0.768071,0.146490,0.000000
1.470000,-1.704792,0.662160,-1.434649,1.639998,0.945372,0.452115,0.698304,-0.510882,0.950386,-0.827514,-6.828501,-3.835298,18.332921,16.851096,-19.181420,-0.057423,-0.078656,0.000000,-0.741600,0.126527,0.000000
1.480000,-1.688357,0.671588,-1.430081,1.646939,0.939921,0.461427,0.690948,-0.578318,0.911070,-0.643961,-6.654682,-4.020721,18.336771,17.850450,-17.878987,-0.064702,-0.077488,0.000000,-0.713829,0.106578,-0.000000
1.490000,-1.671853,0.680958,-1.425421,1.653817,0.933805,0.470336,0.685425,-0.643976,0.869972,-0.460779,-6.471492,-4.192878,18.324508,18.929420,-16.630420,-0.071699,-0.076519,0.000000,-0.685021,0.086764,-0.000000
1.500000,-1.655281,0.690264,-1.420674,1.660648,0.927042,0.478826,0.681732,-0.707748,0.827213,-0.277470,-6.276094,-4.353329,18.341791,20.160791,-15.431965,-0.078402,-0.075748,0.000000,-0.654961,0.067075,0.000000
1.510000,-1.638640,0.699499,-1.415844,1.667451,0.919650,0.486880,0.679875,-0.769498,0.782905,-0.093943,-6.068276,-4.501517,18.303100,21.279601,-14.148843,-0.084799,-0.075173,0.000000,-0.623741,0.047522,0.000000
1.520000,-1.621932,0.708657,-1.410936,1.674245,0.911652,0.494484,0.679854,-0.829113,0.737183,0.088592,-5.850502,-4.636306,18.092055,22.142871,-12.837910,-0.090878,-0.074793,0.000000,-0.591747,0.028251,-0.000000
1.530000,-1.605155,0.717732,-1.405955,1.681048,0.903068,0.501624,0.681647,-0.886508,0.690179,0.267898,-5.625419,-4.758275,17.733096,22.829218,-11.560561,-0.096634,-0.074605,0.000000,-0.559355,0.009524,0.000000
1.540000,-1.588311,0.726718,-1.400904,1.687878,0.893922,0.508288,0.685212,-0.941622,0.642017,0.443253,-5.393917,-4.867517,17.380280,23.507214,-10.241292,-0.102066,-0.074601,0.000000,-0.526736,-0.008574,0.000000
1.550000,-1.571398,0.735610,-1.395789,1.694753,0.884236,0.514464,0.690512,-0.994386,0.592829,0.615503,-5.155274,-4.963101,17.057061,24.219657,-8.850229,-0.107170,-0.074776,0.000000,-0.493892,-0.026140,-0.000000
1.560000,-1.554416,0.744403,-1.390614,1.701689,0.874034,0.520144,0.697522,-1.044727,0.542755,0.784395,-4.909524,-5.044522,16.661174,24.850084,-7.453523,-0.111945,-0.075126,0.000000,-0.460894,-0.043153,-0.000000
1.570000,-1.537364,0.753091,-1.385386,1.708703,0.863341,0.525319,0.706200,-1.092577,0.491938,0.948727,-4.658273,-5.112171,16.151940,25.271407,-6.125503,-0.116390,-0.075644,0.000000,-0.427963,-0.059487,-0.000000
1.580000,-1.520242,0.761670,-1.380108,1.715813,0.852182,0.529983,0.716496,-1.137893,0.440512,1.107434,-4.404096,-5.167032,15.560903,25.519102,-4.855437,-0.120506,-0.076323,0.000000,-0.395401,-0.075034,-0.000000
1.590000,-1.503048,0.770135,-1.374786,1.723033,0.840583,0.534130,0.728349,-1.180659,0.388598,1.259945,-4.147891,-5.209280,14.940445,25.757324,-3.560896,-0.124300,-0.077154,0.000000,-0.363323,-0.089749,0.000000
1.600000,-1.485781,0.778481,-1.369425,1.730379,0.828569,0.537755,0.741695,-1.220850,0.336326,1.406242,-3.888949,-5.238250,14.330508,25.996898,-2.230673,-0.127775,-0.078131,0.000000,-0.331685,-0.103656,-0.000000
1.610000,-1.468440,0.786706,-1.364031,1.737867,0.816166,0.540856,0.756474,-1.258438,0.283833,1.546555,-3.627953,-5.253894,13.697757,26.129086,-0.930506,-0.130935,-0.079244,0.000000,-0.300572,-0.116800,0.000000
1.620000,-1.451024,0.794805,-1.358608,1.745509,0.803400,0.543432,0.772626,-1.293409,0.231248,1.680198,-3.366368,-5.256860,12.932740,26.145412,0.295795,-0.133788,-0.080486,0.000000,-0.270131,-0.129130,-0.000000
1.630000,-1.433530,0.802774,-1.353162,1.753319,0.790298,0.545481,0.790078,-1.325765,0.178695,1.805210,-3.105045,-5.247978,12.048537,26.075956,1.455909,-0.136340,-0.081849,0.000000,-0.240437,-0.140463,0.000000
1.640000,-1.415957,0.810611,-1.347699,1.761311,0.776885,0.547005,0.808730,-1.355510,0.126289,1.921168,-2.844849,-5.227742,11.199466,25.927640,2.593786,-0.138598,-0.083321,0.000000,-0.211562,-0.150785,-0.000000
1.650000,-1.398304,0.818312,-1.342222,1.769494,0.763188,0.548007,0.828501,-1.382662,0.074141,2.029199,-2.586492,-5.196102,10.389347,25.764484,3.754850,-0.140573,-0.084893,0.000000,-0.183562,-0.160240,-0.000000
1.660000,-1.380568,0.825874,-1.336739,1.777881,0.749232,0.548488,0.849314,-1.407240,0.022367,2.128955,-2.329559,-5.152645,9.521163,25.580337,4.897883,-0.142271,-0.086557,0.000000,-0.156384,-0.168826,0.000000
1.670000,-1.362746,0.833296,-1.331253,1.786480,0.735043,0.548454,0.871080,-1.429253,-0.028912,2.219623,-2.074885,-5.098144,8.627347,25.182176,5.874804,-0.143702,-0.088304,0.000000,-0.130078,-0.176486,-0.000000
1.680000,-1.344838,0.840575,-1.325770,1.795302,0.720647,0.547910,0.893707,-1.448738,-0.079596,2.301502,-1.825915,-5.035149,7.751053,24.567702,6.682660,-0.144874,-0.090124,0.000000,-0.104924,-0.183257,0.000000
1.690000,-1.326840,0.847709,-1.320294,1.804354,0.706068,0.546862,0.917110,-1.465772,-0.129615,2.374644,-1.583531,-4.964491,6.847019,24.008217,7.514090,-0.145802,-0.092008,0.000000,-0.080962,-0.189166,-0.000000
1.700000,-1.308751,0.854697,-1.314832,1.813644,0.691331,0.545318,0.941200,-1.480408,-0.178886,2.438443,-1.345751,-4.884867,5.889529,23.534609,8.429313,-0.146495,-0.093947,0.000000,-0.057982,-0.194192,0.000000
1.710000,-1.290567,0.861536,-1.309388,1.823178,0.676460,0.543285,0.965879,-1.492687,-0.227313,2.492434,-1.112839,-4.795905,4.918648,22.968981,9.289265,-0.146963,-0.095933,0.000000,-0.035986,-0.198320,0.000000
1.720000,-1.272287,0.868226,-1.303967,1.832962,0.661478,0.540771,0.991048,-1.502665,-0.274804,2.536816,-0.886371,-4.699082,3.998393,22.295946,9.946892,-0.147216,-0.097957,0.000000,-0.015073,-0.201586,-0.000000
1.730000,-1.253908,0.874765,-1.298573,1.842999,0.646407,0.537788,1.016615,-1.510414,-0.321294,2.572402,-0.666920,-4.596967,3.120758,21.589361,10.440018,-0.147265,-0.100009,0.000000,0.004774,-0.204066,-0.000000
1.740000,-1.235427,0.881154,-1.293211,1.853294,0.631269,0.534346,1.042496,-1.516004,-0.366744,2.599231,-0.454584,-4.490281,2.209293,20.862706,10.955035,-0.147121,-0.102083,0.000000,0.023590,-0.205779,-0.000000
1.750000,-1.216842,0.887391,-1.287886,1.863849,0.616087,0.530454,1.068600,-1.519506,-0.411100,2.616588,-0.249666,-4.377866,1.267334,20.067093,11.523122,-0.146794,-0.104170,0.000000,0.041361,-0.206688,-0.000000
1.760000,-1.198150,0.893476,-1.282602,1.874666,0.600879,0.526124,1.094828,-1.520997,-0.454301,2.624577,-0.053242,-4.259819,0.350940,19.207186,12.016563,-0.146295,-0.106262,0.000000,0.058019,-0.206821,0.000000
1.770000,-1.179349,0.899408,-1.277363,1.885746,0.585667,0.521368,1.121091,-1.520571,-0.496296,2.623607,0.134478,-4.137535,-0.550045,18.418591,12.364941,-0.145634,-0.108351,0.000000,0.073597,-0.206221,-0.000000
1.780000,-1.160435,0.905189,-1.272174,1.897088,0.570468,0.516198,1.147300,-1.518307,-0.537052,2.613576,0.315130,-4.012520,-1.447302,17.707710,12.606790,-0.144823,-0.110431,0.000000,0.088298,-0.204879,-0.000000
1.790000,-1.141407,0.910818,-1.267039,1.908692,0.555301,0.510627,1.173363,-1.514268,-0.576547,2.594661,0.488632,-3.885399,-2.316233,16.898110,12.828539,-0.143869,-0.112493,0.000000,0.102150,-0.202817,-0.000000
1.800000,-1.122262,0.916295,-1.261962,1.920555,0.540182,0.504667,1.199194,-1.508535,-0.614760,2.567252,0.653092,-3.755949,-3.182342,15.993175,13.058503,-0.142781,-0.114530,0.000000,0.114999,-0.200087,0.000000
1.810000,-1.102996,0.921621,-1.256946,1.932676,0.525130,0.498331,1.224708,-1.501206,-0.651666,2.531014,0.808496,-3.624229,-4.055544,15.116824,13.238718,-0.141569,-0.116536,0.000000,0.126869,-0.196667,-0.000000
1.820000,-1.083608,0.926798,-1.251995,1.945049,0.510158,0.491633,1.249814,-1.492365,-0.687244,2.486141,0.955428,-3.491175,-4.838627,14.232242,13.291386,-0.140243,-0.118503,0.000000,0.137851,-0.192574,0.000000
1.830000,-1.064095,0.931825,-1.247113,1.957672,0.495283,0.484586,1.274431,-1.482098,-0.721489,2.434241,1.093140,-3.358401,-5.518807,13.302086,13.234002,-0.138812,-0.120426,0.000000,0.147919,-0.187945,-0.000000
1.840000,-1.044455,0.936703,-1.242304,1.970538,0.480516,0.477204,1.298499,-1.470502,-0.754412,2.375765,1.221470,-3.226495,-6.226023,12.394571,13.171869,-0.137285,-0.122299,0.000000,0.157087,-0.182820,0.000000
1.850000,-1.024684,0.941435,-1.237569,1.983642,0.465873,0.469498,1.321946,-1.457668,-0.786019,2.309721,1.341032,-3.094964,-6.988769,11.499515,13.124297,-0.135671,-0.124117,0.000000,0.165421,-0.177115,-0.000000
1.860000,-1.004782,0.946021,-1.232914,1.996977,0.451363,0.461483,1.344693,-1.443681,-0.816311,2.235989,1.451460,-2.964009,-7.714263,10.576417,13.022858,-0.133977,-0.125875,0.000000,0.172905,-0.170818,0.000000
1.870000,-0.984745,0.950462,-1.228340,2.010536,0.436999,0.453172,1.366666,-1.428639,-0.845299,2.155436,1.552560,-2.834507,-8.344308,9.698508,12.834062,-0.132213,-0.127565,0.000000,0.179548,-0.164002,0.000000
1.880000,-0.964571,0.954761,-1.223850,2.024310,0.422790,0.444577,1.387802,-1.412630,-0.873002,2.069103,1.645430,-2.707328,-8.905283,8.888545,12.583427,-0.130386,-0.129184,0.000000,0.185475,-0.156750,-0.000000
1.890000,-0.944259,0.958918,-1.219448,2.038292,0.408746,0.435712,1.408048,-1.395730,-0.899446,1.977330,1.730331,-2.582838,-9.466691,8.048091,12.316171,-0.128503,-0.130727,0.000000,0.190725,-0.149087,-0.000000
1.900000,-0.923805,0.962936,-1.215136,2.052471,0.394876,0.426588,1.427348,-1.378024,-0.924658,1.879769,1.806392,-2.461004,-10.047048,7.154728,12.036773,-0.126571,-0.132191,0.000000,0.195225,-0.140979,0.000000
1.910000,-0.903209,0.966815,-1.210916,2.066839,0.381186,0.417219,1.445643,-1.359602,-0.948666,1.776389,1.873426,-2.342103,-10.597731,6.281082,11.719703,-0.124598,-0.133570,0.000000,0.198971,-0.132417,-0.000000
1.920000,-0.882468,0.970559,-1.206792,2.081384,0.367684,0.407615,1.462876,-1.340555,-0.971500,1.667815,1.932014,-2.226610,-11.065187,5.472988,11.361854,-0.122592,-0.134860,0.000000,0.202028,-0.123447,-0.000000
1.930000,-0.861581,0.974169,-1.202764,2.096096,0.354375,0.397789,1.479000,-1.320962,-0.993198,1.555085,1.982885,-2.114866,-11.462376,4.711407,10.976163,-0.120558,-0.136058,0.000000,0.204472,-0.114156,-0.000000
1.940000,-0.840546,0.977647,-1.198836,2.110964,0.341264,0.387751,1.493978,-1.300897,-1.013798,1.438567,2.026242,-2.007087,-11.858444,3.944013,10.570723,-0.118502,-0.137160,0.000000,0.206328,-0.104568,0.000000
1.950000,-0.819362,0.980994,-1.195009,2.125976,0.328357,0.377513,1.507771,-1.280437,-1.033340,1.317916,2.061766,-1.903451,-12.269165,3.156054,10.143337,-0.116431,-0.138164,0.000000,0.207571,-0.094645,-0.000000
1.960000,-0.798027,0.984214,-1.191285,2.141120,0.315656,0.367084,1.520336,-1.259662,-1.051867,1.193184,2.089363,-1.804220,-12.647444,2.386160,9.693904,-0.114350,-0.139067,0.000000,0.208197,-0.084382,-0.000000
1.970000,-0.776540,0.987308,-1.187667,2.156383,0.303164,0.356475,1.531635,-1.238650,-1.069424,1.064967,2.109489,-1.709573,-12.956773,1.681399,9.236984,-0.112267,-0.139864,0.000000,0.208252,-0.073826,0.000000
1.980000,-0.754899,0.990277,-1.184156,2.171752,0.290883,0.345696,1.541635,-1.217472,-1.086058,0.934049,2.122991,-1.619481,-13.211900,1.034345,8.777932,-0.110185,-0.140553,0.000000,0.207812,-0.063040,0.000000
1.990000,-0.733105,0.993125,-1.180753,2.187215,0.278814,0.334754,1.550316,-1.196190,-1.101814,0.800729,2.130176,-1.534015,-13.460212,0.385989,8.302684,-0.108110,-0.141132,0.000000,0.206904,-0.052046,-0.000000
2.000000,-0.711155,0.995854,-1.177461,2.202759,0.266959,0.323660,1.557650,-1.174869,-1.116739,0.664844,2.130711,-1.453427,-13.711471,-0.285174,7.803660,-0.106047,-0.141600,0.000000,0.205501,-0.040819,0.000000
2.010000,-0.689050,0.998464,-1.174280,2.218368,0.255317,0.312420,1.563613,-1.153576,-1.130882,0.526500,2.124472,-1.377941,-13.934817,-0.936483,7.295612,-0.104000,-0.141953,0.000000,0.203592,-0.029361,-0.000000
2.020000,-0.666788,1.000960,-1.171212,2.234031,0.243887,0.301042,1.568180,-1.132379,-1.144297,0.386148,2.111981,-1.307515,-14.108827,-1.510341,6.806721,-0.101975,-0.142191,0.000000,0.201221,-0.017706,0.000000
2.030000,-0.644369,1.003342,-1.168259,2.249732,0.232669,0.289534,1.571335,-1.111336,-1.157033,0.244324,2.094265,-1.241807,-14.244560,-2.017754,6.337260,-0.099975,-0.142310,0.000000,0.198476,-0.005903,0.000000
2.040000,-0.621793,1.005613,-1.165422,2.265458,0.221661,0.277901,1.573067,-1.090494,-1.169134,0.101257,2.071626,-1.180770,-14.371044,-2.533290,5.855196,-0.098005,-0.142309,0.000000,0.195380,0.006033,-0.000000
2.050000,-0.599060,1.007775,-1.162701,2.281193,0.210859,0.266151,1.573361,-1.069904,-1.180648,-0.043097,2.043600,-1.124703,-14.492002,-3.069476,5.352227,-0.096068,-0.142188,0.000000,0.191892,0.018114,-0.000000
2.060000,-0.576169,1.009830,-1.160099,2.296925,0.200262,0.254288,1.572205,-1.049622,-1.191628,-0.188583,2.010237,-1.073725,-14.589953,-3.575448,4.854456,-0.094167,-0.141945,0.000000,0.188013,0.030331,-0.000000
2.070000,-0.553121,1.011781,-1.157615,2.312637,0.189867,0.242318,1.569589,-1.029699,-1.202123,-0.334896,1.972091,-1.027614,-14.660466,-4.025468,4.388925,-0.092307,-0.141579,0.000000,0.183790,0.042660,-0.000000
2.080000,-0.529916,1.013628,-1.155252,2.328316,0.179668,0.230246,1.565507,-1.010180,-1.212180,-0.481793,1.929727,-0.985946,-14.711582,-4.436173,3.951429,-0.090491,-0.141089,0.000000,0.179265,0.055074,-0.000000
2.090000,-0.506555,1.015374,-1.153011,2.343947,0.169663,0.218075,1.559953,-0.991105,-1.221842,-0.629128,1.883367,-0.948585,-14.750603,-4.838977,3.511629,-0.088722,-0.140473,0.000000,0.174455,0.067564,0.000000
2.100000,-0.483037,1.017021,-1.150891,2.359516,0.159846,0.205809,1.552924,-0.972513,-1.231152,-0.776805,1.832948,-0.915714,-14.775260,-5.238096,3.061176,-0.087002,-0.139732,0.000000,0.169351,0.080125,-0.000000
2.110000,-0.459365,1.018571,-1.148894,2.375006,0.150213,0.193452,1.544417,-0.954446,-1.240156,-0.924633,1.778605,-0.887362,-14.783291,-5.613305,2.624230,-0.085335,-0.138865,0.000000,0.163965,0.092743,0.000000
2.120000,-0.435537,1.020025,-1.147022,2.390404,0.140757,0.181006,1.534431,-0.936941,-1.248899,-1.072470,1.720682,-0.863229,-14.785096,-5.953907,2.228511,-0.083723,-0.137871,0.000000,0.158320,0.105402,-0.000000
2.130000,-0.411557,1.021386,-1.145274,2.405695,0.131474,0.168474,1.522968,-0.920032,-1.257420,-1.220335,1.659527,-0.842792,-14.784394,-6.267359,1.869803,-0.082168,-0.136749,0.000000,0.152442,0.118099,-0.000000
2.140000,-0.387423,1.022655,-1.143652,2.420863,0.122357,0.155857,1.510025,-0.903750,-1.265755,-1.368158,1.595334,-0.825833,-14.769354,-6.567835,1.515752,-0.080674,-0.135501,0.000000,0.146343,0.130826,0.000000
2.150000,-0.363139,1.023833,-1.142157,2.435895,0.113399,0.143159,1.495604,-0.888125,-1.273937,-1.515722,1.528170,-0.812477,-14.733461,-6.855782,1.158826,-0.079241,-0.134124,0.000000,0.140029,0.143566,-0.000000
2.160000,-0.338706,1.024923,-1.140789,2.450775,0.104594,0.130379,1.479710,-0.873187,-1.282004,-1.662828,1.458219,-0.802657,-14.687342,-7.122995,0.823775,-0.077873,-0.132620,0.000000,0.133513,0.156301,-0.000000
2.170000,-0.314124,1.025925,-1.139550,2.465489,0.095935,0.117519,1.462348,-0.858961,-1.289990,-1.809469,1.385711,-0.796001,-14.651152,-7.370859,0.533767,-0.076571,-0.130989,0.000000,0.126811,0.169024,0.000000
2.180000,-0.289396,1.026841,-1.138439,2.480022,0.087415,0.104579,1.443521,-0.845473,-1.297924,-1.955851,1.310802,-0.791981,-14.624333,-7.603383,0.283645,-0.075337,-0.129230,0.000000,0.119933,0.181748,-0.000000
2.190000,-0.264523,1.027673,-1.137458,2.494360,0.079026,0.091560,1.423231,-0.832745,-1.305830,-2.101956,1.233643,-0.790328,-14.582323,-7.819454,0.046488,-0.074172,-0.127344,0.000000,0.112887,0.194466,0.000000
2.200000,-0.239509,1.028422,-1.136608,2.508487,0.070760,0.078462,1.401482,-0.820800,-1.313731,-2.247497,1.154412,-0.791052,-14.516981,-8.017638,-0.184653,-0.073079,-0.125330,0.000000,0.105689,0.207153,-0.000000
2.210000,-0.214354,1.029089,-1.135889,2.522389,0.062610,0.065285,1.378281,-0.809657,-1.321651,-2.392295,1.073290,-0.794021,-14.447023,-8.200082,-0.389377,-0.072058,-0.123189,0.000000,0.098354,0.219791,0.000000
2.220000,-0.189061,1.029674,-1.135302,2.536053,0.054567,0.052029,1.353636,-0.799334,-1.329611,-2.536438,0.990411,-0.798839,-14.395287,-8.372040,-0.546209,-0.071112,-0.120923,0.000000,0.090890,0.232381,-0.000000
2.230000,-0.163633,1.030180,-1.134848,2.549462,0.046623,0.038693,1.327552,-0.789848,-1.337628,-2.680201,0.905849,-0.804946,-14.358167,-8.534635,-0.659905,-0.070241,-0.118530,0.000000,0.083300,0.244939,-0.000000
2.240000,-0.138072,1.030607,-1.134528,2.562604,0.038770,0.025277,1.300032,-0.781217,-1.345710,-2.823601,0.819718,-0.812037,-14.307391,-8.682130,-0.756073,-0.069446,-0.116012,0.000000,0.075591,0.257464,-0.000000
2.250000,-0.112380,1.030955,-1.134343,2.575463,0.030999,0.011779,1.271080,-0.773454,-1.353868,-2.966349,0.732207,-0.820067,-14.233953,-8.808726,-0.837662,-0.068729,-0.113368,0.000000,0.067781,0.269927,-0.000000
2.260000,-0.086562,1.031227,-1.134293,2.588025,0.023301,-0.001801,1.240705,-0.766573,-1.362111,-3.108280,0.643544,-0.828790,-14.158454,-8.919820,-0.886003,-0.068090,-0.110601,0.000000,0.059888,0.282311,0.000000
2.270000,-0.060620,1.031421,-1.134379,2.600277,0.015667,-0.015463,1.208915,-0.760583,-1.370444,-3.249518,0.553810,-0.837787,-14.105314,-9.033405,-0.892630,-0.067531,-0.107709,0.000000,0.051918,0.294620,-0.000000
2.280000,-0.034557,1.031540,-1.134602,2.612203,0.008089,-0.029209,1.175715,-0.755497,-1.378867,-3.390386,0.462876,-0.846643,-14.070142,-9.150220,-0.862587,-0.067052,-0.104695,0.000000,0.043856,0.306878,0.000000
2.290000,-0.008376,1.031583,-1.134963,2.623791,0.000558,-0.043041,1.141107,-0.751326,-1.387377,-3.530921,0.370806,-0.855039,-14.021745,-9.246816,-0.804289,-0.066654,-0.101558,0.000000,0.035708,0.319085,-0.000000
2.300000,0.017919,1.031551,-1.135463,2.635026,-0.006937,-0.056957,1.105096,-0.748080,-1.395968,-3.670821,0.277939,-0.862729,-13.948527,-9.312339,-0.718822,-0.066338,-0.098299,0.000000,0.027502,0.331211,0.000000
2.310000,0.044325,1.031444,-1.136102,2.645893,-0.014404,-0.070960,1.067690,-0.745767,-1.404632,-3.809891,0.184559,-0.869415,-13.872563,-9.364033,-0.599502,-0.066104,-0.094919,0.000000,0.019263,0.343237,-0.000000
2.320000,0.070837,1.031263,-1.136882,2.656379,-0.021852,-0.085050,1.028898,-0.744389,-1.413356,-3.948272,0.090659,-0.874719,-13.824027,-9.430119,-0.440172,-0.065952,-0.091419,0.000000,0.010988,0.355170,0.000000
2.330000,0.097452,1.031007,-1.137803,2.666471,-0.029292,-0.099227,0.988725,-0.743954,-1.422126,-4.086372,-0.004043,-0.878219,-13.797905,-9.507012,-0.240867,-0.065884,-0.087800,0.000000,0.002652,0.367045,-0.000000
2.340000,0.124166,1.030677,-1.138866,2.676154,-0.036732,-0.113492,0.947171,-0.744470,-1.430921,-4.224230,-0.099482,-0.879536,-13.754194,-9.557534,-0.008486,-0.065899,-0.084062,0.000000,-0.005741,0.378863,-0.000000
2.350000,0.150975,1.030273,-1.140073,2.685414,-0.044181,-0.127845,0.904240,-0.745943,-1.439717,-4.361456,-0.195194,-0.878388,-13.678463,-9.570657,0.247636,-0.065999,-0.080207,0.000000,-0.014152,0.390590,0.000000
2.360000,0.177875,1.029794,-1.141423,2.694239,-0.051650,-0.142287,0.859942,-0.748374,-1.448488,-4.497800,-0.290895,-0.874583,-13.598104,-9.572031,0.533737,-0.066182,-0.076234,0.000000,-0.022556,0.402202,-0.000000
2.370000,0.204860,1.029240,-1.142919,2.702613,-0.059149,-0.156815,0.814284,-0.751761,-1.457208,-4.633418,-0.386634,-0.867714,-13.548038,-9.587528,0.878084,-0.066450,-0.072145,0.000000,-0.030958,0.413715,0.000000
2.380000,0.231927,1.028611,-1.144560,2.710524,-0.066686,-0.171431,0.767273,-0.756107,-1.465843,-4.768761,-0.482645,-0.857022,-13.520731,-9.609894,1.282552,-0.066801,-0.067941,0.000000,-0.039383,0.425167,0.000000
2.390000,0.259071,1.027906,-1.146347,2.717959,-0.074271,-0.186132,0.718909,-0.761414,-1.474349,-4.903833,-0.578832,-0.842063,-13.469034,-9.604990,1.708901,-0.067237,-0.063623,0.000000,-0.047827,0.436559,0.000000
2.400000,0.286286,1.027125,-1.148282,2.724903,-0.081914,-0.200918,0.669197,-0.767683,-1.482684,-5.038141,-0.674745,-0.822844,-13.378808,-9.562699,2.135525,-0.067758,-0.059190,0.000000,-0.056247,0.447854,-0.000000
2.410000,0.313569,1.026268,-1.150365,2.731343,-0.089625,-0.215786,0.618146,-0.774909,-1.490806,-5.171409,-0.770086,-0.799352,-13.281174,-9.505731,2.590018,-0.068362,-0.054645,0.000000,-0.064620,0.459032,0.000000
2.420000,0.340913,1.025333,-1.152598,2.737266,-0.097412,-0.230734,0.565769,-0.783085,-1.498671,-5.303765,-0.864860,-0.771043,-13.207377,-9.457669,3.127678,-0.069050,-0.049988,0.000000,-0.072948,0.470109,-0.000000
2.430000,0.368314,1.024319,-1.154980,2.742658,-0.105286,-0.245759,0.512071,-0.792206,-1.506227,-5.435556,-0.959240,-0.736799,-13.147147,-9.411533,3.743142,-0.069821,-0.045220,0.000000,-0.081256,0.481117,-0.000000
2.440000,0.395766,1.023227,-1.157513,2.747507,-0.113256,-0.260858,0.457057,-0.802270,-1.513407,-5.566708,-1.053090,-0.696181,-13.057656,-9.335162,4.361513,-0.070675,-0.040342,0.000000,-0.089534,0.492057,0.000000
2.450000,0.423264,1.022054,-1.160197,2.751799,-0.121332,-0.276027,0.400737,-0.813268,-1.520150,-5.696709,-1.145943,-0.649568,-12.929244,-9.219191,4.958203,-0.071612,-0.035354,0.000000,-0.097741,0.502897,-0.000000
2.460000,0.450802,1.020800,-1.163034,2.755522,-0.129522,-0.291261,0.343123,-0.825189,-1.526398,-5.825292,-1.237474,-0.597017,-12.788839,-9.084278,5.584096,-0.072630,-0.030258,0.000000,-0.105851,0.513622,0.000000
2.470000,0.478374,1.019464,-1.166023,2.758662,-0.137835,-0.306555,0.284231,-0.838018,-1.532091,-5.952486,-1.327629,-0.537886,-12.654429,-8.950450,6.294948,-0.073729,-0.025055,0.000000,-0.113865,0.524244,0.000000
2.480000,0.505975,1.018044,-1.169165,2.761206,-0.146282,-0.321903,0.224074,-0.851741,-1.537156,-6.078381,-1.416483,-0.471118,-12.515723,-8.810438,7.075072,-0.074907,-0.019745,0.000000,-0.121800,0.534781,0.000000
2.490000,0.533599,1.016538,-1.172461,2.763143,-0.154870,-0.337298,0.162663,-0.866347,-1.541513,-6.202801,-1.503837,-0.396385,-12.346809,-8.636044,7.849382,-0.076165,-0.014329,0.000000,-0.129644,0.545232,0.000000
2.500000,0.561238,1.014946,-1.175911,2.764460,-0.163609,-0.352733,0.100018,-0.881818,-1.545084,-6.325317,-1.589204,-0.314130,-12.142095,-8.420652,8.601121,-0.077500,-0.008808,0.000000,-0.137354,0.555575,0.000000
2.510000,0.588888,1.013266,-1.179515,2.765143,-0.172507,-0.368200,0.036157,-0.898131,-1.547795,-6.445642,-1.672250,-0.224363,-11.916255,-8.181446,9.378869,-0.078912,-0.003183,0.000000,-0.144908,0.565799,-0.000000
2.520000,0.616541,1.011496,-1.183275,2.765183,-0.181572,-0.383689,-0.028895,-0.915263,-1.549571,-6.563642,-1.752833,-0.126553,-11.677454,-7.929878,10.215946,-0.080398,0.002544,0.000000,-0.152299,0.575909,0.000000
2.530000,0.644191,1.009635,-1.187189,2.764566,-0.190812,-0.399191,-0.095116,-0.933188,-1.550327,-6.679192,-1.830848,-0.020044,-11.418650,-7.658286,11.095901,-0.081958,0.008372,0.000000,-0.159530,0.585911,-0.000000
2.540000,0.671832,1.007680,-1.191259,2.763280,-0.200235,-0.414696,-0.162479,-0.951880,-1.549972,-6.792015,-1.905999,0.095365,-11.125831,-7.349541,11.972451,-0.083589,0.014302,0.000000,-0.166582,0.595800,-0.000000
2.550000,0.699457,1.005630,-1.195483,2.761316,-0.209849,-0.430191,-0.230956,-0.971308,-1.548419,-6.901708,-1.977839,0.219405,-10.796002,-7.004318,12.828846,-0.085289,0.020331,0.000000,-0.173421,0.605562,-0.000000
2.560000,0.727059,1.003483,-1.199862,2.758661,-0.219661,-0.445664,-0.300513,-0.991437,-1.545584,-7.007935,-2.046085,0.351942,-10.435414,-6.631425,13.693203,-0.087057,0.026458,0.000000,-0.180027,0.615185,0.000000
2.570000,0.754630,1.001237,-1.204396,2.755306,-0.229678,-0.461103,-0.371115,-1.012230,-1.541380,-7.110416,-2.110467,0.493269,-10.044962,-6.222408,14.602705,-0.088890,0.032682,0.000000,-0.186387,0.624667,-0.000000
2.580000,0.782165,0.998889,-1.209084,2.751239,-0.239906,-0.476492,-0.442722,-1.033646,-1.535718,-7.208835,-2.170533,0.643996,-9.619092,-5.770320,15.549125,-0.090785,0.039001,0.000000,-0.192474,0.634003,-0.000000
2.590000,0.809655,0.996439,-1.213926,2.746451,-0.250351,-0.491817,-0.515292,-1.055640,-1.528500,-7.302798,-2.225874,0.804252,-9.153020,-5.284823,16.477127,-0.092740,0.045415,0.000000,-0.198260,0.643184,-0.000000
2.600000,0.837094,0.993882,-1.218921,2.740933,-0.261019,-0.507062,-0.588778,-1.078164,-1.519633,-7.391895,-2.276230,0.973539,-8.651619,-4.778614,17.355068,-0.094750,0.051921,0.000000,-0.203729,0.652197,0.000000
2.610000,0.864474,0.991218,-1.224067,2.734676,-0.271914,-0.522210,-0.663129,-1.101165,-1.509030,-7.475831,-2.321446,1.151353,-8.114294,-4.241735,18.217367,-0.096814,0.058518,0.000000,-0.208871,0.661035,0.000000
2.620000,0.891787,0.988444,-1.229365,2.727671,-0.283042,-0.537242,-0.738294,-1.124593,-1.496606,-7.554181,-2.361065,1.337886,-7.519829,-3.635994,19.137052,-0.098928,0.065205,0.000000,-0.213656,0.669688,-0.000000
2.630000,0.919027,0.985557,-1.234812,2.719910,-0.294406,-0.552142,-0.814213,-1.148386,-1.482272,-7.626227,-2.394166,1.534094,-6.862650,-2.958760,20.104149,-0.101088,0.071979,0.000000,-0.218021,0.678122,0.000000
2.640000,0.946186,0.982556,-1.240408,2.711386,-0.306010,-0.566888,-0.890819,-1.172476,-1.465924,-7.691434,-2.420240,1.739969,-6.168493,-2.259953,21.012465,-0.103289,0.078838,0.000000,-0.221931,0.686318,0.000000
2.650000,0.973255,0.979437,-1.246150,2.702093,-0.317856,-0.581460,-0.968042,-1.196791,-1.447473,-7.749597,-2.439365,1.954344,-5.457236,-1.566384,21.823254,-0.105526,0.085780,0.000000,-0.225392,0.694278,0.000000
2.660000,1.000227,0.976199,-1.252037,2.692025,-0.329946,-0.595837,-1.045811,-1.221263,-1.426837,-7.800579,-2.451567,2.176434,-4.707041,-0.841022,22.603724,-0.107797,0.092803,0.000000,-0.228407,0.702009,0.000000
2.670000,1.027095,0.972838,-1.258067,2.681177,-0.342281,-0.609997,-1.124053,-1.245822,-1.403944,-7.843738,-2.456185,2.406418,-3.860036,-0.013118,23.433014,-0.110095,0.099903,0.000000,-0.230928,0.709479,0.000000
2.680000,1.053851,0.969353,-1.264237,2.669544,-0.354862,-0.623916,-1.202685,-1.270387,-1.378709,-7.877779,-2.451830,2.645095,-2.915757,0.911700,24.286158,-0.112416,0.107080,0.000000,-0.232849,0.716610,0.000000
2.690000,1.080486,0.965741,-1.270545,2.657124,-0.367689,-0.637571,-1.281609,-1.294859,-1.351042,-7.902053,-2.437951,2.892141,-1.950130,1.839142,25.049220,-0.114752,0.114328,0.000000,-0.234127,0.723368,0.000000
2.700000,1.106993,0.961999,-1.276988,2.643912,-0.380759,-0.650937,-1.360727,-1.319146,-1.320866,-7.916782,-2.415047,3.146079,-0.999312,2.731434,25.698792,-0.117098,0.121644,0.000000,-0.234798,0.729785,0.000000
2.710000,1.133365,0.958126,-1.283564,2.629909,-0.394072,-0.663988,-1.439945,-1.343160,-1.288120,-7.922039,-2.383323,3.406117,-0.008079,3.654241,26.303528,-0.119449,0.129026,0.000000,-0.234875,0.735881,-0.000000
2.720000,1.159592,0.954118,-1.290268,2.615113,-0.407623,-0.676699,-1.519167,-1.366812,-1.252744,-7.916944,-2.341962,3.672150,1.117295,4.700331,26.896186,-0.121796,0.136469,0.000000,-0.234291,0.741599,0.000000
2.730000,1.185667,0.949973,-1.297098,2.599526,-0.421408,-0.689043,-1.598283,-1.389999,-1.214677,-7.899693,-2.289316,3.944041,2.366555,5.853920,27.444934,-0.124135,0.143970,0.000000,-0.232904,0.746802,0.000000
2.740000,1.211582,0.945690,-1.304049,2.583148,-0.435423,-0.700993,-1.677161,-1.412599,-1.173863,-7.869612,-2.224884,4.221048,3.614734,6.989917,27.898395,-0.126455,0.151523,0.000000,-0.230662,0.751440,-0.000000
2.750000,1.237330,0.941265,-1.311118,2.565982,-0.449660,-0.712521,-1.755676,-1.434497,-1.130256,-7.827399,-2.149518,4.502009,4.813897,8.063218,28.261728,-0.128748,0.159122,0.000000,-0.227627,0.755579,0.000000
2.760000,1.262902,0.936697,-1.318299,2.548034,-0.464112,-0.723598,-1.833709,-1.455589,-1.083823,-7.773335,-2.063619,4.786283,6.050389,9.158021,28.557911,-0.131008,0.166762,0.000000,-0.223822,0.759249,-0.000000
2.770000,1.288290,0.931983,-1.325590,2.529308,-0.478772,-0.734197,-1.911142,-1.475769,-1.034531,-7.706391,-1.966357,5.073167,7.440766,10.380253,28.748863,-0.133225,0.174440,0.000000,-0.219163,0.762362,-0.000000
2.780000,1.313488,0.927121,-1.332983,2.509811,-0.493628,-0.744289,-1.987837,-1.494916,-0.982360,-7.624519,-1.856014,5.361260,8.962977,11.706323,28.812259,-0.135391,0.182148,0.000000,-0.213475,0.764726,0.000000
2.790000,1.338487,0.922110,-1.340475,2.489551,-0.508670,-0.753844,-2.063633,-1.512890,-0.927306,-7.527131,-1.732231,5.649412,10.459640,12.991061,28.790489,-0.137495,0.189877,0.000000,-0.206701,0.766273,0.000000
2.800000,1.363279,0.916948,-1.348060,2.468539,-0.523886,-0.762835,-2.138380,-1.529561,-0.869371,-7.415326,-1.596193,5.937070,11.877356,14.185139,28.721473,-0.139526,0.197621,0.000000,-0.198925,0.767093,-0.000000
2.810000,1.387857,0.911632,-1.355732,2.446784,-0.539261,-0.771232,-2.211939,-1.544813,-0.808564,-7.289584,-1.448528,6.223842,13.321220,15.383436,28.563568,-0.141474,0.205372,0.000000,-0.190178,0.767220,0.000000
2.820000,1.412215,0.906163,-1.363485,2.424300,-0.554782,-0.779006,-2.284171,-1.558531,-0.744895,-7.148902,-1.288524,6.508341,14.914228,16.696124,28.199641,-0.143329,0.213122,0.000000,-0.180361,0.766536,0.000000
2.830000,1.436343,0.900537,-1.371312,2.401100,-0.570432,-0.786130,-2.354917,-1.570584,-0.678397,-6.991300,-1.114605,6.787834,16.625122,18.092247,27.625386,-0.145081,0.220863,0.000000,-0.169277,0.764798,0.000000
2.840000,1.460237,0.894754,-1.379207,2.377202,-0.586194,-0.792574,-2.423997,-1.580823,-0.609138,-6.816400,-0.926679,7.060849,18.285064,19.418117,26.989089,-0.146715,0.228582,0.000000,-0.156867,0.761919,-0.000000
2.850000,1.483887,0.888813,-1.387164,2.352621,-0.602048,-0.798312,-2.491245,-1.589117,-0.537180,-6.625598,-0.726243,7.327616,19.841485,20.633500,26.357305,-0.148218,0.236269,0.000000,-0.143232,0.758003,-0.000000
2.860000,1.507289,0.882713,-1.395174,2.327377,-0.617976,-0.803318,-2.556509,-1.595348,-0.462586,-6.419570,-0.514009,7.587995,21.403421,21.835029,25.618289,-0.149579,0.243912,0.000000,-0.128397,0.753079,0.000000
2.870000,1.530435,0.876453,-1.403230,2.301490,-0.633955,-0.807564,-2.619637,-1.599398,-0.385420,-6.197530,-0.289543,7.839982,23.084436,23.099730,24.592292,-0.150786,0.251502,0.000000,-0.112254,0.747000,0.000000
2.880000,1.553319,0.870034,-1.411325,2.274984,-0.649964,-0.811026,-2.680460,-1.601139,-0.305786,-5.957881,-0.052015,8.079841,24.847205,24.390128,23.297298,-0.151824,0.259025,0.000000,-0.094634,0.739485,-0.000000
2.890000,1.575935,0.863454,-1.419451,2.247881,-0.665978,-0.813680,-2.738794,-1.600438,-0.223824,-5.700586,0.198260,8.305928,26.532148,25.595291,21.967016,-0.152678,0.266465,0.000000,-0.075487,0.730430,-0.000000
2.900000,1.598276,0.856714,-1.427599,2.220208,-0.681973,-0.815503,-2.794472,-1.597174,-0.139667,-5.427238,0.459891,8.519181,28.099063,26.696156,20.694105,-0.153332,0.273807,0.000000,-0.054895,0.719938,-0.000000
2.910000,1.620339,0.849815,-1.435761,2.191992,-0.697922,-0.816473,-2.847339,-1.591240,-0.053440,-5.138605,0.732183,8.719810,29.646417,27.756418,19.312623,-0.153774,0.281036,0.000000,-0.032859,0.708019,0.000000
2.920000,1.642116,0.842756,-1.443928,2.163261,-0.713797,-0.816571,-2.897244,-1.582530,0.034729,-4.834310,1.015019,8.905434,31.247778,28.796600,17.586052,-0.153988,0.288137,0.000000,-0.009294,0.694502,-0.000000
2.930000,1.663604,0.835539,-1.452092,2.134047,-0.729572,-0.815779,-2.944025,-1.570940,0.124669,-4.513649,1.308115,9.071531,32.862460,29.783663,15.551193,-0.153959,0.295093,0.000000,0.015906,0.679106,-0.000000
2.940000,1.684797,0.828164,-1.460244,2.104381,-0.745216,-0.814078,-2.987517,-1.556368,0.216160,-4.177061,1.610693,9.216458,34.382039,30.680136,13.522766,-0.153669,0.301882,0.000000,0.042770,0.661718,0.000000
2.950000,1.705692,0.820634,-1.468374,2.074297,-0.760699,-0.811455,-3.027566,-1.538726,0.308998,-3.826008,1.921718,9.341986,35.793718,31.498293,11.616913,-0.153101,0.308485,0.000000,0.071256,0.642412,0.000000
2.960000,1.726283,0.812950,-1.476473,2.043829,-0.775991,-0.807898,-3.064037,-1.517934,0.402999,-3.461186,2.240659,9.448796,37.157069,32.249271,9.618276,-0.152241,0.314882,0.000000,0.101388,0.621163,0.000000
2.970000,1.746568,0.805115,-1.484532,2.013016,-0.791058,-0.803395,-3.096790,-1.493913,0.497974,-3.082867,2.566703,9.534352,38.471400,32.872779,7.245899,-0.151071,0.321053,0.000000,0.133209,0.597799,0.000000
2.980000,1.766544,0.797129,-1.492541,1.981894,-0.805869,-0.797939,-3.125694,-1.466600,0.593686,-2.691758,2.898114,9.593714,39.701311,33.346910,4.557950,-0.149574,0.326975,0.000000,0.166707,0.572094,-0.000000
2.990000,1.786206,0.788997,-1.500490,1.950502,-0.820390,-0.791522,-3.150625,-1.435950,0.689848,-2.288841,3.233641,9.625511,40.836272,33.741757,1.934965,-0.147734,0.332622,0.000000,0.201864,0.543945,0.000000
3.000000,1.805554,0.780721,-1.508371,1.918881,-0.834588,-0.784142,-3.171471,-1.401927,0.786196,-1.875033,3.572949,9.632413,41.902407,34.108303,-0.502923,-0.145534,0.337971,0.000000,0.238693,0.513372,0.000000
3.010000,1.824584,0.772305,-1.516173,1.887072,-0.848429,-0.775798,-3.188126,-1.364491,0.882496,-1.450793,3.915808,9.615452,42.890204,34.383950,-3.007400,-0.142957,0.342997,0.000000,0.277242,0.480305,-0.000000
3.020000,1.843295,0.763753,-1.523887,1.855119,-0.861878,-0.766492,-3.200487,-1.323611,0.978506,-1.017229,4.260628,9.572265,43.701797,34.415466,-5.847385,-0.139985,0.347674,0.000000,0.317470,0.444614,0.000000
3.030000,1.861686,0.755068,-1.531503,1.823063,-0.874901,-0.756228,-3.208471,-1.279279,1.073942,-0.576757,4.604117,9.498505,44.318480,34.202126,-8.941705,-0.136603,0.351974,0.000000,0.359172,0.406214,0.000000
3.040000,1.879756,0.746255,-1.539012,1.790949,-0.887463,-0.745013,-3.212022,-1.231528,1.168476,-0.130859,4.944671,9.393431,44.859350,33.939187,-11.920467,-0.132797,0.355871,0.000000,0.402249,0.365055,-0.000000
3.050000,1.897505,0.737319,-1.546403,1.758822,-0.899531,-0.732858,-3.211088,-1.180385,1.261810,0.320430,5.282901,9.260095,45.392029,33.708413,-14.691706,-0.128554,0.359336,0.000000,0.446765,0.321087,0.000000
3.060000,1.914933,0.728264,-1.553669,1.726727,-0.911071,-0.719777,-3.205613,-1.125870,1.353678,0.776981,5.618839,9.099597,45.819308,33.364978,-17.489636,-0.123857,0.362342,0.000000,0.492749,0.274209,-0.000000
3.070000,1.932040,0.719097,-1.560799,1.694710,-0.922049,-0.705785,-3.195548,-1.068009,1.443802,1.236816,5.950200,8.910303,45.946827,32.691723,-20.493241,-0.118694,0.364858,0.000000,0.540007,0.224405,0.000000
3.080000,1.948827,0.709823,-1.567784,1.662816,-0.932431,-0.690901,-3.180877,-1.006866,1.531884,1.695918,6.272673,8.689732,45.782394,31.715198,-23.612007,-0.113052,0.366857,0.000000,0.588104,0.171849,-0.000000
3.090000,1.965296,0.700449,-1.574617,1.631092,-0.942186,-0.675147,-3.161630,-0.942555,1.617597,2.152464,6.584504,8.438063,45.575330,30.718058,-26.591132,-0.106927,0.368312,0.000000,0.636798,0.116617,0.000000
3.100000,1.981449,0.690980,-1.581287,1.599584,-0.951282,-0.658549,-3.137828,-0.875176,1.700645,2.607425,6.887035,8.157909,45.425828,29.808028,-29.395996,-0.100312,0.369197,0.000000,0.686135,0.058608,-0.000000
3.110000,1.997288,0.681423,-1.587788,1.568336,-0.959690,-0.641134,-3.109481,-0.804815,1.780755,3.060981,7.180665,7.850143,45.152150,28.785948,-32.173281,-0.093200,0.369484,0.000000,0.736062,-0.002249,0.000000
3.120000,2.012815,0.671786,-1.594110,1.537394,-0.967379,-0.622934,-3.076608,-0.731563,1.857648,3.510468,7.462754,7.514444,44.492500,27.379248,-34.947854,-0.085587,0.369145,0.000000,0.786168,-0.065744,0.000000
3.130000,2.028036,0.662075,-1.600246,1.506804,-0.974321,-0.603981,-3.039272,-0.655559,1.931044,3.950831,7.728250,7.151186,43.485197,25.636290,-37.643262,-0.077473,0.368158,0.000000,0.835707,-0.131330,-0.000000
3.140000,2.042952,0.652299,-1.606190,1.476609,-0.980490,-0.584313,-2.997592,-0.576998,2.000671,4.380172,7.975479,6.761579,42.472645,23.919672,-40.205933,-0.068870,0.366505,0.000000,0.884243,-0.198721,-0.000000
3.150000,2.057568,0.642466,-1.611933,1.446852,-0.985861,-0.563968,-2.951669,-0.496050,2.066275,4.800284,8.206643,6.347067,41.569816,22.345157,-42.672239,-0.059786,0.364168,0.000000,0.931755,-0.267987,-0.000000
3.160000,2.071889,0.632582,-1.617469,1.417575,-0.990411,-0.542987,-2.901586,-0.412865,2.127613,5.211568,8.422383,5.908134,40.539000,20.667061,-45.046927,-0.050233,0.361130,0.000000,0.978026,-0.339057,-0.000000
3.170000,2.085919,0.622657,-1.622792,1.388820,-0.994118,-0.521415,-2.847437,-0.327602,2.184438,5.611064,8.619984,5.446128,39.098761,18.614914,-47.178443,-0.040225,0.357373,0.000000,1.022398,-0.411397,0.000000
3.180000,2.099665,0.612700,-1.627897,1.360627,-0.996963,-0.499298,-2.789365,-0.240465,2.236535,5.993543,8.794681,4.964565,37.314116,16.263007,-49.024981,-0.029786,0.352890,0.000000,1.063901,-0.484049,0.000000
3.190000,2.113132,0.602718,-1.632778,1.333033,-0.998928,-0.476685,-2.727566,-0.151709,2.283729,6.357346,8.945244,4.465629,35.558520,13.975734,-50.766030,-0.018949,0.347684,0.000000,1.101957,-0.556460,0.000000
3.200000,2.126326,0.592721,-1.637431,1.306075,-0.999997,-0.453624,-2.662218,-0.061560,2.325848,6.704713,9.074196,3.949244,33.933771,11.842170,-52.517981,-0.007750,0.341756,0.000000,1.136445,-0.628593,0.000000
3.210000,2.139253,0.582718,-1.641851,1.279789,-1.000159,-0.430168,-2.593472,0.029775,2.362714,7.036022,9.182088,3.415269,32.190621,9.625645,-54.126902,0.003776,0.335110,0.000000,1.166996,-0.700158,0.000000
3.220000,2.151921,0.572718,-1.646034,1.254206,-0.999402,-0.406370,-2.521497,0.122081,2.394153,7.348526,9.266708,2.866706,30.100508,7.142255,-55.248412,0.015585,0.327752,0.000000,1.192883,-0.770323,0.000000
3.230000,2.164337,0.562730,-1.649978,1.229359,-0.997717,-0.382285,-2.446502,0.215109,2.420048,7.638032,9.324933,2.310301,27.743165,4.476353,-55.888260,0.027626,0.319701,0.000000,1.213282,-0.837886,0.000000
3.240000,2.176509,0.552764,-1.653680,1.205276,-0.995099,-0.357969,-2.368737,0.308580,2.440359,7.903389,9.356235,1.748941,25.427116,1.881636,-56.485708,0.039842,0.310989,0.000000,1.227743,-0.902155,0.000000
3.250000,2.188443,0.542828,-1.657138,1.181984,-0.991546,-0.333477,-2.288434,0.402234,2.455027,8.146574,9.362566,1.180587,23.227950,-0.595128,-57.213120,0.052172,0.301646,0.000000,1.236161,-0.963017,-0.000000
3.260000,2.200148,0.532933,-1.660350,1.159507,-0.987055,-0.308868,-2.205805,0.495831,2.463971,8.367948,9.344333,0.604679,20.949068,-3.107101,-57.747299,0.064555,0.291706,0.000000,1.238277,-1.020099,-0.000000
3.270000,2.211633,0.523087,-1.663315,1.137868,-0.981629,-0.284198,-2.121075,0.589121,2.467121,8.565555,9.300424,0.025641,18.435727,-5.727408,-57.634800,0.076927,0.281207,0.000000,1.233732,-1.072561,0.000000
3.280000,2.222906,0.513300,-1.666034,1.117086,-0.975272,-0.259526,-2.034494,0.681840,2.464484,8.736663,9.229785,-0.548017,15.766032,-8.385345,-56.941046,0.089219,0.270198,0.000000,1.222320,-1.119368,0.000000
3.290000,2.233975,0.503582,-1.668505,1.097178,-0.967992,-0.234908,-1.946342,0.773717,2.456160,8.880876,9.132717,-1.113180,13.156850,-10.968552,-56.254330,0.101362,0.258737,0.000000,1.204096,-1.160050,-0.000000
3.300000,2.244849,0.493940,-1.670732,1.078159,-0.959798,-0.210402,-1.856876,0.864494,2.442220,8.999800,9.010414,-1.673104,10.609850,-13.497365,-55.781204,0.113289,0.246885,0.000000,1.179242,-1.194660,0.000000
3.310000,2.255538,0.484386,-1.672714,1.060040,-0.950702,-0.186064,-1.766346,0.953925,2.422698,9.093073,8.862769,-2.228804,8.000263,-16.022535,-55.109158,0.124936,0.234699,0.000000,1.147856,-1.222970,-0.000000
3.320000,2.266050,0.474926,-1.674453,1.042832,-0.940719,-0.161948,-1.675015,1.041750,2.397644,9.159805,8.689963,-2.775287,5.383356,-18.437372,-53.720113,0.136237,0.222243,0.000000,1.110252,-1.244568,0.000000
3.330000,2.276395,0.465571,-1.675952,1.026540,-0.929867,-0.138111,-1.583149,1.127724,2.367193,9.200740,8.494022,-3.303207,2.825105,-20.692787,-51.722620,0.147132,0.209585,0.000000,1.067182,-1.259244,0.000000
3.340000,2.286581,0.456329,-1.677215,1.011169,-0.918165,-0.114605,-1.491000,1.211630,2.331580,9.216307,8.276107,-3.809739,0.262134,-22.915738,-49.801893,0.157572,0.196793,0.000000,1.019271,-1.267062,0.000000
3.350000,2.296618,0.447208,-1.678245,0.996720,-0.905635,-0.091479,-1.398823,1.293246,2.290998,9.205983,8.035707,-4.299244,-2.349259,-25.195099,-48.142725,0.167511,0.183936,0.000000,0.966824,-1.268216,0.000000
3.360000,2.306515,0.438216,-1.679045,0.983192,-0.892300,-0.068785,-1.306881,1.372344,2.245595,9.169322,7.772205,-4.772594,-4.942624,-27.418026,-46.284162,0.176904,0.171078,0.000000,0.910212,-1.262857,0.000000
3.370000,2.316282,0.429362,-1.679620,0.970582,-0.878188,-0.046568,-1.215437,1.448690,2.195546,9.107130,7.487347,-5.224928,-7.384308,-29.322715,-43.808841,0.185712,0.158287,0.000000,0.850264,-1.251233,0.000000
3.380000,2.325927,0.420652,-1.679976,0.958884,-0.863326,-0.024874,-1.124738,1.522091,2.141097,9.021636,7.185751,-5.648771,-9.672035,-30.913615,-40.864484,0.193908,0.145624,0.000000,0.788251,-1.233810,-0.000000
3.390000,2.335459,0.412095,-1.680118,0.948088,-0.847746,-0.003746,-1.035004,1.592405,2.082571,8.913690,6.869074,-6.042217,-11.962411,-32.521899,-38.008725,0.201477,0.133147,0.000000,0.724921,-1.211065,0.000000
3.400000,2.344889,0.403698,-1.680051,0.938184,-0.831478,0.016778,-0.946464,1.659473,2.020252,8.782388,6.535313,-6.408945,-14.311812,-34.256745,-35.357188,0.208407,0.120909,0.000000,0.660391,-1.183365,0.000000
3.410000,2.354223,0.395466,-1.679782,0.929158,-0.814556,0.036659,-0.859356,1.723112,1.954392,8.627453,6.183940,-6.749361,-16.594852,-35.874132,-32.552905,0.214687,0.108961,0.000000,0.595004,-1.151097,-0.000000
3.420000,2.363472,0.387406,-1.679318,0.920997,-0.797016,0.055866,-0.773915,1.783151,1.885265,8.450490,5.817830,-7.060003,-18.641321,-37.088893,-29.368163,0.220311,0.097349,0.000000,0.529577,-1.114836,0.000000
3.430000,2.372643,0.379525,-1.678665,0.913680,-0.778893,0.074365,-0.690347,1.839468,1.813192,8.254627,5.442162,-7.336724,-20.466985,-37.956642,-25.936647,0.225283,0.086114,0.000000,0.465160,-1.075343,0.000000
3.440000,2.381745,0.371829,-1.677831,0.907190,-0.760227,0.092129,-0.608823,1.891995,1.738531,8.041151,5.058698,-7.578736,-22.279434,-38.837866,-22.575655,0.229619,0.075286,0.000000,0.402222,-1.033183,0.000000
3.450000,2.390787,0.364321,-1.676822,0.901504,-0.741054,0.109135,-0.529524,1.940642,1.661617,7.809038,4.665404,-7.788237,-24.167707,-39.835558,-19.331842,0.233333,0.064894,0.000000,0.340647,-0.988639,-0.000000
3.460000,2.399775,0.357007,-1.675648,0.896599,-0.721414,0.125362,-0.452642,1.985303,1.582766,7.557797,4.261986,-7.965373,-25.974552,-40.695354,-16.022117,0.236438,0.054962,0.000000,0.280535,-0.942007,-0.000000
3.470000,2.408719,0.349893,-1.674315,0.892451,-0.701347,0.140791,-0.378368,2.025882,1.502309,7.289547,3.851497,-8.108680,-27.447921,-41.153720,-12.595083,0.238950,0.045513,0.000000,0.222369,-0.893851,0.000000
3.480000,2.417624,0.342981,-1.672832,0.889032,-0.680896,0.155408,-0.306851,2.062333,1.420592,7.008838,3.438912,-8.217275,-28.620481,-41.278554,-9.145528,0.240891,0.036560,0.000000,0.166770,-0.844977,-0.000000
3.490000,2.426499,0.336275,-1.671207,0.886314,-0.660101,0.169203,-0.238191,2.094660,1.337964,6.717138,3.025926,-8.291590,-29.815393,-41.409073,-5.767546,0.242291,0.028108,0.000000,0.113883,-0.795784,0.000000
3.500000,2.435351,0.329779,-1.669448,0.884268,-0.639003,0.182167,-0.172508,2.122851,1.254760,6.412530,2.610731,-8.332626,-31.098301,-41.633089,-2.413989,0.243175,0.020161,0.000000,0.063414,-0.746250,-0.000000
3.510000,2.444185,0.323495,-1.667564,0.882864,-0.617644,0.194298,-0.109940,2.146875,1.171311,6.095172,2.193264,-8.339870,-32.242799,-41.719264,0.939551,0.243565,0.012726,0.000000,0.015291,-0.696552,-0.000000
3.520000,2.453008,0.317426,-1.665562,0.882069,-0.596065,0.205593,-0.050605,2.166716,1.087963,5.767674,1.776345,-8.313835,-33.098288,-41.457017,4.093522,0.243486,0.005802,0.000000,-0.030299,-0.647116,0.000000
3.530000,2.461826,0.311573,-1.663452,0.881852,-0.574309,0.216057,0.005413,2.182402,1.005035,5.433206,1.364124,-8.258000,-33.728457,-40.918875,6.990974,0.242964,-0.000615,0.000000,-0.073137,-0.598378,0.000000
3.540000,2.470645,0.305939,-1.661241,0.882177,-0.552417,0.225694,0.058059,2.193999,0.922803,5.093105,0.957968,-8.174015,-34.318359,-40.380739,9.871808,0.242027,-0.006533,0.000000,-0.113277,-0.550523,0.000000
3.550000,2.479470,0.300525,-1.658938,0.883013,-0.530430,0.234513,0.107275,2.201561,0.841554,4.746839,0.556509,-8.060563,-34.929848,-39.888081,12.869992,0.240702,-0.011961,0.000000,-0.150990,-0.503511,0.000000
3.560000,2.488305,0.295331,-1.656551,0.884323,-0.508386,0.242525,0.152996,2.205129,0.761592,4.394508,0.160206,-7.916615,-35.435042,-39.261457,15.783824,0.239011,-0.016907,0.000000,-0.186362,-0.457356,-0.000000
3.570000,2.497156,0.290357,-1.654087,0.886073,-0.486327,0.249745,0.195166,2.204765,0.683222,4.038138,-0.228720,-7.744887,-35.663641,-38.413992,18.222955,0.236978,-0.021381,0.000000,-0.219395,-0.412256,-0.000000
3.580000,2.506027,0.285604,-1.651556,0.888226,-0.464291,0.256190,0.233759,2.200555,0.606694,3.681235,-0.608074,-7.552156,-35.647425,-37.410251,20.200397,0.234625,-0.025394,0.000000,-0.250200,-0.368522,0.000000
3.590000,2.514921,0.281072,-1.648964,0.890748,-0.442316,0.261879,0.268790,2.192604,0.532179,3.325189,-0.976925,-7.340879,-35.613587,-36.366234,22.208927,0.231976,-0.028963,0.000000,-0.278894,-0.326219,0.000000
3.600000,2.523842,0.276758,-1.646318,0.893602,-0.420439,0.266833,0.300263,2.181016,0.459876,2.968964,-1.335398,-7.107978,-35.635049,-35.302713,24.450910,0.229049,-0.032102,0.000000,-0.305565,-0.285170,0.000000
3.610000,2.532793,0.272663,-1.643627,0.896753,-0.398696,0.271076,0.328170,2.165896,0.390019,2.612488,-1.682979,-6.851861,-35.558568,-34.152490,26.560894,0.225865,-0.034824,0.000000,-0.330269,-0.245297,0.000000
3.620000,2.541777,0.268784,-1.640897,0.900165,-0.377121,0.274634,0.352513,2.147357,0.322839,2.257792,-2.018448,-6.576760,-35.214865,-32.878199,27.995724,0.222444,-0.037140,0.000000,-0.353123,-0.206711,0.000000
3.630000,2.550796,0.265120,-1.638134,0.903803,-0.355748,0.277533,0.373325,2.125527,0.258484,1.908191,-2.340543,-6.291946,-34.654390,-31.510213,28.833833,0.218803,-0.039066,0.000000,-0.374337,-0.169623,0.000000
3.640000,2.559853,0.261669,-1.635346,0.907632,-0.334610,0.279803,0.390676,2.100546,0.197000,1.564705,-2.648652,-6.000083,-34.105122,-30.109149,29.777835,0.214958,-0.040618,0.000000,-0.394010,-0.134020,0.000000
3.650000,2.568949,0.258428,-1.632538,0.911617,-0.313737,0.281473,0.404619,2.072554,0.138483,1.226089,-2.942726,-5.696390,-33.596667,-28.685588,31.011453,0.210923,-0.041812,0.000000,-0.412128,-0.099694,-0.000000
3.660000,2.578085,0.255394,-1.629716,0.915724,-0.293159,0.282573,0.415198,2.041691,0.083072,0.892771,-3.222364,-5.379854,-32.983757,-27.210869,32.045214,0.206714,-0.042660,0.000000,-0.428724,-0.066602,0.000000
3.670000,2.587263,0.252565,-1.626887,0.919921,-0.272904,0.283135,0.422475,2.008106,0.030885,0.566413,-3.486943,-5.055485,-32.228611,-25.683593,32.442165,0.202347,-0.043175,0.000000,-0.443927,-0.034796,-0.000000
3.680000,2.596484,0.249936,-1.624054,0.924174,-0.252997,0.283191,0.426526,1.971952,-0.018037,0.248199,-3.736036,-4.731011,-31.392547,-24.127622,32.344322,0.197835,-0.043372,0.000000,-0.457916,-0.004270,-0.000000
3.690000,2.605747,0.247505,-1.621223,0.928451,-0.233465,0.282774,0.427439,1.933386,-0.063735,-0.061437,-3.969496,-4.408599,-30.526020,-22.557445,32.313174,0.193188,-0.043263,0.000000,-0.470765,0.025029,0.000000
3.700000,2.615053,0.245267,-1.618398,0.932723,-0.214329,0.281916,0.425298,1.892562,-0.106209,-0.362321,-4.187185,-4.084747,-29.598941,-20.945914,32.476418,0.188418,-0.042863,0.000000,-0.482432,0.053148,-0.000000
3.710000,2.624401,0.243218,-1.615585,0.936957,-0.195613,0.280650,0.420192,1.849642,-0.145430,-0.653416,-4.388414,-3.759071,-28.591826,-19.298346,32.457752,0.183538,-0.042182,0.000000,-0.492883,0.080059,-0.000000
3.720000,2.633792,0.241355,-1.612785,0.941126,-0.177337,0.279007,0.412229,1.804794,-0.181391,-0.934158,-4.573152,-3.435592,-27.603863,-17.717936,31.959186,0.178559,-0.041235,0.000000,-0.502220,0.105791,0.000000
3.730000,2.643224,0.239672,-1.610004,0.945202,-0.159517,0.277022,0.401509,1.758179,-0.214142,-1.205494,-4.742773,-3.119887,-26.654246,-16.220355,31.103212,0.173492,-0.040033,0.000000,-0.510686,0.130524,0.000000
3.740000,2.652696,0.238164,-1.607245,0.949157,-0.142173,0.274725,0.388119,1.709939,-0.243788,-1.467243,-4.897559,-2.813528,-25.617301,-14.677974,30.282953,0.168344,-0.038585,0.000000,-0.518336,0.154297,-0.000000
3.750000,2.662207,0.236828,-1.604510,0.952964,-0.125319,0.272146,0.372164,1.660228,-0.270412,-1.717840,-5.036332,-2.514228,-24.475568,-13.048789,29.571594,0.163124,-0.036903,0.000000,-0.525014,0.176996,0.000000
3.760000,2.671755,0.235658,-1.601802,0.956600,-0.108968,0.269316,0.353763,1.609212,-0.294073,-1.956754,-5.158535,-2.222096,-23.324009,-11.432402,28.718571,0.157842,-0.034998,0.000000,-0.530667,0.198613,0.000000
3.770000,2.681339,0.234649,-1.599124,0.960040,-0.093134,0.266265,0.333029,1.557057,-0.314854,-2.184320,-5.264980,-1.939856,-22.200526,-9.943714,27.580476,0.152509,-0.032880,0.000000,-0.535403,0.219226,-0.000000
3.780000,2.690956,0.233795,-1.596477,0.963261,-0.077827,0.263019,0.310076,1.503912,-0.332870,-2.400765,-5.357409,-1.670487,-21.085029,-8.564395,26.257330,0.147133,-0.030561,0.000000,-0.539414,0.238895,0.000000
3.790000,2.700604,0.233092,-1.593863,0.966241,-0.063056,0.259607,0.285014,1.449909,-0.348264,-2.606020,-5.436268,-1.414710,-19.943174,-7.155634,24.947475,0.141719,-0.028050,0.000000,-0.542727,0.257635,-0.000000
3.800000,2.710281,0.232534,-1.591285,0.968961,-0.048829,0.256054,0.257956,1.395187,-0.361164,-2.799628,-5.500522,-1.171537,-18.738509,-5.673083,23.639088,0.136277,-0.025356,0.000000,-0.545198,0.275417,-0.000000
3.810000,2.719983,0.232116,-1.588742,0.971400,-0.035152,0.252384,0.229021,1.339898,-0.371695,-2.980790,-5.549730,-0.941928,-17.503715,-4.220176,22.223122,0.130814,-0.022490,0.000000,-0.546767,0.292174,-0.000000
3.820000,2.729709,0.231831,-1.586237,0.973541,-0.022031,0.248620,0.198340,1.284192,-0.380003,-3.149702,-5.584925,-0.727075,-16.364881,-2.923126,20.785844,0.125340,-0.019462,0.000000,-0.547512,0.307934,-0.000000
3.830000,2.739454,0.231675,-1.583770,0.975367,-0.009469,0.244784,0.166027,1.228200,-0.386236,-3.308088,-5.608192,-0.526211,-15.324894,-1.760006,19.392652,0.119863,-0.016282,0.000000,-0.547588,0.322863,0.000000
3.840000,2.749216,0.231642,-1.581341,0.976862,0.002533,0.240895,0.132178,1.172029,-0.390527,-3.456200,-5.620125,-0.339222,-14.219838,-0.572642,17.940023,0.114388,-0.012957,0.000000,-0.547013,0.336983,-0.000000
3.850000,2.758991,0.231726,-1.578952,0.978011,0.013972,0.236973,0.096903,1.115797,-0.393020,-3.592485,-5.619645,-0.167411,-13.002941,0.683897,16.361556,0.108922,-0.009497,0.000000,-0.545661,0.350137,-0.000000
3.860000,2.768776,0.231921,-1.576602,0.978800,0.024849,0.233035,0.060329,1.059636,-0.393875,-3.716259,-5.606447,-0.011991,-11.792410,1.896539,14.753299,0.103474,-0.005912,0.000000,-0.543471,0.362247,-0.000000
3.870000,2.778567,0.232223,-1.574291,0.979217,0.035165,0.229096,0.022578,1.003668,-0.393260,-3.828333,-5.581715,0.127655,-10.700277,2.948223,13.309786,0.098052,-0.002213,0.000000,-0.540508,0.373375,-0.000000
3.880000,2.788361,0.232625,-1.572020,0.979251,0.044922,0.225170,-0.016238,0.948001,-0.391322,-3.930265,-5.547483,0.254205,-9.689402,3.871310,12.028552,0.092663,0.001592,0.000000,-0.536904,0.383656,0.000000
3.890000,2.798152,0.233121,-1.569788,0.978892,0.054125,0.221269,-0.056027,0.892719,-0.388176,-4.022121,-5.504288,0.368226,-8.620865,4.813756,10.671362,0.087313,0.005494,0.000000,-0.532672,0.393079,-0.000000
3.900000,2.807938,0.233707,-1.567594,0.978131,0.062777,0.217406,-0.096680,0.837916,-0.383958,-4.102682,-5.451208,0.467632,-7.504909,5.789842,9.152674,0.082009,0.009484,0.000000,-0.527703,0.401507,-0.000000
3.910000,2.817715,0.234377,-1.565440,0.976959,0.070883,0.213590,-0.138081,0.783695,-0.378823,-4.172219,-5.388491,0.551280,-6.434594,6.699087,7.654172,0.076759,0.013551,0.000000,-0.521993,0.408940,0.000000
3.920000,2.827478,0.235125,-1.563323,0.975369,0.078450,0.209830,-0.180125,0.730146,-0.372932,-4.231374,-5.317226,0.620716,-5.369026,7.515696,6.414772,0.071569,0.017687,0.000000,-0.515597,0.415418,-0.000000
3.930000,2.837222,0.235946,-1.561243,0.973356,0.085486,0.206132,-0.222708,0.677350,-0.366409,-4.279600,-5.238178,0.679575,-4.275670,8.273452,5.397933,0.066447,0.021881,0.000000,-0.508533,0.420870,-0.000000
3.940000,2.846945,0.236834,-1.559200,0.970915,0.091997,0.202502,-0.265717,0.625382,-0.359341,-4.316887,-5.151757,0.728675,-3.221267,8.998602,4.305339,0.061399,0.026123,0.000000,-0.500811,0.425279,0.000000
3.950000,2.856641,0.237786,-1.557193,0.968042,0.097994,0.198945,-0.309046,0.574315,-0.351836,-4.344025,-5.058205,0.765682,-2.214369,9.690753,3.060085,0.056431,0.030403,0.000000,-0.492445,0.428695,0.000000
3.960000,2.866306,0.238794,-1.555221,0.964734,0.103484,0.195465,-0.352597,0.524218,-0.344027,-4.361175,-4.957942,0.789876,-1.210418,10.333517,1.876587,0.051550,0.034711,0.000000,-0.483452,0.431109,-0.000000
3.970000,2.875935,0.239855,-1.553284,0.960990,0.108478,0.192064,-0.396269,0.475156,-0.336038,-4.368234,-4.851535,0.803214,-0.216166,10.920504,0.954804,0.046762,0.039037,0.000000,-0.473855,0.432494,0.000000
3.980000,2.885525,0.240964,-1.551380,0.956809,0.112987,0.188744,-0.439962,0.427187,-0.327963,-4.365498,-4.739532,0.808972,0.751818,11.456305,0.238885,0.042073,0.043370,0.000000,-0.463674,0.432873,-0.000000
3.990000,2.895071,0.242115,-1.549509,0.952191,0.117022,0.185505,-0.483579,0.380366,-0.319859,-4.353197,-4.622409,0.807991,1.704199,11.949255,-0.520318,0.037489,0.047702,0.000000,-0.452942,0.432257,0.000000
4.000000,2.904569,0.243304,-1.547670,0.947137,0.120594,0.182347,-0.527026,0.334739,-0.311803,-4.331414,-4.500547,0.798566,2.636927,12.408554,-1.382652,0.033014,0.052021,0.000000,-0.441691,0.430634,0.000000
4.010000,2.914014,0.244527,-1.545862,0.941650,0.123716,0.179269,-0.570208,0.290355,-0.303887,-4.300459,-4.374238,0.780338,3.540782,12.828677,-2.174093,0.028655,0.056319,0.000000,-0.429940,0.428016,-0.000000
4.020000,2.923402,0.245779,-1.544084,0.935733,0.126401,0.176269,-0.613035,0.247255,-0.296196,-4.260598,-4.243973,0.755084,4.432116,13.183970,-2.739948,0.024416,0.060585,0.000000,-0.417722,0.424426,0.000000
4.030000,2.932729,0.247055,-1.542336,0.929390,0.128662,0.173345,-0.655420,0.205475,-0.288786,-4.211816,-4.110559,0.725539,5.312784,13.475221,-3.129573,0.020301,0.064810,0.000000,-0.405108,0.419869,-0.000000
4.040000,2.941990,0.248352,-1.540617,0.922625,0.130511,0.170493,-0.697271,0.165043,-0.281685,-4.154343,-3.974469,0.692493,6.156778,13.738718,-3.539604,0.016314,0.068984,0.000000,-0.392142,0.414368,0.000000
4.050000,2.951181,0.249665,-1.538927,0.915444,0.131962,0.167711,-0.738506,0.125986,-0.274936,-4.088681,-3.835784,0.654747,6.963524,13.984509,-4.013576,0.012458,0.073098,0.000000,-0.378837,0.407959,0.000000
4.060000,2.960299,0.250991,-1.537263,0.907855,0.133030,0.164995,-0.779045,0.088328,-0.268590,-4.015072,-3.694779,0.612221,7.748321,14.188739,-4.418235,0.008738,0.077144,0.000000,-0.365218,0.400662,-0.000000
4.070000,2.969338,0.252326,-1.535627,0.899863,0.133729,0.162339,-0.818808,0.052090,-0.262691,-3.933714,-3.552009,0.566383,8.501077,14.332254,-4.649174,0.005154,0.081112,0.000000,-0.351343,0.392505,0.000000
4.080000,2.978296,0.253666,-1.534016,0.891478,0.134072,0.159741,-0.857719,0.017287,-0.257263,-3.845051,-3.408134,0.519238,9.212903,14.423028,-4.748852,0.001711,0.084994,0.000000,-0.337281,0.383546,-0.000000
4.090000,2.987168,0.255007,-1.532432,0.882709,0.134075,0.157194,-0.895709,-0.016073,-0.252307,-3.749456,-3.263549,0.471406,9.896476,14.487548,-4.852729,-0.001591,0.088782,0.000000,-0.323077,0.373832,-0.000000
4.100000,2.995950,0.256347,-1.530873,0.873564,0.133751,0.154695,-0.932709,-0.047983,-0.247835,-3.647121,-3.118383,0.422183,10.563123,14.534192,-4.983682,-0.004750,0.092470,0.000000,-0.308753,0.363378,0.000000
4.110000,3.004639,0.257682,-1.529338,0.864055,0.133115,0.152238,-0.968651,-0.078440,-0.243863,-3.538194,-2.972865,0.371732,11.201129,14.546584,-5.054094,-0.007766,0.096050,0.000000,-0.294337,0.352206,-0.000000
4.120000,3.013231,0.259009,-1.527828,0.854191,0.132182,0.149817,-1.003472,-0.107441,-0.240400,-3.423099,-2.827451,0.321101,11.778383,14.506874,-5.017755,-0.010637,0.099514,0.000000,-0.279882,0.340371,0.000000
4.130000,3.021723,0.260326,-1.526342,0.843985,0.130966,0.147430,-1.037113,-0.134989,-0.237441,-3.302626,-2.682728,0.271377,12.294833,14.421310,-4.907318,-0.013363,0.102857,0.000000,-0.265456,0.327967,0.000000
4.140000,3.030111,0.261629,-1.524879,0.833449,0.129482,0.145069,-1.069525,-0.161095,-0.234972,-3.177202,-2.539025,0.222955,12.791591,14.315900,-4.784871,-0.015946,0.106074,0.000000,-0.251100,0.315049,0.000000
4.150000,3.038392,0.262916,-1.523440,0.822595,0.127744,0.142730,-1.100657,-0.185770,-0.232982,-3.046794,-2.396410,0.175680,13.282797,14.196354,-4.654019,-0.018385,0.109159,0.000000,-0.236829,0.301618,0.000000
4.160000,3.046563,0.264184,-1.522025,0.811436,0.125767,0.140409,-1.130461,-0.209024,-0.231459,-2.911546,-2.255098,0.129874,13.738384,14.047298,-4.479252,-0.020682,0.112107,0.000000,-0.222671,0.287700,0.000000
4.170000,3.054621,0.265431,-1.520632,0.799985,0.123564,0.138101,-1.158888,-0.230872,-0.230384,-2.772027,-2.115464,0.086094,14.122081,13.860619,-4.263299,-0.022839,0.114914,0.000000,-0.208672,0.273363,0.000000
4.180000,3.062563,0.266655,-1.519263,0.788258,0.121149,0.135801,-1.185901,-0.251333,-0.229737,-2.629104,-1.977885,0.044608,14.440732,13.643219,-4.024353,-0.024856,0.117576,0.000000,-0.194876,0.258704,0.000000
4.190000,3.070386,0.267854,-1.517916,0.776267,0.118537,0.133506,-1.211470,-0.270429,-0.229492,-2.483212,-1.842599,0.005607,14.740724,13.408270,-3.762815,-0.026736,0.120090,0.000000,-0.181312,0.243774,0.000000
4.200000,3.078088,0.269026,-1.516592,0.764029,0.115741,0.131211,-1.235566,-0.288185,-0.229625,-2.334290,-1.709720,-0.030648,15.036490,13.158290,-3.470494,-0.028482,0.122453,0.000000,-0.167997,0.228576,0.000000
4.210000,3.085667,0.270169,-1.515292,0.751556,0.112774,0.128914,-1.258156,-0.304624,-0.230105,-2.182482,-1.579433,-0.063802,15.295547,12.887099,-3.154080,-0.030096,0.124663,0.000000,-0.154955,0.213135,-0.000000
4.220000,3.093119,0.271281,-1.514014,0.738865,0.109648,0.126609,-1.279215,-0.319773,-0.230901,-2.028379,-1.451978,-0.093729,15.481345,12.593746,-2.844463,-0.031581,0.126718,0.000000,-0.142215,0.197516,-0.000000
4.230000,3.100444,0.272362,-1.512760,0.725972,0.106378,0.124296,-1.298724,-0.333663,-0.231980,-1.872855,-1.327559,-0.120692,15.602494,12.283062,-2.546885,-0.032940,0.128616,0.000000,-0.129797,0.181807,-0.000000
4.240000,3.107639,0.273409,-1.511528,0.712891,0.102975,0.121970,-1.316672,-0.346325,-0.233315,-1.716329,-1.206317,-0.144667,15.706835,11.959278,-2.226302,-0.034177,0.130356,0.000000,-0.117718,0.166052,0.000000
4.250000,3.114702,0.274421,-1.510320,0.699638,0.099452,0.119629,-1.333050,-0.357790,-0.234873,-1.558719,-1.088373,-0.165218,15.807716,11.619275,-1.866421,-0.035295,0.131939,0.000000,-0.105992,0.150251,0.000000
4.260000,3.121631,0.275398,-1.509136,0.686230,0.095819,0.117272,-1.347847,-0.368092,-0.236619,-1.400175,-0.973931,-0.181996,15.872801,11.263347,-1.497375,-0.036297,0.133363,0.000000,-0.094642,0.134428,0.000000
4.270000,3.128426,0.276338,-1.507975,0.672681,0.092090,0.114897,-1.361054,-0.377268,-0.238513,-1.241263,-0.863106,-0.195165,15.870814,10.906267,-1.170177,-0.037188,0.134629,0.000000,-0.083680,0.118636,-0.000000
4.280000,3.135085,0.277240,-1.506838,0.659009,0.088274,0.112502,-1.372672,-0.385354,-0.240522,-1.082758,-0.755806,-0.205399,15.811938,10.550967,-0.882072,-0.037971,0.135737,0.000000,-0.073093,0.102944,-0.000000
4.290000,3.141606,0.278103,-1.505725,0.645228,0.084383,0.110087,-1.382709,-0.392384,-0.242621,-0.925024,-0.652087,-0.212807,15.737857,10.180540,-0.571139,-0.038650,0.136689,0.000000,-0.062885,0.087387,0.000000
4.300000,3.147990,0.278927,-1.504636,0.631355,0.080426,0.107650,-1.391172,-0.398396,-0.244778,-0.768001,-0.552195,-0.216822,15.656651,9.791380,-0.218251,-0.039229,0.137486,0.000000,-0.053081,0.071964,-0.000000
4.310000,3.154234,0.279712,-1.503572,0.617405,0.076415,0.105191,-1.398069,-0.403428,-0.246957,-0.611891,-0.456259,-0.217172,15.541417,9.397691,0.129606,-0.039711,0.138130,0.000000,-0.043695,0.056699,0.000000
4.320000,3.160338,0.280455,-1.502532,0.603393,0.072358,0.102710,-1.403410,-0.407521,-0.249122,-0.457173,-0.364241,-0.214230,15.376659,9.011315,0.418535,-0.040102,0.138621,0.000000,-0.034719,0.041633,-0.000000
4.330000,3.166301,0.281159,-1.501518,0.589336,0.068264,0.100209,-1.407213,-0.410713,-0.251242,-0.304358,-0.276033,-0.208801,15.172306,8.630302,0.658225,-0.040406,0.138963,0.000000,-0.026137,0.026801,0.000000
4.340000,3.172124,0.281821,-1.500528,0.575249,0.064143,0.097686,-1.409497,-0.413042,-0.253298,-0.153727,-0.191635,-0.201065,14.949619,8.242546,0.914786,-0.040625,0.139158,0.000000,-0.017947,0.012227,0.000000
4.350000,3.177806,0.282442,-1.499564,0.561146,0.060003,0.095143,-1.410287,-0.414546,-0.255263,-0.005365,-0.111182,-0.190505,14.711904,7.842904,1.206671,-0.040765,0.139208,0.000000,-0.010162,-0.002076,0.000000
4.360000,3.183347,0.283021,-1.498625,0.547043,0.055852,0.092580,-1.409605,-0.415265,-0.257108,0.140511,-0.034777,-0.176932,14.446882,7.442031,1.485735,-0.040829,0.139116,0.000000,-0.002791,-0.016089,0.000000
4.370000,3.188747,0.283559,-1.497712,0.532954,0.051698,0.090000,-1.407477,-0.415241,-0.258802,0.283572,0.037659,-0.160791,14.150065,7.058588,1.701497,-0.040821,0.138886,0.000000,0.004179,-0.029788,-0.000000
4.380000,3.194006,0.284055,-1.496825,0.518894,0.047548,0.087404,-1.403933,-0.414512,-0.260324,0.423513,0.106395,-0.142902,13.827285,6.692164,1.865683,-0.040745,0.138520,0.000000,0.010779,-0.043158,0.000000
4.390000,3.199125,0.284510,-1.495964,0.504876,0.043408,0.084794,-1.399007,-0.413113,-0.261660,0.560118,0.171502,-0.123477,13.486385,6.320362,2.041342,-0.040605,0.138022,0.000000,0.017019,-0.056185,-0.000000
4.400000,3.204104,0.284923,-1.495129,0.490914,0.039285,0.082171,-1.392731,-0.411082,-0.262793,0.693240,0.232802,-0.102075,13.127789,5.934463,2.244024,-0.040405,0.137395,0.000000,0.022881,-0.068851,0.000000
4.410000,3.208943,0.285295,-1.494321,0.477021,0.035186,0.079538,-1.385142,-0.408457,-0.263702,0.822674,0.290191,-0.078596,12.748539,5.551893,2.429275,-0.040147,0.136644,0.000000,0.028357,-0.081138,-0.000000
4.420000,3.213644,0.285627,-1.493539,0.463211,0.031116,0.076897,-1.376277,-0.405278,-0.264365,0.948211,0.343840,-0.053490,12.351995,5.197881,2.557006,-0.039837,0.135771,0.000000,0.033468,-0.093035,-0.000000
4.430000,3.218208,0.285918,-1.492783,0.449495,0.027081,0.074251,-1.366178,-0.401581,-0.264771,1.069714,0.394149,-0.027456,11.941514,4.868999,2.639730,-0.039478,0.134782,0.000000,0.038255,-0.104542,0.000000
4.440000,3.222634,0.286168,-1.492053,0.435887,0.023085,0.071602,-1.354883,-0.397395,-0.264914,1.187041,0.441220,-0.000695,11.514974,4.533829,2.728010,-0.039072,0.133679,0.000000,0.042732,-0.115649,0.000000
4.450000,3.226925,0.286379,-1.491351,0.422398,0.019133,0.068952,-1.342437,-0.392756,-0.264785,1.300013,0.484825,0.027104,11.069505,4.186314,2.831756,-0.038623,0.132467,0.000000,0.046876,-0.126339,-0.000000
4.460000,3.231082,0.286551,-1.490674,0.409039,0.015230,0.066306,-1.328883,-0.387699,-0.264372,1.408431,0.524946,0.055940,10.609047,3.849039,2.916491,-0.038135,0.131150,0.000000,0.050686,-0.136593,-0.000000
4.470000,3.235106,0.286684,-1.490025,0.395820,0.011379,0.063665,-1.314268,-0.382257,-0.263666,1.512194,0.561806,0.085434,10.145383,3.537216,2.958458,-0.037610,0.129733,0.000000,0.054186,-0.146410,0.000000
4.480000,3.238999,0.286779,-1.489401,0.382753,0.007584,0.061033,-1.298639,-0.376463,-0.262664,1.611339,0.595690,0.115109,9.679613,3.244976,2.968473,-0.037051,0.128220,0.000000,0.057406,-0.155800,0.000000
4.490000,3.242761,0.286836,-1.488804,0.369847,0.003850,0.058412,-1.282041,-0.370344,-0.261364,1.705786,0.626706,0.144803,9.198529,2.954369,2.976659,-0.036461,0.126615,0.000000,0.060358,-0.164759,0.000000
4.500000,3.246396,0.286856,-1.488233,0.357112,0.000177,0.055805,-1.264523,-0.363929,-0.259768,1.795310,0.654778,0.174643,8.698458,2.659341,2.988512,-0.035844,0.124922,0.000000,0.063034,-0.173264,0.000000
4.510000,3.249903,0.286839,-1.487688,0.344557,-0.003429,0.053216,-1.246135,-0.357248,-0.257871,1.879756,0.679893,0.204573,8.190497,2.372892,2.984309,-0.035201,0.123147,0.000000,0.065432,-0.181302,-0.000000
4.520000,3.253287,0.286787,-1.487169,0.332190,-0.006967,0.050648,-1.226928,-0.350331,-0.255676,1.959119,0.702236,0.234329,7.686903,2.112996,2.951424,-0.034535,0.121294,0.000000,0.067572,-0.188875,0.000000
4.530000,3.256547,0.286700,-1.486675,0.320018,-0.010436,0.048103,-1.206953,-0.343203,-0.253185,2.033494,0.722153,0.263602,7.186183,1.876630,2.896760,-0.033849,0.119367,0.000000,0.069488,-0.195997,-0.000000
4.540000,3.259687,0.286578,-1.486207,0.308051,-0.013832,0.045584,-1.186258,-0.335888,-0.250404,2.102843,0.739768,0.292264,6.674666,1.640635,2.837115,-0.033145,0.117372,0.000000,0.071192,-0.202666,-0.000000
4.550000,3.262708,0.286423,-1.485763,0.296293,-0.017153,0.043095,-1.164896,-0.328408,-0.247340,2.166987,0.754965,0.320344,6.148494,1.399833,2.774798,-0.032425,0.115312,0.000000,0.072673,-0.208861,-0.000000
4.560000,3.265613,0.286235,-1.485345,0.284753,-0.020400,0.040637,-1.142919,-0.320788,-0.243997,2.225813,0.767765,0.347760,5.618745,1.170269,2.699592,-0.031692,0.113192,0.000000,0.073931,-0.214572,-0.000000
4.570000,3.268403,0.286015,-1.484950,0.273435,-0.023569,0.038215,-1.120380,-0.313053,-0.240384,2.279362,0.778371,0.374336,5.098328,0.963916,2.608017,-0.030947,0.111018,0.000000,0.074986,-0.219803,-0.000000
4.580000,3.271082,0.285764,-1.484580,0.262345,-0.026661,0.035830,-1.097331,-0.305221,-0.236510,2.327780,0.787043,0.399920,4.585452,0.776059,2.504601,-0.030192,0.108794,0.000000,0.075864,-0.224570,0.000000
4.590000,3.273650,0.285482,-1.484234,0.251488,-0.029674,0.033485,-1.073824,-0.297312,-0.232386,2.371071,0.793892,0.424428,4.065177,0.591539,2.394683,-0.029429,0.106524,0.000000,0.076575,-0.228870,0.000000
4.600000,3.276111,0.285170,-1.483911,0.240869,-0.032607,0.031182,-1.049910,-0.289343,-0.228022,2.409083,0.798874,0.447814,3.533804,0.406332,2.277293,-0.028660,0.104214,0.000000,0.077113,-0.232688,-0.000000
4.610000,3.278468,0.284830,-1.483610,0.230490,-0.035460,0.028924,-1.025642,-0.281334,-0.223430,2.441747,0.802018,0.469974,3.002907,0.230616,2.150251,-0.027887,0.101869,0.000000,0.077480,-0.236014,-0.000000
4.620000,3.280721,0.284461,-1.483332,0.220356,-0.038234,0.026713,-1.001075,-0.273303,-0.218622,2.469141,0.803486,0.490819,2.484026,0.074505,2.018646,-0.027111,0.099492,0.000000,0.077692,-0.238855,-0.000000
4.630000,3.282875,0.284065,-1.483076,0.210469,-0.040926,0.024552,-0.976260,-0.265265,-0.213613,2.491428,0.803509,0.510347,1.974830,-0.065061,1.884738,-0.026333,0.097090,0.000000,0.077770,-0.241224,-0.000000
4.640000,3.284931,0.283643,-1.482841,0.200831,-0.043539,0.022441,-0.951246,-0.257233,-0.208415,2.508638,0.802185,0.528514,1.461890,-0.201623,1.742800,-0.025555,0.094666,0.000000,0.077723,-0.243122,-0.000000
4.650000,3.286891,0.283194,-1.482627,0.191444,-0.046071,0.020383,-0.926087,-0.249221,-0.203043,2.520665,0.799476,0.545203,0.942158,-0.338855,1.589806,-0.024779,0.092226,0.000000,0.077546,-0.244535,0.000000
4.660000,3.288759,0.282721,-1.482433,0.182309,-0.048523,0.018380,-0.900833,-0.241243,-0.197511,2.527481,0.795408,0.560310,0.425844,-0.467945,1.431025,-0.024005,0.089774,0.000000,0.077242,-0.245458,-0.000000
4.670000,3.290537,0.282224,-1.482260,0.173427,-0.050896,0.016433,-0.875537,-0.233313,-0.191837,2.529182,0.790117,0.573823,-0.077660,-0.580838,1.275979,-0.023234,0.087315,0.000000,0.076821,-0.245898,0.000000
4.680000,3.292228,0.281703,-1.482105,0.164798,-0.053190,0.014544,-0.850249,-0.225441,-0.186035,2.525928,0.783791,0.585829,-0.570616,-0.680377,1.124337,-0.022468,0.084854,0.000000,0.076302,-0.245867,-0.000000
4.690000,3.293833,0.281160,-1.481969,0.156422,-0.055405,0.012713,-0.825019,-0.217637,-0.180120,2.517770,0.776510,0.596310,-1.063942,-0.777755,0.964748,-0.021708,0.082396,0.000000,0.075692,-0.245365,-0.000000
4.700000,3.295356,0.280595,-1.481851,0.148298,-0.057542,0.010941,-0.799894,-0.209911,-0.174109,2.504649,0.768236,0.605124,-1.560060,-0.876771,0.794183,-0.020954,0.079946,0.000000,0.074987,-0.244385,0.000000
4.710000,3.296799,0.280009,-1.481750,0.140424,-0.059603,0.009230,-0.774926,-0.202272,-0.168018,2.486569,0.758974,0.612194,-2.050785,-0.970414,0.621401,-0.020208,0.077508,0.000000,0.074185,-0.242925,-0.000000
4.720000,3.298165,0.279403,-1.481666,0.132799,-0.061588,0.007581,-0.750163,-0.194731,-0.161865,2.463633,0.748828,0.617552,-2.528568,-1.050439,0.455275,-0.019471,0.075086,0.000000,0.073296,-0.240990,0.000000
4.730000,3.299455,0.278777,-1.481598,0.125421,-0.063498,0.005993,-0.725653,-0.187296,-0.155667,2.435997,0.737965,0.621299,-2.995215,-1.119043,0.294198,-0.018742,0.072687,0.000000,0.072336,-0.238592,-0.000000
4.740000,3.300673,0.278133,-1.481546,0.118286,-0.065334,0.004467,-0.701443,-0.179972,-0.149439,2.403729,0.726447,0.623436,-3.459626,-1.188214,0.127676,-0.018024,0.070314,0.000000,0.071309,-0.235735,-0.000000
4.750000,3.301821,0.277471,-1.481509,0.111392,-0.067097,0.003004,-0.677578,-0.172767,-0.143198,2.366805,0.714201,0.623853,-3.923882,-1.263437,-0.048232,-0.017316,0.067972,0.000000,0.070210,-0.232414,0.000000
4.760000,3.302901,0.276791,-1.481486,0.104735,-0.068789,0.001604,-0.654107,-0.165688,-0.136962,2.325251,0.701178,0.622472,-4.381344,-1.337268,-0.225546,-0.016620,0.065665,0.000000,0.069031,-0.228629,0.000000
4.770000,3.303916,0.276095,-1.481477,0.098310,-0.070411,0.000265,-0.631073,-0.158743,-0.130749,2.279178,0.687456,0.619342,-4.825821,-1.397481,-0.392593,-0.015935,0.063398,0.000000,0.067779,-0.224388,-0.000000
4.780000,3.304867,0.275383,-1.481481,0.092113,-0.071964,-0.001011,-0.608523,-0.151939,-0.124575,2.228735,0.673229,0.614620,-5.258797,-1.445789,-0.550850,-0.015264,0.061177,0.000000,0.066474,-0.219702,-0.000000
4.790000,3.305758,0.274656,-1.481497,0.086139,-0.073450,-0.002226,-0.586499,-0.145279,-0.118456,2.174002,0.658540,0.608325,-5.687661,-1.500184,-0.715047,-0.014606,0.059004,0.000000,0.065119,-0.214576,0.000000
4.800000,3.306590,0.273914,-1.481525,0.080383,-0.074869,-0.003381,-0.565043,-0.138768,-0.112408,2.114982,0.643225,0.600319,-6.114573,-1.572027,-0.889308,-0.013962,0.056885,0.000000,0.063697,-0.209009,-0.000000
4.810000,3.307366,0.273158,-1.481565,0.074838,-0.076225,-0.004475,-0.544199,-0.132414,-0.106450,2.051711,0.627099,0.590539,-6.534073,-1.649737,-1.063113,-0.013332,0.054823,0.000000,0.062190,-0.203002,0.000000
4.820000,3.308087,0.272389,-1.481615,0.069499,-0.077518,-0.005510,-0.524009,-0.126226,-0.100598,1.984300,0.610230,0.579057,-6.939915,-1.706206,-1.226014,-0.012718,0.052824,0.000000,0.060602,-0.196565,0.000000
4.830000,3.308756,0.271608,-1.481675,0.064358,-0.078750,-0.006487,-0.504513,-0.120209,-0.094869,1.912912,0.592975,0.566018,-7.333578,-1.745680,-1.381101,-0.012120,0.050892,0.000000,0.058971,-0.189712,-0.000000
4.840000,3.309374,0.270814,-1.481744,0.059409,-0.079922,-0.007407,-0.485751,-0.114366,-0.089277,1.837629,0.575317,0.551435,-7.722779,-1.806603,-1.541436,-0.011539,0.049030,0.000000,0.057293,-0.182448,0.000000
4.850000,3.309944,0.270010,-1.481823,0.054643,-0.081037,-0.008272,-0.467760,-0.108703,-0.083840,1.758457,0.556843,0.535190,-8.107864,-1.893091,-1.707701,-0.010974,0.047243,0.000000,0.055528,-0.174774,-0.000000
4.860000,3.310467,0.269194,-1.481910,0.050054,-0.082096,-0.009084,-0.450581,-0.103229,-0.078574,1.675471,0.537455,0.517281,-8.483482,-1.981098,-1.871066,-0.010428,0.045534,0.000000,0.053664,-0.166696,-0.000000
4.870000,3.310945,0.268368,-1.482005,0.045632,-0.083101,-0.009844,-0.434251,-0.097954,-0.073494,1.588787,0.517221,0.497768,-8.849102,-2.069736,-2.030768,-0.009901,0.043909,0.000000,0.051709,-0.158226,-0.000000
4.880000,3.311380,0.267532,-1.482107,0.041369,-0.084055,-0.010554,-0.418806,-0.092885,-0.068618,1.498489,0.496060,0.476665,-9.206445,-2.169005,-2.189826,-0.009394,0.042370,0.000000,0.049653,-0.149369,-0.000000
4.890000,3.311772,0.266687,-1.482216,0.037256,-0.084959,-0.011216,-0.404281,-0.088033,-0.063961,1.404658,0.473841,0.453972,-9.555531,-2.280736,-2.348414,-0.008908,0.040921,0.000000,0.047484,-0.140136,0.000000
4.900000,3.312125,0.265833,-1.482331,0.033283,-0.085816,-0.011833,-0.390713,-0.083408,-0.059539,1.307379,0.450445,0.429697,-9.896017,-2.405008,-2.506098,-0.008444,0.039567,0.000000,0.045190,-0.130533,0.000000
4.910000,3.312438,0.264970,-1.482452,0.029441,-0.086627,-0.012407,-0.378134,-0.079024,-0.055367,1.206738,0.425741,0.403850,-10.227809,-2.543030,-2.662845,-0.008004,0.038311,0.000000,0.042756,-0.120571,-0.000000
4.920000,3.312714,0.264100,-1.482579,0.025720,-0.087396,-0.012940,-0.366578,-0.074893,-0.051462,1.102823,0.399585,0.376440,-10.550824,-2.696075,-2.818640,-0.007589,0.037156,0.000000,0.040169,-0.110257,-0.000000
4.930000,3.312952,0.263222,-1.482711,0.022110,-0.088125,-0.013436,-0.356077,-0.071032,-0.047838,0.995721,0.371820,0.347477,-10.864971,-2.865412,-2.973466,-0.007201,0.036106,0.000000,0.037412,-0.099602,0.000000
4.940000,3.313156,0.262337,-1.482848,0.018599,-0.088817,-0.013897,-0.346663,-0.067457,-0.044512,0.885523,0.342276,0.316971,-11.170156,-3.052318,-3.127308,-0.006841,0.035164,0.000000,0.034469,-0.088616,-0.000000
4.950000,3.313324,0.261446,-1.482989,0.015176,-0.089474,-0.014326,-0.338367,-0.064187,-0.041499,0.772318,0.310773,0.284931,-11.466280,-3.258067,-3.280146,-0.006511,0.034333,0.000000,0.031320,-0.077310,0.000000
4.960000,3.313459,0.260548,-1.483134,0.011831,-0.090101,-0.014727,-0.331217,-0.061242,-0.038814,0.656198,0.277115,0.251368,-11.753288,-3.483931,-3.431969,-0.006215,0.033617,0.000000,0.027948,-0.065693,0.000000
4.970000,3.313561,0.259644,-1.483284,0.008552,-0.090699,-0.015102,-0.325243,-0.058644,-0.036472,0.537252,0.241095,0.216291,184.422888,29.445822,16.138620,-0.005953,0.033019,0.000000,0.024330,-0.053778,0.000000
4.980000,3.313630,0.258734,-1.483436,0.005327,-0.091273,-0.015456,-0.320472,-0.056420,-0.034488,4.344655,0.866032,0.574140,378.545709,60.885142,34.429551,-0.005728,0.032542,0.000000,0.087506,-0.438958,-0.000000
4.990000,3.313668,0.257818,-1.483593,0.002143,-0.091828,-0.015792,-0.238350,-0.041324,-0.024989,8.108167,1.458797,0.904883,182.972632,27.098364,14.286049,-0.004200,0.024230,0.000000,0.147811,-0.821701,-0.000000
5.000000,3.313673,0.256897,-1.483752,0.000560,-0.092100,-0.015956,-0.158309,-0.027244,-0.016390,8.004108,1.407999,0.859861,-10.405871,-5.079863,-4.502140,-0.002772,0.016109,0.000000,0.142989,-0.812928,-0.000000
