time,x,y,z,vx,vy,vz,ax,ay,az,jx,jy,jz,sx,sy,sz,roll,pitch,yaw,p,q,r
0.000000,-3.279424,-0.347348,-1.478153,-0.002992,0.005750,0.004799,-0.004751,0.031241,-0.009689,-0.074746,1.527517,-0.438175,26.055322,-3.355536,2.583605,0.003181,0.000484,0.000000,0.155413,0.007590,-0.000000
0.010000,-3.279454,-0.347290,-1.478105,-0.003040,0.006062,0.004702,-0.005498,0.046516,-0.014071,0.185807,1.493962,-0.412339,50.057278,-43.041982,12.910551,0.004735,0.000560,0.000000,0.151869,-0.018937,-0.000000
0.020000,-3.279485,-0.347227,-1.478059,-0.003102,0.006680,0.004517,-0.001035,0.061120,-0.017936,0.926400,0.666677,-0.179964,77.954894,-80.539077,18.347787,0.006219,0.000105,0.000000,0.067718,-0.094262,0.000000
0.030000,-3.279516,-0.347157,-1.478015,-0.003060,0.007285,0.004343,0.013030,0.059849,-0.017670,1.744905,-0.116820,-0.045384,72.301448,-37.873131,-0.004691,0.006090,-0.001326,0.000000,-0.011916,-0.177541,0.000000
0.040000,-3.279546,-0.347081,-1.477972,-0.002842,0.007877,0.004164,0.033864,0.058783,-0.018844,2.372429,-0.090785,-0.180058,58.017584,3.107235,-12.580523,0.005981,-0.003445,0.000000,-0.009351,-0.241304,-0.000000
0.050000,-3.279573,-0.346999,-1.477931,-0.002383,0.008461,0.003966,0.060478,0.058034,-0.021271,2.905257,-0.054675,-0.296994,48.950904,4.011787,-10.879326,0.005903,-0.006152,0.000000,-0.005750,-0.295310,0.000000
0.060000,-3.279594,-0.346912,-1.477893,-0.001632,0.009038,0.003738,0.091969,0.057690,-0.024783,3.351447,-0.010549,-0.397645,40.670872,4.717803,-9.319891,0.005866,-0.009351,0.000000,-0.001328,-0.340361,0.000000
0.070000,-3.279606,-0.346818,-1.477857,-0.000544,0.009614,0.003471,0.127507,0.057823,-0.029224,3.718674,0.039681,-0.483392,33.139496,5.240181,-7.895024,0.005876,-0.012958,0.000000,0.003715,-0.377237,0.000000
0.080000,-3.279605,-0.346719,-1.477823,0.000918,0.010194,0.003154,0.166342,0.058484,-0.034451,4.014237,0.094254,-0.555545,26.318834,5.593818,-6.597529,0.005940,-0.016895,0.000000,0.009197,-0.406690,0.000000
0.090000,-3.279587,-0.346615,-1.477794,0.002783,0.010784,0.002782,0.207792,0.059708,-0.040335,4.245051,0.151557,-0.615342,20.170901,5.793611,-5.420206,0.006060,-0.021092,0.000000,0.014949,-0.429438,0.000000
0.100000,-3.279549,-0.346504,-1.477768,0.005074,0.011389,0.002347,0.251243,0.061515,-0.046758,4.417655,0.210126,-0.663949,14.657700,5.854458,-4.355854,0.006239,-0.025484,0.000000,0.020819,-0.446170,0.000000
0.110000,-3.279486,-0.346387,-1.477747,0.007808,0.012014,0.001846,0.296145,0.063910,-0.053614,4.538205,0.268646,-0.702460,9.741260,5.791255,-3.397287,0.006476,-0.030015,0.000000,0.026673,-0.457535,0.000000
0.120000,-3.279393,-0.346263,-1.477731,0.010997,0.012667,0.001275,0.342007,0.066888,-0.060807,4.612480,0.325951,-0.731895,5.383654,5.618902,-2.537298,0.006772,-0.034635,0.000000,0.032389,-0.464148,0.000000
0.130000,-3.279266,-0.346133,-1.477721,0.014648,0.013352,0.000630,0.388395,0.070429,-0.068252,4.645878,0.381024,-0.753206,1.546884,5.352296,-1.768688,0.007124,-0.039298,0.000000,0.037866,-0.466583,0.000000
0.140000,-3.279100,-0.345996,-1.477718,0.018765,0.014075,-0.000090,0.434925,0.074508,-0.075871,4.643417,0.432997,-0.767269,-1.807183,5.006326,-1.084308,0.007529,-0.043966,0.000000,0.043016,-0.465374,0.000000
0.150000,-3.278891,-0.345852,-1.477723,0.023347,0.014842,-0.000887,0.481263,0.079089,-0.083597,4.609734,0.481151,-0.774892,-4.716393,4.595896,-0.476924,0.007984,-0.048606,0.000000,0.047768,-0.461016,0.000000
0.160000,-3.278633,-0.345700,-1.477736,0.028390,0.015657,-0.001762,0.527120,0.084131,-0.091369,4.549090,0.524915,-0.776807,-7.218531,4.135913,0.060712,0.008485,-0.053187,0.000000,0.052065,-0.453961,-0.000000
0.170000,-3.278323,-0.345539,-1.477758,0.033889,0.016525,-0.002715,0.572245,0.089587,-0.099134,4.465364,0.563869,-0.773677,-9.354987,3.643889,0.536849,0.009026,-0.057685,0.000000,0.055868,-0.444621,-0.000000
0.180000,-3.277955,-0.345369,-1.477790,0.039835,0.017449,-0.003745,0.616427,0.095408,-0.106843,4.361990,0.597793,-0.766070,-11.219327,3.180657,0.978232,0.009602,-0.062080,0.000000,0.059159,-0.433360,0.000000
0.190000,-3.277526,-0.345190,-1.477833,0.046218,0.018433,-0.004851,0.659485,0.101543,-0.114455,4.240977,0.627482,-0.754113,-12.830141,2.745237,1.385339,0.010209,-0.066353,0.000000,0.062019,-0.420398,0.000000
0.200000,-3.277031,-0.345000,-1.477887,0.053025,0.019480,-0.006034,0.701246,0.107958,-0.121925,4.105387,0.652698,-0.738364,-13.815965,2.013568,1.620967,0.010842,-0.070488,0.000000,0.064429,-0.406055,0.000000
0.210000,-3.276466,-0.344800,-1.477954,0.060242,0.020592,-0.007290,0.741592,0.114597,-0.129222,3.964658,0.667754,-0.721693,-14.258740,1.036864,1.707777,0.011497,-0.074475,0.000000,0.065818,-0.391268,-0.000000
0.220000,-3.275826,-0.344589,-1.478033,0.067856,0.021772,-0.008618,0.780540,0.121313,-0.136359,3.820212,0.673435,-0.704208,-15.371409,0.801871,2.066859,0.012159,-0.078314,0.000000,0.066270,-0.376181,0.000000
0.230000,-3.275109,-0.344365,-1.478126,0.075853,0.023018,-0.010017,0.817997,0.128066,-0.143306,3.657230,0.683791,-0.680356,-17.230742,1.340173,2.710747,0.012823,-0.081999,0.000000,0.067203,-0.359364,-0.000000
0.240000,-3.274309,-0.344128,-1.478233,0.084216,0.024333,-0.011484,0.853684,0.134989,-0.149966,3.475597,0.700239,-0.649993,-18.238825,1.317684,3.072610,0.013503,-0.085503,0.000000,0.068760,-0.340828,0.000000
0.250000,-3.273424,-0.343878,-1.478356,0.092927,0.025718,-0.013016,0.887509,0.142071,-0.156306,3.292453,0.710145,-0.618904,-18.132838,0.614348,3.115137,0.014198,-0.088817,0.000000,0.069670,-0.322240,0.000000
0.260000,-3.272451,-0.343614,-1.478494,0.101967,0.027174,-0.014610,0.919533,0.149192,-0.162344,3.112941,0.712526,-0.587690,-18.046704,0.140164,3.225418,0.014896,-0.091948,0.000000,0.069837,-0.304104,0.000000
0.270000,-3.271385,-0.343335,-1.478648,0.111318,0.028702,-0.016263,0.949767,0.156321,-0.168060,2.931519,0.712948,-0.554396,-18.474353,-0.040292,3.394556,0.015595,-0.094900,0.000000,0.069822,-0.285883,0.000000
0.280000,-3.270224,-0.343040,-1.478819,0.120962,0.030301,-0.017972,0.978164,0.163451,-0.173432,2.743454,0.711720,-0.519799,-19.070995,-0.246353,3.485720,0.016293,-0.097667,0.000000,0.069657,-0.267099,-0.000000
0.290000,-3.268966,-0.342729,-1.479007,0.130881,0.031971,-0.019732,1.004637,0.170556,-0.178456,2.550099,0.708021,-0.484681,-19.295979,-0.483928,3.549263,0.016988,-0.100243,0.000000,0.069260,-0.247880,0.000000
0.300000,-3.267607,-0.342400,-1.479214,0.141055,0.033712,-0.021541,1.029166,0.177611,-0.183126,2.357534,0.702041,-0.448814,-19.080937,-0.694322,3.623729,0.017678,-0.102626,0.000000,0.068651,-0.228827,0.000000
0.310000,-3.266145,-0.342054,-1.479438,0.151464,0.035523,-0.023394,1.051787,0.184597,-0.187432,2.168481,0.694135,-0.412207,-18.807142,-0.889150,3.669880,0.018361,-0.104820,0.000000,0.067864,-0.210204,-0.000000
0.320000,-3.264577,-0.341690,-1.479682,0.162090,0.037404,-0.025289,1.072535,0.191494,-0.191370,1.981391,0.684258,-0.375416,-18.755050,-1.117905,3.643914,0.019035,-0.106831,0.000000,0.066896,-0.191845,-0.000000
0.330000,-3.262903,-0.341306,-1.479944,0.172915,0.039353,-0.027222,1.091415,0.198282,-0.194941,1.793380,0.671777,-0.339328,-18.823151,-1.381599,3.558187,0.019699,-0.108658,0.000000,0.065682,-0.173451,-0.000000
0.340000,-3.261119,-0.340903,-1.480226,0.183919,0.041370,-0.029188,1.108403,0.204930,-0.198156,1.604928,0.656626,-0.304253,-18.680411,-1.616543,3.471749,0.020349,-0.110300,0.000000,0.064216,-0.155061,0.000000
0.350000,-3.259224,-0.340479,-1.480528,0.195083,0.043452,-0.031185,1.123514,0.211414,-0.201026,1.419771,0.639446,-0.269893,-18.267367,-1.804277,3.398498,0.020983,-0.111760,0.000000,0.062559,-0.137039,-0.000000
0.360000,-3.257217,-0.340034,-1.480850,0.206389,0.045598,-0.033209,1.136798,0.217718,-0.203554,1.239581,0.620541,-0.236283,-17.821554,-1.991172,3.300147,0.021600,-0.113042,0.000000,0.060743,-0.119543,0.000000
0.370000,-3.255097,-0.339567,-1.481192,0.217819,0.047806,-0.035256,1.148305,0.223825,-0.205751,1.063340,0.599622,-0.203891,-17.520908,-2.222797,3.148460,0.022198,-0.114152,0.000000,0.058737,-0.102460,-0.000000
0.380000,-3.252861,-0.339078,-1.481555,0.229355,0.050074,-0.037324,1.158065,0.229711,-0.207632,0.889163,0.576085,-0.173313,-17.301772,-2.487236,2.957392,0.022775,-0.115092,0.000000,0.056478,-0.085593,0.000000
0.390000,-3.250510,-0.338566,-1.481938,0.240980,0.052400,-0.039409,1.166088,0.235347,-0.209218,0.717305,0.549878,-0.144743,-16.953456,-2.727652,2.765864,0.023328,-0.115864,0.000000,0.053961,-0.068958,-0.000000
0.400000,-3.248041,-0.338030,-1.482343,0.252677,0.054781,-0.041508,1.172411,0.240708,-0.210527,0.550093,0.521532,-0.117996,-16.438895,-2.931170,2.579589,0.023854,-0.116471,0.000000,0.051236,-0.052781,-0.000000
0.410000,-3.245456,-0.337470,-1.482769,0.264428,0.057214,-0.043619,1.177090,0.245777,-0.211578,0.388527,0.491254,-0.093151,-15.908778,-3.137560,2.375366,0.024353,-0.116920,0.000000,0.048324,-0.037154,0.000000
0.420000,-3.242753,-0.336885,-1.483215,0.276219,0.059697,-0.045740,1.180182,0.250534,-0.212390,0.231918,0.458780,-0.070489,-15.472666,-3.379732,2.146236,0.024821,-0.117215,0.000000,0.045195,-0.022000,0.000000
0.430000,-3.239932,-0.336276,-1.483683,0.288032,0.062225,-0.047867,1.181729,0.254953,-0.212987,0.079074,0.423660,-0.050226,-15.089500,-3.646264,1.902954,0.025256,-0.117360,0.000000,0.041803,-0.007196,-0.000000
0.440000,-3.236992,-0.335641,-1.484173,0.299853,0.064796,-0.049999,1.181763,0.259007,-0.213394,-0.069872,0.385855,-0.032430,-14.629773,-3.895797,1.657149,0.025657,-0.117359,0.000000,0.038144,0.007249,0.000000
0.450000,-3.233935,-0.334980,-1.484683,0.311667,0.067405,-0.052135,1.180331,0.262670,-0.213636,-0.213522,0.345744,-0.017083,-14.072145,-4.119868,1.406979,0.026019,-0.117215,0.000000,0.034254,0.021201,-0.000000
0.460000,-3.230759,-0.334293,-1.485215,0.323460,0.070049,-0.054272,1.177493,0.265922,-0.213736,-0.351315,0.303458,-0.004290,-13.508901,-4.346575,1.148409,0.026342,-0.116935,0.000000,0.030142,0.034609,0.000000
0.470000,-3.227465,-0.333579,-1.485769,0.335217,0.072724,-0.056410,1.173305,0.268739,-0.213722,-0.483700,0.258812,0.005885,-13.003559,-4.596617,0.893024,0.026622,-0.116523,0.000000,0.025790,0.047519,0.000000
0.480000,-3.224054,-0.332838,-1.486344,0.346926,0.075424,-0.058547,1.167819,0.271098,-0.213618,-0.611386,0.211525,0.013570,-12.530611,-4.861122,0.646177,0.026858,-0.115984,0.000000,0.021170,0.060000,-0.000000
0.490000,-3.220527,-0.332071,-1.486940,0.358574,0.078146,-0.060682,1.161077,0.272970,-0.213450,-0.734312,0.161590,0.018809,-12.015533,-5.113547,0.395664,0.027046,-0.115322,0.000000,0.016279,0.072049,0.000000
0.500000,-3.216883,-0.331275,-1.487557,0.370147,0.080883,-0.062816,1.153132,0.274330,-0.213242,-0.851697,0.109254,0.021484,-11.446913,-5.349302,0.134398,0.027183,-0.114542,0.000000,0.011140,0.083588,0.000000
0.510000,-3.213124,-0.330453,-1.488196,0.381636,0.083632,-0.064947,1.144043,0.275155,-0.213021,-0.963250,0.054604,0.021496,-10.877866,-5.585675,-0.125568,0.027268,-0.113650,0.000000,0.005761,0.094591,-0.000000
0.520000,-3.209250,-0.329603,-1.488856,0.393028,0.086387,-0.067076,1.133867,0.275422,-0.212812,-1.069254,-0.002459,0.018972,-10.343316,-5.832546,-0.360496,0.027299,-0.112650,0.000000,0.000133,0.105083,0.000000
0.530000,-3.205263,-0.328725,-1.489538,0.404314,0.089141,-0.069203,1.122658,0.275106,-0.212641,-1.170117,-0.062047,0.014287,-9.828509,-6.083714,-0.570239,0.027271,-0.111547,0.000000,-0.005757,0.115100,0.000000
0.540000,-3.201164,-0.327820,-1.490240,0.415482,0.091889,-0.071329,1.110465,0.274181,-0.212527,-1.265824,-0.124133,0.007567,-9.292990,-6.325988,-0.782818,0.027183,-0.110347,0.000000,-0.011905,0.124638,0.000000
0.550000,-3.196954,-0.326887,-1.490964,0.426523,0.094624,-0.073454,1.097342,0.272623,-0.212490,-1.355977,-0.188567,-0.001370,-8.731205,-6.557747,-1.008095,0.027033,-0.109054,0.000000,-0.018297,0.133657,-0.000000
0.560000,-3.192634,-0.325927,-1.491709,0.437428,0.097341,-0.075579,1.083346,0.270409,-0.212554,-1.440448,-0.255288,-0.012594,-8.172170,-6.786812,-1.223881,0.026817,-0.107673,0.000000,-0.024927,0.142144,-0.000000
0.570000,-3.188205,-0.324941,-1.492476,0.448190,0.100033,-0.077705,1.068533,0.267517,-0.212742,-1.519420,-0.324303,-0.025847,-7.633829,-7.015277,-1.400771,0.026534,-0.106210,0.000000,-0.031796,0.150113,-0.000000
0.580000,-3.183670,-0.323927,-1.493263,0.458799,0.102692,-0.079833,1.052957,0.263923,-0.213071,-1.593125,-0.395594,-0.040610,-7.108187,-7.239583,-1.542412,0.026181,-0.104669,0.000000,-0.038898,0.157578,-0.000000
0.590000,-3.179029,-0.322887,-1.494072,0.469249,0.105311,-0.081966,1.036670,0.259605,-0.213554,-1.661584,-0.469095,-0.056696,-6.575084,-7.456167,-1.684648,0.025756,-0.103057,0.000000,-0.046227,0.164538,0.000000
0.600000,-3.174285,-0.321821,-1.494903,0.479532,0.107884,-0.084105,1.019725,0.254541,-0.214205,-1.724627,-0.544717,-0.074303,-6.032104,-7.665218,-1.838006,0.025257,-0.101378,0.000000,-0.053775,0.170976,-0.000000
0.610000,-3.169438,-0.320729,-1.495755,0.489643,0.110402,-0.086250,1.002178,0.248711,-0.215040,-1.782226,-0.622399,-0.093456,-5.493953,-7.867909,-1.975776,0.024681,-0.099636,0.000000,-0.061533,0.176887,-0.000000
0.620000,-3.164492,-0.319613,-1.496628,0.499576,0.112858,-0.088405,0.984081,0.242093,-0.216074,-1.834506,-0.702075,-0.113818,-4.969600,-8.061690,-2.068460,0.024026,-0.097839,0.000000,-0.069493,0.182279,0.000000
0.630000,-3.159447,-0.318472,-1.497523,0.509325,0.115244,-0.090572,0.965488,0.234669,-0.217316,-1.881618,-0.783633,-0.134825,-4.455299,-8.244978,-2.122019,0.023291,-0.095990,0.000000,-0.077641,0.187157,-0.000000
0.640000,-3.154305,-0.317308,-1.498439,0.518886,0.117551,-0.092752,0.946449,0.226421,-0.218770,-1.923612,-0.866975,-0.156259,-3.941452,-8.419988,-2.173029,0.022473,-0.094095,0.000000,-0.085967,0.191525,-0.000000
0.650000,-3.149069,-0.316121,-1.499378,0.528254,0.119772,-0.094947,0.927015,0.217330,-0.220442,-1.960447,-0.952033,-0.178286,-3.426593,-8.588185,-2.231257,0.021572,-0.092158,0.000000,-0.094461,0.195378,0.000000
0.660000,-3.143740,-0.314912,-1.500338,0.537426,0.121898,-0.097160,0.907240,0.207380,-0.222336,-1.992144,-1.038739,-0.200884,-2.918093,-8.746847,-2.270416,0.020584,-0.090186,0.000000,-0.103117,0.198715,-0.000000
0.670000,-3.138321,-0.313683,-1.501321,0.546399,0.123920,-0.099394,0.887172,0.196555,-0.224459,-2.018809,-1.126970,-0.223694,-2.422087,-8.890165,-2.264498,0.019509,-0.088183,0.000000,-0.111918,0.201544,-0.000000
0.680000,-3.132812,-0.312434,-1.502326,0.555169,0.125829,-0.101650,0.866863,0.184841,-0.226810,-2.040585,-1.216542,-0.246174,-1.937117,-9.017828,-2.220266,0.018346,-0.086155,0.000000,-0.120845,0.203873,0.000000
0.690000,-3.127217,-0.311166,-1.503354,0.563736,0.127617,-0.103930,0.846361,0.172224,-0.229383,-2.057551,-1.307326,-0.268099,-1.456465,-9.136296,-2.170380,0.017093,-0.084105,0.000000,-0.129882,0.205707,0.000000
0.700000,-3.121538,-0.309882,-1.504405,0.572097,0.129273,-0.106237,0.825712,0.158694,-0.232172,-2.069715,-1.399268,-0.289581,-0.978583,-9.247487,-2.122915,0.015748,-0.082040,0.000000,-0.139022,0.207048,-0.000000
0.710000,-3.115775,-0.308581,-1.505479,0.580250,0.130790,-0.108574,0.804966,0.144239,-0.235174,-2.077123,-1.492276,-0.310558,-0.508822,-9.345956,-2.055130,0.014312,-0.079964,0.000000,-0.148255,0.207899,-0.000000
0.720000,-3.109933,-0.307266,-1.506576,0.588196,0.132158,-0.110941,0.784170,0.128849,-0.238383,-2.079891,-1.586187,-0.330684,-0.052793,-9.425246,-1.946487,0.012783,-0.077882,0.000000,-0.157564,0.208270,0.000000
0.730000,-3.104011,-0.305938,-1.507697,0.595934,0.133367,-0.113341,0.763369,0.112515,-0.241788,-2.078179,-1.680781,-0.349487,0.390367,-9.486119,-1.803458,0.011161,-0.075798,0.000000,-0.166923,0.208174,-0.000000
0.740000,-3.098014,-0.304598,-1.508843,0.603463,0.134408,-0.115777,0.742606,0.095233,-0.245373,-2.072084,-1.775909,-0.366753,0.827044,-9.535862,-1.652319,0.009445,-0.073718,0.000000,-0.176317,0.207619,-0.000000
0.750000,-3.091942,-0.303250,-1.510013,0.610786,0.135272,-0.118249,0.721927,0.076997,-0.249123,-2.061638,-1.871498,-0.382534,1.259188,-9.576177,-1.499131,0.007635,-0.071646,0.000000,-0.185739,0.206611,-0.000000
0.760000,-3.085798,-0.301893,-1.511208,0.617902,0.135948,-0.120759,0.701374,0.057803,-0.253024,-2.046900,-1.967433,-0.396736,1.681764,-9.601268,-1.326161,0.005730,-0.069586,0.000000,-0.195176,0.205156,-0.000000
0.770000,-3.079584,-0.300531,-1.512428,0.624813,0.136428,-0.123309,0.680989,0.037648,-0.257058,-2.028002,-2.063524,-0.409057,2.088523,-9.605436,-1.119013,0.003731,-0.067542,0.000000,-0.204608,0.203266,0.000000
0.780000,-3.073302,-0.299164,-1.513674,0.631522,0.136701,-0.125900,0.660814,0.016533,-0.261205,-2.005130,-2.159541,-0.419116,2.480302,-9.589753,-0.883156,0.001638,-0.065520,0.000000,-0.214013,0.200960,0.000000
0.790000,-3.066954,-0.297797,-1.514946,0.638030,0.136759,-0.128533,0.640886,-0.005542,-0.265440,-1.978396,-2.255319,-0.426720,2.864593,-9.560629,-0.637508,-0.000549,-0.063523,0.000000,-0.223375,0.198250,-0.000000
0.800000,-3.060541,-0.296429,-1.516245,0.644339,0.136591,-0.131209,0.621246,-0.028574,-0.269739,-1.947838,-2.350754,-0.431866,3.243675,-9.519421,-0.387051,-0.002829,-0.061555,0.000000,-0.232685,0.195141,-0.000000
0.810000,-3.054067,-0.295065,-1.517570,0.650454,0.136187,-0.133928,0.601930,-0.052557,-0.274077,-1.913523,-2.445707,-0.434461,3.611912,-9.461099,-0.119490,-0.005203,-0.059620,0.000000,-0.241929,0.191643,0.000000
0.820000,-3.047532,-0.293705,-1.518923,0.656378,0.135539,-0.136691,0.582975,-0.077488,-0.278428,-1.875599,-2.539976,-0.434256,3.962730,-9.381043,0.176511,-0.007668,-0.057722,0.000000,-0.251090,0.187771,-0.000000
0.830000,-3.040939,-0.292354,-1.520304,0.662114,0.134638,-0.139497,0.564418,-0.103357,-0.282763,-1.834268,-2.633328,-0.430931,4.297231,-9.280263,0.496884,-0.010224,-0.055865,0.000000,-0.260147,0.183545,0.000000
0.840000,-3.034290,-0.291013,-1.521713,0.667666,0.133472,-0.142346,0.546290,-0.130154,-0.287047,-1.789655,-2.725581,-0.424318,4.623473,-9.163902,0.825982,-0.012871,-0.054051,0.000000,-0.269083,0.178980,-0.000000
0.850000,-3.027586,-0.289684,-1.523151,0.673040,0.132034,-0.145237,0.528625,-0.157869,-0.291249,-1.741799,-2.816606,-0.414411,4.944104,-9.032866,1.159414,-0.015606,-0.052285,0.000000,-0.277891,0.174083,0.000000
0.860000,-3.020829,-0.288372,-1.524618,0.678239,0.130315,-0.148171,0.511454,-0.186487,-0.295335,-1.690773,-2.906239,-0.401130,5.253329,-8.883146,1.506880,-0.018429,-0.050569,0.000000,-0.286555,0.168863,-0.000000
0.870000,-3.014021,-0.287078,-1.526114,0.683269,0.128305,-0.151144,0.494809,-0.215993,-0.299271,-1.636732,-2.994269,-0.384274,5.544121,-8.711530,1.877199,-0.021337,-0.048907,0.000000,-0.295061,0.163336,0.000000
0.880000,-3.007164,-0.285806,-1.527641,0.688135,0.125995,-0.154156,0.478719,-0.246372,-0.303021,-1.579890,-3.080469,-0.363586,5.817911,-8.518980,2.266763,-0.024330,-0.047302,0.000000,-0.303391,0.157526,0.000000
0.890000,-3.000259,-0.284558,-1.529198,0.692843,0.123377,-0.157205,0.463211,-0.277603,-0.306543,-1.520374,-3.164649,-0.338938,6.083463,-8.308877,2.662809,-0.027405,-0.045756,0.000000,-0.311529,0.151445,0.000000
0.900000,-2.993307,-0.283338,-1.530785,0.697399,0.120443,-0.160287,0.448312,-0.309665,-0.309799,-1.458221,-3.246647,-0.310330,6.342691,-8.080747,3.061930,-0.030560,-0.044272,0.000000,-0.319468,0.145102,0.000000
0.910000,-2.986311,-0.282149,-1.532403,0.701809,0.117184,-0.163401,0.434047,-0.342536,-0.312750,-1.393520,-3.326264,-0.277700,6.589568,-7.831948,3.471600,-0.033794,-0.042852,0.000000,-0.327191,0.138505,0.000000
0.920000,-2.979271,-0.280995,-1.534053,0.706080,0.113592,-0.166542,0.420441,-0.376190,-0.315353,-1.326430,-3.403286,-0.240898,6.819340,-7.563125,3.897602,-0.037104,-0.041500,0.000000,-0.334685,0.131671,-0.000000
0.930000,-2.972189,-0.279878,-1.535734,0.710218,0.109660,-0.169708,0.407518,-0.410601,-0.317568,-1.257133,-3.477526,-0.199748,7.033733,-7.274917,4.337116,-0.040488,-0.040217,0.000000,-0.341938,0.124619,0.000000
0.940000,-2.965066,-0.278802,-1.537447,0.714231,0.105380,-0.172893,0.395299,-0.445741,-0.319348,-1.185755,-3.548784,-0.154156,7.238773,-6.965613,4.780903,-0.043943,-0.039005,0.000000,-0.348938,0.117363,0.000000
0.950000,-2.957904,-0.277770,-1.539192,0.718124,0.100745,-0.176095,0.383803,-0.481577,-0.320651,-1.112358,-3.616838,-0.104130,7.435938,-6.634484,5.223202,-0.047467,-0.037867,0.000000,-0.355671,0.109909,0.000000
0.960000,-2.950704,-0.276787,-1.540969,0.721907,0.095749,-0.179306,0.373052,-0.518077,-0.321431,-1.037036,-3.681474,-0.049692,7.621161,-6.282310,5.669105,-0.051057,-0.036805,0.000000,-0.362122,0.102267,0.000000
0.970000,-2.943466,-0.275855,-1.542778,0.725585,0.090384,-0.182523,0.363062,-0.555207,-0.321645,-0.959935,-3.742484,0.009253,7.790717,-5.909523,6.131325,-0.054709,-0.035819,0.000000,-0.368280,0.094450,-0.000000
0.980000,-2.936192,-0.274979,-1.544619,0.729168,0.084645,-0.185739,0.353853,-0.592927,-0.321246,-0.881222,-3.799664,0.072935,7.945742,-5.515458,6.608026,-0.058422,-0.034913,0.000000,-0.374134,0.086476,-0.000000
0.990000,-2.928883,-0.274162,-1.546493,0.732662,0.078525,-0.188948,0.345438,-0.631200,-0.320186,-0.801020,-3.852794,0.141413,8.091181,-5.099003,7.079821,-0.062192,-0.034087,0.000000,-0.379671,0.078353,-0.000000
1.000000,-2.921539,-0.273408,-1.548398,0.736077,0.072021,-0.192143,0.337832,-0.669983,-0.318418,-0.719398,-3.901644,0.214531,8.228883,-4.660294,7.539327,-0.066016,-0.033343,0.000000,-0.384876,0.070090,0.000000
1.010000,-2.914161,-0.272722,-1.550336,0.739419,0.065126,-0.195317,0.331050,-0.709233,-0.315895,-0.636442,-3.946000,0.292200,8.355575,-4.199585,7.998285,-0.069890,-0.032682,0.000000,-0.389737,0.061692,0.000000
1.020000,-2.906751,-0.272106,-1.552305,0.742698,0.057836,-0.198461,0.325104,-0.748903,-0.312574,-0.552287,-3.985636,0.374497,8.466757,-3.715419,8.470677,-0.073811,-0.032106,0.000000,-0.394241,0.053172,-0.000000
1.030000,-2.899307,-0.271565,-1.554305,0.745921,0.050148,-0.201568,0.320004,-0.788945,-0.308405,-0.467107,-4.020308,0.461613,8.563550,-3.207581,8.951686,-0.077775,-0.031615,0.000000,-0.398374,0.044542,-0.000000
1.040000,-2.891832,-0.271103,-1.556336,0.749098,0.042057,-0.204629,0.315761,-0.829309,-0.303341,-0.381016,-4.049788,0.553531,8.652144,-2.677420,9.420404,-0.081779,-0.031212,0.000000,-0.402122,0.035811,-0.000000
1.050000,-2.884325,-0.270724,-1.558398,0.752236,0.033561,-0.207635,0.312384,-0.869941,-0.297335,-0.294064,-4.073856,0.650021,8.732975,-2.122847,9.872272,-0.085818,-0.030897,0.000000,-0.405471,0.026981,-0.000000
1.060000,-2.876787,-0.270432,-1.560489,0.755345,0.024658,-0.210576,0.309880,-0.910786,-0.290341,-0.206356,-4.092245,0.750976,8.802117,-1.542660,10.319360,-0.089889,-0.030671,0.000000,-0.408402,0.018059,0.000000
1.070000,-2.869219,-0.270231,-1.562609,0.758434,0.015346,-0.213442,0.308257,-0.951786,-0.282315,-0.118022,-4.104710,0.856408,8.859728,-0.942179,10.767412,-0.093986,-0.030534,0.000000,-0.410901,0.009054,0.000000
1.080000,-2.861619,-0.270125,-1.564758,0.761511,0.005622,-0.216222,0.307520,-0.992881,-0.273213,-0.029162,-4.111088,0.966325,8.904885,-0.319545,11.212802,-0.098107,-0.030489,0.000000,-0.412959,-0.000031,-0.000000
1.090000,-2.853988,-0.270118,-1.566934,0.764584,-0.004512,-0.218906,0.307674,-1.034008,-0.262989,0.060076,-4.111100,1.080664,8.938043,0.332776,11.645057,-0.102246,-0.030535,0.000000,-0.414555,-0.009184,0.000000
1.100000,-2.846327,-0.270215,-1.569136,0.767664,-0.015058,-0.221482,0.308721,-1.075103,-0.251600,0.149599,-4.104433,1.199226,8.977915,1.000337,12.046696,-0.106398,-0.030673,0.000000,-0.415666,-0.018403,-0.000000
1.110000,-2.838635,-0.270419,-1.571363,0.770759,-0.026014,-0.223938,0.310666,-1.116097,-0.239004,0.239634,-4.091094,1.321598,9.023116,1.679725,12.423492,-0.110560,-0.030905,0.000000,-0.416294,-0.027715,-0.000000
1.120000,-2.830912,-0.270735,-1.573615,0.773877,-0.037380,-0.226262,0.313514,-1.156924,-0.225168,0.330061,-4.070838,1.447695,9.019946,2.415595,12.820166,-0.114725,-0.031231,0.000000,-0.416419,-0.037115,-0.000000
1.130000,-2.823157,-0.271167,-1.575888,0.777029,-0.049153,-0.228441,0.317267,-1.197513,-0.210050,0.420033,-4.042782,1.578002,8.968213,3.212617,13.234681,-0.118889,-0.031653,0.000000,-0.415966,-0.046528,-0.000000
1.140000,-2.815371,-0.271718,-1.578183,0.780223,-0.061330,-0.230463,0.321915,-1.237780,-0.193608,0.509426,-4.006586,1.712389,8.942715,4.008681,13.601897,-0.123045,-0.032169,0.000000,-0.414906,-0.055948,-0.000000
1.150000,-2.807553,-0.272394,-1.580498,0.783467,-0.073908,-0.232313,0.327455,-1.277645,-0.175803,0.598887,-3.962608,1.850040,8.945642,4.785312,13.910639,-0.127187,-0.032780,0.000000,-0.413268,-0.065445,0.000000
1.160000,-2.799702,-0.273197,-1.582830,0.786772,-0.086883,-0.233979,0.333892,-1.317032,-0.156607,0.688339,-3.910880,1.990602,8.928037,5.585314,14.201957,-0.131310,-0.033489,0.000000,-0.411052,-0.075019,0.000000
1.170000,-2.791818,-0.274131,-1.585177,0.790145,-0.100249,-0.235446,0.341222,-1.355863,-0.135991,0.777448,-3.850902,2.134079,8.903142,6.446882,14.487168,-0.135409,-0.034294,0.000000,-0.408210,-0.084646,-0.000000
1.180000,-2.783899,-0.275202,-1.587539,0.793596,-0.114000,-0.236699,0.349441,-1.394050,-0.113925,0.866401,-3.781942,2.280345,8.890068,7.357287,14.749707,-0.139475,-0.035197,0.000000,-0.404669,-0.094352,0.000000
1.190000,-2.775946,-0.276411,-1.589911,0.797134,-0.128130,-0.237724,0.358550,-1.431501,-0.090384,0.955249,-3.703756,2.429073,8.867980,8.266123,14.972594,-0.143503,-0.036200,0.000000,-0.400399,-0.104152,-0.000000
1.200000,-2.767956,-0.277764,-1.592293,0.800767,-0.142630,-0.238506,0.368546,-1.468125,-0.065344,1.043761,-3.616619,2.579797,8.831669,9.158482,15.151883,-0.147484,-0.037303,0.000000,-0.395416,-0.114031,0.000000
1.210000,-2.759930,-0.279264,-1.594681,0.804505,-0.157492,-0.239031,0.379425,-1.503834,-0.038788,1.131883,-3.520586,2.732111,8.797672,10.067486,15.294771,-0.151411,-0.038506,0.000000,-0.389715,-0.123992,-0.000000
1.220000,-2.751866,-0.280914,-1.597074,0.808356,-0.172707,-0.239282,0.391184,-1.538537,-0.010701,1.219714,-3.415270,2.885693,8.772926,11.028029,15.406374,-0.155278,-0.039812,0.000000,-0.383246,-0.134055,-0.000000
1.230000,-2.743763,-0.282718,-1.599467,0.812329,-0.188263,-0.239245,0.403820,-1.572139,0.018926,1.307341,-3.300026,3.040238,8.753361,12.033118,15.483208,-0.159077,-0.041220,0.000000,-0.375932,-0.144237,0.000000
1.240000,-2.735620,-0.284679,-1.601859,0.816432,-0.204150,-0.238904,0.417331,-1.604538,0.050103,1.394782,-3.174607,3.195357,8.732454,13.033723,15.512786,-0.162797,-0.042734,0.000000,-0.367728,-0.154552,-0.000000
1.250000,-2.727435,-0.286801,-1.604245,0.820675,-0.220354,-0.238243,0.431715,-1.635631,0.082833,1.481990,-3.039351,3.350494,8.707779,13.990339,15.477451,-0.166432,-0.044353,0.000000,-0.358647,-0.165002,-0.000000
1.260000,-2.719206,-0.289086,-1.606623,0.825066,-0.236862,-0.237247,0.446971,-1.665325,0.117113,1.568937,-2.894801,3.504906,8.685189,14.936081,15.382482,-0.169971,-0.046081,0.000000,-0.348713,-0.175593,-0.000000
1.270000,-2.710933,-0.291538,-1.608990,0.829615,-0.253660,-0.235901,0.463094,-1.693527,0.152931,1.655694,-2.740630,3.658143,8.675207,15.973526,15.267910,-0.173406,-0.047917,0.000000,-0.337867,-0.186342,0.000000
1.280000,-2.702614,-0.294160,-1.611341,0.834328,-0.270733,-0.234188,0.480085,-1.720137,0.190276,1.742441,-2.575330,3.810264,8.679367,17.097495,15.126085,-0.176728,-0.049865,0.000000,-0.325937,-0.197279,-0.000000
1.290000,-2.694247,-0.296953,-1.613674,0.839216,-0.288063,-0.232095,0.497943,-1.745034,0.229137,1.829282,-2.398680,3.960665,8.684694,18.163309,14.896987,-0.179925,-0.051926,0.000000,-0.312863,-0.208424,-0.000000
1.300000,-2.685830,-0.299921,-1.615983,0.844287,-0.305633,-0.229606,0.516670,-1.768111,0.269489,1.916135,-2.212064,4.108204,8.673943,19.117334,14.599899,-0.182985,-0.054103,0.000000,-0.298737,-0.219775,-0.000000
1.310000,-2.677361,-0.303066,-1.618266,0.849550,-0.323425,-0.226705,0.536266,-1.789275,0.311301,2.002760,-2.016333,4.252663,8.658183,20.055519,14.268296,-0.185900,-0.056397,0.000000,-0.283608,-0.231316,0.000000
1.320000,-2.668839,-0.306389,-1.620517,0.855013,-0.341419,-0.223380,0.556725,-1.808437,0.354543,2.089299,-1.810954,4.393570,8.687596,21.094490,13.822901,-0.188657,-0.058811,0.000000,-0.267381,-0.243072,0.000000
1.330000,-2.660261,-0.309894,-1.622734,0.860684,-0.359594,-0.219614,0.578052,-1.825494,0.399172,2.176512,-1.594443,4.529121,8.768771,22.200790,13.239146,-0.191247,-0.061347,0.000000,-0.249832,-0.255121,-0.000000
1.340000,-2.651625,-0.313581,-1.624910,0.866574,-0.377929,-0.215396,0.600256,-1.840326,0.445125,2.264674,-1.366938,4.658352,8.832093,23.213422,12.624768,-0.193654,-0.064009,0.000000,-0.230910,-0.267495,-0.000000
1.350000,-2.642929,-0.317452,-1.627041,0.872689,-0.396401,-0.210712,0.623345,-1.852833,0.492339,2.353154,-1.130175,4.781617,8.811285,24.112002,12.035480,-0.195865,-0.066800,0.000000,-0.210755,-0.280140,-0.000000
1.360000,-2.634171,-0.321509,-1.629124,0.879040,-0.414985,-0.205549,0.647319,-1.862930,0.540757,2.440900,-0.884698,4.899062,8.757958,24.997056,11.390385,-0.197868,-0.069722,0.000000,-0.189382,-0.292956,0.000000
1.370000,-2.625348,-0.325752,-1.631152,0.885636,-0.433659,-0.199897,0.672163,-1.870527,0.590320,2.528313,-0.630234,5.009424,8.849152,25.887807,10.549617,-0.199651,-0.072776,0.000000,-0.166690,-0.305982,0.000000
1.380000,-2.616458,-0.330182,-1.633122,0.892484,-0.452396,-0.193743,0.697885,-1.875535,0.640946,2.617883,-0.366942,5.110054,9.077522,26.740033,9.529999,-0.201201,-0.075967,0.000000,-0.142582,-0.319466,-0.000000
1.390000,-2.607499,-0.334800,-1.635027,0.899593,-0.471170,-0.187078,0.724521,-1.877866,0.692522,2.709864,-0.095433,5.200024,9.199533,27.525229,8.515244,-0.202502,-0.079298,0.000000,-0.117046,-0.333433,-0.000000
1.400000,-2.598467,-0.339606,-1.636863,0.906974,-0.489953,-0.179893,0.752082,-1.877443,0.744946,2.801874,0.183563,5.280359,9.151812,28.262367,7.552411,-0.203540,-0.082775,0.000000,-0.090128,-0.347641,0.000000
1.410000,-2.589359,-0.344599,-1.638625,0.914635,-0.508719,-0.172179,0.780558,-1.874195,0.798129,2.892900,0.469814,5.351072,9.098115,28.958598,6.514738,-0.204303,-0.086399,0.000000,-0.061802,-0.361979,0.000000
1.420000,-2.580174,-0.349780,-1.640307,0.922585,-0.527437,-0.163930,0.809940,-1.868047,0.851968,2.983836,0.762735,5.410654,9.164671,29.547321,5.295063,-0.204775,-0.090170,0.000000,-0.032040,-0.376523,0.000000
1.430000,-2.570908,-0.355148,-1.641904,0.930834,-0.546080,-0.155140,0.840235,-1.858940,0.906342,3.076193,1.060761,5.456974,9.287743,30.012082,3.925578,-0.204942,-0.094091,0.000000,-0.000904,-0.391410,0.000000
1.440000,-2.561557,-0.360702,-1.643410,0.939390,-0.564616,-0.145803,0.871464,-1.846832,0.961107,3.169591,1.362977,5.489166,9.301711,30.434609,2.546571,-0.204791,-0.098166,0.000000,0.031576,-0.406577,-0.000000
1.450000,-2.552120,-0.366440,-1.644820,0.948263,-0.583016,-0.135917,0.903627,-1.831680,1.016125,3.262228,1.669453,5.507905,9.241424,30.853089,1.233398,-0.204308,-0.102397,0.000000,0.065435,-0.421818,0.000000
1.460000,-2.542592,-0.372362,-1.646128,0.957463,-0.601250,-0.125481,0.936709,-1.813443,1.071265,3.354419,1.980038,5.513834,9.205741,31.201149,-0.110050,-0.203480,-0.106783,0.000000,0.100686,-0.437152,0.000000
1.470000,-2.532970,-0.378465,-1.647329,0.966997,-0.619285,-0.114492,0.970715,-1.792080,1.126402,3.446343,2.293476,5.505704,9.063101,31.370811,-1.682018,-0.202292,-0.111325,0.000000,0.137260,-0.452563,0.000000
1.480000,-2.523252,-0.384748,-1.648418,0.976877,-0.637091,-0.102953,1.005636,-1.767573,1.181379,3.535681,2.607455,5.480193,8.760080,31.371184,-3.461637,-0.200733,-0.116023,0.000000,0.174999,-0.467716,0.000000
1.490000,-2.513433,-0.391207,-1.649388,0.987110,-0.654637,-0.090865,1.041429,-1.739931,1.236006,3.621544,2.920899,5.436471,8.479405,31.336998,-5.174939,-0.198790,-0.120872,0.000000,0.213816,-0.482450,0.000000
1.500000,-2.503510,-0.397840,-1.650235,0.997705,-0.671890,-0.078233,1.078066,-1.709155,1.290109,3.705270,3.234195,5.376694,8.300532,31.309768,-6.729364,-0.196454,-0.125866,0.000000,0.253714,-0.496893,0.000000
1.510000,-2.493479,-0.404645,-1.650953,1.008671,-0.688820,-0.065062,1.115534,-1.675247,1.343540,3.787555,3.547095,5.301884,8.087399,31.190577,-8.307338,-0.193713,-0.131005,0.000000,0.294644,-0.511087,-0.000000
1.520000,-2.483336,-0.411617,-1.651537,1.020016,-0.705395,-0.051362,1.153817,-1.638213,1.396147,3.867018,3.858006,5.210548,7.652917,30.868702,-10.111815,-0.190558,-0.136283,0.000000,0.336439,-0.524800,-0.000000
1.530000,-2.473079,-0.418753,-1.651980,1.031748,-0.721584,-0.037139,1.192875,-1.598087,1.447750,3.940613,4.164469,5.099648,7.029620,30.364523,-12.080677,-0.186982,-0.141694,0.000000,0.378845,-0.537563,0.000000
1.540000,-2.462701,-0.426049,-1.652279,1.043874,-0.737356,-0.022407,1.232630,-1.554924,1.498139,4.007610,4.465297,4.968934,6.459302,29.817944,-13.936009,-0.182979,-0.147225,0.000000,0.421671,-0.549202,-0.000000
1.550000,-2.452201,-0.433500,-1.652428,1.056400,-0.752682,-0.007177,1.273027,-1.508781,1.547129,4.069799,4.760828,4.820928,5.996100,29.286742,-15.637256,-0.178547,-0.152864,0.000000,0.464838,-0.559881,-0.000000
1.560000,-2.441573,-0.441102,-1.652423,1.069334,-0.767532,0.008536,1.314026,-1.459707,1.594558,4.127532,5.051031,4.656189,5.473140,28.670620,-17.358895,-0.173681,-0.158602,0.000000,0.508250,-0.569569,0.000000
1.570000,-2.430814,-0.448851,-1.652258,1.082681,-0.781877,0.024714,1.355577,-1.407760,1.640253,4.179262,5.334240,4.473750,4.766497,27.814672,-19.153325,-0.168380,-0.164428,0.000000,0.551629,-0.577982,0.000000
1.580000,-2.419920,-0.456740,-1.651929,1.096446,-0.795687,0.041341,1.397611,-1.353023,1.684033,4.222862,5.607325,4.273123,3.925428,26.739209,-20.946511,-0.162647,-0.170327,0.000000,0.594490,-0.584769,0.000000
1.590000,-2.408885,-0.464764,-1.651431,1.110633,-0.808937,0.058395,1.440035,-1.295613,1.725715,4.257770,5.869024,4.054819,3.107702,25.649892,-22.663074,-0.156490,-0.176279,0.000000,0.636526,-0.589775,-0.000000
1.600000,-2.397707,-0.472918,-1.650761,1.125246,-0.821600,0.075855,1.482766,-1.235642,1.765129,4.285016,6.120323,3.819861,2.357899,24.623408,-24.322272,-0.149916,-0.182266,0.000000,0.677686,-0.593052,-0.000000
1.610000,-2.386381,-0.481196,-1.649914,1.140288,-0.833650,0.093698,1.525735,-1.173207,1.802113,4.304928,6.361492,3.568374,1.570542,23.517910,-25.955325,-0.142936,-0.188272,0.000000,0.717838,-0.594556,0.000000
1.620000,-2.374901,-0.489591,-1.648887,1.155761,-0.845064,0.111897,1.568865,-1.108412,1.836497,4.316427,6.590681,3.300755,0.634040,22.146665,-27.480914,-0.135560,-0.194278,0.000000,0.756575,-0.594085,-0.000000
1.630000,-2.363265,-0.498098,-1.647676,1.171666,-0.855818,0.130428,1.612063,-1.041393,1.868128,4.317609,6.804426,3.018756,-0.418724,20.546178,-28.865172,-0.127806,-0.200262,0.000000,0.793262,-0.591377,0.000000
1.640000,-2.351468,-0.506708,-1.646278,1.188002,-0.865892,0.149260,1.655217,-0.972324,1.896872,4.308052,7.001604,2.723451,-1.437329,18.968381,-30.204306,-0.119697,-0.206201,0.000000,0.827558,-0.586344,0.000000
1.650000,-2.339505,-0.515415,-1.644691,1.204770,-0.875265,0.168365,1.698224,-0.901361,1.922597,4.288863,7.183793,2.414670,-2.388856,17.499405,-31.560583,-0.111257,-0.212071,0.000000,0.859475,-0.579063,0.000000
1.660000,-2.327373,-0.524213,-1.642911,1.221967,-0.883919,0.187712,1.740994,-0.828648,1.945165,4.260275,7.351593,2.092239,-3.370224,15.971084,-32.849117,-0.102510,-0.217851,0.000000,0.888913,-0.569515,0.000000
1.670000,-2.315066,-0.533094,-1.640936,1.239590,-0.891838,0.207268,1.783430,-0.754329,1.964442,4.221458,7.503215,1.757687,-4.445718,14.184611,-33.885417,-0.093482,-0.223519,0.000000,0.915458,-0.557612,0.000000
1.680000,-2.302581,-0.542050,-1.638766,1.257635,-0.899005,0.227001,1.825424,-0.678584,1.980319,4.171361,7.635285,1.414531,-5.577619,12.195307,-34.673133,-0.084205,-0.229050,0.000000,0.938498,-0.543314,0.000000
1.690000,-2.289913,-0.551074,-1.636396,1.276098,-0.905409,0.246875,1.866857,-0.601624,1.992732,4.109906,7.747121,1.064225,-6.677428,10.274826,-35.444231,-0.074717,-0.234421,0.000000,0.957805,-0.526665,0.000000
1.700000,-2.277059,-0.560158,-1.633828,1.294973,-0.911038,0.266855,1.907622,-0.523641,2.001604,4.037812,7.840781,0.705646,-7.745438,8.468343,-36.279993,-0.065053,-0.239610,0.000000,0.973539,-0.507744,-0.000000
1.710000,-2.264014,-0.569295,-1.631059,1.314251,-0.915882,0.286907,1.947613,-0.444808,2.006845,3.954997,7.916488,0.338625,-8.832226,6.603437,-37.008183,-0.055251,-0.244596,0.000000,0.985639,-0.486575,0.000000
1.720000,-2.250774,-0.578476,-1.628090,1.333925,-0.919934,0.306992,1.986722,-0.365311,2.008376,3.861168,7.972850,-0.034517,-9.914639,4.611603,-37.412237,-0.045346,-0.249355,0.000000,0.993853,-0.463243,-0.000000
1.730000,-2.237335,-0.587693,-1.624919,1.353985,-0.923188,0.327074,2.024837,-0.285351,2.006155,3.756704,8.008720,-0.409620,-10.967841,2.563885,-37.527717,-0.035379,-0.253868,0.000000,0.997992,-0.437993,-0.000000
1.740000,-2.223694,-0.596939,-1.621548,1.374422,-0.925641,0.347115,2.061856,-0.205137,2.000184,3.641811,8.024128,-0.785072,-12.017967,0.556185,-37.629983,-0.025391,-0.258119,0.000000,0.998070,-0.410985,0.000000
1.750000,-2.209847,-0.606206,-1.617977,1.395222,-0.927291,0.367078,2.097673,-0.124869,1.990453,3.516345,8.019844,-1.162220,-13.068022,-1.425595,-37.812313,-0.015422,-0.262090,0.000000,0.994229,-0.382258,0.000000
1.760000,-2.195790,-0.615485,-1.614207,1.416375,-0.928138,0.386925,2.132183,-0.044740,1.976939,3.380450,7.995616,-1.541318,-14.091735,-3.428251,-37.878954,-0.005511,-0.265764,0.000000,0.986498,-0.351919,0.000000
1.770000,-2.181519,-0.624769,-1.610239,1.437866,-0.928186,0.406617,2.165282,0.035044,1.959627,3.234510,7.951279,-1.919799,-15.077160,-5.383511,-37.588084,0.004303,-0.269127,0.000000,0.974944,-0.320206,-0.000000
1.780000,-2.167032,-0.634049,-1.606074,1.459681,-0.927438,0.426117,2.196873,0.114285,1.938543,3.078907,7.887946,-2.293079,-16.023532,-7.258746,-36.987422,0.013984,-0.272168,0.000000,0.959824,-0.287425,-0.000000
1.790000,-2.152326,-0.643318,-1.601716,1.481803,-0.925900,0.445388,2.226860,0.192803,1.913765,2.914040,7.806104,-2.659547,-16.935688,-9.133715,-36.392949,0.023496,-0.274877,0.000000,0.941355,-0.253795,0.000000
1.800000,-2.137396,-0.652567,-1.597167,1.504218,-0.923581,0.464392,2.255154,0.270408,1.885352,2.740193,7.705271,-3.020938,-17.836746,-11.031165,-35.901819,0.032808,-0.277246,0.000000,0.919636,-0.219403,-0.000000
1.810000,-2.122241,-0.661789,-1.592428,1.526907,-0.920492,0.483095,2.281664,0.346908,1.853347,2.557305,7.585480,-3.377584,-18.714272,-12.881115,-35.297561,0.041886,-0.279268,0.000000,0.894835,-0.184341,0.000000
1.820000,-2.106858,-0.670977,-1.587505,1.549851,-0.916643,0.501459,2.306300,0.422117,1.817801,2.365908,7.447649,-3.726890,-19.483371,-14.613469,-34.346418,0.050702,-0.280937,0.000000,0.867253,-0.148860,-0.000000
1.830000,-2.091244,-0.680122,-1.582399,1.573033,-0.912050,0.519451,2.328982,0.495861,1.778809,2.167637,7.293211,-4.064512,-20.135375,-16.232768,-33.113129,0.059229,-0.282250,0.000000,0.837270,-0.113389,0.000000
1.840000,-2.075398,-0.689218,-1.577116,1.596431,-0.906726,0.537035,2.349652,0.567981,1.736511,1.963201,7.122994,-4.389152,-20.778510,-17.813852,-31.908246,0.067446,-0.283210,0.000000,0.805186,-0.078135,-0.000000
1.850000,-2.059316,-0.698257,-1.571659,1.620026,-0.900690,0.554181,2.368246,0.638321,1.691026,1.752067,6.936934,-4.702677,-21.453764,-19.409064,-30.797734,0.075333,-0.283818,0.000000,0.771168,-0.043049,0.000000
1.860000,-2.042997,-0.707232,-1.566032,1.643796,-0.893960,0.570856,2.384694,0.706720,1.642457,1.534125,6.734812,-5.005107,-22.079533,-20.952294,-29.578016,0.082870,-0.284075,0.000000,0.735362,-0.008182,-0.000000
1.870000,-2.026440,-0.716136,-1.560241,1.667719,-0.886556,0.587030,2.398929,0.773017,1.590924,1.310476,6.517888,-5.294237,-22.548232,-22.274395,-28.114692,0.090040,-0.283985,0.000000,0.698104,0.026215,0.000000
1.880000,-2.009643,-0.724963,-1.554292,1.691774,-0.878499,0.602674,2.410903,0.837078,1.536572,1.083161,6.289324,-5.567401,-22.876425,-23.376210,-26.479480,0.096833,-0.283551,0.000000,0.659936,0.059790,-0.000000
1.890000,-1.992604,-0.733706,-1.548188,1.715938,-0.869814,0.617762,2.420592,0.898804,1.479576,0.852948,6.050364,-5.823827,-23.200396,-24.473267,-24.853698,0.103240,-0.282785,0.000000,0.621146,0.092412,-0.000000
1.900000,-1.975324,-0.742359,-1.541936,1.740186,-0.860523,0.632266,2.427962,0.958085,1.420096,0.619153,5.799859,-6.064475,-23.561696,-25.637225,-23.268558,0.109257,-0.281696,0.000000,0.581719,0.124176,-0.000000
1.910000,-1.957801,-0.750916,-1.535543,1.764497,-0.850652,0.646163,2.432975,1.014801,1.358286,0.381714,5.537619,-6.289198,-23.863255,-26.709877,-21.614449,0.114877,-0.280289,0.000000,0.541749,0.155082,-0.000000
1.920000,-1.940034,-0.759372,-1.529013,1.788846,-0.840227,0.659432,2.435597,1.068838,1.294312,0.141888,5.265662,-6.496764,-23.998155,-27.506390,-19.839349,0.120094,-0.278576,0.000000,0.501571,0.184960,0.000000
1.930000,-1.922024,-0.767721,-1.522354,1.813209,-0.829276,0.672050,2.435813,1.120114,1.228351,-0.098249,4.987492,-6.685985,-23.991323,-28.062840,-17.991642,0.124911,-0.276566,0.000000,0.461661,0.213571,0.000000
1.940000,-1.903770,-0.775958,-1.515572,1.837562,-0.817825,0.683999,2.433632,1.168587,1.160592,-0.337939,4.704405,-6.856597,-23.980374,-28.613932,-16.150958,0.129330,-0.274273,0.000000,0.422217,0.240858,0.000000
1.950000,-1.885272,-0.784077,-1.508674,1.861881,-0.805904,0.695262,2.429054,1.214202,1.091219,-0.577857,4.415213,-7.009004,-24.001974,-29.230725,-14.315025,0.133358,-0.271710,0.000000,0.383149,0.266946,-0.000000
1.960000,-1.866532,-0.792076,-1.501667,1.886143,-0.793541,0.705823,2.422074,1.256892,1.020412,-0.817978,4.119790,-7.142897,-23.961634,-29.748015,-12.446469,0.136996,-0.268888,0.000000,0.344484,0.291866,0.000000
1.970000,-1.847550,-0.799948,-1.494558,1.910323,-0.780766,0.715670,2.412694,1.296598,0.948361,-1.057089,3.820253,-7.257933,-23.770665,-29.984238,-10.584723,0.140250,-0.265820,0.000000,0.306471,0.315529,0.000000
1.980000,-1.828326,-0.807691,-1.487353,1.934397,-0.767609,0.724790,2.400933,1.333297,0.875253,-1.293392,3.520106,-7.354592,-23.456852,-29.983127,-8.761269,0.143128,-0.262517,0.000000,0.269476,0.337818,-0.000000
1.990000,-1.808862,-0.815300,-1.480062,1.958341,-0.754100,0.733175,2.386827,1.367000,0.801269,-1.526226,3.220590,-7.433159,-23.136346,-29.980552,-6.936317,0.145642,-0.258995,0.000000,0.233610,0.358735,0.000000
2.000000,-1.789159,-0.822773,-1.472690,1.982133,-0.740269,0.740816,2.370408,1.397708,0.726590,-1.756119,2.920495,-7.493318,-22.838243,-30.039791,-5.068925,0.147803,-0.255267,0.000000,0.198734,0.378387,-0.000000
2.010000,-1.769219,-0.830106,-1.465245,2.005750,-0.726146,0.747707,2.351704,1.425410,0.651403,-1.982991,2.619794,-7.534537,-22.485702,-30.000616,-3.203986,0.149619,-0.251345,0.000000,0.164833,0.396817,-0.000000
2.020000,-1.749044,-0.837296,-1.457736,2.029167,-0.711761,0.753844,2.330748,1.450104,0.575899,-2.205833,2.320482,-7.557398,-22.012725,-29.713622,-1.475042,0.151102,-0.247242,0.000000,0.132071,0.414003,0.000000
2.030000,-1.728636,-0.844341,-1.450169,2.052365,-0.697144,0.759225,2.307588,1.471820,0.500255,-2.423246,2.025522,-7.564038,-21.445319,-29.228881,0.111995,0.152263,-0.242971,0.000000,0.100676,0.429925,0.000000
2.040000,-1.707997,-0.851239,-1.442551,2.075319,-0.682324,0.763849,2.282283,1.490615,0.424619,-2.634739,1.735905,-7.555158,-20.872579,-28.743780,1.721522,0.153118,-0.238544,0.000000,0.070689,0.444615,0.000000
2.050000,-1.687129,-0.857987,-1.434892,2.098010,-0.667331,0.767717,2.254893,1.506538,0.349152,-2.840697,1.450646,-7.529608,-20.309337,-28.296403,3.410404,0.153679,-0.233974,0.000000,0.041982,0.458146,-0.000000
2.060000,-1.666036,-0.864585,-1.427197,2.120417,-0.652194,0.770832,2.225469,1.519628,0.274026,-3.040926,1.169977,-7.486950,-19.699869,-27.758751,5.052530,0.153959,-0.229273,0.000000,0.014534,0.470552,0.000000
2.070000,-1.644721,-0.871031,-1.419475,2.142520,-0.636939,0.773198,2.194074,1.529937,0.199413,-3.234695,0.895471,-7.428557,-19.019889,-27.055175,6.490744,0.153971,-0.224451,0.000000,-0.011568,0.481856,0.000000
2.080000,-1.623186,-0.877324,-1.411733,2.164299,-0.621595,0.774820,2.160776,1.537537,0.125455,-3.421324,0.628873,-7.357135,-18.292246,-26.232888,7.749010,0.153729,-0.219520,0.000000,-0.036249,0.492110,0.000000
2.090000,-1.601435,-0.883463,-1.403979,2.185735,-0.606188,0.775707,2.125648,1.542515,0.052270,-3.600540,0.370813,-7.273577,-17.552102,-25.394475,9.021732,0.153248,-0.214491,0.000000,-0.059516,0.501357,0.000000
2.100000,-1.579471,-0.889448,-1.396219,2.206812,-0.590745,0.775866,2.088765,1.544953,-0.020016,-3.772366,0.120984,-7.176700,-16.799876,-24.550262,10.369296,0.152540,-0.209374,0.000000,-0.081432,0.509626,0.000000
2.110000,-1.557299,-0.895278,-1.388461,2.227510,-0.575289,0.775306,2.050200,1.544934,-0.091264,-3.936537,-0.120192,-7.066191,-16.018021,-23.640490,11.649972,0.151620,-0.204179,0.000000,-0.102004,0.516934,0.000000
2.120000,-1.534921,-0.900954,-1.380713,2.247816,-0.559846,0.774040,2.010034,1.542550,-0.161340,-4.092726,-0.351826,-6.943701,-15.216899,-22.658241,12.700209,0.150501,-0.198915,0.000000,-0.121222,0.523331,0.000000
2.130000,-1.512342,-0.906475,-1.372980,2.267711,-0.544438,0.772080,1.968346,1.537898,-0.230138,-4.240875,-0.573357,-6.812187,-14.408913,-21.632830,13.553674,0.149197,-0.193592,0.000000,-0.139122,0.528911,0.000000
2.140000,-1.489567,-0.911842,-1.365271,2.287182,-0.529088,0.769437,1.925216,1.531082,-0.297584,-4.380904,-0.784483,-6.672627,-13.585172,-20.580025,14.417511,0.147719,-0.188218,0.000000,-0.155735,0.533717,0.000000
2.150000,-1.466599,-0.917057,-1.357592,2.306215,-0.513816,0.766128,1.880728,1.522208,-0.363591,-4.512579,-0.984957,-6.523837,-12.734899,-19.489959,15.345298,0.146082,-0.182800,0.000000,-0.171063,0.537738,0.000000
2.160000,-1.443443,-0.922119,-1.349949,2.324797,-0.498644,0.762166,1.834965,1.511383,-0.428060,-4.635602,-1.174282,-6.365721,-11.870730,-18.362892,16.191870,0.144299,-0.177347,0.000000,-0.185102,0.540979,-0.000000
2.170000,-1.420103,-0.927030,-1.342348,2.342915,-0.483589,0.757567,1.788016,1.498723,-0.490905,-4.749993,-1.352215,-6.199999,-11.030673,-17.241821,16.822967,0.142381,-0.171866,0.000000,-0.197890,0.543500,0.000000
2.180000,-1.396584,-0.931791,-1.334797,2.360557,-0.468669,0.752348,1.739965,1.484339,-0.552060,-4.856216,-1.519118,-6.029262,-10.217684,-16.138153,17.279150,0.140341,-0.166365,0.000000,-0.209531,0.545411,0.000000
2.190000,-1.372892,-0.936403,-1.327301,2.377714,-0.453902,0.746525,1.690891,1.468340,-0.611490,-4.954347,-1.674978,-5.854416,-9.386886,-15.003923,17.732039,0.138190,-0.160849,0.000000,-0.220064,0.546749,-0.000000
2.200000,-1.349030,-0.940869,-1.319867,2.394375,-0.439303,0.740118,1.640878,1.450839,-0.669149,-5.043953,-1.819197,-5.674621,-8.522236,-13.816915,18.223222,0.135940,-0.155324,0.000000,-0.229454,0.547479,-0.000000
2.210000,-1.325004,-0.945189,-1.312499,2.410532,-0.424885,0.733142,1.590012,1.431956,-0.724983,-5.124792,-1.951316,-5.489952,-7.659869,-12.619884,18.636308,0.133601,-0.149796,0.000000,-0.237686,0.547596,-0.000000
2.220000,-1.300819,-0.949366,-1.305204,2.426175,-0.410663,0.725618,1.538382,1.411813,-0.778948,-5.197151,-2.071595,-5.301895,-6.847536,-11.484010,18.871109,0.131186,-0.144272,0.000000,-0.244828,0.547161,-0.000000
2.230000,-1.276481,-0.953402,-1.297987,2.441299,-0.396649,0.717564,1.486069,1.390524,-0.831021,-5.261742,-2.180996,-5.112530,-6.079629,-10.406656,18.963461,0.128704,-0.138757,0.000000,-0.251012,0.546276,0.000000
2.240000,-1.251993,-0.957299,-1.290853,2.455897,-0.382853,0.708998,1.433147,1.368193,-0.881198,-5.318743,-2.279728,-4.922626,-5.298602,-9.303047,19.044827,0.126166,-0.133255,0.000000,-0.256282,0.544972,0.000000
2.250000,-1.227363,-0.961059,-1.283807,2.469962,-0.369285,0.699940,1.379695,1.344930,-0.929473,-5.367714,-2.367057,-4.731633,-4.487278,-8.143512,19.145054,0.123579,-0.127770,0.000000,-0.260581,0.543205,0.000000
2.260000,-1.202594,-0.964685,-1.276854,2.483491,-0.355954,0.690408,1.325793,1.320852,-0.975831,-5.408489,-2.442598,-4.539725,-3.688961,-6.994021,19.178445,0.120954,-0.122306,0.000000,-0.263890,0.540965,0.000000
2.270000,-1.177693,-0.968178,-1.269999,2.496478,-0.342868,0.680423,1.271525,1.296078,-1.020268,-5.441494,-2.506938,-4.348064,-2.952677,-5.941542,19.079935,0.118301,-0.116870,0.000000,-0.266287,0.538308,-0.000000
2.280000,-1.152665,-0.971542,-1.263245,2.508921,-0.330033,0.670003,1.216963,1.270713,-1.062792,-5.467543,-2.561429,-4.158126,-2.269351,-4.974408,18.879749,0.115628,-0.111463,0.000000,-0.267918,0.535319,-0.000000
2.290000,-1.127514,-0.974779,-1.256599,2.520817,-0.317454,0.659167,1.162174,1.244849,-1.103430,-5.486881,-2.606426,-3.970469,-1.578664,-3.985573,18.666607,0.112942,-0.106090,0.000000,-0.268824,0.532024,-0.000000
2.300000,-1.102248,-0.977891,-1.250062,2.532165,-0.305136,0.647934,1.107226,1.218585,-1.142202,-5.499116,-2.641140,-3.784794,-0.863423,-2.943598,18.455066,0.110251,-0.100754,0.000000,-0.268938,0.528377,-0.000000
2.310000,-1.076871,-0.980882,-1.243640,2.542962,-0.293082,0.636323,1.052192,1.192026,-1.179126,-5.504149,-2.665298,-3.601368,-0.167418,-1.927098,18.191166,0.107563,-0.095457,0.000000,-0.268242,0.524368,0.000000
2.320000,-1.051389,-0.983753,-1.237336,2.553208,-0.281295,0.624352,0.997143,1.165279,-1.214229,-5.502464,-2.679682,-3.420970,0.462614,-1.021803,17.853004,0.104886,-0.090205,0.000000,-0.266815,0.520041,0.000000
2.330000,-1.025807,-0.986508,-1.231153,2.562905,-0.269777,0.612038,0.942142,1.138433,-1.247545,-5.494897,-2.685734,-3.244308,1.037396,-0.208967,17.464678,0.102226,-0.084998,0.000000,-0.264793,0.515468,-0.000000
2.340000,-1.000131,-0.989149,-1.225095,2.572051,-0.258527,0.599401,0.887245,1.111564,-1.279115,-5.481716,-2.683862,-3.071677,1.615649,0.618404,17.059738,0.099589,-0.079840,0.000000,-0.262213,0.510668,-0.000000
2.350000,-0.974366,-0.991678,-1.219165,2.580650,-0.247545,0.586456,0.832508,1.084756,-1.308979,-5.462584,-2.673366,-2.903113,2.212067,1.485879,16.633546,0.096981,-0.074733,0.000000,-0.259011,0.505599,-0.000000
2.360000,-0.948518,-0.994100,-1.213366,2.588701,-0.236831,0.573221,0.777993,1.058097,-1.337178,-5.437475,-2.654144,-2.739006,2.785433,2.317802,16.171371,0.094409,-0.069680,0.000000,-0.255180,0.500253,-0.000000
2.370000,-0.922592,-0.996415,-1.207700,2.596209,-0.226383,0.559713,0.723758,1.031673,-1.363759,-5.406875,-2.627010,-2.579686,3.298409,3.048357,15.700776,0.091877,-0.064683,0.000000,-0.250792,0.494665,0.000000
2.380000,-0.896594,-0.998627,-1.202171,2.603177,-0.216198,0.545946,0.669856,1.005557,-1.388771,-5.371507,-2.593177,-2.424990,3.762749,3.698729,15.236035,0.089393,-0.059744,0.000000,-0.245947,0.488888,0.000000
2.390000,-0.870528,-1.000739,-1.196781,2.609607,-0.206272,0.531937,0.616328,0.979809,-1.412259,-5.331620,-2.553035,-2.274965,4.225820,4.351269,14.746003,0.086958,-0.054865,0.000000,-0.240678,0.482933,0.000000
2.400000,-0.844402,-1.002753,-1.191533,2.615503,-0.196602,0.517701,0.563223,0.954496,-1.434271,-5.286990,-2.506151,-2.130070,4.697006,5.022148,14.208493,0.084579,-0.050048,0.000000,-0.234943,0.476772,-0.000000
2.410000,-0.818218,-1.004671,-1.186427,2.620871,-0.187182,0.503252,0.510589,0.929686,-1.454860,-5.237680,-2.452592,-1.990795,5.144244,5.654919,13.652888,0.082259,-0.045295,0.000000,-0.228749,0.470402,-0.000000
2.420000,-0.791984,-1.006496,-1.181468,2.625715,-0.178008,0.488604,0.458470,0.905444,-1.474086,-5.184105,-2.393053,-1.857013,5.545567,6.209738,13.147474,0.080004,-0.040607,0.000000,-0.222149,0.463847,-0.000000
2.430000,-0.765704,-1.008231,-1.176655,2.630040,-0.169073,0.473770,0.406906,0.881825,-1.492000,-5.126769,-2.328398,-1.727845,5.911657,6.704212,12.691225,0.077816,-0.035988,0.000000,-0.215208,0.457138,0.000000
2.440000,-0.739383,-1.009878,-1.171992,2.633853,-0.160372,0.458764,0.355934,0.858876,-1.508643,-5.065872,-2.258969,-1.603188,6.270482,7.188485,12.199773,0.075699,-0.031436,0.000000,-0.207950,0.450283,-0.000000
2.450000,-0.713027,-1.011439,-1.167480,2.637159,-0.151896,0.443597,0.305589,0.836646,-1.524064,-5.001359,-2.184628,-1.483850,6.623828,7.670163,11.652076,0.073657,-0.026955,0.000000,-0.200364,0.443270,-0.000000
2.460000,-0.686640,-1.012916,-1.163120,2.639965,-0.143639,0.428282,0.255907,0.815184,-1.538320,-4.933396,-2.105566,-1.370147,6.953865,8.116204,11.111231,0.071692,-0.022546,0.000000,-0.192463,0.436102,0.000000
2.470000,-0.660228,-1.014311,-1.158914,2.642277,-0.135592,0.412831,0.206921,0.794534,-1.551467,-4.862282,-2.022304,-1.261625,7.258882,8.509490,10.633306,0.069807,-0.018211,0.000000,-0.184283,0.428795,-0.000000
2.480000,-0.633795,-1.015627,-1.154864,2.644103,-0.127748,0.397253,0.158661,0.774737,-1.563553,-4.788218,-1.935376,-1.157481,7.546090,8.861665,10.202262,0.068006,-0.013949,0.000000,-0.175863,0.421357,0.000000
2.490000,-0.607346,-1.016866,-1.150969,2.645450,-0.120097,0.381560,0.111157,0.755827,-1.574617,-4.711360,-1.845070,-1.057580,7.817353,9.194759,9.751873,0.066290,-0.009763,0.000000,-0.167221,0.413792,-0.000000
2.500000,-0.580886,-1.018029,-1.147233,2.646326,-0.112631,0.365761,0.064434,0.737836,-1.584704,-4.631871,-1.751481,-0.962443,8.069875,9.510322,9.274943,0.064661,-0.005655,0.000000,-0.158364,0.406107,0.000000
2.510000,-0.554419,-1.019119,-1.143654,2.646739,-0.105341,0.349866,0.018519,0.720797,-1.593866,-4.549962,-1.654864,-0.872081,8.303771,9.795089,8.819441,0.063122,-0.001624,0.000000,-0.149310,0.398313,-0.000000
2.520000,-0.527951,-1.020136,-1.140235,2.646697,-0.098216,0.333883,-0.026565,0.704739,-1.602146,-4.465796,-1.555579,-0.786054,8.527046,10.047684,8.407124,0.061675,0.002328,0.000000,-0.140084,0.390413,-0.000000
2.530000,-0.501485,-1.021083,-1.136977,2.646208,-0.091246,0.317823,-0.070797,0.689686,-1.609587,-4.379421,-1.453910,-0.703939,8.740877,10.274225,8.025201,0.060321,0.006199,0.000000,-0.130704,0.382407,0.000000
2.540000,-0.475027,-1.021961,-1.133879,2.645281,-0.084422,0.301692,-0.114153,0.675661,-1.616225,-4.290978,-1.350094,-0.625550,8.935405,10.477203,7.651753,0.059061,0.009990,0.000000,-0.121187,0.374300,0.000000
2.550000,-0.448580,-1.022772,-1.130943,2.643925,-0.077733,0.285498,-0.156616,0.662684,-1.622098,-4.200713,-1.244366,-0.550904,9.108356,10.653645,7.281824,0.057897,0.013699,0.000000,-0.111548,0.366106,-0.000000
2.560000,-0.422148,-1.023516,-1.128169,2.642149,-0.071168,0.269250,-0.198168,0.650773,-1.627243,-4.108811,-1.137021,-0.479914,9.267363,10.803745,6.932792,0.056830,0.017325,0.000000,-0.101810,0.357835,-0.000000
2.570000,-0.395737,-1.024195,-1.125558,2.639961,-0.064717,0.252953,-0.238792,0.639943,-1.631696,-4.015366,-1.028291,-0.412248,9.418551,10.937881,6.626230,0.055860,0.020867,0.000000,-0.091988,0.349491,0.000000
2.580000,-0.369349,-1.024810,-1.123110,2.637373,-0.058369,0.236616,-0.278475,0.630207,-1.635488,-3.920440,-0.918264,-0.347389,9.560392,11.058276,6.360904,0.054990,0.024326,0.000000,-0.082085,0.341074,0.000000
2.590000,-0.342989,-1.025362,-1.120825,2.634392,-0.052113,0.220244,-0.317201,0.621578,-1.638644,-3.824158,-0.807126,-0.285030,9.686027,11.152302,6.111188,0.054219,0.027699,0.000000,-0.072112,0.332592,0.000000
2.600000,-0.316661,-1.025852,-1.118705,2.631029,-0.045938,0.203843,-0.354958,0.614065,-1.641188,-3.726719,-0.695218,-0.225165,9.792929,11.213279,5.860434,0.053548,0.030988,0.000000,-0.062097,0.324057,-0.000000
2.610000,-0.290369,-1.026281,-1.116749,2.627293,-0.039832,0.187420,-0.391736,0.607674,-1.643147,-3.628300,-0.582860,-0.167821,9.886490,11.251531,5.629121,0.052977,0.034190,0.000000,-0.052065,0.315481,0.000000
2.620000,-0.264115,-1.026649,-1.114956,2.623194,-0.033784,0.170980,-0.427524,0.602408,-1.644545,-3.528990,-0.470187,-0.112583,9.974948,11.286214,5.466233,0.052506,0.037306,0.000000,-0.042023,0.306868,0.000000
2.630000,-0.237905,-1.026957,-1.113329,2.618742,-0.027784,0.154529,-0.462315,0.598270,-1.645399,-3.428801,-0.357136,-0.058497,10.057748,11.316384,5.370208,0.052136,0.040336,0.000000,-0.031959,0.298219,0.000000
2.640000,-0.211740,-1.027205,-1.111866,2.613948,-0.021819,0.138072,-0.496100,0.595265,-1.645715,-3.327835,-0.243860,-0.005179,10.124562,11.317730,5.276741,0.051867,0.043279,0.000000,-0.021884,0.289542,-0.000000
2.650000,-0.185626,-1.027393,-1.110567,2.608820,-0.015878,0.121615,-0.528872,0.593393,-1.645502,-3.226310,-0.130781,0.047038,10.170588,11.280580,5.162175,0.051699,0.046135,0.000000,-0.011832,0.280853,0.000000
2.660000,-0.159564,-1.027522,-1.109434,2.603370,-0.009951,0.105162,-0.560626,0.592649,-1.644774,-3.124423,-0.018248,0.098065,10.203593,11.222757,5.072293,0.051630,0.048904,0.000000,-0.001833,0.272165,0.000000
2.670000,-0.133558,-1.027592,-1.108464,2.597608,-0.004025,0.088719,-0.591361,0.593028,-1.643541,-3.022238,0.093674,0.148484,10.236887,11.169845,5.065708,0.051662,0.051585,0.000000,0.008112,0.263483,0.000000
2.680000,-0.107612,-1.027603,-1.107659,2.591543,0.001910,0.072291,-0.621071,0.594523,-1.641804,-2.919685,0.205149,0.199379,10.269075,11.117714,5.130191,0.051793,0.054180,0.000000,0.018025,0.254806,-0.000000
2.690000,-0.081727,-1.027554,-1.107018,2.585186,0.007865,0.055883,-0.649754,0.597131,-1.639553,-2.816856,0.316028,0.251088,10.282672,11.033242,5.188920,0.052022,0.056689,0.000000,0.027895,0.246141,-0.000000
2.700000,-0.055908,-1.027446,-1.106542,2.578548,0.013852,0.039500,-0.677408,0.600843,-1.636783,-2.714032,0.425814,0.303157,10.272001,10.908760,5.225685,0.052351,0.059110,0.000000,0.037681,0.237508,0.000000
2.710000,-0.030157,-1.027277,-1.106228,2.571638,0.019882,0.023147,-0.704035,0.605647,-1.633490,-2.611416,0.534203,0.355602,10.249326,10.767129,5.292305,0.052776,0.061445,0.000000,0.047358,0.228926,-0.000000
2.720000,-0.004475,-1.027048,-1.106079,2.564467,0.025965,0.006830,-0.729637,0.611527,-1.629671,-2.509045,0.641156,0.409003,10.228406,10.625935,5.423447,0.053298,0.063695,0.000000,0.056927,0.220398,0.000000
2.730000,0.021133,-1.026758,-1.106092,2.557045,0.032113,-0.009446,-0.754216,0.618470,-1.625310,-2.406848,0.746722,0.464071,10.205610,10.478004,5.601998,0.053915,0.065860,0.000000,0.066399,0.211920,-0.000000
2.740000,0.046666,-1.026406,-1.106268,2.549383,0.038335,-0.025676,-0.777774,0.626462,-1.620389,-2.304933,0.850717,0.521043,10.162956,10.300978,5.783083,0.054626,0.067940,0.000000,0.075762,0.203504,0.000000
2.750000,0.072120,-1.025991,-1.106605,2.541490,0.044642,-0.041854,-0.800314,0.635485,-1.614889,-2.203589,0.952741,0.579732,10.097667,10.091958,5.959311,0.055430,0.069936,0.000000,0.084982,0.195171,-0.000000
2.760000,0.097495,-1.025513,-1.107105,2.533377,0.051044,-0.057974,-0.821845,0.645517,-1.608795,-2.102980,1.052556,0.640230,10.021659,9.865633,6.159153,0.056326,0.071849,0.000000,0.094042,0.186937,-0.000000
2.770000,0.122788,-1.024970,-1.107765,2.525053,0.057552,-0.074030,-0.842374,0.656536,-1.602085,-2.003156,1.150054,0.702915,9.940106,9.627837,6.397582,0.057311,0.073681,0.000000,0.102938,0.178806,-0.000000
2.780000,0.147996,-1.024362,-1.108585,2.516529,0.064175,-0.090015,-0.861908,0.668518,-1.594736,-1.904178,1.245112,0.768181,9.848325,9.373538,6.664531,0.058384,0.075431,0.000000,0.111664,0.170786,0.000000
2.790000,0.173119,-1.023687,-1.109565,2.507815,0.070922,-0.105924,-0.880458,0.681438,-1.586721,-1.806189,1.337525,0.836206,9.739888,9.095312,6.938967,0.059544,0.077102,0.000000,0.120207,0.162889,-0.000000
2.800000,0.198153,-1.022943,-1.110704,2.498920,0.077804,-0.121750,-0.898032,0.695268,-1.578012,-1.709380,1.427019,0.906961,9.617676,8.791034,7.212674,0.060789,0.078695,0.000000,0.128546,0.155130,0.000000
2.810000,0.223097,-1.022131,-1.112000,2.489854,0.084828,-0.137485,-0.914645,0.709978,-1.568582,-1.613836,1.513346,0.980459,9.485210,8.465123,7.497798,0.062115,0.080211,0.000000,0.136663,0.147517,0.000000
2.820000,0.247950,-1.021247,-1.113453,2.480627,0.092003,-0.153121,-0.930309,0.725535,-1.558403,-1.519676,1.596321,1.056917,9.333474,8.122839,7.812574,0.063522,0.081651,0.000000,0.144548,0.140060,0.000000
2.830000,0.272710,-1.020290,-1.115063,2.471248,0.099339,-0.168653,-0.945039,0.741905,-1.547444,-1.427166,1.675802,1.136711,9.160021,7.761718,8.152614,0.065007,0.083018,0.000000,0.152192,0.132785,0.000000
2.840000,0.297375,-1.019260,-1.116826,2.461726,0.106841,-0.184070,-0.958852,0.759051,-1.535669,-1.336475,1.751555,1.219969,8.977222,7.374181,8.490149,0.066566,0.084312,0.000000,0.159582,0.125705,-0.000000
2.850000,0.321944,-1.018154,-1.118744,2.452071,0.114520,-0.199366,-0.971768,0.776936,-1.523044,-1.247622,1.823286,1.306514,8.790506,6.963863,8.813591,0.068198,0.085537,0.000000,0.166693,0.118820,0.000000
2.860000,0.346416,-1.016970,-1.120814,2.442291,0.122380,-0.214531,-0.983805,0.795517,-1.509538,-1.160665,1.890833,1.396241,8.590791,6.534778,9.139493,0.069900,0.086694,0.000000,0.173516,0.112133,0.000000
2.870000,0.370790,-1.015706,-1.123035,2.432395,0.130430,-0.229557,-0.994981,0.814753,-1.495119,-1.075806,1.953982,1.489304,8.365086,6.073797,9.490899,0.071669,0.087785,0.000000,0.180035,0.105663,-0.000000
2.880000,0.395064,-1.014361,-1.125405,2.422391,0.138675,-0.244434,-1.005321,0.834597,-1.479752,-0.993363,2.012309,1.586059,8.115311,5.577253,9.861132,0.073501,0.088813,0.000000,0.186221,0.099438,-0.000000
2.890000,0.419238,-1.012933,-1.127923,2.412289,0.147122,-0.259152,-1.014849,0.854999,-1.463398,-0.913500,2.065527,1.686526,7.858501,5.063054,10.215587,0.075394,0.089780,0.000000,0.192051,0.093473,0.000000
2.900000,0.443310,-1.011419,-1.130588,2.402094,0.155775,-0.273702,-1.023591,0.875907,-1.446022,-0.836193,2.113570,1.790370,7.600815,4.542178,10.545149,0.077342,0.090688,0.000000,0.197521,0.087762,-0.000000
2.910000,0.467280,-1.009817,-1.133397,2.391817,0.164640,-0.288072,-1.031573,0.897270,-1.427591,-0.761483,2.156370,1.897429,7.330480,4.001235,10.870033,0.079344,0.091540,0.000000,0.202627,0.082306,0.000000
2.920000,0.491146,-1.008126,-1.136349,2.381463,0.173721,-0.302253,-1.038821,0.919035,-1.408073,-0.689584,2.193594,2.007771,7.032375,3.412100,11.203893,0.081395,0.092339,0.000000,0.207344,0.077125,0.000000
2.930000,0.514909,-1.006343,-1.139442,2.371040,0.183021,-0.316234,-1.045364,0.941142,-1.387435,-0.620836,2.224612,2.121507,6.709285,2.776651,11.537465,0.083491,0.093088,0.000000,0.211618,0.072248,0.000000
2.940000,0.538567,-1.004465,-1.142674,2.360556,0.192543,-0.330002,-1.051237,0.963527,-1.365643,-0.555398,2.249127,2.238520,6.381482,2.132570,11.848779,0.085628,0.093789,0.000000,0.215426,0.067689,0.000000
2.950000,0.562120,-1.002492,-1.146042,2.350016,0.202291,-0.343547,-1.056472,0.986125,-1.342665,-0.493206,2.267264,2.358483,6.057450,1.494731,12.133582,0.087800,0.094446,0.000000,0.218776,0.063439,-0.000000
2.960000,0.585567,-1.000420,-1.149545,2.339426,0.212266,-0.356855,-1.061101,1.008872,-1.318473,-0.434249,2.279022,2.481192,5.723489,0.836998,12.402690,0.090004,0.095063,0.000000,0.221669,0.059496,0.000000
2.970000,0.608909,-0.998246,-1.153179,2.328794,0.222469,-0.369916,-1.065157,1.031705,-1.293041,-0.378736,2.284004,2.606537,5.358894,0.123264,12.658152,0.092234,0.095641,0.000000,0.224069,0.055877,0.000000
2.980000,0.632143,-0.995970,-1.156943,2.318123,0.232900,-0.382716,-1.068676,1.054552,-1.266343,-0.327071,2.281487,2.734355,4.967461,-0.640724,12.893008,0.094485,0.096185,0.000000,0.225909,0.052619,0.000000
2.990000,0.655271,-0.993588,-1.160834,2.307420,0.243560,-0.395243,-1.071699,1.077335,-1.238354,-0.279387,2.271189,2.864397,4.577639,-1.406026,13.099996,0.096752,0.096698,0.000000,0.227160,0.049732,0.000000
3.000000,0.678292,-0.991099,-1.164848,2.296689,0.254447,-0.407483,-1.074264,1.099976,-1.209055,-0.235518,2.253367,2.996355,4.197411,-2.150117,13.277937,0.099029,0.097184,0.000000,0.227841,0.047201,-0.000000
3.010000,0.701205,-0.988499,-1.168983,2.285935,0.265559,-0.419424,-1.076409,1.122402,-1.178427,-0.195439,2.228187,3.129956,3.808171,-2.906219,13.427445,0.101309,0.097647,0.000000,0.227960,0.045022,0.000000
3.020000,0.724010,-0.985788,-1.173237,2.275161,0.276895,-0.431052,-1.078173,1.144540,-1.146456,-0.159355,2.195242,3.264904,3.393366,-3.729653,13.543116,0.103588,0.098089,0.000000,0.227474,0.043214,0.000000
3.030000,0.746708,-0.982962,-1.177605,2.264371,0.288450,-0.442353,-1.079596,1.166307,-1.113129,-0.127572,2.153594,3.400818,2.958938,-4.610930,13.619227,0.105859,0.098516,0.000000,0.226289,0.041805,-0.000000
3.040000,0.769298,-0.980019,-1.182084,2.253569,0.300221,-0.453314,-1.080724,1.187612,-1.078439,-0.100176,2.103024,3.537288,2.527910,-5.473995,13.658306,0.108114,0.098930,0.000000,0.224373,0.040801,0.000000
3.050000,0.791779,-0.976957,-1.186671,2.242757,0.312202,-0.463922,-1.081600,1.208367,-1.042383,-0.077014,2.044114,3.673984,2.108810,-6.301277,13.674290,0.110347,0.099337,0.000000,0.221768,0.040190,0.000000
3.060000,0.814153,-0.973775,-1.191362,2.231937,0.324388,-0.474162,-1.082264,1.228494,-1.004960,-0.058000,1.976998,3.810774,1.687182,-7.142308,13.660199,0.112550,0.099739,0.000000,0.218474,0.039967,-0.000000
3.070000,0.836418,-0.970469,-1.196154,2.221111,0.336772,-0.484021,-1.082760,1.247907,-0.966168,-0.043270,1.901268,3.947188,1.244084,-8.030223,13.567941,0.114716,0.100141,0.000000,0.214439,0.040145,0.000000
3.080000,0.858575,-0.967039,-1.201043,2.210282,0.349346,-0.493485,-1.083130,1.266519,-0.926016,-0.033118,1.816394,4.082133,0.784709,-8.948628,13.392706,0.116839,0.100547,0.000000,0.209588,0.040748,-0.000000
3.090000,0.880624,-0.963482,-1.206024,2.199449,0.362102,-0.502541,-1.083422,1.284235,-0.884525,-0.027576,1.722295,4.215042,0.336308,-9.851594,13.195963,0.118908,0.100962,0.000000,0.203893,0.041777,-0.000000
3.100000,0.902564,-0.959797,-1.211093,2.188613,0.375031,-0.511176,-1.083681,1.300965,-0.841715,-0.026392,1.619362,4.346052,-0.094617,-10.719912,13.000900,0.120917,0.101389,0.000000,0.197373,0.043220,-0.000000
3.110000,0.924396,-0.955982,-1.216247,2.177775,0.388122,-0.519376,-1.083950,1.316622,-0.797604,-0.029468,1.507897,4.475060,-0.524697,-11.581721,12.761304,0.122856,0.101833,0.000000,0.190037,0.045071,0.000000
3.120000,0.946120,-0.952035,-1.221481,2.166934,0.401363,-0.527128,-1.084271,1.331123,-0.752214,-0.036886,1.387728,4.601278,-0.964436,-12.481574,12.416611,0.124717,0.102297,0.000000,0.181842,0.047339,-0.000000
3.130000,0.967735,-0.947955,-1.226790,2.156090,0.414744,-0.534420,-1.084688,1.344377,-0.705578,-0.048757,1.258265,4.723392,-1.407022,-13.410007,11.976131,0.126492,0.102787,0.000000,0.172694,0.050030,-0.000000
3.140000,0.989241,-0.943740,-1.232169,2.145241,0.428251,-0.541240,-1.085246,1.356288,-0.657746,-0.065026,1.119527,4.840801,-1.836491,-14.301960,11.516765,0.128171,0.103306,0.000000,0.162563,0.053141,-0.000000
3.150000,1.010639,-0.939390,-1.237615,2.134385,0.441870,-0.547575,-1.085988,1.366768,-0.608762,-0.085487,0.972226,4.953728,-2.248668,-15.135979,11.063384,0.129743,0.103859,0.000000,0.151493,0.056663,-0.000000
3.160000,1.031929,-0.934903,-1.243121,2.123521,0.455586,-0.553415,-1.086955,1.375733,-0.558671,-0.110000,0.816808,5.062069,-2.651963,-15.952156,10.561204,0.131201,0.104449,0.000000,0.139496,0.060591,0.000000
3.170000,1.053110,-0.930278,-1.248683,2.112646,0.469385,-0.558748,-1.088188,1.383104,-0.507521,-0.138526,0.653183,5.164952,-3.052179,-16.791581,9.945810,0.132533,0.105081,0.000000,0.126527,0.064922,-0.000000
3.180000,1.074182,-0.925515,-1.254296,2.101757,0.483248,-0.563565,-1.089726,1.388796,-0.455372,-0.171043,0.480976,5.260985,-3.444864,-17.636733,9.228464,0.133731,0.105759,0.000000,0.112501,0.069647,-0.000000
3.190000,1.095145,-0.920613,-1.259954,2.090851,0.497161,-0.567856,-1.091609,1.392723,-0.402301,-0.207423,0.300448,5.349521,-3.819455,-18.427506,8.493407,0.134782,0.106487,0.000000,0.097403,0.074758,-0.000000
3.200000,1.115999,-0.915572,-1.265653,2.079925,0.511103,-0.571611,-1.093874,1.394805,-0.348382,-0.247432,0.112426,5.430853,-4.172719,-19.163188,7.782384,0.135678,0.107269,0.000000,0.081283,0.080243,-0.000000
3.210000,1.136744,-0.910391,-1.271386,2.068974,0.525057,-0.574823,-1.096558,1.394972,-0.293684,-0.290878,-0.082815,5.505169,-4.509221,-19.877607,7.036246,0.136407,0.108107,0.000000,0.064137,0.086093,0.000000
3.220000,1.157378,-0.905070,-1.277149,2.057994,0.539002,-0.577485,-1.099692,1.393149,-0.238279,-0.337617,-0.285126,5.571578,-4.831707,-20.552537,6.146200,0.136960,0.109007,0.000000,0.045935,0.092294,-0.000000
3.230000,1.177903,-0.899611,-1.282936,2.046980,0.552920,-0.579589,-1.103310,1.389269,-0.182253,-0.387512,-0.493866,5.628093,-5.135940,-21.172234,5.126492,0.137325,0.109971,0.000000,0.026680,0.098817,-0.000000
3.240000,1.198318,-0.894012,-1.288741,2.035928,0.566788,-0.581130,-1.107442,1.383272,-0.125717,-0.440336,-0.708571,5.674108,-5.415137,-21.756265,4.124644,0.137492,0.111003,0.000000,0.006375,0.105640,-0.000000
3.250000,1.218622,-0.888275,-1.294559,2.024831,0.580585,-0.582103,-1.112117,1.375098,-0.068771,-0.495814,-0.928991,5.710586,-5.672623,-22.294027,3.178861,0.137451,0.112104,0.000000,-0.014975,0.112750,-0.000000
3.260000,1.238815,-0.882400,-1.300383,2.013685,0.594290,-0.582505,-1.117359,1.364692,-0.011505,-0.553788,-1.154451,5.737685,-5.909844,-22.766644,2.190590,0.137192,0.113279,0.000000,-0.037330,0.120138,-0.000000
3.270000,1.258896,-0.876389,-1.306209,2.002484,0.607879,-0.582333,-1.123192,1.352009,0.045983,-0.614011,-1.384324,5.754397,-6.110555,-23.200906,1.080309,0.136703,0.114530,0.000000,-0.060671,0.127770,0.000000
3.280000,1.278864,-0.870243,-1.312030,1.991221,0.621330,-0.581586,-1.129639,1.337005,0.103583,-0.675999,-1.618469,5.759291,-6.268979,-23.593710,-0.120780,0.135977,0.115859,0.000000,-0.085029,0.135582,-0.000000
3.290000,1.298720,-0.863963,-1.317841,1.979891,0.634619,-0.580262,-1.136712,1.319639,0.161169,-0.739391,-1.856199,5.751982,-6.404832,-23.899569,-1.305520,0.135001,0.117268,0.000000,-0.110365,0.143531,0.000000
3.300000,1.318462,-0.857550,-1.323635,1.968487,0.647723,-0.578362,-1.144427,1.299882,0.218623,-0.804096,-2.096461,5.733181,-6.538358,-24.153732,-2.440021,0.133768,0.118757,0.000000,-0.136582,0.151612,-0.000000
3.310000,1.338090,-0.851008,-1.329408,1.957003,0.660617,-0.575889,-1.152794,1.277710,0.275833,-0.870158,-2.339273,5.703181,-6.652247,-24.377477,-3.592516,0.132268,0.120328,0.000000,-0.163694,0.159829,-0.000000
3.320000,1.357602,-0.844338,-1.335153,1.945431,0.673277,-0.572846,-1.161830,1.253096,0.332686,-0.937141,-2.584010,5.661330,-6.687648,-24.442529,-4.839649,0.130492,0.121982,0.000000,-0.191657,0.168123,0.000000
3.330000,1.376998,-0.837543,-1.340865,1.933766,0.685679,-0.569236,-1.171537,1.226030,0.389059,-1.003911,-2.828124,5.606388,-6.645393,-24.324677,-6.159095,0.128433,0.123719,0.000000,-0.220230,0.176351,-0.000000
3.340000,1.396278,-0.830625,-1.346538,1.922000,0.697797,-0.565065,-1.181908,1.196534,0.444814,-1.070049,-3.070504,5.538148,-6.603005,-24.197301,-7.441789,0.126086,0.125539,0.000000,-0.249293,0.184451,0.000000
3.350000,1.415438,-0.823587,-1.352166,1.910128,0.709609,-0.560339,-1.192938,1.164620,0.499822,-1.135971,-3.312070,5.457553,-6.578130,-24.131752,-8.650686,0.123446,0.127438,0.000000,-0.278919,0.192464,-0.000000
3.360000,1.434480,-0.816432,-1.357744,1.898142,0.721090,-0.555068,-1.204627,1.130292,0.553965,-1.201611,-3.553139,5.365135,-6.516317,-24.001651,-9.853548,0.120506,0.129418,0.000000,-0.309121,0.200374,0.000000
3.370000,1.453401,-0.809165,-1.363267,1.886035,0.732215,-0.549260,-1.216970,1.093557,0.607125,-1.266297,-3.792103,5.260482,-6.379108,-23.634741,-11.126551,0.117262,0.131475,0.000000,-0.339712,0.208084,0.000000
3.380000,1.472201,-0.801788,-1.368730,1.873802,0.742961,-0.542926,-1.229953,1.054450,0.659175,-1.329193,-4.025834,5.142604,-6.180037,-23.067468,-12.441218,0.113710,0.133608,0.000000,-0.370340,0.215471,-0.000000
3.390000,1.490877,-0.794306,-1.374126,1.861436,0.753304,-0.536077,-1.243554,1.013040,0.709977,-1.389898,-4.253452,5.011657,-5.967468,-22.523138,-13.687403,0.109854,0.135813,0.000000,-0.400860,0.222466,0.000000
3.400000,1.509430,-0.786722,-1.379451,1.848931,0.763222,-0.528726,-1.257751,0.969381,0.759408,-1.448543,-4.476296,4.868856,-5.770626,-22.016036,-14.860311,0.105692,0.138085,0.000000,-0.431349,0.229075,0.000000
3.410000,1.527856,-0.779041,-1.384700,1.836281,0.772692,-0.520888,-1.272525,0.923515,0.807354,-1.505311,-4.693773,4.714451,-5.555313,-21.396409,-16.023637,0.101226,0.140420,0.000000,-0.461687,0.235293,-0.000000
3.420000,1.546155,-0.771268,-1.389869,1.823481,0.781692,-0.512579,-1.287857,0.875506,0.853697,-1.559649,-4.904225,4.548383,-5.240557,-20.655453,-17.155554,0.096458,0.142814,0.000000,-0.491627,0.241031,-0.000000
3.430000,1.564326,-0.763407,-1.394952,1.810524,0.790202,-0.503814,-1.303718,0.825430,0.898322,-1.610122,-5.106882,4.371340,-4.834057,-19.838965,-18.219333,0.091393,0.145263,0.000000,-0.521002,0.246114,-0.000000
3.440000,1.582366,-0.755464,-1.399945,1.797406,0.798201,-0.494613,-1.320060,0.773368,0.941124,-1.656330,-5.301004,4.183996,-4.446193,-18.948917,-19.239156,0.086037,0.147757,0.000000,-0.549645,0.250476,-0.000000
3.450000,1.600274,-0.747443,-1.404844,1.784123,0.805669,-0.484992,-1.336845,0.719410,0.982002,-1.699046,-5.485860,3.986557,-4.101039,-18.031833,-20.259420,0.080400,0.150290,0.000000,-0.577389,0.254174,-0.000000
3.460000,1.618048,-0.739351,-1.409645,1.770669,0.812589,-0.474973,-1.354041,0.663651,1.020855,-1.738351,-5.661641,3.778808,-3.724952,-17.085792,-21.249717,0.074490,0.152857,0.000000,-0.604167,0.257184,-0.000000
3.470000,1.635687,-0.731192,-1.414344,1.757042,0.818942,-0.464575,-1.371612,0.606177,1.057578,-1.773545,-5.827576,3.561562,-3.272753,-15.959292,-22.075749,0.068317,0.155448,0.000000,-0.629793,0.259412,0.000000
3.480000,1.653189,-0.722972,-1.418937,1.743237,0.824712,-0.453821,-1.389512,0.547099,1.092086,-1.803806,-5.980826,3.337293,-2.772658,-14.642635,-22.730745,0.061894,0.158056,0.000000,-0.653833,0.260784,-0.000000
3.490000,1.670552,-0.714697,-1.423420,1.729252,0.829884,-0.442733,-1.407688,0.486561,1.124324,-1.828998,-6.120429,3.106948,-2.283493,-13.350468,-23.387049,0.055241,0.160673,0.000000,-0.676079,0.261278,-0.000000
3.500000,1.687774,-0.706374,-1.427791,1.715083,0.834444,-0.431335,-1.426092,0.424691,1.154225,-1.849476,-6.247836,2.869552,-1.794657,-12.155833,-24.098538,0.048374,0.163289,0.000000,-0.696611,0.260894,0.000000
3.510000,1.704854,-0.698008,-1.432047,1.700730,0.838378,-0.419649,-1.444677,0.361604,1.181715,-1.864891,-6.363546,2.624977,-1.271697,-10.913942,-24.738303,0.041310,0.165896,0.000000,-0.715397,0.259571,-0.000000
3.520000,1.721789,-0.689607,-1.436184,1.686190,0.841676,-0.407700,-1.463390,0.297420,1.206724,-1.874910,-6.466115,2.374786,-0.755206,-9.472031,-25.170810,0.034068,0.168484,0.000000,-0.732180,0.257284,-0.000000
3.530000,1.738577,-0.681175,-1.440201,1.671462,0.844326,-0.395514,-1.482175,0.232282,1.229210,-1.879995,-6.552986,2.121561,-0.261667,-7.877415,-25.430027,0.026669,0.171044,0.000000,-0.746582,0.254125,-0.000000
3.540000,1.755218,-0.672720,-1.444094,1.656546,0.846321,-0.383116,-1.500989,0.166360,1.249156,-1.880143,-6.623663,1.866185,0.263604,-6.337728,-25.684590,0.019138,0.173568,0.000000,-0.758480,0.250106,-0.000000
3.550000,1.771708,-0.664249,-1.447863,1.641442,0.847654,-0.370531,-1.519778,0.099808,1.266534,-1.874723,-6.679741,1.607869,0.828462,-4.893045,-25.952782,0.011501,0.176046,0.000000,-0.768005,0.245138,0.000000
3.560000,1.788047,-0.655767,-1.451505,1.626151,0.848318,-0.357785,-1.538484,0.032765,1.281313,-1.863574,-6.721524,1.347130,1.392177,-3.411502,-26.117488,0.003781,0.178470,0.000000,-0.775145,0.239214,-0.000000
3.570000,1.804231,-0.647282,-1.455019,1.610673,0.848309,-0.344905,-1.557050,-0.034622,1.293477,-1.846879,-6.747971,1.085519,1.943297,-1.822998,-26.138283,-0.003999,0.180830,0.000000,-0.779747,0.232392,0.000000
3.580000,1.820260,-0.638801,-1.458403,1.595010,0.847625,-0.331916,-1.575421,-0.102194,1.303023,-1.824708,-6.757984,0.824364,2.498692,-0.184733,-26.042375,-0.011812,0.183117,0.000000,-0.781667,0.224718,0.000000
3.590000,1.836131,-0.630330,-1.461657,1.579164,0.846265,-0.318844,-1.593544,-0.169782,1.309964,-1.796906,-6.751665,0.564672,3.065438,1.405950,-25.874294,-0.019630,0.185324,0.000000,-0.780916,0.216212,-0.000000
3.600000,1.851843,-0.621876,-1.464780,1.563139,0.844229,-0.305717,-1.611360,-0.237228,1.314317,-1.763399,-6.729865,0.306878,3.603647,2.981540,-25.707609,-0.027427,0.187442,0.000000,-0.777605,0.206892,-0.000000
3.610000,1.867394,-0.613445,-1.467772,1.546937,0.841520,-0.292558,-1.628812,-0.304379,1.316102,-1.724833,-6.692035,0.050519,4.109341,4.591740,-25.506014,-0.035179,0.189463,0.000000,-0.771690,0.196843,0.000000
3.620000,1.882782,-0.605045,-1.470631,1.530563,0.838142,-0.279395,-1.645856,-0.371068,1.315327,-1.681212,-6.638030,-0.203242,4.688067,6.115382,-25.047321,-0.042859,0.191380,0.000000,-0.763190,0.186114,-0.000000
3.630000,1.898006,-0.596682,-1.473359,1.514020,0.834099,-0.266251,-1.662436,-0.437140,1.312037,-1.631071,-6.569727,-0.450427,5.342789,7.520701,-24.328606,-0.050441,0.193188,0.000000,-0.752392,0.174653,-0.000000
3.640000,1.913063,-0.588363,-1.475956,1.497314,0.829399,-0.253154,-1.678478,-0.502463,1.306319,-1.574357,-6.487616,-0.689814,5.922829,8.964894,-23.655594,-0.057904,0.194877,0.000000,-0.739428,0.162512,-0.000000
3.650000,1.927952,-0.580094,-1.478422,1.480450,0.824050,-0.240125,-1.693923,-0.566892,1.298240,-1.512615,-6.390429,-0.923539,6.409200,10.470686,-23.112431,-0.065227,0.196443,0.000000,-0.724207,0.149849,0.000000
3.660000,1.942672,-0.571882,-1.480759,1.463436,0.818061,-0.227189,-1.708730,-0.630271,1.287848,-1.446173,-6.278202,-1.152063,6.899800,11.920181,-22.490826,-0.072387,0.197881,0.000000,-0.706804,0.136721,-0.000000
3.670000,1.957220,-0.563733,-1.482966,1.446276,0.811444,-0.214368,-1.722847,-0.692456,1.275199,-1.374619,-6.152025,-1.373355,7.404942,13.269659,-21.618220,-0.079362,0.199185,0.000000,-0.687436,0.123155,-0.000000
3.680000,1.971597,-0.555653,-1.485046,1.428979,0.804212,-0.201685,-1.736222,-0.753312,1.260381,-1.298074,-6.012809,-1.584427,7.878137,14.550549,-20.564930,-0.086134,0.200351,0.000000,-0.666322,0.109265,-0.000000
3.690000,1.985800,-0.547649,-1.487000,1.411551,0.796378,-0.189161,-1.748808,-0.812712,1.243511,-1.217056,-5.861014,-1.784654,8.309076,15.800865,-19.557893,-0.092688,0.201378,0.000000,-0.643614,0.095150,0.000000
3.700000,1.999828,-0.539726,-1.488829,1.394002,0.787958,-0.176815,-1.760563,-0.870532,1.224688,-1.131892,-5.696792,-1.975585,8.760597,17.025253,-18.617636,-0.099006,0.202263,0.000000,-0.619401,0.080838,0.000000
3.710000,2.013680,-0.531890,-1.490536,1.376340,0.778968,-0.164667,-1.771446,-0.926648,1.203999,-1.041844,-5.520509,-2.157007,9.228148,18.190372,-17.600483,-0.105075,0.203003,0.000000,-0.593815,0.066278,0.000000
3.720000,2.027355,-0.524146,-1.492123,1.358574,0.769425,-0.152735,-1.781400,-0.980942,1.181548,-0.947329,-5.332984,-2.327595,9.530176,19.257625,-16.485981,-0.110882,0.203596,0.000000,-0.567047,0.051568,-0.000000
3.730000,2.040852,-0.516501,-1.493591,1.340712,0.759349,-0.141036,-1.790393,-1.033308,1.157447,-0.851241,-5.135357,-2.486726,9.654594,20.225069,-15.329826,-0.116416,0.204041,0.000000,-0.539307,0.037061,-0.000000
3.740000,2.054169,-0.508959,-1.494943,1.322766,0.748759,-0.129586,-1.798425,-1.083649,1.131813,-0.754237,-4.928483,-2.634191,9.846816,21.134175,-14.159939,-0.121669,0.204343,0.000000,-0.510766,0.022849,-0.000000
3.750000,2.067307,-0.501526,-1.496183,1.304744,0.737676,-0.118400,-1.805477,-1.131877,1.104763,-0.654304,-4.712673,-2.769925,10.156386,22.028747,-12.983749,-0.126632,0.204502,0.000000,-0.481533,0.008720,0.000000
3.760000,2.080264,-0.494206,-1.497311,1.286656,0.726121,-0.107491,-1.811511,-1.177903,1.076415,-0.551110,-4.487908,-2.893866,10.412601,22.870401,-11.793430,-0.131300,0.204519,0.000000,-0.451671,-0.005347,0.000000
3.770000,2.093040,-0.487004,-1.498332,1.268513,0.714118,-0.096871,-1.816500,-1.221636,1.046886,-0.446052,-4.255265,-3.005794,10.522885,23.521941,-10.574604,-0.135666,0.204395,0.000000,-0.421355,-0.019190,0.000000
3.780000,2.105634,-0.479923,-1.499249,1.250326,0.701688,-0.086553,-1.820432,-1.263008,1.016299,-0.340652,-4.017469,-3.105358,10.543777,23.973416,-9.341224,-0.139728,0.204132,0.000000,-0.390932,-0.032633,0.000000
3.790000,2.118047,-0.472970,-1.500064,1.232105,0.688857,-0.076545,-1.823313,-1.301985,0.984779,-0.235177,-3.775797,-3.192618,10.586805,24.406289,-8.125104,-0.143486,0.203736,0.000000,-0.360576,-0.045650,-0.000000
3.800000,2.130276,-0.466146,-1.500780,1.213860,0.675649,-0.066857,-1.825136,-1.338524,0.952446,-0.128916,-3.529343,-3.267860,10.651930,24.934522,-6.904857,-0.146941,0.203210,0.000000,-0.330216,-0.058327,-0.000000
3.810000,2.142324,-0.459457,-1.501401,1.195602,0.662087,-0.057496,-1.825891,-1.372572,0.919421,-0.022138,-3.277107,-3.330715,10.666850,25.423514,-5.671633,-0.150091,0.202557,0.000000,-0.299776,-0.070634,-0.000000
3.820000,2.154188,-0.452905,-1.501930,1.177342,0.648197,-0.048469,-1.825579,-1.404066,0.885832,0.084421,-3.020873,-3.381293,10.634952,25.571377,-4.514977,-0.152937,0.201782,0.000000,-0.269464,-0.082501,0.000000
3.830000,2.165871,-0.446493,-1.502370,1.159090,0.634006,-0.039780,-1.824203,-1.432989,0.851796,0.190561,-2.765679,-3.421015,10.581381,25.407524,-3.454213,-0.155482,0.200888,0.000000,-0.239807,-0.093947,-0.000000
3.840000,2.177370,-0.440224,-1.502725,1.140858,0.619538,-0.031433,-1.821767,-1.459380,0.817412,0.296049,-2.512723,-3.450377,10.497275,25.336394,-2.376844,-0.157735,0.199880,0.000000,-0.210919,-0.104970,-0.000000
3.850000,2.188688,-0.434102,-1.502999,1.122655,0.604818,-0.023432,-1.818282,-1.483244,0.782788,0.400506,-2.258951,-3.468552,10.389084,25.433642,-1.237311,-0.159701,0.198763,0.000000,-0.182483,-0.115523,-0.000000
3.860000,2.199823,-0.428128,-1.503194,1.104492,0.589873,-0.015777,-1.813757,-1.504559,0.748041,0.503830,-2.004050,-3.475124,10.264589,25.426025,-0.123892,-0.161385,0.197540,0.000000,-0.154470,-0.125602,0.000000
3.870000,2.210778,-0.422305,-1.503314,1.086380,0.574727,-0.008471,-1.808205,-1.523325,0.713286,0.605798,-1.750431,-3.471030,10.096473,25.173835,0.839958,-0.162792,0.196218,0.000000,-0.127106,-0.135216,-0.000000
3.880000,2.221551,-0.416634,-1.503363,1.068328,0.559406,-0.001511,-1.801641,-1.539568,0.678620,0.705760,-1.500573,-3.458324,9.881322,24.778805,1.668054,-0.163929,0.194800,0.000000,-0.100599,-0.144356,-0.000000
3.890000,2.232144,-0.411117,-1.503344,1.050347,0.543936,0.005102,-1.794090,-1.553336,0.644119,0.803425,-1.254855,-3.437669,9.660315,24.414474,2.514415,-0.164805,0.193292,0.000000,-0.074956,-0.153020,-0.000000
3.900000,2.242558,-0.405755,-1.503261,1.032446,0.528339,0.011371,-1.785573,-1.564665,0.609867,0.898966,-1.012284,-3.408036,9.446307,24.037410,3.436714,-0.165429,0.191698,0.000000,-0.050069,-0.161218,0.000000
3.910000,2.252793,-0.400550,-1.503117,1.014636,0.512642,0.017299,-1.776110,-1.573582,0.575958,0.992351,-0.774106,-3.368934,9.212840,23.544898,4.321933,-0.165807,0.190023,0.000000,-0.026054,-0.168954,-0.000000
3.920000,2.262851,-0.395502,-1.502915,0.996924,0.496868,0.022890,-1.765726,-1.580147,0.542488,1.083223,-0.541386,-3.321597,8.937860,23.078839,5.013986,-0.165951,0.188272,0.000000,-0.002973,-0.176231,0.000000
3.930000,2.272732,-0.390612,-1.502659,0.979321,0.481039,0.028149,-1.754446,-1.584410,0.509526,1.171108,-0.312530,-3.268655,8.633315,22.683700,5.539017,-0.165867,0.186449,0.000000,0.019408,-0.183064,0.000000
3.940000,2.282437,-0.385881,-1.502352,0.961835,0.465180,0.033081,-1.742304,-1.586397,0.477115,1.255889,-0.087712,-3.210817,8.330175,22.164900,6.097911,-0.165563,0.184560,0.000000,0.041107,-0.189470,-0.000000
3.950000,2.291968,-0.381309,-1.501998,0.944475,0.449311,0.037691,-1.729328,-1.586164,0.445310,1.337711,0.130768,-3.146696,8.020299,21.518863,6.736997,-0.165046,0.182608,0.000000,0.061888,-0.195447,0.000000
3.960000,2.301327,-0.376895,-1.501598,0.927249,0.433456,0.041987,-1.715549,-1.583782,0.414181,1.416295,0.342666,-3.076077,7.686693,20.883624,7.316948,-0.164326,0.180597,0.000000,0.081749,-0.200977,-0.000000
3.970000,2.310513,-0.372640,-1.501158,0.910164,0.417636,0.045975,-1.701002,-1.579310,0.383789,1.491445,0.548441,-3.000357,7.361914,20.224140,7.729563,-0.163411,0.178533,0.000000,0.100785,-0.206078,0.000000
3.980000,2.319530,-0.368542,-1.500679,0.893229,0.401870,0.049663,-1.685720,-1.572813,0.354174,1.563534,0.747148,-2.921486,7.055578,19.497448,8.017331,-0.162310,0.176420,0.000000,0.118955,-0.210833,-0.000000
3.990000,2.328378,-0.364602,-1.500165,0.876450,0.386179,0.053058,-1.669732,-1.564368,0.325359,1.632557,0.938390,-2.840011,6.724756,18.771377,8.317202,-0.161032,0.174260,0.000000,0.136247,-0.215260,-0.000000
4.000000,2.337059,-0.360819,-1.499618,0.859834,0.370583,0.056170,-1.653069,-1.554045,0.297374,1.698029,1.122576,-2.755142,6.363027,18.043183,8.651629,-0.159586,0.172058,0.000000,0.152715,-0.219303,-0.000000
4.010000,2.345575,-0.357191,-1.499041,0.843388,0.355099,0.059006,-1.635771,-1.541916,0.270256,1.759817,1.299253,-2.666978,6.002337,17.272251,8.929603,-0.157978,0.169818,0.000000,0.168332,-0.222959,0.000000
4.020000,2.353927,-0.353717,-1.498438,0.827119,0.339744,0.061575,-1.617873,-1.528060,0.244034,1.818075,1.468021,-2.576550,5.654082,16.513025,9.100566,-0.156219,0.167543,0.000000,0.183093,-0.226269,-0.000000
4.030000,2.362117,-0.350396,-1.497810,0.811031,0.324537,0.063886,-1.599410,-1.512556,0.218725,1.872899,1.629514,-2.484967,5.309697,15.788212,9.195256,-0.154317,0.165236,0.000000,0.197095,-0.229266,0.000000
4.040000,2.370147,-0.347226,-1.497160,0.795130,0.309493,0.065949,-1.580415,-1.495470,0.194335,1.924269,1.783785,-2.392645,4.959113,15.025855,9.278633,-0.152277,0.162902,0.000000,0.210365,-0.231960,0.000000
4.050000,2.378019,-0.344206,-1.496491,0.779423,0.294628,0.067773,-1.560924,-1.476880,0.170872,1.972081,1.930031,-2.299394,4.599317,14.204754,9.361521,-0.150109,0.160543,0.000000,0.222831,-0.234341,0.000000
4.060000,2.385736,-0.341333,-1.495805,0.763912,0.279956,0.069367,-1.540973,-1.456869,0.148347,2.016256,2.067880,-2.205414,4.238998,13.380387,9.403567,-0.147821,0.158162,0.000000,0.234473,-0.236407,0.000000
4.070000,2.393298,-0.338607,-1.495103,0.748603,0.265491,0.070740,-1.520599,-1.435522,0.126764,2.056861,2.197639,-2.111323,3.893228,12.602393,9.382099,-0.145420,0.155762,0.000000,0.245340,-0.238177,-0.000000
4.080000,2.400708,-0.336024,-1.494390,0.733500,0.251245,0.071902,-1.499836,-1.412917,0.106120,2.094120,2.319928,-2.017772,3.561555,11.857963,9.313439,-0.142914,0.153347,0.000000,0.255511,-0.239687,0.000000
4.090000,2.407968,-0.333582,-1.493665,0.718606,0.237232,0.072862,-1.478717,-1.389124,0.086408,2.128092,2.434798,-1.925054,3.226074,11.089133,9.230059,-0.140309,0.150919,0.000000,0.265004,-0.240947,0.000000
4.100000,2.415080,-0.331279,-1.492932,0.703926,0.223463,0.073630,-1.457274,-1.364221,0.067619,2.158642,2.541711,-1.833171,2.881775,10.283979,9.133096,-0.137613,0.148480,0.000000,0.273770,-0.241944,-0.000000
4.110000,2.422046,-0.329113,-1.492193,0.689461,0.209948,0.074215,-1.435544,-1.338289,0.049745,2.185728,2.640478,-1.742392,2.542730,9.485644,9.005189,-0.134834,0.146034,0.000000,0.281799,-0.242678,0.000000
4.120000,2.428869,-0.327080,-1.491448,0.675215,0.196697,0.074625,-1.413560,-1.311411,0.032772,2.209496,2.731424,-1.653067,2.224077,8.730930,8.853180,-0.131977,0.143582,0.000000,0.289132,-0.243167,0.000000
4.130000,2.435551,-0.325179,-1.490700,0.661190,0.183720,0.074870,-1.391354,-1.283661,0.016684,2.230209,2.815096,-1.565329,1.923316,8.009987,8.688166,-0.129051,0.141127,0.000000,0.295827,-0.243440,0.000000
4.140000,2.442093,-0.323406,-1.489951,0.647388,0.171024,0.074959,-1.368956,-1.255109,0.001465,2.247963,2.891623,-1.479304,1.622329,7.279811,8.504252,-0.126061,0.138672,0.000000,0.301900,-0.243505,0.000000
4.150000,2.448498,-0.321758,-1.489201,0.633811,0.158617,0.074900,-1.346395,-1.225829,-0.012903,2.262656,2.960692,-1.395244,1.314907,6.529121,8.290235,-0.123013,0.136218,0.000000,0.307323,-0.243354,-0.000000
4.160000,2.454769,-0.320233,-1.488453,0.620460,0.146507,0.074701,-1.323702,-1.195895,-0.026440,2.274261,3.022206,-1.313499,1.014880,5.790005,8.055314,-0.119914,0.133768,0.000000,0.312091,-0.242988,0.000000
4.170000,2.460907,-0.318828,-1.487707,0.607337,0.134700,0.074371,-1.300909,-1.165384,-0.039173,2.282954,3.076493,-1.234137,0.740408,5.096839,7.836617,-0.116771,0.131323,0.000000,0.316236,-0.242421,-0.000000
4.180000,2.466916,-0.317539,-1.486965,0.594442,0.123200,0.073917,-1.278043,-1.134365,-0.051123,2.289069,3.124143,-1.156767,0.488651,4.442487,7.636655,-0.113589,0.128886,0.000000,0.319810,-0.241681,-0.000000
4.190000,2.472796,-0.316364,-1.486229,0.581776,0.112012,0.073348,-1.255128,-1.102902,-0.062308,2.292727,3.165342,-1.081404,0.236994,3.785080,7.409749,-0.110374,0.126458,0.000000,0.322830,-0.240775,0.000000
4.200000,2.478551,-0.315299,-1.485498,0.569339,0.101142,0.072671,-1.232189,-1.071059,-0.072751,2.293809,3.199844,-1.008572,-0.019986,3.114848,7.143106,-0.107132,0.124041,0.000000,0.325274,-0.239697,-0.000000
4.210000,2.484183,-0.314341,-1.484775,0.557132,0.090591,0.071893,-1.209252,-1.038905,-0.082479,2.292327,3.227639,-0.938542,-0.266042,2.462150,6.871769,-0.103869,0.121636,0.000000,0.327142,-0.238447,0.000000
4.220000,2.489694,-0.313487,-1.484061,0.545154,0.080363,0.071022,-1.186342,-1.006506,-0.091522,2.288488,3.249087,-0.871137,-0.487138,1.853802,6.630630,-0.100589,0.119246,0.000000,0.328463,-0.237042,0.000000
4.230000,2.495086,-0.312734,-1.483355,0.533405,0.070461,0.070063,-1.163482,-0.973923,-0.099902,2.282584,3.264715,-0.805929,-0.687291,1.281711,6.412502,-0.097299,0.116871,0.000000,0.329282,-0.235501,-0.000000
4.240000,2.500362,-0.312078,-1.482659,0.521884,0.060885,0.069024,-1.140691,-0.941212,-0.107640,2.274742,3.274721,-0.742887,-0.883860,0.713310,6.175926,-0.094003,0.114513,0.000000,0.329614,-0.233835,-0.000000
4.250000,2.505524,-0.311516,-1.481974,0.510591,0.051637,0.067910,-1.117987,-0.908429,-0.114760,2.264907,3.278981,-0.682411,-1.083045,0.143813,5.908321,-0.090707,0.112173,0.000000,0.329449,-0.232039,-0.000000
4.260000,2.510574,-0.311045,-1.481301,0.499525,0.042716,0.066728,-1.095392,-0.875632,-0.121288,2.253081,3.277598,-0.624720,-1.272525,-0.403809,5.640674,-0.087414,0.109853,0.000000,0.328793,-0.230113,0.000000
4.270000,2.515514,-0.310662,-1.480640,0.488683,0.034124,0.065484,-1.072926,-0.842877,-0.127254,2.239456,3.270905,-0.569597,-1.435320,-0.916815,5.409943,-0.084131,0.107553,0.000000,0.327673,-0.228071,0.000000
4.280000,2.520348,-0.310363,-1.479991,0.478066,0.025859,0.064183,-1.050603,-0.810214,-0.132680,2.224375,3.259261,-0.516521,-1.574676,-1.401490,5.209440,-0.080861,0.105275,0.000000,0.326118,-0.225938,0.000000
4.290000,2.525076,-0.310145,-1.479356,0.467671,0.017920,0.062831,-1.028438,-0.777691,-0.137585,2.207963,3.242875,-0.465409,-1.712830,-1.872526,4.993280,-0.077608,0.103020,0.000000,0.324142,-0.223723,0.000000
4.300000,2.529701,-0.310004,-1.478735,0.457497,0.010305,0.061432,-1.006444,-0.745356,-0.141989,2.190118,3.221811,-0.416656,-1.853776,-2.335149,4.750198,-0.074378,0.100787,0.000000,0.321753,-0.221418,0.000000
4.310000,2.534226,-0.309939,-1.478128,0.447542,0.003013,0.059991,-0.984636,-0.713255,-0.145918,2.170887,3.196173,-0.370405,-1.982494,-2.778741,4.513131,-0.071173,0.098579,0.000000,0.318957,-0.219026,0.000000
4.320000,2.538652,-0.309944,-1.477535,0.437805,-0.003960,0.058513,-0.963026,-0.681433,-0.149397,2.150468,3.166236,-0.326393,-2.090950,-3.187210,4.311576,-0.067998,0.096396,0.000000,0.315776,-0.216561,-0.000000
4.330000,2.542982,-0.310018,-1.476957,0.428282,-0.010616,0.057003,-0.941626,-0.649930,-0.152446,2.129068,3.132428,-0.284173,-2.183933,-3.562986,4.136752,-0.064857,0.094238,0.000000,0.312247,-0.214038,0.000000
4.340000,2.547217,-0.310156,-1.476395,0.418972,-0.016959,0.055464,-0.920445,-0.618784,-0.155080,2.106790,3.094976,-0.243658,-2.271612,-3.926962,3.952156,-0.061753,0.092106,0.000000,0.308389,-0.211464,0.000000
4.350000,2.551361,-0.310357,-1.475848,0.409873,-0.022992,0.053901,-0.899491,-0.588031,-0.157319,2.083636,3.053889,-0.205130,-2.357094,-4.283553,3.749920,-0.058690,0.090000,0.000000,0.304200,-0.208840,0.000000
4.360000,2.555415,-0.310616,-1.475317,0.400982,-0.028719,0.052318,-0.878772,-0.557706,-0.159183,2.059648,3.009305,-0.168660,-2.433847,-4.618353,3.555517,-0.055669,0.087922,0.000000,0.299693,-0.206168,0.000000
4.370000,2.559381,-0.310931,-1.474802,0.392298,-0.034146,0.050718,-0.858298,-0.527845,-0.160692,2.034959,2.961522,-0.134020,-2.493903,-4.921561,3.389386,-0.052696,0.085870,0.000000,0.294892,-0.203459,-0.000000
4.380000,2.563261,-0.311299,-1.474303,0.383816,-0.039276,0.049104,-0.838073,-0.498476,-0.161863,2.009770,2.910874,-0.100872,-2.539274,-5.197598,3.244228,-0.049772,0.083847,0.000000,0.289827,-0.200726,-0.000000
4.390000,2.567057,-0.311717,-1.473820,0.375536,-0.044115,0.047480,-0.818102,-0.469627,-0.162709,1.984174,2.857570,-0.069135,-2.581128,-5.458795,3.094421,-0.046899,0.081851,0.000000,0.284515,-0.197977,-0.000000
4.400000,2.570772,-0.312182,-1.473353,0.367454,-0.048669,0.045850,-0.798390,-0.441325,-0.163246,1.958147,2.801698,-0.038984,-2.623099,-5.707799,2.934380,-0.044081,0.079883,0.000000,0.278965,-0.195211,-0.000000
4.410000,2.574406,-0.312690,-1.472903,0.359568,-0.052942,0.044216,-0.778939,-0.413593,-0.163489,1.931712,2.743414,-0.010448,-2.658083,-5.936441,2.781538,-0.041320,0.077943,0.000000,0.273190,-0.192427,0.000000
4.420000,2.577963,-0.313240,-1.472469,0.351876,-0.056941,0.042580,-0.759755,-0.386456,-0.163455,1.904986,2.682969,0.016647,-2.678509,-6.138197,2.649829,-0.038617,0.076031,0.000000,0.267212,-0.189636,0.000000
4.430000,2.581444,-0.313829,-1.472051,0.344373,-0.060671,0.040946,-0.740840,-0.359934,-0.163156,1.878142,2.620650,0.042549,-2.687241,-6.315367,2.533700,-0.035976,0.074147,0.000000,0.261057,-0.186850,-0.000000
4.440000,2.584850,-0.314454,-1.471650,0.337059,-0.064139,0.039317,-0.722193,-0.334043,-0.162604,1.851241,2.556662,0.067321,-2.695002,-6.476739,2.415194,-0.033396,0.072291,0.000000,0.254743,-0.184075,0.000000
4.450000,2.588185,-0.315112,-1.471265,0.329929,-0.067352,0.037694,-0.703815,-0.308801,-0.161810,1.824242,2.491115,0.090853,-2.702360,-6.626816,2.292011,-0.030881,0.070464,0.000000,0.248282,-0.181307,0.000000
4.460000,2.591449,-0.315801,-1.470896,0.322982,-0.070315,0.036081,-0.685708,-0.284221,-0.160787,1.797194,2.424126,0.113161,-2.703032,-6.759823,2.175823,-0.028431,0.068664,0.000000,0.241682,-0.178548,0.000000
4.470000,2.594645,-0.316518,-1.470543,0.316215,-0.073036,0.034479,-0.667871,-0.260318,-0.159546,1.770181,2.355919,0.134369,-2.698389,-6.864413,2.070805,-0.026047,0.066891,0.000000,0.234965,-0.175807,-0.000000
4.480000,2.597773,-0.317262,-1.470206,0.309625,-0.075522,0.032890,-0.650304,-0.237103,-0.158099,1.743226,2.286837,0.154578,-2.691275,-6.942374,1.972607,-0.023731,0.065146,0.000000,0.228164,-0.173083,-0.000000
4.490000,2.600837,-0.318029,-1.469885,0.303209,-0.077778,0.031317,-0.633006,-0.214581,-0.156455,1.716355,2.217071,0.173822,-2.680433,-7.009586,1.875848,-0.021484,0.063429,0.000000,0.221297,-0.170379,0.000000
4.500000,2.603838,-0.318817,-1.469580,0.296965,-0.079813,0.029761,-0.615977,-0.192761,-0.154623,1.689617,2.146646,0.192095,-2.666158,-7.069117,1.780572,-0.019305,0.061738,0.000000,0.214364,-0.167698,-0.000000
4.510000,2.606776,-0.319625,-1.469290,0.290890,-0.081634,0.028224,-0.599214,-0.171649,-0.152613,1.663032,2.075689,0.209433,-2.650211,-7.110801,1.689688,-0.017196,0.060074,0.000000,0.207378,-0.165041,0.000000
4.520000,2.609655,-0.320450,-1.469015,0.284981,-0.083246,0.026709,-0.582716,-0.151247,-0.150434,1.636613,2.004430,0.225888,-2.632475,-7.129946,1.602250,-0.015158,0.058436,0.000000,0.200362,-0.162410,-0.000000
4.530000,2.612476,-0.321290,-1.468756,0.279235,-0.084658,0.025215,-0.566482,-0.131560,-0.148095,1.610383,1.933090,0.241478,-2.613163,-7.130310,1.516572,-0.013189,0.056825,0.000000,0.193336,-0.159805,-0.000000
4.540000,2.615240,-0.322143,-1.468511,0.273651,-0.085877,0.023747,-0.550509,-0.112586,-0.145605,1.584350,1.861824,0.256220,-2.593717,-7.118532,1.433460,-0.011291,0.055240,0.000000,0.186315,-0.157228,0.000000
4.550000,2.617949,-0.323007,-1.468281,0.268225,-0.086910,0.022303,-0.534795,-0.094323,-0.142971,1.558508,1.790720,0.270147,-2.573545,-7.096848,1.354049,-0.009463,0.053681,0.000000,0.179307,-0.154675,0.000000
4.560000,2.620605,-0.323881,-1.468065,0.262955,-0.087764,0.020887,-0.519338,-0.076771,-0.140202,1.532879,1.719887,0.283301,-2.552592,-7.061599,1.277057,-0.007705,0.052146,0.000000,0.172324,-0.152150,-0.000000
4.570000,2.623208,-0.324763,-1.467863,0.257838,-0.088446,0.019499,-0.504137,-0.059926,-0.137305,1.507457,1.649488,0.295688,-2.534990,-7.008173,1.198573,-0.006017,0.050637,0.000000,0.165380,-0.149651,0.000000
4.580000,2.625761,-0.325650,-1.467675,0.252872,-0.088962,0.018141,-0.489189,-0.043782,-0.134288,1.482179,1.579723,0.307272,-2.521790,-6.938260,1.118207,-0.004397,0.049153,0.000000,0.158495,-0.147171,0.000000
4.590000,2.628266,-0.326542,-1.467500,0.248055,-0.089321,0.016814,-0.474494,-0.028331,-0.131159,1.457021,1.510722,0.318052,-2.508353,-6.859166,1.040543,-0.002847,0.047694,0.000000,0.151682,-0.144707,-0.000000
4.600000,2.630722,-0.327436,-1.467339,0.243382,-0.089529,0.015518,-0.460049,-0.013567,-0.127927,1.432012,1.442540,0.328083,-2.493102,-6.772824,0.967530,-0.001364,0.046259,0.000000,0.144945,-0.142262,-0.000000
4.610000,2.633133,-0.328332,-1.467190,0.238854,-0.089593,0.014255,-0.445853,0.000520,-0.124598,1.407159,1.375266,0.337403,-2.480114,-6.675233,0.895403,0.000052,0.044849,0.000000,0.138295,-0.139836,-0.000000
4.620000,2.635499,-0.329228,-1.467054,0.234465,-0.089519,0.013026,-0.431906,0.013938,-0.121179,1.382410,1.309035,0.345991,-2.474529,-6.564017,0.818328,0.001402,0.043462,0.000000,0.131743,-0.137424,-0.000000
4.630000,2.637823,-0.330123,-1.466929,0.230215,-0.089314,0.011831,-0.418205,0.026700,-0.117678,1.357668,1.243986,0.353770,-2.475935,-6.441262,0.736753,0.002687,0.042100,0.000000,0.125304,-0.135015,-0.000000
4.640000,2.640104,-0.331015,-1.466817,0.226101,-0.088985,0.010672,-0.404752,0.038818,-0.114103,1.332891,1.180210,0.360726,-2.478565,-6.311294,0.657846,0.003908,0.040762,0.000000,0.118986,-0.132604,-0.000000
4.650000,2.642345,-0.331903,-1.466716,0.222120,-0.088537,0.009549,-0.391547,0.050304,-0.110463,1.308097,1.117760,0.366927,-2.480361,-6.175125,0.584094,0.005067,0.039448,0.000000,0.112795,-0.130194,0.000000
4.660000,2.644546,-0.332785,-1.466626,0.218270,-0.087979,0.008463,-0.378590,0.061173,-0.106765,1.283284,1.056707,0.372408,-2.485995,-6.030934,0.510110,0.006164,0.038158,0.000000,0.106738,-0.127783,0.000000
4.670000,2.646710,-0.333662,-1.466547,0.214549,-0.087314,0.007414,-0.365882,0.071439,-0.103015,1.258377,0.997141,0.377129,-2.502181,-5.878471,0.429057,0.007202,0.036892,0.000000,0.100823,-0.125364,0.000000
4.680000,2.648837,-0.334532,-1.466478,0.210953,-0.086550,0.006403,-0.353423,0.081116,-0.099222,1.233240,0.939138,0.380989,-2.528347,-5.719265,0.342255,0.008181,0.035651,0.000000,0.095058,-0.122922,-0.000000
4.690000,2.650929,-0.335393,-1.466419,0.207480,-0.085692,0.005430,-0.341217,0.090221,-0.095395,1.207810,0.882756,0.383974,-2.556357,-5.554985,0.258251,0.009103,0.034434,0.000000,0.089449,-0.120451,-0.000000
4.700000,2.652987,-0.336245,-1.466369,0.204128,-0.084745,0.004495,-0.329267,0.098771,-0.091543,1.182113,0.828038,0.386154,-2.583499,-5.385886,0.178203,0.009969,0.033242,0.000000,0.084001,-0.117954,0.000000
4.710000,2.655012,-0.337088,-1.466329,0.200895,-0.083716,0.003599,-0.317575,0.106782,-0.087672,1.156140,0.775038,0.387538,-2.615932,-5.212005,0.096125,0.010783,0.032075,0.000000,0.078718,-0.115427,-0.000000
4.720000,2.657005,-0.337920,-1.466297,0.197777,-0.082610,0.002741,-0.306144,0.114272,-0.083792,1.129794,0.723798,0.388077,-2.661361,-5.035095,0.009355,0.011544,0.030933,0.000000,0.073605,-0.112863,-0.000000
4.730000,2.658967,-0.338740,-1.466274,0.194772,-0.081431,0.001923,-0.294979,0.121258,-0.079911,1.102913,0.674336,0.387725,-2.718508,-4.856507,-0.080395,0.012255,0.029817,0.000000,0.068664,-0.110243,-0.000000
4.740000,2.660900,-0.339548,-1.466259,0.191877,-0.080185,0.001143,-0.284086,0.127759,-0.076038,1.075424,0.626668,0.386469,-2.777797,-4.675213,-0.170152,0.012917,0.028728,0.000000,0.063897,-0.107561,0.000000
4.750000,2.662805,-0.340344,-1.466251,0.189090,-0.078876,0.000402,-0.273470,0.133791,-0.072181,1.047357,0.580832,0.384322,-2.836887,-4.488534,-0.258875,0.013533,0.027666,0.000000,0.059308,-0.104818,-0.000000
4.760000,2.664682,-0.341126,-1.466251,0.186408,-0.077509,-0.000300,-0.263139,0.139375,-0.068351,1.018686,0.536897,0.381291,-2.902685,-4.298509,-0.348709,0.014103,0.026632,0.000000,0.054903,-0.102012,0.000000
4.770000,2.666533,-0.341894,-1.466257,0.183827,-0.076088,-0.000965,-0.253097,0.144529,-0.064556,0.989303,0.494862,0.377348,-2.981235,-4.114982,-0.443020,0.014631,0.025626,0.000000,0.050684,-0.099132,0.000000
4.780000,2.668358,-0.342648,-1.466270,0.181346,-0.074618,-0.001591,-0.243352,0.149272,-0.060804,0.959062,0.454598,0.372431,-3.070706,-3.939553,-0.541131,0.015117,0.024649,0.000000,0.046636,-0.096162,-0.000000
4.790000,2.670160,-0.343386,-1.466289,0.178960,-0.073103,-0.002181,-0.233915,0.153621,-0.057107,0.927889,0.416071,0.366525,-3.163753,-3.759905,-0.638709,0.015563,0.023702,0.000000,0.042758,-0.093094,-0.000000
4.800000,2.671938,-0.344110,-1.466314,0.176668,-0.071546,-0.002734,-0.224795,0.157594,-0.053474,0.895787,0.379400,0.359657,-3.258684,-3.566907,-0.736231,0.015972,0.022787,0.000000,0.039060,-0.089929,0.000000
4.810000,2.673693,-0.344817,-1.466344,0.174465,-0.069951,-0.003250,-0.216000,0.161209,-0.049914,0.862715,0.344732,0.351801,-3.360552,-3.370439,-0.836594,0.016345,0.021903,0.000000,0.035559,-0.086662,0.000000
4.820000,2.675427,-0.345509,-1.466379,0.172348,-0.068322,-0.003732,-0.207540,0.164488,-0.046438,0.828576,0.311991,0.342925,-3.473687,-3.196184,-0.937848,0.016683,0.021053,0.000000,0.032247,-0.083283,-0.000000
4.830000,2.677140,-0.346184,-1.466418,0.170314,-0.066661,-0.004179,-0.199428,0.167449,-0.043055,0.793242,0.280809,0.333044,-3.596561,-3.042136,-1.038937,0.016990,0.020237,0.000000,0.029087,-0.079779,0.000000
4.840000,2.678833,-0.346842,-1.466462,0.168359,-0.064973,-0.004593,-0.191676,0.170105,-0.039777,0.756644,0.251148,0.322146,-3.723936,-2.874651,-1.142817,0.017265,0.019457,0.000000,0.026076,-0.076142,-0.000000
4.850000,2.680507,-0.347483,-1.466510,0.166480,-0.063259,-0.004975,-0.184295,0.172472,-0.036612,0.718763,0.223316,0.310187,-3.855585,-2.691130,-1.249919,0.017511,0.018714,0.000000,0.023244,-0.072370,0.000000
4.860000,2.682163,-0.348107,-1.466562,0.164673,-0.061523,-0.005325,-0.177300,0.174571,-0.033573,0.679533,0.197325,0.297148,-3.994983,-2.514610,-1.358264,0.017730,0.018010,0.000000,0.020594,-0.068456,-0.000000
4.870000,2.683801,-0.348714,-1.466617,0.162934,-0.059768,-0.005646,-0.170705,0.176419,-0.030669,0.638863,0.173024,0.283022,-4.142405,-2.347113,-1.467724,0.017923,0.017345,0.000000,0.018110,-0.064392,0.000000
4.880000,2.685421,-0.349303,-1.466675,0.161259,-0.057995,-0.005939,-0.164523,0.178031,-0.027913,0.596684,0.150383,0.267793,-4.296627,-2.180784,-1.579029,0.018092,0.016722,0.000000,0.015790,-0.060170,-0.000000
4.890000,2.687026,-0.349874,-1.466735,0.159644,-0.056207,-0.006204,-0.158771,0.179426,-0.025314,0.552931,0.129408,0.251441,-4.457593,-2.015179,-1.692260,0.018239,0.016142,0.000000,0.013634,-0.055782,0.000000
4.900000,2.688614,-0.350427,-1.466799,0.158084,-0.054406,-0.006445,-0.153464,0.180620,-0.022884,0.507533,0.110080,0.233948,-4.625501,-1.851441,-1.807357,0.018365,0.015606,0.000000,0.011641,-0.051223,0.000000
4.910000,2.690188,-0.350962,-1.466864,0.156574,-0.052595,-0.006662,-0.148620,0.181628,-0.020635,0.460421,0.092379,0.215294,-4.800314,-1.689695,-1.924357,0.018471,0.015117,0.000000,0.009810,-0.046486,-0.000000
4.920000,2.691746,-0.351479,-1.466932,0.155111,-0.050774,-0.006858,-0.144256,0.182467,-0.018578,0.411526,0.076286,0.195461,-4.982013,-1.530002,-2.043301,0.018561,0.014676,0.000000,0.008138,-0.041562,0.000000
4.930000,2.693290,-0.351977,-1.467001,0.153689,-0.048945,-0.007034,-0.140390,0.183154,-0.016725,0.360780,0.061779,0.174428,-5.170600,-1.372425,-2.164211,0.018634,0.014286,0.000000,0.006624,-0.036447,-0.000000
4.940000,2.694820,-0.352457,-1.467073,0.152303,-0.047111,-0.007192,-0.137040,0.183703,-0.015089,0.308114,0.048837,0.152177,-5.366083,-1.217028,-2.287132,0.018693,0.013947,0.000000,0.005266,-0.031132,-0.000000
4.950000,2.696336,-0.352919,-1.467145,0.150949,-0.045271,-0.007335,-0.134227,0.184130,-0.013682,0.253459,0.037438,0.128686,-5.568477,-1.063872,-2.412114,0.018740,0.013663,0.000000,0.004061,-0.025613,0.000000
4.960000,2.697839,-0.353363,-1.467219,0.149619,-0.043428,-0.007466,-0.131971,0.184452,-0.012516,0.196745,0.027560,0.103934,-5.777742,-0.913019,-2.539182,0.018775,0.013435,0.000000,0.003008,-0.019881,0.000000
4.970000,2.699328,-0.353788,-1.467295,0.148309,-0.041582,-0.007586,-0.130293,0.184682,-0.011603,0.137904,0.019178,0.077902,74.490373,-116.376777,3.858354,0.018800,0.013265,0.000000,0.002104,-0.013931,-0.000000
4.980000,2.700805,-0.354195,-1.467371,0.147013,-0.039734,-0.007698,-0.129213,0.184835,-0.010958,1.686552,-2.299976,0.181101,155.394941,-231.873234,10.350678,0.018817,0.013156,0.000000,-0.233698,-0.171427,-0.000000
4.990000,2.702268,-0.354583,-1.467449,0.145725,-0.037885,-0.007805,-0.096561,0.138682,-0.007981,3.245803,-4.618287,0.284916,76.994605,-116.064384,4.554480,0.014124,0.009835,0.000000,-0.469818,-0.330247,-0.000000
5.000000,2.703719,-0.354952,-1.467527,0.145082,-0.036961,-0.007857,-0.064297,0.092469,-0.005259,3.226444,-4.621263,0.272191,-1.935843,-0.297676,-1.272450,0.009421,0.006551,0.000000,-0.470491,-0.328507,-0.000000
