time,x,y,z,vx,vy,vz,ax,ay,az,jx,jy,jz,sx,sy,sz,roll,pitch,yaw,p,q,r
0.000000,-2.999238,-0.874761,-1.283130,-0.017631,-0.005940,0.011305,0.126311,0.030370,-0.105176,5.871316,1.371352,-3.747938,-33.271225,-14.860786,133.850535,0.003063,-0.012738,0.000000,0.137115,-0.587241,0.000000
0.010000,-2.999415,-0.874820,-1.283017,-0.016368,-0.005636,0.010253,0.185024,0.044084,-0.142655,5.538603,1.222744,-2.409432,-186.289240,-56.656135,278.697766,0.004429,-0.018588,0.000000,0.121715,-0.551798,0.000000
0.020000,-2.999566,-0.874874,-1.282925,-0.013931,-0.005058,0.008452,0.237083,0.054825,-0.153364,2.145531,0.238229,1.826018,-303.304068,-91.061189,327.809960,0.005501,-0.023791,0.000000,0.024882,-0.219575,0.000000
0.030000,-2.999693,-0.874921,-1.282848,-0.011626,-0.004539,0.007186,0.227934,0.048848,-0.106135,-0.527478,-0.598479,4.146767,-97.651707,-41.683654,63.573380,0.004925,-0.022982,0.000000,-0.058272,0.043558,0.000000
0.040000,-2.999798,-0.874964,-1.282782,-0.009372,-0.004081,0.006329,0.226533,0.042855,-0.070429,0.192497,-0.595444,3.097485,66.778809,0.743295,-95.258960,0.004336,-0.022923,0.000000,-0.058891,-0.026656,0.000000
0.050000,-2.999881,-0.875003,-1.282722,-0.007096,-0.003682,0.005778,0.231784,0.036939,-0.044185,0.808098,-0.583614,2.241588,56.836711,1.575377,-77.163750,0.003748,-0.023517,0.000000,-0.058363,-0.087307,0.000000
0.060000,-2.999940,-0.875038,-1.282666,-0.004736,-0.003342,0.005446,0.242695,0.031183,-0.025597,1.329231,-0.563936,1.554210,47.858748,2.315168,-61.474428,0.003169,-0.024670,0.000000,-0.056828,-0.138959,0.000000
0.070000,-2.999975,-0.875070,-1.282613,-0.002242,-0.003059,0.005266,0.258369,0.025661,-0.013101,1.765273,-0.537310,1.012099,39.792274,2.967439,-48.029965,0.002611,-0.026296,0.000000,-0.054423,-0.182290,0.000000
0.080000,-2.999985,-0.875099,-1.282561,0.000431,-0.002829,0.005184,0.278001,0.020437,-0.005355,2.125076,-0.504587,0.593611,32.584594,3.536965,-36.669309,0.002081,-0.028315,0.000000,-0.051274,-0.218043,-0.000000
0.090000,-2.999967,-0.875126,-1.282509,0.003318,-0.002650,0.005159,0.300871,0.015569,-0.001228,2.416965,-0.466571,0.278713,26.183085,4.028513,-27.231424,0.001586,-0.030656,0.000000,-0.047499,-0.246985,0.000000
0.100000,-2.999918,-0.875152,-1.282458,0.006449,-0.002518,0.005159,0.326340,0.011106,0.000219,2.648738,-0.424017,0.048982,20.535147,4.446850,-19.555280,0.001131,-0.033255,0.000000,-0.043204,-0.269877,-0.000000
0.110000,-2.999838,-0.875177,-1.282406,0.009845,-0.002428,0.005163,0.353845,0.007089,-0.000249,2.827668,-0.377634,-0.112393,15.588080,4.796753,-13.479838,0.000722,-0.036053,0.000000,-0.038485,-0.287449,0.000000
0.120000,-2.999722,-0.875201,-1.282354,0.013526,-0.002376,0.005154,0.382893,0.003553,-0.002029,2.960500,-0.328082,-0.220614,11.289210,5.082984,-8.844061,0.000362,-0.039003,0.000000,-0.033424,-0.300387,0.000000
0.130000,-2.999567,-0.875224,-1.282303,0.017503,-0.002357,0.005122,0.413055,0.000527,-0.004661,3.053452,-0.275974,-0.289274,7.585928,5.310312,-5.486910,0.000054,-0.042061,0.000000,-0.028096,-0.309323,0.000000
0.140000,-2.999372,-0.875248,-1.282252,0.021787,-0.002365,0.005061,0.443962,-0.001967,-0.007814,3.112218,-0.221876,-0.330353,4.425603,5.483541,-3.247363,-0.000200,-0.045189,0.000000,-0.022567,-0.314832,0.000000
0.150000,-2.999131,-0.875272,-1.282202,0.026382,-0.002396,0.004966,0.475300,-0.003911,-0.011268,3.141964,-0.166303,-0.354221,1.755557,5.607413,-1.964371,-0.000398,-0.048357,0.000000,-0.016893,-0.317425,-0.000000
0.160000,-2.998844,-0.875296,-1.282153,0.031293,-0.002444,0.004836,0.506802,-0.005293,-0.014899,3.147329,-0.109727,-0.369640,-0.476877,5.686663,-1.476887,-0.000538,-0.051538,0.000000,-0.011124,-0.317556,0.000000
0.170000,-2.998506,-0.875320,-1.282105,0.036518,-0.002502,0.004668,0.538246,-0.006105,-0.018661,3.132427,-0.052570,-0.383759,-2.330314,5.726726,-1.598756,-0.000620,-0.054708,0.000000,-0.005306,-0.315619,0.000000
0.180000,-2.998114,-0.875346,-1.282059,0.042058,-0.002566,0.004462,0.569450,-0.006344,-0.022574,3.100723,0.004807,-0.401615,-3.962184,5.743170,-1.729729,-0.000644,-0.057850,0.000000,0.000526,-0.311940,-0.000000
0.190000,-2.997664,-0.875372,-1.282016,0.047907,-0.002629,0.004217,0.600261,-0.006009,-0.026693,3.053183,0.062293,-0.418354,-5.388922,5.737001,-1.860640,-0.000610,-0.060947,0.000000,0.006358,-0.306650,0.000000
0.200000,-2.997155,-0.875398,-1.281975,0.054063,-0.002686,0.003928,0.630514,-0.005098,-0.030941,2.992945,0.119547,-0.438828,-5.889962,5.633417,-5.071396,-0.000517,-0.063983,0.000000,0.012156,-0.300043,-0.000000
0.210000,-2.996583,-0.875426,-1.281937,0.060518,-0.002731,0.003598,0.660120,-0.003618,-0.035470,2.935384,0.174962,-0.519781,-5.600808,5.445724,-10.853719,-0.000367,-0.066948,0.000000,0.017758,-0.293287,0.000000
0.220000,-2.995945,-0.875453,-1.281903,0.067265,-0.002758,0.003219,0.689221,-0.001599,-0.041336,2.880929,0.228462,-0.655902,-6.791943,5.406934,-9.753946,-0.000162,-0.069848,0.000000,0.023148,-0.286381,0.000000
0.230000,-2.995238,-0.875481,-1.281873,0.074302,-0.002763,0.002771,0.717738,0.000951,-0.048588,2.799545,0.283100,-0.714860,-9.570057,5.527102,-1.447629,0.000096,-0.072675,0.000000,0.028631,-0.277222,0.000000
0.240000,-2.994459,-0.875508,-1.281848,0.081620,-0.002739,0.002247,0.745212,0.004063,-0.055634,2.689527,0.339004,-0.684855,-10.905080,5.493817,1.326523,0.000411,-0.075393,0.000000,0.034228,-0.265855,0.000000
0.250000,-2.993606,-0.875535,-1.281828,0.089206,-0.002682,0.001658,0.771529,0.007731,-0.062285,2.581443,0.392977,-0.688330,-10.423673,5.270062,-2.589299,0.000781,-0.077992,0.000000,0.039615,-0.254481,0.000000
0.260000,-2.992675,-0.875562,-1.281814,0.097051,-0.002585,0.001002,0.796841,0.011923,-0.069400,2.481054,0.444405,-0.736641,-10.232944,5.071830,-4.472417,0.001203,-0.080483,0.000000,0.044724,-0.243536,0.000000
0.270000,-2.991664,-0.875587,-1.281808,0.105143,-0.002443,0.000270,0.821150,0.016619,-0.077018,2.376784,0.494413,-0.777778,-10.838489,4.944558,-3.604086,0.001675,-0.082863,0.000000,0.049670,-0.232259,-0.000000
0.280000,-2.990572,-0.875611,-1.281809,0.113474,-0.002252,-0.000539,0.844377,0.021811,-0.084956,2.264284,0.543296,-0.808723,-11.550048,4.815207,-2.998774,0.002196,-0.085128,0.000000,0.054486,-0.220253,0.000000
0.290000,-2.989395,-0.875632,-1.281819,0.122031,-0.002007,-0.001429,0.866435,0.027485,-0.093192,2.145784,0.590717,-0.837754,-11.897680,4.643343,-2.814232,0.002765,-0.087268,0.000000,0.059138,-0.207684,0.000000
0.300000,-2.988131,-0.875651,-1.281838,0.130802,-0.001702,-0.002403,0.887293,0.033625,-0.101711,2.026331,0.636163,-0.865007,-11.886143,4.438834,-2.620971,0.003379,-0.089282,0.000000,0.063573,-0.195061,-0.000000
0.310000,-2.986779,-0.875666,-1.281867,0.139776,-0.001334,-0.003463,0.906962,0.040209,-0.110492,1.908061,0.679494,-0.890173,-11.830554,4.227080,-2.421395,0.004036,-0.091170,0.000000,0.067779,-0.182604,0.000000
0.320000,-2.985336,-0.875678,-1.281907,0.148941,-0.000898,-0.004612,0.925454,0.047215,-0.119514,1.789719,0.720704,-0.913435,-11.943533,4.002571,-2.266411,0.004734,-0.092934,0.000000,0.071757,-0.170188,-0.000000
0.330000,-2.983800,-0.875684,-1.281959,0.158286,-0.000390,-0.005853,0.942756,0.054623,-0.128761,1.669190,0.759545,-0.935501,-12.140657,3.756351,-2.150730,0.005471,-0.094574,0.000000,0.075482,-0.157599,0.000000
0.340000,-2.982170,-0.875685,-1.282024,0.167797,0.000194,-0.007188,0.958838,0.062406,-0.138224,1.546906,0.795831,-0.956450,-12.173799,3.499359,-2.007798,0.006244,-0.096086,0.000000,0.078938,-0.144880,0.000000
0.350000,-2.980444,-0.875680,-1.282103,0.177462,0.000858,-0.008618,0.973695,0.070539,-0.147890,1.425714,0.829533,-0.975657,-11.999079,3.238541,-1.824188,0.007050,-0.097471,0.000000,0.082123,-0.132325,0.000000
0.360000,-2.978621,-0.875668,-1.282196,0.187270,0.001605,-0.010145,0.987352,0.078997,-0.157738,1.306925,0.860602,-0.992933,-11.794838,2.966562,-1.645932,0.007886,-0.098733,0.000000,0.085034,-0.120066,0.000000
0.370000,-2.976699,-0.875648,-1.282306,0.197209,0.002438,-0.011772,0.999833,0.087751,-0.167749,1.189817,0.888864,-1.008576,-11.697365,2.670794,-1.501576,0.008751,-0.099873,0.000000,0.087655,-0.108029,0.000000
0.380000,-2.974677,-0.875619,-1.282432,0.207267,0.003360,-0.013500,1.011148,0.096774,-0.177909,1.072977,0.914018,-1.022965,-11.659744,2.353625,-1.376426,0.009640,-0.100893,0.000000,0.089958,-0.096070,0.000000
0.390000,-2.972553,-0.875581,-1.282576,0.217432,0.004373,-0.015331,1.021293,0.106032,-0.188208,0.956622,0.935936,-1.036104,-11.520705,2.033088,-1.235241,0.010550,-0.101795,0.000000,0.091932,-0.084211,0.000000
0.400000,-2.970328,-0.875532,-1.282738,0.227693,0.005481,-0.017265,1.030281,0.115493,-0.198631,0.842563,0.954680,-1.047670,-11.250154,1.713994,-1.074268,0.011478,-0.102578,0.000000,0.093585,-0.072634,0.000000
0.410000,-2.968000,-0.875471,-1.282921,0.238038,0.006683,-0.019303,1.038144,0.125125,-0.209161,0.731619,0.970216,-1.057590,-10.964042,1.385002,-0.916663,0.012421,-0.103247,0.000000,0.094915,-0.061420,0.000000
0.420000,-2.965567,-0.875398,-1.283124,0.248456,0.007983,-0.021448,1.044913,0.134897,-0.219783,0.623283,0.982380,-1.066003,-10.751494,1.037423,-0.770849,0.013376,-0.103807,0.000000,0.095910,-0.050518,0.000000
0.430000,-2.963030,-0.875312,-1.283350,0.258936,0.009381,-0.023699,1.050610,0.144773,-0.230481,0.516589,0.990965,-1.073007,-10.581692,0.675711,-0.628331,0.014340,-0.104258,0.000000,0.096549,-0.039828,0.000000
0.440000,-2.960389,-0.875211,-1.283598,0.269468,0.010879,-0.026057,1.055245,0.154716,-0.241243,0.411649,0.995894,-1.078570,-10.348721,0.312444,-0.478836,0.015307,-0.104603,0.000000,0.096828,-0.029362,-0.000000
0.450000,-2.957641,-0.875094,-1.283871,0.280041,0.012476,-0.028524,1.058843,0.164691,-0.252053,0.309615,0.997214,-1.082584,-10.032961,-0.050238,-0.323892,0.016276,-0.104845,0.000000,0.096752,-0.019233,0.000000
0.460000,-2.954788,-0.874961,-1.284169,0.290645,0.014172,-0.031098,1.061437,0.174660,-0.262895,0.210989,0.994889,-1.085048,-9.710145,-0.419478,-0.169287,0.017242,-0.104988,0.000000,0.096322,-0.009488,0.000000
0.470000,-2.951828,-0.874811,-1.284493,0.301270,0.015969,-0.033782,1.063062,0.184589,-0.273754,0.115412,0.988824,-1.085969,-9.437661,-0.797466,-0.009930,0.018203,-0.105035,0.000000,0.095528,-0.000091,0.000000
0.480000,-2.948762,-0.874642,-1.284844,0.311906,0.017864,-0.036574,1.063745,0.194437,-0.284614,0.022236,0.978940,-1.085246,-9.195109,-1.180592,0.157606,0.019153,-0.104990,0.000000,0.094367,0.009024,0.000000
0.490000,-2.945590,-0.874453,-1.285224,0.322545,0.019857,-0.039474,1.063507,0.204167,-0.295459,-0.068490,0.965212,-1.082817,-8.913968,-1.564635,0.326640,0.020090,-0.104855,0.000000,0.092837,0.017853,0.000000
0.500000,-2.942311,-0.874245,-1.285634,0.333176,0.021947,-0.042483,1.062376,0.213741,-0.306271,-0.156043,0.947647,-1.078713,-8.581529,-1.949721,0.492036,0.021010,-0.104633,0.000000,0.090941,0.026327,-0.000000
0.510000,-2.938927,-0.874015,-1.286074,0.343792,0.024132,-0.045599,1.060386,0.223120,-0.317033,-0.240121,0.926218,-1.072976,-8.246495,-2.337120,0.659488,0.021909,-0.104328,0.000000,0.088677,0.034419,-0.000000
0.520000,-2.935436,-0.873762,-1.286546,0.354384,0.026410,-0.048823,1.057573,0.232266,-0.327730,-0.320973,0.900905,-1.065524,-7.945423,-2.723508,0.842996,0.022783,-0.103945,0.000000,0.086047,0.042156,0.000000
0.530000,-2.931839,-0.873486,-1.287051,0.364944,0.028778,-0.052154,1.053967,0.241138,-0.338343,-0.399029,0.871748,-1.056117,-7.664891,-3.106978,1.042241,0.023630,-0.103485,0.000000,0.083057,0.049579,-0.000000
0.540000,-2.928137,-0.873186,-1.287589,0.375463,0.031233,-0.055590,1.049593,0.249701,-0.348852,-0.474271,0.838765,-1.044679,-7.360965,-3.490359,1.239043,0.024445,-0.102953,0.000000,0.079709,0.056688,0.000000
0.550000,-2.924330,-0.872862,-1.288162,0.385936,0.033772,-0.059131,1.044481,0.257914,-0.359237,-0.546248,0.801940,-1.031336,-7.025809,-3.874940,1.426829,0.025224,-0.102351,0.000000,0.076004,0.063443,0.000000
0.560000,-2.920418,-0.872511,-1.288772,0.396353,0.036391,-0.062775,1.038668,0.265739,-0.369479,-0.614787,0.761267,-1.016142,-6.690348,-4.257247,1.618679,0.025965,-0.101684,0.000000,0.071942,0.069829,0.000000
0.570000,-2.916403,-0.872134,-1.289418,0.406709,0.039086,-0.066521,1.032186,0.273139,-0.379560,-0.680055,0.716796,-0.998962,-6.376552,-4.631453,1.831174,0.026663,-0.100954,0.000000,0.067530,0.075866,-0.000000
0.580000,-2.912284,-0.871729,-1.290102,0.416997,0.041854,-0.070366,1.025067,0.280075,-0.389458,-0.742318,0.668638,-0.979519,-6.075633,-4.997266,2.061171,0.027315,-0.100166,0.000000,0.062781,0.081577,0.000000
0.590000,-2.908063,-0.871297,-1.290825,0.427210,0.044688,-0.074310,1.017339,0.286512,-0.399150,-0.801568,0.616850,-0.957739,-5.761150,-5.360655,2.287062,0.027919,-0.099322,0.000000,0.057701,0.086965,0.000000
0.600000,-2.903740,-0.870836,-1.291588,0.437343,0.047584,-0.078349,1.009035,0.292412,-0.408613,-0.857541,0.561425,-0.933777,-5.428297,-5.723177,2.502537,0.028469,-0.098426,0.000000,0.052290,0.092008,0.000000
0.610000,-2.899316,-0.870345,-1.292392,0.447391,0.050536,-0.082482,1.000188,0.297740,-0.417826,-0.910134,0.502387,-0.907688,-5.095392,-6.079388,2.722469,0.028964,-0.097481,0.000000,0.046550,0.096699,-0.000000
0.620000,-2.894792,-0.869825,-1.293238,0.457347,0.053539,-0.086706,0.990833,0.302460,-0.426767,-0.959449,0.439837,-0.879328,-4.775610,-6.422952,2.962037,0.029401,-0.096491,0.000000,0.040493,0.101049,0.000000
0.630000,-2.890169,-0.869274,-1.294126,0.467208,0.056585,-0.091017,0.980999,0.306537,-0.435412,-1.005646,0.373928,-0.848447,-4.463545,-6.754394,3.216975,0.029774,-0.095459,0.000000,0.034134,0.105075,-0.000000
0.640000,-2.885448,-0.868693,-1.295058,0.476967,0.059669,-0.095414,0.970720,0.309939,-0.443736,-1.048720,0.304749,-0.814989,-4.143167,-7.080385,3.467196,0.030083,-0.094389,0.000000,0.027482,0.108777,0.000000
0.650000,-2.880629,-0.868081,-1.296035,0.486622,0.062784,-0.099892,0.960025,0.312632,-0.451712,-1.088509,0.232320,-0.779103,-3.811902,-7.402272,3.707253,0.030324,-0.093283,0.000000,0.020538,0.112144,0.000000
0.660000,-2.875715,-0.867437,-1.297056,0.496168,0.065922,-0.104448,0.948949,0.314585,-0.459318,-1.124958,0.156703,-0.740843,-3.480610,-7.714337,3.950481,0.030494,-0.092145,0.000000,0.013306,0.115174,0.000000
0.670000,-2.870706,-0.866762,-1.298124,0.505601,0.069076,-0.109078,0.937526,0.315766,-0.466529,-1.158122,0.078033,-0.700094,-3.156028,-8.011068,4.209183,0.030590,-0.090978,0.000000,0.005801,0.117874,0.000000
0.680000,-2.865603,-0.866056,-1.299238,0.514918,0.072237,-0.113779,0.925787,0.316146,-0.473320,-1.188078,-0.003518,-0.656660,-2.834688,-8.293332,4.479000,0.030610,-0.089786,0.000000,-0.001963,0.120252,-0.000000
0.690000,-2.860408,-0.865318,-1.300399,0.524117,0.075399,-0.118545,0.913764,0.315696,-0.479662,-1.214815,-0.087833,-0.610514,-2.508245,-8.566798,4.743239,0.030551,-0.088572,0.000000,-0.009974,0.122309,0.000000
0.700000,-2.855121,-0.864548,-1.301609,0.533194,0.078551,-0.123372,0.901491,0.314389,-0.485530,-1.238243,-0.174854,-0.561795,-2.175788,-8.831928,4.998020,0.030411,-0.087339,0.000000,-0.018231,0.124039,-0.000000
0.710000,-2.849744,-0.863747,-1.302867,0.542146,0.081687,-0.128255,0.888999,0.312199,-0.490898,-1.258331,-0.264472,-0.510553,-1.842749,-9.083889,5.253890,0.030186,-0.086090,0.000000,-0.026725,0.125443,0.000000
0.720000,-2.844278,-0.862914,-1.304174,0.550974,0.084795,-0.133190,0.876324,0.309099,-0.495741,-1.275098,-0.356532,-0.456717,-1.511227,-9.319763,5.518484,0.029876,-0.084829,0.000000,-0.035442,0.126524,0.000000
0.730000,-2.838724,-0.862051,-1.305530,0.559673,0.087869,-0.138170,0.863497,0.305068,-0.500032,-1.288556,-0.450867,-0.400184,-1.179050,-9.540407,5.787707,0.029478,-0.083558,0.000000,-0.044370,0.127283,0.000000
0.740000,-2.833085,-0.861157,-1.306937,0.568243,0.090897,-0.143191,0.850553,0.300082,-0.503745,-1.298679,-0.547340,-0.340963,-0.843631,-9.748106,6.050703,0.028989,-0.082282,0.000000,-0.053498,0.127721,0.000000
0.750000,-2.827360,-0.860233,-1.308394,0.576684,0.093870,-0.148245,0.837524,0.294121,-0.506852,-1.305428,-0.645829,-0.279170,-0.506921,-9.942289,6.306144,0.028408,-0.081003,0.000000,-0.062817,0.127836,0.000000
0.760000,-2.821551,-0.859279,-1.309902,0.584994,0.096779,-0.153328,0.824444,0.287166,-0.509328,-1.308818,-0.746186,-0.214840,-0.170295,-10.120549,6.560228,0.027732,-0.079724,0.000000,-0.072319,0.127631,-0.000000
0.770000,-2.815660,-0.858297,-1.311461,0.593173,0.099613,-0.158432,0.811348,0.279197,-0.511149,-1.308834,-0.848240,-0.147965,0.172247,-10.282473,6.813610,0.026961,-0.078449,0.000000,-0.081989,0.127106,-0.000000
0.780000,-2.809687,-0.857287,-1.313071,0.601221,0.102363,-0.163551,0.798268,0.270201,-0.512287,-1.305373,-0.951835,-0.078568,0.521821,-10.428284,7.063196,0.026093,-0.077181,0.000000,-0.091818,0.126252,0.000000
0.790000,-2.803635,-0.856250,-1.314732,0.609138,0.105017,-0.168677,0.785240,0.260161,-0.512720,-1.298398,-1.056806,-0.006701,0.870138,-10.557077,7.307165,0.025125,-0.075923,0.000000,-0.101795,0.125067,0.000000
0.800000,-2.797505,-0.855187,-1.316444,0.616926,0.107566,-0.173805,0.772300,0.249065,-0.512421,-1.287970,-1.162977,0.067575,1.214408,-10.667454,7.545779,0.024057,-0.074679,0.000000,-0.111906,0.123557,0.000000
0.810000,-2.791297,-0.854099,-1.318208,0.624584,0.109999,-0.178926,0.759481,0.236901,-0.511368,-1.274110,-1.270155,0.144215,1.560522,-10.759218,7.779009,0.022887,-0.073451,0.000000,-0.122140,0.121725,0.000000
0.820000,-2.785013,-0.852987,-1.320023,0.632115,0.112304,-0.184032,0.746818,0.223662,-0.509537,-1.256759,-1.378161,0.223155,1.914624,-10.833950,8.004152,0.021614,-0.072243,0.000000,-0.132484,0.119565,0.000000
0.830000,-2.778654,-0.851853,-1.321888,0.639521,0.114472,-0.189117,0.734346,0.209338,-0.506905,-1.235817,-1.486834,0.304298,2.275330,-10.891178,8.220014,0.020237,-0.071059,0.000000,-0.142928,0.117069,-0.000000
0.840000,-2.772223,-0.850697,-1.323805,0.646802,0.116491,-0.194171,0.722101,0.193925,-0.503451,-1.211253,-1.595984,0.387556,2.634619,-10.927451,8.428876,0.018755,-0.069901,0.000000,-0.153461,0.114233,0.000000
0.850000,-2.765718,-0.849523,-1.325772,0.653963,0.118351,-0.199186,0.710120,0.177418,-0.499154,-1.183125,-1.705383,0.472875,2.988616,-10.941043,8.632070,0.017167,-0.068774,0.000000,-0.164066,0.111061,0.000000
0.860000,-2.759143,-0.848330,-1.327789,0.661005,0.120039,-0.204154,0.698439,0.159817,-0.493994,-1.151481,-1.814805,0.560197,3.342840,-10.933391,8.826795,0.015473,-0.067680,0.000000,-0.174727,0.107559,-0.000000
0.870000,-2.752498,-0.847122,-1.329855,0.667931,0.121547,-0.209066,0.687091,0.141122,-0.487950,-1.116268,-1.924051,0.649411,3.707326,-10.906636,9.007384,0.013673,-0.066622,0.000000,-0.185432,0.103718,-0.000000
0.880000,-2.745785,-0.845899,-1.331970,0.674746,0.122862,-0.213913,0.676113,0.121336,-0.481005,-1.077334,-2.032938,0.740345,4.081154,-10.859642,9.173442,0.011765,-0.065605,0.000000,-0.196170,0.099524,-0.000000
0.890000,-2.739003,-0.844665,-1.334133,0.681454,0.123974,-0.218686,0.665544,0.100463,-0.473143,-1.034645,-2.141244,0.832880,4.450538,-10.788284,9.331219,0.009749,-0.064632,0.000000,-0.206925,0.094971,0.000000
0.900000,-2.732156,-0.843420,-1.336344,0.688057,0.124871,-0.223375,0.655420,0.078511,-0.464348,-0.988323,-2.248704,0.926969,4.808587,-10.691398,9.483367,0.007626,-0.063706,0.000000,-0.217677,0.090069,0.000000
0.910000,-2.725242,-0.842167,-1.338601,0.694562,0.125544,-0.227973,0.645778,0.055489,-0.454604,-0.938473,-2.355072,1.022547,5.164701,-10.570750,9.624490,0.005395,-0.062830,0.000000,-0.228411,0.084824,0.000000
0.920000,-2.718264,-0.840909,-1.340903,0.700973,0.125981,-0.232468,0.636651,0.031410,-0.443897,-0.885029,-2.460119,1.119459,5.535721,-10.426870,9.745872,0.003057,-0.062009,0.000000,-0.239108,0.079227,-0.000000
0.930000,-2.711223,-0.839648,-1.343250,0.707295,0.126172,-0.236851,0.628077,0.006287,-0.432215,-0.827759,-2.563609,1.217465,5.919250,-10.258193,9.848138,0.000613,-0.061246,0.000000,-0.249753,0.073254,-0.000000
0.940000,-2.704118,-0.838386,-1.345640,0.713534,0.126107,-0.241112,0.620096,-0.019862,-0.419548,-0.766644,-2.665283,1.316422,6.292036,-10.062777,9.941692,-0.001938,-0.060544,0.000000,-0.260326,0.066897,0.000000
0.950000,-2.696952,-0.837126,-1.348072,0.719697,0.125775,-0.245242,0.612744,-0.047019,-0.405886,-0.701918,-2.764865,1.416298,6.646817,-9.841155,10.028581,-0.004594,-0.059908,0.000000,-0.270806,0.060176,0.000000
0.960000,-2.689724,-0.835870,-1.350545,0.725789,0.125166,-0.249230,0.606057,-0.075160,-0.391222,-0.633708,-2.862106,1.516993,6.998888,-9.593476,10.100881,-0.007355,-0.059341,0.000000,-0.281173,0.053097,-0.000000
0.970000,-2.682436,-0.834622,-1.353057,0.731818,0.124272,-0.253066,0.600070,-0.104261,-0.375546,-0.561940,-2.956734,1.618316,7.363802,-9.315776,10.152684,-0.010218,-0.058846,0.000000,-0.291405,0.045649,0.000000
0.980000,-2.675088,-0.833385,-1.355606,0.737791,0.123081,-0.256741,0.594819,-0.134294,-0.358855,-0.486432,-3.048421,1.720047,7.736627,-9.006566,10.185858,-0.013183,-0.058428,0.000000,-0.301475,0.037809,0.000000
0.990000,-2.667680,-0.832161,-1.358192,0.743715,0.121586,-0.260243,0.590341,-0.165229,-0.341145,-0.407208,-3.136866,1.822033,8.095814,-8.670051,10.206917,-0.016248,-0.058090,0.000000,-0.311357,0.029572,0.000000
1.000000,-2.660214,-0.830953,-1.360811,0.749598,0.119776,-0.263563,0.586674,-0.197032,-0.322415,-0.324516,-3.221822,1.924185,8.435136,-8.309735,10.216973,-0.019411,-0.057836,0.000000,-0.321029,0.020958,-0.000000
1.010000,-2.652689,-0.829765,-1.363463,0.755448,0.117645,-0.266691,0.583851,-0.229666,-0.302662,-0.238505,-3.303060,2.026373,8.768170,-7.921494,10.211007,-0.022669,-0.057671,0.000000,-0.330472,0.011973,0.000000
1.020000,-2.645105,-0.828600,-1.366145,0.761275,0.115183,-0.269617,0.581904,-0.263093,-0.281887,-0.149152,-3.380252,2.128406,9.107704,-7.494031,10.184862,-0.026021,-0.057597,0.000000,-0.339655,0.002609,0.000000
1.030000,-2.637463,-0.827461,-1.368855,0.767086,0.112383,-0.272329,0.580868,-0.297271,-0.260094,-0.056351,-3.452941,2.230070,9.449278,-7.026464,10.139946,-0.029463,-0.057619,0.000000,-0.348533,-0.007151,0.000000
1.040000,-2.629763,-0.826352,-1.371592,0.772892,0.109238,-0.274819,0.580777,-0.332152,-0.237286,0.039833,-3.520781,2.331204,9.774373,-6.533119,10.080728,-0.032992,-0.057740,0.000000,-0.357073,-0.017309,0.000000
1.050000,-2.622005,-0.825277,-1.374352,0.778702,0.105740,-0.277075,0.581665,-0.367686,-0.213470,0.139136,-3.583603,2.431685,10.074432,-6.023779,10.005298,-0.036605,-0.057965,0.000000,-0.365256,-0.027847,0.000000
1.060000,-2.614189,-0.824238,-1.377133,0.784525,0.101884,-0.279088,0.583560,-0.403824,-0.188652,0.241322,-3.641257,2.531310,10.360773,-5.487338,9.910321,-0.040297,-0.058298,0.000000,-0.373066,-0.038748,0.000000
1.070000,-2.606315,-0.823239,-1.379933,0.790373,0.097664,-0.280848,0.586491,-0.440511,-0.162843,0.346352,-3.693350,2.629891,10.652553,-4.896602,9.800586,-0.044066,-0.058741,0.000000,-0.380460,-0.050016,0.000000
1.080000,-2.598382,-0.822284,-1.382750,0.796255,0.093074,-0.282345,0.590487,-0.477691,-0.136054,0.454373,-3.739189,2.727322,10.945465,-4.252746,9.677249,-0.047907,-0.059299,0.000000,-0.387367,-0.061675,0.000000
1.090000,-2.590390,-0.821378,-1.385580,0.802183,0.088110,-0.283569,0.595579,-0.515295,-0.108297,0.565261,-3.778405,2.823436,11.211550,-3.592002,9.532632,-0.051814,-0.059976,0.000000,-0.393742,-0.073720,0.000000
1.100000,-2.582338,-0.820522,-1.388421,0.808167,0.082768,-0.284511,0.601792,-0.553259,-0.079586,0.678604,-3.811029,2.917975,11.445021,-2.927035,9.363874,-0.055782,-0.060776,0.000000,-0.399583,-0.086119,-0.000000
1.110000,-2.574226,-0.819722,-1.391271,0.814218,0.077045,-0.285161,0.609151,-0.591516,-0.049937,0.794162,-3.836946,3.010713,11.662811,-2.232515,9.175772,-0.059806,-0.061702,0.000000,-0.404870,-0.098854,-0.000000
1.120000,-2.566054,-0.818981,-1.394125,0.820350,0.070938,-0.285509,0.617676,-0.629998,-0.019371,0.911860,-3.855679,3.101490,11.872628,-1.478156,8.973197,-0.063880,-0.062757,0.000000,-0.409546,-0.111925,0.000000
1.130000,-2.557819,-0.818303,-1.396981,0.826572,0.064445,-0.285548,0.627388,-0.668629,0.012092,1.031614,-3.866509,3.190177,12.067510,-0.669800,8.754269,-0.067998,-0.063946,0.000000,-0.413528,-0.125333,0.000000
1.140000,-2.549522,-0.817692,-1.399836,0.832897,0.057565,-0.285268,0.638308,-0.707328,0.044432,1.153210,-3.869075,3.276576,12.235168,0.152151,8.511790,-0.072151,-0.065270,0.000000,-0.416767,-0.139062,0.000000
1.150000,-2.541161,-0.817152,-1.402686,0.839338,0.050298,-0.284659,0.650452,-0.746011,0.077624,1.276318,-3.863466,3.360413,12.370970,0.969221,8.243967,-0.076333,-0.066735,0.000000,-0.419257,-0.153085,0.000000
1.160000,-2.532735,-0.816686,-1.405529,0.845906,0.042645,-0.283715,0.663834,-0.784597,0.111640,1.400630,-3.849691,3.441455,12.480878,1.809016,7.954970,-0.080537,-0.068341,0.000000,-0.420986,-0.167377,0.000000
1.170000,-2.524243,-0.816299,-1.408360,0.852615,0.034606,-0.282427,0.678465,-0.823005,0.146453,1.525935,-3.827285,3.519513,12.572807,2.717944,7.647536,-0.084753,-0.070094,0.000000,-0.421889,-0.181921,0.000000
1.180000,-2.515683,-0.815994,-1.411177,0.859476,0.026185,-0.280786,0.694353,-0.861143,0.182031,1.652086,-3.795332,3.594406,12.643131,3.689614,7.319789,-0.088975,-0.071994,0.000000,-0.421854,-0.196708,0.000000
1.190000,-2.507054,-0.815776,-1.413976,0.866502,0.017383,-0.278786,0.711506,-0.898911,0.218341,1.778798,-3.753493,3.665908,12.677948,4.660162,6.967242,-0.093191,-0.074044,0.000000,-0.420827,-0.211711,-0.000000
1.200000,-2.498353,-0.815647,-1.416753,0.873706,0.008206,-0.276419,0.729929,-0.936213,0.255349,1.905645,-3.702129,3.733751,12.673988,5.605573,6.588677,-0.097391,-0.076247,0.000000,-0.418823,-0.226890,0.000000
1.210000,-2.489580,-0.815611,-1.419504,0.881100,-0.001341,-0.273679,0.749619,-0.972954,0.293016,2.032278,-3.641382,3.797682,12.638085,6.568408,6.186316,-0.101567,-0.078604,0.000000,-0.415834,-0.242208,0.000000
1.220000,-2.480731,-0.815673,-1.422227,0.888698,-0.011253,-0.270559,0.770574,-1.009040,0.331303,2.158407,-3.570761,3.857477,12.571472,7.603658,5.761579,-0.105708,-0.081117,0.000000,-0.411785,-0.257637,-0.000000
1.230000,-2.471806,-0.815836,-1.424916,0.896512,-0.021522,-0.267053,0.792787,-1.044369,0.370166,2.283707,-3.489309,3.912913,12.461133,8.699098,5.313782,-0.109803,-0.083787,0.000000,-0.406553,-0.273141,-0.000000
1.240000,-2.462801,-0.816104,-1.427568,0.904554,-0.032140,-0.263156,0.816249,-1.078827,0.409561,2.407629,-3.396779,3.963753,12.304470,9.778546,4.839801,-0.113839,-0.086614,0.000000,-0.400083,-0.288660,0.000000
1.250000,-2.453715,-0.816479,-1.430179,0.912837,-0.043098,-0.258862,0.840940,-1.112305,0.449441,2.529796,-3.293738,4.009709,12.162959,10.815796,4.333818,-0.117804,-0.089598,0.000000,-0.392407,-0.304150,-0.000000
1.260000,-2.444544,-0.816966,-1.432745,0.921373,-0.054386,-0.254167,0.866844,-1.144701,0.489755,2.650888,-3.180463,4.050429,12.030752,11.860179,3.797440,-0.121687,-0.092740,0.000000,-0.383523,-0.319674,0.000000
1.270000,-2.435287,-0.817567,-1.435262,0.930174,-0.065992,-0.249067,0.893958,-1.175914,0.530449,2.770411,-3.056534,4.085658,11.726366,12.969960,3.244803,-0.125474,-0.096040,0.000000,-0.373357,-0.335175,-0.000000
1.280000,-2.425941,-0.818286,-1.437726,0.939252,-0.077904,-0.243558,0.922253,-1.205832,0.571468,2.885416,-2.921064,4.115325,11.259417,14.142114,2.668642,-0.129154,-0.099497,0.000000,-0.361790,-0.350329,0.000000
1.290000,-2.416502,-0.819125,-1.440133,0.948619,-0.090109,-0.237637,0.951666,-1.234335,0.612756,2.995600,-2.773692,4.139031,10.874005,15.291083,2.049939,-0.132710,-0.103106,0.000000,-0.348751,-0.365090,-0.000000
1.300000,-2.406968,-0.820088,-1.442479,0.958285,-0.102591,-0.231303,0.982165,-1.261306,0.654249,3.102896,-2.615242,4.156324,10.481138,16.296211,1.433656,-0.136128,-0.106864,0.000000,-0.334288,-0.379644,0.000000
1.310000,-2.397336,-0.821177,-1.444759,0.968262,-0.115335,-0.224552,1.013724,-1.286640,0.695882,3.205222,-2.447768,4.167704,9.924615,17.218528,0.827889,-0.139395,-0.110770,0.000000,-0.318604,-0.393762,-0.000000
1.320000,-2.387603,-0.822395,-1.446970,0.978560,-0.128324,-0.217385,1.046269,-1.310261,0.737603,3.301388,-2.270871,4.172881,9.514970,18.381971,0.096770,-0.142499,-0.114817,0.000000,-0.301631,-0.407295,0.000000
1.330000,-2.377765,-0.823743,-1.449107,0.989188,-0.141540,-0.209800,1.079752,-1.332058,0.779340,3.395522,-2.080128,4.169640,9.297002,19.757500,-0.766990,-0.145427,-0.119000,0.000000,-0.282824,-0.420640,0.000000
1.340000,-2.367819,-0.825225,-1.451166,1.000155,-0.154965,-0.201798,1.114180,-1.351864,0.820996,3.487328,-1.875721,4.157542,8.832395,20.896382,-1.575522,-0.148155,-0.123320,0.000000,-0.262161,-0.433741,-0.000000
1.350000,-2.357762,-0.826843,-1.453143,1.011471,-0.168578,-0.193380,1.149498,-1.369572,0.862491,3.572170,-1.662200,4.138129,8.223604,21.852024,-2.314950,-0.150669,-0.127771,0.000000,-0.240138,-0.446094,0.000000
1.360000,-2.347590,-0.828597,-1.455034,1.023145,-0.182356,-0.184548,1.185623,-1.385108,0.903758,3.651800,-1.438681,4.111243,7.754276,22.908671,-3.111045,-0.152957,-0.132345,0.000000,-0.216631,-0.457860,-0.000000
1.370000,-2.337299,-0.830490,-1.456834,1.035184,-0.196280,-0.175305,1.222534,-1.398346,0.944716,3.727255,-1.204027,4.075908,7.000283,23.795467,-3.957686,-0.155001,-0.137037,0.000000,-0.191474,-0.469113,-0.000000
1.380000,-2.326886,-0.832523,-1.458540,1.047595,-0.210323,-0.165654,1.260168,-1.409188,0.985276,3.791806,-0.962772,4.032089,5.835648,24.392368,-4.812323,-0.156785,-0.141841,0.000000,-0.165156,-0.479086,-0.000000
1.390000,-2.316347,-0.834696,-1.460147,1.060387,-0.224463,-0.155600,1.298371,-1.417601,1.025357,3.843968,-0.716180,3.979662,4.870929,25.083867,-5.691093,-0.158303,-0.146738,0.000000,-0.137809,-0.487576,0.000000
1.400000,-2.305678,-0.837012,-1.461652,1.073563,-0.238675,-0.145147,1.337047,-1.423512,1.064870,3.889225,-0.461094,3.918267,4.244012,25.925905,-6.575035,-0.159540,-0.151716,0.000000,-0.109054,-0.495141,0.000000
1.410000,-2.294876,-0.839470,-1.463050,1.087128,-0.252934,-0.134302,1.376155,-1.426823,1.103723,3.928849,-0.197662,3.848161,3.534197,26.644184,-7.451227,-0.160483,-0.156768,0.000000,-0.078897,-0.501895,0.000000
1.420000,-2.283936,-0.842070,-1.464338,1.101086,-0.267212,-0.123073,1.415624,-1.427465,1.141833,3.959909,0.071789,3.769243,2.526314,27.185123,-8.390929,-0.161117,-0.161884,0.000000,-0.047595,-0.507477,0.000000
1.430000,-2.272854,-0.844814,-1.465511,1.115440,-0.281483,-0.111466,1.455353,-1.425387,1.179108,3.979375,0.346041,3.680343,1.377339,27.642196,-9.405226,-0.161433,-0.167050,0.000000,-0.015271,-0.511492,-0.000000
1.440000,-2.261627,-0.847700,-1.466567,1.130193,-0.295720,-0.099490,1.495212,-1.420544,1.215440,3.987455,0.624633,3.581138,0.350939,28.053282,-10.389034,-0.161421,-0.172248,0.000000,0.018024,-0.513913,0.000000
1.450000,-2.250250,-0.850728,-1.467501,1.145345,-0.309894,-0.087157,1.535102,-1.412894,1.250730,3.986394,0.907107,3.472562,-0.633588,28.372272,-11.285377,-0.161072,-0.177463,0.000000,0.052221,-0.514968,0.000000
1.460000,-2.238720,-0.853898,-1.468310,1.160895,-0.323977,-0.074476,1.574940,-1.402402,1.284891,3.974784,1.192079,3.355430,-1.733417,28.573394,-12.165369,-0.160376,-0.182682,0.000000,0.087130,-0.514482,0.000000
1.470000,-2.227032,-0.857208,-1.468991,1.176843,-0.337942,-0.061459,1.614598,-1.389053,1.317839,3.951725,1.478574,3.229254,-2.696335,28.745901,-13.159648,-0.159328,-0.187886,0.000000,0.122628,-0.512308,0.000000
1.480000,-2.215183,-0.860657,-1.469539,1.193187,-0.351759,-0.048119,1.653974,-1.372831,1.349476,3.920857,1.766997,3.092238,-3.458380,28.879503,-14.241060,-0.157923,-0.193058,0.000000,0.158780,-0.508780,0.000000
1.490000,-2.203169,-0.864243,-1.469953,1.209923,-0.365399,-0.034469,1.693015,-1.353713,1.379684,3.882558,2.056164,2.944433,-4.368152,28.844401,-15.229509,-0.156152,-0.198188,0.000000,0.195425,-0.503909,-0.000000
1.500000,-2.190985,-0.867965,-1.470229,1.227047,-0.378833,-0.020525,1.731625,-1.331707,1.408365,3.833494,2.343885,2.787647,-5.412387,28.750189,-16.129688,-0.154013,-0.203260,0.000000,0.232234,-0.497328,-0.000000
1.510000,-2.178628,-0.871820,-1.470364,1.244555,-0.392033,-0.006302,1.769685,-1.306835,1.435437,3.774310,2.631168,2.621840,-6.350261,28.668012,-17.054300,-0.151507,-0.208253,0.000000,0.269284,-0.489084,0.000000
1.520000,-2.166094,-0.875805,-1.470355,1.262441,-0.404970,0.008183,1.807112,-1.279084,1.460801,3.706489,2.917245,2.446561,-7.306632,28.233489,-17.944646,-0.148627,-0.213153,0.000000,0.306457,-0.479310,0.000000
1.530000,-2.153379,-0.879919,-1.470200,1.280698,-0.417614,0.022914,1.843815,-1.248490,1.484368,3.628177,3.195838,2.262947,-8.357990,27.396428,-18.748974,-0.145377,-0.217945,0.000000,0.342958,-0.467803,0.000000
1.540000,-2.140480,-0.884158,-1.469897,1.299317,-0.429939,0.037871,1.879675,-1.215167,1.506060,3.539329,3.465174,2.071582,-9.304185,26.661339,-19.550002,-0.141768,-0.222608,0.000000,0.378514,-0.454559,-0.000000
1.550000,-2.127393,-0.888518,-1.469443,1.318291,-0.441918,0.053035,1.914601,-1.179187,1.525799,3.442094,3.729065,1.871947,-10.171295,26.135921,-20.390753,-0.137807,-0.227127,0.000000,0.413521,-0.439799,0.000000
1.560000,-2.114114,-0.892996,-1.468836,1.337609,-0.453523,0.068387,1.948517,-1.140586,1.543499,3.335903,3.987892,1.663767,-11.086661,25.471568,-21.204358,-0.133498,-0.231487,0.000000,0.447964,-0.423446,0.000000
1.570000,-2.100640,-0.897588,-1.468075,1.357261,-0.464729,0.083905,1.981319,-1.099429,1.559075,3.220360,4.238496,1.447859,-11.882345,24.478723,-21.886952,-0.128848,-0.235671,0.000000,0.481403,-0.405475,0.000000
1.580000,-2.086969,-0.902291,-1.467158,1.377236,-0.475512,0.099568,2.012924,-1.055816,1.572457,3.098256,4.477467,1.226028,-12.503972,23.264620,-22.451620,-0.123870,-0.239663,0.000000,0.513362,-0.386258,-0.000000
1.590000,-2.073096,-0.907099,-1.466083,1.397520,-0.485846,0.115354,2.043285,-1.009880,1.583595,2.970281,4.703789,0.998827,-13.186080,22.065088,-23.028487,-0.118582,-0.243455,0.000000,0.543652,-0.365903,0.000000
1.600000,-2.059018,-0.912008,-1.464851,1.418101,-0.495709,0.131240,2.072330,-0.961740,1.592433,2.834534,4.918768,0.765458,-13.943092,20.962325,-23.640828,-0.112998,-0.247032,0.000000,0.572368,-0.344188,-0.000000
1.610000,-2.044734,-0.917013,-1.463459,1.438967,-0.505081,0.147203,2.099975,-0.911504,1.598905,2.691419,5.123035,0.526010,-14.610552,19.800511,-24.195577,-0.107136,-0.250382,0.000000,0.599522,-0.321181,0.000000
1.620000,-2.030239,-0.922109,-1.461907,1.460101,-0.513939,0.163218,2.126158,-0.859280,1.602953,2.542323,5.314779,0.281546,-15.207370,18.358824,-24.636654,-0.101009,-0.253492,0.000000,0.624837,-0.297097,0.000000
1.630000,-2.015532,-0.927292,-1.460194,1.481490,-0.522266,0.179262,2.150822,-0.805209,1.604535,2.387272,5.490212,0.033277,-15.781728,16.692964,-24.995021,-0.094640,-0.256353,0.000000,0.647803,-0.272004,-0.000000
1.640000,-2.000609,-0.932555,-1.458321,1.503117,-0.530043,0.195309,2.173904,-0.749475,1.603619,2.226689,5.648638,-0.218354,-16.289180,15.104006,-25.334193,-0.088055,-0.258956,0.000000,0.668288,-0.246001,0.000000
1.650000,-1.985469,-0.937892,-1.456288,1.524968,-0.537256,0.211334,2.195355,-0.692236,1.600168,2.061488,5.792292,-0.473407,-16.769345,13.596156,-25.631760,-0.081276,-0.261292,0.000000,0.686516,-0.219226,0.000000
1.660000,-1.970110,-0.943300,-1.454095,1.547024,-0.543888,0.227312,2.215133,-0.633630,1.594151,1.891302,5.920561,-0.730989,-17.246568,11.980074,-25.844947,-0.074327,-0.263355,0.000000,0.702371,-0.191708,-0.000000
1.670000,-1.954529,-0.948770,-1.451742,1.569270,-0.549928,0.243217,2.233181,-0.573825,1.585549,1.716557,6.031893,-0.990305,-17.565725,10.313220,-26.033979,-0.067231,-0.265137,0.000000,0.715642,-0.163562,0.000000
1.680000,-1.938724,-0.954298,-1.449230,1.591688,-0.555365,0.259023,2.249465,-0.512992,1.574345,1.539987,6.126825,-1.251669,-17.706324,8.675875,-26.210120,-0.060016,-0.266634,0.000000,0.726382,-0.135135,-0.000000
1.690000,-1.922695,-0.959878,-1.446561,1.614260,-0.560188,0.274704,2.263981,-0.451288,1.560515,1.362430,6.205411,-1.514508,-17.882147,6.987185,-26.283616,-0.052706,-0.267845,0.000000,0.734583,-0.106583,0.000000
1.700000,-1.906439,-0.965502,-1.443736,1.636968,-0.564390,0.290234,2.276713,-0.388883,1.544054,1.182344,6.266569,-1.777341,-18.143574,5.218017,-26.269448,-0.045326,-0.268769,0.000000,0.740105,-0.077824,-0.000000
1.710000,-1.889956,-0.971165,-1.440757,1.659794,-0.567966,0.305585,2.287628,-0.325957,1.524968,0.999559,6.309771,-2.039897,-18.342136,3.438902,-26.223507,-0.037906,-0.269403,0.000000,0.742898,-0.048897,0.000000
1.720000,-1.873243,-0.976861,-1.437625,1.682720,-0.570910,0.320733,2.296704,-0.262688,1.503257,0.815502,6.335347,-2.301811,-18.382392,1.713552,-26.068849,-0.030470,-0.269748,0.000000,0.743020,-0.020018,0.000000
1.730000,-1.856301,-0.982584,-1.434342,1.705728,-0.573220,0.335650,2.303938,-0.199250,1.478932,0.631911,6.344042,-2.561274,-18.312448,0.021415,-25.770732,-0.023047,-0.269805,0.000000,0.740583,0.008517,0.000000
1.740000,-1.839129,-0.988326,-1.430912,1.728799,-0.574895,0.350312,2.309343,-0.135807,1.452031,0.449253,6.335775,-2.817226,-18.251632,-1.702117,-25.438871,-0.015661,-0.269578,0.000000,0.735614,0.036585,0.000000
1.750000,-1.821725,-0.994081,-1.427336,1.751915,-0.575936,0.364691,2.312923,-0.072534,1.422588,0.266878,6.310000,-3.070051,-18.212737,-3.405680,-25.157421,-0.008337,-0.269074,0.000000,0.728101,0.064231,0.000000
1.760000,-1.804091,-0.999844,-1.423618,1.775058,-0.576345,0.378763,2.314680,-0.009607,1.390630,0.084998,6.267662,-3.320374,-18.118257,-5.039677,-24.843352,-0.001100,-0.268295,0.000000,0.718206,0.091417,0.000000
1.770000,-1.786224,-1.005608,-1.419761,1.798209,-0.576128,0.392504,2.314623,0.052819,1.356180,-0.095487,6.209206,-3.566918,-17.941802,-6.734617,-24.281745,0.006026,-0.267247,0.000000,0.706039,0.117972,0.000000
1.780000,-1.768126,-1.011367,-1.415768,1.821350,-0.575289,0.405887,2.312770,0.114577,1.319292,-0.273838,6.132969,-3.806009,-17.711521,-8.496393,-23.490275,0.013019,-0.265937,0.000000,0.691480,0.143678,0.000000
1.790000,-1.749797,-1.017114,-1.411643,1.844464,-0.573836,0.418889,2.309146,0.175478,1.280060,-0.449717,6.039278,-4.036724,-17.460751,-10.127273,-22.758608,0.019855,-0.264374,0.000000,0.674653,0.168453,0.000000
1.800000,-1.731237,-1.022844,-1.407390,1.867533,-0.571779,0.431488,2.303776,0.235362,1.238557,-0.623053,5.930424,-4.261181,-17.191774,-11.655517,-22.136614,0.026512,-0.262568,0.000000,0.655896,0.192340,0.000000
1.810000,-1.712447,-1.028550,-1.403013,1.890539,-0.569129,0.443661,2.296685,0.294087,1.194836,-0.793553,5.806168,-4.479456,-16.886222,-13.198986,-21.429379,0.032972,-0.260527,0.000000,0.635258,0.215297,0.000000
1.820000,-1.693426,-1.034226,-1.398517,1.913467,-0.565898,0.455385,2.287905,0.351486,1.148968,-0.960777,5.666444,-4.689769,-16.541210,-14.597990,-20.551940,0.039216,-0.258261,0.000000,0.612820,0.237220,0.000000
1.830000,-1.674177,-1.039868,-1.393905,1.936298,-0.562099,0.466640,2.277470,0.407416,1.101041,-1.124377,5.514208,-4.890495,-16.164904,-15.783345,-19.573050,0.045228,-0.255781,0.000000,0.589001,0.258028,0.000000
1.840000,-1.654700,-1.045468,-1.389184,1.959016,-0.557749,0.477406,2.265417,0.461770,1.051158,-1.284076,5.350777,-5.081230,-15.764679,-16.973056,-18.598073,0.050997,-0.253097,0.000000,0.564029,0.277687,0.000000
1.850000,-1.634997,-1.051023,-1.384357,1.981606,-0.552864,0.487663,2.251788,0.514431,0.999416,-1.439671,5.174747,-5.262456,-15.348556,-18.279577,-17.629072,0.056509,-0.250221,0.000000,0.537822,0.296203,-0.000000
1.860000,-1.615068,-1.056526,-1.379431,2.004052,-0.547461,0.497394,2.236624,0.565265,0.945909,-1.591047,4.985186,-5.433811,-14.914944,-19.535920,-16.602917,0.061754,-0.247165,0.000000,0.510357,0.313570,0.000000
1.870000,-1.594916,-1.061972,-1.374409,2.026338,-0.541559,0.506581,2.219967,0.614135,0.890740,-1.737969,4.784029,-5.594515,-14.447519,-20.461618,-15.522105,0.066717,-0.243939,0.000000,0.481926,0.329764,0.000000
1.880000,-1.574541,-1.067357,-1.369299,2.048451,-0.535178,0.515209,2.201865,0.660945,0.834019,-1.879997,4.575953,-5.744253,-13.949936,-21.097337,-14.411888,0.071393,-0.240556,0.000000,0.453100,0.344754,0.000000
1.890000,-1.553947,-1.072675,-1.364105,2.070376,-0.528340,0.523262,2.182367,0.705654,0.775855,-2.016968,4.362082,-5.882752,-13.449591,-21.805197,-13.272054,0.075780,-0.237028,0.000000,0.424054,0.358547,0.000000
1.900000,-1.533134,-1.077924,-1.358834,2.092098,-0.521065,0.530726,2.161525,0.748187,0.716364,-2.148989,4.139850,-6.009694,-12.945607,-22.622850,-12.115085,0.079875,-0.233366,0.000000,0.394564,0.371178,0.000000
1.910000,-1.512105,-1.083097,-1.353491,2.113606,-0.513376,0.537589,2.139388,0.788451,0.655661,-2.275880,3.909625,-6.125054,-12.423893,-23.301709,-10.947405,0.083673,-0.229582,0.000000,0.364719,0.382663,0.000000
1.920000,-1.490862,-1.088191,-1.348082,2.134886,-0.505296,0.543839,2.116008,0.826380,0.593863,-2.397467,3.673815,-6.228643,-11.901458,-23.782761,-9.737728,0.087171,-0.225687,0.000000,0.334815,0.393015,0.000000
1.930000,-1.469407,-1.093203,-1.342614,2.155926,-0.496848,0.549466,2.091438,0.861927,0.531088,-2.513909,3.433970,-6.319809,-11.388585,-24.143260,-8.488771,0.090371,-0.221692,0.000000,0.305052,0.402275,0.000000
1.940000,-1.447743,-1.098128,-1.337093,2.176715,-0.488057,0.554461,2.065730,0.895059,0.467466,-2.625238,3.190950,-6.398418,-10.865569,-24.440946,-7.253144,0.093274,-0.217609,0.000000,0.275546,0.410482,-0.000000
1.950000,-1.425873,-1.102964,-1.331525,2.197241,-0.478947,0.558816,2.038934,0.925746,0.403120,-2.731221,2.945151,-6.464871,-10.320298,-24.713545,-6.032641,0.095883,-0.213447,0.000000,0.246350,0.417664,-0.000000
1.960000,-1.403798,-1.107707,-1.325916,2.217494,-0.469542,0.562523,2.011105,0.953962,0.338169,-2.831644,2.696679,-6.519071,-9.771101,-24.920777,-4.799169,0.098203,-0.209218,0.000000,0.217488,0.423837,0.000000
1.970000,-1.381523,-1.112355,-1.320274,2.237463,-0.459868,0.565579,1.982301,0.979680,0.272739,-2.926643,2.446735,-6.560855,-9.254673,-24.930434,-3.575291,0.100235,-0.204930,0.000000,0.189093,0.429053,0.000000
1.980000,-1.359049,-1.116904,-1.314605,2.257140,-0.449949,0.567978,1.952572,1.002897,0.206952,-3.016738,2.198071,-6.590577,-8.770472,-24.747773,-2.380244,0.101986,-0.200594,0.000000,0.161442,0.433412,0.000000
1.990000,-1.336380,-1.121354,-1.308915,2.276515,-0.439810,0.569718,1.921966,1.023641,0.140927,-3.102052,1.951780,-6.608460,-8.273844,-24.553602,-1.189208,0.103465,-0.196217,0.000000,0.134632,0.436970,0.000000
2.000000,-1.313519,-1.125701,-1.303210,2.295579,-0.429476,0.570797,1.890531,1.041932,0.074783,-3.182215,1.706999,-6.614361,-7.749815,-24.395196,0.019879,0.104680,-0.191808,0.000000,0.108566,0.439724,0.000000
2.010000,-1.290469,-1.129943,-1.297499,2.314325,-0.418971,0.571214,1.858322,1.057781,0.008640,-3.257049,1.463876,-6.608062,-7.232554,-24.150227,1.221138,0.105638,-0.187374,0.000000,0.083246,0.441690,-0.000000
2.020000,-1.267232,-1.134080,-1.291786,2.332745,-0.408320,0.570969,1.825390,1.071210,-0.057379,-3.326866,1.223994,-6.589938,-6.764250,-23.722186,2.345737,0.106347,-0.182924,0.000000,0.058809,0.442944,-0.000000
2.030000,-1.243814,-1.138110,-1.286079,2.350833,-0.397547,0.570066,1.791784,1.082261,-0.123159,-3.392334,0.989432,-6.561147,-6.338055,-23.150569,3.391129,0.106816,-0.178465,0.000000,0.035424,0.443605,0.000000
2.040000,-1.220216,-1.142031,-1.280385,2.368581,-0.386675,0.568506,1.757544,1.090998,-0.188601,-3.453627,0.760983,-6.522115,-5.901914,-22.563228,4.442415,0.107057,-0.174001,0.000000,0.013137,0.443728,0.000000
2.050000,-1.196442,-1.145843,-1.274709,2.385984,-0.375727,0.566294,1.722712,1.097481,-0.253601,-3.510372,0.538168,-6.472299,-5.442080,-21.989125,5.534180,0.107080,-0.169539,0.000000,-0.008124,0.443294,0.000000
2.060000,-1.172496,-1.149545,-1.269059,2.403035,-0.364726,0.563434,1.687336,1.101762,-0.318047,-3.562468,0.321200,-6.411432,-4.996376,-21.346683,6.601110,0.106895,-0.165084,0.000000,-0.028366,0.442321,0.000000
2.070000,-1.148381,-1.153138,-1.263441,2.419731,-0.353692,0.559933,1.651462,1.103905,-0.381830,-3.610299,0.111234,-6.340277,-4.601832,-20.574912,7.547441,0.106514,-0.160642,0.000000,-0.047515,0.440883,0.000000
2.080000,-1.124101,-1.156619,-1.257860,2.436065,-0.342647,0.555798,1.615130,1.103987,-0.444853,-3.654505,-0.090298,-6.260483,-4.249755,-19.704766,8.386952,0.105946,-0.156216,0.000000,-0.065484,0.439091,-0.000000
2.090000,-1.099660,-1.159991,-1.252325,2.452033,-0.331612,0.551036,1.578372,1.102099,-0.507040,-3.695294,-0.282861,-6.172538,-3.893964,-18.821475,9.240391,0.105205,-0.151810,0.000000,-0.082261,0.436990,-0.000000
2.100000,-1.075061,-1.163251,-1.246840,2.467632,-0.320605,0.545657,1.541224,1.098329,-0.568304,-3.732384,-0.466728,-6.075675,-3.517747,-17.933803,10.130078,0.104301,-0.147427,0.000000,-0.097901,0.434560,0.000000
2.110000,-1.050307,-1.166403,-1.241411,2.482858,-0.309646,0.539670,1.503725,1.092764,-0.628553,-3.765649,-0.641537,-5.969936,-3.154111,-16.992032,10.970491,0.103247,-0.143071,0.000000,-0.112403,0.431810,0.000000
2.120000,-1.025404,-1.169444,-1.236046,2.497707,-0.298750,0.533086,1.465911,1.085499,-0.687702,-3.795467,-0.806568,-5.856265,-2.848180,-15.993636,11.708426,0.102054,-0.138744,0.000000,-0.125742,0.428805,0.000000
2.130000,-1.000353,-1.172378,-1.230750,2.512176,-0.287936,0.525916,1.427815,1.076633,-0.745678,-3.822613,-0.961410,-5.735768,-2.590940,-14.962358,12.366325,0.100733,-0.134449,0.000000,-0.137922,0.425643,0.000000
2.140000,-0.975160,-1.175203,-1.225528,2.526263,-0.277218,0.518172,1.389459,1.066270,-0.802418,-3.847285,-1.105815,-5.608939,-2.323596,-13.907253,13.007717,0.099296,-0.130187,0.000000,-0.148957,0.422359,0.000000
2.150000,-0.949828,-1.177922,-1.220386,2.539965,-0.266610,0.509867,1.350870,1.054517,-0.857857,-3.869085,-1.239555,-5.475613,-2.038366,-12.826282,13.661271,0.097754,-0.125959,0.000000,-0.158856,0.418924,0.000000
2.160000,-0.924361,-1.180535,-1.215331,2.553280,-0.256127,0.501015,1.312077,1.041479,-0.911930,-3.888053,-1.362341,-5.335713,-1.774879,-11.722015,14.281343,0.096119,-0.121768,0.000000,-0.167620,0.415350,-0.000000
2.170000,-0.898762,-1.183045,-1.210366,2.566207,-0.245781,0.491629,1.273108,1.027270,-0.964571,-3.904582,-1.473996,-5.189987,-1.546652,-10.611681,14.784490,0.094402,-0.117613,0.000000,-0.175268,0.411690,-0.000000
2.180000,-0.873037,-1.185451,-1.205498,2.578742,-0.235582,0.481724,1.233986,1.011999,-1.015730,-3.918986,-1.574575,-5.040024,-1.340315,-9.502745,15.180939,0.092614,-0.113497,0.000000,-0.181846,0.407994,0.000000
2.190000,-0.847188,-1.187756,-1.200731,2.590886,-0.225541,0.471314,1.194729,0.995778,-1.065372,-3.931389,-1.664050,-4.886368,-1.140055,-8.381602,15.581543,0.090765,-0.109418,0.000000,-0.187378,0.404283,0.000000
2.200000,-0.821219,-1.189962,-1.196072,2.602637,-0.215666,0.460416,1.155358,0.978718,-1.113457,-3.941787,-1.742207,-4.728393,-0.943049,-7.237608,16.010942,0.088866,-0.105377,0.000000,-0.191863,0.400553,-0.000000
2.210000,-0.795135,-1.192069,-1.191523,2.613993,-0.205966,0.449045,1.115893,0.960934,-1.159940,-3.950250,-1.808803,-4.566149,-0.759009,-6.088513,16.393774,0.086928,-0.101374,0.000000,-0.195301,0.396813,0.000000
2.220000,-0.768939,-1.194081,-1.187091,2.624955,-0.196448,0.437217,1.076353,0.942542,-1.204780,-3.956967,-1.863977,-4.400517,-0.596492,-4.978094,16.678664,0.084960,-0.097410,0.000000,-0.197730,0.393091,-0.000000
2.230000,-0.742636,-1.195998,-1.182779,2.635521,-0.187115,0.424950,1.036754,0.923655,-1.247950,-3.962180,-1.908364,-4.232576,-0.451557,-3.909785,16.889761,0.082973,-0.093483,0.000000,-0.199232,0.389418,-0.000000
2.240000,-0.716229,-1.197823,-1.178592,2.645690,-0.177974,0.412258,0.997109,0.904375,-1.289432,-3.965998,-1.942173,-4.062722,-0.312128,-2.833800,17.093363,0.080975,-0.089594,0.000000,-0.199844,0.385805,-0.000000
2.250000,-0.689722,-1.199558,-1.174534,2.655463,-0.169028,0.399161,0.957434,0.884811,-1.329205,-3.968422,-1.965040,-3.890708,-0.178504,-1.731307,17.303723,0.078976,-0.085741,0.000000,-0.199544,0.382251,-0.000000
2.260000,-0.663119,-1.201204,-1.170609,2.664839,-0.160278,0.385674,0.917741,0.865074,-1.367246,-3.969568,-1.976799,-3.716648,-0.057638,-0.643918,17.478158,0.076984,-0.081924,0.000000,-0.198329,0.378763,-0.000000
2.270000,-0.636425,-1.202763,-1.166820,2.673818,-0.151726,0.371816,0.878042,0.845275,-1.403537,-3.969575,-1.977919,-3.541145,0.054849,0.368911,17.584471,0.075009,-0.078143,0.000000,-0.196257,0.375359,-0.000000
2.280000,-0.609643,-1.204238,-1.163172,2.682399,-0.143373,0.357604,0.838349,0.825516,-1.438069,-3.968471,-1.969421,-3.364958,0.162885,1.312608,17.637782,0.073059,-0.074395,0.000000,-0.193429,0.372043,0.000000
2.290000,-0.582777,-1.205631,-1.159668,2.690584,-0.135216,0.343055,0.798673,0.805887,-1.470837,-3.966317,-1.951667,-3.188390,0.261043,2.257951,17.682516,0.071140,-0.070681,0.000000,-0.189886,0.368820,0.000000
2.300000,-0.555831,-1.206943,-1.156311,2.698373,-0.127255,0.328187,0.759023,0.786482,-1.501837,-3.963250,-1.924262,-3.011308,0.345026,3.224083,17.727593,0.069260,-0.066999,0.000000,-0.185597,0.365696,-0.000000
2.310000,-0.528810,-1.208176,-1.153104,2.705765,-0.119487,0.313018,0.719408,0.767401,-1.531063,-3.959417,-1.887185,-2.833838,0.419899,4.156966,17.746216,0.067428,-0.063349,0.000000,-0.180562,0.362684,-0.000000
2.320000,-0.501716,-1.209333,-1.150051,2.712761,-0.111907,0.297566,0.679835,0.748739,-1.558513,-3.954852,-1.841122,-2.656384,0.497940,5.000520,17.723454,0.065649,-0.059729,0.000000,-0.174849,0.359785,0.000000
2.330000,-0.474554,-1.210414,-1.147153,2.719362,-0.104512,0.281848,0.640311,0.730579,-1.584190,-3.949458,-1.787175,-2.479369,0.578638,5.765649,17.671742,0.063930,-0.056137,0.000000,-0.168555,0.356988,0.000000
2.340000,-0.447329,-1.211423,-1.144414,2.725567,-0.097295,0.265882,0.600846,0.712995,-1.608101,-3.943280,-1.725809,-2.302949,0.646668,6.519392,17.613787,0.062277,-0.052574,0.000000,-0.161721,0.354296,-0.000000
2.350000,-0.420043,-1.212360,-1.141835,2.731379,-0.090252,0.249686,0.561445,0.696063,-1.630249,-3.936525,-1.656787,-2.127093,0.700221,7.281500,17.545786,0.060696,-0.049037,0.000000,-0.154325,0.351722,0.000000
2.360000,-0.392701,-1.213228,-1.139420,2.736796,-0.083374,0.233277,0.522115,0.679860,-1.650643,-3.929275,-1.580179,-1.952033,0.750437,8.002023,17.456949,0.059191,-0.045526,0.000000,-0.146371,0.349270,-0.000000
2.370000,-0.365307,-1.214028,-1.137170,2.741821,-0.076655,0.216673,0.482860,0.664459,-1.669290,-3.921516,-1.496746,-1.777954,0.801334,8.623710,17.367594,0.057768,-0.042039,0.000000,-0.137922,0.346937,0.000000
2.380000,-0.337865,-1.214761,-1.135087,2.746453,-0.070085,0.199891,0.443685,0.649925,-1.686202,-3.913249,-1.407705,-1.604681,0.849820,9.157564,17.287686,0.056432,-0.038575,0.000000,-0.129079,0.344718,0.000000
2.390000,-0.310378,-1.215429,-1.133172,2.750695,-0.063656,0.182949,0.404595,0.636305,-1.701384,-3.904519,-1.313595,-1.432200,0.892191,9.674497,17.192561,0.055186,-0.035133,0.000000,-0.119883,0.342614,0.000000
2.400000,-0.282851,-1.216034,-1.131428,2.754545,-0.057359,0.165863,0.365594,0.623653,-1.714846,-3.895405,-1.214215,-1.260830,0.927715,10.192423,17.062286,0.054034,-0.031712,0.000000,-0.110312,0.340630,0.000000
2.410000,-0.255287,-1.216576,-1.129855,2.758006,-0.051183,0.148652,0.326687,0.612021,-1.726600,-3.885965,-1.109747,-1.090955,0.959436,10.660441,16.918694,0.052979,-0.028310,0.000000,-0.100378,0.338768,0.000000
2.420000,-0.227691,-1.217058,-1.128455,2.761079,-0.045118,0.131331,0.287875,0.601458,-1.736665,-3.876216,-1.001006,-0.922456,0.991396,11.031132,16.819616,0.052026,-0.024926,0.000000,-0.090143,0.337025,-0.000000
2.430000,-0.200066,-1.217479,-1.127228,2.763764,-0.039154,0.113919,0.249162,0.592001,-1.745049,-3.866137,-0.889124,-0.754562,1.023563,11.317990,16.764463,0.051176,-0.021560,0.000000,-0.079694,0.335396,0.000000
2.440000,-0.172416,-1.217841,-1.126176,2.766062,-0.033278,0.096430,0.210552,0.583675,-1.751756,-3.855745,-0.774647,-0.587167,1.051228,11.580036,16.678741,0.050432,-0.018209,0.000000,-0.069070,0.333880,0.000000
2.450000,-0.144744,-1.218144,-1.125300,2.767975,-0.027480,0.078883,0.172047,0.576508,-1.756793,-3.845113,-0.657523,-0.420987,1.070865,11.829672,16.538210,0.049795,-0.014873,0.000000,-0.058262,0.332482,0.000000
2.460000,-0.117056,-1.218390,-1.124599,2.769503,-0.021748,0.061294,0.133650,0.570525,-1.760176,-3.834328,-0.538053,-0.256403,1.086373,12.025794,16.396882,0.049267,-0.011551,0.000000,-0.047289,0.331207,0.000000
2.470000,-0.089354,-1.218579,-1.124074,2.770648,-0.016070,0.043680,0.095361,0.565747,-1.761921,-3.823385,-0.417007,-0.093050,1.108268,12.136816,16.315664,0.048849,-0.008241,0.000000,-0.036208,0.330052,-0.000000
2.480000,-0.061643,-1.218712,-1.123725,2.771410,-0.010433,0.026056,0.057182,0.562185,-1.762037,-3.812162,-0.295317,0.069911,1.136074,12.174129,16.280435,0.048543,-0.004941,0.000000,-0.025088,0.329003,0.000000
2.490000,-0.033926,-1.218788,-1.123553,2.771792,-0.004826,0.008439,0.019118,0.559840,-1.760523,-3.800664,-0.173525,0.232559,1.156078,12.177381,16.213672,0.048347,-0.001652,0.000000,-0.013966,0.328060,0.000000
2.500000,-0.006207,-1.218808,-1.123556,2.771793,0.000763,-0.009154,-0.018831,0.558714,-1.757386,-3.789041,-0.051769,0.394184,1.165739,12.159179,16.100659,0.048263,0.001628,0.000000,-0.002849,0.327236,0.000000
2.510000,0.021510,-1.218773,-1.123736,2.771415,0.006348,-0.026709,-0.056663,0.558805,-1.752639,-3.777349,0.069659,0.554572,1.174674,12.092325,15.994774,0.048290,0.004900,0.000000,0.008246,0.326532,0.000000
2.520000,0.049221,-1.218681,-1.124090,2.770660,0.011940,-0.044207,-0.094378,0.560107,-1.746294,-3.765547,0.190077,0.714080,1.188155,11.943648,15.929907,0.048428,0.008167,0.000000,0.019268,0.325944,-0.000000
2.530000,0.076923,-1.218534,-1.124620,2.769527,0.017550,-0.061634,-0.131974,0.562607,-1.738357,-3.753586,0.308532,0.873170,1.202858,11.720318,15.889718,0.048676,0.011427,0.000000,0.030145,0.325468,0.000000
2.540000,0.104612,-1.218330,-1.125323,2.768020,0.023192,-0.078974,-0.169450,0.566278,-1.728831,-3.741490,0.424484,1.031874,1.212650,11.466646,15.832101,0.049031,0.014684,0.000000,0.040839,0.325104,0.000000
2.550000,0.132283,-1.218070,-1.126199,2.766138,0.028876,-0.096211,-0.206804,0.571096,-1.717720,-3.729333,0.537865,1.189812,1.219372,11.196696,15.747774,0.049493,0.017938,0.000000,0.051348,0.324859,0.000000
2.560000,0.159934,-1.217753,-1.127247,2.763884,0.034614,-0.113329,-0.244036,0.577035,-1.705034,-3.717103,0.648418,1.346829,1.226985,10.880826,15.664776,0.050058,0.021190,0.000000,0.061658,0.324730,0.000000
2.570000,0.187561,-1.217378,-1.128466,2.761258,0.040416,-0.130312,-0.281146,0.584065,-1.690783,-3.704793,0.755481,1.503108,1.230260,10.486531,15.606965,0.050726,0.024441,0.000000,0.071717,0.324716,0.000000
2.580000,0.215160,-1.216944,-1.129854,2.758261,0.046295,-0.147144,-0.318132,0.592145,-1.674972,-3.692497,0.858148,1.658969,1.227209,10.022689,15.566490,0.051493,0.027693,0.000000,0.081454,0.324827,-0.000000
2.590000,0.242726,-1.216452,-1.131409,2.754895,0.052259,-0.163811,-0.354996,0.601228,-1.657604,-3.680249,0.955935,1.814438,1.225642,9.533657,15.511394,0.052355,0.030947,0.000000,0.090834,0.325066,0.000000
2.600000,0.270257,-1.215899,-1.133130,2.751161,0.058319,-0.180297,-0.391737,0.611264,-1.638684,-3.667984,1.048821,1.969197,1.230089,9.033049,15.426967,0.053310,0.034203,0.000000,0.099856,0.325426,0.000000
2.610000,0.297749,-1.215286,-1.135015,2.747060,0.064485,-0.196585,-0.428356,0.622204,-1.618220,-3.655647,1.136596,2.122977,1.235069,8.492191,15.334322,0.054353,0.037465,0.000000,0.108506,0.325901,0.000000
2.620000,0.325199,-1.214610,-1.137061,2.742594,0.070764,-0.212661,-0.464850,0.633996,-1.596224,-3.643283,1.218665,2.275883,1.230109,7.881421,15.270132,0.055480,0.040732,0.000000,0.116735,0.326497,0.000000
2.630000,0.352601,-1.213870,-1.139268,2.737763,0.077165,-0.228509,-0.501221,0.646577,-1.572702,-3.631045,1.294224,2.428380,1.216637,7.209969,15.228317,0.056688,0.044005,0.000000,0.124478,0.327229,0.000000
2.640000,0.379954,-1.213066,-1.141632,2.732570,0.083695,-0.244115,-0.537471,0.659880,-1.547656,-3.618950,1.362865,2.580449,1.209018,6.519547,15.157688,0.057970,0.047287,0.000000,0.131700,0.328099,0.000000
2.650000,0.407253,-1.212196,-1.144150,2.727014,0.090362,-0.259462,-0.573600,0.673835,-1.521093,-3.606865,1.424615,2.731533,1.210823,5.824735,15.044527,0.059322,0.050579,0.000000,0.138403,0.329094,-0.000000
2.660000,0.434494,-1.211259,-1.146821,2.721098,0.097172,-0.274537,-0.609608,0.688372,-1.493026,-3.594734,1.479359,2.881340,1.212595,5.099493,14.921866,0.060738,0.053881,0.000000,0.144574,0.330209,0.000000
2.670000,0.461675,-1.210253,-1.149641,2.714822,0.104130,-0.289323,-0.645495,0.703422,-1.463467,-3.582613,1.526605,3.029971,1.207331,4.312745,14.816236,0.062214,0.057195,0.000000,0.150170,0.331450,-0.000000
2.680000,0.488791,-1.209176,-1.152607,2.708188,0.111240,-0.303806,-0.681261,0.718904,-1.432426,-3.570587,1.565614,3.177665,1.198327,3.473130,14.714412,0.063742,0.060523,0.000000,0.155124,0.332825,-0.000000
2.690000,0.515838,-1.208028,-1.155717,2.701197,0.118508,-0.317972,-0.716907,0.734734,-1.399913,-3.558646,1.596068,3.324259,1.195096,2.625762,14.579556,0.065317,0.063866,0.000000,0.159403,0.334335,0.000000
2.700000,0.542815,-1.206806,-1.158967,2.693850,0.125935,-0.331804,-0.752433,0.750826,-1.365941,-3.546685,1.618129,3.469256,1.199495,1.788184,14.413158,0.066930,0.067225,0.000000,0.163016,0.335969,-0.000000
2.710000,0.569715,-1.205509,-1.162353,2.686148,0.133524,-0.345290,-0.787840,0.767097,-1.330528,-3.534656,1.631831,3.612522,1.205721,0.932723,14.236486,0.068577,0.070601,0.000000,0.165957,0.337722,0.000000
2.720000,0.596537,-1.204136,-1.165873,2.678093,0.141277,-0.358415,-0.823127,0.783462,-1.293691,-3.522571,1.636784,3.753985,1.210483,0.022655,14.035403,0.070250,0.073996,0.000000,0.168187,0.339595,0.000000
2.730000,0.623277,-1.202684,-1.169521,2.669685,0.149193,-0.371164,-0.858292,0.799832,-1.255448,-3.510447,1.632285,3.893230,1.215784,-0.931731,13.797402,0.071941,0.077410,0.000000,0.169630,0.341588,0.000000
2.740000,0.649931,-1.201152,-1.173296,2.660927,0.157273,-0.383524,-0.893336,0.816108,-1.215826,-3.498255,1.618149,4.029934,1.226676,-1.876467,13.540488,0.073643,0.080845,0.000000,0.170259,0.343695,0.000000
2.750000,0.676496,-1.199538,-1.177192,2.651819,0.165516,-0.395481,-0.928257,0.832195,-1.174850,-3.485913,1.594755,4.164040,1.246878,-2.796826,13.282462,0.075347,0.084303,0.000000,0.170096,0.345910,-0.000000
2.760000,0.702968,-1.197842,-1.181205,2.642362,0.173917,-0.407021,-0.963054,0.848003,-1.132545,-3.473318,1.562213,4.295583,1.273529,-3.725174,13.006710,0.077045,0.087784,0.000000,0.169139,0.348222,0.000000
2.770000,0.729343,-1.196060,-1.185332,2.632558,0.182476,-0.418132,-0.997723,0.863440,-1.088938,-3.460443,1.520252,4.424174,1.297775,-4.686149,12.662857,0.078729,0.091289,0.000000,0.167348,0.350626,-0.000000
2.780000,0.755619,-1.194192,-1.189568,2.622407,0.191186,-0.428800,-1.032263,0.878408,-1.044062,-3.447362,1.468490,4.548840,1.320646,-5.665870,12.250383,0.080392,0.094819,0.000000,0.164667,0.353119,0.000000
2.790000,0.781791,-1.192236,-1.193908,2.611912,0.200044,-0.439013,-1.066670,0.892809,-0.997961,-3.434030,1.406934,4.669182,1.355302,-6.626391,11.834743,0.082023,0.098374,0.000000,0.161077,0.355692,0.000000
2.800000,0.807857,-1.190191,-1.198348,2.601074,0.209042,-0.448759,-1.100943,0.906547,-0.950678,-3.420256,1.335962,4.785535,1.405489,-7.559806,11.439756,0.083613,0.101957,0.000000,0.156596,0.358328,-0.000000
2.810000,0.833813,-1.188056,-1.202884,2.589893,0.218175,-0.458026,-1.135076,0.919529,-0.902251,-3.405920,1.255738,4.897977,1.463102,-8.486292,11.017938,0.085155,0.105567,0.000000,0.151223,0.361014,0.000000
2.820000,0.859655,-1.185828,-1.207509,2.578372,0.227433,-0.466804,-1.169062,0.931662,-0.852719,-3.390994,1.166236,5.005894,1.521907,-9.413343,10.509277,0.086638,0.109204,0.000000,0.144930,0.363738,0.000000
2.830000,0.885380,-1.183507,-1.212220,2.566512,0.236808,-0.475081,-1.202895,0.942853,-0.802133,-3.375482,1.067471,5.108162,1.585792,-10.329451,9.925268,0.088053,0.112869,0.000000,0.137689,0.366487,0.000000
2.840000,0.910985,-1.181092,-1.217011,2.554314,0.246290,-0.482847,-1.236571,0.953011,-0.750555,-3.359278,0.959647,5.204399,1.663935,-11.218561,9.343550,0.089391,0.116563,0.000000,0.129494,0.369239,-0.000000
2.850000,0.936466,-1.178581,-1.221877,2.541781,0.255868,-0.490092,-1.270081,0.962046,-0.698045,-3.342203,0.843100,5.295033,1.753995,-12.079908,8.784676,0.090643,0.120284,0.000000,0.120357,0.371977,-0.000000
2.860000,0.961821,-1.175974,-1.226812,2.528913,0.265531,-0.496807,-1.303415,0.969873,-0.644655,-3.324198,0.718049,5.380092,1.851256,-12.918129,8.195118,0.091798,0.124033,0.000000,0.110275,0.374689,-0.000000
2.870000,0.987045,-1.173270,-1.231813,2.515712,0.275266,-0.502985,-1.336565,0.976407,-0.590443,-3.305178,0.584738,5.458936,1.965833,-13.722387,7.525798,0.092848,0.127810,0.000000,0.099242,0.377353,-0.000000
2.880000,1.012135,-1.170469,-1.236872,2.502182,0.285059,-0.508616,-1.369519,0.981568,-0.535476,-3.284882,0.443601,5.530608,2.101076,-14.484466,6.790482,0.093782,0.131613,0.000000,0.087267,0.379923,0.000000
2.890000,1.037088,-1.167569,-1.241985,2.488322,0.294897,-0.513694,-1.402263,0.985279,-0.479831,-3.263156,0.295048,5.594745,2.243950,-15.212365,6.053610,0.094593,0.135442,0.000000,0.074361,0.382370,0.000000
2.900000,1.061901,-1.164571,-1.247146,2.474136,0.304765,-0.518213,-1.434782,0.987469,-0.423581,-3.240003,0.139354,5.651681,2.390095,-15.916571,5.345262,0.095269,0.139295,0.000000,0.060529,0.384686,0.000000
2.910000,1.086571,-1.161474,-1.252349,2.459626,0.314646,-0.522166,-1.467063,0.988066,-0.366797,-3.215354,-0.023283,5.701651,2.549718,-16.584887,4.621566,0.095803,0.143171,0.000000,0.045768,0.386857,-0.000000
2.920000,1.111094,-1.158278,-1.257589,2.444795,0.324526,-0.525549,-1.499089,0.987003,-0.309548,-3.189008,-0.192344,5.744112,2.734052,-17.177493,3.805357,0.096184,0.147068,0.000000,0.030100,0.388842,0.000000
2.930000,1.135467,-1.154983,-1.262860,2.429645,0.334386,-0.528357,-1.530843,0.984219,-0.251915,-3.160673,-0.366833,5.777758,2.942529,-17.691183,2.910665,0.096404,0.150984,0.000000,0.013586,0.390581,0.000000
2.940000,1.159687,-1.151590,-1.268156,2.414178,0.344210,-0.530587,-1.562303,0.979667,-0.193993,-3.130158,-0.546167,5.802325,3.161201,-18.173028,2.042840,0.096455,0.154917,0.000000,-0.003740,0.392032,0.000000
2.950000,1.183750,-1.148099,-1.273472,2.398399,0.353980,-0.532237,-1.593446,0.973296,-0.135868,-3.097449,-0.730294,5.818615,3.375383,-18.637928,1.211827,0.096328,0.158862,0.000000,-0.021884,0.393189,-0.000000
2.960000,1.207655,-1.144511,-1.278801,2.382309,0.363676,-0.533305,-1.624252,0.965061,-0.077621,-3.062650,-0.918926,5.826562,3.596232,-19.048113,0.349731,0.096016,0.162817,0.000000,-0.040838,0.394042,0.000000
2.970000,1.231397,-1.140826,-1.284138,2.365914,0.373281,-0.533789,-1.654699,0.954918,-0.019337,-3.025525,-1.111256,5.825609,3.865892,-19.359060,-0.548189,0.095510,0.166779,0.000000,-0.060543,0.394540,-0.000000
2.980000,1.254973,-1.137045,-1.289477,2.349215,0.382775,-0.533691,-1.684762,0.942836,0.038892,-2.985332,-1.306107,5.815598,4.183674,-19.575082,-1.456937,0.094804,0.170744,0.000000,-0.080898,0.394586,0.000000
2.990000,1.278381,-1.133170,-1.294812,2.332218,0.392138,-0.533012,-1.714406,0.928795,0.096975,-2.941851,-1.502758,5.796470,4.492497,-19.749258,-2.370966,0.093891,0.174706,0.000000,-0.101840,0.394134,-0.000000
3.000000,1.301617,-1.129202,-1.300137,2.314927,0.401351,-0.531752,-1.743599,0.912780,0.154821,-2.895482,-1.701092,5.768179,4.776962,-19.911225,-3.280966,0.092766,0.178661,0.000000,-0.123367,0.393199,0.000000
3.010000,1.324679,-1.125143,-1.305447,2.297346,0.410393,-0.529915,-1.772315,0.894774,0.212338,-2.846312,-1.900982,5.730851,5.076251,-20.019441,-4.186822,0.091423,0.182604,0.000000,-0.145470,0.391768,-0.000000
3.020000,1.347564,-1.120995,-1.310735,2.279481,0.419246,-0.527505,-1.800525,0.874761,0.269438,-2.793957,-2.101481,5.684442,5.423130,-19.987057,-5.115763,0.089856,0.186529,0.000000,-0.168055,0.389778,0.000000
3.030000,1.370269,-1.116758,-1.315997,2.261336,0.427889,-0.524526,-1.828194,0.852744,0.326027,-2.737849,-2.300723,5.628536,5.805935,-19.818713,-6.066866,0.088060,0.190431,0.000000,-0.190934,0.387137,0.000000
3.040000,1.392791,-1.112437,-1.321226,2.242917,0.436301,-0.520985,-1.855282,0.828746,0.382009,-2.677839,-2.497855,5.563105,6.181703,-19.627728,-6.996714,0.086036,0.194302,0.000000,-0.214009,0.383803,0.000000
3.050000,1.415127,-1.108032,-1.326417,2.224230,0.444463,-0.516886,-1.881751,0.802787,0.437289,-2.614215,-2.693278,5.488602,6.537383,-19.454584,-7.890741,0.083779,0.198135,0.000000,-0.237308,0.379788,0.000000
3.060000,1.437276,-1.103547,-1.331564,2.205282,0.452357,-0.512239,-1.907567,0.774881,0.491781,-2.547091,-2.886947,5.405290,6.901248,-19.218603,-8.774621,0.081289,0.201924,0.000000,-0.260810,0.375082,0.000000
3.070000,1.459233,-1.098985,-1.336661,2.186079,0.459961,-0.507051,-1.932693,0.745048,0.545395,-2.476190,-3.077650,5.313109,7.304335,-18.818843,-9.671175,0.078562,0.205661,0.000000,-0.284373,0.369630,0.000000
3.080000,1.480997,-1.094348,-1.341705,2.166628,0.467258,-0.501331,-1.957090,0.713328,0.598043,-2.401004,-3.263324,5.211867,7.737857,-18.274841,-10.566448,0.075600,0.209339,0.000000,-0.307759,0.363351,0.000000
3.090000,1.502566,-1.089640,-1.346688,2.146937,0.474228,-0.495090,-1.980713,0.679781,0.649632,-2.321433,-3.443147,5.101780,8.159053,-17.719055,-11.425366,0.072406,0.212948,0.000000,-0.330848,0.356213,-0.000000
3.100000,1.523936,-1.084864,-1.351607,2.127014,0.480853,-0.488338,-2.003519,0.644465,0.700078,-2.237823,-3.617705,4.983359,8.555451,-17.194270,-12.258367,0.068982,0.216481,0.000000,-0.353669,0.348239,-0.000000
3.110000,1.545106,-1.080023,-1.356455,2.106867,0.487117,-0.481088,-2.025470,0.607427,0.749300,-2.150324,-3.787032,4.856613,8.954341,-16.609883,-13.082613,0.065332,0.219929,0.000000,-0.376191,0.339422,0.000000
3.120000,1.566073,-1.075121,-1.361228,2.086504,0.493002,-0.473352,-2.046526,0.568724,0.797211,-2.058736,-3.949903,4.721707,9.381744,-15.862803,-13.852967,0.061458,0.223283,0.000000,-0.398246,0.329726,-0.000000
3.130000,1.586836,-1.070163,-1.365922,2.065936,0.498491,-0.465144,-2.066644,0.528429,0.843734,-1.962689,-4.104288,4.579554,9.828208,-14.981372,-14.554771,0.057366,0.226535,0.000000,-0.419567,0.319114,0.000000
3.140000,1.607392,-1.065152,-1.370531,2.045172,0.503570,-0.456477,-2.085779,0.486638,0.888802,-1.862172,-4.249530,4.430612,10.256759,-14.102962,-15.245960,0.053066,0.229675,0.000000,-0.440036,0.307580,0.000000
3.150000,1.627739,-1.060091,-1.375051,2.024221,0.508224,-0.447368,-2.103888,0.443439,0.932346,-1.757554,-4.386347,4.274634,10.656180,-13.247374,-15.953924,0.048566,0.232694,0.000000,-0.459687,0.295141,-0.000000
3.160000,1.647876,-1.054987,-1.379479,2.003094,0.512439,-0.437831,-2.120930,0.398911,0.974295,-1.649049,-4.514478,4.111533,11.048951,-12.325443,-16.632957,0.043872,0.235584,0.000000,-0.478445,0.281808,-0.000000
3.170000,1.667801,-1.049843,-1.383808,1.981802,0.516202,-0.427882,-2.136869,0.353149,1.014577,-1.536575,-4.632856,3.941975,11.456930,-11.305620,-17.210328,0.038997,0.238335,0.000000,-0.496142,0.267580,0.000000
3.180000,1.687512,-1.044663,-1.388036,1.960356,0.519502,-0.417539,-2.151662,0.306254,1.053134,-1.419910,-4.740590,3.767327,11.870332,-10.215998,-17.694863,0.033950,0.240938,0.000000,-0.512625,0.252460,0.000000
3.190000,1.707008,-1.039453,-1.392159,1.938769,0.522327,-0.406819,-2.165267,0.258337,1.089923,-1.299169,-4.837176,3.588078,12.256878,-9.099491,-18.178119,0.028745,0.243386,0.000000,-0.527790,0.236474,0.000000
3.200000,1.726288,-1.034216,-1.396173,1.917051,0.524669,-0.395741,-2.177645,0.209511,1.124896,-1.174772,-4.922580,3.403764,12.614811,-7.998197,-18.677566,0.023394,0.245669,0.000000,-0.541589,0.219654,0.000000
3.210000,1.745349,-1.028959,-1.400074,1.895216,0.526518,-0.384321,-2.188762,0.159886,1.157998,-1.046872,-4.997140,3.214527,12.962081,-6.886153,-19.128016,0.017913,0.247779,0.000000,-0.554013,0.202024,-0.000000
3.220000,1.764192,-1.023686,-1.403859,1.873276,0.527867,-0.372581,-2.198583,0.109568,1.189186,-0.915531,-5.060303,3.021204,13.292320,-5.649744,-19.487428,0.012315,0.249709,0.000000,-0.564956,0.183619,0.000000
3.230000,1.782815,-1.018402,-1.407525,1.851244,0.528709,-0.360538,-2.207073,0.058680,1.218423,-0.781026,-5.110135,2.824778,13.594165,-4.295695,-19.773718,0.006615,0.251451,0.000000,-0.574159,0.164507,-0.000000
3.240000,1.801217,-1.013112,-1.411070,1.829134,0.529040,-0.348212,-2.214203,0.007365,1.245682,-0.643648,-5.146217,2.625729,13.873727,-2.987641,-20.036700,0.000833,0.252998,0.000000,-0.581537,0.144745,0.000000
3.250000,1.819398,-1.007821,-1.414490,1.806960,0.528856,-0.335624,-2.219946,-0.044245,1.270937,-0.503551,-5.169888,2.424044,14.145973,-1.765168,-20.290183,-0.005015,0.254345,0.000000,-0.587208,0.124364,0.000000
3.260000,1.837356,-1.002535,-1.417782,1.784735,0.528155,-0.322793,-2.224274,-0.096032,1.294163,-0.360728,-5.181520,2.219926,14.401802,-0.523581,-20.498778,-0.010910,0.255485,0.000000,-0.591186,0.103388,0.000000
3.270000,1.855092,-0.997258,-1.420945,1.762475,0.526936,-0.309741,-2.227161,-0.147875,1.315336,-0.215515,-5.180359,2.014068,14.594665,0.801620,-20.621527,-0.016837,0.256412,0.000000,-0.593362,0.081892,0.000000
3.280000,1.872606,-0.991996,-1.423977,1.740192,0.525198,-0.296487,-2.228585,-0.199640,1.334444,-0.068835,-5.165488,1.807495,14.725382,2.161974,-20.662677,-0.022776,0.257122,0.000000,-0.593612,0.060030,0.000000
3.290000,1.889896,-0.986754,-1.426875,1.717903,0.522943,-0.283052,-2.228537,-0.251185,1.351486,0.078992,-5.137120,1.600815,14.852585,3.467964,-20.675937,-0.028708,0.257613,0.000000,-0.591950,0.037878,0.000000
3.300000,1.906964,-0.981537,-1.429638,1.695621,0.520174,-0.269457,-2.227005,-0.302382,1.366460,0.228217,-5.096129,1.393977,14.966754,4.764689,-20.707948,-0.034614,0.257880,0.000000,-0.588466,0.015432,0.000000
3.310000,1.923809,-0.976351,-1.432264,1.673363,0.516895,-0.255723,-2.223973,-0.353107,1.379365,0.378327,-5.041826,1.186656,15.026574,6.097630,-20.719070,-0.040476,0.257921,0.000000,-0.583076,-0.007235,0.000000
3.320000,1.940431,-0.971199,-1.434753,1.651142,0.513112,-0.241870,-2.219438,-0.403219,1.390193,0.528748,-4.974176,0.979595,15.065625,7.310831,-20.581507,-0.046274,0.257735,0.000000,-0.575777,-0.030011,0.000000
3.330000,1.956832,-0.966088,-1.437102,1.628974,0.508831,-0.227919,-2.213398,-0.452591,1.398957,0.679640,-4.895610,0.775026,15.093186,8.374100,-20.304289,-0.051991,0.257320,0.000000,-0.566866,-0.052821,0.000000
3.340000,1.973011,-0.961023,-1.439311,1.606874,0.504060,-0.213891,-2.205845,-0.501131,1.405694,0.830612,-4.806694,0.573509,15.056651,9.495021,-20.061686,-0.057611,0.256677,0.000000,-0.556426,-0.075580,0.000000
3.350000,1.988969,-0.956007,-1.441379,1.584857,0.498808,-0.199805,-2.196786,-0.548725,1.410427,0.980773,-4.705709,0.373792,14.979699,10.703307,-19.875984,-0.063118,0.255806,0.000000,-0.544267,-0.098200,0.000000
3.360000,2.004708,-0.951047,-1.443307,1.562938,0.493086,-0.185682,-2.186230,-0.595245,1.413170,1.130206,-4.592628,0.175990,14.893089,11.849310,-19.631483,-0.068495,0.254709,0.000000,-0.530403,-0.120660,0.000000
3.370000,2.020228,-0.946145,-1.445093,1.541133,0.486903,-0.171542,-2.174182,-0.640577,1.413947,1.278635,-4.468723,-0.018838,14.704358,12.885279,-19.303141,-0.073725,0.253387,0.000000,-0.515011,-0.142875,0.000000
3.380000,2.035530,-0.941308,-1.446738,1.519455,0.480274,-0.157403,-2.160657,-0.684619,1.412793,1.424293,-4.334922,-0.210073,14.389970,13.859990,-18.937638,-0.078794,0.251844,0.000000,-0.498222,-0.164608,-0.000000
3.390000,2.050617,-0.936540,-1.448241,1.497919,0.473211,-0.143286,-2.145696,-0.727276,1.409746,1.566434,-4.191523,-0.397590,14.079004,14.816597,-18.562440,-0.083689,0.250085,0.000000,-0.480099,-0.185750,0.000000
3.400000,2.065489,-0.931844,-1.449604,1.476541,0.465729,-0.129208,-2.129329,-0.768450,1.404841,1.705873,-4.038590,-0.581322,13.838709,15.728709,-18.144436,-0.088395,0.248116,0.000000,-0.460679,-0.206371,0.000000
3.410000,2.080148,-0.927225,-1.450825,1.455333,0.457842,-0.115189,-2.111578,-0.808048,1.398119,1.843208,-3.876949,-0.760479,13.575531,16.565113,-17.672934,-0.092901,0.245942,0.000000,-0.440098,-0.226498,0.000000
3.420000,2.094595,-0.922687,-1.451907,1.434309,0.449568,-0.101246,-2.092464,-0.845989,1.389632,1.977384,-3.707288,-0.934781,13.126136,17.378935,-17.241747,-0.097197,0.243567,0.000000,-0.418467,-0.245991,0.000000
3.430000,2.108834,-0.918234,-1.452850,1.413484,0.440922,-0.087396,-2.072031,-0.882193,1.379423,2.105731,-3.529370,-1.105314,12.517282,18.170541,-16.861616,-0.101270,0.240999,0.000000,-0.395773,-0.264570,0.000000
3.440000,2.122865,-0.913869,-1.453655,1.392869,0.431924,-0.073657,-2.050350,-0.916576,1.367525,2.227730,-3.343877,-1.272013,11.966496,18.858400,-16.406349,-0.105112,0.238249,0.000000,-0.372122,-0.282162,0.000000
3.450000,2.136691,-0.909596,-1.454323,1.372477,0.422591,-0.060046,-2.027476,-0.949071,1.353983,2.345061,-3.152202,-1.433441,11.493694,19.489512,-15.857264,-0.108712,0.235325,0.000000,-0.347727,-0.298908,0.000000
3.460000,2.150315,-0.905417,-1.454856,1.352319,0.412942,-0.046578,-2.003449,-0.979620,1.338856,2.457603,-2.954087,-1.589158,10.954743,20.108884,-15.303053,-0.112066,0.232236,0.000000,-0.322595,-0.314777,0.000000
3.470000,2.163738,-0.901337,-1.455255,1.332408,0.402998,-0.033269,-1.978324,-1.008153,1.322200,2.564156,-2.750025,-1.739502,10.333197,20.545146,-14.772249,-0.115164,0.228990,0.000000,-0.296808,-0.329641,0.000000
3.480000,2.176963,-0.897357,-1.455522,1.312753,0.392779,-0.020134,-1.952165,-1.034621,1.304066,2.664267,-2.543184,-1.884603,9.679624,20.761191,-14.231436,-0.118002,0.225599,0.000000,-0.270751,-0.343452,0.000000
3.490000,2.189993,-0.893481,-1.455658,1.293364,0.382306,-0.007187,-1.925039,-1.059016,1.284508,2.757748,-2.334801,-2.024131,9.008918,20.993669,-13.652753,-0.120579,0.222074,0.000000,-0.244593,-0.356182,-0.000000
3.500000,2.202830,-0.889711,-1.455665,1.274252,0.371599,0.005557,-1.897011,-1.081317,1.263584,2.844446,-2.123311,-2.157658,8.332567,21.346363,-13.072082,-0.122894,0.218424,0.000000,-0.218190,-0.367807,0.000000
3.510000,2.215478,-0.886049,-1.455546,1.255424,0.360680,0.018084,-1.868150,-1.101483,1.241355,2.924400,-1.907873,-2.285572,7.645172,21.648761,-12.505762,-0.124943,0.214662,0.000000,-0.191467,-0.378347,0.000000
3.520000,2.227939,-0.882497,-1.455304,1.236889,0.349569,0.030384,-1.838523,-1.119474,1.217872,2.997349,-1.690335,-2.407774,6.905680,21.654478,-11.858844,-0.126724,0.210799,0.000000,-0.164657,-0.387778,0.000000
3.530000,2.240215,-0.879058,-1.454939,1.218654,0.338290,0.042442,-1.808203,-1.135289,1.193199,3.062513,-1.474784,-2.522749,6.123131,21.406936,-11.121122,-0.128237,0.206845,0.000000,-0.138257,-0.395988,0.000000
3.540000,2.252312,-0.875732,-1.454455,1.200725,0.326863,0.054248,-1.777272,-1.148970,1.167417,3.119812,-1.262197,-2.630196,5.358399,21.232130,-10.428134,-0.129489,0.202814,0.000000,-0.112398,-0.402977,0.000000
3.550000,2.264230,-0.872521,-1.453854,1.183108,0.315311,0.065790,-1.745806,-1.160533,1.140595,3.169681,-1.050141,-2.731312,4.580573,21.206576,-9.812686,-0.130485,0.198718,0.000000,-0.086805,-0.408834,0.000000
3.560000,2.275974,-0.869425,-1.453139,1.165809,0.303653,0.077060,-1.713879,-1.169973,1.112791,3.211423,-0.838065,-2.826450,3.756405,21.110194,-9.184107,-0.131226,0.194568,0.000000,-0.061427,-0.413506,0.000000
3.570000,2.287546,-0.866447,-1.452313,1.148831,0.291911,0.088046,-1.681578,-1.177294,1.084066,3.244809,-0.627937,-2.914994,2.997446,20.779051,-8.486984,-0.131714,0.190377,0.000000,-0.036503,-0.416971,0.000000
3.580000,2.298950,-0.863587,-1.451378,1.132177,0.280107,0.098741,-1.648982,-1.182532,1.054491,3.271372,-0.422484,-2.996189,2.308742,20.302206,-7.760857,-0.131957,0.186156,0.000000,-0.012358,-0.419401,-0.000000
3.590000,2.310190,-0.860845,-1.450338,1.115851,0.268261,0.109136,-1.616150,-1.185744,1.024143,3.290984,-0.221893,-3.070211,1.542982,19.889882,-7.077329,-0.131962,0.181915,0.000000,0.010987,-0.420804,0.000000
3.600000,2.321267,-0.858222,-1.449195,1.099854,0.256392,0.119224,-1.583163,-1.186969,0.993087,3.302232,-0.024687,-3.137736,0.790034,19.454885,-6.391356,-0.131738,0.177666,0.000000,0.033702,-0.421060,0.000000
3.610000,2.332187,-0.855717,-1.447953,1.084188,0.244521,0.128998,-1.550106,-1.186238,0.961388,3.306785,0.167204,-3.198038,0.145550,18.873035,-5.663982,-0.131289,0.173421,0.000000,0.055560,-0.420359,-0.000000
3.620000,2.342951,-0.853332,-1.446615,1.068852,0.232667,0.138451,-1.517027,-1.183625,0.929126,3.305143,0.352774,-3.251016,-0.679562,18.428390,-5.038101,-0.130627,0.169187,0.000000,0.076450,-0.418773,-0.000000
3.630000,2.353564,-0.851064,-1.445184,1.053847,0.220849,0.147580,-1.484003,-1.179182,0.896368,3.293194,0.535772,-3.298800,-1.713712,18.176174,-4.536162,-0.129760,0.164974,0.000000,0.096823,-0.415918,0.000000
3.640000,2.364028,-0.848915,-1.443664,1.039172,0.209084,0.156379,-1.451163,-1.172910,0.863150,3.270869,0.716298,-3.341739,-2.545533,17.723063,-3.962473,-0.128691,0.160798,0.000000,0.116693,-0.411813,0.000000
3.650000,2.374347,-0.846882,-1.442057,1.024824,0.197390,0.164843,-1.418586,-1.164856,0.829533,3.242283,0.890233,-3.378050,-3.215410,17.055513,-3.293430,-0.127427,0.156669,0.000000,0.135582,-0.406894,0.000000
3.660000,2.384525,-0.844967,-1.440367,1.010800,0.185787,0.172969,-1.386318,-1.155105,0.795589,3.206560,1.057408,-3.407607,-3.988870,16.443493,-2.664930,-0.125980,0.152594,0.000000,0.153479,-0.401084,-0.000000
3.670000,2.394563,-0.843167,-1.438597,0.997098,0.174288,0.180755,-1.354454,-1.143708,0.761381,3.162506,1.219103,-3.431348,-4.626350,15.827526,-2.100291,-0.124358,0.148583,0.000000,0.170546,-0.394292,-0.000000
3.680000,2.404467,-0.841481,-1.436752,0.983711,0.162912,0.188197,-1.323067,-1.130723,0.726962,3.114033,1.373958,-3.449613,-5.006564,15.103500,-1.552416,-0.122570,0.144646,0.000000,0.186643,-0.386964,0.000000
3.690000,2.414237,-0.839908,-1.434833,0.970636,0.151674,0.195294,-1.292174,-1.116229,0.692388,3.062374,1.521173,-3.462397,-5.477078,14.384089,-1.003683,-0.120626,0.140785,0.000000,0.201693,-0.379245,-0.000000
3.700000,2.423879,-0.838448,-1.432846,0.957868,0.140588,0.202045,-1.261820,-1.100300,0.657714,3.004492,1.661640,-3.469687,-6.177013,13.761566,-0.468920,-0.118536,0.137006,0.000000,0.215810,-0.370826,0.000000
3.710000,2.433395,-0.837097,-1.430793,0.945400,0.129668,0.208448,-1.232084,-1.082996,0.622995,2.938834,1.796405,-3.471775,-6.854289,13.153798,0.041538,-0.116310,0.133316,0.000000,0.229124,-0.361564,-0.000000
3.720000,2.442787,-0.835854,-1.428677,0.933226,0.118928,0.214505,-1.203043,-1.064372,0.588279,2.867406,1.924716,-3.468856,-7.212445,12.364649,0.553496,-0.113954,0.129725,0.000000,0.241564,-0.351693,-0.000000
3.730000,2.452059,-0.834718,-1.426502,0.921339,0.108380,0.220214,-1.174736,-1.044502,0.553618,2.794585,2.043698,-3.460705,-7.339411,11.432178,1.067419,-0.111479,0.126236,0.000000,0.252831,-0.341686,0.000000
3.740000,2.461214,-0.833687,-1.424273,0.909731,0.098038,0.225577,-1.147152,-1.023498,0.519065,2.720618,2.153360,-3.447508,-7.615550,10.622640,1.546431,-0.108898,0.122848,0.000000,0.262946,-0.331579,-0.000000
3.750000,2.470254,-0.832757,-1.421991,0.898396,0.087911,0.230595,-1.120323,-1.001435,0.484667,2.642274,2.256150,-3.429777,-7.979752,9.868720,2.010043,-0.106221,0.119565,0.000000,0.272195,-0.321050,0.000000
3.760000,2.479182,-0.831928,-1.419661,0.887325,0.078009,0.235270,-1.094306,-0.978375,0.450469,2.561023,2.350734,-3.407307,-8.185684,9.005069,2.480372,-0.103455,0.116390,0.000000,0.280448,-0.310259,-0.000000
3.770000,2.488000,-0.831197,-1.417286,0.876510,0.068343,0.239605,-1.069103,-0.954420,0.416521,2.478560,2.436252,-3.380169,-8.463000,8.288672,2.889195,-0.100612,0.113326,0.000000,0.287630,-0.299395,0.000000
3.780000,2.496712,-0.830562,-1.414869,0.865943,0.058921,0.243601,-1.044735,-0.929650,0.382866,2.391763,2.516508,-3.349523,-8.899091,7.790719,3.226764,-0.097702,0.110372,0.000000,0.294173,-0.288150,-0.000000
3.790000,2.505319,-0.830019,-1.412413,0.855615,0.049750,0.247262,-1.021268,-0.904090,0.349531,2.300579,2.592066,-3.315634,-9.159244,7.150217,3.587890,-0.094729,0.107535,0.000000,0.300147,-0.276530,0.000000
3.800000,2.513824,-0.829567,-1.409923,0.845517,0.040839,0.250591,-0.998723,-0.877808,0.316553,2.208578,2.659512,-3.277765,-9.262928,6.334775,3.974240,-0.091699,0.104816,0.000000,0.305200,-0.264903,-0.000000
3.810000,2.522230,-0.829202,-1.407402,0.835641,0.032194,0.253593,-0.977096,-0.850900,0.283975,2.115320,2.718762,-3.236149,-9.435101,5.594430,4.321805,-0.088625,0.102214,0.000000,0.309341,-0.253230,0.000000
3.820000,2.530537,-0.828923,-1.404852,0.825975,0.023821,0.256271,-0.956417,-0.823433,0.251830,2.019876,2.771401,-3.191329,-9.509489,4.925957,4.650047,-0.085513,0.099731,0.000000,0.312755,-0.241422,-0.000000
3.830000,2.538749,-0.828726,-1.402276,0.816512,0.015725,0.258630,-0.936699,-0.795472,0.220149,1.925130,2.817281,-3.143148,-9.401306,4.244272,4.981544,-0.082370,0.097367,0.000000,0.315435,-0.229779,0.000000
3.840000,2.546867,-0.828608,-1.399679,0.807242,0.007911,0.260674,-0.917914,-0.767087,0.188967,1.831850,2.856286,-3.091698,-9.360000,3.579470,5.284030,-0.079204,0.095119,0.000000,0.317384,-0.218379,-0.000000
3.850000,2.554894,-0.828567,-1.397063,0.798154,0.000383,0.262409,-0.900062,-0.738346,0.158315,1.737930,2.888870,-3.037468,-9.415048,2.939114,5.556973,-0.076022,0.092985,0.000000,0.318667,-0.207008,-0.000000
3.860000,2.562831,-0.828600,-1.394431,0.789240,-0.006855,0.263840,-0.883156,-0.709310,0.128218,1.643549,2.915068,-2.980559,-9.395938,2.302108,5.822743,-0.072830,0.090967,0.000000,0.319298,-0.195686,0.000000
3.870000,2.570679,-0.828705,-1.391786,0.780491,-0.013803,0.264973,-0.867191,-0.680045,0.098704,1.550011,2.934912,-2.921013,-9.307810,1.692240,6.066795,-0.069636,0.089061,0.000000,0.319292,-0.184545,0.000000
3.880000,2.578440,-0.828877,-1.389131,0.771896,-0.020456,0.265814,-0.852155,-0.650612,0.069798,1.457393,2.948913,-2.859223,-9.212482,1.120565,6.280631,-0.066444,0.087266,0.000000,0.318714,-0.173593,0.000000
3.890000,2.586117,-0.829114,-1.386470,0.763448,-0.026815,0.266369,-0.838043,-0.621066,0.041519,1.365762,2.957324,-2.795400,-9.089975,0.554211,6.486616,-0.063261,0.085581,0.000000,0.317600,-0.162836,0.000000
3.900000,2.593709,-0.829413,-1.383804,0.755136,-0.032878,0.266645,-0.824840,-0.591465,0.013890,1.275593,2.959997,-2.729491,-8.931368,-0.019333,6.688915,-0.060092,0.084003,0.000000,0.315942,-0.152318,0.000000
3.910000,2.601219,-0.829771,-1.381137,0.746951,-0.038644,0.266647,-0.812531,-0.561866,-0.013071,1.187134,2.956937,-2.661622,-8.754739,-0.575342,6.872159,-0.056942,0.082529,0.000000,0.313750,-0.142060,0.000000
3.920000,2.608648,-0.830186,-1.378471,0.738885,-0.044115,0.266383,-0.801098,-0.532327,-0.039343,1.100498,2.948490,-2.592047,-8.562366,-1.085152,7.032847,-0.053817,0.081156,0.000000,0.311068,-0.132072,-0.000000
3.930000,2.615997,-0.830653,-1.375809,0.730929,-0.049291,0.265860,-0.790521,-0.502897,-0.064911,1.015887,2.935234,-2.520965,-8.349704,-1.554968,7.176213,-0.050721,0.079883,0.000000,0.307962,-0.122370,-0.000000
3.940000,2.623267,-0.831172,-1.373154,0.723075,-0.054173,0.265085,-0.780780,-0.473622,-0.089762,0.933504,2.917391,-2.448523,-8.118344,-2.020754,7.306332,-0.047658,0.078706,0.000000,0.304459,-0.112970,-0.000000
3.950000,2.630459,-0.831737,-1.370507,0.715313,-0.058763,0.264065,-0.771851,-0.444549,-0.113882,0.853520,2.894819,-2.374838,-7.870026,-2.488578,7.425306,-0.044631,0.077621,0.000000,0.300551,-0.103887,0.000000
3.960000,2.637573,-0.832347,-1.367872,0.707638,-0.063064,0.262807,-0.763709,-0.415725,-0.137259,0.776104,2.867620,-2.300017,-7.605794,-2.933303,7.530751,-0.041646,0.076626,0.000000,0.296253,-0.095130,0.000000
3.970000,2.644611,-0.832998,-1.365251,0.700039,-0.067078,0.261320,-0.756329,-0.387196,-0.159882,0.701404,2.836153,-2.224223,-7.328210,-3.340551,7.616299,-0.038706,0.075716,0.000000,0.291604,-0.086712,0.000000
3.980000,2.651574,-0.833688,-1.362646,0.692511,-0.070808,0.259610,-0.749681,-0.359002,-0.181743,0.629540,2.800808,-2.147691,-7.039226,-3.717686,7.682782,-0.035814,0.074890,0.000000,0.286648,-0.078640,0.000000
3.990000,2.658462,-0.834414,-1.360059,0.685046,-0.074258,0.257685,-0.743738,-0.331180,-0.202836,0.560620,2.761799,-2.070568,-6.738353,-4.081797,7.739445,-0.032973,0.074142,0.000000,0.281409,-0.070920,0.000000
4.000000,2.665275,-0.835174,-1.357492,0.677636,-0.077431,0.255553,-0.738469,-0.303766,-0.223155,0.494773,2.719173,-1.992902,-6.423168,-4.437111,7.788382,-0.030185,0.073470,0.000000,0.275892,-0.063560,0.000000
4.010000,2.672014,-0.835963,-1.354948,0.670276,-0.080333,0.253222,-0.733843,-0.276797,-0.242694,0.432157,2.673057,-1.914800,-6.096495,-4.771802,7.823836,-0.027455,0.072870,0.000000,0.270112,-0.056571,0.000000
4.020000,2.678680,-0.836780,-1.352428,0.662959,-0.082967,0.250699,-0.729826,-0.250305,-0.261451,0.372843,2.623737,-1.836425,-5.770069,-5.073526,7.842703,-0.024783,0.072338,0.000000,0.264099,-0.049955,0.000000
4.030000,2.685274,-0.837622,-1.349934,0.655680,-0.085339,0.247993,-0.726386,-0.224322,-0.279423,0.316755,2.571586,-1.757946,-5.445500,-5.345194,7.847415,-0.022172,0.071871,0.000000,0.257889,-0.043702,0.000000
4.040000,2.691794,-0.838487,-1.347468,0.648432,-0.087454,0.245111,-0.723491,-0.198874,-0.296610,0.263933,2.516833,-1.679477,-5.109617,-5.602869,7.842575,-0.019625,0.071464,0.000000,0.251504,-0.037810,0.000000
4.050000,2.698242,-0.839371,-1.345032,0.641210,-0.089317,0.242061,-0.721107,-0.173985,-0.313012,0.214563,2.459529,-1.601094,-4.758708,-5.852768,7.828386,-0.017142,0.071114,0.000000,0.244950,-0.032294,-0.000000
4.060000,2.704618,-0.840273,-1.342627,0.634010,-0.090934,0.238850,-0.719199,-0.149683,-0.328632,0.168758,2.399777,-1.522909,-4.403977,-6.083841,7.802499,-0.014726,0.070818,0.000000,0.238235,-0.027161,0.000000
4.070000,2.710922,-0.841190,-1.340255,0.626826,-0.092310,0.235488,-0.717732,-0.125990,-0.343470,0.126483,2.337852,-1.445044,-4.057727,-6.280378,7.765988,-0.012377,0.070571,0.000000,0.231385,-0.022404,0.000000
4.080000,2.717155,-0.842119,-1.337917,0.619655,-0.093453,0.231981,-0.716670,-0.102926,-0.357532,0.087604,2.274170,-1.367590,-3.718416,-6.445693,7.720182,-0.010098,0.070370,0.000000,0.224439,-0.018006,0.000000
4.090000,2.723315,-0.843059,-1.335615,0.612493,-0.094369,0.228337,-0.715980,-0.080506,-0.370822,0.052115,2.208938,-1.290641,-3.372615,-6.600926,7.664345,-0.007888,0.070211,0.000000,0.217415,-0.013965,0.000000
4.100000,2.729405,-0.844007,-1.333350,0.605335,-0.095063,0.224565,-0.715627,-0.058747,-0.383345,0.020152,2.142151,-1.214303,-3.016935,-6.749364,7.599192,-0.005749,0.070090,0.000000,0.210310,-0.010289,0.000000
4.110000,2.735422,-0.844960,-1.331124,0.598180,-0.095544,0.220670,-0.715577,-0.037663,-0.395108,-0.008224,2.073951,-1.138657,-2.662227,-6.877184,7.525901,-0.003682,0.070005,0.000000,0.203135,-0.006983,0.000000
4.120000,2.741368,-0.845918,-1.328937,0.591024,-0.095817,0.216662,-0.715792,-0.017268,-0.406118,-0.033093,2.004607,-1.063785,-2.320149,-6.979163,7.443371,-0.001686,0.069951,0.000000,0.195915,-0.004037,0.000000
4.130000,2.747243,-0.846877,-1.326791,0.583864,-0.095889,0.212548,-0.716239,0.002429,-0.416384,-0.054627,1.934368,-0.989789,-1.988918,-7.060137,7.351790,0.000237,0.069924,0.000000,0.188669,-0.001430,0.000000
4.140000,2.753045,-0.847836,-1.324686,0.576699,-0.095768,0.208335,-0.716884,0.021419,-0.425914,-0.072871,1.863405,-0.916749,-1.655704,-7.127022,7.253711,0.002087,0.069922,0.000000,0.181413,0.000842,0.000000
4.150000,2.758777,-0.848792,-1.322624,0.569526,-0.095461,0.204030,-0.717696,0.039697,-0.434719,-0.087741,1.791827,-0.844715,-1.317706,-7.182449,7.149106,0.003865,0.069941,0.000000,0.174153,0.002775,0.000000
4.160000,2.764436,-0.849745,-1.320605,0.562345,-0.094974,0.199640,-0.718639,0.057256,-0.442808,-0.099225,1.719756,-0.773767,-0.985016,-7.222461,7.037001,0.005571,0.069977,0.000000,0.166897,0.004367,0.000000
4.170000,2.770024,-0.850692,-1.318631,0.555154,-0.094316,0.195174,-0.719681,0.074092,-0.450194,-0.107441,1.647378,-0.703975,-0.667582,-7.240640,6.919706,0.007203,0.070028,0.000000,0.159661,0.005631,-0.000000
4.180000,2.775539,-0.851631,-1.316702,0.547951,-0.093492,0.190637,-0.720788,0.090203,-0.456888,-0.112577,1.574943,-0.635373,-0.363883,-7.238695,6.798261,0.008764,0.070090,0.000000,0.152465,0.006588,0.000000
4.190000,2.780983,-0.852561,-1.314818,0.540738,-0.092512,0.186036,-0.721932,0.105591,-0.462902,-0.114719,1.502604,-0.568010,-0.062649,-7.226255,6.670338,0.010253,0.070160,0.000000,0.145321,0.007245,0.000000
4.200000,2.786354,-0.853481,-1.312981,0.533513,-0.091381,0.181379,-0.723082,0.120255,-0.468248,-0.113830,1.430418,-0.501966,0.240434,-7.205038,6.535584,0.011671,0.070235,0.000000,0.138231,0.007601,0.000000
4.210000,2.791653,-0.854389,-1.311191,0.526276,-0.090106,0.176671,-0.724209,0.134199,-0.472941,-0.109910,1.358503,-0.437298,0.536339,-7.169429,6.396321,0.013018,0.070312,0.000000,0.131203,0.007655,0.000000
4.220000,2.796879,-0.855283,-1.309448,0.519029,-0.088697,0.171920,-0.725281,0.147425,-0.476994,-0.103103,1.287029,-0.374039,0.811370,-7.118009,6.254347,0.014295,0.070388,0.000000,0.124250,0.007421,0.000000
4.230000,2.802033,-0.856163,-1.307752,0.511771,-0.087158,0.167131,-0.726271,0.159940,-0.480422,-0.093683,1.216143,-0.312211,1.066925,-7.053495,6.109537,0.015503,0.070461,0.000000,0.117383,0.006927,0.000000
4.240000,2.807115,-0.857027,-1.306105,0.504503,-0.085498,0.162311,-0.727154,0.171748,-0.483238,-0.081765,1.145959,-0.251849,1.319831,-6.978629,5.960510,0.016643,0.070527,0.000000,0.110609,0.006183,-0.000000
4.250000,2.812123,-0.857873,-1.304506,0.497228,-0.083723,0.157466,-0.727906,0.182859,-0.485459,-0.067286,1.076571,-0.193001,1.574266,-6.893532,5.806755,0.017715,0.070584,0.000000,0.103936,0.005183,0.000000
4.260000,2.817059,-0.858701,-1.302956,0.489945,-0.081841,0.152602,-0.728500,0.193280,-0.487098,-0.050279,1.008089,-0.135714,1.817807,-6.797443,5.649885,0.018721,0.070630,0.000000,0.097370,0.003930,-0.000000
4.270000,2.821922,-0.859510,-1.301454,0.482658,-0.079857,0.147724,-0.728912,0.203021,-0.488173,-0.030930,0.940622,-0.080003,2.039210,-6.691938,5.492775,0.019663,0.070663,0.000000,0.090919,0.002441,-0.000000
4.280000,2.826712,-0.860298,-1.300001,0.475367,-0.077780,0.142839,-0.729119,0.212092,-0.488698,-0.009495,0.874250,-0.025858,2.241622,-6.578098,5.335673,0.020540,0.070679,0.000000,0.084589,0.000740,0.000000
4.290000,2.831430,-0.861065,-1.298597,0.468075,-0.075616,0.137950,-0.729102,0.220506,-0.488690,0.013902,0.809060,0.026710,2.438567,-6.455048,5.175541,0.021354,0.070678,0.000000,0.078385,-0.001160,0.000000
4.300000,2.836074,-0.861810,-1.297242,0.460785,-0.073370,0.133065,-0.728841,0.228273,-0.488164,0.039276,0.745149,0.077653,2.632434,-6.323311,5.010862,0.022108,0.070656,0.000000,0.072313,-0.003263,0.000000
4.310000,2.840645,-0.862533,-1.295936,0.453498,-0.071050,0.128187,-0.728316,0.235409,-0.487137,0.066551,0.682594,0.126927,2.813527,-6.184479,4.844395,0.022801,0.070612,0.000000,0.066380,-0.005562,0.000000
4.320000,2.845144,-0.863232,-1.294679,0.446219,-0.068662,0.123322,-0.727510,0.241925,-0.485626,0.095547,0.621459,0.174541,2.975115,-6.038826,4.681266,0.023435,0.070545,0.000000,0.060589,-0.008040,-0.000000
4.330000,2.849570,-0.863906,-1.293470,0.438948,-0.066212,0.118475,-0.726405,0.247838,-0.483646,0.126053,0.561817,0.220553,3.119557,-5.886708,4.521284,0.024012,0.070452,0.000000,0.054945,-0.010677,0.000000
4.340000,2.853923,-0.864556,-1.292309,0.431690,-0.063705,0.113649,-0.724989,0.253162,-0.481215,0.157938,0.503725,0.264966,3.254821,-5.729203,4.358314,0.024534,0.070331,0.000000,0.049451,-0.013462,0.000000
4.350000,2.858204,-0.865180,-1.291197,0.424448,-0.061148,0.108850,-0.723246,0.257912,-0.478347,0.191150,0.447233,0.307719,3.384343,-5.565985,4.190869,0.025001,0.070182,0.000000,0.044112,-0.016391,-0.000000
4.360000,2.862412,-0.865779,-1.290132,0.417225,-0.058547,0.104082,-0.721166,0.262106,-0.475060,0.225625,0.392406,0.348784,3.502261,-5.397362,4.023650,0.025416,0.070003,0.000000,0.038931,-0.019457,-0.000000
4.370000,2.866548,-0.866351,-1.289115,0.410025,-0.055906,0.099349,-0.718734,0.265760,-0.471371,0.261195,0.339286,0.388192,3.598448,-5.226854,3.860946,0.025780,0.069793,0.000000,0.033912,-0.022647,0.000000
4.380000,2.870612,-0.866897,-1.288145,0.402851,-0.053232,0.094655,-0.715942,0.268892,-0.467296,0.297594,0.287869,0.426003,3.674194,-5.055457,3.701788,0.026095,0.069550,0.000000,0.029052,-0.025934,0.000000
4.390000,2.874605,-0.867416,-1.287222,0.395706,-0.050528,0.090003,-0.712782,0.271518,-0.462851,0.334679,0.238177,0.462228,3.742724,-4.879592,3.541193,0.026361,0.069274,0.000000,0.024353,-0.029306,0.000000
4.400000,2.878526,-0.867907,-1.286345,0.388595,-0.047801,0.085398,-0.709248,0.273656,-0.458052,0.372448,0.190277,0.496826,3.806588,-4.697890,3.377705,0.026582,0.068964,0.000000,0.019820,-0.032762,0.000000
4.410000,2.882377,-0.868372,-1.285514,0.381521,-0.045055,0.080842,-0.705333,0.275323,-0.452915,0.410811,0.144219,0.529782,3.856687,-4.513834,3.215122,0.026757,0.068618,0.000000,0.015457,-0.036296,0.000000
4.420000,2.886157,-0.868808,-1.284728,0.374488,-0.042295,0.076339,-0.701032,0.276540,-0.447456,0.449582,0.100000,0.561129,3.887664,-4.332551,3.057899,0.026891,0.068238,0.000000,0.011263,-0.039890,0.000000
4.430000,2.889867,-0.869218,-1.283987,0.367501,-0.039524,0.071893,-0.696341,0.277323,-0.441692,0.488564,0.057568,0.590940,3.902257,-4.153940,2.905275,0.026983,0.067820,0.000000,0.007233,-0.043525,-0.000000
4.440000,2.893507,-0.869599,-1.283290,0.360562,-0.036748,0.067506,-0.691261,0.277691,-0.435637,0.527627,0.016921,0.619234,3.907136,-3.972381,2.751816,0.027035,0.067367,0.000000,0.003366,-0.047188,0.000000
4.450000,2.897078,-0.869953,-1.282637,0.353675,-0.033971,0.063180,-0.685789,0.277662,-0.429307,0.566707,-0.021880,0.645976,3.904419,-3.786092,2.596053,0.027050,0.066876,0.000000,-0.000333,-0.050874,0.000000
4.460000,2.900580,-0.870278,-1.282027,0.346846,-0.031195,0.058919,-0.679926,0.277254,-0.422718,0.605715,-0.058801,0.671155,3.889634,-3.599803,2.441963,0.027029,0.066349,0.000000,-0.003860,-0.054575,0.000000
4.470000,2.904015,-0.870576,-1.281459,0.340077,-0.028426,0.054726,-0.673675,0.276486,-0.415884,0.644499,-0.093876,0.694815,3.857160,-3.419608,2.293617,0.026973,0.065784,0.000000,-0.007218,-0.058276,0.000000
4.480000,2.907382,-0.870847,-1.280932,0.333372,-0.025665,0.050602,-0.667036,0.275376,-0.408822,0.682859,-0.127193,0.717028,3.808249,-3.244940,2.150109,0.026884,0.065183,0.000000,-0.010417,-0.061957,0.000000
4.490000,2.910682,-0.871090,-1.280447,0.326736,-0.022918,0.046549,-0.660017,0.273942,-0.401544,0.720664,-0.158775,0.737817,3.750538,-3.068758,2.006386,0.026764,0.064545,0.000000,-0.013459,-0.065606,-0.000000
4.500000,2.913917,-0.871305,-1.280001,0.320172,-0.020187,0.042571,-0.652623,0.272201,-0.394065,0.757869,-0.188568,0.757156,3.686613,-2.888990,1.860889,0.026615,0.063870,0.000000,-0.016337,-0.069218,0.000000
4.510000,2.917086,-0.871494,-1.279595,0.313684,-0.017474,0.038668,-0.644860,0.270171,-0.386401,0.794397,-0.216554,0.775035,3.611469,-2.711192,1.717239,0.026438,0.063160,0.000000,-0.019051,-0.072786,0.000000
4.520000,2.920190,-0.871655,-1.279228,0.307275,-0.014783,0.034843,-0.636735,0.267870,-0.378565,0.830099,-0.242792,0.791500,3.519209,-2.541799,1.579615,0.026234,0.062414,0.000000,-0.021605,-0.076294,-0.000000
4.530000,2.923231,-0.871789,-1.278898,0.300949,-0.012117,0.031097,-0.628258,0.265315,-0.370571,0.864781,-0.267390,0.806628,3.411540,-2.379901,1.447077,0.026006,0.061633,0.000000,-0.024010,-0.079724,-0.000000
4.540000,2.926209,-0.871897,-1.278606,0.294710,-0.009477,0.027431,-0.619440,0.262522,-0.362432,0.898330,-0.290390,0.820442,3.296626,-2.217841,1.314270,0.025754,0.060819,0.000000,-0.026269,-0.083063,-0.000000
4.550000,2.929125,-0.871979,-1.278350,0.288560,-0.006866,0.023848,-0.610291,0.259507,-0.354162,0.930713,-0.311747,0.832913,3.175835,-2.052990,1.180033,0.025480,0.059971,0.000000,-0.028377,-0.086309,-0.000000
4.560000,2.931981,-0.872034,-1.278129,0.282504,-0.004287,0.020348,-0.600825,0.256287,-0.345774,0.961846,-0.331450,0.844042,3.044080,-1.891175,1.048044,0.025186,0.059092,0.000000,-0.030333,-0.089451,0.000000
4.570000,2.934776,-0.872064,-1.277943,0.276544,-0.001740,0.016933,-0.591054,0.252878,-0.337281,0.991595,-0.349571,0.853874,2.899394,-1.740108,0.921010,0.024873,0.058182,0.000000,-0.032144,-0.092476,-0.000000
4.580000,2.937511,-0.872069,-1.277790,0.270683,0.000771,0.013603,-0.580993,0.249295,-0.328696,1.019834,-0.366252,0.862463,2.743683,-1.598681,0.797845,0.024543,0.057242,0.000000,-0.033822,-0.095372,-0.000000
4.590000,2.940189,-0.872049,-1.277671,0.264924,0.003245,0.010359,-0.570658,0.245553,-0.320032,1.046469,-0.381544,0.869831,2.579899,-1.457267,0.675091,0.024197,0.056274,0.000000,-0.035372,-0.098126,0.000000
4.600000,2.942810,-0.872004,-1.277583,0.259270,0.005682,0.007202,-0.560064,0.241665,-0.311300,1.071432,-0.395397,0.875965,2.409299,-1.313058,0.551679,0.023836,0.055279,0.000000,-0.036789,-0.100733,0.000000
4.610000,2.945375,-0.871935,-1.277527,0.253723,0.008079,0.004133,-0.549229,0.237645,-0.302512,1.094655,-0.407806,0.880864,2.230340,-1.173018,0.429913,0.023461,0.054259,0.000000,-0.038071,-0.103184,-0.000000
4.620000,2.947884,-0.871843,-1.277500,0.248285,0.010435,0.001152,-0.538171,0.233508,-0.293682,1.116039,-0.418857,0.884563,2.040508,-1.044554,0.312513,0.023074,0.053215,0.000000,-0.039226,-0.105468,0.000000
4.630000,2.950340,-0.871727,-1.277504,0.242959,0.012749,-0.001741,-0.526908,0.229268,-0.284821,1.135465,-0.428697,0.887115,1.840428,-0.925951,0.198880,0.022677,0.052149,0.000000,-0.040268,-0.107572,-0.000000
4.640000,2.952744,-0.871588,-1.277535,0.237747,0.015020,-0.004545,-0.515462,0.224934,-0.275940,1.152847,-0.437377,0.888540,1.634196,-0.807851,0.085289,0.022269,0.051063,0.000000,-0.041201,-0.109487,0.000000
4.650000,2.955095,-0.871426,-1.277595,0.232650,0.017248,-0.007260,-0.503851,0.220520,-0.267050,1.168149,-0.444854,0.888820,1.424460,-0.687717,-0.029908,0.021853,0.049958,0.000000,-0.042021,-0.111207,0.000000
4.660000,2.957397,-0.871243,-1.277681,0.227670,0.019431,-0.009886,-0.492099,0.216037,-0.258164,1.181337,-0.451131,0.887942,1.208899,-0.572094,-0.144252,0.021429,0.048838,0.000000,-0.042726,-0.112728,0.000000
4.670000,2.959649,-0.871038,-1.277792,0.222808,0.021568,-0.012423,-0.480225,0.211498,-0.249292,1.192327,-0.456295,0.885935,0.981713,-0.467426,-0.253775,0.020998,0.047703,0.000000,-0.043326,-0.114040,0.000000
4.680000,2.961853,-0.870811,-1.277929,0.218065,0.023660,-0.014872,-0.468252,0.206911,-0.240445,1.200971,-0.460479,0.882867,0.743964,-0.372089,-0.359277,0.020562,0.046557,0.000000,-0.043832,-0.115127,-0.000000
4.690000,2.964010,-0.870564,-1.278090,0.213443,0.025707,-0.017232,-0.456205,0.202288,-0.231634,1.207206,-0.463737,0.878750,0.504332,-0.277720,-0.466273,0.020121,0.045400,0.000000,-0.044249,-0.115981,0.000000
4.700000,2.966122,-0.870297,-1.278274,0.208941,0.027706,-0.019504,-0.444108,0.197637,-0.222870,1.211058,-0.466034,0.873541,0.264142,-0.180843,-0.575682,0.019677,0.044236,0.000000,-0.044573,-0.116604,-0.000000
4.710000,2.968189,-0.870010,-1.278480,0.204561,0.029659,-0.021689,-0.431984,0.192967,-0.214163,1.212489,-0.467354,0.867236,0.018243,-0.087218,-0.683998,0.019230,0.043068,0.000000,-0.044802,-0.116989,0.000000
4.720000,2.970213,-0.869704,-1.278707,0.200302,0.031566,-0.023787,-0.419858,0.188290,-0.205525,1.211422,-0.467778,0.859861,-0.234064,-0.005788,-0.789958,0.018781,0.041896,0.000000,-0.044944,-0.117129,-0.000000
4.730000,2.972195,-0.869379,-1.278956,0.196164,0.033425,-0.025800,-0.407756,0.183612,-0.196966,1.207807,-0.467470,0.851437,-0.490575,0.064829,-0.894718,0.018331,0.040725,0.000000,-0.045013,-0.117016,-0.000000
4.740000,2.974136,-0.869036,-1.279223,0.192146,0.035238,-0.027727,-0.395702,0.178940,-0.188497,1.201611,-0.466482,0.841967,-0.749704,0.136793,-1.000124,0.017881,0.039556,0.000000,-0.045016,-0.116645,0.000000
4.750000,2.976038,-0.868674,-1.279510,0.188250,0.037004,-0.029570,-0.383723,0.174282,-0.180127,1.192813,-0.464734,0.831434,-1.009991,0.214276,-1.108072,0.017431,0.038391,0.000000,-0.044943,-0.116014,-0.000000
4.760000,2.977901,-0.868296,-1.279815,0.184472,0.038723,-0.031329,-0.371846,0.169646,-0.171868,1.181411,-0.462196,0.819805,-1.271756,0.289138,-1.217507,0.016982,0.037235,0.000000,-0.044791,-0.115120,-0.000000
4.770000,2.979727,-0.867900,-1.280137,0.180813,0.040397,-0.033007,-0.360095,0.165038,-0.163731,1.167378,-0.458951,0.807084,-1.537901,0.351874,-1.323511,0.016535,0.036089,0.000000,-0.044568,-0.113960,0.000000
4.780000,2.981517,-0.867488,-1.280475,0.177270,0.042024,-0.034604,-0.348498,0.160467,-0.155726,1.150653,-0.455159,0.793335,-1.808376,0.404590,-1.425960,0.016091,0.034955,0.000000,-0.044289,-0.112525,0.000000
4.790000,2.983273,-0.867059,-1.280829,0.173843,0.043606,-0.036122,-0.337082,0.155935,-0.147864,1.131211,-0.450859,0.778565,-2.078009,0.460392,-1.532107,0.015649,0.033838,0.000000,-0.043958,-0.110813,0.000000
4.800000,2.984994,-0.866615,-1.281197,0.170528,0.045143,-0.037561,-0.325874,0.151449,-0.140155,1.109093,-0.445951,0.762693,-2.341475,0.525700,-1.647070,0.015211,0.032739,0.000000,-0.043564,-0.108825,-0.000000
4.810000,2.986683,-0.866156,-1.281580,0.167325,0.046635,-0.038925,-0.314900,0.147016,-0.132610,1.084381,-0.440345,0.745624,-2.601684,0.591884,-1.766076,0.014778,0.031661,0.000000,-0.043099,-0.106570,0.000000
4.820000,2.988341,-0.865683,-1.281976,0.164230,0.048083,-0.040213,-0.304186,0.142642,-0.125242,1.057059,-0.434113,0.727372,-2.870910,0.643432,-1.876819,0.014350,0.030607,0.000000,-0.042569,-0.104045,-0.000000
4.830000,2.989968,-0.865195,-1.282384,0.161241,0.049488,-0.041429,-0.293759,0.138334,-0.118063,1.026963,-0.427477,0.708087,-3.147784,0.683355,-1.980940,0.013927,0.029580,0.000000,-0.041995,-0.101232,0.000000
4.840000,2.991565,-0.864693,-1.282804,0.158355,0.050850,-0.042575,-0.283647,0.134093,-0.111081,0.994104,-0.420446,0.687753,-3.414451,0.733231,-2.095611,0.013510,0.028583,0.000000,-0.041380,-0.098130,-0.000000
4.850000,2.993135,-0.864178,-1.283236,0.155569,0.052170,-0.043651,-0.273877,0.129925,-0.104308,0.958674,-0.412812,0.666175,-3.668827,0.795192,-2.222581,0.013099,0.027617,0.000000,-0.040701,-0.094759,-0.000000
4.860000,2.994677,-0.863650,-1.283677,0.152878,0.053448,-0.044661,-0.264474,0.125837,-0.097757,0.920727,-0.404542,0.643301,-3.921754,0.855649,-2.350996,0.012696,0.026687,0.000000,-0.039955,-0.091124,0.000000
4.870000,2.996192,-0.863109,-1.284129,0.150279,0.054687,-0.045606,-0.255463,0.121834,-0.091442,0.880239,-0.395699,0.619155,-4.173445,0.914030,-2.480381,0.012300,0.025795,0.000000,-0.039148,-0.087222,0.000000
4.880000,2.997682,-0.862556,-1.284590,0.147768,0.055885,-0.046490,-0.246869,0.117923,-0.085374,0.837258,-0.386261,0.593694,-4.419190,0.975869,-2.615104,0.011913,0.024943,0.000000,-0.038278,-0.083057,-0.000000
4.890000,2.999148,-0.861991,-1.285059,0.145342,0.057045,-0.047314,-0.238717,0.114109,-0.079568,0.791855,-0.376182,0.566853,-4.657985,1.042117,-2.755895,0.011534,0.024134,0.000000,-0.037339,-0.078635,-0.000000
4.900000,3.000589,-0.861415,-1.285536,0.142994,0.058167,-0.048081,-0.231032,0.110399,-0.074037,0.744098,-0.365419,0.538576,-4.889625,1.112744,-2.902708,0.011166,0.023370,0.000000,-0.036328,-0.073964,0.000000
4.910000,3.002008,-0.860828,-1.286020,0.140721,0.059253,-0.048794,-0.223835,0.106800,-0.068796,0.694063,-0.353927,0.508799,-5.113388,1.188349,-3.055981,0.010808,0.022654,0.000000,-0.035240,-0.069051,0.000000
4.920000,3.003404,-0.860230,-1.286512,0.138517,0.060303,-0.049457,-0.217151,0.103321,-0.063861,0.641831,-0.341652,0.477456,-5.328522,1.269571,-3.216190,0.010461,0.021989,0.000000,-0.034069,-0.063905,-0.000000
4.930000,3.004778,-0.859622,-1.287009,0.136378,0.061319,-0.050072,-0.210999,0.099967,-0.059247,0.587492,-0.328536,0.444475,-5.534314,1.357039,-3.383828,0.010127,0.021376,0.000000,-0.032809,-0.058535,0.000000
4.940000,3.006131,-0.859004,-1.287513,0.134297,0.062303,-0.050642,-0.205401,0.096750,-0.054971,0.531144,-0.314511,0.409779,-5.729999,1.451397,-3.559364,0.009805,0.020818,0.000000,-0.031454,-0.052951,0.000000
4.950000,3.007464,-0.858376,-1.288022,0.132270,0.063254,-0.051171,-0.200376,0.093677,-0.051052,0.472892,-0.299508,0.373288,-5.914797,1.553291,-3.743263,0.009497,0.020317,0.000000,-0.029995,-0.047165,0.000000
4.960000,3.008777,-0.857738,-1.288537,0.130290,0.064176,-0.051663,-0.195943,0.090760,-0.047506,0.412848,-0.283446,0.334914,-6.087998,1.663343,-3.936015,0.009205,0.019875,0.000000,-0.028426,-0.041188,-0.000000
4.970000,3.010070,-0.857092,-1.289056,0.128351,0.065070,-0.052121,-0.192119,0.088008,-0.044353,0.351132,-0.266241,0.294568,108.932247,-48.729950,19.201290,0.008929,0.019493,0.000000,-0.026737,-0.035035,0.000000
4.980000,3.011344,-0.856437,-1.289579,0.126448,0.065936,-0.052550,-0.188920,0.085435,-0.041614,2.591493,-1.258045,0.718940,221.996347,-96.523664,40.312480,0.008670,0.019174,0.000000,-0.126990,-0.261547,-0.000000
4.990000,3.012599,-0.855773,-1.290107,0.124573,0.066778,-0.052954,-0.140289,0.062847,-0.029974,4.791059,-2.196714,1.100817,106.375493,-43.831792,15.935179,0.006386,0.014256,0.000000,-0.222453,-0.485194,0.000000
5.000000,3.013835,-0.855102,-1.290638,0.123642,0.067193,-0.053149,-0.093099,0.041501,-0.019598,4.719003,-2.134680,1.037644,-7.205601,6.203358,-6.317356,0.004222,0.009471,0.000000,-0.216690,-0.479034,-0.000000
