time,x,y,z,vx,vy,vz,ax,ay,az,jx,jy,jz,sx,sy,sz,roll,pitch,yaw,p,q,r
0.000000,-3.295668,-0.359751,-1.474130,-0.018162,-0.004831,0.011151,0.253757,0.020736,-0.236350,-2.596727,0.805454,7.087541,110.239430,-26.875544,-170.677387,0.002063,-0.025253,0.000000,0.081616,0.240501,0.000000
0.010000,-3.295837,-0.359798,-1.474029,-0.015736,-0.004588,0.009114,0.233084,0.027535,-0.173570,-1.559227,0.562965,5.511414,97.425370,-21.717511,-144.996396,0.002757,-0.023342,0.000000,0.057905,0.143212,0.000000
0.020000,-3.295983,-0.359843,-1.473946,-0.013467,-0.004288,0.007631,0.222161,0.032158,-0.125310,-0.644987,0.369246,4.178872,85.580849,-17.116883,-121.937749,0.003236,-0.022357,0.000000,0.038520,0.055486,0.000000
0.030000,-3.296107,-0.359884,-1.473875,-0.011264,-0.003950,0.006568,0.219805,0.035065,-0.089266,0.155487,0.218868,3.064374,74.665449,-13.044256,-101.364784,0.003541,-0.022201,0.000000,0.023198,-0.022569,0.000000
0.040000,-3.296209,-0.359922,-1.473813,-0.009046,-0.003591,0.005812,0.224922,0.036663,-0.063377,0.851284,0.106699,2.143746,64.638777,-9.470230,-83.140798,0.003712,-0.022777,0.000000,0.011602,-0.091118,-0.000000
0.050000,-3.296288,-0.359956,-1.473758,-0.006744,-0.003220,0.005272,0.236511,0.037310,-0.045821,1.451090,0.027900,1.394180,55.460418,-6.365340,-67.129504,0.003784,-0.023992,0.000000,0.003352,-0.150539,-0.000000
0.060000,-3.296343,-0.359986,-1.473707,-0.004298,-0.002847,0.004873,0.253652,0.037317,-0.034995,1.963186,-0.022074,0.794236,47.089917,-3.700244,-53.193850,0.003789,-0.025759,0.000000,-0.001955,-0.201353,0.000000
0.070000,-3.296373,-0.360013,-1.473660,-0.001656,-0.002475,0.004555,0.275508,0.036950,-0.029504,2.395447,-0.047473,0.323839,39.486856,-1.445511,-41.197351,0.003754,-0.027993,0.000000,-0.004725,-0.244180,0.000000
0.080000,-3.296375,-0.360035,-1.473616,0.001226,-0.002108,0.004269,0.301319,0.036436,-0.028149,2.755346,-0.052254,-0.035719,32.610754,0.428269,-31.003390,0.003702,-0.030618,0.000000,-0.005354,-0.279692,0.000000
0.090000,-3.296347,-0.360055,-1.473575,0.004382,-0.001746,0.003981,0.330398,0.035962,-0.029907,3.049950,-0.040079,-0.301782,26.421061,1.950513,-22.475381,0.003653,-0.033565,0.000000,-0.004221,-0.308577,-0.000000
0.100000,-3.296287,-0.360070,-1.473537,0.007842,-0.001388,0.003664,0.362123,0.035680,-0.033926,3.285931,-0.014318,-0.490321,20.878376,3.150610,-15.476313,0.003622,-0.036770,0.000000,-0.001678,-0.331520,-0.000000
0.110000,-3.296189,-0.360083,-1.473502,0.011631,-0.001031,0.003298,0.395942,0.035710,-0.039504,3.469540,0.021957,-0.615949,15.941023,4.057984,-9.870000,0.003623,-0.040178,0.000000,0.001950,-0.349175,0.000000
0.120000,-3.296053,-0.360091,-1.473471,0.015767,-0.000673,0.002870,0.431359,0.036145,-0.046079,3.606636,0.065964,-0.691907,11.569053,4.702038,-5.519639,0.003664,-0.043738,0.000000,0.006371,-0.362162,-0.000000
0.130000,-3.295873,-0.360096,-1.473445,0.020262,-0.000307,0.002374,0.467938,0.037047,-0.053216,3.702671,0.115218,-0.730073,7.722054,5.112174,-2.288605,0.003752,-0.047407,0.000000,0.011325,-0.371053,0.000000
0.140000,-3.295646,-0.360097,-1.473424,0.025128,0.000070,0.001805,0.505292,0.038459,-0.060590,3.762693,0.167526,-0.740955,4.359601,5.317787,-0.040297,0.003891,-0.051147,0.000000,0.016583,-0.376370,0.000000
0.150000,-3.295369,-0.360094,-1.473409,0.030370,0.000464,0.001162,0.543087,0.040402,-0.067975,3.791344,0.220990,-0.733699,1.441239,5.348258,1.361851,0.004084,-0.054924,0.000000,0.021950,-0.378587,-0.000000
0.160000,-3.295038,-0.360088,-1.473401,0.035990,0.000880,0.000446,0.581029,0.042877,-0.075230,3.792863,0.274009,-0.716076,-1.073379,5.233255,2.055125,0.004330,-0.058710,0.000000,0.027261,-0.378122,0.000000
0.170000,-3.294648,-0.360077,-1.473400,0.041990,0.001323,-0.000342,0.618867,0.045876,-0.082284,3.771087,0.325269,-0.694503,-3.224714,5.001848,2.175336,0.004628,-0.062479,0.000000,0.032383,-0.375350,0.000000
0.180000,-3.294197,-0.360061,-1.473408,0.048366,0.001799,-0.001199,0.656384,0.049374,-0.089124,3.729445,0.373756,-0.674023,-5.053224,4.683568,1.859413,0.004977,-0.066210,0.000000,0.037212,-0.370596,0.000000
0.190000,-3.293680,-0.360041,-1.473424,0.055116,0.002312,-0.002123,0.693399,0.053339,-0.095780,3.670963,0.418748,-0.658314,-6.599422,4.307808,1.243941,0.005371,-0.069885,0.000000,0.041675,-0.364146,0.000000
0.200000,-3.293093,-0.360015,-1.473451,0.062232,0.002867,-0.003114,0.729756,0.057735,-0.102314,3.598270,0.459819,-0.649684,-7.903047,3.904070,0.465884,0.005809,-0.073489,0.000000,0.045729,-0.356248,-0.000000
0.210000,-3.292434,-0.359983,-1.473487,0.069708,0.003469,-0.004168,0.765212,0.062658,-0.108176,3.487884,0.527835,-0.506271,-9.513217,4.114453,2.484524,0.006299,-0.077000,0.000000,0.052570,-0.345663,0.000000
0.220000,-3.291698,-0.359945,-1.473534,0.077534,0.004122,-0.005278,0.799840,0.067845,-0.114463,3.451197,0.490744,-0.836722,-2.286442,-6.112571,-43.610715,0.006814,-0.080419,0.000000,0.048525,-0.338744,0.000000
0.230000,-3.290882,-0.359901,-1.473593,0.085703,0.004824,-0.006469,0.833983,0.072732,-0.123683,3.348403,0.519392,-0.854299,-18.386918,12.013102,40.877869,0.007296,-0.083759,0.000000,0.051272,-0.327538,0.000000
0.240000,-3.289983,-0.359849,-1.473664,0.094208,0.005580,-0.007741,0.866536,0.078521,-0.130192,3.174806,0.621408,-0.524152,-11.775137,2.920694,-0.049587,0.007869,-0.086955,0.000000,0.061645,-0.312410,0.000000
0.250000,-3.288997,-0.359789,-1.473748,0.103030,0.006396,-0.009071,0.897804,0.084734,-0.136097,3.074838,0.624288,-0.641250,-12.717220,3.109922,1.753409,0.008485,-0.090023,0.000000,0.061731,-0.300868,-0.000000
0.260000,-3.287921,-0.359720,-1.473845,0.112160,0.007275,-0.010464,0.927880,0.091133,-0.142418,2.938705,0.655439,-0.622632,-13.372698,2.969837,1.939527,0.009117,-0.092963,0.000000,0.064753,-0.286937,0.000000
0.270000,-3.286752,-0.359643,-1.473957,0.121583,0.008219,-0.011919,0.956648,0.097826,-0.148546,2.818034,0.682299,-0.602784,-11.827783,2.548023,2.051929,0.009778,-0.095769,0.000000,0.067344,-0.274614,-0.000000
0.280000,-3.285488,-0.359556,-1.474084,0.131289,0.009232,-0.013434,0.984173,0.104781,-0.154467,2.679723,0.709462,-0.581131,-15.852516,2.888781,2.275556,0.010464,-0.098449,0.000000,0.069967,-0.260611,0.000000
0.290000,-3.284126,-0.359458,-1.474226,0.141262,0.010316,-0.015008,1.010174,0.112018,-0.160163,2.523217,0.737114,-0.557873,-14.339851,2.493710,2.346003,0.011178,-0.100975,0.000000,0.072643,-0.244878,0.000000
0.300000,-3.282662,-0.359349,-1.474384,0.151487,0.011473,-0.016637,1.034714,0.119507,-0.165623,2.383902,0.760577,-0.534067,-14.601586,2.345398,2.437278,0.011915,-0.103355,0.000000,0.074903,-0.230919,0.000000
0.310000,-3.281095,-0.359228,-1.474559,0.161951,0.012707,-0.018319,1.057804,0.127226,-0.170844,2.233304,0.782877,-0.509960,-14.799804,2.176544,2.492035,0.012675,-0.105589,0.000000,0.077051,-0.215901,0.000000
0.320000,-3.279422,-0.359095,-1.474751,0.172638,0.014019,-0.020053,1.079432,0.135164,-0.175812,2.094612,0.804669,-0.483261,-13.612945,2.119983,2.734900,0.013456,-0.107678,0.000000,0.079155,-0.202147,-0.000000
0.330000,-3.277642,-0.358948,-1.474960,0.183535,0.015411,-0.021835,1.099661,0.143311,-0.180513,1.946866,0.823981,-0.457630,-15.948312,1.739490,2.384461,0.014258,-0.109629,0.000000,0.081017,-0.187538,0.000000
0.340000,-3.275751,-0.358786,-1.475188,0.194626,0.016886,-0.023662,1.118333,0.151635,-0.184970,1.789671,0.840669,-0.433429,-14.791184,1.658445,2.562670,0.015076,-0.111426,0.000000,0.082625,-0.172032,0.000000
0.350000,-3.273749,-0.358610,-1.475434,0.205897,0.018444,-0.025533,1.135509,0.160123,-0.189174,1.645319,0.856604,-0.407380,-14.760139,1.466332,2.533971,0.015910,-0.113076,0.000000,0.084166,-0.157863,0.000000
0.360000,-3.271633,-0.358417,-1.475698,0.217332,0.020088,-0.027445,1.151215,0.168757,-0.193123,1.495690,0.869856,-0.382648,-14.694969,1.261948,2.485175,0.016758,-0.114581,0.000000,0.085447,-0.143203,-0.000000
0.370000,-3.269402,-0.358208,-1.475983,0.228916,0.021820,-0.029395,1.165463,0.177519,-0.196822,1.355814,0.882547,-0.357038,-13.724868,1.198113,2.560356,0.017619,-0.115945,0.000000,0.086681,-0.129556,0.000000
0.380000,-3.267054,-0.357981,-1.476286,0.240636,0.023639,-0.031380,1.178314,0.186397,-0.200270,1.211842,0.892176,-0.333038,-15.078392,0.723791,2.234777,0.018491,-0.117171,0.000000,0.087618,-0.115523,0.000000
0.390000,-3.264588,-0.357735,-1.476610,0.252477,0.025548,-0.033399,1.189682,0.195351,-0.203490,1.063456,0.898552,-0.310907,-14.139507,0.627880,2.263083,0.019370,-0.118254,0.000000,0.088240,-0.101068,0.000000
0.400000,-3.262004,-0.357469,-1.476955,0.264425,0.027546,-0.035449,1.199625,0.204366,-0.206486,0.925272,0.904045,-0.288448,-13.946621,0.391842,2.152104,0.020255,-0.119197,0.000000,0.088783,-0.087650,0.000000
0.410000,-3.259300,-0.357183,-1.477319,0.276465,0.029635,-0.037528,1.208177,0.213421,-0.209265,0.785341,0.906401,-0.267648,-13.735820,0.144855,2.030355,0.021145,-0.120006,0.000000,0.089022,-0.074068,0.000000
0.420000,-3.256474,-0.356876,-1.477705,0.288584,0.031815,-0.039634,1.215364,0.222492,-0.211841,0.653383,0.907530,-0.247653,-12.944062,0.014612,1.943114,0.022036,-0.120682,0.000000,0.089145,-0.061283,-0.000000
0.430000,-3.253528,-0.356547,-1.478112,0.300768,0.034085,-0.041765,1.221239,0.231560,-0.214224,0.520399,0.905301,-0.229317,-13.659083,-0.463757,1.721962,0.022926,-0.121231,0.000000,0.088942,-0.048396,0.000000
0.440000,-3.250459,-0.356194,-1.478541,0.313004,0.036446,-0.043918,1.225765,0.240585,-0.216433,0.386144,0.899542,-0.212762,-12.895471,-0.623955,1.611636,0.023813,-0.121650,0.000000,0.088395,-0.035379,0.000000
0.450000,-3.247267,-0.355818,-1.478991,0.325279,0.038897,-0.046093,1.228994,0.249547,-0.218482,0.260040,0.892239,-0.197315,-12.617255,-0.903314,1.453259,0.024694,-0.121942,0.000000,0.087700,-0.023164,0.000000
0.460000,-3.243953,-0.355416,-1.479462,0.337580,0.041437,-0.048287,1.230964,0.258418,-0.220385,0.134356,0.881521,-0.183501,-12.330320,-1.191833,1.292669,0.025566,-0.122113,0.000000,0.086672,-0.010981,0.000000
0.470000,-3.240516,-0.354989,-1.479956,0.349894,0.044065,-0.050500,1.231706,0.267171,-0.222159,0.015193,0.868835,-0.171625,-11.682833,-1.394870,1.097472,0.026427,-0.122164,0.000000,0.085450,0.000577,0.000000
0.480000,-3.236955,-0.354534,-1.480473,0.362210,0.046780,-0.052730,1.231270,0.275782,-0.223822,-0.103097,0.852588,-0.161232,-11.979623,-1.857252,0.981220,0.027274,-0.122102,0.000000,0.083878,0.012061,0.000000
0.490000,-3.233272,-0.354053,-1.481011,0.374516,0.049580,-0.054976,1.229645,0.284210,-0.225389,-0.220691,0.832643,-0.152324,-11.354214,-2.084027,0.784471,0.028103,-0.121923,0.000000,0.081944,0.023489,0.000000
0.500000,-3.229465,-0.353543,-1.481572,0.386799,0.052463,-0.057237,1.226881,0.292429,-0.226876,-0.331726,0.810474,-0.145414,-11.034849,-2.399505,0.613718,0.028912,-0.121634,0.000000,0.079789,0.034295,0.000000
0.510000,-3.225536,-0.353003,-1.482156,0.399050,0.055428,-0.059513,1.223015,0.300408,-0.228301,-0.441022,0.784718,-0.139871,-10.711138,-2.721201,0.448046,0.029698,-0.121237,0.000000,0.077279,0.044944,-0.000000
0.520000,-3.221484,-0.352434,-1.482762,0.411256,0.058470,-0.061803,1.218081,0.308115,-0.229683,-0.544901,0.756322,-0.136879,-10.173069,-2.989399,0.196327,0.030457,-0.120737,0.000000,0.074504,0.055092,0.000000
0.530000,-3.217311,-0.351834,-1.483392,0.423408,0.061589,-0.064107,1.212123,0.315522,-0.231042,-0.646761,0.724274,-0.134977,-10.201876,-3.421757,0.186043,0.031187,-0.120136,0.000000,0.071368,0.065054,0.000000
0.540000,-3.213016,-0.351202,-1.484045,0.435495,0.064780,-0.066424,1.205151,0.322588,-0.232385,-0.746722,0.688490,-0.134068,-9.679863,-3.705081,-0.049349,0.031883,-0.119435,0.000000,0.067862,0.074843,0.000000
0.550000,-3.208601,-0.350538,-1.484721,0.447508,0.068039,-0.068755,1.197208,0.329283,-0.233732,-0.841284,0.649900,-0.135561,-9.342075,-4.044083,-0.202018,0.032543,-0.118640,0.000000,0.064072,0.084130,0.000000
0.560000,-3.204066,-0.349841,-1.485420,0.459436,0.071364,-0.071099,1.188333,0.335573,-0.235099,-0.933321,0.607641,-0.138018,-9.002397,-4.386483,-0.345250,0.033163,-0.117752,0.000000,0.059917,0.093182,-0.000000
0.570000,-3.199413,-0.349110,-1.486143,0.471271,0.074749,-0.073457,1.178558,0.341426,-0.236502,-1.020751,0.562363,-0.142967,-8.544121,-4.690601,-0.588140,0.033740,-0.116777,0.000000,0.055455,0.101812,-0.000000
0.580000,-3.194641,-0.348346,-1.486889,0.483005,0.078191,-0.075829,1.167926,0.346808,-0.237960,-1.105475,0.513382,-0.148597,-8.402442,-5.106397,-0.534833,0.034271,-0.115716,0.000000,0.050624,0.110185,0.000000
0.590000,-3.189753,-0.347546,-1.487659,0.494627,0.081684,-0.078216,1.156457,0.351681,-0.239475,-1.187568,0.460657,-0.154753,-7.954674,-5.417380,-0.750712,0.034751,-0.114572,0.000000,0.045422,0.118305,-0.000000
0.600000,-3.184749,-0.346712,-1.488453,0.506131,0.085223,-0.080619,1.144191,0.356011,-0.241064,-1.265088,0.404853,-0.163108,-7.610472,-5.764613,-0.863335,0.035178,-0.113350,0.000000,0.039906,0.126002,0.000000
0.610000,-3.179631,-0.345842,-1.489272,0.517508,0.088802,-0.083038,1.131165,0.359765,-0.242738,-1.339625,0.345416,-0.171967,-7.264806,-6.111185,-0.963050,0.035548,-0.112052,0.000000,0.034028,0.133410,0.000000
0.620000,-3.174399,-0.344936,-1.490114,0.528752,0.092416,-0.085474,1.117413,0.362909,-0.244510,-1.410074,0.282741,-0.182837,-6.857137,-6.434818,-1.155864,0.035858,-0.110681,0.000000,0.027821,0.140438,-0.000000
0.630000,-3.169056,-0.343993,-1.490981,0.539854,0.096058,-0.087928,1.102973,0.365408,-0.246395,-1.477445,0.216489,-0.193929,-6.618045,-6.815593,-1.059166,0.036104,-0.109242,0.000000,0.021258,0.147164,-0.000000
0.640000,-3.163603,-0.343014,-1.491873,0.550809,0.099722,-0.090402,1.087874,0.367227,-0.248389,-1.541782,0.146667,-0.205062,-6.216935,-7.136900,-1.219284,0.036282,-0.107737,0.000000,0.014341,0.153589,-0.000000
0.650000,-3.158041,-0.341999,-1.492789,0.561610,0.103400,-0.092897,1.072152,0.368331,-0.250503,-1.602054,0.073667,-0.217820,-5.870571,-7.473996,-1.276713,0.036389,-0.106170,0.000000,0.007103,0.159629,0.000000
0.660000,-3.152371,-0.340946,-1.493731,0.572250,0.107086,-0.095413,1.055843,0.368689,-0.252745,-1.659105,-0.002750,-0.230580,-5.524204,-7.806426,-1.320466,0.036423,-0.104543,0.000000,-0.000474,0.165349,-0.000000
0.670000,-3.146596,-0.339857,-1.494698,0.582725,0.110771,-0.097952,1.038983,0.368265,-0.255120,-1.712396,-0.082425,-0.244623,-5.149027,-8.129723,-1.440371,0.036379,-0.102862,0.000000,-0.008378,0.170707,-0.000000
0.680000,-3.140717,-0.338731,-1.495690,0.593028,0.114449,-0.100516,1.021606,0.367029,-0.257636,-1.762401,-0.165371,-0.258385,-4.852434,-8.458513,-1.308377,0.036254,-0.101128,0.000000,-0.016604,0.175734,0.000000
0.690000,-3.134736,-0.337568,-1.496708,0.603155,0.118109,-0.103105,1.003745,0.364947,-0.260285,-1.809141,-0.251530,-0.271676,-4.480492,-8.769965,-1.393958,0.036046,-0.099346,0.000000,-0.025145,0.180429,0.000000
0.700000,-3.128655,-0.336369,-1.497752,0.613102,0.121745,-0.105722,0.985436,0.361988,-0.263073,-1.852146,-0.340765,-0.285829,-4.134892,-9.077897,-1.388459,0.035750,-0.097518,0.000000,-0.033993,0.184759,0.000000
0.710000,-3.122475,-0.335133,-1.498823,0.622863,0.125346,-0.108367,0.966714,0.358122,-0.266000,-1.891791,-0.433032,-0.299472,-3.788834,-9.377279,-1.369547,0.035365,-0.095649,0.000000,-0.043137,0.188747,-0.000000
0.720000,-3.116198,-0.333862,-1.499920,0.632435,0.128904,-0.111042,0.947612,0.353318,-0.269064,-1.927875,-0.528310,-0.313467,-3.433142,-9.673787,-1.396679,0.034887,-0.093742,0.000000,-0.052576,0.192381,-0.000000
0.730000,-3.109827,-0.332555,-1.501043,0.641814,0.132409,-0.113749,0.928167,0.347546,-0.272266,-1.960561,-0.626412,-0.326720,-3.104321,-9.944749,-1.250815,0.034312,-0.091801,0.000000,-0.062289,0.195665,-0.000000
0.740000,-3.103363,-0.331214,-1.502195,0.650997,0.135852,-0.116488,0.908412,0.340780,-0.275595,-1.989859,-0.727233,-0.339059,-2.750067,-10.220816,-1.245747,0.033640,-0.089828,0.000000,-0.072263,0.198601,0.000000
0.750000,-3.096807,-0.329839,-1.503373,0.659981,0.139221,-0.119261,0.888382,0.332993,-0.279048,-2.015607,-0.830766,-0.351328,-2.404742,-10.480694,-1.175130,0.032866,-0.087828,0.000000,-0.082499,0.201179,-0.000000
0.760000,-3.090164,-0.328430,-1.504580,0.668764,0.142508,-0.122069,0.868112,0.324157,-0.282618,-2.037879,-0.936838,-0.362588,-2.058302,-10.729253,-1.091687,0.031989,-0.085803,0.000000,-0.092977,0.203398,0.000000
0.770000,-3.083433,-0.326989,-1.505815,0.677343,0.145701,-0.124914,0.847635,0.314248,-0.286298,-2.056854,-1.045287,-0.373273,-1.728310,-10.960821,-1.026785,0.031006,-0.083759,0.000000,-0.103681,0.205281,-0.000000
0.780000,-3.076617,-0.325516,-1.507078,0.685716,0.148789,-0.127796,0.826987,0.303243,-0.290079,-2.072269,-1.156059,-0.382738,-1.354506,-11.191326,-0.863448,0.029915,-0.081697,0.000000,-0.114603,0.206797,0.000000
0.790000,-3.069719,-0.324013,-1.508371,0.693882,0.151762,-0.130716,0.806202,0.291119,-0.293948,-2.084115,-1.269020,-0.390830,-1.023308,-11.396112,-0.769394,0.028713,-0.079622,0.000000,-0.125729,0.207944,0.000000
0.800000,-3.062740,-0.322481,-1.509693,0.701840,0.154608,-0.133675,0.785315,0.277856,-0.297893,-2.092664,-1.383952,-0.397942,-0.677991,-11.590123,-0.634515,0.027400,-0.077537,0.000000,-0.137038,0.208752,0.000000
0.810000,-3.055683,-0.320922,-1.511044,0.709588,0.157315,-0.136674,0.764360,0.263434,-0.301902,-2.097692,-1.500707,-0.403544,-0.333030,-11.767450,-0.487565,0.025972,-0.075447,0.000000,-0.148513,0.209198,0.000000
0.820000,-3.048549,-0.319336,-1.512426,0.717127,0.159873,-0.139713,0.743372,0.247836,-0.305959,-2.099375,-1.619331,-0.407686,0.001500,-11.945765,-0.335136,0.024429,-0.073353,0.000000,-0.160160,0.209299,0.000000
0.830000,-3.041341,-0.317725,-1.513839,0.724455,0.162268,-0.142793,0.722385,0.231043,-0.310050,-2.097554,-1.739378,-0.410127,0.362680,-12.060367,-0.150690,0.022768,-0.071261,0.000000,-0.171932,0.209040,0.000000
0.840000,-3.034061,-0.316091,-1.515282,0.731575,0.164489,-0.145914,0.701433,0.213044,-0.314156,-2.092228,-1.860661,-0.410734,0.697282,-12.202221,0.027531,0.020990,-0.069173,0.000000,-0.183812,0.208421,-0.000000
0.850000,-3.026711,-0.314436,-1.516757,0.738484,0.166525,-0.149076,0.680551,0.193825,-0.318258,-2.083566,-1.983284,-0.409503,1.040147,-12.310394,0.224437,0.019092,-0.067092,0.000000,-0.195811,0.207460,0.000000
0.860000,-3.019292,-0.312761,-1.518264,0.745186,0.168362,-0.152279,0.659773,0.173375,-0.322339,-2.071407,-2.106803,-0.406213,1.382598,-12.399139,0.433896,0.017073,-0.065024,0.000000,-0.207884,0.206142,-0.000000
0.870000,-3.011807,-0.311069,-1.519803,0.751680,0.169988,-0.155523,0.639134,0.151686,-0.326376,-2.056013,-2.231287,-0.400795,1.705841,-12.485444,0.653005,0.014934,-0.062970,0.000000,-0.220039,0.204492,0.000000
0.880000,-3.004259,-0.309362,-1.521375,0.757969,0.171391,-0.158806,0.618665,0.128748,-0.330347,-2.037090,-2.356255,-0.393086,2.078871,-12.504318,0.890777,0.012672,-0.060935,0.000000,-0.232230,0.202485,0.000000
0.890000,-2.996649,-0.307642,-1.522979,0.764054,0.172559,-0.162129,0.598404,0.104560,-0.334229,-2.014635,-2.481485,-0.382964,2.402133,-12.547321,1.134303,0.010289,-0.058921,0.000000,-0.244437,0.200119,0.000000
0.900000,-2.988979,-0.305912,-1.524617,0.769938,0.173478,-0.165491,0.578383,0.079117,-0.337998,-1.988971,-2.607052,-0.370347,2.740570,-12.553274,1.392142,0.007784,-0.056933,0.000000,-0.256668,0.197429,-0.000000
0.910000,-2.981251,-0.304173,-1.526289,0.775623,0.174137,-0.168889,0.558636,0.052419,-0.341627,-1.959771,-2.732527,-0.355070,3.079374,-12.537484,1.662041,0.005156,-0.054974,0.000000,-0.268883,0.194383,-0.000000
0.920000,-2.973467,-0.302430,-1.527995,0.781112,0.174523,-0.172323,0.539197,0.024468,-0.345090,-1.927572,-2.857721,-0.337096,3.379344,-12.497752,1.937772,0.002406,-0.053046,0.000000,-0.281066,0.191037,-0.000000
0.930000,-2.965629,-0.300684,-1.529736,0.786408,0.174622,-0.175790,0.520097,-0.004734,-0.348359,-1.891783,-2.982414,-0.316211,3.778814,-12.436889,2.241389,-0.000465,-0.051154,0.000000,-0.293198,0.187332,0.000000
0.940000,-2.957739,-0.298938,-1.531511,0.791515,0.174424,-0.179289,0.501373,-0.035178,-0.351404,-1.852393,-3.106367,-0.292292,4.079315,-12.349255,2.541064,-0.003458,-0.049301,0.000000,-0.305259,0.183269,0.000000
0.950000,-2.949799,-0.297196,-1.533322,0.796437,0.173915,-0.182817,0.483058,-0.066858,-0.354195,-1.810047,-3.229320,-0.265324,4.409990,-12.237472,2.857539,-0.006570,-0.047490,0.000000,-0.317228,0.178913,0.000000
0.960000,-2.941811,-0.295461,-1.535168,0.801178,0.173083,-0.186372,0.465184,-0.099760,-0.356700,-1.764223,-3.350982,-0.235014,4.739030,-12.099085,3.187279,-0.009802,-0.045724,0.000000,-0.329079,0.174214,0.000000
0.970000,-2.933776,-0.293736,-1.537049,0.805742,0.171915,-0.189950,0.447784,-0.133873,-0.358886,-1.715417,-3.471291,-0.201716,5.036568,-11.950068,3.492670,-0.013151,-0.044006,0.000000,-0.340812,0.169223,0.000000
0.980000,-2.925697,-0.292024,-1.538967,0.810135,0.170401,-0.193549,0.430887,-0.169180,-0.360722,-1.663189,-3.589724,-0.164737,5.408977,-11.731700,3.905521,-0.016618,-0.042340,0.000000,-0.352379,0.163896,0.000000
0.990000,-2.917574,-0.290329,-1.540920,0.814362,0.168528,-0.197163,0.414531,-0.205660,-0.362168,-1.607550,-3.705997,-0.123943,5.703088,-11.526595,4.236442,-0.020198,-0.040729,0.000000,-0.363761,0.158236,0.000000
1.000000,-2.909410,-0.288655,-1.542910,0.818427,0.166284,-0.200790,0.398746,-0.243293,-0.363190,-1.549010,-3.820092,-0.079812,6.019086,-11.279495,4.609735,-0.023892,-0.039176,0.000000,-0.374959,0.152294,-0.000000
1.010000,-2.901206,-0.287005,-1.544936,0.822338,0.163658,-0.204426,0.383562,-0.282053,-0.363750,-1.487197,-3.931435,-0.031528,6.331321,-11.002205,4.997705,-0.027697,-0.037683,0.000000,-0.385926,0.146033,-0.000000
1.020000,-2.892964,-0.285383,-1.546998,0.826101,0.160639,-0.208064,0.369011,-0.321913,-0.363811,-1.422504,-4.040204,0.019705,6.617675,-10.729173,5.300124,-0.031610,-0.036255,0.000000,-0.396682,0.139497,0.000000
1.030000,-2.884685,-0.283793,-1.549097,0.829721,0.157216,-0.211700,0.355123,-0.362845,-0.363340,-1.354626,-4.145554,0.075546,6.957612,-10.335353,5.871183,-0.035629,-0.034893,0.000000,-0.407156,0.132649,-0.000000
1.040000,-2.876370,-0.282240,-1.551232,0.833206,0.153379,-0.215329,0.341929,-0.404812,-0.362284,-1.283595,-4.247162,0.136156,7.236475,-9.998613,6.202288,-0.039752,-0.033601,0.000000,-0.417327,0.125494,0.000000
1.050000,-2.868021,-0.280727,-1.553404,0.836562,0.149117,-0.218944,0.329460,-0.447777,-0.360607,-1.209821,-4.345275,0.200047,7.528754,-9.601267,6.626857,-0.043975,-0.032382,0.000000,-0.427221,0.118077,0.000000
1.060000,-2.859639,-0.279259,-1.555611,0.839797,0.144420,-0.222539,0.317743,-0.491703,-0.358266,-1.132986,-4.439112,0.268799,7.816779,-9.172441,7.062980,-0.048295,-0.031238,0.000000,-0.436777,0.110361,0.000000
1.070000,-2.851225,-0.277840,-1.557855,0.842919,0.139280,-0.226107,0.306808,-0.536545,-0.355221,-1.053695,-4.528722,0.340761,8.060182,-8.733170,7.390556,-0.052710,-0.030173,0.000000,-0.445999,0.102409,0.000000
1.080000,-2.842781,-0.276475,-1.560133,0.845936,0.133686,-0.229641,0.296680,-0.582261,-0.351433,-0.971387,-4.613435,0.417894,8.400692,-8.203646,8.038890,-0.057214,-0.029188,0.000000,-0.454842,0.094160,0.000000
1.090000,-2.834307,-0.275168,-1.562447,0.848856,0.127632,-0.233133,0.287390,-0.628797,-0.346845,-0.886107,-4.692911,0.500342,8.634038,-7.697087,8.390967,-0.061805,-0.028288,0.000000,-0.463284,0.085616,-0.000000
1.100000,-2.825804,-0.273924,-1.564796,0.851687,0.121108,-0.236575,0.278965,-0.676102,-0.341416,-0.798562,-4.767171,0.586246,8.893701,-7.138349,8.850891,-0.066478,-0.027473,0.000000,-0.471326,0.076850,0.000000
1.110000,-2.817274,-0.272747,-1.567178,0.854438,0.114107,-0.239958,0.271428,-0.724120,-0.335101,-0.708288,-4.835452,0.677629,9.145364,-6.543262,9.322303,-0.071230,-0.026748,0.000000,-0.478916,0.067808,0.000000
1.120000,-2.808716,-0.271643,-1.569595,0.857118,0.106623,-0.243274,0.264806,-0.772793,-0.327856,-0.615816,-4.898210,0.771744,9.361413,-5.972558,9.601946,-0.076055,-0.026115,0.000000,-0.486091,0.058546,0.000000
1.130000,-2.800131,-0.270617,-1.572044,0.859737,0.098650,-0.246512,0.259121,-0.822061,-0.319645,-0.520798,-4.954153,0.871792,9.641093,-5.209210,10.410942,-0.080950,-0.025575,0.000000,-0.492756,0.049018,0.000000
1.140000,-2.791521,-0.269672,-1.574525,0.862304,0.090180,-0.249663,0.254398,-0.871852,-0.310399,-0.423307,-5.002892,0.977922,9.841380,-4.563386,10.713001,-0.085909,-0.025132,0.000000,-0.498888,0.039228,0.000000
1.150000,-2.782885,-0.268815,-1.577037,0.864829,0.081211,-0.252716,0.250661,-0.922098,-0.300079,-0.323905,-5.045046,1.086911,10.053412,-3.830968,11.186276,-0.090926,-0.024788,0.000000,-0.504532,0.029233,0.000000
1.160000,-2.774225,-0.268049,-1.579579,0.867321,0.071737,-0.255661,0.247928,-0.972726,-0.288640,-0.222241,-5.079309,1.201773,10.256713,-3.060432,11.663823,-0.095997,-0.024546,0.000000,-0.509597,0.018986,-0.000000
1.170000,-2.765539,-0.267382,-1.582149,0.869791,0.061755,-0.258485,0.246221,-1.023661,-0.276038,-0.119001,-5.106547,1.319051,10.409493,-2.337952,11.908971,-0.101117,-0.024407,0.000000,-0.514145,0.008557,0.000000
1.180000,-2.756829,-0.266816,-1.584748,0.872249,0.051263,-0.261178,0.245555,-1.074827,-0.262238,-0.013670,-5.125043,1.442412,10.655277,-1.354167,12.765559,-0.106278,-0.024375,0.000000,-0.518053,-0.002121,-0.000000
1.190000,-2.748094,-0.266358,-1.587373,0.874705,0.040258,-0.263726,0.245954,-1.126131,-0.247168,0.093653,-5.134386,1.571943,10.786720,-0.552107,13.019725,-0.111475,-0.024451,0.000000,-0.521296,-0.013045,-0.000000
1.200000,-2.739335,-0.266013,-1.590022,0.877171,0.028740,-0.266117,0.247432,-1.177489,-0.230793,0.202191,-5.135597,1.703783,10.938683,0.359344,13.465265,-0.116702,-0.024638,0.000000,-0.523940,-0.024138,0.000000
1.210000,-2.730551,-0.265785,-1.592694,0.879657,0.016709,-0.268337,0.250004,-1.228810,-0.213073,0.312377,-5.126944,1.840994,11.077816,1.310657,13.899588,-0.121952,-0.024938,0.000000,-0.525858,-0.035460,0.000000
1.220000,-2.721742,-0.265680,-1.595388,0.882175,0.004165,-0.270373,0.253682,-1.280001,-0.193965,0.423547,-5.109880,1.981057,11.169883,2.172602,14.181332,-0.127217,-0.025353,0.000000,-0.527172,-0.046947,-0.000000
1.230000,-2.712907,-0.265703,-1.598101,0.884735,-0.008890,-0.272212,0.258479,-1.330971,-0.173435,0.536063,-5.082018,2.126053,11.331203,3.407673,14.817094,-0.132492,-0.025885,0.000000,-0.527679,-0.058651,0.000000
1.240000,-2.704047,-0.265860,-1.600832,0.887348,-0.022454,-0.273837,0.264408,-1.381603,-0.151428,0.649786,-5.042919,2.275896,11.394087,4.352524,15.076276,-0.137768,-0.026537,0.000000,-0.527344,-0.070569,-0.000000
1.250000,-2.695160,-0.266154,-1.603577,0.890027,-0.036521,-0.275235,0.271476,-1.431798,-0.127911,0.764030,-4.994299,2.428113,11.467713,5.442300,15.434741,-0.143037,-0.027310,0.000000,-0.526306,-0.082640,0.000000
1.260000,-2.686246,-0.266592,-1.606335,0.892782,-0.051088,-0.276390,0.279682,-1.481440,-0.102844,0.876959,-4.931736,2.586034,11.481788,6.612731,15.801667,-0.148290,-0.028207,0.000000,-0.524182,-0.094700,-0.000000
1.270000,-2.677304,-0.267177,-1.609104,0.895624,-0.066148,-0.277287,0.289045,-1.530431,-0.076206,0.996980,-4.866199,2.740893,12.163969,6.948972,15.498185,-0.153521,-0.029229,0.000000,-0.521922,-0.107578,0.000000
1.280000,-2.668333,-0.267916,-1.611880,0.898567,-0.081694,-0.277909,0.299605,-1.578702,-0.048000,1.112717,-4.783227,2.902881,10.969664,9.664115,16.903984,-0.158724,-0.030383,0.000000,-0.518254,-0.120182,-0.000000
1.290000,-2.659332,-0.268813,-1.614661,0.901620,-0.097719,-0.278241,0.311281,-1.626031,-0.018122,1.223518,-4.681918,3.072113,11.547071,10.148423,16.599649,-0.163881,-0.031662,0.000000,-0.513097,-0.132458,0.000000
1.300000,-2.650300,-0.269872,-1.617444,0.904796,-0.114211,-0.278266,0.324102,-1.672334,0.013424,1.340568,-4.576328,3.237595,11.502301,11.425158,16.824439,-0.168986,-0.033071,0.000000,-0.507654,-0.145510,-0.000000
1.310000,-2.641236,-0.271099,-1.620225,0.908106,-0.131161,-0.277967,0.338096,-1.717503,0.046637,1.458501,-4.455373,3.405039,11.528608,12.700858,16.949902,-0.174029,-0.034615,0.000000,-0.500912,-0.158833,0.000000
1.320000,-2.632138,-0.272497,-1.623002,0.911562,-0.148557,-0.277328,0.353228,-1.761404,0.081552,1.566002,-4.322881,3.579132,10.506334,13.866334,17.575626,-0.179001,-0.036293,0.000000,-0.493335,-0.171318,-0.000000
1.330000,-2.623004,-0.274071,-1.625771,0.915174,-0.166385,-0.276330,0.369441,-1.803915,0.118208,1.679855,-4.176612,3.750400,12.278480,15.391690,16.660327,-0.183892,-0.038101,0.000000,-0.484511,-0.184639,0.000000
1.340000,-2.613834,-0.275826,-1.628528,0.918955,-0.184630,-0.274958,0.386852,-1.844889,0.156545,1.800650,-4.016348,3.917920,11.335360,16.595902,17.121931,-0.188687,-0.040053,0.000000,-0.474374,-0.198875,0.000000
1.350000,-2.604624,-0.277765,-1.631269,0.922915,-0.203277,-0.273194,0.405410,-1.884203,0.196587,1.911106,-3.844101,4.090208,11.292979,17.921135,17.039410,-0.193376,-0.042146,0.000000,-0.463278,-0.212321,0.000000
1.360000,-2.595375,-0.279893,-1.633990,0.927066,-0.222308,-0.271020,0.425070,-1.921718,0.238341,2.020180,-3.656436,4.260310,11.128413,19.282948,16.921603,-0.197947,-0.044380,0.000000,-0.450721,-0.225872,0.000000
1.370000,-2.586082,-0.282213,-1.636688,0.931420,-0.241705,-0.268421,0.445858,-1.957313,0.281785,2.139219,-3.461469,4.427980,12.084390,20.029468,16.649776,-0.202389,-0.046759,0.000000,-0.437470,-0.240707,-0.000000
1.380000,-2.576746,-0.284728,-1.639357,0.935988,-0.261448,-0.265379,0.467820,-1.990887,0.326896,2.249380,-3.249157,4.594094,9.926308,22.441726,16.563595,-0.206691,-0.049292,0.000000,-0.422520,-0.254920,0.000000
1.390000,-2.567362,-0.287443,-1.641994,0.940780,-0.281515,-0.261878,0.490808,-2.022234,0.373660,2.349660,-3.019126,4.758059,10.724401,23.240140,16.169559,-0.210833,-0.051966,0.000000,-0.405785,-0.268407,-0.000000
1.400000,-2.557929,-0.290359,-1.644593,0.945807,-0.301885,-0.257901,0.514853,-2.051250,0.422041,2.458735,-2.781665,4.917655,10.493389,24.570770,15.786440,-0.214804,-0.054787,0.000000,-0.388196,-0.283100,0.000000
1.410000,-2.548445,-0.293481,-1.647150,0.951080,-0.322532,-0.253432,0.539955,-2.077811,0.472001,2.561111,-2.528199,5.073542,10.256683,25.886856,15.332105,-0.218591,-0.057759,0.000000,-0.368870,-0.297416,0.000000
1.420000,-2.538907,-0.296811,-1.649660,0.956610,-0.343432,-0.248456,0.566090,-2.101790,0.523492,2.666380,-2.266143,5.223617,10.526933,26.744382,14.714778,-0.222178,-0.060883,0.000000,-0.348453,-0.312352,0.000000
1.430000,-2.529312,-0.300351,-1.652117,0.962406,-0.364559,-0.242957,0.593262,-2.123081,0.576456,2.765983,-1.988698,5.368513,9.384169,28.746064,14.252143,-0.225554,-0.064162,0.000000,-0.326222,-0.327030,-0.000000
1.440000,-2.519658,-0.304103,-1.654517,0.968478,-0.385885,-0.236922,0.621387,-2.141511,0.630843,2.859482,-1.695894,5.507476,9.586284,29.581070,13.481279,-0.228696,-0.067592,0.000000,-0.302102,-0.341403,-0.000000
1.450000,-2.509941,-0.308069,-1.656854,0.974837,-0.407379,-0.230336,0.650464,-2.156977,0.686578,2.955400,-1.395295,5.638235,9.327016,30.757099,12.700810,-0.231592,-0.071176,0.000000,-0.276740,-0.356360,0.000000
1.460000,-2.500160,-0.312251,-1.659122,0.981491,-0.429014,-0.223186,0.680496,-2.169375,0.743565,3.051185,-1.082575,5.757201,9.158551,31.859980,11.754850,-0.234225,-0.074916,0.000000,-0.249535,-0.371613,0.000000
1.470000,-2.490311,-0.316650,-1.661316,0.988450,-0.450756,-0.215460,0.711427,-2.178586,0.801744,3.132362,-0.757525,5.879288,7.731352,33.060617,11.988709,-0.236578,-0.078811,0.000000,-0.220793,-0.385738,0.000000
1.480000,-2.480390,-0.321266,-1.663429,0.995722,-0.472575,-0.207147,0.743169,-2.184495,0.861084,3.219553,-0.423239,5.982842,9.727479,33.783367,8.686676,-0.238634,-0.082856,0.000000,-0.190184,-0.400758,0.000000
1.490000,-2.470395,-0.326101,-1.665457,1.003316,-0.494435,-0.198236,0.775847,-2.187023,0.921328,3.313676,-0.080469,6.066056,8.436558,34.839299,8.606562,-0.240375,-0.087064,0.000000,-0.157645,-0.416759,0.000000
1.500000,-2.460323,-0.331155,-1.667392,1.011242,-0.516303,-0.188718,0.809384,-2.186069,0.982416,3.393890,0.272622,6.149029,8.264854,35.686323,7.310295,-0.241782,-0.091432,0.000000,-0.123463,-0.431662,0.000000
1.510000,-2.450169,-0.336427,-1.669229,1.019507,-0.538144,-0.178585,0.843743,-2.181543,1.044239,3.477715,0.633998,6.213014,8.094113,36.471685,5.920057,-0.242837,-0.095959,0.000000,-0.087250,-0.447177,0.000000
1.520000,-2.439931,-0.341918,-1.670962,1.028119,-0.559922,-0.167831,0.878900,-2.173373,1.106665,3.552028,1.000821,6.271265,7.160981,36.978993,5.282008,-0.243523,-0.100643,0.000000,-0.049609,-0.461988,-0.000000
1.530000,-2.429605,-0.347625,-1.672584,1.037087,-0.581600,-0.156450,0.914796,-2.161500,1.169593,3.629171,1.375388,6.309264,8.278669,37.921974,2.290804,-0.243822,-0.105481,0.000000,-0.009798,-0.477273,0.000000
1.540000,-2.419188,-0.353549,-1.674089,1.046418,-0.603139,-0.144438,0.951497,-2.145841,1.232774,3.709610,1.756904,6.325601,7.410136,38.263094,1.401934,-0.243711,-0.110481,0.000000,0.032227,-0.493041,0.000000
1.550000,-2.408676,-0.359687,-1.675470,1.056119,-0.624504,-0.131794,0.988950,-2.126354,1.296084,3.780710,2.141170,6.333326,7.202841,38.673548,-0.306327,-0.243173,-0.115639,0.000000,0.075692,-0.508008,0.000000
1.560000,-2.398065,-0.366038,-1.676722,1.066199,-0.645654,-0.118517,1.027125,-2.103016,1.359358,3.854318,2.526591,6.317971,7.010036,38.911523,-2.130699,-0.242191,-0.120951,0.000000,0.120908,-0.523274,-0.000000
1.570000,-2.387351,-0.372600,-1.677839,1.076664,-0.666551,-0.104608,1.065988,-2.075774,1.422434,3.916188,2.923801,6.296429,5.850884,40.007586,-2.814852,-0.240746,-0.126414,0.000000,0.168610,-0.537413,0.000000
1.580000,-2.376530,-0.379369,-1.678812,1.087521,-0.687156,-0.090069,1.105464,-2.044561,1.485193,3.981553,3.315774,6.248313,7.232545,38.351475,-6.837759,-0.238815,-0.132019,0.000000,0.217566,-0.551811,0.000000
1.590000,-2.365599,-0.386342,-1.679638,1.098776,-0.707429,-0.074906,1.145636,-2.009486,1.547302,4.050808,3.700624,6.172166,6.117371,39.106853,-7.767822,-0.236391,-0.137773,0.000000,0.267611,-0.566420,0.000000
1.600000,-2.354553,-0.393516,-1.680309,1.110436,-0.727333,-0.059126,1.186431,-1.970514,1.608619,4.107985,4.093180,6.087426,5.805291,38.876401,-9.818716,-0.233455,-0.143666,0.000000,0.319853,-0.579634,0.000000
1.610000,-2.343389,-0.400887,-1.680818,1.122506,-0.746827,-0.042737,1.227777,-1.927656,1.668950,4.160053,4.477618,5.974993,5.338074,38.496339,-11.950927,-0.229992,-0.149685,0.000000,0.373030,-0.591853,0.000000
1.620000,-2.332102,-0.408451,-1.681161,1.134993,-0.765873,-0.025751,1.269676,-1.880936,1.728106,4.221376,4.867339,5.854953,6.203838,38.935422,-12.763331,-0.225987,-0.155828,0.000000,0.428182,-0.605030,0.000000
1.630000,-2.320688,-0.416203,-1.681331,1.147902,-0.784432,-0.008179,1.312154,-1.830351,1.785944,4.268960,5.245585,5.704919,3.282571,36.676824,-17.268284,-0.221427,-0.162093,0.000000,0.483833,-0.615985,0.000000
1.640000,-2.309142,-0.424138,-1.681323,1.161237,-0.802468,0.009963,1.354999,-1.776073,1.842095,4.301331,5.610382,5.523740,3.905353,36.756866,-18.260537,-0.216310,-0.168446,0.000000,0.539645,-0.624341,0.000000
1.650000,-2.297461,-0.432250,-1.681130,1.175003,-0.819942,0.028657,1.398217,-1.718132,1.896402,4.340772,5.976078,5.333681,3.254556,35.866353,-20.456402,-0.210629,-0.174880,0.000000,0.596728,-0.633087,0.000000
1.660000,-2.285641,-0.440535,-1.680748,1.189203,-0.836818,0.047884,1.441761,-1.656605,1.948670,4.366633,6.327181,5.116186,2.530662,34.823321,-22.642369,-0.204377,-0.181383,0.000000,0.653494,-0.639268,0.000000
1.670000,-2.273676,-0.448985,-1.680171,1.203839,-0.853062,0.067623,1.485575,-1.591585,1.998685,4.396936,6.676629,4.884561,2.919034,34.568985,-24.064217,-0.197555,-0.187938,0.000000,0.711079,-0.645219,-0.000000
1.680000,-2.261562,-0.457594,-1.679394,1.218915,-0.868639,0.087850,1.529645,-1.523136,2.046272,4.412198,7.008143,4.626906,0.106670,31.697821,-27.472487,-0.190160,-0.194533,0.000000,0.767533,-0.648205,0.000000
1.690000,-2.249296,-0.466355,-1.678412,1.234432,-0.883514,0.108539,1.573760,-1.451492,2.091133,4.411109,7.319798,4.343067,0.276501,31.093029,-28.897140,-0.182210,-0.201128,0.000000,0.822343,-0.647896,0.000000
1.700000,-2.236872,-0.475262,-1.677222,1.250390,-0.897658,0.129663,1.617886,-1.376752,2.133096,4.412412,7.625511,4.045843,-0.629832,29.550277,-30.925588,-0.173713,-0.207708,0.000000,0.876760,-0.646783,0.000000
1.710000,-2.224287,-0.484306,-1.675818,1.266790,-0.911039,0.151191,1.661954,-1.299062,2.171980,4.399228,7.909101,3.728068,-1.585701,27.841003,-32.836231,-0.164685,-0.214250,0.000000,0.928605,-0.642519,-0.000000
1.720000,-2.211535,-0.493480,-1.674197,1.283629,-0.923630,0.173091,1.705873,-1.218572,2.207577,4.384525,8.188322,3.387360,-1.777542,27.311917,-35.077601,-0.155142,-0.220729,0.000000,0.979891,-0.636529,0.000000
1.730000,-2.198613,-0.502776,-1.672355,1.300907,-0.935402,0.195330,1.749591,-1.135390,2.239678,4.354816,8.440848,3.031305,-4.182503,23.154196,-36.110601,-0.145100,-0.227124,0.000000,1.027317,-0.627269,0.000000
1.740000,-2.185515,-0.512185,-1.670289,1.318619,-0.946330,0.217873,1.792913,-1.049856,2.268157,4.309200,8.664661,2.661171,-4.525106,22.270322,-38.113614,-0.134611,-0.233396,0.000000,1.070279,-0.614594,-0.000000
1.750000,-2.172239,-0.521699,-1.667996,1.336763,-0.956392,0.240681,1.835772,-0.962113,2.292832,4.260659,8.880156,2.271240,-5.606594,20.135708,-39.637754,-0.123700,-0.239522,0.000000,1.111203,-0.599904,-0.000000
1.760000,-2.158779,-0.531310,-1.665475,1.355333,-0.965566,0.263716,1.878077,-0.872366,2.313557,4.198387,9.064844,1.871983,-6.699914,17.835714,-40.966224,-0.112406,-0.245477,0.000000,1.146736,-0.582144,0.000000
1.770000,-2.145131,-0.541008,-1.662722,1.374323,-0.973833,0.286938,1.919716,-0.780809,2.330166,4.127993,9.246240,1.445236,-7.527836,17.413215,-43.609811,-0.100769,-0.251230,0.000000,1.180389,-0.561439,0.000000
1.780000,-2.131291,-0.550783,-1.659735,1.393725,-0.981176,0.310305,1.960593,-0.687569,2.342459,4.044712,9.391505,1.016016,-9.134612,11.596728,-42.186886,-0.088822,-0.256754,0.000000,1.207354,-0.538000,0.000000
1.790000,-2.117255,-0.560628,-1.656515,1.413531,-0.987580,0.333773,2.000565,-0.593114,2.350493,3.948241,9.498551,0.586795,-10.012506,10.830240,-44.390398,-0.076647,-0.262024,0.000000,1.227182,-0.511948,0.000000
1.800000,-2.103019,-0.570532,-1.653060,1.433733,-0.993035,0.357300,2.039532,-0.497601,2.354107,3.843196,9.599219,0.135157,-11.143907,8.272193,-45.155816,-0.064286,-0.267014,0.000000,1.244047,-0.483186,0.000000
1.810000,-2.088579,-0.580485,-1.649369,1.454318,-0.997530,0.380840,2.077385,-0.401241,2.353211,3.725557,9.668543,-0.314736,-12.275353,5.725965,-45.710157,-0.051789,-0.271701,0.000000,1.254400,-0.452117,0.000000
1.820000,-2.073931,-0.590479,-1.645443,1.475276,-1.001058,0.404349,2.114014,-0.304304,2.347722,3.598706,9.714927,-0.786918,-13.197743,3.412813,-47.812090,-0.039215,-0.276060,0.000000,1.259432,-0.418448,-0.000000
1.830000,-2.059072,-0.600503,-1.641282,1.496594,-1.003614,0.427779,2.149317,-0.207035,2.337504,3.459452,9.733924,-1.251808,-14.653730,0.380985,-45.110593,-0.026620,-0.280070,0.000000,1.258380,-0.382945,0.000000
1.840000,-2.043998,-0.610548,-1.636888,1.518258,-1.005198,0.451084,2.183161,-0.109719,2.322727,3.307806,9.725260,-1.706518,-15.566324,-1.977328,-46.699001,-0.014067,-0.283717,0.000000,1.251355,-0.345888,-0.000000
1.850000,-2.028706,-0.620604,-1.632261,1.540252,-1.005810,0.474218,2.215446,-0.012605,2.303303,3.147311,9.693253,-2.177625,-16.633771,-4.557058,-46.601436,-0.001610,-0.286982,0.000000,1.239080,-0.306919,0.000000
1.860000,-2.013192,-0.630661,-1.627404,1.562561,-1.005452,0.497135,2.246072,0.084065,2.279222,2.976323,9.636716,-2.637661,-17.654762,-7.071478,-46.291051,0.010697,-0.289853,0.000000,1.221527,-0.266991,-0.000000
1.870000,-1.997454,-0.640710,-1.622319,1.585168,-1.004131,0.519787,2.274931,0.180020,2.250489,2.793445,9.548934,-3.111292,-18.821257,-10.163147,-47.521333,0.022800,-0.292316,0.000000,1.198029,-0.225210,0.000000
1.880000,-1.981488,-0.650741,-1.617010,1.608054,-1.001855,0.542129,2.301913,0.274976,2.217056,2.601987,9.440222,-3.568931,-19.460511,-11.561534,-43.951441,0.034643,-0.294358,0.000000,1.170191,-0.183227,0.000000
1.890000,-1.965292,-0.660744,-1.611478,1.631200,-0.998635,0.564113,2.326945,0.368760,2.179180,2.402495,9.311487,-4.007708,-20.524389,-14.494853,-44.671906,0.046191,-0.295983,0.000000,1.138482,-0.141375,-0.000000
1.900000,-1.948863,-0.670710,-1.605729,1.654586,-0.994484,0.585697,2.349926,0.461102,2.136860,2.192461,9.153237,-4.454244,-21.379710,-16.826160,-43.716730,0.057396,-0.297184,0.000000,1.101873,-0.098533,0.000000
1.910000,-1.932199,-0.680630,-1.599766,1.678191,-0.989419,0.606836,2.370777,0.551759,2.090171,1.976468,8.974560,-4.881237,-22.149863,-19.085525,-42.563265,0.068218,-0.297960,0.000000,1.061965,-0.056383,-0.000000
1.920000,-1.915299,-0.690496,-1.593594,1.701994,-0.983456,0.627487,2.389403,0.640504,2.039203,1.746525,8.770056,-5.313356,-23.499024,-21.617667,-42.956640,0.078622,-0.298310,0.000000,1.018236,-0.013215,-0.000000
1.930000,-1.898159,-0.700297,-1.587218,1.725971,-0.976616,0.647606,2.405700,0.727098,1.983990,1.513620,8.546355,-5.721428,-23.061323,-23.101048,-38.607341,0.088574,-0.298230,0.000000,0.972031,0.028507,0.000000
1.940000,-1.880779,-0.710025,-1.580643,1.750100,-0.968921,0.667153,2.419672,0.811372,1.924870,1.278832,8.304655,-6.102853,-24.218601,-25.406810,-38.544169,0.098056,-0.297743,0.000000,0.923866,0.068509,0.000000
1.950000,-1.863157,-0.719672,-1.573877,1.774357,-0.960397,0.686091,2.431231,0.893112,1.861917,1.032299,8.040151,-6.484350,-24.744515,-27.290899,-36.849499,0.107043,-0.296851,0.000000,0.873190,0.108810,0.000000
1.960000,-1.845291,-0.729230,-1.566924,1.798716,-0.951068,0.704379,2.440317,0.972136,1.795275,0.784405,7.762198,-6.840785,-25.182783,-28.991910,-35.026383,0.115518,-0.295561,0.000000,0.821635,0.147277,0.000000
1.970000,-1.827182,-0.738691,-1.559791,1.823155,-0.940964,0.721984,2.446877,1.048243,1.725115,0.525566,7.454167,-7.190094,-26.223749,-31.902357,-34.230234,0.123465,-0.293885,0.000000,0.767304,0.185593,-0.000000
1.980000,-1.808828,-0.748047,-1.552486,1.847645,-0.930114,0.738870,2.450834,1.121201,1.651567,0.267505,7.139092,-7.512715,-25.365414,-31.069113,-30.260332,0.130866,-0.291828,0.000000,0.713344,0.221744,0.000000
1.990000,-1.790229,-0.757291,-1.545016,1.872163,-0.918550,0.755005,2.452236,1.191015,1.574960,0.011434,6.819246,-7.806915,-26.189208,-33.575106,-29.160105,0.137735,-0.289420,0.000000,0.660196,0.255587,-0.000000
2.000000,-1.771385,-0.766416,-1.537389,1.896681,-0.906305,0.770360,2.451029,1.257489,1.495453,-0.253035,6.473977,-8.090628,-26.340716,-34.759511,-26.978406,0.144063,-0.286668,0.000000,0.605439,0.288890,0.000000
2.010000,-1.752295,-0.775415,-1.529612,1.921175,-0.893412,0.784906,2.447189,1.320492,1.413237,-0.514803,6.125386,-8.348716,-26.396183,-35.754805,-24.756627,0.149849,-0.283589,0.000000,0.551898,0.319974,0.000000
2.020000,-1.732961,-0.784282,-1.521694,1.945616,-0.879907,0.798616,2.440700,1.379899,1.328543,-0.784350,5.751817,-8.586757,-27.117008,-38.139019,-22.720379,0.155095,-0.280198,0.000000,0.497217,0.350211,0.000000
2.030000,-1.713383,-0.793011,-1.513642,1.969980,-0.865827,0.811469,2.431521,1.435539,1.241584,-1.048837,5.379804,-8.800398,-25.756212,-36.214181,-19.998196,0.159800,-0.276508,0.000000,0.444450,0.378143,0.000000
2.040000,-1.693562,-0.801597,-1.505467,1.994238,-0.851208,0.823441,2.419747,1.487515,1.152619,-1.306997,5.011923,-8.989118,-26.251208,-38.140823,-17.866387,0.163992,-0.272546,0.000000,0.393872,0.403722,0.000000
2.050000,-1.673499,-0.810034,-1.497177,2.018366,-0.836089,0.834515,2.405358,1.535698,1.061871,-1.570330,4.624304,-9.156609,-26.017056,-38.557381,-15.505608,0.167675,-0.268326,0.000000,0.342917,0.428362,0.000000
2.060000,-1.653195,-0.818317,-1.488780,2.042337,-0.820507,0.844674,2.388366,1.580026,0.969562,-1.827318,4.241296,-9.301438,-25.701538,-38.792080,-13.177641,0.170859,-0.263864,0.000000,0.294188,0.450893,0.000000
2.070000,-1.632653,-0.826442,-1.480286,2.066125,-0.804501,0.853902,2.368796,1.620456,0.875942,-2.087214,3.841840,-9.417583,-25.942198,-40.325689,-10.326416,0.173558,-0.259179,0.000000,0.245586,0.472211,0.000000
2.080000,-1.611874,-0.834406,-1.471705,2.089704,-0.788111,0.862189,2.346650,1.656897,0.781275,-2.339136,3.450996,-9.513756,-24.421349,-37.796174,-8.919838,0.175780,-0.254283,0.000000,0.199530,0.491532,0.000000
2.090000,-1.590860,-0.842203,-1.463046,2.113049,-0.771376,0.869525,2.322046,1.689518,0.685730,-2.581990,3.071219,-9.590527,-24.466623,-38.892787,-6.163117,0.177558,-0.249201,0.000000,0.156165,0.508865,-0.000000
2.100000,-1.569614,-0.849832,-1.454318,2.136137,-0.754334,0.875902,2.295003,1.718270,0.589562,-2.825494,2.680020,-9.639477,-23.897429,-38.570303,-3.908549,0.178903,-0.243947,0.000000,0.113312,0.525079,0.000000
2.110000,-1.548138,-0.857289,-1.445531,2.158941,-0.737024,0.881315,2.265567,1.743161,0.492998,-3.060564,2.299202,-9.669892,-23.273485,-38.104886,-1.729719,0.179833,-0.238535,0.000000,0.072939,0.539594,0.000000
2.120000,-1.526436,-0.864572,-1.436695,2.181440,-0.719483,0.885761,2.233800,1.764228,0.396272,-3.292313,1.913440,-9.670079,-22.906524,-38.509596,1.243972,0.180365,-0.232983,0.000000,0.033649,0.552738,-0.000000
2.130000,-1.504510,-0.871678,-1.427819,2.203610,-0.701752,0.889240,2.199751,1.781475,0.299646,-3.515145,1.540275,-9.654432,-21.646682,-36.087391,1.861061,0.180515,-0.227303,0.000000,-0.003151,0.564401,0.000000
2.140000,-1.482365,-0.878606,-1.418913,2.225428,-0.683866,0.891755,2.163530,1.795086,0.203229,-3.728351,1.181610,-9.624196,-21.149839,-36.149149,4.617893,0.180311,-0.221513,0.000000,-0.037407,0.574620,0.000000
2.150000,-1.460003,-0.885355,-1.409987,2.246873,-0.665862,0.893306,2.125198,1.805096,0.107262,-3.936621,0.822092,-9.566088,-20.334653,-35.216373,6.548658,0.179770,-0.215626,0.000000,-0.070467,0.583650,0.000000
2.160000,-1.437429,-0.891923,-1.401050,2.267925,-0.647776,0.893902,2.084831,1.811579,0.011944,-4.135370,0.476413,-9.494993,-19.482406,-34.183373,8.349928,0.178909,-0.209653,0.000000,-0.101251,0.591453,-0.000000
2.170000,-1.414646,-0.898311,-1.392112,2.288563,-0.629642,0.893548,2.042514,1.814637,-0.082522,-4.326828,0.136160,-9.392993,-18.732404,-33.579697,11.362362,0.177750,-0.203609,0.000000,-0.130354,0.597957,0.000000
2.180000,-1.391659,-0.904516,-1.383182,2.308769,-0.611494,0.892255,1.998328,1.814354,-0.175892,-4.508416,-0.189171,-9.282178,-17.578077,-31.464013,10.764235,0.176310,-0.197506,0.000000,-0.157333,0.603443,0.000000
2.190000,-1.368472,-0.910540,-1.374270,2.328524,-0.593365,0.890034,1.952380,1.810910,-0.268148,-4.679742,-0.498358,-9.164406,-16.754854,-30.635494,13.453704,0.174611,-0.191354,0.000000,-0.182193,0.607950,-0.000000
2.200000,-1.345090,-0.916384,-1.365385,2.347811,-0.575286,0.886897,1.904759,1.804409,-0.359076,-4.842820,-0.799306,-9.019203,-15.785877,-29.268171,14.893207,0.172671,-0.185163,0.000000,-0.205423,0.611357,0.000000
2.210000,-1.321517,-0.922046,-1.356535,2.366614,-0.557287,0.882857,1.855556,1.794977,-0.448516,-4.996132,-1.084820,-8.866814,-14.809385,-27.849996,16.205022,0.170508,-0.178945,0.000000,-0.226757,0.613947,0.000000
2.220000,-1.297759,-0.927530,-1.347730,2.384917,-0.539396,0.877932,1.804875,1.782759,-0.536319,-5.138363,-1.356349,-8.689581,-13.696964,-26.422018,18.606325,0.168142,-0.172708,0.000000,-0.246135,0.615353,-0.000000
2.230000,-1.273821,-0.932835,-1.338979,2.402707,-0.521641,0.872137,1.752820,1.767901,-0.622298,-5.271342,-1.612570,-8.508011,-12.898957,-24.813674,17.671060,0.165591,-0.166464,0.000000,-0.263824,0.616137,-0.000000
2.240000,-1.249707,-0.937963,-1.330290,2.419970,-0.504046,0.865492,1.699478,1.750561,-0.706476,-5.395052,-1.852984,-8.323997,-11.778913,-23.287723,19.738724,0.162871,-0.160216,0.000000,-0.279866,0.616342,-0.000000
2.250000,-1.225423,-0.942916,-1.321672,2.436693,-0.486637,0.858014,1.644957,1.730892,-0.788696,-5.507443,-2.077996,-8.118884,-10.761221,-21.684249,20.644444,0.160000,-0.153975,0.000000,-0.294087,0.615541,0.000000
2.260000,-1.200975,-0.947697,-1.313133,2.452865,-0.469436,0.849725,1.589359,1.709051,-0.868852,-5.610683,-2.287767,-7.911228,-9.752843,-20.075759,21.425243,0.156994,-0.147748,0.000000,-0.306831,0.614237,0.000000
2.270000,-1.176368,-0.952306,-1.304680,2.468477,-0.452463,0.840644,1.532788,1.685206,-0.946851,-5.701273,-2.477692,-7.685606,-8.495651,-18.090922,23.143324,0.153871,-0.141541,0.000000,-0.317523,0.611933,0.000000
2.280000,-1.151607,-0.956747,-1.296323,2.483518,-0.435738,0.830795,1.475361,1.659543,-1.022568,-5.783343,-2.653414,-7.460011,-7.923426,-17.057368,21.942416,0.150648,-0.135364,0.000000,-0.326970,0.609268,0.000000
2.290000,-1.126699,-0.961021,-1.288067,2.497981,-0.419278,0.820200,1.417148,1.632184,-1.096062,-5.857136,-2.815081,-7.236176,-6.705572,-15.089165,23.352863,0.147335,-0.129217,0.000000,-0.335236,0.606280,0.000000
2.300000,-1.101649,-0.965133,-1.279921,2.511859,-0.403099,0.808882,1.358261,1.603311,-1.167234,-5.918603,-2.956775,-6.997890,-5.720710,-13.435825,23.746284,0.143950,-0.123109,0.000000,-0.341627,0.602434,0.000000
2.310000,-1.076464,-0.969084,-1.271892,2.525144,-0.387216,0.796864,1.298801,1.573092,-1.236030,-5.971846,-3.084505,-6.760961,-4.759655,-11.809333,24.037427,0.140506,-0.117043,0.000000,-0.346912,0.598292,0.000000
2.320000,-1.051149,-0.972878,-1.263986,2.537833,-0.371641,0.784169,1.238870,1.541699,-1.302411,-6.012277,-3.190217,-6.513634,-3.494939,-9.628416,25.013202,0.137019,-0.111027,0.000000,-0.350273,0.593332,0.000000
2.330000,-1.025709,-0.976518,-1.256210,2.549921,-0.356385,0.770824,1.178579,1.509327,-1.366315,-6.045280,-3.283283,-6.269381,-3.113916,-8.997017,23.811485,0.133503,-0.105065,0.000000,-0.352722,0.588175,0.000000
2.340000,-1.000152,-0.980007,-1.248572,2.561404,-0.341457,0.756851,1.117986,1.476072,-1.427817,-6.071270,-3.364295,-6.029563,-1.920417,-6.913161,24.543697,0.129967,-0.099158,0.000000,-0.354333,0.582856,0.000000
2.350000,-0.974483,-0.983349,-1.241075,2.572280,-0.326866,0.742275,1.057197,1.442117,-1.486874,-6.085181,-3.424145,-5.782184,-1.032002,-5.356752,24.517159,0.126423,-0.093311,0.000000,-0.354204,0.576827,-0.000000
2.360000,-0.948709,-0.986546,-1.233728,2.582547,-0.312617,0.727122,0.996304,1.407625,-1.543475,-6.092180,-3.471890,-5.538118,-0.177573,-3.850081,24.431673,0.122885,-0.087529,0.000000,-0.353255,0.570633,-0.000000
2.370000,-0.922834,-0.989602,-1.226535,2.592206,-0.298715,0.711414,0.935397,1.372757,-1.597629,-6.087028,-3.498061,-5.292412,1.015348,-1.727225,24.557267,0.119364,-0.081815,0.000000,-0.350631,0.563776,0.000000
2.380000,-0.896867,-0.992521,-1.219501,2.601256,-0.285162,0.695177,0.874582,1.337697,-1.649336,-6.075913,-3.513639,-5.050153,1.197573,-1.405279,23.880862,0.115874,-0.076173,0.000000,-0.347339,0.556825,-0.000000
2.390000,-0.870811,-0.995306,-1.212633,2.609698,-0.271961,0.678435,0.813896,1.302514,-1.698647,-6.059355,-3.519478,-4.812091,2.299603,0.570919,23.866906,0.112419,-0.070603,0.000000,-0.343459,0.549815,0.000000
2.400000,-0.844675,-0.997962,-1.205934,2.617534,-0.259112,0.661212,0.753435,1.267380,-1.745576,-6.031627,-3.505255,-4.574191,3.051903,1.926895,23.562459,0.109011,-0.065109,0.000000,-0.338077,0.542220,-0.000000
2.410000,-0.818463,-1.000490,-1.199410,2.624768,-0.246613,0.643532,0.693280,1.232439,-1.790143,-5.998253,-3.480967,-4.339719,3.770933,3.224822,23.235381,0.105659,-0.059694,0.000000,-0.332079,0.534525,0.000000
2.420000,-0.792181,-1.002895,-1.193065,2.631401,-0.234462,0.625417,0.633506,1.197828,-1.832389,-5.954905,-3.438152,-4.110440,4.746212,5.038093,22.702621,0.102374,-0.054360,0.000000,-0.324762,0.526359,-0.000000
2.430000,-0.765837,-1.005180,-1.186903,2.637439,-0.222655,0.606892,0.574198,1.163703,-1.872360,-5.906525,-3.386501,-3.883927,4.920428,5.274667,22.597895,0.099166,-0.049111,0.000000,-0.316926,0.518118,-0.000000
2.440000,-0.739434,-1.007349,-1.180929,2.642887,-0.211186,0.587978,0.515389,1.130122,-1.910076,-5.853606,-3.326922,-3.660348,5.807574,6.927293,22.025080,0.096037,-0.043947,0.000000,-0.308643,0.509834,-0.000000
2.450000,-0.712981,-1.009405,-1.175145,2.647749,-0.200050,0.568697,0.457158,1.097226,-1.945588,-5.791737,-3.250633,-3.442744,6.412809,8.027769,21.580943,0.092997,-0.038869,0.000000,-0.299195,0.501132,0.000000
2.460000,-0.686481,-1.011351,-1.169556,2.652032,-0.189239,0.549073,0.399569,1.065134,-1.978940,-5.725065,-3.166078,-3.228332,6.990392,9.071594,21.132478,0.090054,-0.033881,0.000000,-0.289265,0.492341,-0.000000
2.470000,-0.659942,-1.013191,-1.164165,2.655743,-0.178744,0.529126,0.342681,1.033954,-2.010184,-5.651349,-3.067566,-3.021667,7.676570,10.430165,20.360164,0.087215,-0.028983,0.000000,-0.278404,0.483270,0.000000
2.480000,-0.633368,-1.014927,-1.158974,2.658888,-0.168556,0.508876,0.286557,1.003806,-2.039382,-5.573128,-2.961678,-2.817769,7.960720,10.732223,20.423433,0.084487,-0.024179,0.000000,-0.267119,0.474106,-0.000000
2.490000,-0.606766,-1.016563,-1.153988,2.661476,-0.158665,0.488345,0.231232,0.974741,-2.066547,-5.490786,-2.849232,-2.616479,8.574860,11.941015,19.671057,0.081874,-0.019467,0.000000,-0.255471,0.464872,0.000000
2.500000,-0.580141,-1.018101,-1.149208,2.663516,-0.149058,0.467552,0.176763,0.946865,-2.091740,-5.402335,-2.724685,-2.422965,9.038665,12.766253,19.194382,0.079381,-0.014851,0.000000,-0.243023,0.455396,0.000000
2.510000,-0.553498,-1.019545,-1.144638,2.665015,-0.139723,0.446516,0.123198,0.920267,-2.115015,-5.309874,-2.593764,-2.232633,9.476007,13.533874,18.726540,0.077014,-0.010331,0.000000,-0.230215,0.445833,0.000000
2.520000,-0.526842,-1.020897,-1.140279,2.665983,-0.130648,0.425258,0.070582,0.895024,-2.136420,-5.212658,-2.453042,-2.049757,9.936312,14.479676,17.991932,0.074779,-0.005908,0.000000,-0.216778,0.436113,0.000000
2.530000,-0.500180,-1.022159,-1.136133,2.666430,-0.121818,0.403794,0.018957,0.871223,-2.156018,-5.111791,-2.306909,-1.869784,10.231900,14.733852,18.008985,0.072680,-0.001584,0.000000,-0.203039,0.426310,-0.000000
2.540000,-0.473515,-1.023334,-1.132203,2.666365,-0.113218,0.382143,-0.031643,0.848901,-2.173823,-5.007579,-2.156093,-1.692403,10.632496,15.542852,17.326600,0.070719,0.002640,0.000000,-0.189050,0.416442,-0.000000
2.550000,-0.446854,-1.024424,-1.128491,2.665800,-0.104835,0.360323,-0.081181,0.828130,-2.189892,-4.899453,-1.997278,-1.521981,10.961650,16.088412,16.903326,0.068901,0.006765,0.000000,-0.174549,0.406448,0.000000
2.560000,-0.420201,-1.025431,-1.124998,2.664745,-0.096650,0.338351,-0.129623,0.808969,-2.204269,-4.788343,-1.834144,-1.354002,11.265236,16.580757,16.510714,0.067229,0.010789,0.000000,-0.159807,0.396395,0.000000
2.570000,-0.393561,-1.026358,-1.121724,2.663212,-0.088650,0.316243,-0.176938,0.791467,-2.217000,-4.674151,-1.665370,-1.193399,11.560109,17.114853,15.793441,0.065706,0.014711,0.000000,-0.144732,0.386259,0.000000
2.580000,-0.366938,-1.027205,-1.118673,2.661211,-0.080815,0.294016,-0.223097,0.775673,-2.228141,-4.557411,-1.493081,-1.034277,11.783266,17.332337,16.040814,0.064335,0.018530,0.000000,-0.129456,0.376080,0.000000
2.590000,-0.340338,-1.027974,-1.115844,2.658754,-0.073130,0.271686,-0.268078,0.761614,-2.237687,-4.438389,-1.317889,-0.876132,12.025964,17.747648,15.411283,0.063117,0.022248,0.000000,-0.114019,0.365872,0.000000
2.600000,-0.313765,-1.028668,-1.113240,2.655853,-0.065577,0.249268,-0.311857,0.749329,-2.245688,-4.317050,-1.138735,-0.724413,12.228943,18.023765,15.118245,0.062055,0.025862,0.000000,-0.098351,0.355614,0.000000
2.610000,-0.287222,-1.029286,-1.110859,2.652521,-0.058138,0.226777,-0.354413,0.738847,-2.252174,-4.193778,-0.957238,-0.572994,12.409633,18.251655,14.876702,0.061150,0.029374,0.000000,-0.082546,0.345339,0.000000
2.620000,-0.260716,-1.029831,-1.108704,2.648769,-0.050794,0.204229,-0.395728,0.730190,-2.257179,-4.069044,-0.774016,-0.429479,12.544656,18.398633,14.117033,0.060404,0.032782,0.000000,-0.066682,0.335059,0.000000
2.630000,-0.234248,-1.030302,-1.106775,2.644610,-0.043528,0.181638,-0.435788,0.723373,-2.260757,-3.942725,-0.589132,-0.284554,12.715653,18.570088,14.882292,0.059817,0.036087,0.000000,-0.050708,0.324777,0.000000
2.640000,-0.207825,-1.030702,-1.105072,2.640057,-0.036321,0.159019,-0.474578,0.718411,-2.262861,-3.815038,-0.403084,-0.137494,12.806522,18.615961,14.247430,0.059390,0.039289,0.000000,-0.034653,0.314511,-0.000000
2.650000,-0.181449,-1.031029,-1.103595,2.635123,-0.029153,0.136386,-0.512087,0.715311,-2.263534,-3.686573,-0.216858,0.002954,12.894135,18.635459,14.135026,0.059124,0.042389,0.000000,-0.018631,0.304273,-0.000000
2.660000,-0.155123,-1.031285,-1.102344,2.629820,-0.022008,0.113753,-0.548306,0.714075,-2.262792,-3.557078,-0.030412,0.145410,12.962741,18.606801,14.070097,0.059018,0.045385,0.000000,-0.002586,0.294062,-0.000000
2.670000,-0.128853,-1.031469,-1.101319,2.624161,-0.014866,0.091135,-0.583229,0.714698,-2.260651,-3.427745,0.154748,0.281773,12.937436,18.454515,13.492144,0.059072,0.048280,0.000000,0.013326,0.283941,-0.000000
2.680000,-0.102641,-1.031582,-1.100521,2.618160,-0.007708,0.068545,-0.616858,0.717168,-2.257144,-3.297622,0.339302,0.421324,13.084770,18.448996,14.432239,0.059284,0.051074,0.000000,0.029218,0.273859,0.000000
2.690000,-0.076491,-1.031623,-1.099948,2.611828,-0.000516,0.045997,-0.649179,0.721481,-2.252209,-3.166876,0.522794,0.564782,13.023161,18.202984,13.978042,0.059656,0.053767,0.000000,0.045065,0.263830,-0.000000
2.700000,-0.050406,-1.031592,-1.099601,2.605180,0.006728,0.023505,-0.680198,0.727614,-2.245869,-3.036911,0.703517,0.703424,13.003522,17.971158,14.041116,0.060185,0.056361,0.000000,0.060693,0.253925,0.000000
2.710000,-0.024389,-1.031488,-1.099478,2.598229,0.014042,0.001084,-0.709917,0.735543,-2.238127,-2.906896,0.881810,0.845282,12.963390,17.685754,14.137817,0.060869,0.058855,0.000000,0.076179,0.244106,0.000000
2.720000,0.001558,-1.031311,-1.099579,2.590986,0.021444,-0.021253,-0.738341,0.745241,-2.228976,-2.778016,1.057127,0.984456,12.840560,17.362635,13.893290,0.061708,0.061252,0.000000,0.091457,0.234436,0.000000
2.730000,0.027430,-1.031059,-1.099903,2.583466,0.028953,-0.043491,-0.765478,0.756673,-2.218424,-2.649492,1.228760,1.127264,12.861660,16.955551,14.678570,0.062698,0.063553,0.000000,0.106512,0.224878,-0.000000
2.740000,0.053226,-1.030732,-1.100448,2.575681,0.036584,-0.065616,-0.791332,0.769802,-2.206415,-2.521496,1.396203,1.274230,12.701956,16.531208,14.524928,0.063837,0.065759,0.000000,0.121314,0.215445,0.000000
2.750000,0.078943,-1.030327,-1.101215,2.567644,0.044354,-0.087614,-0.815915,0.784583,-2.192949,-2.395253,1.559164,1.419484,12.574714,16.046193,14.722397,0.065123,0.067872,0.000000,0.135818,0.206202,0.000000
2.760000,0.104578,-1.029844,-1.102200,2.559367,0.052281,-0.109470,-0.839241,0.800967,-2.178011,-2.270343,1.716841,1.568587,12.421651,15.509036,14.945391,0.066552,0.069893,0.000000,0.149996,0.197139,0.000000
2.770000,0.130130,-1.029281,-1.103404,2.550863,0.060379,-0.131170,-0.861326,0.818903,-2.161582,-2.146728,1.869440,1.717016,12.280441,14.975306,14.894662,0.068122,0.071824,0.000000,0.163850,0.188223,-0.000000
2.780000,0.155595,-1.028636,-1.104823,2.542145,0.068664,-0.152697,-0.882183,0.838334,-2.143655,-2.025173,2.015612,1.869711,12.026284,14.250183,15.651469,0.069828,0.073667,0.000000,0.177305,0.179543,-0.000000
2.790000,0.180972,-1.027907,-1.106457,2.533223,0.077150,-0.174038,-0.901837,0.859192,-2.124171,-1.905921,2.154833,2.027025,11.838130,13.613631,15.660227,0.071667,0.075424,0.000000,0.190329,0.171118,0.000000
2.800000,0.206259,-1.027092,-1.108303,2.524112,0.085852,-0.195175,-0.920308,0.881410,-2.103118,-1.788632,2.287490,2.184247,11.598578,12.882257,15.938151,0.073633,0.077098,0.000000,0.202934,0.162886,-0.000000
2.810000,0.231453,-1.026189,-1.110360,2.514821,0.094783,-0.216095,-0.937620,0.904914,-2.080470,-1.674234,2.412035,2.345762,11.332599,12.096422,16.228592,0.075724,0.078692,0.000000,0.215027,0.154950,-0.000000
2.820000,0.256554,-1.025196,-1.112624,2.505363,0.103954,-0.236779,-0.953797,0.929630,-2.056204,-1.561543,2.529975,2.507569,11.148550,11.408622,16.266294,0.077933,0.080207,0.000000,0.226716,0.147180,0.000000
2.830000,0.281560,-1.024109,-1.115094,2.495749,0.113379,-0.257213,-0.968863,0.955481,-2.030303,-1.452455,2.638472,2.673885,10.663845,10.280760,17.000728,0.080256,0.081646,0.000000,0.237798,0.139759,0.000000
2.840000,0.306469,-1.022927,-1.117768,2.485989,0.123067,-0.277380,-0.982859,0.982365,-2.002709,-1.347252,2.736961,2.844881,10.427431,9.485536,17.063278,0.082686,0.083012,0.000000,0.248234,0.132712,0.000000
2.850000,0.331279,-1.021647,-1.120641,2.476095,0.133029,-0.297262,-0.995815,1.010195,-1.973406,-1.244432,2.827389,3.016271,10.079413,8.516731,17.347263,0.085219,0.084310,0.000000,0.258165,0.125881,0.000000
2.860000,0.355990,-1.020266,-1.123712,2.466077,0.143274,-0.316842,-1.007763,1.038874,-1.942369,-1.145806,2.906636,3.191670,9.707915,7.490621,17.624314,0.087847,0.085541,0.000000,0.267358,0.119439,0.000000
2.870000,0.380601,-1.018781,-1.126977,2.455943,0.153809,-0.336103,-1.018738,1.068306,-1.909573,-1.049734,2.978580,3.367732,9.439802,6.731016,17.688524,0.090565,0.086708,0.000000,0.276121,0.113225,-0.000000
2.880000,0.405109,-1.017188,-1.130433,2.445705,0.164642,-0.355028,-1.028774,1.098402,-1.875001,-0.958405,3.037753,3.547548,8.821071,5.091914,18.274540,0.093367,0.087816,0.000000,0.284017,0.107443,0.000000
2.890000,0.429514,-1.015487,-1.134076,2.435371,0.175779,-0.373597,-1.037924,1.129015,-1.838608,-0.872087,3.083531,3.731062,8.503840,4.219016,18.320187,0.096242,0.088868,0.000000,0.290995,0.102117,0.000000
2.900000,0.453816,-1.013672,-1.137904,2.424949,0.187224,-0.391794,-1.046225,1.160047,-1.800381,-0.788929,3.120634,3.914750,8.060957,3.034082,18.516509,0.099185,0.089868,0.000000,0.297428,0.097062,-0.000000
2.910000,0.478013,-1.011741,-1.141911,2.414449,0.198981,-0.409599,-1.053721,1.191380,-1.760307,-0.711141,3.143967,4.100422,7.594936,1.804192,18.669835,0.102187,0.090821,0.000000,0.302895,0.092481,0.000000
2.920000,0.502105,-1.009691,-1.146094,2.403877,0.211052,-0.426994,-1.060455,1.222899,-1.718364,-0.636152,3.158241,4.288559,7.302595,0.872959,18.896132,0.105241,0.091728,0.000000,0.307801,0.088160,0.000000
2.930000,0.526090,-1.007519,-1.150449,2.393242,0.223439,-0.443960,-1.066465,1.254494,-1.674535,-0.567191,3.157704,4.477056,6.484293,-0.990601,18.795099,0.108340,0.092595,0.000000,0.311632,0.084358,0.000000
2.940000,0.549969,-1.005221,-1.154972,2.382550,0.236142,-0.460478,-1.071821,1.286000,-1.628823,-0.504527,3.141820,4.665444,6.145371,-2.016702,18.931151,0.111470,0.093427,0.000000,0.314324,0.081100,0.000000
2.950000,0.573741,-1.002795,-1.159657,2.371808,0.249159,-0.476530,-1.076565,1.317300,-1.581221,-0.445160,3.115809,4.855055,5.627593,-3.363296,18.927504,0.114624,0.094228,0.000000,0.316334,0.078141,0.000000
2.960000,0.597405,-1.000237,-1.164501,2.361021,0.262487,-0.492096,-1.080745,1.348260,-1.531726,-0.391748,3.073771,5.043753,5.100892,-4.754187,18.871347,0.117792,0.095002,0.000000,0.317118,0.075696,-0.000000
2.970000,0.620962,-0.997544,-1.169498,2.350195,0.276122,-0.507158,-1.084414,1.378753,-1.480343,-0.342734,3.023365,5.232933,4.654482,-5.614833,18.889993,0.120965,0.095754,0.000000,0.317342,0.073647,-0.000000
2.980000,0.644409,-0.994714,-1.174642,2.339334,0.290060,-0.521697,-1.087620,1.408667,-1.427075,-0.299649,2.955439,5.419987,3.960028,-7.981516,18.509190,0.124134,0.096488,0.000000,0.316168,0.072110,-0.000000
2.990000,0.667748,-0.991742,-1.179930,2.328444,0.304293,-0.535693,-1.090427,1.437799,-1.371953,-0.262620,2.869464,5.604252,3.491500,-8.927040,18.400196,0.127283,0.097209,0.000000,0.313514,0.071099,-0.000000
3.000000,0.690978,-0.988627,-1.185354,2.317527,0.318813,-0.549130,-1.092887,1.466031,-1.314993,-0.230226,2.774431,5.787221,2.940193,-10.367252,18.116708,0.130403,0.097923,0.000000,0.310164,0.070507,0.000000
3.010000,0.714099,-0.985365,-1.190910,2.306587,0.333610,-0.561987,-1.095053,1.493229,-1.256227,-0.203983,2.662704,5.965117,2.381256,-11.810012,17.740366,0.133481,0.098633,0.000000,0.305377,0.070445,-0.000000
3.020000,0.737110,-0.981954,-1.196592,2.295626,0.348674,-0.574248,-1.096979,1.519251,-1.195681,-0.181931,2.539786,6.144463,1.958213,-12.935813,17.837154,0.136508,0.099346,0.000000,0.299688,0.070804,-0.000000
3.030000,0.760011,-0.978391,-1.202393,2.284648,0.363991,-0.585895,-1.098713,1.543970,-1.133367,-0.166303,2.400586,6.315740,1.165649,-14.907576,16.397765,0.139470,0.100065,0.000000,0.292501,0.071707,-0.000000
3.040000,0.782803,-0.974673,-1.208308,2.273653,0.379548,-0.596910,-1.100327,1.567207,-1.069399,-0.157175,2.244977,6.477855,0.732089,-16.047214,16.296273,0.142352,0.100796,0.000000,0.283741,0.073164,0.000000
3.050000,0.805484,-0.970799,-1.214329,2.262642,0.395330,-0.607277,-1.101870,1.588835,-1.003808,-0.152249,2.078306,6.639021,0.182430,-17.448246,15.642103,0.145142,0.101544,0.000000,0.273956,0.075051,-0.000000
3.060000,0.828055,-0.966766,-1.220451,2.251615,0.411319,-0.616981,-1.103393,1.608720,-0.936658,-0.153343,1.896390,6.789483,-0.360274,-18.827602,14.882655,0.147826,0.102315,0.000000,0.262599,0.077456,0.000000
3.070000,0.850516,-0.962572,-1.226667,2.240574,0.427498,-0.626006,-1.104951,1.626726,-0.868009,-0.159061,1.702796,6.940517,-0.820088,-19.986036,14.880496,0.150390,0.103112,0.000000,0.250098,0.080368,0.000000
3.080000,0.872867,-0.958215,-1.232969,2.229516,0.443847,-0.634336,-1.106594,1.642727,-0.797897,-0.170513,1.494682,7.077788,-1.469594,-21.633797,12.547901,0.152822,0.103942,0.000000,0.235950,0.083767,-0.000000
3.090000,0.895107,-0.953695,-1.239351,2.218441,0.460345,-0.641959,-1.108381,1.656571,-0.726507,-0.187633,1.272274,7.199959,-1.913293,-22.739851,12.309690,0.155103,0.104809,0.000000,0.220092,0.087644,-0.000000
3.100000,0.917236,-0.949008,-1.245806,2.207348,0.476971,-0.648862,-1.110360,1.668139,-0.653897,-0.209054,1.039178,7.320039,-2.407182,-23.972165,11.260278,0.157220,0.105718,0.000000,0.202987,0.092012,0.000000
3.110000,0.939254,-0.944155,-1.252326,2.196233,0.493700,-0.655034,-1.112578,1.677313,-0.580161,-0.235382,0.793627,7.425111,-2.878856,-25.145734,10.124947,0.159158,0.106674,0.000000,0.184225,0.096813,0.000000
3.120000,0.961160,-0.939134,-1.258904,2.185095,0.510509,-0.660462,-1.115085,1.683972,-0.505403,-0.266783,0.536296,7.525827,-3.375154,-26.294432,9.635659,0.160900,0.107681,0.000000,0.163965,0.102182,0.000000
3.130000,0.982955,-0.933944,-1.265533,2.173930,0.527371,-0.665138,-1.117927,1.688003,-0.429703,-0.302335,0.268283,7.609807,-3.730889,-27.297099,7.137775,0.162431,0.108745,0.000000,0.142060,0.107919,-0.000000
3.140000,1.004639,-0.928586,-1.272204,2.162735,0.544259,-0.669054,-1.121144,1.689304,-0.353269,-0.341785,-0.009750,7.675878,-4.177943,-28.314068,6.440628,0.163735,0.109869,0.000000,0.118486,0.113993,0.000000
3.150000,1.026210,-0.923059,-1.278911,2.151506,0.561147,-0.672202,-1.124778,1.687775,-0.276201,-0.385615,-0.297619,7.735231,-4.560767,-29.231052,5.046524,0.164796,0.111058,0.000000,0.093366,0.120579,0.000000
3.160000,1.047669,-0.917363,-1.285646,2.140238,0.578005,-0.674576,-1.128867,1.683320,-0.198631,-0.432695,-0.594826,7.776035,-4.911166,-30.083117,3.566290,0.165597,0.112315,0.000000,0.066497,0.127450,-0.000000
3.170000,1.069015,-0.911499,-1.292400,2.128927,0.594804,-0.676173,-1.133448,1.675861,-0.120693,-0.484295,-0.897940,7.810611,-5.345392,-30.636790,2.893484,0.166122,0.113644,0.000000,0.038340,0.134873,0.000000
3.180000,1.090247,-0.905468,-1.299166,2.117568,0.611512,-0.676989,-1.138560,1.665332,-0.042492,-0.538275,-1.209603,7.824357,-5.443471,-31.683777,-0.166053,0.166357,0.115050,0.000000,0.008347,0.142482,0.000000
3.190000,1.111366,-0.899269,-1.305937,2.106154,0.628100,-0.677023,-1.144220,1.651642,0.035717,-0.594239,-1.529040,7.816182,-5.802936,-32.074419,-1.024707,0.166283,0.116534,0.000000,-0.023495,0.150220,0.000000
3.200000,1.132370,-0.892906,-1.312704,2.094681,0.644534,-0.676275,-1.150458,1.634742,0.113813,-0.653720,-1.851711,7.799900,-6.028609,-32.554079,-2.687456,0.165884,0.118098,0.000000,-0.056568,0.158401,0.000000
3.210000,1.153259,-0.886379,-1.319460,2.083143,0.660784,-0.674748,-1.157295,1.614607,0.191640,-0.713890,-2.175459,7.762479,-6.200553,-32.844898,-4.399474,0.165147,0.119746,0.000000,-0.090913,0.166584,-0.000000
3.220000,1.174033,-0.879691,-1.326197,2.071533,0.676816,-0.672444,-1.164757,1.591171,0.269037,-0.779461,-2.514379,7.715524,-6.712548,-34.272499,-5.385914,0.164056,0.121479,0.000000,-0.127812,0.175383,0.000000
3.230000,1.194690,-0.872844,-1.332906,2.059846,0.692596,-0.669369,-1.172879,1.564346,0.345874,-0.843919,-2.846929,7.646496,-6.166748,-32.198032,-8.434567,0.162589,0.123300,0.000000,-0.165337,0.183976,-0.000000
3.240000,1.215229,-0.865840,-1.339581,2.048074,0.708092,-0.665529,-1.181628,1.534266,0.421888,-0.906621,-3.171053,7.554689,-6.564304,-33.260877,-9.534220,0.160748,0.125206,0.000000,-0.203278,0.192259,0.000000
3.250000,1.235651,-0.858683,-1.346214,2.036211,0.723270,-0.660934,-1.191029,1.500877,0.496940,-0.973405,-3.506196,7.452442,-6.589806,-33.095936,-11.307967,0.158515,0.127198,0.000000,-0.243460,0.200978,0.000000
3.260000,1.255953,-0.851376,-1.352798,2.024251,0.738098,-0.655594,-1.201089,1.464183,0.570862,-1.038501,-3.831612,7.328862,-6.573077,-32.763929,-13.089472,0.155879,0.129275,0.000000,-0.283912,0.209372,-0.000000
3.270000,1.276135,-0.843922,-1.359324,2.012187,0.752543,-0.649521,-1.211810,1.424193,0.643483,-1.106119,-4.168404,7.193611,-6.798570,-33.801572,-14.266408,0.152828,0.131437,0.000000,-0.326683,0.217990,0.000000
3.280000,1.296196,-0.836327,-1.365786,2.000012,0.766571,-0.642729,-1.223202,1.380868,0.714661,-1.171291,-4.491017,7.037126,-6.224953,-30.677218,-17.036317,0.149346,0.133685,0.000000,-0.369217,0.226150,0.000000
3.290000,1.316135,-0.828593,-1.372176,1.987721,0.780150,-0.635234,-1.235224,1.334433,0.784152,-1.233435,-4.797196,6.859213,-6.344501,-31.319457,-18.229597,0.145446,0.136009,0.000000,-0.411182,0.233740,0.000000
3.300000,1.335950,-0.820725,-1.378488,1.975306,0.793249,-0.627052,-1.247877,1.284887,0.851813,-1.296809,-5.110398,6.670015,-6.177532,-30.523645,-19.913393,0.141116,0.138410,0.000000,-0.454886,0.241329,-0.000000
3.310000,1.355641,-0.812729,-1.384715,1.962761,0.805837,-0.618204,-1.261143,1.232272,0.917494,-1.355904,-5.411100,6.463572,-5.948268,-29.657889,-21.515145,0.136350,0.140881,0.000000,-0.498243,0.248197,0.000000
3.320000,1.375205,-0.804610,-1.390850,1.950081,0.817885,-0.608710,-1.275012,1.176690,0.981020,-1.418535,-5.703735,6.238530,-6.268647,-28.792922,-23.339774,0.131150,0.143421,0.000000,-0.541663,0.255132,-0.000000
3.330000,1.394642,-0.796373,-1.396887,1.937259,0.829362,-0.598591,-1.289491,1.118234,1.042221,-1.474787,-5.985381,6.000004,-4.966746,-27.516494,-24.349805,0.125518,0.146025,0.000000,-0.584617,0.261088,0.000000
3.340000,1.413950,-0.788025,-1.402820,1.924289,0.840240,-0.587873,-1.304482,1.057024,1.100979,-1.523907,-6.254880,5.748859,-5.158561,-26.424156,-26.012000,0.119461,0.148680,0.000000,-0.626834,0.265936,0.000000
3.350000,1.433127,-0.779571,-1.408643,1.911168,0.850493,-0.576580,-1.319982,0.993173,1.157140,-1.575256,-6.513014,5.481261,-4.800664,-25.127574,-27.349434,0.112984,0.151382,0.000000,-0.668325,0.270610,-0.000000
3.360000,1.452173,-0.771017,-1.414350,1.897888,0.860095,-0.564740,-1.335967,0.926827,1.210578,-1.621228,-6.753459,5.204623,-4.429836,-23.654323,-28.545926,0.106100,0.154123,0.000000,-0.708106,0.274343,0.000000
3.370000,1.471085,-0.762371,-1.419936,1.884447,0.869022,-0.552378,-1.352397,0.858097,1.261147,-1.664139,-6.992302,4.905287,-4.108941,-23.410075,-30.740153,0.098820,0.156896,0.000000,-0.748004,0.277107,0.000000
3.380000,1.489861,-0.753639,-1.425396,1.870839,0.877250,-0.539527,-1.369234,0.787067,1.308675,-1.702503,-7.206900,4.602013,-3.558782,-19.473084,-29.880394,0.091150,0.159690,0.000000,-0.785039,0.279019,-0.000000
3.390000,1.508501,-0.744829,-1.430725,1.857061,0.884757,-0.526215,-1.386430,0.714052,1.353185,-1.736038,-7.395401,4.296583,-3.184381,-18.908173,-31.759110,0.083131,0.162497,0.000000,-0.818791,0.280052,-0.000000
3.400000,1.527002,-0.735947,-1.435918,1.843109,0.891524,-0.512474,-1.403943,0.639163,1.394533,-1.765788,-7.578893,3.972033,-2.723133,-17.084532,-32.563616,0.074776,0.165307,0.000000,-0.851683,0.279970,-0.000000
3.410000,1.545362,-0.727001,-1.440973,1.828981,0.897534,-0.498335,-1.421734,0.562570,1.432625,-1.791657,-7.736163,3.645459,-2.267048,-15.144598,-33.237408,0.066110,0.168109,0.000000,-0.880912,0.279053,0.000000
3.420000,1.563581,-0.717998,-1.445884,1.814674,0.902771,-0.483832,-1.439746,0.484442,1.467381,-1.809420,-7.888808,3.303026,-1.457736,-14.611022,-34.740628,0.057160,0.170894,0.000000,-0.908932,0.276515,0.000000
3.430000,1.581655,-0.708948,-1.450648,1.800186,0.907218,-0.468999,-1.457914,0.404897,1.498691,-1.824433,-8.012171,2.961308,-1.548011,-10.029309,-33.568181,0.047947,0.173647,0.000000,-0.932570,0.273279,-0.000000
3.440000,1.599584,-0.699857,-1.455263,1.785515,0.910865,-0.453870,-1.476228,0.324307,1.526619,-1.836797,-8.104686,2.622160,-0.746166,-9.237688,-34.735517,0.038525,0.176364,0.000000,-0.951487,0.269398,0.000000
3.450000,1.617365,-0.690733,-1.459725,1.770661,0.913701,-0.438478,-1.494619,0.242813,1.551086,-1.840810,-8.190263,2.271193,-0.230680,-7.104265,-34.944765,0.028922,0.179033,0.000000,-0.968453,0.263898,0.000000
3.460000,1.634996,-0.681585,-1.464032,1.755623,0.915719,-0.422860,-1.513025,0.160587,1.572061,-1.839180,-8.251410,1.923834,0.332424,-5.007712,-35.007724,0.019171,0.181641,0.000000,-0.981225,0.257417,-0.000000
3.470000,1.652477,-0.672422,-1.468181,1.740400,0.916912,-0.407049,-1.531402,0.077864,1.589522,-1.836211,-8.289315,1.566837,0.482222,-2.682459,-35.885200,0.009312,0.184180,0.000000,-0.989892,0.250184,-0.000000
3.480000,1.669804,-0.663250,-1.472172,1.724995,0.917275,-0.391081,-1.549719,-0.005134,1.603424,-1.824903,-8.307368,1.216748,1.787309,-0.931362,-34.096979,-0.000615,0.186641,0.000000,-0.994764,0.241748,0.000000
3.490000,1.686976,-0.654079,-1.476003,1.709407,0.916809,-0.374992,-1.567870,-0.088218,1.613891,-1.804887,-8.305712,0.875467,1.995019,1.373126,-34.629673,-0.010571,0.189011,0.000000,-0.995873,0.232138,0.000000
3.500000,1.703991,-0.644917,-1.479672,1.693638,0.915511,-0.358815,-1.585815,-0.171169,1.620907,-1.783118,-8.280899,0.528727,2.580490,3.474944,-34.208692,-0.020518,0.191282,0.000000,-0.992793,0.221877,-0.000000
3.510000,1.720848,-0.635771,-1.483179,1.677691,0.913386,-0.342585,-1.603504,-0.253771,1.624512,-1.753457,-8.236220,0.193710,3.172012,5.551378,-33.606830,-0.030415,0.193446,0.000000,-0.985981,0.210666,-0.000000
3.520000,1.737545,-0.626652,-1.486523,1.661569,0.910438,-0.326336,-1.620879,-0.335817,1.624735,-1.721339,-8.169102,-0.150675,3.424923,7.774342,-34.443922,-0.040224,0.195495,0.000000,-0.975110,0.198693,0.000000
3.530000,1.754079,-0.617565,-1.489706,1.645275,0.906673,-0.310102,-1.637903,-0.417090,1.621562,-1.681323,-8.082800,-0.477847,4.582380,9.475785,-30.947029,-0.049906,0.197421,0.000000,-0.960754,0.185974,-0.000000
3.540000,1.770450,-0.608521,-1.492726,1.628812,0.902099,-0.293915,-1.654478,-0.497411,1.615250,-1.633246,-7.977885,-0.785586,4.855473,11.591354,-31.398014,-0.059428,0.199217,0.000000,-0.943162,0.172596,0.000000
3.550000,1.786655,-0.599526,-1.495584,1.612187,0.896728,-0.277807,-1.670563,-0.576576,1.605818,-1.582764,-7.851954,-1.098546,5.413749,13.491844,-30.365130,-0.068757,0.200877,0.000000,-0.921999,0.158685,-0.000000
3.560000,1.802693,-0.590589,-1.498282,1.595403,0.890572,-0.261809,-1.686110,-0.654419,1.593347,-1.525852,-7.714306,-1.393531,5.946666,15.203065,-29.220771,-0.077862,0.202397,0.000000,-0.898677,0.144363,0.000000
3.570000,1.818562,-0.581717,-1.500821,1.578467,0.883645,-0.245950,-1.701064,-0.730711,1.577938,-1.464071,-7.537301,-1.688224,6.424471,19.044625,-29.117154,-0.086710,0.203771,0.000000,-0.869925,0.129437,0.000000
3.580000,1.834262,-0.572918,-1.503202,1.561384,0.875964,-0.230260,-1.715374,-0.805164,1.559652,-1.397054,-7.357625,-1.963291,6.975392,16.842351,-25.864925,-0.095259,0.204995,0.000000,-0.840431,0.114369,0.000000
3.590000,1.849789,-0.564200,-1.505427,1.544161,0.867547,-0.214765,-1.728988,-0.877871,1.538748,-1.325023,-7.177611,-2.217139,7.407532,20.300225,-25.485123,-0.103518,0.206069,0.000000,-0.810654,0.099268,0.000000
3.600000,1.865144,-0.555570,-1.507498,1.526807,0.858413,-0.199493,-1.741861,-0.948576,1.515310,-1.248845,-6.961667,-2.467749,7.841293,21.726587,-24.036317,-0.111455,0.206989,0.000000,-0.776372,0.083840,0.000000
3.610000,1.880325,-0.547034,-1.509417,1.509327,0.848583,-0.184467,-1.753970,-1.017055,1.489459,-1.172810,-6.730932,-2.699783,8.153607,23.271487,-22.547667,-0.119040,0.207758,0.000000,-0.740406,0.068976,-0.000000
3.620000,1.895331,-0.538600,-1.511188,1.491730,0.838080,-0.169711,-1.765243,-1.083237,1.461350,-1.078582,-6.506969,-2.920254,9.916608,22.607364,-21.358795,-0.126268,0.208371,0.000000,-0.705356,0.052449,-0.000000
3.630000,1.910159,-0.530275,-1.512812,1.474025,0.826926,-0.155247,-1.775568,-1.147096,1.431114,-0.990753,-6.255976,-3.123038,7.619878,27.609114,-19.186717,-0.133137,0.208821,0.000000,-0.667458,0.037240,-0.000000
3.640000,1.924811,-0.522064,-1.514294,1.456221,0.815147,-0.141096,-1.785090,-1.208256,1.398951,-0.910716,-5.977410,-3.307539,9.159539,26.974310,-17.891276,-0.139607,0.209129,0.000000,-0.626834,0.023518,0.000000
3.650000,1.939284,-0.513974,-1.515635,1.438326,0.802770,-0.127274,-1.793715,-1.266693,1.365003,-0.814266,-5.707422,-3.479246,9.350561,28.112308,-16.265836,-0.145681,0.209289,0.000000,-0.587722,0.008438,-0.000000
3.660000,1.953577,-0.506011,-1.516841,1.420350,0.789822,-0.113801,-1.801382,-1.322382,1.329421,-0.718868,-5.430000,-3.634636,9.578068,28.889583,-14.656457,-0.151361,0.209302,0.000000,-0.548379,-0.005931,-0.000000
3.670000,1.967690,-0.498179,-1.517913,1.402302,0.776332,-0.100691,-1.808097,-1.375144,1.292377,-0.624134,-5.115886,-3.770935,9.504913,32.419806,-12.753753,-0.156634,0.209172,0.000000,-0.505666,-0.019569,0.000000
3.680000,1.981623,-0.490486,-1.518856,1.384191,0.762330,-0.087958,-1.813852,-1.424750,1.254049,-0.525909,-4.813362,-3.892883,10.139676,28.017346,-11.642104,-0.161483,0.208906,0.000000,-0.465041,-0.033050,-0.000000
3.690000,1.995374,-0.482934,-1.519673,1.366028,0.747847,-0.075614,-1.818602,-1.471472,1.214565,-0.424285,-4.525758,-4.000777,10.038052,30.989568,-9.787493,-0.165944,0.208503,0.000000,-0.426863,-0.046368,0.000000
3.700000,2.008943,-0.475530,-1.520369,1.347823,0.732911,-0.063670,-1.822345,-1.515134,1.174098,-0.324038,-4.206786,-4.089990,10.148614,31.281614,-8.210849,-0.170008,0.207969,0.000000,-0.386116,-0.058895,0.000000
3.710000,2.022330,-0.468278,-1.520948,1.329585,0.717554,-0.052134,-1.825074,-1.555680,1.132803,-0.221508,-3.903449,-4.166710,10.234367,31.329527,-6.701302,-0.173677,0.207308,0.000000,-0.347930,-0.071186,-0.000000
3.720000,2.035535,-0.461180,-1.521413,1.311325,0.701808,-0.041016,-1.826783,-1.593044,1.090849,-0.120535,-3.562516,-4.220110,10.069915,34.933300,-4.409095,-0.176953,0.206527,0.000000,-0.306687,-0.082589,0.000000
3.730000,2.048557,-0.454243,-1.521770,1.293052,0.685705,-0.030319,-1.827478,-1.627023,1.048430,-0.017802,-3.245141,-4.263935,10.475168,28.465137,-4.376614,-0.179824,0.205631,0.000000,-0.268841,-0.093791,-0.000000
3.740000,2.061396,-0.447467,-1.522021,1.274778,0.669277,-0.020049,-1.827132,-1.658052,1.005596,0.086549,-2.954994,-4.299216,10.274219,31.472342,-2.259508,-0.182344,0.204620,0.000000,-0.234685,-0.104808,0.000000
3.750000,2.074052,-0.440858,-1.522172,1.256513,0.652554,-0.010208,-1.825757,-1.685981,0.962525,0.188558,-2.632317,-4.312938,10.238141,31.132338,-0.920975,-0.184506,0.203503,0.000000,-0.198012,-0.114943,0.000000
3.760000,2.086526,-0.434417,-1.522227,1.238267,0.635568,-0.000798,-1.823374,-1.710717,0.919358,0.287553,-2.314268,-4.318623,10.103128,31.000558,0.326323,-0.186308,0.202284,0.000000,-0.162555,-0.124447,0.000000
3.770000,2.098818,-0.428147,-1.522189,1.220049,0.618350,0.008179,-1.819966,-1.732391,0.876238,0.395557,-2.026017,-4.301535,10.961796,28.059167,2.545059,-0.187774,0.200968,0.000000,-0.131280,-0.134290,-0.000000
3.780000,2.110927,-0.422051,-1.522065,1.201871,0.600930,0.016727,-1.815493,-1.751179,0.833341,0.495544,-1.723472,-4.279187,9.014664,32.483231,1.896906,-0.188930,0.199554,0.000000,-0.099046,-0.143065,0.000000
3.790000,2.122855,-0.416129,-1.521856,1.183742,0.583337,0.024847,-1.810090,-1.766797,0.790663,0.586509,-1.405321,-4.252981,9.710418,29.701405,3.873650,-0.189750,0.198059,0.000000,-0.065694,-0.150725,0.000000
3.800000,2.134602,-0.410385,-1.521569,1.165672,0.565604,0.032542,-1.803728,-1.779412,0.748358,0.685125,-1.117473,-4.206544,9.474349,29.288079,4.863053,-0.190260,0.196483,0.000000,-0.036389,-0.158690,0.000000
3.810000,2.146169,-0.404818,-1.521207,1.147671,0.547759,0.039816,-1.796401,-1.789146,0.706538,0.780002,-0.830739,-4.156414,9.276317,28.654231,5.748930,-0.190479,0.194829,0.000000,-0.007647,-0.166130,0.000000
3.820000,2.157556,-0.399430,-1.520774,1.129747,0.529831,0.046674,-1.788153,-1.795999,0.665307,0.868552,-0.539010,-4.086305,8.645453,29.094627,7.680478,-0.190412,0.193103,0.000000,0.020887,-0.172466,0.000000
3.830000,2.168764,-0.394221,-1.520275,1.111911,0.511848,0.053124,-1.779028,-1.799977,0.624810,0.957364,-0.261363,-4.015229,9.120898,26.407848,6.504444,-0.190067,0.191316,0.000000,0.047619,-0.178788,-0.000000
3.840000,2.179795,-0.389193,-1.519713,1.094170,0.493840,0.059173,-1.769003,-1.801282,0.584996,1.046568,0.000877,-3.944719,8.500359,26.625962,8.171325,-0.189467,0.189462,0.000000,0.072497,-0.185143,-0.000000
3.850000,2.190648,-0.384344,-1.519093,1.076534,0.475832,0.064827,-1.758122,-1.799940,0.545984,1.129167,0.265977,-3.857014,8.232748,25.796011,8.773437,-0.188617,0.187549,0.000000,0.097118,-0.190478,0.000000
3.860000,2.201326,-0.379676,-1.518418,1.059010,0.457850,0.070095,-1.746425,-1.795998,0.507853,1.209704,0.521113,-3.768318,7.930457,24.992930,9.303208,-0.187529,0.185584,0.000000,0.120499,-0.195594,-0.000000
3.870000,2.211829,-0.375187,-1.517692,1.041608,0.439920,0.074987,-1.733934,-1.789564,0.470662,1.288269,0.763590,-3.667969,7.724006,23.723230,10.416513,-0.186214,0.183569,0.000000,0.142202,-0.200307,0.000000
3.880000,2.222158,-0.370877,-1.516919,1.024334,0.422066,0.079512,-1.720673,-1.780744,0.434493,1.362961,1.000223,-3.567323,7.210842,23.606181,9.691105,-0.184687,0.181509,0.000000,0.163181,-0.204653,-0.000000
3.890000,2.232316,-0.366746,-1.516103,1.007197,0.404313,0.083680,-1.706689,-1.769577,0.399310,1.433593,1.231072,-3.467512,6.971081,22.332221,10.602232,-0.182952,0.179406,0.000000,0.183489,-0.208640,-0.000000
3.900000,2.242303,-0.362791,-1.515247,0.990203,0.386682,0.087502,-1.692008,-1.756171,0.365179,1.501869,1.448738,-3.358391,6.625843,21.425270,10.870830,-0.181023,0.177266,0.000000,0.202217,-0.212265,0.000000
3.910000,2.252120,-0.359011,-1.514354,0.973359,0.369197,0.090987,-1.676663,-1.740622,0.332139,1.566542,1.659580,-3.249494,6.281144,20.513432,11.080606,-0.178910,0.175092,0.000000,0.220215,-0.215583,-0.000000
3.920000,2.261770,-0.355406,-1.513428,0.956671,0.351877,0.094148,-1.660691,-1.723028,0.300210,1.627253,1.856870,-3.135301,5.884138,19.163770,11.572475,-0.176624,0.172886,0.000000,0.236734,-0.218467,0.000000
3.930000,2.271254,-0.351973,-1.512472,0.940147,0.334742,0.096996,-1.644129,-1.703505,0.269429,1.684710,2.047465,-3.021925,5.607375,18.960838,11.088338,-0.174177,0.170654,0.000000,0.252595,-0.221104,0.000000
3.940000,2.280574,-0.348711,-1.511489,0.923791,0.317813,0.099541,-1.627008,-1.682099,0.239765,1.738909,2.231597,-2.910141,5.207936,17.641693,11.437900,-0.171574,0.168397,0.000000,0.267849,-0.223509,-0.000000
3.950000,2.289731,-0.345616,-1.510482,0.907608,0.301106,0.101795,-1.609365,-1.658923,0.211241,1.789067,2.402183,-2.794837,4.847599,16.697602,11.437687,-0.168825,0.166119,0.000000,0.281721,-0.225520,0.000000
3.960000,2.298727,-0.342688,-1.509454,0.891605,0.284640,0.103769,-1.591237,-1.634078,0.183862,1.835976,2.565234,-2.680999,4.490202,15.756174,11.395650,-0.165941,0.163822,0.000000,0.294911,-0.227304,0.000000
3.970000,2.307563,-0.339923,-1.508408,0.875785,0.268430,0.105476,-1.572661,-1.607662,0.157624,1.878469,2.715872,-2.566392,4.051323,14.523879,11.448371,-0.162931,0.161511,0.000000,0.306912,-0.228710,0.000000
3.980000,2.316243,-0.337318,-1.507346,0.860153,0.252492,0.106925,-1.553677,-1.579785,0.132527,1.917905,2.858914,-2.453645,3.837574,14.090228,11.092674,-0.159805,0.159187,0.000000,0.318256,-0.229918,-0.000000
3.990000,2.324767,-0.334872,-1.506270,0.844713,0.236839,0.108130,-1.534312,-1.550507,0.108543,1.954367,2.994624,-2.343223,3.412334,12.899613,11.057814,-0.156568,0.156854,0.000000,0.328982,-0.230942,0.000000
4.000000,2.333138,-0.332581,-1.505184,0.829468,0.221486,0.109100,-1.514605,-1.519935,0.085663,1.986531,3.118237,-2.233200,3.064277,11.977352,10.870576,-0.153230,0.154513,0.000000,0.338597,-0.231622,0.000000
4.010000,2.341357,-0.330441,-1.504089,0.814422,0.206444,0.109847,-1.494591,-1.488166,0.063873,2.015712,3.234201,-2.125087,2.723949,11.071680,10.668758,-0.149798,0.152167,0.000000,0.347569,-0.232110,0.000000
4.020000,2.349427,-0.328451,-1.502987,0.799577,0.191726,0.110381,-1.474306,-1.455293,0.043147,2.040581,3.338371,-2.020632,2.298278,9.905678,10.294943,-0.146282,0.149819,0.000000,0.355519,-0.232301,0.000000
4.030000,2.357349,-0.326605,-1.501882,0.784936,0.177342,0.110713,-1.453788,-1.421422,0.023456,2.062696,3.435324,-1.917654,2.127385,9.491626,10.299618,-0.142690,0.147471,0.000000,0.362868,-0.232312,0.000000
4.040000,2.365126,-0.324903,-1.500774,0.770502,0.163301,0.110854,-1.433060,-1.386609,0.004790,2.082195,3.525395,-1.816248,1.725974,8.382698,9.901638,-0.139026,0.145125,0.000000,0.369651,-0.232159,0.000000
4.050000,2.372760,-0.323338,-1.499665,0.756276,0.149612,0.110812,-1.412159,-1.350954,-0.012884,2.097652,3.604241,-1.719021,1.414398,7.531420,9.618834,-0.135300,0.142784,0.000000,0.375477,-0.231735,0.000000
4.060000,2.380253,-0.321909,-1.498558,0.742259,0.136284,0.110599,-1.391115,-1.314546,-0.029595,2.110602,3.676031,-1.623526,1.115756,6.702302,9.334537,-0.131518,0.140448,0.000000,0.380721,-0.231154,0.000000
4.070000,2.387606,-0.320611,-1.497454,0.728454,0.123324,0.110223,-1.369961,-1.277471,-0.045376,2.119435,3.737177,-1.533686,0.712126,5.653427,8.771439,-0.127689,0.138121,0.000000,0.385079,-0.230309,0.000000
4.080000,2.394822,-0.319441,-1.496354,0.714860,0.110737,0.109695,-1.348733,-1.239823,-0.060272,2.126130,3.791752,-1.445195,0.630515,5.268661,8.929893,-0.123819,0.135805,0.000000,0.388891,-0.229331,-0.000000
4.090000,2.401904,-0.318395,-1.495261,0.701479,0.098529,0.109021,-1.327445,-1.201655,-0.074283,2.130875,3.840119,-1.357926,0.260205,4.283491,8.382404,-0.119913,0.133500,0.000000,0.392190,-0.228235,0.000000
4.100000,2.408853,-0.317470,-1.494174,0.688312,0.086705,0.108212,-1.306129,-1.163056,-0.087452,2.131882,3.878547,-1.276362,0.002903,3.529651,8.070432,-0.115978,0.131208,0.000000,0.394660,-0.226902,0.000000
4.110000,2.415671,-0.316660,-1.493097,0.675357,0.075269,0.107275,-1.284812,-1.124105,-0.099815,2.131008,3.910419,-1.196497,-0.237803,2.794527,7.763318,-0.112021,0.128931,0.000000,0.396580,-0.225458,0.000000
4.120000,2.422361,-0.315963,-1.492029,0.662615,0.064224,0.106218,-1.263521,-1.084876,-0.111404,2.126645,3.934015,-1.122387,-0.576397,1.980213,7.194921,-0.108049,0.126671,0.000000,0.397822,-0.223793,-0.000000
4.130000,2.428924,-0.315374,-1.490973,0.650086,0.053572,0.105049,-1.242284,-1.045446,-0.122266,2.120705,3.951189,-1.049735,-0.607612,1.459909,7.340235,-0.104066,0.124429,0.000000,0.398513,-0.222036,0.000000
4.140000,2.435363,-0.314890,-1.489929,0.637769,0.043315,0.103775,-1.221111,-1.005872,-0.132402,2.113393,3.962233,-0.978322,-0.909590,0.699996,6.805766,-0.100080,0.122207,0.000000,0.398678,-0.220203,0.000000
4.150000,2.441680,-0.314507,-1.488898,0.625664,0.033455,0.102403,-1.200028,-0.966227,-0.141853,2.103039,3.965710,-0.912436,-1.102308,0.051656,6.509379,-0.096095,0.120004,0.000000,0.398214,-0.218179,0.000000
4.160000,2.447877,-0.314220,-1.487881,0.613768,0.023991,0.100940,-1.179054,-0.926577,-0.150654,2.091400,3.963322,-0.848012,-1.279530,-0.572090,6.227254,-0.092117,0.117823,0.000000,0.397241,-0.216083,-0.000000
4.170000,2.453956,-0.314025,-1.486879,0.602082,0.014923,0.099392,-1.158210,-0.886985,-0.158835,2.076975,3.953916,-0.789238,-1.548758,-1.260111,5.673600,-0.088152,0.115665,0.000000,0.395680,-0.213814,0.000000
4.180000,2.459919,-0.313920,-1.485893,0.590604,0.006251,0.097765,-1.137517,-0.847516,-0.166441,2.061610,3.939148,-0.731473,-1.520392,-1.688032,5.885503,-0.084205,0.113530,0.000000,0.393645,-0.211496,0.000000
4.190000,2.465769,-0.313899,-1.484924,0.579331,-0.002028,0.096065,-1.116980,-0.808219,-0.173466,2.045509,3.919317,-0.674427,-1.752655,-2.320144,5.379049,-0.080281,0.111420,0.000000,0.391161,-0.209146,0.000000
4.200000,2.471507,-0.313959,-1.483972,0.568264,-0.009914,0.094298,-1.096616,-0.769152,-0.179949,2.027058,3.893213,-0.622618,-1.879714,-2.851176,5.130195,-0.076384,0.109334,0.000000,0.388141,-0.206650,0.000000
4.210000,2.477135,-0.314096,-1.483038,0.557398,-0.017412,0.092468,-1.076441,-0.730370,-0.185920,2.007875,3.862336,-0.571947,-1.993231,-3.357389,4.894599,-0.072519,0.107275,0.000000,0.384695,-0.204120,0.000000
4.220000,2.482655,-0.314306,-1.482123,0.546734,-0.024523,0.090581,-1.056465,-0.691925,-0.191405,1.986881,3.825802,-0.525711,-2.166285,-3.909447,4.462057,-0.068692,0.105241,0.000000,0.380756,-0.201483,-0.000000
4.230000,2.488070,-0.314585,-1.481227,0.536268,-0.031251,0.088641,-1.036704,-0.653868,-0.196437,1.965371,3.784983,-0.480409,-2.132606,-4.249225,4.603629,-0.064906,0.103235,0.000000,0.376430,-0.198827,-0.000000
4.240000,2.493381,-0.314930,-1.480350,0.525999,-0.037602,0.086654,-1.017159,-0.616238,-0.201014,1.943515,3.740167,-0.435781,-2.274213,-4.746571,4.215047,-0.061164,0.101256,0.000000,0.371740,-0.196164,0.000000
4.250000,2.498591,-0.315336,-1.479494,0.515924,-0.043578,0.084623,-0.997839,-0.579082,-0.205168,1.920237,3.690439,-0.395145,-2.341306,-5.158612,4.022122,-0.057472,0.099305,0.000000,0.366615,-0.193421,0.000000
4.260000,2.503700,-0.315800,-1.478658,0.506042,-0.049185,0.082552,-0.978754,-0.542441,-0.208919,1.896690,3.637025,-0.355433,-2.396191,-5.546556,3.842129,-0.053833,0.097382,0.000000,0.361154,-0.190678,0.000000
4.270000,2.508712,-0.316319,-1.477843,0.496349,-0.054428,0.080445,-0.959910,-0.506356,-0.212289,1.872073,3.579345,-0.319001,-2.496414,-5.960215,3.523631,-0.050250,0.095486,0.000000,0.355308,-0.187876,0.000000
4.280000,2.513628,-0.316888,-1.477049,0.486843,-0.059314,0.078307,-0.941313,-0.470865,-0.215301,1.847405,3.518433,-0.283296,-2.434777,-6.217413,3.621605,-0.046728,0.093619,0.000000,0.349163,-0.185092,0.000000
4.290000,2.518450,-0.317504,-1.476277,0.477522,-0.063848,0.076141,-0.922961,-0.435997,-0.217956,1.822823,3.454558,-0.248103,-2.509181,-6.579529,3.340448,-0.043268,0.091780,0.000000,0.342744,-0.182334,0.000000
4.300000,2.523179,-0.318163,-1.475526,0.468383,-0.068036,0.073949,-0.904859,-0.401786,-0.220274,1.797500,3.387137,-0.215790,-2.524793,-6.875186,3.202041,-0.039874,0.089969,0.000000,0.336002,-0.179543,0.000000
4.310000,2.527818,-0.318863,-1.474798,0.459423,-0.071886,0.071736,-0.887010,-0.368262,-0.222273,1.772329,3.317140,-0.184178,-2.530962,-7.146872,3.073929,-0.036549,0.088186,0.000000,0.329021,-0.176785,-0.000000
4.320000,2.532368,-0.319600,-1.474092,0.450642,-0.075404,0.069505,-0.869415,-0.335454,-0.223966,1.746696,3.244032,-0.154723,-2.572059,-7.445491,2.865349,-0.033295,0.086431,0.000000,0.321752,-0.174011,0.000000
4.330000,2.536831,-0.320370,-1.473408,0.442034,-0.078597,0.067258,-0.852075,-0.303388,-0.225369,1.721383,3.168841,-0.125863,-2.488500,-7.588080,2.909568,-0.030114,0.084704,0.000000,0.314290,-0.171283,0.000000
4.340000,2.541209,-0.321171,-1.472747,0.433599,-0.081474,0.064998,-0.834986,-0.272083,-0.226484,1.696497,3.091825,-0.097446,-2.510153,-7.837487,2.727956,-0.027009,0.083004,0.000000,0.306657,-0.168612,0.000000
4.350000,2.545504,-0.321999,-1.472108,0.425334,-0.084042,0.062729,-0.818146,-0.241560,-0.227325,1.671388,3.012383,-0.070880,-2.487494,-8.021590,2.633825,-0.023982,0.081331,0.000000,0.298799,-0.165942,-0.000000
4.360000,2.549717,-0.322851,-1.471492,0.417235,-0.086308,0.060453,-0.801556,-0.211840,-0.227904,1.646657,2.931492,-0.044937,-2.459935,-8.182889,2.545269,-0.021034,0.079684,0.000000,0.290807,-0.163324,0.000000
4.370000,2.553849,-0.323724,-1.470899,0.409302,-0.088281,0.058172,-0.785212,-0.182938,-0.228228,1.622188,2.848520,-0.020050,-2.431097,-8.379199,2.443508,-0.018167,0.078063,0.000000,0.282618,-0.160747,0.000000
4.380000,2.557903,-0.324615,-1.470329,0.401530,-0.089970,0.055889,-0.769111,-0.154872,-0.228307,1.598094,2.764583,0.004171,-2.386844,-8.403949,2.402008,-0.015382,0.076468,0.000000,0.274341,-0.158220,0.000000
4.390000,2.561880,-0.325522,-1.469781,0.393919,-0.091381,0.053607,-0.753249,-0.127649,-0.228146,1.574422,2.679922,0.027800,-2.349026,-8.554205,2.314172,-0.012680,0.074898,0.000000,0.265999,-0.155747,0.000000
4.400000,2.565782,-0.326442,-1.469257,0.386465,-0.092525,0.051327,-0.737622,-0.101279,-0.227754,1.551151,2.593811,0.050558,-2.303546,-8.635621,2.248925,-0.010062,0.073353,0.000000,0.257520,-0.153326,-0.000000
4.410000,2.569610,-0.327372,-1.468755,0.379166,-0.093410,0.049052,-0.722225,-0.075774,-0.227137,1.528347,2.507200,0.072704,-2.255749,-8.698394,2.186863,-0.007530,0.071831,0.000000,0.248998,-0.150962,-0.000000
4.420000,2.573366,-0.328309,-1.468275,0.372019,-0.094044,0.046785,-0.707053,-0.051138,-0.226301,1.506054,2.419767,0.094363,-2.203566,-8.770764,2.139749,-0.005083,0.070333,0.000000,0.240398,-0.148658,0.000000
4.430000,2.577051,-0.329252,-1.467819,0.365024,-0.094436,0.044527,-0.692102,-0.027379,-0.225252,1.484259,2.332148,0.115390,-2.155118,-8.749584,2.065940,-0.002722,0.068858,0.000000,0.231784,-0.146415,-0.000000
4.440000,2.580667,-0.330197,-1.467385,0.358177,-0.094594,0.042280,-0.677366,-0.004495,-0.223995,1.462976,2.244540,0.135807,-2.100200,-8.783947,2.023801,-0.000447,0.067405,0.000000,0.223175,-0.144231,-0.000000
4.450000,2.584215,-0.331143,-1.466973,0.351476,-0.094528,0.040048,-0.662840,0.017511,-0.222537,1.442247,2.156649,0.155824,-2.046536,-8.776825,1.974037,0.001742,0.065973,0.000000,0.214541,-0.142110,0.000000
4.460000,2.587697,-0.332087,-1.466584,0.344919,-0.094247,0.037830,-0.648520,0.038639,-0.220881,1.421980,2.069048,0.175205,-1.994127,-8.753140,1.924038,0.003844,0.064562,0.000000,0.205937,-0.140045,0.000000
4.470000,2.591114,-0.333027,-1.466217,0.338505,-0.093759,0.035631,-0.634398,0.058892,-0.219033,1.402480,1.981525,0.194506,-1.918454,-8.736931,1.915454,0.005860,0.063172,0.000000,0.197343,-0.138060,-0.000000
4.480000,2.594467,-0.333962,-1.465871,0.332231,-0.093072,0.033450,-0.620469,0.078272,-0.216994,1.383349,1.894609,0.213080,-1.908282,-8.643330,1.798778,0.007791,0.061801,0.000000,0.188810,-0.136122,0.000000
4.490000,2.597759,-0.334888,-1.465547,0.326095,-0.092196,0.031291,-0.606730,0.096787,-0.214774,1.364558,1.808464,0.230904,-1.837704,-8.595408,1.787152,0.009637,0.060449,0.000000,0.180354,-0.134227,-0.000000
4.500000,2.600990,-0.335805,-1.465245,0.320095,-0.091139,0.029156,-0.593175,0.114442,-0.212376,1.346482,1.722850,0.248645,-1.790261,-8.513282,1.739885,0.011398,0.059116,0.000000,0.171950,-0.132407,0.000000
4.510000,2.604161,-0.336710,-1.464964,0.314231,-0.089910,0.027044,-0.579800,0.131247,-0.209804,1.328699,1.638233,0.265667,-1.746770,-8.417771,1.690669,0.013076,0.057801,0.000000,0.163644,-0.130624,0.000000
4.520000,2.607275,-0.337603,-1.464704,0.308499,-0.088517,0.024960,-0.566598,0.147210,-0.207062,1.311722,1.554446,0.282696,-1.668727,-8.328175,1.689522,0.014671,0.056503,0.000000,0.155420,-0.128926,0.000000
4.530000,2.610332,-0.338480,-1.464465,0.302898,-0.086969,0.022904,-0.553565,0.162340,-0.204152,1.294904,1.471909,0.298923,-1.695896,-8.176946,1.554893,0.016185,0.055222,0.000000,0.147317,-0.127252,0.000000
4.540000,2.613333,-0.339342,-1.464246,0.297427,-0.085273,0.020877,-0.540700,0.176652,-0.201086,1.278185,1.390751,0.314301,-1.629032,-8.062437,1.546104,0.017618,0.053958,0.000000,0.139348,-0.125595,0.000000
4.550000,2.616281,-0.340185,-1.464047,0.292084,-0.083438,0.018883,-0.527998,0.190159,-0.197866,1.262144,1.310776,0.329625,-1.599637,-7.921201,1.492610,0.018972,0.052709,0.000000,0.131494,-0.124010,0.000000
4.560000,2.619175,-0.341010,-1.463868,0.286866,-0.081472,0.016921,-0.515457,0.202873,-0.194497,1.246185,1.232259,0.344134,-1.575505,-7.771718,1.435790,0.020249,0.051477,0.000000,0.123781,-0.122440,0.000000
4.570000,2.622018,-0.341814,-1.463709,0.281774,-0.079383,0.014993,-0.503073,0.214810,-0.190983,1.230777,1.155454,0.358583,-1.523767,-7.596469,1.427421,0.021448,0.050260,0.000000,0.116234,-0.120928,-0.000000
4.580000,2.624811,-0.342597,-1.463568,0.276804,-0.077179,0.013101,-0.490842,0.225987,-0.187328,1.215338,1.080178,0.372125,-1.565484,-7.457673,1.279949,0.022574,0.049058,0.000000,0.108834,-0.119420,0.000000
4.590000,2.627555,-0.343358,-1.463447,0.271957,-0.074866,0.011247,-0.478766,0.236419,-0.183544,1.199790,1.006501,0.384704,-1.528004,-7.267684,1.261816,0.023626,0.047871,0.000000,0.101586,-0.117909,0.000000
4.600000,2.630251,-0.344094,-1.463343,0.267229,-0.072453,0.009431,-0.466844,0.246124,-0.179634,1.184615,0.934775,0.397124,-1.525189,-7.085082,1.196035,0.024606,0.046699,0.000000,0.094528,-0.116437,0.000000
4.610000,2.632900,-0.344806,-1.463258,0.262619,-0.069946,0.007655,-0.455075,0.255120,-0.175605,1.169238,0.864800,0.408645,-1.529817,-6.896545,1.127400,0.025517,0.045542,0.000000,0.087636,-0.114951,0.000000
4.620000,2.635503,-0.345493,-1.463190,0.258127,-0.067353,0.005919,-0.443458,0.263427,-0.171462,1.154194,0.796978,0.419844,-1.500782,-6.678798,1.092896,0.026360,0.044399,0.000000,0.080953,-0.113501,-0.000000
4.630000,2.638063,-0.346153,-1.463139,0.253749,-0.064680,0.004226,-0.431993,0.271066,-0.167211,1.138764,0.730992,0.430094,-1.586918,-6.517927,0.955880,0.027136,0.043271,0.000000,0.074444,-0.112019,-0.000000
4.640000,2.640579,-0.346786,-1.463105,0.249486,-0.061934,0.002575,-0.420685,0.278053,-0.162864,1.122853,0.666878,0.439339,-1.575490,-6.291935,0.912008,0.027849,0.042158,0.000000,0.068114,-0.110493,0.000000
4.650000,2.643053,-0.347392,-1.463088,0.245335,-0.059121,0.000969,-0.409535,0.284411,-0.158426,1.107052,0.605066,0.448162,-1.606674,-6.081868,0.832756,0.028499,0.041060,0.000000,0.062006,-0.108981,-0.000000
4.660000,2.645486,-0.347968,-1.463086,0.241295,-0.056247,-0.000593,-0.398546,0.290161,-0.153904,1.090653,0.545267,0.456043,-1.646633,-5.868049,0.751026,0.029090,0.039978,0.000000,0.056090,-0.107412,-0.000000
4.670000,2.647879,-0.348516,-1.463099,0.237364,-0.053319,-0.002109,-0.387721,0.295324,-0.149307,1.074348,0.487802,0.463246,-1.642319,-5.633380,0.681375,0.029622,0.038911,0.000000,0.050399,-0.105856,0.000000
4.680000,2.650234,-0.349035,-1.463128,0.233540,-0.050343,-0.003579,-0.377062,0.299924,-0.144642,1.057222,0.432420,0.469499,-1.785040,-5.442832,0.568494,0.030098,0.037860,0.000000,0.044906,-0.104221,-0.000000
4.690000,2.652550,-0.349523,-1.463171,0.229822,-0.047323,-0.005002,-0.366580,0.303980,-0.139920,1.039163,0.379135,0.474763,-1.800918,-5.204567,0.491468,0.030521,0.036826,0.000000,0.039614,-0.102494,0.000000
4.700000,2.654830,-0.349981,-1.463228,0.226208,-0.044265,-0.006377,-0.356279,0.307515,-0.135149,1.020949,0.328259,0.479258,-1.869917,-4.979635,0.398874,0.030891,0.035809,0.000000,0.034554,-0.100754,0.000000
4.710000,2.657075,-0.350408,-1.463298,0.222696,-0.041174,-0.007704,-0.346164,0.310551,-0.130339,1.001796,0.279356,0.482714,-1.946332,-4.757422,0.302555,0.031212,0.034810,0.000000,0.029681,-0.098922,-0.000000
4.720000,2.659285,-0.350804,-1.463382,0.219284,-0.038055,-0.008984,-0.336244,0.313113,-0.125497,0.982141,0.233513,0.485399,-2.001015,-4.452909,0.223631,0.031486,0.033830,0.000000,0.025107,-0.097039,0.000000
4.730000,2.661461,-0.351169,-1.463478,0.215970,-0.034913,-0.010214,-0.326525,0.315227,-0.120635,0.961434,0.189417,0.486958,-2.142217,-4.367585,0.087380,0.031715,0.032869,0.000000,0.020698,-0.095052,0.000000
4.740000,2.663604,-0.351503,-1.463586,0.212753,-0.031752,-0.011396,-0.317019,0.316906,-0.115762,0.939578,0.147015,0.487350,-2.214839,-4.070199,0.001000,0.031901,0.031928,0.000000,0.016449,-0.092950,-0.000000
4.750000,2.665716,-0.351804,-1.463706,0.209629,-0.028577,-0.012530,-0.307736,0.318178,-0.110890,0.916985,0.107654,0.486880,-2.320517,-3.844413,-0.105848,0.032045,0.031009,0.000000,0.012497,-0.090773,0.000000
4.760000,2.667797,-0.352074,-1.463836,0.206597,-0.025390,-0.013614,-0.298684,0.319065,-0.106028,0.893140,0.070008,0.485317,-2.434303,-3.622599,-0.213788,0.032151,0.030112,0.000000,0.008708,-0.088470,0.000000
4.770000,2.669848,-0.352312,-1.463978,0.203655,-0.022197,-0.014650,-0.289875,0.319591,-0.101188,0.868416,0.035774,0.482535,-2.526475,-3.284548,-0.336622,0.032221,0.029239,0.000000,0.005253,-0.086078,-0.000000
4.780000,2.671871,-0.352518,-1.464129,0.200799,-0.018999,-0.015638,-0.281320,0.319785,-0.096381,0.842273,0.003054,0.478712,-2.703791,-3.261282,-0.428189,0.032256,0.028390,0.000000,0.001942,-0.083540,0.000000
4.790000,2.673865,-0.352692,-1.464290,0.198027,-0.015802,-0.016578,-0.273035,0.319656,-0.091617,0.814620,-0.028233,0.473832,-2.812755,-2.935166,-0.554590,0.032260,0.027568,0.000000,-0.001233,-0.080848,0.000000
4.800000,2.675831,-0.352834,-1.464461,0.195337,-0.012607,-0.017471,-0.265031,0.319232,-0.086909,0.785869,-0.056165,0.467667,-2.953526,-2.711764,-0.672420,0.032233,0.026773,0.000000,-0.004078,-0.078044,0.000000
4.810000,2.677772,-0.352944,-1.464639,0.192726,-0.009418,-0.018316,-0.257324,0.318536,-0.082267,0.755463,-0.082810,0.460540,-3.104812,-2.497262,-0.788963,0.032179,0.026007,0.000000,-0.006800,-0.075068,-0.000000
4.820000,2.679686,-0.353022,-1.464827,0.190190,-0.006237,-0.019116,-0.249926,0.317593,-0.077705,0.723921,-0.105006,0.451557,-3.224015,-2.057929,-0.973877,0.032099,0.025271,0.000000,-0.009082,-0.071977,0.000000
4.830000,2.681576,-0.353069,-1.465022,0.187726,-0.003067,-0.019871,-0.242851,0.316438,-0.073238,0.690558,-0.126400,0.441769,-3.450117,-2.224087,-0.983119,0.031997,0.024567,0.000000,-0.011289,-0.068697,-0.000000
4.840000,2.683441,-0.353084,-1.465224,0.185332,0.000091,-0.020581,-0.236121,0.315066,-0.068872,0.655288,-0.147132,0.431195,-3.585301,-1.804654,-1.166596,0.031873,0.023897,0.000000,-0.013434,-0.065219,-0.000000
4.850000,2.685283,-0.353067,-1.465433,0.183002,0.003234,-0.021249,-0.229750,0.313512,-0.064621,0.618654,-0.163477,0.418722,-3.760427,-1.580686,-1.294489,0.031730,0.023263,0.000000,-0.015144,-0.061600,0.000000
4.860000,2.687101,-0.353019,-1.465649,0.180735,0.006360,-0.021874,-0.223754,0.311802,-0.060501,0.580160,-0.178111,0.405113,-3.939388,-1.345417,-1.427888,0.031571,0.022665,0.000000,-0.016686,-0.057788,0.000000
4.870000,2.688897,-0.352940,-1.465870,0.178526,0.009469,-0.022459,-0.218153,0.309957,-0.056523,0.539848,-0.190370,0.390153,-4.123814,-1.105514,-1.564649,0.031397,0.022107,0.000000,-0.017993,-0.053788,0.000000
4.880000,2.690672,-0.352830,-1.466098,0.176371,0.012559,-0.023005,-0.212964,0.308003,-0.052702,0.497666,-0.200203,0.373808,-4.313505,-0.860276,-1.704900,0.031212,0.021589,0.000000,-0.019059,-0.049594,0.000000
4.890000,2.692425,-0.352689,-1.466330,0.174265,0.015629,-0.023514,-0.208206,0.305962,-0.049052,0.453561,-0.207555,0.356043,-4.508281,-0.608990,-1.848701,0.031017,0.021115,0.000000,-0.019878,-0.045200,-0.000000
4.900000,2.694157,-0.352517,-1.466568,0.172205,0.018678,-0.023987,-0.203899,0.303860,-0.045587,0.407486,-0.212362,0.336816,-4.707725,-0.351080,-1.996797,0.030815,0.020686,0.000000,-0.020444,-0.040602,0.000000
4.910000,2.695869,-0.352315,-1.466810,0.170186,0.021706,-0.024426,-0.200063,0.301723,-0.042321,0.359392,-0.214552,0.316092,-4.911864,-0.085711,-2.148672,0.030609,0.020303,0.000000,-0.020748,-0.035795,-0.000000
4.920000,2.697561,-0.352083,-1.467056,0.168202,0.024713,-0.024834,-0.196718,0.299578,-0.039270,0.309234,-0.214049,0.293829,-5.120396,0.187759,-2.304739,0.030401,0.019970,0.000000,-0.020783,-0.030774,0.000000
4.930000,2.699233,-0.351821,-1.467307,0.166250,0.027698,-0.025212,-0.193885,0.297451,-0.036449,0.256970,-0.210768,0.269983,-5.333084,0.470026,-2.465164,0.030194,0.019688,0.000000,-0.020539,-0.025536,0.000000
4.940000,2.700886,-0.351529,-1.467561,0.164323,0.030662,-0.025564,-0.191586,0.295372,-0.033876,0.202560,-0.204617,0.244511,-5.549660,0.761786,-2.630100,0.029991,0.019460,0.000000,-0.020007,-0.020077,0.000000
4.950000,2.702520,-0.351208,-1.467818,0.162416,0.033605,-0.025891,-0.189841,0.293369,-0.031565,0.145962,-0.195498,0.217366,-5.770226,1.063720,-2.799668,0.029795,0.019287,0.000000,-0.019177,-0.014393,-0.000000
4.960000,2.704135,-0.350857,-1.468078,0.160524,0.036530,-0.026196,-0.188674,0.291472,-0.029534,0.087143,-0.183306,0.188501,-5.994199,1.376535,-2.974111,0.029608,0.019173,0.000000,-0.018038,-0.008482,0.000000
4.970000,2.705730,-0.350478,-1.468342,0.158641,0.039435,-0.026482,-0.188106,0.289713,-0.027801,0.026067,-0.167929,0.157867,-6.221487,1.700920,-3.153564,0.029435,0.019118,0.000000,-0.016578,-0.002341,0.000000
4.980000,2.707307,-0.350069,-1.468608,0.156760,0.042324,-0.026753,-0.188160,0.288125,-0.026383,-0.037297,-0.149247,0.125413,-6.451823,2.037563,-3.338220,0.029278,0.019127,0.000000,-0.014786,0.004032,-0.000000
4.990000,2.708866,-0.349631,-1.468877,0.154875,0.045199,-0.027011,-0.188860,0.286740,-0.025299,-0.102979,-0.127134,0.091085,-6.684860,2.387146,-3.528289,0.029141,0.019200,0.000000,-0.012649,0.010640,0.000000
5.000000,2.710405,-0.349165,-1.469148,0.152980,0.048060,-0.027260,-0.190228,0.285594,-0.024567,-0.171002,-0.101459,0.054828,-6.920116,2.750350,-3.724000,0.029026,0.019340,0.000000,-0.010154,0.017482,-0.000000
