time,x,y,z,vx,vy,vz,ax,ay,az,jx,jy,jz,sx,sy,sz,roll,pitch,yaw,p,q,r
0.000000,-2.994222,0.774735,-1.357974,-0.015733,-0.006311,0.002538,0.177624,0.067750,0.217554,-0.269751,-0.597747,-6.925999,41.968242,14.397070,164.799139,0.007061,-0.018515,0.000000,-0.067394,0.041476,-0.000000
0.010000,-2.994371,0.774675,-1.357939,-0.013963,-0.005661,0.004394,0.176979,0.062458,0.156086,0.136296,-0.463804,-5.411187,39.238981,12.416857,138.628910,0.006469,-0.018330,0.000000,-0.051659,-0.003841,0.000000
0.020000,-2.994501,0.774621,-1.357888,-0.012180,-0.005058,0.005706,0.180258,0.058410,0.108504,0.514996,-0.348914,-4.144346,36.500076,10.585582,115.181064,0.006020,-0.018578,0.000000,-0.038534,-0.045130,0.000000
0.030000,-2.994614,0.774573,-1.357826,-0.010346,-0.004489,0.006602,0.187188,0.055422,0.072461,0.866295,-0.251616,-3.098965,33.760202,8.897256,94.313246,0.005690,-0.019221,0.000000,-0.027654,-0.082815,0.000000
0.040000,-2.994708,0.774531,-1.357757,-0.008425,-0.003946,0.007187,0.197493,0.053324,0.045870,1.190226,-0.170512,-2.249956,31.027939,7.345893,75.883098,0.005460,-0.020224,0.000000,-0.018730,-0.117187,0.000000
0.050000,-2.994782,0.774494,-1.357683,-0.006385,-0.003420,0.007545,0.210901,0.051962,0.026886,1.486915,-0.104262,-1.573651,28.312769,5.925426,59.748358,0.005310,-0.021554,0.000000,-0.011526,-0.148449,0.000000
0.060000,-2.994835,0.774463,-1.357606,-0.004197,-0.002905,0.007745,0.227141,0.051193,0.013895,1.756567,-0.051587,-1.047811,25.622519,4.629960,45.766567,0.005224,-0.023183,0.000000,-0.005845,-0.176735,0.000000
0.070000,-2.994865,0.774436,-1.357528,-0.001834,-0.002395,0.007838,0.245944,0.050889,0.005498,1.999479,-0.011267,-0.651618,22.966241,3.453463,33.795414,0.005189,-0.025080,0.000000,-0.001520,-0.202138,0.000000
0.080000,-2.994871,0.774415,-1.357450,0.000729,-0.001886,0.007866,0.267043,0.050931,0.000496,2.216034,0.017859,-0.365675,20.352674,2.389941,23.692550,0.005190,-0.027216,0.000000,0.001595,-0.224722,0.000000
0.090000,-2.994850,0.774399,-1.357371,0.003514,-0.001376,0.007856,0.290178,0.051212,-0.002123,2.406704,0.036889,-0.172014,17.790589,1.433397,15.315631,0.005217,-0.029565,0.000000,0.003629,-0.244543,0.000000
0.100000,-2.994800,0.774387,-1.357293,0.006539,-0.000861,0.007829,0.315093,0.051638,-0.003197,2.572042,0.046864,-0.054084,15.288283,0.577872,8.522321,0.005259,-0.032098,0.000000,0.004700,-0.261650,-0.000000
0.110000,-2.994718,0.774381,-1.357215,0.009821,-0.000343,0.007795,0.341537,0.052123,-0.003407,2.712697,0.048763,0.003237,12.855012,-0.182670,3.170245,0.005308,-0.034789,0.000000,0.004917,-0.276101,-0.000000
0.120000,-2.994603,0.774381,-1.357137,0.013374,0.000181,0.007761,0.369267,0.052590,-0.003288,2.829401,0.043507,0.013651,10.499297,-0.854205,-0.882943,0.005355,-0.037612,0.000000,0.004380,-0.287964,0.000000
0.130000,-2.994450,0.774385,-1.357059,0.017209,0.000709,0.007729,0.398047,0.052972,-0.003249,2.922971,0.031956,-0.010567,8.229847,-1.442718,-3.779616,0.005394,-0.040540,0.000000,0.003183,-0.297322,-0.000000
0.140000,-2.994258,0.774395,-1.356982,0.021337,0.001240,0.007695,0.427652,0.053211,-0.003579,2.994314,0.014909,-0.058561,6.055338,-1.954187,-5.662160,0.005417,-0.043550,0.000000,0.001414,-0.304277,0.000000
0.150000,-2.994022,0.774410,-1.356906,0.025764,0.001773,0.007656,0.457863,0.053254,-0.004468,3.044423,-0.006891,-0.120904,3.984388,-2.394580,-6.672972,0.005420,-0.046618,0.000000,-0.000846,-0.308946,0.000000
0.160000,-2.993741,0.774430,-1.356829,0.030496,0.002304,0.007604,0.488473,0.053059,-0.006018,3.074382,-0.032768,-0.189580,2.026326,-2.770152,-6.953647,0.005399,-0.049722,0.000000,-0.003522,-0.311464,0.000000
0.170000,-2.993411,0.774456,-1.356754,0.035535,0.002833,0.007533,0.519287,0.052587,-0.008258,3.085355,-0.062099,-0.258016,0.189169,-3.086547,-6.647567,0.005349,-0.052841,0.000000,-0.006545,-0.311980,0.000000
0.180000,-2.993030,0.774487,-1.356679,0.040882,0.003355,0.007436,0.550121,0.051808,-0.011160,3.078598,-0.094322,-0.321048,-1.518116,-3.349872,-5.896672,0.005267,-0.055955,0.000000,-0.009853,-0.310656,0.000000
0.190000,-2.992593,0.774523,-1.356605,0.046537,0.003868,0.007308,0.580805,0.050693,-0.014649,3.055454,-0.128939,-0.374941,-3.086915,-3.566093,-4.843309,0.005151,-0.059048,0.000000,-0.013391,-0.307663,0.000000
0.200000,-2.992098,0.774564,-1.356533,0.052497,0.004368,0.007142,0.611181,0.049222,-0.018620,3.017351,-0.165510,-0.417382,-4.508294,-3.741439,-3.629913,0.004998,-0.062104,0.000000,-0.017113,-0.303180,0.000000
0.210000,-2.991542,0.774610,-1.356462,0.058759,0.004851,0.006932,0.641200,0.047358,-0.023593,2.987055,-0.208053,-0.593514,-5.353676,-3.968605,-5.285438,0.004806,-0.065113,0.000000,-0.021496,-0.298552,0.000000
0.220000,-2.990922,0.774661,-1.356394,0.065319,0.005314,0.006670,0.670585,0.045119,-0.028408,2.875552,-0.237478,-0.281060,-13.209152,-2.680502,42.246893,0.004575,-0.068055,0.000000,-0.024302,-0.288985,0.000000
0.230000,-2.990234,0.774716,-1.356329,0.072167,0.005752,0.006375,0.698862,0.042567,-0.030457,2.801317,-0.277715,-0.284638,-1.499602,-5.386040,-43.765378,0.004315,-0.070900,0.000000,-0.028361,-0.281198,0.000000
0.240000,-2.989477,0.774776,-1.356267,0.079295,0.006163,0.006049,0.726786,0.039520,-0.035475,2.770844,-0.329539,-0.640041,-8.324460,-4.197496,-1.548730,0.004003,-0.073686,0.000000,-0.033721,-0.275133,0.000000
0.250000,-2.988648,0.774840,-1.356208,0.086700,0.006541,0.005664,0.753970,0.036034,-0.041272,2.667051,-0.368174,-0.534545,-8.678342,-4.298910,-3.045934,0.003647,-0.076386,0.000000,-0.037536,-0.265025,0.000000
0.260000,-2.987742,0.774907,-1.356154,0.094371,0.006882,0.005224,0.780181,0.032132,-0.046777,2.573911,-0.412261,-0.566525,-9.246774,-4.343648,-2.952681,0.003250,-0.078987,0.000000,-0.041947,-0.254983,0.000000
0.270000,-2.986759,0.774977,-1.356104,0.102300,0.007183,0.004727,0.805486,0.027801,-0.052567,2.488738,-0.453393,-0.589940,-8.440325,-4.044316,-2.115554,0.002810,-0.081490,0.000000,-0.046043,-0.245816,0.000000
0.280000,-2.985696,0.775050,-1.356059,0.110478,0.007437,0.004172,0.829910,0.023057,-0.058590,2.391375,-0.496542,-0.616924,-11.040247,-4.586715,-3.293328,0.002328,-0.083899,0.000000,-0.050330,-0.235399,0.000000
0.290000,-2.984549,0.775126,-1.356021,0.118895,0.007642,0.003555,0.853267,0.017863,-0.064922,2.281669,-0.541702,-0.648015,-10.216066,-4.274255,-2.536025,0.001802,-0.086193,0.000000,-0.054806,-0.223716,0.000000
0.300000,-2.983317,0.775203,-1.355988,0.127540,0.007793,0.002873,0.875587,0.012237,-0.071517,2.181557,-0.583372,-0.670953,-10.467016,-4.222783,-2.439542,0.001234,-0.088378,0.000000,-0.058913,-0.213082,0.000000
0.310000,-2.981997,0.775281,-1.355963,0.136403,0.007885,0.002123,0.896863,0.006193,-0.078350,2.073084,-0.625383,-0.695600,-10.677058,-4.142637,-2.337334,0.000624,-0.090452,0.000000,-0.063041,-0.201610,-0.000000
0.320000,-2.980588,0.775360,-1.355946,0.145474,0.007915,0.001305,0.917087,-0.000265,-0.085413,1.973148,-0.665846,-0.716302,-9.824896,-3.978991,-1.951605,-0.000027,-0.092414,0.000000,-0.066999,-0.191051,0.000000
0.330000,-2.979087,0.775439,-1.355938,0.154742,0.007879,0.000414,0.936298,-0.007122,-0.092679,1.865761,-0.705579,-0.737752,-11.661459,-3.965262,-2.343454,-0.000716,-0.094270,0.000000,-0.070869,-0.179759,0.000000
0.340000,-2.977493,0.775518,-1.355938,0.164196,0.007772,-0.000550,0.954372,-0.014374,-0.100172,1.750646,-0.744429,-0.760182,-10.826462,-3.768675,-1.993242,-0.001444,-0.096006,0.000000,-0.074637,-0.167709,-0.000000
0.350000,-2.975803,0.775595,-1.355949,0.173825,0.007590,-0.001590,0.971351,-0.022003,-0.107868,1.644869,-0.781169,-0.778894,-10.849316,-3.609005,-1.899081,-0.002208,-0.097628,0.000000,-0.078181,-0.156654,0.000000
0.360000,-2.974016,0.775669,-1.355970,0.183619,0.007330,-0.002708,0.987249,-0.029992,-0.115752,1.534555,-0.816341,-0.797855,-10.845034,-3.428510,-1.807496,-0.003007,-0.099137,0.000000,-0.081555,-0.145171,-0.000000
0.370000,-2.972130,0.775741,-1.356003,0.193567,0.006989,-0.003905,1.002072,-0.038324,-0.123815,1.431409,-0.849736,-0.814260,-10.131714,-3.241816,-1.557238,-0.003838,-0.100535,0.000000,-0.084740,-0.134457,0.000000
0.380000,-2.970144,0.775809,-1.356049,0.203657,0.006563,-0.005184,1.015862,-0.046980,-0.132039,1.324611,-0.881001,-0.830760,-11.234845,-3.008276,-1.745656,-0.004701,-0.101825,0.000000,-0.087701,-0.123405,0.000000
0.390000,-2.968056,0.775872,-1.356107,0.213880,0.006049,-0.006547,1.028549,-0.055936,-0.140432,1.213919,-0.909966,-0.847489,-10.544050,-2.787969,-1.516193,-0.005592,-0.103001,0.000000,-0.090421,-0.111994,0.000000
0.400000,-2.965866,0.775929,-1.356180,0.224225,0.005443,-0.007994,1.040172,-0.065171,-0.148979,1.110778,-0.936660,-0.861802,-10.435829,-2.542574,-1.430756,-0.006508,-0.104068,0.000000,-0.092907,-0.101389,0.000000
0.410000,-2.963571,0.775981,-1.356267,0.234680,0.004744,-0.009527,1.050755,-0.074661,-0.157668,1.005808,-0.960749,-0.875847,-10.313896,-2.282219,-1.344526,-0.007449,-0.105028,0.000000,-0.095124,-0.090635,0.000000
0.420000,-2.961172,0.776024,-1.356371,0.245236,0.003949,-0.011147,1.060312,-0.084378,-0.166490,0.906774,-0.982343,-0.888384,-9.724696,-2.025486,-1.195573,-0.008410,-0.105884,0.000000,-0.097087,-0.080515,0.000000
0.430000,-2.958666,0.776059,-1.356491,0.255883,0.003056,-0.012857,1.068884,-0.094298,-0.175434,0.806439,-1.001029,-0.900444,-10.347533,-1.709275,-1.217401,-0.009390,-0.106638,0.000000,-0.098753,-0.070300,0.000000
0.440000,-2.956054,0.776085,-1.356628,0.266611,0.002063,-0.014656,1.076434,-0.104389,-0.184498,0.704603,-1.016669,-0.912068,-9.781271,-1.425882,-1.074199,-0.010384,-0.107289,0.000000,-0.100112,-0.059972,-0.000000
0.450000,-2.953334,0.776100,-1.356784,0.277409,0.000968,-0.016547,1.083001,-0.114622,-0.193670,0.608843,-1.029434,-0.922206,-9.605661,-1.116119,-0.985804,-0.011391,-0.107840,0.000000,-0.101183,-0.050289,0.000000
0.460000,-2.950506,0.776104,-1.356959,0.288268,-0.000230,-0.018530,1.088608,-0.124966,-0.202939,0.512879,-1.038987,-0.931564,-9.424536,-0.796112,-0.892642,-0.012407,-0.108295,0.000000,-0.101932,-0.040623,-0.000000
0.470000,-2.947568,0.776095,-1.357155,0.299178,-0.001532,-0.020606,1.093277,-0.135391,-0.212299,0.421861,-1.045354,-0.940116,-8.934498,-0.472673,-0.810386,-0.013428,-0.108655,0.000000,-0.102363,-0.031482,0.000000
0.480000,-2.944522,0.776073,-1.357372,0.310130,-0.002938,-0.022776,1.097044,-0.145862,-0.221738,0.330924,-1.048344,-0.947618,-9.256841,-0.123778,-0.689415,-0.014453,-0.108925,0.000000,-0.102461,-0.022387,0.000000
0.490000,-2.941366,0.776036,-1.357611,0.321116,-0.004449,-0.025041,1.099894,-0.156346,-0.231247,0.239907,-1.047868,-0.954032,-8.787711,0.217004,-0.599685,-0.015477,-0.109103,0.000000,-0.102218,-0.013323,0.000000
0.500000,-2.938100,0.775984,-1.357873,0.332125,-0.006065,-0.027402,1.101862,-0.166808,-0.240816,0.153846,-1.043951,-0.959540,-8.581883,0.570555,-0.494333,-0.016496,-0.109193,0.000000,-0.101637,-0.004782,0.000000
0.510000,-2.934723,0.775914,-1.358159,0.343150,-0.007785,-0.029858,1.102972,-0.177213,-0.250434,0.068539,-1.036467,-0.963785,-8.374251,0.929874,-0.382118,-0.017508,-0.109199,0.000000,-0.100709,0.003646,0.000000
0.520000,-2.931236,0.775827,-1.358470,0.354182,-0.009609,-0.032410,1.103248,-0.187525,-0.260090,-0.012667,-1.025311,-0.967426,-7.968115,1.299516,-0.317900,-0.018509,-0.109122,0.000000,-0.099423,0.011641,0.000000
0.530000,-2.927640,0.775722,-1.358808,0.365212,-0.011535,-0.035060,1.102721,-0.197707,-0.269777,-0.092946,-1.010513,-0.969553,-8.090432,1.660916,-0.105842,-0.019495,-0.108966,0.000000,-0.097786,0.019507,0.000000
0.540000,-2.923932,0.775596,-1.359172,0.376233,-0.013562,-0.037806,1.101391,-0.207723,-0.279476,-0.172416,-0.992030,-0.970077,-7.700838,2.038727,-0.025591,-0.020464,-0.108732,0.000000,-0.095796,0.027254,0.000000
0.550000,-2.920115,0.775450,-1.359564,0.387238,-0.015689,-0.040649,1.099288,-0.217535,-0.289176,-0.247827,-0.969748,-0.969816,-7.483392,2.415469,0.106695,-0.021410,-0.108422,0.000000,-0.093440,0.034574,0.000000
0.560000,-2.916188,0.775282,-1.359985,0.398217,-0.017912,-0.043589,1.096438,-0.227106,-0.298866,-0.321920,-0.943743,-0.967847,-7.265860,2.793837,0.247814,-0.022331,-0.108041,0.000000,-0.090731,0.041728,0.000000
0.570000,-2.912151,0.775092,-1.360436,0.409164,-0.020230,-0.046626,1.092863,-0.236397,-0.308532,-0.392504,-0.913793,-0.965212,-6.917818,3.188622,0.319432,-0.023224,-0.107589,0.000000,-0.087645,0.048514,0.000000
0.580000,-2.908004,0.774877,-1.360918,0.420072,-0.022639,-0.049760,1.088592,-0.245369,-0.318163,-0.461684,-0.880129,-0.960613,-6.920096,3.543998,0.602495,-0.024083,-0.107071,0.000000,-0.084211,0.055125,0.000000
0.590000,-2.903749,0.774639,-1.361432,0.430933,-0.025136,-0.052989,1.083633,-0.253987,-0.327737,-0.529544,-0.842758,-0.953934,-6.583924,3.938079,0.694893,-0.024907,-0.106487,0.000000,-0.080430,0.061570,0.000000
0.600000,-2.899386,0.774374,-1.361978,0.441742,-0.027718,-0.056314,1.078014,-0.262211,-0.337240,-0.593934,-0.801436,-0.946357,-6.361553,4.318273,0.861078,-0.025690,-0.105840,0.000000,-0.076277,0.067653,0.000000
0.610000,-2.894915,0.774084,-1.362558,0.452492,-0.030379,-0.059734,1.071759,-0.270004,-0.346656,-0.656666,-0.756399,-0.936666,-6.139930,4.696834,1.035475,-0.026431,-0.105134,0.000000,-0.071779,0.073540,0.000000
0.620000,-2.890336,0.773767,-1.363173,0.463175,-0.033116,-0.063247,1.064892,-0.277326,-0.355971,-0.716337,-0.707430,-0.926030,-5.836076,5.088585,1.135215,-0.027125,-0.104370,0.000000,-0.066914,0.079109,0.000000
0.630000,-2.885651,0.773421,-1.363824,0.473787,-0.035924,-0.066853,1.057438,-0.284140,-0.365169,-0.774262,-0.654805,-0.913053,-5.750048,5.435550,1.462549,-0.027768,-0.103552,0.000000,-0.061712,0.084473,0.000000
0.640000,-2.880861,0.773048,-1.364510,0.484322,-0.038797,-0.070550,1.049412,-0.290410,-0.374223,-0.830487,-0.598568,-0.897613,-5.452387,5.819213,1.583730,-0.028358,-0.102680,0.000000,-0.056181,0.089640,-0.000000
0.650000,-2.875965,0.772645,-1.365235,0.494774,-0.041730,-0.074337,1.040839,-0.296099,-0.383118,-0.883670,-0.538504,-0.880996,-5.225491,6.184905,1.783399,-0.028891,-0.101759,0.000000,-0.050296,0.094493,0.000000
0.660000,-2.870966,0.772213,-1.365998,0.505137,-0.044717,-0.078212,1.031744,-0.301168,-0.391835,-0.934891,-0.474867,-0.861960,-4.996503,6.545670,1.990183,-0.029363,-0.100791,0.000000,-0.044086,0.099127,0.000000
0.670000,-2.865863,0.771751,-1.366799,0.515407,-0.047751,-0.082173,1.022151,-0.305584,-0.400353,-0.983392,-0.407571,-0.841490,-4.724661,6.908448,2.138347,-0.029771,-0.099777,0.000000,-0.037540,0.103480,0.000000
0.680000,-2.860658,0.771258,-1.367641,0.525579,-0.050826,-0.086218,1.012083,-0.309308,-0.408656,-1.029825,-0.336803,-0.818474,-4.562211,7.244006,2.466669,-0.030112,-0.098721,0.000000,-0.030680,0.107607,0.000000
0.690000,-2.855352,0.770734,-1.368524,0.535647,-0.053935,-0.090345,1.001561,-0.312308,-0.416713,-1.074198,-0.262634,-0.792815,-4.290487,7.592554,2.632289,-0.030384,-0.097624,0.000000,-0.023513,0.111509,0.000000
0.700000,-2.849945,0.770179,-1.369448,0.545608,-0.057070,-0.094552,0.990609,-0.314549,-0.424507,-1.115807,-0.185012,-0.765523,-4.052481,7.926535,2.860196,-0.030582,-0.096490,0.000000,-0.016031,0.115131,0.000000
0.710000,-2.844440,0.769593,-1.370415,0.555458,-0.060223,-0.098834,0.979252,-0.315998,-0.432015,-1.155146,-0.104111,-0.735650,-3.810771,8.252324,3.092842,-0.030703,-0.095322,0.000000,-0.008253,0.118513,0.000000
0.720000,-2.838837,0.768975,-1.371425,0.565192,-0.063387,-0.103191,0.967514,-0.316621,-0.439214,-1.191975,-0.019994,-0.703857,-3.558361,8.569338,3.288006,-0.030746,-0.094120,0.000000,-0.000183,0.121640,0.000000
0.730000,-2.833136,0.768325,-1.372479,0.574807,-0.066553,-0.107618,0.955421,-0.316387,-0.446083,-1.226384,0.067240,-0.669423,-3.323047,8.875630,3.599988,-0.030706,-0.092888,0.000000,0.008168,0.124517,-0.000000
0.740000,-2.827341,0.767644,-1.373578,0.584299,-0.069712,-0.112111,0.942995,-0.315266,-0.452593,-1.258345,0.157487,-0.632283,-3.064425,9.172321,3.806725,-0.030582,-0.091629,0.000000,0.016793,0.127142,-0.000000
0.750000,-2.821451,0.766931,-1.374722,0.593666,-0.072855,-0.116668,0.930263,-0.313228,-0.458722,-1.287689,0.250647,-0.593093,-2.808182,9.457520,4.053449,-0.030369,-0.090345,0.000000,0.025684,0.129508,0.000000
0.760000,-2.815468,0.766187,-1.375912,0.602904,-0.075973,-0.121284,0.917250,-0.310244,-0.464446,-1.314463,0.346629,-0.551207,-2.547392,9.731462,4.303555,-0.030067,-0.089039,0.000000,0.034832,0.131616,-0.000000
0.770000,-2.809393,0.765411,-1.377148,0.612010,-0.079057,-0.125956,0.903982,-0.306287,-0.469740,-1.338637,0.445184,-0.507206,-2.285169,9.982669,4.516955,-0.029672,-0.087713,0.000000,0.044217,0.133468,0.000000
0.780000,-2.803228,0.764606,-1.378431,0.620983,-0.082096,-0.130678,0.890486,-0.301331,-0.474581,-1.360116,0.546349,-0.460441,-2.009671,10.248149,4.836881,-0.029182,-0.086369,0.000000,0.053845,0.135054,0.000000
0.790000,-2.796974,0.763770,-1.379761,0.629819,-0.085080,-0.135446,0.876789,-0.295351,-0.478939,-1.378847,0.649994,-0.410872,-1.737301,10.473158,5.056782,-0.028594,-0.085011,0.000000,0.063703,0.136369,-0.000000
0.800000,-2.790632,0.762904,-1.381140,0.638518,-0.087999,-0.140255,0.862918,-0.288324,-0.482791,-1.394824,0.755808,-0.359126,-1.456286,10.692397,5.311916,-0.027907,-0.083642,0.000000,0.073769,0.137420,-0.000000
0.810000,-2.784204,0.762010,-1.382567,0.647077,-0.090843,-0.145100,0.848902,-0.280228,-0.486113,-1.407824,0.863811,-0.304752,-1.167283,10.896841,5.565216,-0.027118,-0.082263,0.000000,0.084045,0.138183,0.000000
0.820000,-2.777691,0.761088,-1.384042,0.655496,-0.093600,-0.149975,0.834769,-0.271042,-0.488878,-1.418376,0.973610,-0.247803,-0.918300,11.068630,5.822131,-0.026226,-0.080878,0.000000,0.094498,0.138712,0.000000
0.830000,-2.771095,0.760138,-1.385566,0.663772,-0.096260,-0.154875,0.820546,-0.260749,-0.491060,-1.425670,1.085306,-0.188358,-0.538788,11.268049,6.066602,-0.025228,-0.079489,0.000000,0.105141,0.138931,0.000000
0.840000,-2.764416,0.759163,-1.387140,0.671906,-0.098812,-0.159794,0.806267,-0.249330,-0.492637,-1.429612,1.198739,-0.126433,-0.272598,11.406825,6.320481,-0.024122,-0.078099,0.000000,0.115964,0.138831,0.000000
0.850000,-2.757657,0.758162,-1.388762,0.679897,-0.101243,-0.164726,0.791962,-0.236770,-0.493581,-1.430896,1.313454,-0.061974,0.040933,11.541572,6.568696,-0.022908,-0.076712,0.000000,0.126928,0.138481,0.000000
0.860000,-2.750819,0.757138,-1.390434,0.687746,-0.103543,-0.169664,0.777661,-0.223056,-0.493868,-1.428706,1.429517,0.004888,0.362358,11.657974,6.812854,-0.021583,-0.075330,0.000000,0.138043,0.137804,0.000000
0.870000,-2.743903,0.756092,-1.392155,0.695451,-0.105700,-0.174601,0.763396,-0.208177,-0.493474,-1.423975,1.546466,0.074347,0.621151,11.737183,7.070180,-0.020147,-0.073956,0.000000,0.149271,0.136889,-0.000000
0.880000,-2.736910,0.755025,-1.393926,0.703014,-0.107703,-0.179531,0.749195,-0.192124,-0.492374,-1.415503,1.664374,0.146108,1.075410,11.841165,7.280937,-0.018597,-0.072593,0.000000,0.160624,0.135624,0.000000
0.890000,-2.729843,0.753939,-1.395746,0.710435,-0.109539,-0.184446,0.735099,-0.174887,-0.490544,-1.403177,1.783040,0.220119,1.354477,11.879591,7.528979,-0.016934,-0.071244,0.000000,0.172089,0.133997,-0.000000
0.900000,-2.722702,0.752835,-1.397615,0.717716,-0.111197,-0.189339,0.721140,-0.156462,-0.487963,-1.388087,1.901966,0.296604,1.701317,11.910445,7.758620,-0.015155,-0.069913,0.000000,0.183623,0.132112,0.000000
0.910000,-2.715489,0.751715,-1.399533,0.724858,-0.112664,-0.194203,0.707351,-0.136847,-0.484605,-1.369103,2.021145,0.375329,2.056587,11.917803,7.983978,-0.013261,-0.068603,0.000000,0.195232,0.129863,0.000000
0.920000,-2.708205,0.750582,-1.401499,0.731864,-0.113929,-0.199029,0.693766,-0.116040,-0.480449,-1.347303,2.140208,0.456250,2.343055,11.894273,8.200819,-0.011250,-0.067317,0.000000,0.206887,0.127351,-0.000000
0.930000,-2.700852,0.749437,-1.403513,0.738734,-0.114981,-0.203809,0.680418,-0.094043,-0.475473,-1.321408,2.259020,0.539360,2.838025,11.864011,8.420283,-0.009123,-0.066057,0.000000,0.218581,0.124454,0.000000
0.940000,-2.693431,0.748283,-1.405575,0.745473,-0.115806,-0.208535,0.667352,-0.070861,-0.469655,-1.291309,2.377331,0.624601,3.143603,11.790382,8.625196,-0.006879,-0.064829,0.000000,0.230297,0.121160,0.000000
0.950000,-2.685943,0.747122,-1.407684,0.752083,-0.116394,-0.213199,0.654602,-0.046500,-0.462974,-1.258186,2.494769,0.711858,3.520732,11.696096,8.826328,-0.004517,-0.063635,0.000000,0.242004,0.117581,-0.000000
0.960000,-2.678390,0.745956,-1.409839,0.758566,-0.116733,-0.217792,0.642203,-0.020969,-0.455411,-1.220770,2.611102,0.801065,3.906438,11.573277,9.019351,-0.002039,-0.062479,0.000000,0.253688,0.113594,0.000000
0.970000,-2.670772,0.744788,-1.412039,0.764928,-0.116810,-0.222304,0.630195,0.005718,-0.446946,-1.180565,2.726208,0.892270,4.190362,11.436019,9.215044,0.000556,-0.061364,0.000000,0.265343,0.109341,0.000000
0.980000,-2.663092,0.743621,-1.414284,0.771172,-0.116614,-0.226728,0.618608,0.033549,-0.437560,-1.135794,2.839575,0.985226,4.766158,11.232116,9.374392,0.003268,-0.060293,0.000000,0.276926,0.104650,0.000000
0.990000,-2.655349,0.742457,-1.416573,0.777302,-0.116135,-0.231053,0.607495,0.062503,-0.427236,-1.086345,2.950896,1.079839,5.068601,11.034454,9.552173,0.006095,-0.059272,0.000000,0.288413,0.099505,0.000000
1.000000,-2.647546,0.741299,-1.418905,0.783323,-0.115361,-0.235269,0.596890,0.092560,-0.415957,-1.033946,3.060099,1.176194,5.467615,10.793769,9.711839,0.009036,-0.058304,0.000000,0.299804,0.094072,0.000000
1.010000,-2.639683,0.740151,-1.421278,0.789241,-0.114280,-0.239368,0.586832,0.123696,-0.403707,-0.976895,3.166560,1.274106,5.872996,10.519268,9.862941,0.012090,-0.057392,0.000000,0.311044,0.088181,0.000000
1.020000,-2.631761,0.739015,-1.423692,0.795062,-0.112883,-0.243340,0.577360,0.155884,-0.390471,-0.917123,3.270618,1.373366,6.149147,10.261562,9.993193,0.015256,-0.056541,0.000000,0.322172,0.082017,0.000000
1.030000,-2.623782,0.737894,-1.426145,0.800791,-0.111159,-0.247175,0.568506,0.189096,-0.376235,-0.852491,3.371149,1.474054,6.779378,9.838307,10.142653,0.018533,-0.055753,0.000000,0.333083,0.075366,0.000000
1.040000,-2.615746,0.736793,-1.428635,0.806434,-0.109098,-0.250861,0.560327,0.223293,-0.360985,-0.782907,3.467786,1.576069,7.068853,9.509129,10.252761,0.021917,-0.055035,0.000000,0.343747,0.068214,0.000000
1.050000,-2.607654,0.735713,-1.431161,0.811999,-0.106690,-0.254391,0.552856,0.258441,-0.344710,-0.710533,3.561001,1.679121,7.473045,9.102464,10.361302,0.025407,-0.054390,0.000000,0.354214,0.060769,0.000000
1.060000,-2.599506,0.734660,-1.433722,0.817494,-0.103926,-0.257752,0.546132,0.294498,-0.327398,-0.633689,3.649663,1.783459,7.872482,8.658885,10.462220,0.029000,-0.053821,0.000000,0.364378,0.052856,0.000000
1.070000,-2.591304,0.733636,-1.436316,0.822925,-0.100797,-0.260935,0.540194,0.331421,-0.309041,-0.553305,3.734380,1.887936,8.225637,8.244919,10.471948,0.032694,-0.053333,0.000000,0.374300,0.044569,0.000000
1.080000,-2.583048,0.732645,-1.438940,0.828300,-0.097295,-0.263930,0.535080,0.369167,-0.289635,-0.468727,3.813736,1.993712,8.689781,7.619298,10.682162,0.036485,-0.052931,0.000000,0.383846,0.035827,-0.000000
1.090000,-2.574738,0.731691,-1.441594,0.833629,-0.093411,-0.266724,0.530833,0.407677,-0.269162,-0.379976,3.887326,2.100707,9.037027,7.126479,10.673408,0.040370,-0.052618,0.000000,0.392980,0.026627,-0.000000
1.100000,-2.566375,0.730778,-1.444274,0.838920,-0.089139,-0.269309,0.527491,0.446898,-0.247622,-0.287820,3.955858,2.207478,9.415334,6.539626,10.719745,0.044344,-0.052399,0.000000,0.401767,0.017042,0.000000
1.110000,-2.557960,0.729910,-1.446979,0.844182,-0.084471,-0.271673,0.525092,0.486770,-0.225010,-0.191402,4.017595,2.314956,9.792490,5.906281,10.750764,0.048403,-0.052278,0.000000,0.410041,0.006975,0.000000
1.120000,-2.549492,0.729090,-1.449707,0.849425,-0.079402,-0.273806,0.523670,0.527236,-0.201324,-0.092685,4.074823,2.422235,10.021336,5.431684,10.723912,0.052544,-0.052260,0.000000,0.418025,-0.003384,0.000000
1.130000,-2.540971,0.728323,-1.452455,0.854659,-0.073925,-0.275696,0.523254,0.568239,-0.176564,0.010504,4.123972,2.529833,10.616783,4.388644,10.793568,0.056761,-0.052348,0.000000,0.425365,-0.014263,0.000000
1.140000,-2.532399,0.727613,-1.455220,0.859894,-0.068035,-0.277334,0.523895,0.609686,-0.150726,0.118151,4.164528,2.637608,10.837515,3.819162,10.736647,0.061049,-0.052548,0.000000,0.432007,-0.025670,0.000000
1.150000,-2.523773,0.726964,-1.458000,0.865140,-0.061730,-0.278707,0.525622,0.651512,-0.123815,0.227833,4.199360,2.744688,11.168570,3.038861,10.698155,0.065400,-0.052863,0.000000,0.438230,-0.037370,0.000000
1.160000,-2.515096,0.726380,-1.460793,0.870410,-0.055004,-0.279806,0.528465,0.693641,-0.095833,0.341240,4.224921,2.851643,11.482665,2.212557,10.643981,0.069810,-0.053298,0.000000,0.443678,-0.049544,-0.000000
1.170000,-2.506365,0.725865,-1.463596,0.875714,-0.047856,-0.280620,0.532455,0.735994,-0.066788,0.457177,4.244826,2.957082,11.728459,1.621711,10.484452,0.074273,-0.053858,0.000000,0.448699,-0.062076,0.000000
1.180000,-2.497581,0.725424,-1.466405,0.881063,-0.040284,-0.281139,0.537619,0.778502,-0.036692,0.576311,4.254282,3.062186,12.096090,0.259262,10.534175,0.078781,-0.054545,0.000000,0.452814,-0.075050,0.000000
1.190000,-2.488744,0.725061,-1.469217,0.886470,-0.032286,-0.281351,0.543991,0.821042,-0.005545,0.698491,4.252746,3.166799,12.309341,-0.429979,10.339929,0.083326,-0.055365,0.000000,0.455957,-0.088462,0.000000
1.200000,-2.479852,0.724780,-1.472031,0.891947,-0.023863,-0.281246,0.551595,0.863536,0.026636,0.822656,4.244364,3.269285,12.547045,-1.393504,10.197743,0.087899,-0.056321,0.000000,0.458525,-0.102206,0.000000
1.210000,-2.470904,0.724585,-1.474841,0.897506,-0.015016,-0.280814,0.560453,0.905888,0.059838,0.949215,4.224260,3.370758,12.759738,-2.405521,10.034132,0.092492,-0.057418,0.000000,0.460023,-0.116340,0.000000
1.220000,-2.461901,0.724481,-1.477646,0.903160,-0.005746,-0.280046,0.570586,0.948006,0.094041,1.077749,4.198238,3.469333,12.944544,-3.023813,9.734047,0.097098,-0.058659,0.000000,0.461009,-0.130823,-0.000000
1.230000,-2.452841,0.724472,-1.480441,0.908922,0.003943,-0.278930,0.582014,0.989808,0.129220,1.208057,4.159068,3.566555,13.112524,-4.821676,9.707460,0.101708,-0.060048,0.000000,0.460750,-0.145653,0.000000
1.240000,-2.443722,0.724561,-1.483223,0.914805,0.014048,-0.277458,0.594752,1.031140,0.165367,1.339871,4.106168,3.662224,13.243747,-5.540382,9.363389,0.106308,-0.061589,0.000000,0.459166,-0.160812,-0.000000
1.250000,-2.434544,0.724754,-1.485989,0.920822,0.024564,-0.275620,0.608815,1.071912,0.202451,1.472843,4.046292,3.754213,13.348035,-6.660172,9.087458,0.110890,-0.063284,0.000000,0.456908,-0.176261,0.000000
1.260000,-2.425305,0.725054,-1.488734,0.926986,0.035485,-0.273406,0.624217,1.112015,0.240439,1.607980,3.972237,3.842633,13.446389,-7.824173,8.758201,0.115441,-0.065137,0.000000,0.453216,-0.192113,0.000000
1.270000,-2.416004,0.725465,-1.491456,0.933310,0.046802,-0.270808,0.640959,1.151344,0.279306,1.739563,3.892784,3.930806,13.085159,-8.389549,8.708963,0.119953,-0.067151,0.000000,0.449018,-0.207809,0.000000
1.280000,-2.406639,0.725991,-1.494149,0.939809,0.058509,-0.267817,0.659021,1.189816,0.319035,1.874202,3.797672,4.013303,13.843330,-10.644950,7.779985,0.124416,-0.069325,0.000000,0.443166,-0.224000,0.000000
1.290000,-2.397207,0.726636,-1.496811,0.946495,0.070595,-0.264425,0.678454,1.227241,0.359550,2.011828,3.686326,4.089571,13.451945,-11.302450,7.631638,0.128810,-0.071668,0.000000,0.435555,-0.240687,-0.000000
1.300000,-2.387708,0.727404,-1.499436,0.953383,0.083050,-0.260624,0.699238,1.263528,0.400824,2.144998,3.568853,4.164432,13.396941,-12.515285,7.172272,0.133125,-0.074178,0.000000,0.427278,-0.257132,0.000000
1.310000,-2.378139,0.728299,-1.502022,0.960484,0.095861,-0.256406,0.721327,1.298582,0.442826,2.271683,3.440434,4.235350,13.149068,-13.657164,6.720741,0.137352,-0.076854,0.000000,0.417783,-0.273102,0.000000
1.320000,-2.368498,0.729323,-1.504563,0.967814,0.109017,-0.251765,0.744762,1.332259,0.485493,2.419029,3.291213,4.296109,15.133127,-15.713490,5.701173,0.141472,-0.079702,0.000000,0.405881,-0.291408,-0.000000
1.330000,-2.358782,0.730480,-1.507056,0.975385,0.122501,-0.246694,0.769642,1.364391,0.528744,2.549433,3.136112,4.355049,10.904545,-15.291840,6.088982,0.145467,-0.082735,0.000000,0.393261,-0.308166,0.000000
1.340000,-2.348989,0.731774,-1.509495,0.983210,0.136299,-0.241188,0.795678,1.394967,0.572590,2.660876,2.975796,4.412168,12.569807,-17.249218,5.049145,0.149336,-0.085924,0.000000,0.379985,-0.323135,0.000000
1.350000,-2.339117,0.733207,-1.511878,0.991302,0.150395,-0.235241,0.822942,1.423831,0.616946,2.790604,2.795198,4.458270,12.183095,-18.393355,4.441276,0.153058,-0.089280,0.000000,0.364235,-0.340186,0.000000
1.360000,-2.329162,0.734783,-1.514199,0.999673,0.164770,-0.228848,0.851478,1.450811,0.661727,2.916856,2.597957,4.496277,11.965265,-19.712019,3.710334,0.156613,-0.092808,0.000000,0.346420,-0.357033,-0.000000
1.370000,-2.319122,0.736503,-1.516453,1.008336,0.179405,-0.222005,0.881182,1.475855,0.706892,3.019719,2.413336,4.537462,9.667270,-18.511608,3.978513,0.159993,-0.096499,0.000000,0.329844,-0.371639,-0.000000
1.380000,-2.308994,0.738372,-1.518637,1.017300,0.194280,-0.214709,0.911913,1.498974,0.752424,3.132457,2.200450,4.564347,12.908555,-24.102668,1.374653,0.163197,-0.100341,0.000000,0.309788,-0.387377,-0.000000
1.390000,-2.298775,0.740390,-1.520746,1.026578,0.209376,-0.206956,0.943876,1.519754,0.798123,3.256244,1.957706,4.575759,10.768277,-23.126767,1.446915,0.166175,-0.104356,0.000000,0.285968,-0.404362,0.000000
1.400000,-2.288462,0.742560,-1.522775,1.036182,0.224668,-0.198746,0.976942,1.538190,0.843953,3.356837,1.726870,4.588511,10.415876,-24.344156,0.552631,0.168923,-0.108532,0.000000,0.263193,-0.419058,0.000000
1.410000,-2.278051,0.744884,-1.524719,1.046120,0.240132,-0.190077,1.011008,1.554221,0.889844,3.455181,1.477365,4.587877,9.887257,-25.445088,-0.379648,0.171429,-0.112858,0.000000,0.237849,-0.433538,-0.000000
1.420000,-2.267538,0.747363,-1.526575,1.056405,0.255744,-0.180949,1.046079,1.567710,0.935704,3.560351,1.219098,4.583612,10.519149,-26.299122,-0.776310,0.173675,-0.117336,0.000000,0.211123,-0.448894,0.000000
1.430000,-2.256921,0.749999,-1.528337,1.067045,0.271477,-0.171363,1.082167,1.578564,0.981469,3.652394,0.949482,4.566001,7.864048,-27.616081,-2.760635,0.175645,-0.121968,0.000000,0.182560,-0.462804,0.000000
1.440000,-2.246196,0.752793,-1.530001,1.078051,0.287306,-0.161320,1.119074,1.586663,1.026975,3.730088,0.669044,4.534301,8.296389,-28.357500,-3.284612,0.177320,-0.126730,0.000000,0.152172,-0.475068,-0.000000
1.450000,-2.235359,0.755745,-1.531562,1.089430,0.303201,-0.150825,1.156796,1.591924,1.072144,3.812881,0.381738,4.497665,7.631426,-29.190789,-4.346146,0.178685,-0.131624,0.000000,0.120491,-0.487924,0.000000
1.460000,-2.224406,0.758857,-1.533016,1.101189,0.319135,-0.139879,1.195273,1.594293,1.116887,3.880679,0.091526,4.449063,6.870215,-29.820658,-5.410748,0.179727,-0.136640,0.000000,0.087847,-0.499020,-0.000000
1.470000,-2.213334,0.762128,-1.534358,1.113337,0.335077,-0.128489,1.234461,1.593655,1.161087,3.958905,-0.223420,4.389084,7.852667,-32.197612,-6.558189,0.180428,-0.141773,0.000000,0.051747,-0.511147,-0.000000
1.480000,-2.202138,0.765558,-1.535584,1.125881,0.350997,-0.116659,1.274382,1.589853,1.204633,4.018381,-0.532048,4.318469,4.010867,-29.481561,-7.567245,0.180763,-0.147023,0.000000,0.015694,-0.521034,-0.000000
1.490000,-2.190815,0.769148,-1.536690,1.138827,0.366864,-0.104398,1.314754,1.583051,1.247421,4.057653,-0.832034,4.237059,4.768750,-31.462677,-8.748373,0.180744,-0.152357,0.000000,-0.020025,-0.528446,0.000000
1.500000,-2.179360,0.772895,-1.537670,1.152178,0.382648,-0.091714,1.355581,1.573126,1.289334,4.105860,-1.152764,4.143704,3.947172,-31.704417,-9.894018,0.180351,-0.157771,0.000000,-0.058807,-0.536588,0.000000
1.510000,-2.167770,0.776800,-1.538522,1.165940,0.398316,-0.078615,1.396857,1.560019,1.330250,4.149148,-1.468801,4.037301,3.334403,-31.858960,-11.088429,0.179568,-0.163262,0.000000,-0.097790,-0.543844,0.000000
1.520000,-2.156040,0.780861,-1.539241,1.180116,0.413837,-0.065113,1.438432,1.543717,1.370064,4.159887,-1.793018,3.924664,0.148367,-32.603347,-11.731725,0.178390,-0.168810,0.000000,-0.138174,-0.547161,0.000000
1.530000,-2.144166,0.785076,-1.539823,1.194708,0.429180,-0.051218,1.480097,1.524176,1.408689,4.180141,-2.112881,3.796528,3.943981,-31.339205,-13.905269,0.176804,-0.174385,0.000000,-0.178851,-0.551070,0.000000
1.540000,-2.132144,0.789444,-1.540265,1.209719,0.444310,-0.036943,1.522083,1.501482,1.445939,4.211754,-2.426765,3.652443,1.030469,-31.784890,-14.617732,0.174813,-0.180009,0.000000,-0.219616,-0.555731,-0.000000
1.550000,-2.119971,0.793962,-1.540561,1.225151,0.459199,-0.022304,1.564204,1.475619,1.481721,4.212181,-2.745086,3.501687,0.398118,-31.495195,-15.826710,0.172408,-0.185656,0.000000,-0.261279,-0.556440,0.000000
1.560000,-2.107640,0.798627,-1.540709,1.241003,0.473812,-0.007314,1.606322,1.446622,1.515928,4.209737,-3.052941,3.337793,-0.380985,-31.008650,-17.005355,0.169590,-0.191303,0.000000,-0.302313,-0.556236,0.000000
1.570000,-2.095149,0.803437,-1.540706,1.257277,0.488121,0.008009,1.648414,1.414501,1.548433,4.209210,-3.373640,3.161109,-0.217022,-32.189052,-18.276442,0.166353,-0.196942,0.000000,-0.345354,-0.555630,-0.000000
1.580000,-2.082493,0.808388,-1.540548,1.273971,0.502092,0.023648,1.690457,1.379214,1.579114,4.195058,-3.676961,2.973422,-2.629083,-28.428044,-19.256751,0.162689,-0.202563,0.000000,-0.386764,-0.552838,0.000000
1.590000,-2.069668,0.813478,-1.540232,1.291085,0.515695,0.039585,1.732264,1.341035,1.607866,4.166571,-3.960531,2.774959,-2.571970,-29.200875,-20.486273,0.158626,-0.208138,0.000000,-0.426158,-0.547733,-0.000000
1.600000,-2.056670,0.818701,-1.539756,1.308616,0.528903,0.055799,1.773801,1.299959,1.634571,4.139409,-4.252715,2.564222,-3.356135,-28.289605,-21.604040,0.154160,-0.213656,0.000000,-0.466838,-0.542047,-0.000000
1.610000,-2.043495,0.824054,-1.539115,1.326560,0.541685,0.072269,1.815021,1.256031,1.659106,4.103335,-4.531341,2.340625,-4.082421,-27.346504,-22.741262,0.149294,-0.219103,0.000000,-0.506103,-0.534549,-0.000000
1.620000,-2.030137,0.829533,-1.538309,1.344915,0.554014,0.088973,1.855826,1.209371,1.681376,4.055706,-4.798657,2.112897,-5.225323,-26.171604,-23.157490,0.144043,-0.224460,0.000000,-0.543957,-0.525132,0.000000
1.630000,-2.016595,0.835133,-1.537335,1.363675,0.565864,0.105889,1.896121,1.160091,1.701311,4.003409,-5.055945,1.870064,-5.226589,-25.273077,-25.413967,0.138419,-0.229711,0.000000,-0.580661,-0.514288,-0.000000
1.640000,-2.002863,0.840849,-1.536191,1.382835,0.577208,0.122991,1.935881,1.108288,1.718724,3.946784,-5.302392,1.612009,-6.317442,-23.930221,-25.827663,0.132434,-0.234841,0.000000,-0.616005,-0.502023,0.000000
1.650000,-1.988937,0.846675,-1.534875,1.402390,0.588022,0.140255,1.975015,1.054091,1.733546,3.878938,-5.534863,1.350592,-7.031873,-22.621121,-26.808307,0.126106,-0.239833,0.000000,-0.649302,-0.487858,-0.000000
1.660000,-1.974814,0.852607,-1.533385,1.422333,0.598282,0.157653,2.013436,0.997649,1.745696,3.803923,-5.750784,1.077997,-7.776967,-21.157025,-27.711940,0.119456,-0.244671,0.000000,-0.680280,-0.472049,0.000000
1.670000,-1.960489,0.858639,-1.531721,1.442657,0.607967,0.175159,2.051085,0.939076,1.755076,3.725195,-5.963331,0.796452,-8.155130,-20.750496,-28.576699,0.112502,-0.249338,0.000000,-0.710376,-0.455063,0.000000
1.680000,-1.945959,0.864765,-1.529882,1.463352,0.617057,0.192745,2.087907,0.878462,1.761599,3.636907,-6.153178,0.506891,-9.506938,-17.188829,-29.323913,0.105260,-0.253824,0.000000,-0.737167,-0.436266,0.000000
1.690000,-1.931221,0.870978,-1.527866,1.484412,0.625531,0.210382,2.123789,0.816098,1.765189,3.538877,-6.318810,0.210000,-9.908391,-16.522137,-30.052672,0.097771,-0.258106,0.000000,-0.760373,-0.415683,0.000000
1.700000,-1.916270,0.877273,-1.525674,1.505825,0.633373,0.228039,2.158675,0.752096,1.765776,3.437165,-6.478368,-0.093824,-10.620861,-14.786768,-30.688664,0.090056,-0.262174,0.000000,-0.782088,-0.394058,0.000000
1.710000,-1.901103,0.883643,-1.523306,1.527582,0.640568,0.245687,2.192499,0.686615,1.763308,3.326202,-6.614488,-0.400232,-11.335080,-12.976372,-31.178248,0.082142,-0.266014,0.000000,-0.800121,-0.370924,0.000000
1.720000,-1.885717,0.890082,-1.520761,1.549671,0.647101,0.263295,2.225195,0.619823,1.757707,3.212678,-6.742787,-0.722611,-11.595481,-12.145447,-32.702777,0.074058,-0.269614,0.000000,-0.816415,-0.346678,-0.000000
1.730000,-1.870109,0.896583,-1.518040,1.572082,0.652960,0.280830,2.256719,0.551846,1.748871,3.089555,-6.846122,-1.041811,-13.033156,-8.499722,-31.104347,0.065828,-0.272963,0.000000,-0.828691,-0.321163,0.000000
1.740000,-1.854274,0.903139,-1.515144,1.594801,0.658135,0.298262,2.286952,0.482991,1.736892,2.956698,-6.923443,-1.356143,-13.304306,-7.497285,-32.333078,0.057499,-0.276048,0.000000,-0.836832,-0.294495,0.000000
1.750000,-1.838212,0.909744,-1.512075,1.617816,0.662618,0.315557,2.315849,0.413399,1.721695,2.821580,-6.991454,-1.683197,-13.944426,-5.568154,-32.477345,0.049097,-0.278860,0.000000,-0.842950,-0.267024,0.000000
1.760000,-1.821917,0.916389,-1.508834,1.641113,0.666401,0.332685,2.343368,0.343226,1.703245,2.681479,-7.040281,-2.006794,-14.497778,-3.718020,-32.531680,0.040651,-0.281393,0.000000,-0.845772,-0.239028,0.000000
1.770000,-1.805388,0.923069,-1.505422,1.664679,0.669481,0.349611,2.369426,0.272694,1.681534,2.527791,-7.061411,-2.336324,-15.821937,-0.972696,-33.062331,0.032196,-0.283638,0.000000,-0.844362,-0.209295,-0.000000
1.780000,-1.788623,0.929777,-1.501842,1.688497,0.671855,0.366304,2.393926,0.202038,1.656535,2.373810,-7.069503,-2.661506,-14.956914,-0.661823,-31.948868,0.023771,-0.285583,0.000000,-0.840478,-0.179749,0.000000
1.790000,-1.771618,0.936504,-1.498097,1.712552,0.673522,0.382731,2.416907,0.131341,1.628325,2.220379,-7.065299,-2.980971,-16.142013,1.968681,-32.227040,0.015394,-0.287236,0.000000,-0.834269,-0.150594,0.000000
1.800000,-1.754371,0.943245,-1.494189,1.736830,0.674482,0.398860,2.438285,0.060830,1.596901,2.054604,-7.034175,-3.303182,-16.592207,3.785261,-31.901248,0.007100,-0.288590,0.000000,-0.824108,-0.120168,0.000000
1.810000,-1.736880,0.949991,-1.490121,1.761312,0.674739,0.414659,2.457994,-0.009291,1.562292,1.886350,-6.986977,-3.617682,-17.042575,5.610531,-31.446229,-0.001080,-0.289641,0.000000,-0.811352,-0.089998,-0.000000
1.820000,-1.719144,0.956737,-1.485897,1.785984,0.674298,0.430096,2.475998,-0.078852,1.524527,1.713949,-6.922430,-3.936051,-17.443898,7.330855,-31.761958,-0.009118,-0.290389,0.000000,-0.795950,-0.059576,0.000000
1.830000,-1.701160,0.963475,-1.481520,1.810826,0.673165,0.445139,2.492258,-0.147679,1.483612,1.537337,-6.839695,-4.243159,-17.874161,9.210251,-29.629859,-0.016990,-0.290833,0.000000,-0.777918,-0.029456,0.000000
1.840000,-1.682927,0.970198,-1.476995,1.835823,0.671348,0.459758,2.506732,-0.215586,1.439710,1.356785,-6.739142,-4.537438,-18.220353,10.854044,-29.664648,-0.024668,-0.290979,0.000000,-0.757447,0.000229,0.000000
1.850000,-1.664443,0.976900,-1.472327,1.860955,0.668857,0.473923,2.519383,-0.282408,1.392853,1.172932,-6.622465,-4.832296,-18.556027,12.510180,-28.838500,-0.032132,-0.290829,0.000000,-0.734817,0.029801,-0.000000
1.860000,-1.645707,0.983573,-1.467519,1.886204,0.665704,0.487605,2.530175,-0.347980,1.343118,0.984818,-6.489136,-5.112675,-18.880809,14.108783,-27.879484,-0.039358,-0.290385,0.000000,-0.710140,0.058830,-0.000000
1.870000,-1.626719,0.990212,-1.462576,1.911552,0.661902,0.500776,2.539084,-0.412142,1.290580,0.797084,-6.340845,-5.395645,-18.836163,15.573136,-28.063583,-0.046328,-0.289653,0.000000,-0.683653,0.087335,0.000000
1.880000,-1.607476,0.996809,-1.457505,1.936980,0.657466,0.513408,2.546100,-0.474745,1.235271,0.604519,-6.177174,-5.660303,-19.676695,17.149511,-24.835134,-0.053026,-0.288638,0.000000,-0.655527,0.115177,-0.000000
1.890000,-1.587979,1.003359,-1.452310,1.962468,0.652413,0.525473,2.551157,-0.535636,1.177445,0.407213,-5.998837,-5.904987,-19.601600,18.468227,-24.733010,-0.059434,-0.287349,0.000000,-0.626003,0.142280,0.000000
1.900000,-1.568227,1.009855,-1.446997,1.987996,0.646760,0.536948,2.554251,-0.594680,1.117162,0.211105,-5.807798,-6.149266,-19.790953,19.760346,-23.470568,-0.065542,-0.285790,0.000000,-0.595278,0.168619,0.000000
1.910000,-1.548219,1.016292,-1.441573,2.013546,0.640526,0.547809,2.555379,-0.651770,1.054520,0.014487,-5.608841,-6.376826,-19.891834,20.863304,-22.169936,-0.071339,-0.283973,0.000000,-0.564080,0.193864,0.000000
1.920000,-1.527956,1.022664,-1.436043,2.039097,0.633731,0.558031,2.554508,-0.706753,0.989658,-0.189971,-5.383053,-6.593747,-20.639089,23.454897,-21.070456,-0.076813,-0.281903,0.000000,-0.530427,0.218974,0.000000
1.930000,-1.507437,1.028965,-1.430415,2.064629,0.626398,0.567595,2.551594,-0.759438,0.922698,-0.390725,-5.157353,-6.795236,-19.494404,21.642463,-19.215046,-0.081950,-0.279585,0.000000,-0.497358,0.242604,0.000000
1.940000,-1.486663,1.035190,-1.424694,2.090123,0.618550,0.576479,2.546712,-0.809914,0.853808,-0.586913,-4.933900,-6.980614,-20.095300,23.861681,-17.989094,-0.086764,-0.277040,0.000000,-0.465143,0.264679,0.000000
1.950000,-1.465635,1.041334,-1.418887,2.115557,0.610208,0.584665,2.539829,-0.858025,0.783124,-0.789471,-4.687524,-7.153730,-20.053409,24.567573,-16.492508,-0.091245,-0.274272,0.000000,-0.431159,0.286466,0.000000
1.960000,-1.444352,1.047393,-1.413003,2.140913,0.601397,0.592136,2.530934,-0.903673,0.710789,-0.989304,-4.441261,-7.310666,-19.990074,25.165737,-14.961324,-0.095391,-0.271291,0.000000,-0.397931,0.306942,-0.000000
1.970000,-1.422817,1.053361,-1.407047,2.166169,0.592143,0.598876,2.520038,-0.946791,0.636956,-1.189918,-4.179963,-7.453509,-20.046950,26.591289,-13.534338,-0.099200,-0.268108,0.000000,-0.363898,0.326561,0.000000
1.980000,-1.401029,1.059234,-1.401028,2.191307,0.582470,0.604870,2.507143,-0.987280,0.561774,-1.388452,-3.919971,-7.579838,-19.651924,25.374128,-11.726170,-0.102672,-0.264732,0.000000,-0.330825,0.345005,-0.000000
1.990000,-1.378991,1.065009,-1.394952,2.216305,0.572406,0.610107,2.492278,-1.025205,0.485416,-1.584468,-3.663026,-7.689367,-19.626765,26.486640,-10.246653,-0.105821,-0.261175,0.000000,-0.298893,0.362269,-0.000000
2.000000,-1.356704,1.070681,-1.388828,2.241146,0.561975,0.614575,2.475453,-1.060494,0.408035,-1.780195,-3.394751,-7.784148,-19.433068,26.663023,-8.639661,-0.108648,-0.257448,0.000000,-0.266628,0.378676,0.000000
2.010000,-1.334169,1.076247,-1.382663,2.265808,0.551205,0.618265,2.456686,-1.093117,0.329785,-1.972875,-3.130048,-7.863297,-19.202660,26.715136,-7.049010,-0.111158,-0.253561,0.000000,-0.235560,0.393977,0.000000
2.020000,-1.311388,1.081704,-1.376465,2.290273,0.540122,0.621169,2.435995,-1.123058,0.250833,-2.165114,-2.856607,-7.923838,-19.138966,27.514560,-5.196805,-0.113358,-0.249523,0.000000,-0.204484,0.408403,0.000000
2.030000,-1.288364,1.087049,-1.370243,2.314521,0.528753,0.623280,2.413397,-1.150273,0.171355,-2.353429,-2.589359,-7.970129,-18.516411,25.904668,-4.067351,-0.115253,-0.245343,0.000000,-0.174837,0.421774,-0.000000
2.040000,-1.265099,1.092278,-1.364003,2.338535,0.517125,0.624594,2.388942,-1.174875,0.091476,-2.537410,-2.329913,-8.002462,-18.378117,26.413869,-2.263767,-0.116861,-0.241034,0.000000,-0.146734,0.434107,0.000000
2.050000,-1.241594,1.097390,-1.357753,2.362294,0.505264,0.625109,2.362652,-1.196846,0.011368,-2.720039,-2.065185,-8.016638,-18.041520,26.072029,-0.712495,-0.118188,-0.236604,0.000000,-0.118916,0.445642,0.000000
2.060000,-1.217854,1.102383,-1.351503,2.385782,0.493197,0.624822,2.334556,-1.216208,-0.068814,-2.898433,-1.808147,-8.017463,-17.682123,25.632015,0.795673,-0.119244,-0.232062,0.000000,-0.092571,0.456265,0.000000
2.070000,-1.193880,1.107254,-1.345260,2.408979,0.480948,0.623733,2.304692,-1.233000,-0.148911,-3.074035,-1.549964,-7.998502,-17.389497,25.687191,2.747125,-0.120041,-0.227417,0.000000,-0.066882,0.466020,0.000000
2.080000,-1.169675,1.112001,-1.339031,2.431870,0.468545,0.621844,2.273091,-1.247241,-0.228747,-3.245203,-1.301047,-7.967761,-16.839458,24.073078,3.387809,-0.120587,-0.222677,0.000000,-0.042726,0.474981,0.000000
2.090000,-1.145243,1.116624,-1.332825,2.454436,0.456012,0.619159,2.239804,-1.259058,-0.308231,-3.411684,-1.062640,-7.925923,-16.499717,23.901182,5.220071,-0.120901,-0.217850,0.000000,-0.020163,0.483179,0.000000
2.100000,-1.120588,1.121121,-1.326651,2.476660,0.443372,0.615681,2.204868,-1.268494,-0.387199,-3.574751,-0.825876,-7.865589,-16.065691,23.134665,6.593594,-0.120993,-0.212945,0.000000,0.001607,0.490625,-0.000000
2.110000,-1.095711,1.125491,-1.320514,2.498528,0.430650,0.611417,2.168324,-1.275615,-0.465512,-3.733248,-0.599848,-7.794998,-15.621226,22.290890,7.896679,-0.120874,-0.207968,0.000000,0.021860,0.497425,0.000000
2.120000,-1.070618,1.129734,-1.314425,2.520022,0.417867,0.606374,2.130219,-1.280501,-0.543026,-3.887038,-0.378148,-7.704318,-15.144708,21.813976,9.862957,-0.120558,-0.202926,0.000000,0.041132,0.503417,0.000000
2.130000,-1.045312,1.133849,-1.308389,2.541127,0.405047,0.600560,2.090598,-1.283219,-0.619574,-4.036313,-0.168487,-7.605638,-14.708909,20.101501,9.853201,-0.120057,-0.197827,0.000000,0.058881,0.508896,0.000000
2.140000,-1.019797,1.137835,-1.302416,2.561829,0.392209,0.593986,2.049508,-1.283916,-0.695118,-4.180983,0.028242,-7.499972,-14.213649,19.462386,11.643187,-0.119386,-0.192676,0.000000,0.075086,0.513896,-0.000000
2.150000,-0.994077,1.141693,-1.296512,2.582112,0.379375,0.586661,2.006996,-1.282672,-0.769507,-4.320644,0.218668,-7.376110,-13.727323,18.389045,12.749396,-0.118558,-0.187478,0.000000,0.090282,0.518217,-0.000000
2.160000,-0.968156,1.145422,-1.290685,2.601964,0.366562,0.578600,1.963109,-1.279585,-0.842620,-4.455833,0.396897,-7.245024,-13.241597,17.282563,13.788079,-0.117585,-0.182240,0.000000,0.104085,0.522134,0.000000
2.170000,-0.942039,1.149024,-1.284943,2.621370,0.353789,0.569814,1.917901,-1.274769,-0.914347,-4.584832,0.564491,-7.097503,-12.623586,16.198655,15.387192,-0.116481,-0.176965,0.000000,0.116588,0.525371,-0.000000
2.180000,-0.915730,1.152498,-1.279291,2.640318,0.341072,0.560318,1.871426,-1.268335,-0.984553,-4.709680,0.720097,-6.944178,-12.347542,14.916579,15.258275,-0.115258,-0.171661,0.000000,0.127817,0.528316,0.000000
2.190000,-0.889234,1.155846,-1.273739,2.658795,0.328427,0.550128,1.823720,-1.260408,-1.053217,-4.830439,0.863372,-6.786059,-11.737183,13.766214,16.678860,-0.113929,-0.166329,0.000000,0.137788,0.531004,-0.000000
2.200000,-0.862556,1.159067,-1.268291,2.676788,0.315869,0.539259,1.774839,-1.251105,-1.120221,-4.944987,0.995082,-6.613532,-11.238904,12.540483,17.495522,-0.112506,-0.160974,0.000000,0.146512,0.533126,0.000000
2.210000,-0.835700,1.162164,-1.262956,2.694288,0.303409,0.527729,1.724834,-1.240546,-1.185475,-5.055271,1.114748,-6.436160,-10.744591,11.309732,18.245556,-0.111002,-0.155600,0.000000,0.154074,0.535021,0.000000
2.220000,-0.808672,1.165136,-1.257739,2.711281,0.291061,0.515556,1.673756,-1.228858,-1.248898,-5.159208,1.220498,-6.246267,-10.114201,9.917343,19.455916,-0.109429,-0.150209,0.000000,0.160268,0.536417,0.000000
2.230000,-0.781476,1.167985,-1.252647,2.727759,0.278835,0.502758,1.621663,-1.216174,-1.310390,-5.259057,1.314724,-6.052850,-9.858312,8.929866,19.210067,-0.107800,-0.144807,0.000000,0.165421,0.537655,0.000000
2.240000,-0.754119,1.170713,-1.247686,2.743711,0.266741,0.489354,1.568588,-1.202601,-1.369948,-5.354944,1.397508,-5.856826,-9.247727,7.548342,20.256242,-0.106124,-0.139394,0.000000,0.169572,0.538764,-0.000000
2.250000,-0.726604,1.173321,-1.242861,2.759128,0.254786,0.475365,1.514586,-1.188272,-1.427487,-5.444633,1.466380,-5.650196,-8.762687,6.306204,20.791289,-0.104413,-0.133972,0.000000,0.172456,0.539466,0.000000
2.260000,-0.698938,1.175809,-1.238180,2.774000,0.242978,0.460811,1.459708,-1.173309,-1.482945,-5.530200,1.524117,-5.440803,-8.285165,5.086497,21.270970,-0.102678,-0.128546,0.000000,0.174409,0.540049,-0.000000
2.270000,-0.671126,1.178181,-1.233647,2.788319,0.231321,0.445714,1.404003,-1.157843,-1.536272,-5.609744,1.566717,-5.223174,-7.688929,3.588477,22.060329,-0.100930,-0.123116,0.000000,0.175057,0.540297,0.000000
2.280000,-0.643173,1.180436,-1.229268,2.802078,0.219822,0.430093,1.347526,-1.142008,-1.587404,-5.685349,1.599144,-5.003666,-7.435136,2.905149,21.827741,-0.099179,-0.117685,0.000000,0.174900,0.540472,-0.000000
2.290000,-0.615086,1.182578,-1.225047,2.815267,0.208482,0.413973,1.290308,-1.125891,-1.636343,-5.757166,1.621822,-4.783001,-6.864442,1.481300,22.486097,-0.097434,-0.112253,0.000000,0.173994,0.540596,0.000000
2.300000,-0.586870,1.184606,-1.220990,2.827882,0.197305,0.397374,1.232403,-1.109622,-1.683039,-5.823214,1.630168,-4.555688,-6.410986,0.345796,22.782170,-0.095704,-0.106822,0.000000,0.171910,0.540450,0.000000
2.310000,-0.558530,1.186524,-1.217101,2.839913,0.186290,0.380320,1.173856,-1.093316,-1.727454,-5.885479,1.629240,-4.327099,-5.968955,-0.743436,23.037579,-0.093998,-0.101394,0.000000,0.169137,0.540265,-0.000000
2.320000,-0.530074,1.188333,-1.213385,2.851357,0.175438,0.362833,1.114714,-1.077091,-1.769564,-5.941935,1.613415,-4.094067,-5.395602,-2.204143,23.457479,-0.092325,-0.095970,0.000000,0.165179,0.539842,0.000000
2.330000,-0.501505,1.190033,-1.209846,2.862206,0.164747,0.344936,1.055028,-1.061073,-1.809334,-5.994932,1.589722,-3.860277,-5.207388,-2.521169,23.291584,-0.090696,-0.090551,0.000000,0.160669,0.539419,0.000000
2.340000,-0.472832,1.191628,-1.206487,2.872456,0.154216,0.326654,0.994825,-1.045318,-1.846769,-6.044650,1.558860,-3.626217,-4.664829,-3.857193,23.621265,-0.089113,-0.085137,0.000000,0.155671,0.539013,0.000000
2.350000,-0.444058,1.193118,-1.203314,2.882101,0.143840,0.308009,0.934155,-1.029944,-1.881845,-6.088874,1.514538,-3.388854,-4.253877,-4.786563,23.740708,-0.087586,-0.079729,0.000000,0.149633,0.538416,-0.000000
2.360000,-0.415192,1.194505,-1.200328,2.891137,0.133615,0.289025,0.873058,-1.015048,-1.914544,-6.129764,1.463276,-3.150726,-3.854379,-5.658976,23.843518,-0.086122,-0.074327,0.000000,0.143123,0.537831,-0.000000
2.370000,-0.386238,1.195791,-1.197534,2.899561,0.123537,0.269726,0.811578,-1.000723,-1.944860,-6.165335,1.399676,-2.912407,-3.330096,-6.857062,23.852193,-0.084727,-0.068933,0.000000,0.135692,0.537095,0.000000
2.380000,-0.357202,1.196977,-1.194935,2.907368,0.113599,0.250135,0.749761,-0.987072,-1.972789,-6.197840,1.330410,-2.673002,-3.174402,-6.980978,24.026351,-0.083409,-0.063546,0.000000,0.127892,0.536392,0.000000
2.390000,-0.328092,1.198064,-1.192533,2.914555,0.103793,0.230278,0.687631,-0.974130,-1.998317,-6.227454,1.256290,-2.432673,-2.679985,-8.030887,24.000029,-0.082170,-0.058167,0.000000,0.119786,0.535739,0.000000
2.400000,-0.298913,1.199053,-1.190330,2.921119,0.094113,0.210177,0.625230,-0.961985,-2.021444,-6.252056,1.171657,-2.192752,-2.311090,-8.689421,24.017588,-0.081016,-0.052796,0.000000,0.110905,0.534962,0.000000
2.410000,-0.269672,1.199946,-1.188330,2.927059,0.084551,0.189857,0.562599,-0.950709,-2.042166,-6.273577,1.082708,-1.951472,-1.949720,-9.280429,24.039968,-0.079953,-0.047432,0.000000,0.101749,0.534215,-0.000000
2.420000,-0.240374,1.200744,-1.186534,2.932371,0.075096,0.169342,0.499774,-0.940365,-2.060489,-6.290658,0.984508,-1.713786,-1.511216,-10.165526,23.684177,-0.078984,-0.042077,0.000000,0.091932,0.533403,0.000000
2.430000,-0.211027,1.201448,-1.184943,2.937054,0.065740,0.148655,0.436796,-0.931027,-2.076433,-6.304738,0.883464,-1.473858,-1.307026,-10.026985,24.305446,-0.078115,-0.036731,0.000000,0.081942,0.532621,0.000000
2.440000,-0.181635,1.202059,-1.183561,2.941106,0.056472,0.127821,0.373689,-0.922701,-2.089956,-6.315937,0.780457,-1.231537,-0.889741,-10.749540,23.966396,-0.077345,-0.031392,0.000000,0.071843,0.531882,-0.000000
2.450000,-0.152207,1.202578,-1.182387,2.944527,0.047282,0.106864,0.310492,-0.915445,-2.101079,-6.322923,0.670260,-0.992938,-0.552369,-11.093658,23.942121,-0.076680,-0.026062,0.000000,0.061229,0.531090,-0.000000
2.460000,-0.122747,1.203005,-1.181424,2.947316,0.038159,0.085808,0.247240,-0.909297,-2.109807,-6.326793,0.558875,-0.752485,-0.217676,-11.363532,23.922588,-0.076121,-0.020739,0.000000,0.050555,0.530320,0.000000
2.470000,-0.093262,1.203341,-1.180672,2.949472,0.029093,0.064676,0.183967,-0.904291,-2.116148,-6.327249,0.441450,-0.516576,0.121294,-11.925343,23.475918,-0.075670,-0.015424,0.000000,0.039447,0.529558,0.000000
2.480000,-0.063760,1.203587,-1.180131,2.950995,0.020070,0.043493,0.120706,-0.900465,-2.120129,-6.324475,0.324477,-0.278415,0.432690,-11.452390,24.161921,-0.075332,-0.010117,0.000000,0.028391,0.528804,-0.000000
2.490000,-0.034245,1.203743,-1.179802,2.951886,0.011079,0.022281,0.057488,-0.897795,-2.121706,-6.318515,0.208872,-0.037767,0.763306,-11.844873,23.746697,-0.075102,-0.004818,0.000000,0.017453,0.528067,0.000000
2.500000,-0.004724,1.203809,-1.179685,2.952145,0.002110,0.001066,-0.005653,-0.896304,-2.120903,-6.309257,0.089385,0.198364,1.083211,-11.854708,23.697843,-0.074984,0.000474,0.000000,0.006227,0.527338,0.000000
2.510000,0.024796,1.203785,-1.179780,2.951773,-0.006851,-0.020129,-0.068686,-0.895999,-2.117733,-6.296743,-0.028148,0.435719,1.402708,-11.793886,23.642880,-0.074977,0.005758,0.000000,-0.004848,0.526617,0.000000
2.520000,0.054309,1.203672,-1.180087,2.950772,-0.015814,-0.041280,-0.131579,-0.896876,-2.112201,-6.281362,-0.147681,0.670011,1.689169,-11.953646,23.339689,-0.075081,0.011036,0.000000,-0.016085,0.525933,0.000000
2.530000,0.083810,1.203469,-1.180606,2.949142,-0.024792,-0.062365,-0.194302,-0.898940,-2.104329,-6.262628,-0.263894,0.905120,2.057884,-11.273576,23.684868,-0.075298,0.016307,0.000000,-0.027075,0.525245,0.000000
2.540000,0.113290,1.203176,-1.181334,2.946887,-0.033797,-0.083359,-0.256820,-0.902139,-2.094095,-6.240534,-0.375939,1.141148,2.344638,-11.274428,23.392898,-0.075622,0.021571,0.000000,-0.037760,0.524554,0.000000
2.550000,0.142745,1.202793,-1.182273,2.944007,-0.042839,-0.104239,-0.319103,-0.906461,-2.081519,-6.215601,-0.487902,1.374028,2.657967,-10.958459,23.307620,-0.076053,0.026828,0.000000,-0.048464,0.523895,0.000000
2.560000,0.172168,1.202319,-1.183419,2.940505,-0.051929,-0.124982,-0.381121,-0.911879,-2.066612,-6.187438,-0.594841,1.607157,2.970178,-10.572803,23.216697,-0.076590,0.032079,0.000000,-0.058805,0.523240,-0.000000
2.570000,0.201553,1.201754,-1.184772,2.936385,-0.061080,-0.145564,-0.442842,-0.918357,-2.049387,-6.156237,-0.700567,1.837411,3.274156,-10.413298,22.929459,-0.077229,0.037324,0.000000,-0.069093,0.522595,-0.000000
2.580000,0.230894,1.201097,-1.186329,2.931650,-0.070300,-0.165962,-0.504235,-0.925867,-2.029863,-6.121867,-0.799781,2.067749,3.600188,-9.414982,23.139343,-0.077970,0.042562,0.000000,-0.078910,0.521953,0.000000
2.590000,0.260184,1.200348,-1.188090,2.926302,-0.079600,-0.186153,-0.565269,-0.934327,-2.008031,-6.084316,-0.891687,2.298198,3.905774,-9.107047,22.850665,-0.078806,0.047795,0.000000,-0.088197,0.521315,0.000000
2.600000,0.289418,1.199505,-1.190052,2.920346,-0.088990,-0.206115,-0.625911,-0.943693,-1.983911,-6.043712,-0.980458,2.525551,4.219474,-8.487714,22.715685,-0.079733,0.053021,0.000000,-0.097290,0.520677,0.000000
2.610000,0.318589,1.198568,-1.192212,2.913785,-0.098477,-0.225824,-0.686132,-0.953907,-1.957518,-5.999844,-1.061068,2.752808,4.536172,-7.803372,22.578325,-0.080749,0.058241,0.000000,-0.105793,0.520031,0.000000
2.620000,0.347692,1.197535,-1.194567,2.906625,-0.108070,-0.245258,-0.745899,-0.964905,-1.928872,-5.953150,-1.137987,2.975642,4.820540,-7.399116,22.136287,-0.081849,0.063456,0.000000,-0.114057,0.519389,-0.000000
2.630000,0.376720,1.196406,-1.197116,2.898869,-0.117778,-0.264394,-0.805183,-0.976633,-1.898004,-5.903058,-1.205257,3.198636,5.198779,-6.041410,22.464160,-0.083028,0.068664,0.000000,-0.121615,0.518724,0.000000
2.640000,0.405667,1.195179,-1.199854,2.890523,-0.127605,-0.283210,-0.863949,-0.988975,-1.864898,-5.849523,-1.262148,3.421823,5.490700,-5.503233,22.018192,-0.084278,0.073866,0.000000,-0.128407,0.518031,0.000000
2.650000,0.434528,1.193853,-1.202779,2.881592,-0.137559,-0.301685,-0.922165,-1.001861,-1.829586,-5.793085,-1.313690,3.640221,5.815016,-4.624011,21.809397,-0.085595,0.079061,0.000000,-0.134824,0.517323,0.000000
2.660000,0.463297,1.192427,-1.205887,2.872081,-0.147644,-0.319795,-0.979798,-1.015210,-1.792095,-5.732962,-1.354399,3.857685,6.148084,-3.693361,21.579814,-0.086972,0.084250,0.000000,-0.140429,0.516553,0.000000
2.670000,0.491968,1.190900,-1.209173,2.861998,-0.157864,-0.337519,-1.036818,-1.028933,-1.752449,-5.670674,-1.389114,4.070818,6.369275,-3.065510,21.139324,-0.088403,0.089432,0.000000,-0.145606,0.515823,-0.000000
2.680000,0.520535,1.189270,-1.212636,2.851347,-0.168224,-0.354837,-1.093197,-1.042951,-1.710683,-5.604324,-1.411855,4.282416,6.903087,-1.471266,21.178708,-0.089881,0.094607,0.000000,-0.149863,0.514987,0.000000
2.690000,0.548993,1.187535,-1.216269,2.840136,-0.178724,-0.371726,-1.148890,-1.057126,-1.666805,-5.533803,-1.422027,4.492337,7.141677,-0.737500,20.702728,-0.091396,0.099773,0.000000,-0.153141,0.514030,0.000000
2.700000,0.577336,1.185695,-1.220069,2.828372,-0.189366,-0.388166,-1.203867,-1.071371,-1.620855,-5.460972,-1.424983,4.697197,7.484344,0.330018,20.361296,-0.092942,0.104930,0.000000,-0.155865,0.513077,-0.000000
2.710000,0.605559,1.183747,-1.224031,2.816061,-0.200151,-0.404136,-1.258095,-1.085583,-1.572873,-5.384066,-1.415492,4.898518,7.832645,1.427912,19.971853,-0.094510,0.110078,0.000000,-0.157589,0.511983,0.000000
2.720000,0.633655,1.181691,-1.228150,2.803212,-0.211077,-0.419617,-1.311542,-1.099655,-1.522892,-5.304907,-1.397679,5.097204,8.062211,2.277998,19.686662,-0.096092,0.115216,0.000000,-0.158665,0.510907,0.000000
2.730000,0.661621,1.179525,-1.232421,2.789833,-0.222143,-0.434587,-1.364178,-1.113492,-1.470947,-5.221500,-1.366935,5.290603,8.621343,3.877751,18.984495,-0.097680,0.120343,0.000000,-0.158661,0.509644,0.000000
2.740000,0.689450,1.177248,-1.236840,2.775932,-0.233346,-0.449029,-1.415957,-1.126949,-1.417100,-5.133743,-1.322909,5.478230,8.866850,4.788101,18.607476,-0.099261,0.125457,0.000000,-0.157523,0.508166,-0.000000
2.750000,0.717138,1.174858,-1.241400,2.761517,-0.244681,-0.462923,-1.466846,-1.139923,-1.361394,-5.043623,-1.269942,5.661990,9.220537,5.947318,18.064807,-0.100828,0.130557,0.000000,-0.155629,0.506659,-0.000000
2.760000,0.744679,1.172354,-1.246096,2.746598,-0.256143,-0.476251,-1.516815,-1.152303,-1.303886,-4.949405,-1.204053,5.838558,9.575833,7.115424,17.459803,-0.102370,0.135641,0.000000,-0.152584,0.504921,-0.000000
2.770000,0.772068,1.169735,-1.250923,2.731184,-0.267725,-0.488995,-1.565827,-1.163975,-1.244626,-4.852540,-1.128696,6.013048,9.842798,8.067900,17.218985,-0.103877,0.140708,0.000000,-0.148713,0.503130,0.000000
2.780000,0.799301,1.166999,-1.255874,2.715284,-0.279419,-0.501138,-1.613852,-1.174833,-1.183657,-4.751591,-1.040355,6.178340,10.348271,9.602594,15.825259,-0.105340,0.145757,0.000000,-0.143623,0.501061,-0.000000
2.790000,0.826372,1.164146,-1.260944,2.698910,-0.291218,-0.512663,-1.660844,-1.184737,-1.121094,-4.646505,-0.938942,6.333687,10.622438,10.564970,15.450174,-0.106745,0.150784,0.000000,-0.137267,0.498675,0.000000
2.800000,0.853278,1.161174,-1.266125,2.682071,-0.303111,-0.523555,-1.706774,-1.193582,-1.056992,-4.538757,-0.828142,6.485373,10.972855,11.705324,14.666197,-0.108083,0.155788,0.000000,-0.130004,0.496174,0.000000
2.810000,0.880012,1.158083,-1.271413,2.664778,-0.315086,-0.533798,-1.751606,-1.201259,-0.991424,-4.427088,-0.705262,6.626485,11.321805,12.824543,13.819178,-0.109341,0.160765,0.000000,-0.121499,0.493331,0.000000
2.820000,0.906572,1.154872,-1.276799,2.647043,-0.327131,-0.543379,-1.795307,-1.207654,-0.924469,-4.312689,-0.572122,6.764094,11.594812,13.840427,13.432225,-0.110509,0.165713,0.000000,-0.111953,0.490339,0.000000
2.830000,0.932952,1.151541,-1.282278,2.628876,-0.339234,-0.552283,-1.837846,-1.212663,-0.856185,-4.194418,-0.427681,6.889459,12.059747,15.043937,11.624858,-0.111576,0.170630,0.000000,-0.101155,0.486945,-0.000000
2.840000,0.959148,1.148088,-1.287842,2.610290,-0.351380,-0.560498,-1.879182,-1.216171,-0.786725,-4.072271,-0.272191,7.001757,12.330780,16.006128,11.092730,-0.112528,0.175511,0.000000,-0.089079,0.483105,0.000000
2.850000,0.985156,1.144513,-1.293486,2.591297,-0.363552,-0.568014,-1.919284,-1.218077,-0.716163,-3.947500,-0.107333,7.108911,12.660022,17.000389,10.066317,-0.113354,0.180353,0.000000,-0.075924,0.479036,0.000000
2.860000,1.010972,1.140816,-1.299200,2.571908,-0.375736,-0.574818,-1.958120,-1.218286,-0.644595,-3.819211,0.067020,7.202707,12.981451,17.939895,8.980960,-0.114042,0.185152,0.000000,-0.061558,0.474496,0.000000
2.870000,1.036593,1.136998,-1.304980,2.552138,-0.387912,-0.580903,-1.995659,-1.216699,-0.572122,-3.688035,0.252016,7.291107,13.266849,18.975869,8.405966,-0.114581,0.189904,0.000000,-0.045917,0.469654,0.000000
2.880000,1.062014,1.133058,-1.310816,2.532000,-0.400063,-0.586258,-2.031870,-1.213220,-0.498824,-3.553597,0.444783,7.364684,13.619681,19.566001,6.294095,-0.114957,0.194606,0.000000,-0.029133,0.464282,0.000000
2.890000,1.087232,1.128997,-1.316702,2.511506,-0.412170,-0.590877,-2.066720,-1.207781,-0.424882,-3.415969,0.644664,7.422657,13.889486,20.476053,5.583696,-0.115160,0.199250,0.000000,-0.011221,0.458333,-0.000000
2.900000,1.112243,1.124815,-1.322631,2.490670,-0.424212,-0.594754,-2.100181,-1.200296,-0.350389,-3.275718,0.853453,7.473787,14.173577,21.195445,4.348555,-0.115177,0.203832,0.000000,0.007935,0.451992,0.000000
2.910000,1.137044,1.120513,-1.328595,2.469507,-0.436169,-0.597883,-2.132224,-1.190695,-0.275460,-3.132562,1.067716,7.509732,14.446012,21.832608,3.073286,-0.114998,0.208348,0.000000,0.028134,0.445041,0.000000
2.920000,1.161632,1.116092,-1.334586,2.448030,-0.448019,-0.600262,-2.162824,-1.178906,-0.200218,-2.986933,1.291591,7.537341,14.687287,22.748995,2.213496,-0.114610,0.212791,0.000000,0.049737,0.437621,0.000000
2.930000,1.186004,1.111553,-1.340598,2.426255,-0.459739,-0.601887,-2.191954,-1.164854,-0.124768,-2.838658,1.518641,7.549077,14.965526,22.642678,0.122589,-0.114000,0.217156,0.000000,0.072244,0.429530,0.000000
2.940000,1.210156,1.106898,-1.346621,2.404196,-0.471308,-0.602757,-2.219588,-1.148528,-0.049293,-2.687867,1.747855,7.544383,15.180557,23.370047,-0.832170,-0.113162,0.221435,0.000000,0.095587,0.420722,0.000000
2.950000,1.234087,1.102128,-1.352650,2.381868,-0.482702,-0.602873,-2.245705,-1.129870,0.026093,-2.535014,1.984217,7.530397,15.396747,23.705908,-2.199841,-0.112084,0.225622,0.000000,0.120205,0.411357,0.000000
2.960000,1.257793,1.097244,-1.358676,2.359287,-0.493898,-0.602236,-2.270282,-1.108846,0.101258,-2.380217,2.220642,7.500183,15.592120,23.928879,-3.594847,-0.110756,0.229711,0.000000,0.145505,0.401257,0.000000
2.970000,1.281272,1.092250,-1.364692,2.336468,-0.504871,-0.600849,-2.293300,-1.085421,0.176070,-2.222932,2.465855,7.460767,15.830596,24.746060,-4.532212,-0.109168,0.233695,0.000000,0.172297,0.390489,0.000000
2.980000,1.304521,1.087148,-1.370691,2.313426,-0.515598,-0.598716,-2.314737,-1.059542,0.250415,-2.064325,2.707852,7.404426,15.886672,23.627450,-6.744168,-0.107309,0.237565,0.000000,0.199494,0.378953,0.000000
2.990000,1.327540,1.081939,-1.376664,2.290179,-0.526054,-0.595843,-2.334583,-1.031282,0.324099,-1.904627,2.945250,7.330791,16.081391,24.193480,-7.737478,-0.105178,0.241315,0.000000,0.226956,0.366615,-0.000000
3.000000,1.350324,1.076628,-1.382605,2.266740,-0.536215,-0.592237,-2.352823,-1.000612,0.397003,-1.743031,3.188388,7.247615,16.202675,24.063375,-9.141349,-0.102765,0.244936,0.000000,0.255650,0.353547,-0.000000
3.010000,1.372874,1.071216,-1.388507,2.243127,-0.546058,-0.587906,-2.369443,-0.967537,0.468998,-1.580864,3.426056,7.148914,16.297596,23.822670,-10.527930,-0.100065,0.248421,0.000000,0.284505,0.339697,0.000000
3.020000,1.395186,1.065708,-1.394361,2.219357,-0.555558,-0.582860,-2.384431,-0.932071,0.539941,-1.416503,3.667917,7.037739,16.502930,24.177105,-11.770976,-0.097071,0.251761,0.000000,0.314468,0.324945,-0.000000
3.030000,1.417260,1.060106,-1.400161,2.195444,-0.564692,-0.577111,-2.397774,-0.894208,0.609704,-1.252310,3.901793,6.912156,16.329812,22.571505,-13.343927,-0.093776,0.254948,0.000000,0.344298,0.309442,0.000000
3.040000,1.439095,1.054415,-1.405901,2.171407,-0.573435,-0.570671,-2.409480,-0.854069,0.678136,-1.088599,4.126261,6.772296,16.477574,22.667047,-14.555936,-0.090186,0.257975,0.000000,0.373803,0.293195,0.000000
3.050000,1.460688,1.048639,-1.411573,2.147260,-0.581765,-0.563553,-2.419540,-0.811673,0.745112,-0.923420,4.351768,6.620566,16.485980,22.059595,-15.852018,-0.086297,0.260833,0.000000,0.404021,0.276038,0.000000
3.060000,1.482040,1.042781,-1.417170,2.123021,-0.589661,-0.555774,-2.427951,-0.767073,0.810507,-0.759015,4.566735,6.456416,16.467679,21.337561,-17.094848,-0.082108,0.263514,0.000000,0.433702,0.258164,0.000000
3.070000,1.503148,1.036847,-1.422686,2.098707,-0.597100,-0.547349,-2.434715,-0.720330,0.874189,-0.593440,4.782074,6.277670,16.569297,21.309243,-18.527825,-0.077620,0.266010,0.000000,0.463975,0.239287,0.000000
3.080000,1.524014,1.030841,-1.428115,2.074333,-0.604060,-0.538296,-2.439825,-0.671479,0.936026,-0.429261,4.984100,6.088519,16.260387,19.068935,-19.290921,-0.072832,0.268312,0.000000,0.493293,0.219772,0.000000
3.090000,1.544635,1.024768,-1.433450,2.049916,-0.610523,-0.528635,-2.443306,-0.620700,0.995928,-0.266810,5.171390,5.889598,16.300796,18.785383,-20.605224,-0.067758,0.270415,0.000000,0.521416,0.199663,0.000000
3.100000,1.565012,1.018632,-1.438685,2.025472,-0.616468,-0.518384,-2.445159,-0.568053,1.053773,-0.103956,5.356052,5.677620,16.191463,17.724686,-21.660948,-0.062403,0.272311,0.000000,0.549608,0.178634,0.000000
3.110000,1.585144,1.012440,-1.443816,2.001018,-0.621878,-0.507566,-2.445392,-0.513634,1.109455,0.057090,5.525543,5.457332,16.058947,16.566521,-22.638537,-0.056772,0.273993,0.000000,0.576394,0.157052,0.000000
3.120000,1.605032,1.006197,-1.448835,1.976569,-0.626735,-0.496203,-2.444018,-0.457549,1.162867,0.217561,5.690867,5.222739,15.987777,16.092595,-24.025166,-0.050875,0.275454,0.000000,0.602934,0.134608,0.000000
3.130000,1.624676,0.999907,-1.453738,1.952143,-0.631024,-0.484317,-2.441048,-0.399878,1.213891,0.375854,5.838894,4.982173,15.665754,13.489056,-24.069247,-0.044719,0.276688,0.000000,0.627642,0.111731,0.000000
3.140000,1.644075,0.993578,-1.458520,1.927754,-0.634728,-0.471933,-2.436510,-0.340836,1.262496,0.531684,5.968396,4.736640,15.540666,12.798318,-25.272291,-0.038329,0.277690,0.000000,0.650273,0.088500,-0.000000
3.150000,1.663231,0.987215,-1.463175,1.903418,-0.637836,-0.459076,-2.430418,-0.280525,1.308580,0.686220,6.091282,4.479059,15.318775,11.372946,-25.985904,-0.031716,0.278456,0.000000,0.672097,0.064589,0.000000
3.160000,1.682144,0.980823,-1.467700,1.879150,-0.640335,-0.445770,-2.422800,-0.219079,1.352066,0.836913,6.195010,4.217219,15.051738,9.862464,-26.613913,-0.024896,0.278982,0.000000,0.691575,0.040538,0.000000
3.170000,1.700814,0.974410,-1.472089,1.854967,-0.642215,-0.432043,-2.413670,-0.156635,1.392885,0.989344,6.292955,3.944795,15.203248,9.235292,-27.621470,-0.017886,0.279264,0.000000,0.710143,0.015570,-0.000000
3.180000,1.719243,0.967981,-1.476339,1.830882,-0.643465,-0.417922,-2.403033,-0.093295,1.430956,1.136131,6.369422,3.670018,14.143898,6.036622,-27.313248,-0.010703,0.279295,0.000000,0.725905,-0.009219,0.000000
3.190000,1.737432,0.961543,-1.480446,1.806911,-0.644078,-0.403433,-2.390970,-0.029326,1.466283,1.276771,6.423357,3.394013,14.211316,5.233499,-28.113038,-0.003379,0.279081,0.000000,0.738642,-0.033690,0.000000
3.200000,1.755382,0.955102,-1.484407,1.783067,-0.644050,-0.388605,-2.377491,0.035155,1.498805,1.418347,6.469857,3.110057,13.872263,3.575754,-28.425883,0.004067,0.278618,0.000000,0.750009,-0.058799,0.000000
3.210000,1.773094,0.948664,-1.488217,1.759366,-0.643374,-0.373466,-2.362615,0.100007,1.528494,1.556513,6.497855,2.827740,13.555514,1.938712,-28.605938,0.011612,0.277906,0.000000,0.758658,-0.083718,0.000000
3.220000,1.790570,0.942236,-1.491875,1.735820,-0.642049,-0.358045,-2.346388,0.165051,1.555308,1.687542,6.507832,2.532859,12.844913,0.135206,-29.791513,0.019231,0.276944,0.000000,0.764550,-0.108433,0.000000
3.230000,1.807811,0.935825,-1.495377,1.712442,-0.640073,-0.342370,-2.328866,0.230113,1.579176,1.817503,6.502222,2.244047,13.151293,-1.255037,-27.939662,0.026895,0.275737,0.000000,0.767934,-0.132977,0.000000
3.240000,1.824819,0.929437,-1.498722,1.689247,-0.637447,-0.326471,-2.310039,0.295044,1.600219,1.946537,6.481117,1.962907,12.454319,-3.045820,-28.845112,0.034581,0.274285,0.000000,0.768812,-0.157271,0.000000
3.250000,1.841597,0.923078,-1.501906,1.666246,-0.634173,-0.310375,-2.289963,0.359674,1.618392,2.068239,6.442018,1.672254,12.081959,-4.691371,-28.703742,0.042261,0.272591,0.000000,0.766784,-0.181089,0.000000
3.260000,1.858145,0.916756,-1.504929,1.643451,-0.630255,-0.294113,-2.268682,0.423840,1.633692,2.187403,6.388726,1.388375,11.690443,-6.291001,-28.474753,0.049909,0.270661,0.000000,0.762340,-0.204402,0.000000
3.270000,1.874466,0.910475,-1.507788,1.620876,-0.625698,-0.277711,-2.246233,0.487369,1.646135,2.301470,6.313259,1.099186,11.177340,-8.481392,-28.947552,0.057496,0.268499,0.000000,0.754465,-0.227255,0.000000
3.280000,1.890563,0.904244,-1.510483,1.598530,-0.620510,-0.261199,-2.222663,0.550068,1.655706,2.412095,6.225844,0.818128,10.947269,-8.986918,-27.239819,0.064991,0.266111,0.000000,0.744440,-0.249365,0.000000
3.290000,1.906438,0.898067,-1.513012,1.576426,-0.614700,-0.244606,-2.198002,0.611851,1.662532,2.519231,6.127207,0.546464,10.420739,-11.055164,-27.488846,0.072378,0.263504,0.000000,0.732401,-0.270650,0.000000
3.300000,1.922093,0.891952,-1.515374,1.554574,-0.608277,-0.227958,-2.172298,0.672536,1.666619,2.620953,6.007581,0.272021,9.978501,-12.544539,-26.983060,0.079628,0.260686,0.000000,0.717118,-0.291225,0.000000
3.310000,1.937530,0.885904,-1.517571,1.532984,-0.601254,-0.211283,-2.145601,0.731959,1.668001,2.717410,5.874573,0.005294,9.499484,-14.017053,-26.432763,0.086713,0.257665,0.000000,0.699611,-0.310748,0.000000
3.320000,1.952753,0.879929,-1.519600,1.511665,-0.593643,-0.194607,-2.117950,0.789982,1.666738,2.812640,5.727694,-0.257183,9.361676,-15.382375,-25.975305,0.093613,0.254449,0.000000,0.679849,-0.329754,-0.000000
3.330000,1.967764,0.874033,-1.521463,1.490628,-0.585459,-0.177957,-2.089374,0.846465,1.662882,2.900765,5.566430,-0.512394,8.255882,-16.862492,-25.055864,0.100303,0.251045,0.000000,0.657842,-0.347455,0.000000
3.340000,1.982567,0.868221,-1.523159,1.469880,-0.576719,-0.161357,-2.059961,0.901264,1.656517,2.981429,5.391275,-0.759712,8.060268,-18.126525,-24.478664,0.106762,0.247469,0.000000,0.633721,-0.363768,0.000000
3.350000,1.997163,0.862500,-1.524690,1.449431,-0.567440,-0.144834,-2.029748,0.954250,1.647706,3.060372,5.203834,-1.001137,7.542874,-19.382928,-23.721124,0.112971,0.243730,0.000000,0.607737,-0.379395,0.000000
3.360000,2.011556,0.856874,-1.526056,1.429288,-0.557640,-0.128411,-1.998770,1.005307,1.636526,3.134432,5.005918,-1.233457,7.053629,-20.532435,-22.907691,0.118912,0.239837,0.000000,0.580206,-0.393870,-0.000000
3.370000,2.025750,0.851349,-1.527259,1.409458,-0.547341,-0.112111,-1.967093,1.054303,1.623051,3.199448,4.790262,-1.460745,6.156375,-22.253321,-22.377457,0.124567,0.235802,0.000000,0.550284,-0.406822,-0.000000
3.380000,2.039747,0.845929,-1.528299,1.389948,-0.536562,-0.095958,-1.934788,1.101093,1.607348,3.261905,4.568099,-1.677398,6.340442,-22.156104,-20.942880,0.129915,0.231640,0.000000,0.519463,-0.418839,0.000000
3.390000,2.053550,0.840619,-1.529179,1.370764,-0.525326,-0.079972,-1.901861,1.145650,1.589541,3.322024,4.340657,-1.882877,5.472066,-23.655471,-20.316795,0.134954,0.227357,0.000000,0.487976,-0.429939,0.000000
3.400000,2.067163,0.835424,-1.529899,1.351913,-0.513657,-0.064174,-1.868381,1.187850,1.569708,3.373107,4.098119,-2.082228,4.952651,-24.502819,-19.382209,0.139668,0.222967,0.000000,0.454653,-0.439498,0.000000
3.410000,2.080589,0.830348,-1.530463,1.333398,-0.501577,-0.048584,-1.834412,1.227605,1.547928,3.419912,3.851805,-2.272267,4.411913,-25.233398,-18.456576,0.144046,0.218484,0.000000,0.420950,-0.447988,-0.000000
3.420000,2.093832,0.825394,-1.530872,1.315226,-0.489113,-0.033221,-1.800001,1.264824,1.524307,3.461365,3.589248,-2.449755,3.872788,-26.790270,-17.202139,0.148080,0.213918,0.000000,0.385544,-0.455223,0.000000
3.430000,2.106895,0.820567,-1.531128,1.297400,-0.476290,-0.018103,-1.765203,1.299392,1.498957,3.497243,3.326229,-2.619701,3.301253,-25.784163,-16.790630,0.151758,0.209283,0.000000,0.350247,-0.461326,0.000000
3.440000,2.119781,0.815869,-1.531235,1.279923,-0.463134,-0.003248,-1.730075,1.331356,1.471937,3.527461,3.064282,-2.782240,2.745890,-27.068467,-15.551436,0.155087,0.204588,0.000000,0.315277,-0.466307,0.000000
3.450000,2.132495,0.811305,-1.531194,1.262799,-0.449671,0.011330,-1.694672,1.360625,1.443357,3.552094,2.789216,-2.932123,2.174811,-27.453673,-14.588699,0.158059,0.199847,0.000000,0.279156,-0.470076,-0.000000
3.460000,2.145038,0.806877,-1.531009,1.246030,-0.435930,0.025615,-1.659056,1.387144,1.413314,3.570010,2.514111,-3.075130,1.577591,-27.757655,-13.654712,0.160671,0.195072,0.000000,0.243326,-0.472670,0.000000
3.470000,2.157416,0.802587,-1.530683,1.229619,-0.421938,0.039592,-1.623278,1.410882,1.381915,3.585191,2.232473,-3.201932,1.292139,-28.356094,-12.053647,0.162924,0.190273,0.000000,0.207273,-0.474359,0.000000
3.480000,2.169632,0.798439,-1.530218,1.213565,-0.407722,0.053249,-1.587381,1.431797,1.349290,3.592359,1.951464,-3.323511,0.135273,-27.824610,-12.274007,0.164818,0.185462,0.000000,0.171632,-0.474826,0.000000
3.490000,2.181689,0.794433,-1.529619,1.197871,-0.393311,0.066574,-1.551460,1.449919,1.315457,3.591225,1.672251,-3.440405,-0.195927,-28.204192,-10.755376,0.166359,0.180651,0.000000,0.136544,-0.474069,0.000000
3.500000,2.193591,0.790573,-1.528888,1.182536,-0.378733,0.079554,-1.515563,1.465226,1.280540,3.587010,1.389380,-3.541626,-0.814546,-28.154746,-9.839660,0.167549,0.175850,0.000000,0.101645,-0.472483,0.000000
3.510000,2.205341,0.786859,-1.528029,1.167559,-0.364016,0.092181,-1.479744,1.477726,1.244647,3.575976,1.111035,-3.635430,-1.422812,-27.977417,-8.912519,0.168395,0.171071,0.000000,0.067704,-0.469852,0.000000
3.520000,2.216943,0.783293,-1.527045,1.152941,-0.349188,0.104444,-1.444067,1.487416,1.207863,3.558269,0.825724,-3.719819,-2.089866,-28.607261,-7.977391,0.168902,0.166322,0.000000,0.033490,-0.466186,0.000000
3.530000,2.228401,0.779876,-1.525941,1.138677,-0.334277,0.116336,-1.408597,1.494272,1.170281,3.534783,0.548896,-3.795236,-2.606624,-26.730134,-7.108733,0.169070,0.161615,0.000000,0.000731,-0.461625,0.000000
3.540000,2.239718,0.776608,-1.524720,1.124768,-0.319312,0.127848,-1.373390,1.498430,1.131988,3.505543,0.282016,-3.861839,-3.270962,-27.100456,-6.204178,0.168922,0.156959,0.000000,-0.030422,-0.456207,0.000000
3.550000,2.250897,0.773490,-1.523386,1.111209,-0.304318,0.138973,-1.338509,1.499891,1.093074,3.469611,0.011118,-3.919471,-3.886053,-26.599992,-5.334787,0.168461,0.152363,0.000000,-0.061515,-0.449856,0.000000
3.560000,2.261943,0.770521,-1.521942,1.097996,-0.289323,0.149707,-1.304043,1.498684,1.053624,3.421772,-0.251374,-3.969245,-4.619427,-26.037955,-4.497208,0.167697,0.147838,0.000000,-0.091214,-0.442049,0.000000
3.570000,2.272858,0.767703,-1.520393,1.085126,-0.274353,0.160044,-1.270012,1.494871,1.013727,3.387010,-0.510799,-4.008324,-3.361795,-25.688335,-3.444245,0.166640,0.143390,0.000000,-0.120000,-0.435519,0.000000
3.580000,2.283647,0.765034,-1.518742,1.072595,-0.259434,0.169981,-1.236375,1.488497,0.973479,3.332941,-0.761826,-4.040770,-7.481761,-24.501464,-3.052482,0.165301,0.139014,0.000000,-0.147463,-0.426790,-0.000000
3.590000,2.294311,0.762514,-1.516994,1.060396,-0.244591,0.179513,-1.203430,1.479666,0.932932,3.258275,-1.003591,-4.066975,-6.407877,-23.989632,-2.069108,0.163695,0.134745,0.000000,-0.173532,-0.415775,-0.000000
3.600000,2.304856,0.760142,-1.515153,1.048524,-0.229848,0.188639,-1.171150,1.468440,0.892174,3.196036,-1.240156,-4.083278,-7.072789,-23.165466,-1.318721,0.161834,0.130580,0.000000,-0.198522,-0.406047,-0.000000
3.610000,2.315283,0.757917,-1.513223,1.036971,-0.215230,0.197356,-1.139523,1.454916,0.851288,3.129389,-1.462712,-4.092720,-7.503008,-22.199145,-0.584422,0.159732,0.126518,0.000000,-0.221599,-0.395831,0.000000
3.620000,2.325596,0.755837,-1.511208,1.025731,-0.200757,0.205664,-1.108678,1.439149,0.810343,3.034566,-1.691907,-4.095149,-10.241559,-22.795658,0.104317,0.157399,0.122574,0.000000,-0.245059,-0.382576,-0.000000
3.630000,2.335799,0.753901,-1.509111,1.014794,-0.186454,0.213563,-1.078788,1.421151,0.769409,2.950169,-1.900918,-4.090514,-6.594360,-18.974138,0.818310,0.154840,0.118766,0.000000,-0.265944,-0.370490,0.000000
3.640000,2.345893,0.752107,-1.506938,1.004153,-0.172341,0.221053,-1.049623,1.401210,0.728556,2.878215,-2.088203,-4.079082,-9.017363,-19.322382,1.453134,0.152090,0.115068,0.000000,-0.284143,-0.359784,0.000000
3.650000,2.355883,0.750453,-1.504691,0.993799,-0.158436,0.228135,-1.021331,1.379357,0.687848,2.780341,-2.280108,-4.061464,-9.329942,-18.213120,2.075400,0.149155,0.111497,0.000000,-0.302581,-0.346359,0.000000
3.660000,2.365770,0.748938,-1.502376,0.983723,-0.144760,0.234810,-0.994000,1.355649,0.647340,2.685299,-2.460063,-4.039373,-9.687509,-17.203776,2.633097,0.146043,0.108061,0.000000,-0.319478,-0.333343,0.000000
3.670000,2.375558,0.747557,-1.499997,0.973916,-0.131329,0.241082,-0.967637,1.330236,0.607102,2.586587,-2.618891,-4.006197,-10.038339,-15.114909,3.710960,0.142775,0.104760,0.000000,-0.333807,-0.319971,-0.000000
3.680000,2.385249,0.746310,-1.497556,0.964367,-0.118160,0.246954,-0.942278,1.303280,0.567219,2.484873,-2.773984,-3.971260,-10.299142,-15.920487,3.262479,0.139369,0.101596,0.000000,-0.347584,-0.306431,-0.000000
3.690000,2.394846,0.745193,-1.495059,0.955067,-0.105269,0.252428,-0.917949,1.274762,0.527678,2.380466,-2.926082,-3.935266,-10.589118,-13.939896,4.219738,0.135824,0.098572,0.000000,-0.360907,-0.292766,0.000000
3.700000,2.404351,0.744204,-1.492509,0.946004,-0.092670,0.257508,-0.894678,1.244837,0.488552,2.273287,-3.057551,-3.889413,-10.830519,-12.912765,4.657786,0.132160,0.095687,0.000000,-0.371819,-0.278880,0.000000
3.710000,2.413767,0.743339,-1.489910,0.937169,-0.080376,0.262200,-0.872507,1.213610,0.449893,2.160022,-3.186721,-3.841840,-11.120822,-11.964201,5.061401,0.128388,0.092947,0.000000,-0.382394,-0.264516,0.000000
3.720000,2.423095,0.742595,-1.487266,0.928551,-0.068401,0.266508,-0.851430,1.181211,0.411745,2.057382,-3.288047,-3.786354,-10.077651,-9.232827,5.828126,0.124524,0.090348,0.000000,-0.389878,-0.251369,-0.000000
3.730000,2.432339,0.741970,-1.484581,0.920137,-0.056755,0.270437,-0.831399,1.147837,0.374168,1.944393,-3.390940,-3.729632,-12.535447,-11.376549,5.505444,0.120589,0.087884,0.000000,-0.397489,-0.237300,-0.000000
3.740000,2.441499,0.741459,-1.481859,0.911919,-0.045448,0.273993,-0.812584,1.113375,0.337153,1.820470,-3.496796,-3.672221,-11.560312,-8.857271,6.177552,0.116572,0.085571,0.000000,-0.405377,-0.222266,0.000000
3.750000,2.450578,0.741060,-1.479102,0.903882,-0.034491,0.277182,-0.794941,1.078006,0.300751,1.707528,-3.576093,-3.607897,-11.701142,-7.939772,6.478391,0.112493,0.083403,0.000000,-0.410400,-0.208490,-0.000000
3.760000,2.459577,0.740768,-1.476316,0.896016,-0.023891,0.280010,-0.778422,1.041878,0.265007,1.597169,-3.647432,-3.540218,-11.616371,-6.908179,6.797619,0.108367,0.081373,0.000000,-0.414569,-0.195122,-0.000000
3.770000,2.468498,0.740581,-1.473503,0.888309,-0.013656,0.282485,-0.763096,1.005044,0.229936,1.463813,-3.719616,-3.474374,-13.832097,-6.969524,6.615970,0.104200,0.079487,0.000000,-0.418882,-0.179561,0.000000
3.780000,2.477344,0.740494,-1.470668,0.880750,-0.003792,0.284611,-0.749084,0.967545,0.195540,1.346189,-3.775086,-3.402756,-9.648426,-4.109519,7.711667,0.099996,0.077755,0.000000,-0.421425,-0.165749,-0.000000
3.790000,2.486114,0.740504,-1.467812,0.873324,0.005694,0.286398,-0.736103,0.929605,0.161902,1.246371,-3.813217,-3.325239,-11.536855,-4.086438,7.537321,0.095778,0.076148,0.000000,-0.422166,-0.153870,-0.000000
3.800000,2.494811,0.740606,-1.464941,0.866024,0.014799,0.287852,-0.724247,0.891269,0.129024,1.125987,-3.852070,-3.249949,-11.311198,-3.123142,7.766586,0.091551,0.074672,0.000000,-0.423080,-0.140048,0.000000
3.810000,2.503435,0.740798,-1.462056,0.858836,0.023518,0.288981,-0.713560,0.852599,0.096912,1.011302,-3.880692,-3.172268,-11.183110,-2.257905,7.938763,0.087320,0.073332,0.000000,-0.422988,-0.126937,0.000000
3.820000,2.511988,0.741075,-1.459162,0.851749,0.031850,0.289793,-0.703980,0.813712,0.065598,0.906447,-3.894118,-3.089655,-10.208610,-0.768769,8.412803,0.083097,0.072119,0.000000,-0.421379,-0.114929,0.000000
3.830000,2.520470,0.741434,-1.456262,0.844753,0.039792,0.290296,-0.695445,0.774728,0.035115,0.798287,-3.903233,-3.007600,-11.432552,-1.069290,7.989537,0.078893,0.071026,0.000000,-0.419429,-0.102716,0.000000
3.840000,2.528883,0.741870,-1.453357,0.837836,0.047344,0.290498,-0.688030,0.735656,0.005441,0.686481,-3.908780,-2.926537,-10.495359,0.295208,8.389135,0.074709,0.070060,0.000000,-0.417220,-0.090264,0.000000
3.850000,2.537227,0.742379,-1.450453,0.830988,0.054505,0.290407,-0.681674,0.696605,-0.023398,0.584815,-3.900315,-2.841311,-10.261986,1.053649,8.483882,0.070554,0.069212,0.000000,-0.413656,-0.078926,0.000000
3.860000,2.545503,0.742959,-1.447550,0.824199,0.061276,0.290033,-0.676332,0.657664,-0.051384,0.484183,-3.886753,-2.755723,-9.966569,1.788685,8.577804,0.066437,0.068477,0.000000,-0.409684,-0.067795,0.000000
3.870000,2.553711,0.743604,-1.444653,0.817458,0.067659,0.289383,-0.671989,0.618905,-0.078514,0.384582,-3.863402,-2.670300,-9.847391,2.745464,8.555784,0.062363,0.067852,0.000000,-0.404839,-0.056869,0.000000
3.880000,2.561852,0.744311,-1.441763,0.810756,0.073655,0.288465,-0.668625,0.580413,-0.104786,0.289462,-3.834699,-2.583574,-9.170174,2.985723,8.788309,0.058341,0.067335,0.000000,-0.399562,-0.046477,0.000000
3.890000,2.569926,0.745076,-1.438884,0.804083,0.079268,0.287290,-0.666183,0.542226,-0.130181,0.199162,-3.801143,-2.495628,-8.990588,3.852410,8.746436,0.054373,0.066919,0.000000,-0.393910,-0.036643,0.000000
3.900000,2.577934,0.745895,-1.436018,0.797430,0.084501,0.285865,-0.664638,0.504421,-0.154701,0.110589,-3.758882,-2.408250,-8.617852,4.462639,8.778959,0.050466,0.066601,0.000000,-0.387510,-0.027063,0.000000
3.910000,2.585875,0.746764,-1.433168,0.790787,0.089358,0.284199,-0.663956,0.467064,-0.178344,0.026353,-3.711773,-2.320235,-8.235413,5.039192,8.796553,0.046624,0.066375,0.000000,-0.380746,-0.017981,0.000000
3.920000,2.593750,0.747681,-1.430335,0.784148,0.093844,0.282301,-0.664098,0.430212,-0.201108,-0.054163,-3.657420,-2.232611,-7.856531,5.742971,8.751890,0.042853,0.066239,0.000000,-0.373385,-0.009334,-0.000000
3.930000,2.601558,0.748640,-1.427523,0.777503,0.097964,0.280179,-0.665026,0.393929,-0.222995,-0.130543,-3.598765,-2.144697,-7.417237,5.979939,8.829737,0.039157,0.066187,0.000000,-0.365718,-0.001152,0.000000
3.940000,2.609300,0.749639,-1.424732,0.770845,0.101725,0.277844,-0.666695,0.358249,-0.244001,-0.202658,-3.536253,-2.056578,-7.013368,6.600898,8.765865,0.035539,0.066214,0.000000,-0.357791,0.006560,0.000000
3.950000,2.616975,0.750673,-1.421966,0.764166,0.105132,0.275302,-0.669065,0.323226,-0.264129,-0.270703,-3.467567,-1.969191,-6.584799,7.047121,8.735228,0.032003,0.066317,0.000000,-0.349378,0.013821,0.000000
3.960000,2.624583,0.751740,-1.419227,0.757461,0.108192,0.272564,-0.672096,0.288908,-0.283385,-0.334678,-3.395481,-1.882011,-6.155140,7.455737,8.692601,0.028552,0.066490,0.000000,-0.340750,0.020642,0.000000
3.970000,2.632124,0.752836,-1.416516,0.750722,0.110912,0.269638,-0.675740,0.255337,-0.301772,-0.393291,-3.317721,-1.795432,-5.618758,8.002498,8.627749,0.025190,0.066728,0.000000,-0.331683,0.026900,0.000000
3.980000,2.639597,0.753957,-1.413835,0.743944,0.113301,0.266531,-0.679949,0.222561,-0.319295,-0.448133,-3.237397,-1.709359,-5.350614,8.054168,8.585529,0.021919,0.067026,0.000000,-0.322482,0.032758,0.000000
3.990000,2.647003,0.755101,-1.411186,0.737122,0.115366,0.263254,-0.684691,0.190595,-0.335961,-0.499235,-3.154952,-1.623878,-4.816724,8.519013,8.502843,0.018741,0.067382,0.000000,-0.313189,0.038224,-0.000000
4.000000,2.654339,0.756264,-1.408570,0.730249,0.117116,0.259815,-0.689915,0.159479,-0.351776,-0.544909,-3.067880,-1.539273,-4.370167,8.801146,8.422423,0.015657,0.067789,0.000000,-0.303554,0.043135,0.000000
4.010000,2.661607,0.757442,-1.405990,0.723322,0.118559,0.256222,-0.695576,0.129243,-0.366748,-0.586565,-2.978884,-1.455397,-3.923430,9.051882,8.335056,0.012670,0.068243,0.000000,-0.293839,0.047637,0.000000
4.020000,2.668806,0.758634,-1.403446,0.716336,0.119704,0.252483,-0.701628,0.099914,-0.380888,-0.623034,-2.886401,-1.372750,-3.406901,9.382671,8.209078,0.009781,0.068740,0.000000,-0.283890,0.051615,0.000000
4.030000,2.675934,0.759835,-1.400941,0.709288,0.120560,0.248607,-0.708024,0.071519,-0.394206,-0.655471,-2.792526,-1.290903,-3.081994,9.385773,8.159684,0.006992,0.069274,0.000000,-0.273906,0.055191,-0.000000
4.040000,2.682991,0.761044,-1.398475,0.702175,0.121137,0.244601,-0.714725,0.044066,-0.406709,-0.683947,-2.697626,-1.209903,-2.576904,9.647088,8.022934,0.004303,0.069843,0.000000,-0.263919,0.058373,0.000000
4.050000,2.689977,0.762257,-1.396049,0.694993,0.121445,0.240475,-0.721685,0.017576,-0.418409,-0.707333,-2.600164,-1.130328,-2.137748,9.783206,7.907250,0.001714,0.070440,0.000000,-0.253776,0.061053,0.000000
4.060000,2.696891,0.763472,-1.393665,0.687740,0.121492,0.236236,-0.728858,-0.007934,-0.429319,-0.726689,-2.501840,-1.051766,-1.704296,9.894158,7.786501,-0.000773,0.071062,0.000000,-0.243637,0.063338,0.000000
4.070000,2.703732,0.764686,-1.391325,0.680415,0.121289,0.231891,-0.736202,-0.032456,-0.439450,-0.741162,-2.402211,-0.974778,-1.220465,10.010859,7.627227,-0.003158,0.071705,0.000000,-0.233455,0.065145,0.000000
4.080000,2.710499,0.765897,-1.389028,0.673016,0.120846,0.227449,-0.743669,-0.055977,-0.448818,-0.751732,-2.302053,-0.898880,-0.895627,10.016103,7.552057,-0.005442,0.072364,0.000000,-0.223300,0.066574,0.000000
4.090000,2.717192,0.767102,-1.386776,0.665541,0.120173,0.222918,-0.751224,-0.078496,-0.457431,-0.758511,-2.201636,-0.824099,-0.432113,10.079894,7.386112,-0.007625,0.073036,0.000000,-0.213195,0.067639,0.000000
4.100000,2.723810,0.768300,-1.384570,0.657991,0.119280,0.218303,-0.758823,-0.100008,-0.465306,-0.760652,-2.100674,-0.751027,-0.026872,10.092084,7.244761,-0.009706,0.073715,0.000000,-0.203106,0.068254,0.000000
4.110000,2.730351,0.769487,-1.382410,0.650365,0.118176,0.213614,-0.766426,-0.120511,-0.472456,-0.759250,-1.999933,-0.679298,0.363698,10.079311,7.098633,-0.011687,0.074400,0.000000,-0.193103,0.068530,0.000000
4.120000,2.736817,0.770663,-1.380298,0.642663,0.116873,0.208857,-0.773991,-0.140005,-0.478897,-0.752893,-1.898922,-0.609075,0.850734,10.094059,6.946399,-0.013568,0.075084,0.000000,-0.183134,0.068329,-0.000000
4.130000,2.743204,0.771824,-1.378233,0.634885,0.115379,0.204038,-0.781474,-0.158492,-0.484643,-0.743430,-1.798654,-0.540360,1.038213,9.955230,6.796021,-0.015350,0.075765,0.000000,-0.173291,0.067832,-0.000000
4.140000,2.749514,0.772970,-1.376217,0.627034,0.113706,0.199166,-0.788850,-0.175982,-0.489709,-0.731051,-1.699369,-0.473186,1.491361,9.924181,6.637359,-0.017035,0.076440,0.000000,-0.163593,0.067056,-0.000000
4.150000,2.755745,0.774098,-1.374250,0.619109,0.111863,0.194246,-0.796079,-0.192480,-0.494112,-0.714120,-1.600449,-0.407616,1.837527,9.831061,6.477422,-0.018622,0.077105,0.000000,-0.153975,0.065844,0.000000
4.160000,2.761896,0.775206,-1.372332,0.611113,0.109860,0.189286,-0.803124,-0.207994,-0.497866,-0.694336,-1.502657,-0.343585,2.168773,9.721992,6.316340,-0.020115,0.077757,0.000000,-0.144507,0.064359,-0.000000
4.170000,2.767967,0.776294,-1.370465,0.603047,0.107707,0.184291,-0.809950,-0.222537,-0.500990,-0.670312,-1.406088,-0.281408,2.583535,9.591421,6.130458,-0.021513,0.078391,0.000000,-0.135194,0.062466,0.000000
4.180000,2.773957,0.777360,-1.368647,0.594915,0.105412,0.179268,-0.816522,-0.236121,-0.503499,-0.643766,-1.310830,-0.220736,2.721673,9.457802,6.003897,-0.022819,0.079005,0.000000,-0.126039,0.060331,-0.000000
4.190000,2.779865,0.778402,-1.366879,0.586718,0.102987,0.174223,-0.822818,-0.248759,-0.505409,-0.614909,-1.217032,-0.161572,3.098222,9.296995,5.816719,-0.024034,0.079597,0.000000,-0.117053,0.057976,0.000000
4.200000,2.785691,0.779419,-1.365162,0.578459,0.100440,0.169162,-0.828806,-0.260467,-0.506737,-0.582281,-1.124914,-0.104302,3.374204,9.126612,5.648520,-0.025161,0.080164,0.000000,-0.108253,0.055254,0.000000
4.210000,2.791434,0.780411,-1.363496,0.570143,0.097781,0.164090,-0.834457,-0.271263,-0.507501,-0.547409,-1.034532,-0.048628,3.634527,8.943540,5.479073,-0.026200,0.080702,0.000000,-0.099640,0.052315,0.000000
4.220000,2.797094,0.781375,-1.361881,0.561771,0.095018,0.159014,-0.839743,-0.281164,-0.507716,-0.509303,-0.946122,0.005211,3.948480,8.740535,5.295377,-0.027154,0.081209,0.000000,-0.091235,0.049060,0.000000
4.230000,2.802669,0.782311,-1.360316,0.553349,0.092161,0.153938,-0.844637,-0.290191,-0.507402,-0.469238,-0.859671,0.057424,4.060793,8.548043,5.147360,-0.028025,0.081683,0.000000,-0.083031,0.045612,0.000000
4.240000,2.808160,0.783218,-1.358802,0.544880,0.089217,0.148867,-0.849122,-0.298364,-0.506573,-0.427417,-0.775279,0.108016,4.336844,8.324682,4.964057,-0.028815,0.082122,0.000000,-0.075035,0.041990,0.000000
4.250000,2.813567,0.784095,-1.357338,0.536368,0.086196,0.143808,-0.853175,-0.305705,-0.505248,-0.382867,-0.693170,0.156765,4.535621,8.099443,4.792601,-0.029527,0.082522,0.000000,-0.067267,0.038096,-0.000000
4.260000,2.818888,0.784941,-1.355926,0.527818,0.083106,0.138764,-0.856775,-0.312235,-0.503443,-0.336761,-0.613277,0.203846,4.717425,7.866813,4.621008,-0.030161,0.082883,0.000000,-0.059716,0.034044,-0.000000
4.270000,2.824123,0.785757,-1.354563,0.519234,0.079954,0.133741,-0.859902,-0.317979,-0.501177,-0.288254,-0.535959,0.249163,4.947816,7.606363,4.445000,-0.030722,0.083203,0.000000,-0.052415,0.029750,-0.000000
4.280000,2.829272,0.786540,-1.353251,0.510622,0.076749,0.128742,-0.862536,-0.322962,-0.498466,-0.238560,-0.460948,0.292799,4.987338,7.395164,4.282401,-0.031211,0.083478,0.000000,-0.045336,0.025329,0.000000
4.290000,2.834335,0.787291,-1.351988,0.501985,0.073497,0.123773,-0.864670,-0.327206,-0.495326,-0.187884,-0.388289,0.334764,5.178882,7.125001,4.108237,-0.031629,0.083709,0.000000,-0.038481,0.020800,0.000000
4.300000,2.839312,0.788010,-1.350775,0.493330,0.070207,0.118837,-0.866287,-0.330737,-0.491776,-0.135319,-0.318374,0.374988,5.297566,6.868280,3.939258,-0.031981,0.083894,0.000000,-0.031885,0.016074,0.000000
4.310000,2.844202,0.788695,-1.349611,0.484661,0.066885,0.113938,-0.867375,-0.333581,-0.487832,-0.082001,-0.250838,0.413616,5.398469,6.610243,3.772871,-0.032268,0.084031,0.000000,-0.025512,0.011260,0.000000
4.320000,2.849005,0.789348,-1.348496,0.475984,0.063538,0.109081,-0.867921,-0.335765,-0.483511,-0.027078,-0.186437,0.450324,5.549434,6.296759,3.582240,-0.032492,0.084118,0.000000,-0.019432,0.006271,0.000000
4.330000,2.853721,0.789966,-1.347429,0.467305,0.060172,0.104269,-0.867915,-0.337317,-0.478830,0.028218,-0.124339,0.485545,5.506182,6.123295,3.462748,-0.032657,0.084156,0.000000,-0.013566,0.001229,0.000000
4.340000,2.858351,0.790551,-1.346411,0.458628,0.056793,0.099506,-0.867357,-0.338259,-0.473804,0.083685,-0.064526,0.519315,5.619024,5.811599,3.278046,-0.032764,0.084143,0.000000,-0.007910,-0.003849,0.000000
4.350000,2.862894,0.791102,-1.345439,0.449959,0.053408,0.094794,-0.866237,-0.338619,-0.468450,0.140257,-0.007876,0.551228,5.658314,5.545729,3.118148,-0.032816,0.084078,0.000000,-0.002546,-0.009057,0.000000
4.360000,2.867350,0.791619,-1.344515,0.441305,0.050023,0.090138,-0.864551,-0.338424,-0.462784,0.196903,0.046388,0.581681,5.683087,5.280862,2.960637,-0.032816,0.083962,0.000000,0.002599,-0.014293,0.000000
4.370000,2.871720,0.792102,-1.343636,0.432670,0.046642,0.085540,-0.862297,-0.337702,-0.456823,0.254004,0.097502,0.610337,5.720398,4.967612,2.782668,-0.032765,0.083792,0.000000,0.007453,-0.019598,-0.000000
4.380000,2.876004,0.792552,-1.342804,0.424061,0.043270,0.081002,-0.859472,-0.336482,-0.450582,0.310965,0.146277,0.637587,5.668948,4.788280,2.668083,-0.032668,0.083569,0.000000,0.012095,-0.024913,0.000000
4.390000,2.880202,0.792968,-1.342016,0.415483,0.039914,0.076529,-0.856079,-0.334784,-0.444076,0.367621,0.192761,0.663469,5.674343,4.483224,2.496906,-0.032524,0.083294,0.000000,0.016528,-0.030223,-0.000000
4.400000,2.884314,0.793350,-1.341273,0.406941,0.036576,0.072122,-0.852119,-0.332637,-0.437319,0.424287,0.236164,0.687637,5.641788,4.223745,2.348434,-0.032338,0.082964,0.000000,0.020679,-0.035560,0.000000
4.410000,2.888340,0.793700,-1.340573,0.398442,0.033262,0.067783,-0.847595,-0.330068,-0.430327,0.480393,0.277264,0.710437,5.594275,3.968724,2.202519,-0.032111,0.082582,0.000000,0.024621,-0.040868,0.000000
4.420000,2.892283,0.794016,-1.339917,0.389991,0.029976,0.063516,-0.842512,-0.327103,-0.423116,0.536286,0.315293,0.731610,5.565484,3.664814,2.041698,-0.031847,0.082147,0.000000,0.028280,-0.046184,0.000000
4.430000,2.896140,0.794299,-1.339303,0.381594,0.026721,0.059322,-0.836873,-0.323769,-0.415699,0.591309,0.351142,0.751468,5.436367,3.506603,1.930574,-0.031546,0.081658,0.000000,0.031741,-0.051441,0.000000
4.440000,2.899915,0.794550,-1.338730,0.373256,0.023502,0.055203,-0.830689,-0.320086,-0.408091,0.645309,0.384891,0.770047,5.378452,3.216462,1.776512,-0.031212,0.081118,0.000000,0.035013,-0.056625,-0.000000
4.450000,2.903606,0.794769,-1.338198,0.364982,0.020321,0.051161,-0.823968,-0.316082,-0.400304,0.698687,0.415719,0.787093,5.279034,2.977374,1.641176,-0.030847,0.080525,0.000000,0.038015,-0.061777,-0.000000
4.460000,2.907215,0.794957,-1.337707,0.356778,0.017181,0.047197,-0.816720,-0.311779,-0.392353,0.750889,0.444468,0.802886,5.167980,2.744895,1.508570,-0.030453,0.079882,0.000000,0.040828,-0.066840,-0.000000
4.470000,2.910742,0.795113,-1.337254,0.348649,0.014086,0.043314,-0.808954,-0.307202,-0.384251,0.802086,0.470372,0.817188,5.061282,2.464491,1.361324,-0.030031,0.079188,0.000000,0.043378,-0.071834,-0.000000
4.480000,2.914188,0.795239,-1.336840,0.340601,0.011038,0.039513,-0.800682,-0.302377,-0.376013,0.851902,0.494359,0.830309,4.899703,2.334816,1.263695,-0.029586,0.078445,0.000000,0.045753,-0.076719,0.000000
4.490000,2.917554,0.795334,-1.336464,0.332637,0.008039,0.035794,-0.791921,-0.297321,-0.367649,0.900212,0.516528,0.842289,4.768961,2.071978,1.123537,-0.029117,0.077653,0.000000,0.047962,-0.081482,0.000000
4.500000,2.920841,0.795400,-1.336124,0.324764,0.005092,0.032160,-0.782683,-0.292056,-0.359172,0.947178,0.536059,0.852868,4.613713,1.863027,1.001571,-0.028627,0.076815,0.000000,0.049926,-0.086141,0.000000
4.510000,2.924049,0.795436,-1.335820,0.316985,0.002199,0.028611,-0.772983,-0.286605,-0.350595,0.992501,0.553822,0.862319,4.448757,1.662072,0.882314,-0.028119,0.075930,0.000000,0.051728,-0.090664,0.000000
4.520000,2.927181,0.795444,-1.335551,0.309306,-0.000639,0.025148,-0.762838,-0.280989,-0.341930,1.036117,0.569058,0.870460,4.273293,1.414168,0.752884,-0.027594,0.075001,0.000000,0.053292,-0.095045,-0.000000
4.530000,2.930236,0.795423,-1.335317,0.301730,-0.003420,0.021773,-0.752266,-0.275229,-0.333189,1.077944,0.582715,0.877524,4.090521,1.319163,0.660614,-0.027053,0.074029,0.000000,0.054711,-0.099274,0.000000
4.540000,2.933216,0.795376,-1.335116,0.294262,-0.006143,0.018485,-0.741286,-0.269339,-0.324383,1.117889,0.594901,0.883546,3.896795,1.091051,0.537478,-0.026500,0.073016,0.000000,0.055994,-0.103340,-0.000000
4.550000,2.936122,0.795301,-1.334947,0.286905,-0.008807,0.015285,-0.729915,-0.263339,-0.315523,1.155855,0.604802,0.888342,3.695211,0.918165,0.428428,-0.025934,0.071962,0.000000,0.057061,-0.107235,-0.000000
4.560000,2.938954,0.795200,-1.334810,0.279664,-0.011410,0.012174,-0.718175,-0.257247,-0.306619,1.191738,0.613272,0.892134,3.484826,0.753374,0.322115,-0.025359,0.070871,0.000000,0.057994,-0.110945,0.000000
4.570000,2.941715,0.795073,-1.334703,0.272543,-0.013952,0.009153,-0.706087,-0.251081,-0.297684,1.225570,0.619675,0.894716,3.275687,0.551641,0.202628,-0.024775,0.069743,0.000000,0.058731,-0.114474,-0.000000
4.580000,2.944406,0.794921,-1.334626,0.265544,-0.016431,0.006221,-0.693672,-0.244858,-0.288728,1.257128,0.624813,0.896363,3.034585,0.477797,0.127476,-0.024185,0.068581,0.000000,0.059347,-0.117797,0.000000
4.590000,2.947027,0.794744,-1.334578,0.258670,-0.018849,0.003378,-0.680953,-0.238588,-0.279760,1.286334,0.628790,0.897110,2.810070,0.295743,0.014091,-0.023589,0.067387,0.000000,0.059855,-0.120904,-0.000000
4.600000,2.949579,0.794544,-1.334558,0.251926,-0.021203,0.000626,-0.667952,-0.232289,-0.270790,1.313269,0.630951,0.896720,2.571074,0.160638,-0.083531,-0.022988,0.066163,0.000000,0.060187,-0.123804,-0.000000
4.610000,2.952065,0.794321,-1.334566,0.245312,-0.023494,-0.002037,-0.654695,-0.225973,-0.261828,1.337749,0.632032,0.895444,2.325935,0.034039,-0.178842,-0.022385,0.064911,0.000000,0.060415,-0.126476,-0.000000
4.620000,2.954486,0.794074,-1.334599,0.238833,-0.025722,-0.004611,-0.641206,-0.219654,-0.252885,1.359787,0.631446,0.893082,2.078720,-0.127793,-0.286103,-0.021781,0.063634,0.000000,0.060482,-0.128920,-0.000000
4.630000,2.956843,0.793806,-1.334658,0.232489,-0.027887,-0.007095,-0.627508,-0.213347,-0.243969,1.379266,0.629965,0.889878,1.816189,-0.166539,-0.354095,-0.021176,0.062333,0.000000,0.060462,-0.131122,0.000000
4.640000,2.959136,0.793517,-1.334741,0.226283,-0.029989,-0.009490,-0.613629,-0.207057,-0.235090,1.396132,0.627692,0.885861,1.558161,-0.309235,-0.456309,-0.020572,0.061012,0.000000,0.060364,-0.133074,-0.000000
4.650000,2.961369,0.793207,-1.334847,0.220217,-0.032029,-0.011797,-0.599594,-0.200798,-0.226256,1.410405,0.623993,0.880812,1.292946,-0.406959,-0.545336,-0.019969,0.059672,0.000000,0.060126,-0.134780,0.000000
4.660000,2.963541,0.792876,-1.334976,0.214292,-0.034006,-0.014016,-0.585430,-0.194579,-0.217476,1.422021,0.619587,0.874931,1.024115,-0.496521,-0.632912,-0.019369,0.058316,0.000000,0.059817,-0.136228,0.000000
4.670000,2.965655,0.792527,-1.335127,0.208509,-0.035920,-0.016147,-0.571163,-0.188411,-0.208760,1.430823,0.613871,0.868136,0.741143,-0.622900,-0.723644,-0.018773,0.056948,0.000000,0.059378,-0.137404,0.000000
4.680000,2.967712,0.792158,-1.335299,0.202869,-0.037774,-0.018191,-0.556822,-0.182304,-0.200116,1.436947,0.607626,0.860509,0.483350,-0.624302,-0.801481,-0.018182,0.055569,0.000000,0.058885,-0.138317,-0.000000
4.690000,2.969713,0.791772,-1.335491,0.197372,-0.039567,-0.020149,-0.542433,-0.176260,-0.191553,1.440370,0.600948,0.852064,0.195273,-0.733027,-0.889772,-0.017596,0.054182,0.000000,0.058347,-0.138964,0.000000
4.700000,2.971660,0.791367,-1.335702,0.192020,-0.041299,-0.022023,-0.528024,-0.170289,-0.183078,1.440894,0.593179,0.842736,-0.085711,-0.796972,-0.973362,-0.017015,0.052790,0.000000,0.057699,-0.139324,-0.000000
4.710000,2.973554,0.790946,-1.335931,0.186812,-0.042973,-0.023811,-0.513625,-0.164397,-0.174700,1.438559,0.584984,0.832632,-0.370507,-0.854893,-1.055582,-0.016442,0.051396,0.000000,0.057006,-0.139399,0.000000
4.720000,2.975396,0.790508,-1.336177,0.181747,-0.044588,-0.025517,-0.499262,-0.158592,-0.166429,1.433582,0.575971,0.821552,-0.635957,-0.933298,-1.152493,-0.015875,0.050002,0.000000,0.056229,-0.139210,-0.000000
4.730000,2.977189,0.790054,-1.336441,0.176826,-0.046145,-0.027140,-0.484963,-0.152879,-0.158272,1.425607,0.566620,0.809748,-0.959512,-0.935601,-1.207889,-0.015317,0.048612,0.000000,0.055414,-0.138718,0.000000
4.740000,2.978933,0.789585,-1.336720,0.172048,-0.047645,-0.028683,-0.470760,-0.147260,-0.150236,1.414610,0.557002,0.797236,-1.228926,-1.000869,-1.302557,-0.014767,0.047229,0.000000,0.054570,-0.137919,0.000000
4.750000,2.980631,0.789101,-1.337014,0.167411,-0.049090,-0.030145,-0.456680,-0.141741,-0.142330,1.400927,0.546735,0.783758,-1.517841,-1.038277,-1.384334,-0.014226,0.045855,0.000000,0.053657,-0.136848,0.000000
4.760000,2.982282,0.788604,-1.337323,0.162914,-0.050481,-0.031530,-0.442752,-0.136326,-0.134563,1.384235,0.536284,0.769509,-1.807062,-1.070071,-1.466487,-0.013694,0.044493,0.000000,0.052722,-0.135469,0.000000
4.770000,2.983889,0.788092,-1.337645,0.158555,-0.051817,-0.032837,-0.429004,-0.131018,-0.126943,1.364913,0.525173,0.754418,-2.070294,-1.133116,-1.550847,-0.013172,0.043146,0.000000,0.051716,-0.133819,0.000000
4.780000,2.985454,0.787567,-1.337979,0.154333,-0.053101,-0.034069,-0.415464,-0.125823,-0.119478,1.342557,0.514018,0.738509,-2.401017,-1.096800,-1.631032,-0.012660,0.041817,0.000000,0.050702,-0.131856,0.000000
4.790000,2.986976,0.787030,-1.338326,0.150245,-0.054334,-0.035227,-0.402163,-0.120738,-0.112176,1.317164,0.502878,0.721777,-2.663994,-1.149218,-1.716559,-0.012158,0.040510,0.000000,0.049685,-0.129579,0.000000
4.800000,2.988459,0.786481,-1.338683,0.146289,-0.055517,-0.036313,-0.389129,-0.115767,-0.105045,1.289173,0.491200,0.704183,-2.947054,-1.167513,-1.801372,-0.011666,0.039226,0.000000,0.048609,-0.127030,0.000000
4.810000,2.989903,0.785920,-1.339052,0.142461,-0.056650,-0.037329,-0.376389,-0.110913,-0.098095,1.258261,0.479607,0.685759,-3.227709,-1.181084,-1.887570,-0.011186,0.037970,0.000000,0.047538,-0.124177,0.000000
4.820000,2.991309,0.785348,-1.339430,0.138760,-0.057735,-0.038276,-0.363972,-0.106178,-0.091333,1.224685,0.467309,0.666378,-3.492984,-1.249127,-1.983956,-0.010716,0.036743,0.000000,0.046390,-0.121044,0.000000
4.830000,2.992678,0.784765,-1.339817,0.135181,-0.058774,-0.039156,-0.351905,-0.101566,-0.084770,1.188286,0.455242,0.646174,-3.786244,-1.163105,-2.057079,-0.010258,0.035550,0.000000,0.045262,-0.117615,0.000000
4.840000,2.994013,0.784173,-1.340213,0.131721,-0.059767,-0.039972,-0.340216,-0.097072,-0.078413,1.149098,0.443459,0.625134,-4.044433,-1.222912,-2.156036,-0.009811,0.034392,0.000000,0.044157,-0.113891,-0.000000
4.850000,2.995313,0.783570,-1.340616,0.128375,-0.060716,-0.040725,-0.328931,-0.092699,-0.072271,1.107361,0.431033,0.603091,-4.308156,-1.232692,-2.248605,-0.009375,0.033273,0.000000,0.042982,-0.109897,0.000000
4.860000,2.996581,0.782959,-1.341027,0.125140,-0.061621,-0.041418,-0.318077,-0.088451,-0.066354,1.062986,0.418647,0.580130,-4.565874,-1.244599,-2.343904,-0.008951,0.032195,0.000000,0.041807,-0.105624,-0.000000
4.870000,2.997816,0.782338,-1.341444,0.122012,-0.062485,-0.042053,-0.307680,-0.084327,-0.060671,1.016064,0.406138,0.556205,-4.817484,-1.257418,-2.441685,-0.008539,0.031161,0.000000,0.040615,-0.101079,-0.000000
4.880000,2.999021,0.781709,-1.341868,0.118985,-0.063308,-0.042632,-0.297765,-0.080329,-0.055233,0.966658,0.393493,0.531288,-5.062442,-1.271702,-2.542191,-0.008139,0.030174,0.000000,0.039404,-0.096270,0.000000
4.890000,3.000196,0.781072,-1.342297,0.116055,-0.064092,-0.043158,-0.288355,-0.076458,-0.050049,0.914839,0.380697,0.505351,-5.300271,-1.288028,-2.645719,-0.007751,0.029236,0.000000,0.038173,-0.091203,0.000000
4.900000,3.001343,0.780427,-1.342731,0.113216,-0.064838,-0.043634,-0.279476,-0.072715,-0.045129,0.860681,0.367724,0.478368,-5.530084,-1.306926,-2.751969,-0.007375,0.028351,0.000000,0.036920,-0.085885,-0.000000
4.910000,3.002461,0.779775,-1.343169,0.110464,-0.065547,-0.044062,-0.271149,-0.069104,-0.040485,0.804265,0.354548,0.450302,-5.751691,-1.328962,-2.861767,-0.007012,0.027520,0.000000,0.035641,-0.080326,-0.000000
4.920000,3.003552,0.779116,-1.343612,0.107791,-0.066220,-0.044445,-0.263397,-0.065625,-0.036127,0.745677,0.341133,0.421120,-5.964406,-1.354691,-2.975110,-0.006663,0.026745,0.000000,0.034334,-0.074534,-0.000000
4.930000,3.004617,0.778451,-1.344058,0.105194,-0.066860,-0.044786,-0.256242,-0.062282,-0.032067,0.685009,0.327440,0.390787,-6.167690,-1.384666,-3.092233,-0.006326,0.026030,0.000000,0.032994,-0.068519,-0.000000
4.940000,3.005656,0.777779,-1.344508,0.102665,-0.067466,-0.045087,-0.249704,-0.059077,-0.028315,0.622357,0.313423,0.359262,-6.361045,-1.419429,-3.213399,-0.006003,0.025375,0.000000,0.031617,-0.062290,0.000000
4.950000,3.006670,0.777102,-1.344960,0.100198,-0.068042,-0.045353,-0.243801,-0.056015,-0.024885,0.557825,0.299033,0.326508,-6.543681,-1.459592,-3.338472,-0.005694,0.024784,0.000000,0.030198,-0.055861,0.000000
4.960000,3.007660,0.776419,-1.345415,0.097786,-0.068587,-0.045586,-0.238553,-0.053098,-0.021789,0.491520,0.284212,0.292479,-6.715287,-1.505652,-3.468091,-0.005399,0.024259,0.000000,0.028731,-0.049241,0.000000
4.970000,3.008626,0.775730,-1.345871,0.095424,-0.069104,-0.045790,-0.233977,-0.050332,-0.019040,0.423558,0.268898,0.257131,-6.875208,-1.558186,-3.602307,-0.005119,0.023800,0.000000,0.027210,-0.042445,-0.000000
4.980000,3.009569,0.775037,-1.346330,0.093105,-0.069594,-0.045968,-0.230087,-0.047722,-0.016651,0.354057,0.253025,0.220417,-7.022835,-1.617753,-3.741304,-0.004855,0.023410,0.000000,0.025628,-0.035485,0.000000
4.990000,3.010489,0.774338,-1.346791,0.090820,-0.070059,-0.046124,-0.226900,-0.045274,-0.014637,0.283144,0.236518,0.182289,-7.157486,-1.684904,-3.885221,-0.004607,0.023091,0.000000,0.023979,-0.028376,0.000000
5.000000,3.011385,0.773635,-1.347253,0.088564,-0.070500,-0.046262,-0.224429,-0.042994,-0.013010,0.210953,0.219299,0.142696,-7.278370,-1.760175,-4.034115,-0.004376,0.022843,0.000000,0.022253,-0.021132,-0.000000
