time,x,y,z,vx,vy,vz,ax,ay,az,jx,jy,jz,sx,sy,sz,roll,pitch,yaw,p,q,r
0.000000,-3.033329,0.807123,-1.351907,-0.014307,-0.006389,0.003262,0.131432,-0.053444,0.080807,6.616233,-2.413327,2.811840,8.314715,25.504798,-108.220888,-0.005493,-0.013508,0.000000,-0.249557,-0.683808,-0.000000
0.010000,-3.033472,0.807059,-1.351874,-0.012992,-0.006923,0.004070,0.197594,-0.077577,0.108925,6.699380,-2.158279,1.729631,-149.204538,98.196305,-219.314408,-0.007995,-0.020365,0.000000,-0.223730,-0.693903,0.000000
0.020000,-3.033589,0.806984,-1.351825,-0.010355,-0.007940,0.005440,0.265420,-0.096610,0.115400,3.632142,-0.449401,-1.574448,-303.670962,157.324503,-252.152132,-0.009961,-0.027371,0.000000,-0.044615,-0.369914,0.000000
0.030000,-3.033679,0.806900,-1.351765,-0.007684,-0.008855,0.006378,0.270237,-0.086565,0.077436,0.625961,0.988211,-3.313411,-136.390408,70.214666,-43.318920,-0.008891,-0.027759,0.000000,0.104530,-0.054819,0.000000
0.040000,-3.033742,0.806807,-1.351698,-0.004950,-0.009672,0.006989,0.277939,-0.076845,0.049131,0.904334,0.954892,-2.440826,26.824797,-3.417316,78.516645,-0.007869,-0.028467,0.000000,0.099770,-0.085457,0.000000
0.050000,-3.033778,0.806707,-1.351626,-0.002125,-0.010392,0.007361,0.288324,-0.067467,0.028620,1.162457,0.919864,-1.743078,24.784280,-3.582700,62.158898,-0.006894,-0.029468,0.000000,0.095249,-0.113490,0.000000
0.060000,-3.033785,0.806599,-1.351551,0.000816,-0.011021,0.007562,0.301188,-0.058448,0.014270,1.400020,0.883238,-1.197648,22.718290,-3.737075,47.980736,-0.005964,-0.030737,0.000000,0.090874,-0.139028,0.000000
0.070000,-3.033762,0.806486,-1.351474,0.003899,-0.011561,0.007646,0.316324,-0.049803,0.004667,1.616822,0.845123,-0.783464,20.637877,-3.880503,35.837532,-0.005076,-0.032249,0.000000,0.086575,-0.162144,0.000000
0.080000,-3.033707,0.806368,-1.351398,0.007143,-0.012017,0.007655,0.333524,-0.041546,-0.001399,1.812777,0.805628,-0.480898,18.554192,-4.013037,25.584670,-0.004232,-0.033980,0.000000,0.082296,-0.182883,-0.000000
0.090000,-3.033619,0.806246,-1.351321,0.010569,-0.012392,0.007618,0.352580,-0.033690,-0.004951,1.987906,0.764862,-0.271770,16.478274,-4.134740,17.077525,-0.003430,-0.035907,0.000000,0.077997,-0.201283,0.000000
0.100000,-3.033496,0.806120,-1.351245,0.014195,-0.012691,0.007556,0.373283,-0.026248,-0.006835,2.142343,0.722933,-0.139347,14.421136,-4.245672,10.171475,-0.002672,-0.038006,0.000000,0.073648,-0.217377,0.000000
0.110000,-3.033335,0.805992,-1.351170,0.018035,-0.012917,0.007481,0.395427,-0.019231,-0.007738,2.276329,0.679949,-0.068341,12.393897,-4.345891,4.721893,-0.001957,-0.040255,0.000000,0.069233,-0.231203,0.000000
0.120000,-3.033135,0.805862,-1.351096,0.022103,-0.013076,0.007401,0.418809,-0.012649,-0.008202,2.390221,0.636015,-0.044909,10.407685,-4.435460,0.584163,-0.001287,-0.042631,0.000000,0.064739,-0.242811,-0.000000
0.130000,-3.032893,0.805731,-1.351022,0.026411,-0.013170,0.007317,0.443231,-0.006511,-0.008636,2.484483,0.591239,-0.056657,8.473525,-4.514440,-2.386337,-0.000662,-0.045111,0.000000,0.060166,-0.252263,0.000000
0.140000,-3.032607,0.805599,-1.350949,0.030968,-0.013206,0.007228,0.468499,-0.000825,-0.009335,2.559691,0.545727,-0.092636,6.602360,-4.582877,-4.334260,-0.000084,-0.047676,0.000000,0.055515,-0.259637,0.000000
0.150000,-3.032274,0.805466,-1.350878,0.035781,-0.013187,0.007131,0.494425,0.004403,-0.010489,2.616530,0.499582,-0.143343,4.805379,-4.640841,-5.404210,0.000448,-0.050304,0.000000,0.050795,-0.265029,0.000000
0.160000,-3.031891,0.805335,-1.350807,0.040856,-0.013118,0.007019,0.520829,0.009167,-0.012202,2.655799,0.452910,-0.200720,3.093803,-4.688404,-5.740768,0.000932,-0.052976,0.000000,0.046014,-0.268548,0.000000
0.170000,-3.031457,0.805204,-1.350737,0.046198,-0.013003,0.006887,0.547541,0.013462,-0.014503,2.678406,0.405814,-0.258158,1.481959,-4.725573,-5.510649,0.001368,-0.055675,0.000000,0.041186,-0.270321,0.000000
0.180000,-3.030967,0.805075,-1.350669,0.051807,-0.012848,0.006729,0.574398,0.017283,-0.017365,2.685438,0.358398,-0.310933,0.041129,-4.751796,-5.243691,0.001756,-0.058382,0.000000,0.036324,-0.270487,0.000000
0.190000,-3.030420,0.804947,-1.350603,0.057685,-0.012658,0.006539,0.601250,0.020630,-0.020722,2.679229,0.310778,-0.363032,-1.238310,-4.767353,-4.951280,0.002095,-0.061084,0.000000,0.031442,-0.269270,0.000000
0.200000,-3.029813,0.804822,-1.350538,0.063832,-0.012436,0.006314,0.627982,0.023499,-0.024625,2.660672,0.263051,-0.409959,-2.790080,-4.776824,-1.935692,0.002385,-0.063768,0.000000,0.026553,-0.266791,-0.000000
0.210000,-3.029144,0.804698,-1.350476,0.070245,-0.012188,0.006047,0.654463,0.025891,-0.028921,2.623427,0.215241,-0.401746,-4.555497,-4.779794,3.353893,0.002626,-0.066420,0.000000,0.021675,-0.262758,0.000000
0.220000,-3.028409,0.804578,-1.350417,0.076921,-0.011918,0.005736,0.680451,0.027804,-0.032660,2.569562,0.167455,-0.342881,-5.248771,-4.763378,2.622799,0.002818,-0.069023,0.000000,0.016824,-0.257424,0.000000
0.230000,-3.027605,0.804460,-1.350362,0.083854,-0.011632,0.005394,0.705854,0.029240,-0.035779,2.518452,0.119974,-0.349290,-4.846719,-4.728280,-4.422396,0.002962,-0.071569,0.000000,0.011995,-0.251951,0.000000
0.240000,-3.026731,0.804345,-1.350309,0.091038,-0.011333,0.005020,0.730820,0.030203,-0.039646,2.472627,0.072890,-0.431329,-5.105025,-4.692304,-6.611192,0.003058,-0.074062,0.000000,0.007190,-0.246430,-0.000000
0.250000,-3.025785,0.804233,-1.350261,0.098471,-0.011028,0.004601,0.755307,0.030697,-0.044405,2.416351,0.026128,-0.481514,-6.117581,-4.650819,-2.891038,0.003106,-0.076497,0.000000,0.002435,-0.240049,-0.000000
0.260000,-3.024762,0.804125,-1.350217,0.106145,-0.010719,0.004132,0.779147,0.030726,-0.049276,2.350276,-0.020127,-0.489150,-6.706498,-4.592602,-0.919554,0.003107,-0.078863,0.000000,-0.002246,-0.233005,-0.000000
0.270000,-3.023662,0.804019,-1.350179,0.114053,-0.010413,0.003615,0.802312,0.030295,-0.054188,2.282221,-0.065724,-0.499905,-7.002599,-4.535679,-1.446903,0.003061,-0.081157,0.000000,-0.006852,-0.225748,0.000000
0.280000,-3.022481,0.803916,-1.350145,0.122191,-0.010113,0.003048,0.824791,0.029411,-0.059274,2.210224,-0.110840,-0.518088,-7.441878,-4.484750,-1.838326,0.002970,-0.083378,0.000000,-0.011402,-0.218039,0.000000
0.290000,-3.021218,0.803817,-1.350118,0.130549,-0.009825,0.002430,0.846517,0.028078,-0.064550,2.133384,-0.155419,-0.536671,-7.751693,-4.414349,-1.796369,0.002833,-0.085518,0.000000,-0.015887,-0.209846,0.000000
0.300000,-3.019870,0.803720,-1.350097,0.139121,-0.009552,0.001757,0.867459,0.026303,-0.070008,2.055190,-0.199127,-0.554015,-7.798283,-4.322518,-1.658572,0.002652,-0.087575,0.000000,-0.020273,-0.201537,-0.000000
0.310000,-3.018435,0.803626,-1.350083,0.147898,-0.009299,0.001029,0.887621,0.024096,-0.075630,1.977418,-0.241870,-0.569843,-7.799958,-4.226681,-1.535990,0.002428,-0.089549,0.000000,-0.024551,-0.193295,0.000000
0.320000,-3.016912,0.803534,-1.350076,0.156874,-0.009070,0.000245,0.907007,0.021465,-0.081405,1.899191,-0.283661,-0.584735,-7.945737,-4.125334,-1.468978,0.002161,-0.091441,0.000000,-0.028722,-0.185027,0.000000
0.330000,-3.015298,0.803444,-1.350078,0.166039,-0.008869,-0.000599,0.925604,0.018422,-0.087325,1.818503,-0.324376,-0.599222,-8.178953,-4.011929,-1.429105,0.001853,-0.093249,0.000000,-0.032774,-0.176530,0.000000
0.340000,-3.013591,0.803357,-1.350088,0.175386,-0.008701,-0.001502,0.943377,0.014978,-0.093389,1.735612,-0.363899,-0.613317,-8.273310,-3.890295,-1.370131,0.001506,-0.094971,0.000000,-0.036697,-0.167832,0.000000
0.350000,-3.011790,0.803270,-1.350108,0.184906,-0.008570,-0.002466,0.960317,0.011144,-0.099591,1.653037,-0.402182,-0.626625,-8.186239,-3.764473,-1.285918,0.001119,-0.096606,0.000000,-0.040484,-0.159189,-0.000000
0.360000,-3.009893,0.803185,-1.350137,0.194592,-0.008479,-0.003494,0.976438,0.006934,-0.105922,1.571887,-0.439189,-0.639035,-8.080548,-3.631417,-1.207501,0.000696,-0.098155,0.000000,-0.044133,-0.150714,0.000000
0.370000,-3.007898,0.803101,-1.350178,0.204435,-0.008431,-0.004585,0.991754,0.002361,-0.112372,1.491426,-0.474811,-0.650775,-8.077980,-3.482778,-1.155589,0.000237,-0.099620,0.000000,-0.047634,-0.142332,0.000000
0.380000,-3.005804,0.803017,-1.350229,0.214427,-0.008431,-0.005741,1.006266,-0.002562,-0.118937,1.410327,-0.508844,-0.662147,-8.134823,-3.319067,-1.120527,-0.000257,-0.101002,0.000000,-0.050967,-0.133908,0.000000
0.390000,-3.003610,0.802932,-1.350292,0.224560,-0.008482,-0.006964,1.019961,-0.007816,-0.125615,1.328730,-0.541192,-0.673185,-8.106852,-3.151711,-1.076396,-0.000783,-0.102299,0.000000,-0.054122,-0.125456,0.000000
0.400000,-3.001313,0.802847,-1.350368,0.234826,-0.008588,-0.008253,1.032841,-0.013386,-0.132401,1.248190,-0.571879,-0.683675,-7.968135,-2.984147,-1.019233,-0.001339,-0.103511,0.000000,-0.057103,-0.117135,0.000000
0.410000,-2.998913,0.802760,-1.350457,0.245217,-0.008750,-0.009612,1.044925,-0.019254,-0.139288,1.169367,-0.600875,-0.693570,-7.821738,-2.808657,-0.966126,-0.001925,-0.104641,0.000000,-0.059907,-0.109009,0.000000
0.420000,-2.996409,0.802672,-1.350561,0.255725,-0.008973,-0.011039,1.056228,-0.025403,-0.146272,1.091755,-0.628052,-0.702998,-7.744226,-2.617853,-0.926284,-0.002537,-0.105691,0.000000,-0.062522,-0.101027,0.000000
0.430000,-2.993799,0.802581,-1.350678,0.266342,-0.009258,-0.012537,1.066760,-0.031815,-0.153348,1.014482,-0.653232,-0.712096,-7.707777,-2.414195,-0.893716,-0.003175,-0.106662,0.000000,-0.064932,-0.093101,0.000000
0.440000,-2.991082,0.802487,-1.350811,0.277060,-0.009609,-0.014106,1.076518,-0.038468,-0.160514,0.937600,-0.676336,-0.720872,-7.621324,-2.207619,-0.856553,-0.003836,-0.107554,0.000000,-0.067128,-0.085237,-0.000000
0.450000,-2.988258,0.802389,-1.350960,0.287872,-0.010028,-0.015747,1.085512,-0.045342,-0.167766,0.862056,-0.697384,-0.729227,-7.468206,-2.000354,-0.813952,-0.004518,-0.108367,0.000000,-0.069114,-0.077528,0.000000
0.460000,-2.985325,0.802286,-1.351126,0.298770,-0.010516,-0.017461,1.093759,-0.052416,-0.175099,0.788236,-0.716343,-0.737151,-7.313274,-1.786042,-0.773112,-0.005218,-0.109104,0.000000,-0.070887,-0.070013,-0.000000
0.470000,-2.982282,0.802178,-1.351310,0.309747,-0.011076,-0.019249,1.101277,-0.059668,-0.182509,0.715790,-0.733105,-0.744689,-7.205025,-1.560223,-0.734773,-0.005935,-0.109767,0.000000,-0.072438,-0.062657,0.000000
0.480000,-2.979130,0.802065,-1.351511,0.320796,-0.011709,-0.021112,1.108075,-0.067078,-0.189993,0.644135,-0.747547,-0.751846,-7.125736,-1.325233,-0.695640,-0.006667,-0.110357,0.000000,-0.073755,-0.055401,0.000000
0.490000,-2.975866,0.801944,-1.351732,0.331909,-0.012417,-0.023049,1.114159,-0.074619,-0.197546,0.573276,-0.759610,-0.758602,-7.017338,-1.087314,-0.654444,-0.007410,-0.110875,0.000000,-0.074832,-0.048246,-0.000000
0.500000,-2.972492,0.801816,-1.351972,0.343079,-0.013202,-0.025063,1.119541,-0.082270,-0.205165,0.503788,-0.769294,-0.764935,-6.869018,-0.847692,-0.612780,-0.008164,-0.111322,0.000000,-0.075671,-0.041248,0.000000
0.510000,-2.969005,0.801680,-1.352233,0.354299,-0.014063,-0.027152,1.124235,-0.090005,-0.212845,0.435895,-0.776564,-0.770857,-6.721830,-0.602705,-0.570514,-0.008924,-0.111700,0.000000,-0.076270,-0.034429,0.000000
0.520000,-2.965406,0.801535,-1.352515,0.365564,-0.015002,-0.029319,1.128258,-0.097801,-0.220582,0.369352,-0.781348,-0.776346,-6.606561,-0.350464,-0.522257,-0.009689,-0.112011,0.000000,-0.076621,-0.027764,-0.000000
0.530000,-2.961693,0.801380,-1.352819,0.376865,-0.016019,-0.031564,1.131622,-0.105632,-0.228371,0.303764,-0.783573,-0.781303,-6.511789,-0.092593,-0.467058,-0.010456,-0.112256,0.000000,-0.076719,-0.021216,-0.000000
0.540000,-2.957868,0.801215,-1.353146,0.388196,-0.017114,-0.033887,1.134334,-0.113473,-0.236208,0.239116,-0.783200,-0.785687,-6.400235,0.167832,-0.411423,-0.011223,-0.112435,0.000000,-0.076561,-0.014782,0.000000
0.550000,-2.953930,0.801038,-1.353497,0.399551,-0.018288,-0.036288,1.136404,-0.121296,-0.244085,0.175759,-0.780216,-0.789531,-6.264723,0.430071,-0.357616,-0.011987,-0.112551,0.000000,-0.076147,-0.008496,0.000000
0.560000,-2.949877,0.800849,-1.353872,0.410924,-0.019540,-0.038769,1.137849,-0.129077,-0.251998,0.113822,-0.774598,-0.792839,-6.131296,0.695570,-0.300427,-0.012746,-0.112605,0.000000,-0.075475,-0.002371,0.000000
0.570000,-2.945711,0.800647,-1.354273,0.422308,-0.020870,-0.041328,1.138681,-0.136788,-0.259942,0.053133,-0.766305,-0.795540,-6.019708,0.964979,-0.233341,-0.013497,-0.112599,0.000000,-0.074542,0.003610,0.000000
0.580000,-2.941431,0.800432,-1.354699,0.433698,-0.022276,-0.043967,1.138912,-0.144403,-0.267909,-0.006573,-0.755299,-0.797506,-5.922503,1.237311,-0.157118,-0.014237,-0.112533,0.000000,-0.073346,0.009473,-0.000000
0.590000,-2.937037,0.800202,-1.355152,0.445087,-0.023758,-0.046686,1.138549,-0.151894,-0.275892,-0.065317,-0.741559,-0.798682,-5.815297,1.510933,-0.079595,-0.014964,-0.112409,0.000000,-0.071885,0.015220,0.000000
0.600000,-2.932529,0.799956,-1.355633,0.456469,-0.025314,-0.049485,1.137605,-0.159234,-0.283883,-0.122879,-0.725080,-0.799098,-5.693319,1.785491,-0.003721,-0.015675,-0.112229,0.000000,-0.070160,0.020829,0.000000
0.610000,-2.927908,0.799695,-1.356142,0.467839,-0.026943,-0.052364,1.136092,-0.166396,-0.291874,-0.179183,-0.705849,-0.798756,-5.573297,2.061416,0.076458,-0.016367,-0.111993,0.000000,-0.068171,0.026294,0.000000
0.620000,-2.923173,0.799417,-1.356680,0.479191,-0.028642,-0.055323,1.134022,-0.173351,-0.299858,-0.234344,-0.683852,-0.797569,-5.467579,2.338199,0.169442,-0.017038,-0.111703,0.000000,-0.065918,0.031626,0.000000
0.630000,-2.918324,0.799122,-1.357248,0.490519,-0.030410,-0.058361,1.131405,-0.180073,-0.307825,-0.288535,-0.659085,-0.795368,-5.371141,2.615159,0.274085,-0.017685,-0.111360,0.000000,-0.063400,0.036841,0.000000
0.640000,-2.913362,0.798809,-1.357847,0.501819,-0.032243,-0.061479,1.128251,-0.186533,-0.315765,-0.341767,-0.631548,-0.792087,-5.268351,2.892139,0.379660,-0.018306,-0.110966,0.000000,-0.060620,0.041941,0.000000
0.650000,-2.908288,0.798478,-1.358478,0.513084,-0.034140,-0.064677,1.124570,-0.192704,-0.323667,-0.393902,-0.601242,-0.787774,-5.155910,3.168782,0.483200,-0.018898,-0.110521,0.000000,-0.057578,0.046911,0.000000
0.660000,-2.903100,0.798126,-1.359141,0.524310,-0.036097,-0.067953,1.120373,-0.198558,-0.331521,-0.444885,-0.568173,-0.782423,-5.044266,3.444530,0.592376,-0.019458,-0.110028,0.000000,-0.054275,0.051749,-0.000000
0.670000,-2.897801,0.797756,-1.359837,0.535492,-0.038111,-0.071307,1.115672,-0.204067,-0.339316,-0.494787,-0.532351,-0.775927,-4.941314,3.719063,0.714774,-0.019983,-0.109486,0.000000,-0.050714,0.056461,0.000000
0.680000,-2.892391,0.797364,-1.360567,0.546623,-0.040179,-0.074739,1.110477,-0.209205,-0.347039,-0.543712,-0.493791,-0.768127,-4.843614,3.992113,0.848350,-0.020472,-0.108898,0.000000,-0.046896,0.061056,0.000000
0.690000,-2.886869,0.796952,-1.361331,0.557701,-0.042296,-0.078248,1.104798,-0.213943,-0.354678,-0.591659,-0.452509,-0.758960,-4.740787,4.263158,0.983518,-0.020921,-0.108265,0.000000,-0.042825,0.065534,0.000000
0.700000,-2.881237,0.796518,-1.362132,0.568719,-0.044458,-0.081832,1.098644,-0.218255,-0.362219,-0.638527,-0.408528,-0.748457,-4.630789,4.531341,1.118147,-0.021329,-0.107587,0.000000,-0.038503,0.069887,0.000000
0.710000,-2.875494,0.796063,-1.362968,0.579674,-0.046661,-0.085492,1.092027,-0.222114,-0.369647,-0.684275,-0.361882,-0.736597,-4.520187,4.796399,1.258836,-0.021692,-0.106867,0.000000,-0.033934,0.074112,0.000000
0.720000,-2.869643,0.795585,-1.363842,0.590560,-0.048900,-0.089225,1.084958,-0.225493,-0.376950,-0.728931,-0.312600,-0.723280,-4.413197,5.059220,1.410836,-0.022007,-0.106105,0.000000,-0.029120,0.078211,0.000000
0.730000,-2.863683,0.795085,-1.364753,0.601373,-0.051171,-0.093031,1.077448,-0.228366,-0.384113,-0.772539,-0.260698,-0.708380,-4.307342,5.319482,1.572259,-0.022274,-0.105302,0.000000,-0.024065,0.082189,0.000000
0.740000,-2.857616,0.794562,-1.365702,0.612109,-0.053467,-0.096908,1.069508,-0.230707,-0.391118,-0.815078,-0.206211,-0.691835,-4.196686,5.575009,1.736384,-0.022489,-0.104461,0.000000,-0.018772,0.086043,-0.000000
0.750000,-2.851441,0.794016,-1.366691,0.622763,-0.055785,-0.100853,1.061147,-0.232490,-0.397950,-0.856473,-0.149198,-0.673652,-4.080548,5.824621,1.901229,-0.022649,-0.103581,0.000000,-0.013247,0.089769,-0.000000
0.760000,-2.845160,0.793446,-1.367719,0.633332,-0.058117,-0.104867,1.052378,-0.233691,-0.404591,-0.896689,-0.089718,-0.653811,-3.962327,6.069149,2.071322,-0.022754,-0.102665,0.000000,-0.007496,0.093364,0.000000
0.770000,-2.838774,0.792853,-1.368788,0.643811,-0.060458,-0.108945,1.043213,-0.234284,-0.411026,-0.935719,-0.027815,-0.632226,-3.842308,6.310060,2.251595,-0.022799,-0.101713,0.000000,-0.001521,0.096828,0.000000
0.780000,-2.832284,0.792237,-1.369898,0.654196,-0.062803,-0.113087,1.033664,-0.234247,-0.417236,-0.973535,0.036483,-0.608779,-3.718907,6.546673,2.440721,-0.022784,-0.100728,0.000000,0.004672,0.100157,-0.000000
0.790000,-2.825691,0.791597,-1.371050,0.664484,-0.065143,-0.117290,1.023742,-0.233555,-0.423201,-1.010097,0.103119,-0.583412,-3.591210,6.776045,2.632055,-0.022706,-0.099710,0.000000,0.011081,0.103350,0.000000
0.800000,-2.818995,0.790934,-1.372244,0.674671,-0.067474,-0.121551,1.013462,-0.232184,-0.428904,-1.045359,0.172004,-0.556138,-3.458671,6.996789,2.823628,-0.022563,-0.098660,0.000000,0.017696,0.106403,-0.000000
0.810000,-2.812197,0.790248,-1.373481,0.684753,-0.069787,-0.125868,1.002835,-0.230114,-0.434324,-1.079271,0.243054,-0.526939,-3.321296,7.210215,3.019774,-0.022352,-0.097581,0.000000,0.024511,0.109313,-0.000000
0.820000,-2.805299,0.789538,-1.374761,0.694728,-0.072076,-0.130238,0.991876,-0.227323,-0.439443,-1.111785,0.316208,-0.495742,-3.179597,7.418243,3.224886,-0.022072,-0.096473,0.000000,0.031521,0.112076,0.000000
0.830000,-2.798303,0.788806,-1.376086,0.704591,-0.074334,-0.134657,0.980600,-0.223790,-0.444239,-1.142863,0.391419,-0.462441,-3.032765,7.620047,3.437484,-0.021722,-0.095339,0.000000,0.038721,0.114689,-0.000000
0.840000,-2.791208,0.788052,-1.377454,0.714340,-0.076552,-0.139122,0.969019,-0.219495,-0.448691,-1.172441,0.468609,-0.426992,-2.879294,7.812018,3.651478,-0.021298,-0.094179,0.000000,0.046107,0.117147,0.000000
0.850000,-2.784016,0.787275,-1.378868,0.723971,-0.078723,-0.143631,0.957151,-0.214418,-0.452779,-1.200449,0.547660,-0.389412,-2.721143,7.992303,3.865661,-0.020800,-0.092995,0.000000,0.053667,0.119445,-0.000000
0.860000,-2.776728,0.786477,-1.380327,0.733483,-0.080840,-0.148178,0.945010,-0.208542,-0.456480,-1.226863,0.628455,-0.349679,-2.558585,8.162627,4.083826,-0.020225,-0.091789,0.000000,0.061394,0.121582,0.000000
0.870000,-2.769346,0.785658,-1.381832,0.742871,-0.082894,-0.152760,0.932613,-0.201849,-0.459772,-1.251620,0.710912,-0.307735,-2.384443,8.326056,4.307997,-0.019572,-0.090563,0.000000,0.069280,0.123553,0.000000
0.880000,-2.761871,0.784819,-1.383382,0.752135,-0.084877,-0.157373,0.919978,-0.194324,-0.462634,-1.274552,0.794976,-0.263519,-2.197678,8.481574,4.536775,-0.018839,-0.089318,0.000000,0.077324,0.125342,0.000000
0.890000,-2.754303,0.783961,-1.384979,0.761271,-0.086781,-0.162013,0.907122,-0.185950,-0.465043,-1.295574,0.880544,-0.217000,-2.007375,8.623925,4.767134,-0.018025,-0.088056,0.000000,0.085516,0.126944,0.000000
0.900000,-2.746645,0.783084,-1.386622,0.770277,-0.088596,-0.166674,0.894066,-0.176713,-0.466974,-1.314700,0.967455,-0.168177,-1.815781,8.751365,4.997532,-0.017129,-0.086779,0.000000,0.093845,0.128360,0.000000
0.910000,-2.738898,0.782189,-1.388313,0.779152,-0.090315,-0.171353,0.880828,-0.166600,-0.468406,-1.331889,1.055571,-0.117049,-1.616137,8.866627,5.229645,-0.016148,-0.085488,0.000000,0.102301,0.129589,0.000000
0.920000,-2.731062,0.781277,-1.390050,0.787894,-0.091928,-0.176042,0.867429,-0.155601,-0.469315,-1.347023,1.144787,-0.063584,-1.402936,8.971931,5.466909,-0.015083,-0.084186,0.000000,0.110875,0.130619,0.000000
0.930000,-2.723140,0.780350,-1.391833,0.796501,-0.093427,-0.180739,0.853888,-0.143705,-0.469678,-1.359948,1.235010,-0.007711,-1.177717,9.065747,5.708751,-0.013931,-0.082875,0.000000,0.119564,0.131437,0.000000
0.940000,-2.715132,0.779409,-1.393664,0.804972,-0.094802,-0.185436,0.840230,-0.130901,-0.469470,-1.370577,1.326102,0.050591,-0.946980,9.143991,5.949878,-0.012691,-0.081557,0.000000,0.128356,0.132036,-0.000000
0.950000,-2.707041,0.778454,-1.395542,0.813306,-0.096045,-0.190128,0.826476,-0.117183,-0.468666,-1.378888,1.417889,0.111287,-0.712989,9.205402,6.187827,-0.011363,-0.080234,0.000000,0.137239,0.132415,0.000000
0.960000,-2.698866,0.777488,-1.397467,0.821501,-0.097146,-0.194809,0.812652,-0.102543,-0.467244,-1.384837,1.510210,0.174348,-0.470905,9.251791,6.425784,-0.009946,-0.078909,0.000000,0.146202,0.132571,0.000000
0.970000,-2.690611,0.776511,-1.399438,0.829559,-0.098096,-0.199473,0.798780,-0.086978,-0.465179,-1.388306,1.602925,0.239802,-0.213950,9.284246,6.668835,-0.008439,-0.077583,0.000000,0.155236,0.132493,0.000000
0.980000,-2.682275,0.775526,-1.401456,0.837477,-0.098886,-0.204113,0.784886,-0.070485,-0.462448,-1.389116,1.695895,0.307725,0.057263,9.301417,6.915857,-0.006841,-0.076259,0.000000,0.164330,0.132164,0.000000
0.990000,-2.673861,0.774534,-1.403521,0.845256,-0.099506,-0.208722,0.770997,-0.053061,-0.459025,-1.387161,1.788954,0.378119,0.334025,9.300619,7.159266,-0.005152,-0.074939,0.000000,0.173475,0.131574,0.000000
1.000000,-2.665370,0.773536,-1.405631,0.852897,-0.099947,-0.213293,0.757142,-0.034706,-0.454885,-1.382435,1.881908,0.450910,0.611183,9.281005,7.396330,-0.003372,-0.073627,0.000000,0.182655,0.130724,0.000000
1.010000,-2.656803,0.772535,-1.407786,0.860399,-0.100200,-0.217820,0.743349,-0.015422,-0.450007,-1.374937,1.974574,0.526046,0.895106,9.243359,7.631648,-0.001499,-0.072325,0.000000,0.191859,0.129614,0.000000
1.020000,-2.648162,0.771532,-1.409987,0.867764,-0.100255,-0.222294,0.729644,0.004786,-0.444365,-1.364533,2.066775,0.603543,1.199791,9.187668,7.870482,0.000466,-0.071035,0.000000,0.201074,0.128231,0.000000
1.030000,-2.639448,0.770530,-1.412232,0.874992,-0.100104,-0.226707,0.716058,0.025913,-0.437936,-1.350941,2.158327,0.683456,1.524112,9.112712,8.111275,0.002522,-0.069760,0.000000,0.210288,0.126547,0.000000
1.040000,-2.630662,0.769530,-1.414521,0.882085,-0.099737,-0.231052,0.702625,0.047952,-0.430695,-1.334051,2.249029,0.765768,1.849209,9.017221,8.346088,0.004672,-0.068504,0.000000,0.219486,0.124551,-0.000000
1.050000,-2.621806,0.768535,-1.416853,0.889044,-0.099145,-0.235321,0.689377,0.070894,-0.422620,-1.313957,2.338671,0.850377,2.169474,8.901615,8.570876,0.006912,-0.067269,0.000000,0.228654,0.122252,0.000000
1.060000,-2.612881,0.767547,-1.419228,0.895873,-0.098319,-0.239505,0.676346,0.094726,-0.413688,-1.290661,2.427061,0.937186,2.497774,8.765618,8.790403,0.009245,-0.066059,0.000000,0.237778,0.119649,-0.000000
1.070000,-2.603889,0.766568,-1.421643,0.902571,-0.097250,-0.243595,0.663564,0.119435,-0.403877,-1.264001,2.513984,1.026186,2.846634,8.605670,9.013518,0.011668,-0.064876,0.000000,0.246844,0.116725,0.000000
1.080000,-2.594830,0.765602,-1.424100,0.909144,-0.095930,-0.247582,0.651066,0.145005,-0.393164,-1.233729,2.599175,1.117456,3.212537,8.420631,9.238572,0.014182,-0.063724,0.000000,0.255830,0.113454,0.000000
1.090000,-2.585706,0.764650,-1.426595,0.915593,-0.094350,-0.251458,0.638889,0.171418,-0.381527,-1.199751,2.682396,1.210957,3.578702,8.214087,9.452452,0.016785,-0.062606,0.000000,0.264719,0.109825,0.000000
1.100000,-2.576518,0.763715,-1.429129,0.921922,-0.092502,-0.255213,0.627071,0.198653,-0.368945,-1.162155,2.763456,1.306505,3.938326,7.988190,9.650652,0.019477,-0.061527,0.000000,0.273497,0.105843,0.000000
1.110000,-2.567267,0.762800,-1.431699,0.928134,-0.090377,-0.258837,0.615646,0.226688,-0.355397,-1.120984,2.842160,1.403970,4.302586,7.739351,9.841204,0.022255,-0.060489,0.000000,0.282152,0.101512,0.000000
1.120000,-2.557955,0.761907,-1.434306,0.934234,-0.087968,-0.262321,0.604651,0.255497,-0.340866,-1.076103,2.918243,1.503329,4.687970,7.460026,10.032698,0.025120,-0.059496,0.000000,0.290661,0.096815,-0.000000
1.130000,-2.548583,0.761040,-1.436946,0.940227,-0.085267,-0.265654,0.594124,0.285052,-0.325331,-1.027225,2.991361,1.604624,5.091141,7.149864,10.222595,0.028069,-0.058552,0.000000,0.298996,0.091719,-0.000000
1.140000,-2.539151,0.760202,-1.439619,0.946117,-0.082267,-0.268827,0.584107,0.315324,-0.308773,-0.974280,3.061241,1.707781,5.489277,6.817877,10.397973,0.031100,-0.057661,0.000000,0.307136,0.086213,0.000000
1.150000,-2.529660,0.759395,-1.442322,0.951909,-0.078961,-0.271830,0.574638,0.346277,-0.291175,-0.917439,3.127718,1.812583,5.876316,6.468911,10.551048,0.034212,-0.056827,0.000000,0.315068,0.080310,-0.000000
1.160000,-2.520112,0.758623,-1.445055,0.957610,-0.075342,-0.274651,0.565758,0.377878,-0.272521,-0.856754,3.190619,1.918802,6.266970,6.095728,10.689680,0.037402,-0.056054,0.000000,0.322778,0.074010,-0.000000
1.170000,-2.510508,0.757888,-1.447815,0.963224,-0.071403,-0.277280,0.557503,0.410090,-0.252799,-0.792100,3.249633,2.026377,6.673276,5.684118,10.831842,0.040668,-0.055346,0.000000,0.330240,0.067297,0.000000
1.180000,-2.500848,0.757195,-1.450601,0.968760,-0.067140,-0.279707,0.549916,0.442871,-0.231994,-0.723288,3.304301,2.135439,7.090742,5.234707,10.974664,0.044007,-0.054707,0.000000,0.337411,0.060142,-0.000000
1.190000,-2.491133,0.756545,-1.453409,0.974223,-0.062546,-0.281920,0.543038,0.476176,-0.210090,-0.650285,3.354327,2.245870,7.502266,4.765769,11.091912,0.047417,-0.054142,0.000000,0.344266,0.052537,0.000000
1.200000,-2.481364,0.755944,-1.456239,0.979621,-0.057616,-0.283909,0.536910,0.509957,-0.187077,-0.573243,3.399617,2.357277,7.898225,4.284751,11.177840,0.050893,-0.053655,0.000000,0.350794,0.044491,0.000000
1.210000,-2.471540,0.755393,-1.459088,0.984961,-0.052347,-0.285662,0.531573,0.544168,-0.162945,-0.492320,3.440022,2.469427,8.289349,3.778359,11.248654,0.054433,-0.053251,0.000000,0.356983,0.036012,0.000000
1.220000,-2.461664,0.754897,-1.461952,0.990252,-0.046733,-0.287167,0.527064,0.578758,-0.137688,-0.407456,3.475184,2.582250,8.698898,3.227156,11.312561,0.058033,-0.052934,0.000000,0.362797,0.027084,0.000000
1.230000,-2.451735,0.754458,-1.464831,0.995502,-0.040772,-0.288415,0.523424,0.613672,-0.111300,-0.318343,3.504565,2.695678,9.123705,2.633622,11.362847,0.061690,-0.052709,0.000000,0.368182,0.017669,0.000000
1.240000,-2.441754,0.754081,-1.467721,1.000720,-0.034460,-0.289393,0.520697,0.648849,-0.083774,-0.224982,3.527856,2.809507,9.530240,2.023356,11.386984,0.065398,-0.052580,0.000000,0.373104,0.007757,0.000000
1.250000,-2.431721,0.753769,-1.470619,1.005916,-0.027795,-0.290091,0.518924,0.684229,-0.055110,-0.127738,3.545032,2.923418,9.907847,1.407351,11.382529,0.069152,-0.052554,0.000000,0.377559,-0.002626,0.000000
1.260000,-2.421636,0.753526,-1.473523,1.011099,-0.020775,-0.290496,0.518142,0.719750,-0.025306,-0.026825,3.556003,3.037158,10.277785,0.767693,11.355828,0.072949,-0.052633,0.000000,0.381532,-0.013467,-0.000000
1.270000,-2.411499,0.753354,-1.476429,1.016279,-0.013400,-0.290597,0.518387,0.755349,0.005634,0.077818,3.560386,3.150535,10.660811,0.076511,11.309044,0.076783,-0.052824,0.000000,0.384979,-0.024785,-0.000000
1.280000,-2.401310,0.753258,-1.479335,1.021467,-0.005668,-0.290383,0.519698,0.790957,0.037705,0.186391,3.557534,3.263339,11.048643,-0.662467,11.238651,0.080649,-0.053131,0.000000,0.387828,-0.036609,0.000000
1.290000,-2.391070,0.753240,-1.482236,1.026673,0.002420,-0.289843,0.522115,0.826500,0.070900,0.298791,3.547137,3.375308,11.411561,-1.411497,11.139294,0.084540,-0.053559,0.000000,0.390039,-0.048943,0.000000
1.300000,-2.380777,0.753306,-1.485131,1.031909,0.010862,-0.288965,0.525674,0.861900,0.105211,0.414622,3.529304,3.486125,11.745737,-2.154522,11.007648,0.088450,-0.054114,0.000000,0.391612,-0.061757,0.000000
1.310000,-2.370432,0.753458,-1.488016,1.037186,0.019658,-0.287739,0.530408,0.897086,0.140623,0.533706,3.504046,3.595461,12.068612,-2.917224,10.845233,0.092373,-0.054799,0.000000,0.392536,-0.075044,0.000000
1.320000,-2.360033,0.753699,-1.490886,1.042517,0.028804,-0.286153,0.536348,0.931981,0.177120,0.655995,3.470959,3.703029,12.382265,-3.738524,10.656739,0.096302,-0.055621,0.000000,0.392757,-0.088813,0.000000
1.330000,-2.349581,0.754034,-1.493739,1.047913,0.038297,-0.284196,0.543528,0.966505,0.214683,0.781351,3.429276,3.808595,12.677766,-4.612225,10.439707,0.100229,-0.056585,0.000000,0.392179,-0.103062,0.000000
1.340000,-2.339075,0.754465,-1.496570,1.053388,0.048134,-0.281859,0.551975,1.000567,0.253292,0.909550,3.378715,3.911823,12.950457,-5.484758,10.184843,0.104145,-0.057694,0.000000,0.390756,-0.117779,-0.000000
1.350000,-2.328513,0.754996,-1.499376,1.058953,0.058308,-0.279130,0.561719,1.034079,0.292920,1.040360,3.319581,4.012292,13.205725,-6.334814,9.892693,0.108044,-0.058954,0.000000,0.388498,-0.132952,-0.000000
1.360000,-2.317896,0.755631,-1.502153,1.064622,0.068815,-0.276000,0.572783,1.066958,0.333538,1.173665,3.252018,4.109677,13.443303,-7.198002,9.567003,0.111916,-0.060369,0.000000,0.385398,-0.148581,0.000000
1.370000,-2.307221,0.756373,-1.504896,1.070409,0.079648,-0.272460,0.585192,1.099119,0.375113,1.309226,3.175621,4.203632,13.643805,-8.123880,9.199315,0.115752,-0.061945,0.000000,0.381390,-0.164652,-0.000000
1.380000,-2.296488,0.757224,-1.507602,1.076326,0.090798,-0.268498,0.598967,1.130471,0.417610,1.446541,3.089541,4.293664,13.812738,-9.103669,8.782603,0.119544,-0.063685,0.000000,0.376357,-0.181121,0.000000
1.390000,-2.285694,0.758189,-1.510266,1.082388,0.102257,-0.264107,0.614123,1.160910,0.460987,1.585481,2.993547,4.379284,13.971135,-10.068104,8.326712,0.123279,-0.065594,0.000000,0.370244,-0.197983,0.000000
1.400000,-2.274840,0.759269,-1.512884,1.088608,0.114016,-0.259278,0.630677,1.190342,0.505196,1.725963,2.888179,4.460198,14.059924,-10.983801,7.858271,0.126948,-0.067676,0.000000,0.363075,-0.215238,-0.000000
1.410000,-2.263922,0.760469,-1.515452,1.095001,0.126064,-0.254003,0.648642,1.218674,0.550191,1.866679,2.773871,4.536450,14.066991,-11.896359,7.366305,0.130541,-0.069935,0.000000,0.354871,-0.232758,0.000000
1.420000,-2.252940,0.761791,-1.517964,1.101581,0.138389,-0.248275,0.668010,1.245819,0.595925,2.007303,2.650252,4.607524,14.160479,-12.884781,6.772353,0.134046,-0.072372,0.000000,0.345557,-0.250509,0.000000
1.430000,-2.241891,0.763237,-1.520417,1.108362,0.150980,-0.242085,0.688788,1.271679,0.642341,2.149889,2.516176,4.671897,14.321340,-13.927701,6.078398,0.137452,-0.074991,0.000000,0.334953,-0.268706,0.000000
1.440000,-2.230773,0.764810,-1.522806,1.115357,0.163823,-0.235428,0.711008,1.296143,0.689363,2.293730,2.371697,4.729092,14.318483,-14.916303,5.389040,0.140744,-0.077799,0.000000,0.323023,-0.287276,0.000000
1.450000,-2.219584,0.766513,-1.525126,1.122582,0.176903,-0.228298,0.734663,1.319113,0.736923,2.436259,2.217849,4.779678,14.322431,-15.878687,4.696888,0.143912,-0.080795,0.000000,0.309851,-0.305948,-0.000000
1.460000,-2.208321,0.768348,-1.527372,1.130050,0.190205,-0.220689,0.759733,1.340499,0.784957,2.580179,2.054124,4.823030,14.469599,-16.880184,3.931725,0.146941,-0.083983,0.000000,0.295333,-0.325009,-0.000000
1.470000,-2.196983,0.770317,-1.529539,1.137776,0.203713,-0.212599,0.786266,1.360195,0.833384,2.725651,1.880246,4.858312,14.205139,-17.812312,3.135121,0.149818,-0.087368,0.000000,0.279386,-0.344469,0.000000
1.480000,-2.185565,0.772422,-1.531624,1.145776,0.217409,-0.204022,0.814246,1.378104,0.882123,2.864281,1.697878,4.885732,13.481577,-18.659547,2.327269,0.152528,-0.090951,0.000000,0.262165,-0.363408,-0.000000
1.490000,-2.174067,0.774665,-1.533620,1.154061,0.231275,-0.194956,0.843552,1.394153,0.931098,2.995282,1.507055,4.904858,13.068399,-19.567432,1.445152,0.155060,-0.094722,0.000000,0.243634,-0.381709,0.000000
1.500000,-2.162484,0.777048,-1.535523,1.162647,0.245292,-0.185400,0.874152,1.408246,0.980220,3.125649,1.306529,4.914635,12.881906,-20.441545,0.519592,0.157399,-0.098679,0.000000,0.223590,-0.400114,0.000000
1.510000,-2.150814,0.779571,-1.537328,1.171544,0.259440,-0.175352,0.906065,1.420283,1.029391,3.252920,1.098224,4.915249,12.414991,-21.187168,-0.409772,0.159531,-0.102825,0.000000,0.202211,-0.418338,-0.000000
1.520000,-2.139053,0.782237,-1.539030,1.180768,0.273698,-0.164812,0.939210,1.430210,1.078525,3.373949,0.882785,4.906440,12.108886,-22.110651,-1.457779,0.161443,-0.107154,0.000000,0.179539,-0.436001,-0.000000
1.530000,-2.127199,0.785045,-1.540624,1.190329,0.288044,-0.153781,0.973544,1.437939,1.127520,3.495098,0.656011,4.886094,12.159347,-23.252475,-2.649262,0.163120,-0.111661,0.000000,0.155019,-0.453760,0.000000
1.540000,-2.115247,0.787998,-1.542105,1.200239,0.302457,-0.142262,1.009112,1.443330,1.176247,3.617136,0.417736,4.853454,11.916258,-24.173780,-3.820619,0.164541,-0.116352,0.000000,0.128574,-0.471667,0.000000
1.550000,-2.103194,0.791094,-1.543469,1.210511,0.316911,-0.130256,1.045887,1.446294,1.224589,3.733423,0.172535,4.809681,11.303040,-24.823231,-4.906131,0.165690,-0.121224,0.000000,0.100715,-0.488956,0.000000
1.560000,-2.091037,0.794336,-1.544711,1.221157,0.331383,-0.117770,1.083781,1.446781,1.272440,3.843197,-0.078729,4.755332,10.765888,-25.490981,-6.019836,0.166554,-0.126267,0.000000,0.071528,-0.505504,0.000000
1.570000,-2.078771,0.797722,-1.545825,1.232187,0.345847,-0.104807,1.122751,1.444719,1.319695,3.948741,-0.337284,4.689285,10.305840,-26.193731,-7.306463,0.167119,-0.131476,0.000000,0.040828,-0.521508,0.000000
1.580000,-2.066393,0.801253,-1.546807,1.243612,0.360277,-0.091376,1.162756,1.440035,1.366226,4.049314,-0.602603,4.609203,9.737925,-26.807572,-8.730577,0.167369,-0.136845,0.000000,0.008613,-0.536801,0.000000
1.590000,-2.053899,0.804928,-1.547652,1.255442,0.374647,-0.077483,1.203737,1.432667,1.411880,4.143499,-0.873436,4.514673,9.104358,-27.325223,-10.098481,0.167290,-0.142364,0.000000,-0.024988,-0.551151,0.000000
1.600000,-2.041284,0.808746,-1.548356,1.267686,0.388930,-0.063138,1.245626,1.422567,1.456520,4.231401,-1.149108,4.407233,8.617709,-27.859230,-11.383722,0.166868,-0.148024,0.000000,-0.059872,-0.564534,0.000000
1.610000,-2.028545,0.812706,-1.548915,1.280354,0.403099,-0.048353,1.288365,1.409685,1.500024,4.315854,-1.430620,4.286999,8.225446,-28.391282,-12.712293,0.166091,-0.153814,0.000000,-0.096153,-0.577218,0.000000
1.620000,-2.015677,0.816808,-1.549323,1.293454,0.417124,-0.033138,1.331943,1.393954,1.542260,4.395910,-1.716933,4.152987,7.380902,-28.612378,-14.122898,0.164943,-0.159729,0.000000,-0.133718,-0.589016,0.000000
1.630000,-2.002676,0.821049,-1.549578,1.306993,0.430978,-0.017507,1.376283,1.375346,1.583084,4.463472,-2.002868,4.004541,6.106989,-28.513454,-15.573506,0.163415,-0.165755,0.000000,-0.171925,-0.598901,0.000000
1.640000,-1.989537,0.825427,-1.549674,1.320979,0.444631,-0.001476,1.421212,1.353897,1.622350,4.518050,-2.287202,3.841517,5.147762,-28.505993,-17.012639,0.161503,-0.171868,0.000000,-0.210587,-0.606732,0.000000
1.650000,-1.976256,0.829941,-1.549607,1.335417,0.458056,0.014940,1.466644,1.329602,1.659914,4.566427,-2.572988,3.664288,4.399820,-28.604565,-18.398959,0.159202,-0.178049,0.000000,-0.250022,-0.613232,0.000000
1.660000,-1.962829,0.834588,-1.549375,1.350312,0.471223,0.031722,1.512541,1.302437,1.695636,4.606046,-2.859294,3.473538,3.379385,-28.526133,-19.762008,0.156502,-0.184288,0.000000,-0.290043,-0.618048,0.000000
1.670000,-1.949250,0.839366,-1.548973,1.365668,0.484104,0.048852,1.558765,1.272416,1.729385,4.634015,-3.143510,3.269048,2.557686,-28.306151,-21.212728,0.153400,-0.190561,0.000000,-0.330266,-0.620762,0.000000
1.680000,-1.935515,0.844270,-1.548398,1.381487,0.496671,0.066310,1.605221,1.239567,1.761017,4.657200,-3.425417,3.049283,2.116072,-28.032085,-22.739098,0.149896,-0.196849,0.000000,-0.370632,-0.622083,0.000000
1.690000,-1.921620,0.849299,-1.547647,1.397772,0.508896,0.084073,1.651909,1.203908,1.790371,4.676336,-3.704152,2.814266,1.371275,-27.625976,-24.179868,0.145987,-0.203142,0.000000,-0.410948,-0.622031,0.000000
1.700000,-1.907560,0.854448,-1.546716,1.414526,0.520749,0.102117,1.698748,1.165484,1.817302,4.684625,-3.977936,2.565686,0.313608,-27.136566,-25.514295,0.141677,-0.209421,0.000000,-0.450844,-0.619785,0.000000
1.710000,-1.893330,0.859714,-1.545604,1.431747,0.532205,0.120419,1.745601,1.124349,1.841684,4.682608,-4.246883,2.303980,-0.591382,-26.610635,-26.842168,0.136971,-0.215661,0.000000,-0.490215,-0.615366,0.000000
1.720000,-1.878925,0.865093,-1.544308,1.449438,0.543236,0.138951,1.792400,1.080546,1.863382,4.672798,-4.510149,2.028843,-1.533088,-25.841541,-28.171581,0.131874,-0.221843,0.000000,-0.528858,-0.609020,0.000000
1.730000,-1.864341,0.870579,-1.542825,1.467595,0.553816,0.157686,1.839057,1.034146,1.882261,4.651946,-4.763714,1.740548,-2.682203,-24.791987,-29.461069,0.126395,-0.227946,0.000000,-0.566147,-0.600331,0.000000
1.740000,-1.849573,0.876169,-1.541154,1.486219,0.563919,0.176596,1.885439,0.985272,1.898193,4.619153,-5.005989,1.439621,-3.733594,-23.750804,-30.694662,0.120552,-0.233944,0.000000,-0.601748,-0.589181,0.000000
1.750000,-1.834617,0.881857,-1.539293,1.505304,0.573522,0.195650,1.931440,0.934027,1.911054,4.577274,-5.238730,1.126655,-4.631264,-22.827481,-31.862550,0.114362,-0.239813,0.000000,-0.635749,-0.575909,-0.000000
1.760000,-1.819467,0.887639,-1.537241,1.524848,0.582600,0.214817,1.976984,0.880497,1.920726,4.526528,-5.462538,0.802370,-5.586377,-21.818946,-32.964387,0.107840,-0.245535,0.000000,-0.668089,-0.560561,0.000000
1.770000,-1.804120,0.893509,-1.534997,1.544844,0.591132,0.234065,2.021971,0.824776,1.927101,4.465547,-5.675109,0.467367,-6.622281,-20.480159,-34.016722,0.101003,-0.251088,0.000000,-0.698358,-0.543003,-0.000000
1.780000,-1.788570,0.899462,-1.532560,1.565287,0.599095,0.253359,2.066295,0.766995,1.930073,4.394083,-5.872142,0.122036,-7.663592,-18.865420,-35.007766,0.093875,-0.256449,0.000000,-0.725914,-0.523239,0.000000
1.790000,-1.772814,0.905491,-1.529930,1.586170,0.606472,0.272666,2.109853,0.707333,1.929542,4.312275,-6.052418,-0.232788,-8.692823,-17.300777,-35.901196,0.086488,-0.261597,0.000000,-0.750500,-0.501350,-0.000000
1.800000,-1.756847,0.911591,-1.527107,1.607484,0.613242,0.291950,2.152541,0.645947,1.925418,4.220226,-6.218157,-0.595988,-9.710392,-15.884566,-36.719478,0.078869,-0.266512,0.000000,-0.772288,-0.477430,-0.000000
1.810000,-1.740664,0.917756,-1.524091,1.629221,0.619390,0.311175,2.194257,0.582970,1.917622,4.118067,-6.370109,-0.967178,-10.721949,-14.398543,-37.473858,0.071046,-0.271174,0.000000,-0.791298,-0.451572,0.000000
1.820000,-1.724262,0.923979,-1.520883,1.651369,0.624901,0.330303,2.234902,0.518544,1.906074,4.005787,-6.506128,-1.345465,-11.743929,-12.616824,-38.067817,0.063047,-0.275565,0.000000,-0.807206,-0.423875,0.000000
1.830000,-1.707637,0.930254,-1.517485,1.673919,0.629761,0.349296,2.274373,0.452847,1.890713,3.883189,-6.622445,-1.728534,-12.776034,-10.609962,-38.474356,0.054906,-0.279667,0.000000,-0.819509,-0.394479,0.000000
1.840000,-1.690784,0.936574,-1.513897,1.696857,0.633958,0.368117,2.312566,0.386096,1.871503,3.750266,-6.718327,-2.114953,-13.789100,-8.683694,-38.816676,0.046661,-0.283466,0.000000,-0.828108,-0.363526,-0.000000
1.850000,-1.673700,0.942933,-1.510122,1.720170,0.637483,0.386726,2.349378,0.318481,1.848414,3.607407,-6.796119,-2.504867,-14.747435,-6.897275,-39.186088,0.038348,-0.286945,0.000000,-0.833308,-0.331159,0.000000
1.860000,-1.656381,0.949324,-1.506163,1.743844,0.640328,0.405085,2.384714,0.250173,1.821406,3.455318,-6.856273,-2.898674,-15.668578,-5.055840,-39.483113,0.029999,-0.290094,0.000000,-0.835200,-0.297554,0.000000
1.870000,-1.638823,0.955740,-1.502021,1.767864,0.642487,0.423154,2.418485,0.181355,1.790440,3.294035,-6.897236,-3.294530,-16.639484,-3.053170,-39.454285,0.021648,-0.292900,0.000000,-0.833643,-0.262885,-0.000000
1.880000,-1.621023,0.962174,-1.497700,1.792214,0.643955,0.440894,2.450595,0.112228,1.755516,3.122528,-6.917336,-3.687760,-17.644482,-0.967712,-39.112690,0.013330,-0.295353,0.000000,-0.828509,-0.227309,0.000000
1.890000,-1.602979,0.968619,-1.493203,1.816876,0.644731,0.458265,2.480935,0.043009,1.716685,2.941145,-6.916590,-4.076783,-18.560157,1.052573,-38.791738,0.005081,-0.297447,0.000000,-0.819913,-0.191038,0.000000
1.900000,-1.584686,0.975068,-1.488534,1.841833,0.644815,0.475228,2.509417,-0.026103,1.673980,2.751325,-6.896285,-4.463595,-19.435354,3.015576,-38.568939,-0.003066,-0.299175,0.000000,-0.808137,-0.154276,0.000000
1.910000,-1.566142,0.981515,-1.483698,1.867064,0.644209,0.491744,2.535962,-0.094917,1.627413,2.552438,-6.856279,-4.848162,-20.342343,5.001242,-38.211601,-0.011080,-0.300534,0.000000,-0.793290,-0.117056,0.000000
1.920000,-1.547344,0.987953,-1.478699,1.892552,0.642917,0.507776,2.560466,-0.163229,1.577017,2.344478,-6.796260,-5.227827,-21.101735,6.946482,-37.549472,-0.018930,-0.301519,0.000000,-0.775483,-0.079573,-0.000000
1.930000,-1.528291,0.994374,-1.473543,1.918274,0.640945,0.523285,2.582851,-0.230842,1.522857,2.130404,-6.717349,-5.599152,-21.676010,8.805078,-36.649191,-0.026587,-0.302128,0.000000,-0.755007,-0.042364,0.000000
1.940000,-1.508979,1.000771,-1.468234,1.944209,0.638300,0.538233,2.603074,-0.297576,1.465034,1.910958,-6.620158,-5.960811,-22.312250,10.649698,-35.725299,-0.034028,-0.302369,0.000000,-0.732098,-0.005630,0.000000
1.950000,-1.489407,1.007140,-1.462778,1.970335,0.634993,0.552585,2.621070,-0.363245,1.403640,1.684159,-6.504355,-6.313658,-23.044943,12.506078,-34.845596,-0.041229,-0.302243,0.000000,-0.706880,0.030809,0.000000
1.960000,-1.469572,1.013471,-1.457182,1.996630,0.631035,0.566306,2.636757,-0.427663,1.338760,1.450059,-6.370037,-6.657722,-23.701191,14.306023,-33.864546,-0.048166,-0.301755,0.000000,-0.679526,0.066886,0.000000
1.970000,-1.449474,1.019760,-1.451452,2.023070,0.626440,0.579360,2.650072,-0.490646,1.270486,1.210135,-6.218235,-6.990949,-24.239918,15.968888,-32.605394,-0.054819,-0.300907,0.000000,-0.650317,0.102322,-0.000000
1.980000,-1.429111,1.026000,-1.445595,2.049632,0.621222,0.591716,2.660960,-0.552028,1.198941,0.965261,-6.050659,-7.309830,-24.721432,17.496229,-31.107296,-0.061173,-0.299708,0.000000,-0.619616,0.136874,0.000000
1.990000,-1.408481,1.032185,-1.439618,2.076290,0.615399,0.603339,2.669377,-0.611659,1.124289,0.715706,-5.868310,-7.613095,-25.182769,18.974430,-29.608406,-0.067213,-0.298168,0.000000,-0.587687,0.170455,0.000000
2.000000,-1.387585,1.038308,-1.433528,2.103019,0.608989,0.614201,2.675274,-0.669394,1.046680,0.461605,-5.671170,-7.901998,-25.597044,20.457169,-28.187589,-0.072928,-0.296295,0.000000,-0.554653,0.203083,-0.000000
2.010000,-1.366421,1.044365,-1.427334,2.129795,0.602011,0.624273,2.678609,-0.725083,0.966249,0.203765,-5.459167,-8.176846,-25.941405,21.868156,-26.686815,-0.078307,-0.294098,0.000000,-0.520625,0.234684,0.000000
2.020000,-1.344989,1.050348,-1.421043,2.156591,0.594487,0.633526,2.679350,-0.778577,0.883143,-0.057223,-5.233807,-8.435735,-26.273855,23.032229,-24.925329,-0.083342,-0.291590,0.000000,-0.485891,0.265149,0.000000
2.030000,-1.323289,1.056254,-1.414663,2.183382,0.586440,0.641936,2.677464,-0.829759,0.797535,-0.321712,-4.998522,-8.675353,-26.595215,23.947001,-22.957673,-0.088027,-0.288780,0.000000,-0.450941,0.294436,0.000000
2.040000,-1.301322,1.062077,-1.408204,2.210141,0.577892,0.649477,2.672915,-0.878548,0.709636,-0.589127,-4.754867,-8.894888,-26.823025,24.833777,-21.031066,-0.092364,-0.285681,0.000000,-0.416022,0.322499,0.000000
2.050000,-1.279086,1.067812,-1.401674,2.236840,0.568869,0.656128,2.665682,-0.924856,0.619637,-0.858172,-4.501847,-9.095974,-27.004497,25.799302,-19.173669,-0.096351,-0.282305,0.000000,-0.381075,0.349299,0.000000
2.060000,-1.256585,1.073455,-1.395081,2.263454,0.559395,0.661870,2.655752,-0.968585,0.527716,-1.129217,-4.238881,-9.278362,-27.189126,26.676743,-17.230527,-0.099988,-0.278665,0.000000,-0.346099,0.374916,0.000000
2.070000,-1.233817,1.079000,-1.388436,2.289955,0.549497,0.666683,2.643098,-1.009634,0.434070,-1.401955,-3.968312,-9.440585,-27.214368,27.175686,-15.177689,-0.103275,-0.274772,0.000000,-0.311394,0.399330,0.000000
2.080000,-1.210786,1.084444,-1.381748,2.316316,0.539203,0.670551,2.627713,-1.047951,0.338904,-1.673504,-3.695367,-9.581915,-27.054672,27.328708,-13.079583,-0.106218,-0.270638,0.000000,-0.277512,0.422303,0.000000
2.090000,-1.187491,1.089784,-1.375025,2.342510,0.528538,0.673461,2.609627,-1.083541,0.242431,-1.943048,-3.421738,-9.702176,-26.937207,27.514336,-10.971782,-0.108828,-0.266280,0.000000,-0.244623,0.443825,0.000000
2.100000,-1.163935,1.095015,-1.368278,2.368509,0.517532,0.675400,2.588852,-1.116386,0.144861,-2.212249,-3.145081,-9.801351,-26.893943,27.829185,-8.846982,-0.111114,-0.261711,0.000000,-0.212490,0.464133,0.000000
2.110000,-1.140121,1.100135,-1.361517,2.394287,0.506211,0.676358,2.565382,-1.146443,0.046404,-2.480927,-2.865154,-9.879116,-26.769931,28.009669,-6.697013,-0.113081,-0.256942,0.000000,-0.181088,0.483273,0.000000
2.120000,-1.116050,1.105139,-1.354751,2.419816,0.494603,0.676328,2.539233,-1.173689,-0.052721,-2.747647,-2.584887,-9.935291,-26.531736,27.831778,-4.557115,-0.114738,-0.251985,0.000000,-0.150685,0.501183,0.000000
2.130000,-1.091724,1.110027,-1.347991,2.445071,0.482737,0.675304,2.510430,-1.198141,-0.152302,-3.011562,-2.308518,-9.970258,-26.232380,27.370921,-2.446430,-0.116097,-0.246853,0.000000,-0.121654,0.517872,0.000000
2.140000,-1.067148,1.114794,-1.341245,2.470025,0.470640,0.673282,2.479002,-1.219859,-0.252127,-3.272295,-2.037469,-9.984220,-25.906314,26.914434,-0.332174,-0.117174,-0.241559,0.000000,-0.094080,0.533389,0.000000
2.150000,-1.042324,1.119440,-1.334525,2.494651,0.458340,0.670261,2.444984,-1.238890,-0.351986,-3.529688,-1.770230,-9.976902,-25.560345,26.541549,1.818459,-0.117981,-0.236113,0.000000,-0.067775,0.547793,-0.000000
2.160000,-1.017255,1.123961,-1.327840,2.518925,0.445862,0.666242,2.408408,-1.255264,-0.451665,-3.783502,-1.506638,-9.947851,-25.174555,26.058909,3.967491,-0.118531,-0.230527,0.000000,-0.042680,0.561132,0.000000
2.170000,-0.991945,1.128357,-1.321200,2.542820,0.433234,0.661228,2.369314,-1.269023,-0.550943,-4.033179,-1.249052,-9.897552,-24.720147,25.272354,6.001799,-0.118837,-0.224812,0.000000,-0.018959,0.573444,0.000000
2.180000,-0.966399,1.132626,-1.314615,2.566311,0.420482,0.655223,2.327745,-1.280245,-0.649616,-4.277905,-1.001191,-9.827815,-24.204719,24.241631,7.914933,-0.118912,-0.218977,0.000000,0.003122,0.584769,0.000000
2.190000,-0.940619,1.136766,-1.308096,2.589375,0.407629,0.648235,2.283756,-1.289046,-0.747499,-4.517274,-0.764219,-9.739253,-23.669952,23.226559,9.845172,-0.118776,-0.213034,0.000000,0.023531,0.595155,0.000000
2.200000,-0.914611,1.140778,-1.301651,2.611986,0.394701,0.640273,2.237399,-1.295529,-0.844401,-4.751304,-0.536660,-9.630911,-23.122471,22.285571,11.845395,-0.118443,-0.206990,0.000000,0.042456,0.604653,0.000000
2.210000,-0.888380,1.144660,-1.295290,2.634122,0.381719,0.631347,2.188729,-1.299780,-0.940117,-4.979723,-0.318507,-9.502345,-22.537188,21.250510,13.808113,-0.117928,-0.200855,0.000000,0.059954,0.613303,0.000000
2.220000,-0.861929,1.148413,-1.289024,2.655761,0.368705,0.621471,2.137805,-1.301899,-1.034448,-5.202047,-0.111649,-9.354749,-21.908087,20.002471,15.584501,-0.117245,-0.194638,0.000000,0.075928,0.621151,-0.000000
2.230000,-0.835264,1.152035,-1.282861,2.676879,0.355681,0.610658,2.084689,-1.302013,-1.127212,-5.417885,0.081542,-9.190655,-21.246608,18.602486,17.192539,-0.116410,-0.188346,0.000000,0.090255,0.628268,0.000000
2.240000,-0.808391,1.155526,-1.276811,2.697455,0.342665,0.598927,2.029447,-1.300268,-1.218261,-5.626980,0.260400,-9.010898,-20.563198,17.214374,18.817869,-0.115441,-0.181986,0.000000,0.102948,0.634702,-0.000000
2.250000,-0.781315,1.158888,-1.270882,2.717468,0.329675,0.586293,1.972149,-1.296805,-1.307430,-5.829149,0.425829,-8.814298,-19.857148,15.864518,20.523485,-0.114352,-0.175566,0.000000,0.114133,0.640471,0.000000
2.260000,-0.754042,1.162120,-1.265085,2.736897,0.316729,0.572778,1.912864,-1.291752,-1.394547,-6.024123,0.577691,-8.600429,-19.125329,14.455474,22.173752,-0.113158,-0.169092,0.000000,0.123849,0.645600,-0.000000
2.270000,-0.726577,1.165222,-1.259427,2.755725,0.303840,0.558402,1.851666,-1.285251,-1.479439,-6.211655,0.714939,-8.370823,-18.375915,12.950910,23.599377,-0.111875,-0.162570,0.000000,0.132071,0.650143,-0.000000
2.280000,-0.698927,1.168197,-1.253917,2.773931,0.291024,0.543189,1.788631,-1.277453,-1.561963,-6.391641,0.836709,-8.128441,-17.614128,11.395593,24.832463,-0.110517,-0.156006,0.000000,0.138804,0.654178,-0.000000
2.290000,-0.671099,1.171043,-1.248563,2.791497,0.278291,0.527163,1.723834,-1.268517,-1.642008,-6.563938,0.942851,-7.874174,-16.832785,9.848823,26.089306,-0.109099,-0.149405,0.000000,0.144089,0.657742,0.000000
2.300000,-0.643097,1.173762,-1.243373,2.808407,0.265654,0.510349,1.657352,-1.258596,-1.719447,-6.728297,1.033685,-7.606655,-16.024319,8.307564,27.422406,-0.107635,-0.142771,0.000000,0.147981,0.660834,-0.000000
2.310000,-0.614931,1.176356,-1.238356,2.824644,0.253119,0.492774,1.589268,-1.247843,-1.794141,-6.884424,1.109002,-7.325726,-15.197699,6.747980,28.681119,-0.106139,-0.136110,0.000000,0.150501,0.663464,0.000000
2.320000,-0.586605,1.178825,-1.233518,2.840193,0.240697,0.474466,1.519664,-1.236416,-1.865961,-7.032251,1.168645,-7.033032,-14.379784,5.208628,29.738711,-0.104625,-0.129426,0.000000,0.151684,0.665684,0.000000
2.330000,-0.558127,1.181170,-1.228867,2.855038,0.228391,0.455455,1.448623,-1.224470,-1.934802,-7.172020,1.213175,-6.730951,-13.572293,3.714457,30.641711,-0.103105,-0.122722,0.000000,0.151629,0.667568,-0.000000
2.340000,-0.529504,1.183393,-1.224409,2.869165,0.216207,0.435770,1.376223,-1.212152,-2.000580,-7.303696,1.242934,-6.420198,-12.742885,2.228379,31.550774,-0.101592,-0.116001,0.000000,0.150395,0.669145,-0.000000
2.350000,-0.500743,1.185494,-1.220151,2.882562,0.204148,0.415443,1.302549,-1.199611,-2.063206,-7.426878,1.257742,-6.099936,-11.879865,0.722497,32.482106,-0.100097,-0.109268,0.000000,0.147981,0.670396,0.000000
2.360000,-0.471853,1.187476,-1.216100,2.895216,0.192215,0.394506,1.227686,-1.186998,-2.122579,-7.541294,1.257384,-5.770556,-11.008715,-0.761375,33.329175,-0.098632,-0.102524,0.000000,0.144392,0.671327,0.000000
2.370000,-0.442839,1.189338,-1.212261,2.907116,0.180408,0.372992,1.151723,-1.174464,-2.178617,-7.647052,1.242515,-5.433352,-10.163093,-2.125143,34.062998,-0.097209,-0.095774,0.000000,0.139708,0.671980,-0.000000
2.380000,-0.413710,1.191084,-1.208640,2.918251,0.168726,0.350934,1.074745,-1.162147,-2.231246,-7.744556,1.214881,-5.089296,-9.338167,-3.364205,34.722621,-0.095837,-0.089019,0.000000,0.134089,0.672412,-0.000000
2.390000,-0.384474,1.192713,-1.205242,2.928611,0.157165,0.328367,0.996832,-1.150166,-2.280403,-7.833815,1.175231,-4.738900,-8.492864,-4.593756,35.340846,-0.094526,-0.082262,0.000000,0.127607,0.672643,-0.000000
2.400000,-0.355138,1.194227,-1.202073,2.938187,0.145722,0.305326,0.918069,-1.138643,-2.326024,-7.914413,1.123006,-4.382479,-7.618578,-5.856971,35.907858,-0.093285,-0.075504,0.000000,0.120222,0.672656,0.000000
2.410000,-0.325710,1.195627,-1.199136,2.946972,0.134392,0.281846,0.838544,-1.127706,-2.368052,-7.986187,1.058091,-4.020743,-6.745421,-7.061222,36.406140,-0.092121,-0.068748,0.000000,0.111930,0.672454,0.000000
2.420000,-0.296199,1.196915,-1.196436,2.954958,0.123168,0.257965,0.758345,-1.117481,-2.406439,-8.049321,0.981782,-3.654356,-5.896756,-8.077080,36.862215,-0.091045,-0.061996,0.000000,0.102840,0.672066,0.000000
2.430000,-0.266611,1.198091,-1.193977,2.962139,0.112043,0.233718,0.677557,-1.108070,-2.441139,-8.104122,0.896550,-3.283499,-5.064652,-8.917622,37.286530,-0.090064,-0.055249,0.000000,0.093146,0.671527,-0.000000
2.440000,-0.236956,1.199156,-1.191761,2.968509,0.101007,0.209142,0.596262,-1.099550,-2.472109,-8.150614,0.803429,-2.908626,-4.221731,-9.740451,37.644043,-0.089182,-0.048509,0.000000,0.082927,0.670850,0.000000
2.450000,-0.207241,1.200111,-1.189794,2.974064,0.090052,0.184275,0.514545,-1.092002,-2.499312,-8.188557,0.701741,-2.530618,-3.364220,-10.598951,37.921686,-0.088405,-0.041777,0.000000,0.072123,0.670024,0.000000
2.460000,-0.177475,1.200957,-1.188076,2.978800,0.079167,0.159156,0.432491,-1.085515,-2.522721,-8.217899,0.591450,-2.150192,-2.511921,-11.374912,38.146631,-0.087739,-0.035054,0.000000,0.060723,0.669054,0.000000
2.470000,-0.147665,1.201694,-1.186611,2.982714,0.068341,0.133821,0.350187,-1.080173,-2.542316,-8.238795,0.474242,-1.767685,-1.676540,-11.918286,38.351206,-0.087190,-0.028342,0.000000,0.048852,0.667955,0.000000
2.480000,-0.117820,1.202324,-1.185400,2.985804,0.057563,0.108309,0.267715,-1.076030,-2.558075,-8.251429,0.353084,-1.383168,-0.852511,-12.252493,38.530227,-0.086762,-0.021642,0.000000,0.036731,0.666745,0.000000
2.490000,-0.087949,1.202845,-1.184444,2.988068,0.046821,0.082659,0.185158,-1.073111,-2.569979,-8.255845,0.229192,-0.997081,-0.027011,-12.566248,38.643833,-0.086455,-0.014955,0.000000,0.024442,0.665431,0.000000
2.500000,-0.058059,1.203260,-1.183746,2.989507,0.036101,0.056910,0.102598,-1.071446,-2.578017,-8.251970,0.101759,-0.610291,0.800035,-12.920611,38.678216,-0.086273,-0.008282,0.000000,0.011908,0.664009,0.000000
2.510000,-0.028159,1.203567,-1.183306,2.990120,0.025392,0.031099,0.020119,-1.071076,-2.582185,-8.239845,-0.029220,-0.223516,1.619184,-13.180066,38.662560,-0.086217,-0.001624,0.000000,-0.000886,0.662480,0.000000
2.520000,0.001744,1.203768,-1.183124,2.989910,0.014680,0.005266,-0.062198,-1.072031,-2.582487,-8.219586,-0.161842,0.162960,2.428313,-13.183835,38.634858,-0.086291,0.005019,0.000000,-0.013806,0.660853,0.000000
2.530000,0.031639,1.203861,-1.183201,2.988876,0.003951,-0.020551,-0.144273,-1.074313,-2.578926,-8.191278,-0.292896,0.549181,3.229617,-12.964369,38.589046,-0.086493,0.011645,0.000000,-0.026616,0.659131,0.000000
2.540000,0.061521,1.203847,-1.183535,2.987024,-0.006807,-0.046312,-0.226024,-1.077889,-2.571503,-8.154994,-0.421129,0.934741,4.024042,-12.729031,38.476306,-0.086823,0.018253,0.000000,-0.039233,0.657316,0.000000
2.550000,0.091380,1.203725,-1.184127,2.984356,-0.017606,-0.071981,-0.307373,-1.082735,-2.560231,-8.110797,-0.547477,1.318707,4.813177,-12.540103,38.279825,-0.087278,0.024843,0.000000,-0.051745,0.655409,0.000000
2.560000,0.121208,1.203495,-1.184975,2.980877,-0.028461,-0.097517,-0.388240,-1.088838,-2.545129,-8.058730,-0.671931,1.700337,5.595455,-12.254003,38.034014,-0.087858,0.031413,0.000000,-0.064167,0.653405,0.000000
2.570000,0.150998,1.203156,-1.186077,2.976591,-0.039383,-0.122883,-0.468547,-1.096174,-2.526224,-7.998888,-0.792557,2.079387,6.363427,-11.717088,37.781723,-0.088562,0.037963,0.000000,-0.076360,0.651303,0.000000
2.580000,0.180740,1.202707,-1.187433,2.971506,-0.050385,-0.148042,-0.548218,-1.104689,-2.503541,-7.931462,-0.906273,2.455972,7.116761,-10.968636,37.514935,-0.089386,0.044492,0.000000,-0.088095,0.649111,0.000000
2.590000,0.210428,1.202148,-1.189038,2.965627,-0.061477,-0.172954,-0.627177,-1.114299,-2.477105,-7.856553,-1.011930,2.829686,7.864518,-10.211091,37.177054,-0.090324,0.050999,0.000000,-0.099291,0.646830,-0.000000
2.600000,0.240053,1.201478,-1.190892,2.958962,-0.072671,-0.197584,-0.705349,-1.124928,-2.446948,-7.774171,-1.110495,3.199513,8.606988,-9.504840,36.746339,-0.091372,0.057483,0.000000,-0.110034,0.644446,0.000000
2.610000,0.269607,1.200695,-1.192990,2.951520,-0.083976,-0.221893,-0.782660,-1.136509,-2.413114,-7.684413,-1.202027,3.564613,9.337338,-8.714222,36.261576,-0.092525,0.063944,0.000000,-0.120333,0.641951,0.000000
2.620000,0.299083,1.199798,-1.195330,2.943309,-0.095401,-0.245846,-0.859037,-1.148969,-2.375655,-7.587424,-1.284779,3.924744,10.055161,-7.697665,35.776384,-0.093779,0.070379,0.000000,-0.130058,0.639344,-0.000000
2.630000,0.328473,1.198787,-1.197907,2.934339,-0.106955,-0.269406,-0.934408,-1.162205,-2.334620,-7.483310,-1.355980,4.280140,10.763494,-6.496359,35.279304,-0.095127,0.076789,0.000000,-0.138991,0.636622,0.000000
2.640000,0.357770,1.197659,-1.200718,2.924621,-0.118645,-0.292538,-1.008703,-1.176088,-2.290053,-7.372155,-1.414706,4.630330,11.461051,-5.302162,34.697918,-0.096560,0.083171,0.000000,-0.147058,0.633776,0.000000
2.650000,0.386965,1.196414,-1.203758,2.914165,-0.130477,-0.315207,-1.081852,-1.190499,-2.242013,-7.254089,-1.462023,4.974099,12.138357,-4.169185,34.018360,-0.098069,0.089525,0.000000,-0.154337,0.630794,0.000000
2.660000,0.416053,1.195049,-1.207022,2.902984,-0.142455,-0.337379,-1.153785,-1.205329,-2.190571,-7.129387,-1.498090,5.310698,12.796381,-2.973394,33.287968,-0.099647,0.095850,0.000000,-0.160835,0.627675,0.000000
2.670000,0.445025,1.193565,-1.210505,2.891089,-0.154583,-0.359019,-1.224439,-1.220461,-2.135799,-6.998161,-1.521491,5.639858,13.459818,-1.598405,32.531625,-0.101286,0.102143,0.000000,-0.166429,0.624408,-0.000000
2.680000,0.473875,1.191958,-1.214202,2.878495,-0.166864,-0.380095,-1.293748,-1.235758,-2.077773,-6.860191,-1.530058,5.961330,14.129102,-0.087125,31.728518,-0.102976,0.108404,0.000000,-0.170929,0.620954,0.000000
2.690000,0.502595,1.190227,-1.218107,2.865214,-0.179298,-0.400574,-1.361643,-1.251062,-2.016572,-6.715579,-1.523234,6.274429,14.768911,1.397683,30.846153,-0.104705,0.114629,0.000000,-0.174272,0.617294,0.000000
2.700000,0.531179,1.188372,-1.222214,2.851262,-0.191885,-0.420426,-1.428060,-1.266223,-1.952285,-6.564813,-1.502105,6.578253,15.371363,2.816511,29.906325,-0.106462,0.120819,0.000000,-0.176521,0.613438,0.000000
2.710000,0.559620,1.186390,-1.226516,2.836653,-0.204623,-0.439620,-1.492939,-1.281104,-1.885007,-6.408152,-1.466903,6.872555,15.959554,4.269229,28.925826,-0.108236,0.126969,0.000000,-0.177674,0.609380,0.000000
2.720000,0.587912,1.184279,-1.231006,2.821403,-0.217508,-0.458126,-1.556223,-1.295561,-1.814834,-6.245622,-1.416720,7.156770,16.545960,5.827623,27.834944,-0.110016,0.133079,0.000000,-0.177628,0.605092,0.000000
2.730000,0.616048,1.182039,-1.235678,2.805529,-0.230534,-0.475916,-1.617852,-1.309438,-1.741872,-6.077233,-1.350351,7.429254,17.122012,7.450587,26.617148,-0.111789,0.139146,0.000000,-0.176238,0.600527,0.000000
2.740000,0.644023,1.179669,-1.240524,2.789046,-0.243696,-0.492964,-1.677768,-1.322568,-1.666249,-5.903182,-1.267708,7.689113,17.670646,9.031437,25.368554,-0.113541,0.145166,0.000000,-0.173453,0.595660,0.000000
2.750000,0.671829,1.177166,-1.245537,2.771973,-0.256986,-0.509241,-1.735915,-1.334793,-1.588090,-5.723820,-1.169722,7.936625,18.189280,10.553343,24.144049,-0.115259,0.151137,0.000000,-0.169317,0.590489,0.000000
2.760000,0.699462,1.174529,-1.250709,2.754328,-0.270392,-0.524725,-1.792244,-1.345963,-1.507516,-5.539396,-1.056641,8.171994,18.687680,12.074441,22.873067,-0.116928,0.157056,0.000000,-0.163814,0.585006,0.000000
2.770000,0.726916,1.171758,-1.256032,2.736129,-0.283905,-0.539392,-1.846703,-1.355925,-1.424650,-5.350066,-0.928233,8.394086,19.169293,13.605242,21.417725,-0.118535,0.162919,0.000000,-0.156867,0.579174,-0.000000
2.780000,0.754185,1.168851,-1.261497,2.717394,-0.297511,-0.553218,-1.899245,-1.364527,-1.339634,-5.156010,-0.784537,8.600348,19.629258,15.112475,19.791147,-0.120065,0.168722,0.000000,-0.148406,0.572932,-0.000000
2.790000,0.781264,1.165807,-1.267096,2.698144,-0.311195,-0.566184,-1.949824,-1.371616,-1.252643,-4.957481,-0.625984,8.789909,20.061432,16.568724,18.178701,-0.121503,0.174461,0.000000,-0.138405,0.566245,0.000000
2.800000,0.808148,1.162627,-1.272821,2.678397,-0.324943,-0.578271,-1.998395,-1.377047,-1.163836,-4.754781,-0.453162,8.963922,20.466623,17.985733,16.642764,-0.122833,0.180132,0.000000,-0.126871,0.559109,0.000000
2.810000,0.834832,1.159309,-1.278662,2.658176,-0.338736,-0.589461,-2.044919,-1.380679,-1.073364,-4.548149,-0.266269,9.122765,20.846949,19.365668,15.056454,-0.124040,0.185729,0.000000,-0.113767,0.551506,0.000000
2.820000,0.861311,1.155852,-1.284610,2.637499,-0.352557,-0.599738,-2.089358,-1.382372,-0.981381,-4.337842,-0.065849,9.265051,21.196233,20.646605,13.275017,-0.125107,0.191247,0.000000,-0.099064,0.543391,0.000000
2.830000,0.887582,1.152257,-1.290657,2.616389,-0.366384,-0.609089,-2.131676,-1.381996,-0.888063,-4.124224,0.146663,9.388265,21.511148,21.808690,11.334737,-0.126020,0.196682,0.000000,-0.082800,0.534700,0.000000
2.840000,0.913639,1.148524,-1.296792,2.594866,-0.380196,-0.617500,-2.171842,-1.379439,-0.793616,-3.907620,0.370325,9.491746,21.798266,22.920314,9.430145,-0.126762,0.202027,0.000000,-0.064987,0.525393,-0.000000
2.850000,0.939479,1.144654,-1.303006,2.572952,-0.393972,-0.624961,-2.209828,-1.374590,-0.698228,-3.688259,0.605069,9.576868,22.064630,24.025700,7.617563,-0.127318,0.207275,0.000000,-0.045581,0.515456,0.000000
2.860000,0.965098,1.140645,-1.309291,2.550669,-0.407688,-0.631464,-2.245608,-1.367338,-0.602078,-3.466327,0.850839,9.644097,22.303483,25.061707,5.769031,-0.127672,0.212420,0.000000,-0.024526,0.504860,0.000000
2.870000,0.990492,1.136500,-1.315636,2.528040,-0.421319,-0.637003,-2.279155,-1.357573,-0.505346,-3.242189,1.106303,9.692248,22.492686,25.888514,3.759704,-0.127807,0.217454,0.000000,-0.001863,0.493558,0.000000
2.880000,1.015659,1.132219,-1.322031,2.505086,-0.434840,-0.641571,-2.310451,-1.345212,-0.408233,-3.016473,1.368609,9.719291,22.631701,26.504942,1.631828,-0.127708,0.222371,0.000000,0.022232,0.481502,0.000000
2.890000,1.040594,1.127803,-1.328467,2.481831,-0.448223,-0.645167,-2.339484,-1.330201,-0.310961,-2.789555,1.636402,9.724885,22.748631,27.084365,-0.442897,-0.127361,0.227163,0.000000,0.047692,0.468656,0.000000
2.900000,1.065295,1.123254,-1.334934,2.458296,-0.461444,-0.647790,-2.366242,-1.312484,-0.213736,-2.561501,1.910297,9.710433,22.851885,27.700423,-2.422871,-0.126752,0.231820,0.000000,0.074614,0.454990,-0.000000
2.910000,1.089760,1.118574,-1.341423,2.434506,-0.474473,-0.649442,-2.390714,-1.291995,-0.116752,-2.332517,2.190411,9.676428,22.920722,28.221078,-4.415846,-0.125866,0.236335,0.000000,0.103059,0.440471,0.000000
2.920000,1.113985,1.113765,-1.347923,2.410482,-0.487284,-0.650125,-2.412893,-1.268675,-0.020207,-2.103086,2.474718,9.622116,22.933587,28.442586,-6.501803,-0.124688,0.240698,0.000000,0.132896,0.425066,0.000000
2.930000,1.137970,1.108828,-1.354426,2.386248,-0.499847,-0.649846,-2.432776,-1.242501,0.075690,-1.873846,2.759262,9.546391,22.894133,28.386421,-8.639033,-0.123206,0.244901,0.000000,0.163792,0.408745,-0.000000
2.940000,1.161710,1.103768,-1.360920,2.361826,-0.512134,-0.648612,-2.450370,-1.213490,0.170721,-1.645203,3.042447,9.449336,22.829432,28.313925,-10.712233,-0.121410,0.248934,0.000000,0.195616,0.391486,0.000000
2.950000,1.185206,1.098586,-1.367398,2.337240,-0.524116,-0.646432,-2.465680,-1.181652,0.264677,-1.417257,3.325541,9.332147,22.755827,28.322619,-12.700563,-0.119290,0.252787,0.000000,0.228497,0.373264,0.000000
2.960000,1.208455,1.093285,-1.373849,2.312513,-0.535767,-0.643318,-2.478715,-1.146979,0.357364,-1.190087,3.608899,9.195324,22.653373,28.225339,-14.669773,-0.116837,0.256451,0.000000,0.262481,0.354044,-0.000000
2.970000,1.231456,1.087870,-1.380264,2.287666,-0.547056,-0.639285,-2.489482,-1.109474,0.448584,-0.964190,3.890048,9.038751,22.476790,27.770185,-16.643987,-0.114038,0.259915,0.000000,0.297330,0.333816,0.000000
2.980000,1.254209,1.082344,-1.386635,2.262723,-0.557956,-0.634346,-2.497999,-1.069178,0.538139,-0.740551,4.164303,8.862445,22.230931,27.004954,-18.586119,-0.110887,0.263169,0.000000,0.332556,0.312627,0.000000
2.990000,1.276711,1.076711,-1.392951,2.237706,-0.568440,-0.628522,-2.504293,-1.026188,0.625832,-0.519571,4.430147,8.667029,21.976276,26.259132,-20.453243,-0.107384,0.266203,0.000000,0.367960,0.290488,0.000000
3.000000,1.298963,1.070976,-1.399205,2.212637,-0.578480,-0.621830,-2.508390,-0.980575,0.711479,-0.301026,4.689485,8.453380,21.720004,25.605070,-22.276473,-0.103526,0.269010,0.000000,0.403687,0.267359,0.000000
3.010000,1.320964,1.065142,-1.405388,2.187538,-0.588051,-0.614292,-2.510314,-0.932398,0.794900,-0.085171,4.942248,8.221500,21.421530,24.818938,-24.068102,-0.099308,0.271577,0.000000,0.439678,0.243234,0.000000
3.020000,1.342713,1.059215,-1.411491,2.162431,-0.597128,-0.605932,-2.510094,-0.881730,0.875909,0.127405,5.185864,7.972018,21.071479,23.741924,-25.710595,-0.094730,0.273896,0.000000,0.475595,0.218160,0.000000
3.030000,1.364212,1.053199,-1.417506,2.137336,-0.605686,-0.596774,-2.507765,-0.828681,0.954340,0.336259,5.417087,7.707288,20.679707,22.434944,-27.180959,-0.089794,0.275957,0.000000,0.510983,0.192233,0.000000
3.040000,1.385460,1.047101,-1.423426,2.112276,-0.613701,-0.586845,-2.503368,-0.773389,1.030055,0.540999,5.634563,7.428399,20.257606,21.105862,-28.627103,-0.084508,0.277753,0.000000,0.545585,0.165518,0.000000
3.050000,1.406458,1.040925,-1.429243,2.087269,-0.621154,-0.576173,-2.496945,-0.715989,1.102908,0.741411,5.839204,7.134746,19.838261,19.873611,-30.093417,-0.078881,0.279277,0.000000,0.579391,0.138019,0.000000
3.060000,1.427206,1.034678,-1.434950,2.062337,-0.628021,-0.564787,-2.488540,-0.656605,1.172750,0.937764,6.032035,6.826530,19.412798,18.598021,-31.465620,-0.072919,0.280520,0.000000,0.612389,0.109719,0.000000
3.070000,1.447704,1.028365,-1.440539,2.037498,-0.634286,-0.552718,-2.478190,-0.595349,1.239439,1.129667,6.211164,6.505433,18.884999,16.965196,-32.627200,-0.066632,0.281475,0.000000,0.644230,0.080727,0.000000
3.080000,1.467956,1.021992,-1.446004,2.012773,-0.639928,-0.539998,-2.465947,-0.532381,1.302859,1.315464,6.371339,6.173986,18.259943,15.021418,-33.596177,-0.060034,0.282136,0.000000,0.674168,0.051326,-0.000000
3.090000,1.487960,1.015566,-1.451339,1.988179,-0.644933,-0.526661,-2.451881,-0.467922,1.362919,1.494866,6.511593,5.833510,17.670870,13.199905,-34.512729,-0.053149,0.282501,0.000000,0.701922,0.021631,0.000000
3.100000,1.507719,1.009093,-1.456537,1.963735,-0.649287,-0.512740,-2.436049,-0.402150,1.419529,1.668882,6.635337,5.483732,17.100529,11.531624,-35.456596,-0.045996,0.282567,0.000000,0.727719,-0.008428,0.000000
3.110000,1.527235,1.002580,-1.461594,1.939458,-0.652976,-0.498270,-2.418503,-0.335215,1.472593,1.836876,6.742225,5.124378,16.463876,9.738886,-36.320264,-0.038595,0.282330,0.000000,0.751368,-0.038737,0.000000
3.120000,1.546508,0.996034,-1.466503,1.915365,-0.655991,-0.483288,-2.399312,-0.267305,1.522016,1.998159,6.830115,4.757326,15.845243,7.838983,-36.872571,-0.030970,0.281790,0.000000,0.772452,-0.069095,0.000000
3.130000,1.565542,0.989461,-1.471259,1.891472,-0.658322,-0.467830,-2.378540,-0.198613,1.567740,2.153781,6.899005,4.386926,15.278931,5.944583,-37.129781,-0.023148,0.280946,0.000000,0.790801,-0.099407,0.000000
3.140000,1.584338,0.982867,-1.475859,1.867794,-0.659963,-0.451933,-2.356236,-0.129325,1.609755,2.303738,6.949007,4.014731,14.644690,4.026608,-37.395849,-0.015156,0.279800,0.000000,0.806289,-0.129547,0.000000
3.150000,1.602898,0.976261,-1.480298,1.844347,-0.660909,-0.435635,-2.332465,-0.059633,1.648034,2.446675,6.979537,3.639009,13.933735,2.056286,-37.755488,-0.007025,0.278353,0.000000,0.818722,-0.159337,0.000000
3.160000,1.621225,0.969649,-1.484572,1.821145,-0.661156,-0.418972,-2.307303,0.010266,1.682535,2.582413,6.990132,3.259621,13.230268,0.074246,-37.996388,0.001215,0.276612,0.000000,0.827920,-0.188675,0.000000
3.170000,1.639321,0.963038,-1.488678,1.798201,-0.660703,-0.401984,-2.280817,0.080170,1.713227,2.711280,6.981022,2.879082,12.524543,-1.849045,-37.922088,0.009530,0.274579,0.000000,0.833796,-0.217429,0.000000
3.180000,1.657189,0.956435,-1.492612,1.775529,-0.659553,-0.384708,-2.253077,0.149886,1.740117,2.832903,6.953151,2.501179,11.782794,-3.714526,-37.593849,0.017887,0.272263,0.000000,0.836382,-0.245345,-0.000000
3.190000,1.674831,0.949847,-1.496372,1.753140,-0.657706,-0.367182,-2.224159,0.219233,1.763250,2.946936,6.906731,2.127205,11.029621,-5.594685,-37.265279,0.026254,0.269672,0.000000,0.835647,-0.272256,0.000000
3.200000,1.692251,0.943281,-1.499955,1.731046,-0.655168,-0.349443,-2.194139,0.288021,1.782661,3.053496,6.841258,1.755874,10.309233,-7.480408,-36.995635,0.034597,0.266816,0.000000,0.831485,-0.298133,0.000000
3.210000,1.709452,0.936744,-1.503361,1.709257,-0.651945,-0.331528,-2.163089,0.356058,1.798368,3.153121,6.757123,1.387292,9.602648,-9.309033,-36.615059,0.042880,0.263706,0.000000,0.823915,-0.322955,-0.000000
3.220000,1.726437,0.930242,-1.506586,1.687784,-0.648047,-0.313475,-2.131076,0.423163,1.810407,3.245549,6.655077,1.023573,8.803311,-11.086332,-35.986050,0.051071,0.260352,0.000000,0.813032,-0.346549,0.000000
3.230000,1.743208,0.923783,-1.509630,1.666636,-0.643482,-0.295320,-2.098178,0.489160,1.818839,3.329187,6.535397,0.667571,7.919983,-12.810169,-35.160834,0.059137,0.256767,0.000000,0.798902,-0.368575,0.000000
3.240000,1.759769,0.917372,-1.512492,1.645820,-0.638264,-0.277099,-2.064492,0.553871,1.823758,3.403948,6.398874,0.320356,7.100304,-14.451031,-34.322274,0.067045,0.252968,0.000000,0.781672,-0.388932,0.000000
3.250000,1.776124,0.911018,-1.515172,1.625346,-0.632405,-0.258845,-2.030099,0.617137,1.825247,3.471193,6.246376,-0.018875,6.329602,-16.092830,-33.527769,0.074767,0.248972,0.000000,0.761505,-0.407755,0.000000
3.260000,1.792276,0.904724,-1.517669,1.605218,-0.625921,-0.240594,-1.995069,0.678799,1.823381,3.530541,6.077017,-0.350200,5.513993,-17.734659,-32.659111,0.082272,0.244792,0.000000,0.738363,-0.424960,0.000000
3.270000,1.808229,0.898499,-1.519984,1.585444,-0.618829,-0.222378,-1.959488,0.738677,1.818243,3.581473,5.891683,-0.672057,4.734035,-19.089378,-31.583453,0.089531,0.240445,0.000000,0.712454,-0.440411,0.000000
3.280000,1.823985,0.892348,-1.522117,1.566029,-0.611147,-0.204229,-1.923439,0.796632,1.809939,3.625221,5.695230,-0.981869,4.027069,-20.129386,-30.347295,0.096518,0.235950,0.000000,0.684496,-0.454158,-0.000000
3.290000,1.839549,0.886276,-1.524068,1.546976,-0.602896,-0.186179,-1.886984,0.852582,1.798605,3.662014,5.489095,-1.279003,3.278807,-21.236597,-29.134624,0.103218,0.231321,0.000000,0.654784,-0.466207,0.000000
3.300000,1.854925,0.880290,-1.525840,1.528289,-0.594096,-0.168257,-1.850199,0.906414,1.784359,3.690797,5.270498,-1.564561,2.486186,-22.500363,-27.939805,0.109612,0.226577,0.000000,0.623083,-0.476465,0.000000
3.310000,1.870115,0.874394,-1.527434,1.509972,-0.584768,-0.150492,-1.813168,0.957992,1.767314,3.711738,5.039088,-1.837799,1.730139,-23.648326,-26.652098,0.115678,0.221736,0.000000,0.589482,-0.484944,0.000000
3.320000,1.885124,0.868595,-1.528850,1.492026,-0.574936,-0.132910,-1.775964,1.007196,1.747603,3.725400,4.797531,-2.097603,0.987272,-24.489879,-25.335178,0.121400,0.216815,0.000000,0.554437,-0.491700,0.000000
3.330000,1.899956,0.862896,-1.530092,1.474452,-0.564624,-0.115539,-1.738660,1.053943,1.725362,3.731483,4.549290,-2.344502,0.234723,-25.097587,-24.037936,0.126766,0.211831,0.000000,0.518474,-0.496740,0.000000
3.340000,1.914613,0.857302,-1.531161,1.457252,-0.553857,-0.098403,-1.701334,1.098182,1.700713,3.730095,4.295579,-2.578362,-0.485166,-25.704879,-22.677752,0.131769,0.206801,0.000000,0.481848,-0.500106,0.000000
3.350000,1.929101,0.851818,-1.532060,1.440426,-0.542660,-0.081525,-1.664058,1.139854,1.673795,3.721780,4.035193,-2.798057,-1.194713,-26.403433,-21.253117,0.136403,0.201743,0.000000,0.444540,-0.501875,0.000000
3.360000,1.943422,0.846449,-1.532791,1.423971,-0.531060,-0.064927,-1.626899,1.178886,1.644752,3.706200,3.767511,-3.003424,-1.918332,-27.028847,-19.831714,0.140660,0.196671,0.000000,0.406584,-0.502051,-0.000000
3.370000,1.957580,0.841197,-1.533358,1.407888,-0.519082,-0.048630,-1.589934,1.215204,1.613726,3.683413,3.494616,-3.194692,-2.564982,-27.325147,-18.406489,0.144535,0.191603,0.000000,0.368315,-0.500695,0.000000
3.380000,1.971579,0.836067,-1.533764,1.392172,-0.506756,-0.032653,-1.553230,1.248778,1.580858,3.654901,3.221008,-3.371554,-3.123204,-27.337314,-16.964950,0.148027,0.186553,0.000000,0.330355,-0.498027,0.000000
3.390000,1.985423,0.831062,-1.534012,1.376823,-0.494107,-0.017013,-1.516836,1.279625,1.546295,3.620949,2.947869,-3.533991,-3.717099,-27.404604,-15.536286,0.151143,0.181533,0.000000,0.292909,-0.494134,0.000000
3.400000,1.999116,0.826185,-1.534104,1.361836,-0.481163,-0.001727,-1.480811,1.307735,1.510179,3.580559,2.672916,-3.682280,-4.341575,-27.575282,-14.106589,0.153886,0.176557,0.000000,0.255762,-0.488959,0.000000
3.410000,2.012660,0.821439,-1.534046,1.347207,-0.467952,0.013191,-1.445225,1.333083,1.472649,3.534118,2.396364,-3.816122,-4.912116,-27.622934,-12.667730,0.156259,0.171638,0.000000,0.218998,-0.482599,0.000000
3.420000,2.026060,0.816826,-1.533840,1.332931,-0.454502,0.027726,-1.410129,1.355663,1.433856,3.482316,2.120457,-3.935634,-5.471808,-27.469040,-11.298293,0.158267,0.166787,0.000000,0.182920,-0.475191,0.000000
3.430000,2.039319,0.812349,-1.533492,1.319004,-0.440839,0.041868,-1.375579,1.375492,1.393937,3.424682,1.846983,-4.042088,-6.048714,-27.194030,-10.020441,0.159919,0.162014,0.000000,0.147738,-0.466759,0.000000
3.440000,2.052440,0.808009,-1.533003,1.305420,-0.426992,0.055605,-1.341635,1.392602,1.353014,3.361342,1.576576,-4.136043,-6.574588,-26.893086,-8.736141,0.161223,0.157331,0.000000,0.113534,-0.457379,0.000000
3.450000,2.065427,0.803809,-1.532379,1.292171,-0.412987,0.068928,-1.308352,1.407024,1.311216,3.293190,1.309121,-4.216811,-7.054725,-26.569170,-7.377274,0.162191,0.152747,0.000000,0.080320,-0.447186,0.000000
3.460000,2.078283,0.799750,-1.531625,1.279253,-0.398851,0.081829,-1.275772,1.418785,1.268678,3.220248,1.045193,-4.283588,-7.533691,-26.167325,-6.024478,0.162831,0.148269,0.000000,0.048182,-0.436218,-0.000000
3.470000,2.091012,0.795832,-1.530743,1.266656,-0.384611,0.094302,-1.243947,1.427927,1.225544,3.142516,0.785775,-4.337301,-7.965840,-25.683245,-4.870081,0.163156,0.143905,0.000000,0.017211,-0.424536,-0.000000
3.480000,2.103617,0.792057,-1.529739,1.254374,-0.370293,0.106340,-1.212921,1.434500,1.181932,3.060931,0.531528,-4.380990,-8.331784,-25.142919,-3.904770,0.163177,0.139663,0.000000,-0.012580,-0.412335,-0.000000
3.490000,2.116100,0.788426,-1.528616,1.242398,-0.355921,0.117940,-1.182728,1.438558,1.137924,2.975880,0.282916,-4.415396,-8.696926,-24.556977,-2.878613,0.162906,0.135547,0.000000,-0.041169,-0.399699,-0.000000
3.500000,2.128465,0.784939,-1.527380,1.230719,-0.341522,0.129098,-1.153404,1.440159,1.093624,2.886992,0.040389,-4.438562,-9.075568,-23.917799,-1.728296,0.162355,0.131562,0.000000,-0.068487,-0.386587,0.000000
3.510000,2.140714,0.781596,-1.526034,1.219330,-0.327118,0.139813,-1.124988,1.439366,1.049153,2.794369,-0.195440,-4.449962,-9.421284,-23.227227,-0.630766,0.161537,0.127712,0.000000,-0.094481,-0.373033,-0.000000
3.520000,2.152851,0.778397,-1.524583,1.208219,-0.312734,0.150082,-1.097516,1.436250,1.004625,2.698567,-0.424156,-4.451178,-9.711900,-22.517988,0.266381,0.160467,0.124002,0.000000,-0.119159,-0.359149,0.000000
3.530000,2.164878,0.775341,-1.523032,1.197379,-0.298393,0.159905,-1.071017,1.430883,0.960130,2.600131,-0.645799,-4.444634,-9.964242,-21.799770,1.016284,0.159155,0.120435,0.000000,-0.142596,-0.345049,-0.000000
3.540000,2.176799,0.772429,-1.521385,1.186799,-0.284117,0.169284,-1.045514,1.423334,0.915732,2.499282,-0.860151,-4.430852,-10.203430,-21.036730,1.803281,0.157616,0.117012,0.000000,-0.164803,-0.330779,0.000000
3.550000,2.188614,0.769659,-1.519647,1.176469,-0.269926,0.178220,-1.021031,1.413680,0.871513,2.396063,-1.066534,-4.408569,-10.416634,-20.204004,2.645720,0.155860,0.113736,0.000000,-0.185716,-0.316340,-0.000000
3.560000,2.200328,0.767030,-1.517821,1.166378,-0.255843,0.186714,-0.997593,1.402003,0.827561,2.290949,-1.264232,-4.377938,-10.588160,-19.334888,3.419387,0.153902,0.110607,0.000000,-0.205291,-0.301800,0.000000
3.570000,2.211942,0.764542,-1.515912,1.156517,-0.241886,0.194771,-0.975212,1.388395,0.783954,2.184299,-1.453232,-4.340181,-10.753302,-18.507983,4.087009,0.151755,0.107627,0.000000,-0.223580,-0.287222,0.000000
3.580000,2.223458,0.762192,-1.513926,1.146874,-0.228075,0.202393,-0.953907,1.372939,0.740757,2.075883,-1.634391,-4.296197,-10.913187,-17.720099,4.690918,0.149431,0.104795,0.000000,-0.240721,-0.272596,0.000000
3.590000,2.234880,0.759980,-1.511865,1.137439,-0.214428,0.209586,-0.933695,1.355707,0.698030,1.966036,-1.807634,-4.246363,-11.018575,-16.874170,5.271941,0.146941,0.102113,0.000000,-0.256742,-0.257968,0.000000
3.600000,2.246207,0.757904,-1.509734,1.128200,-0.200961,0.216354,-0.914586,1.336786,0.655830,1.855512,-1.971875,-4.190759,-11.102890,-15.960395,5.829367,0.144297,0.099579,0.000000,-0.271557,-0.243422,0.000000
3.610000,2.257444,0.755961,-1.507538,1.119147,-0.187692,0.222703,-0.896584,1.316270,0.614215,1.743978,-2.126842,-4.129775,-11.195990,-15.049980,6.338185,0.141511,0.097192,0.000000,-0.285172,-0.228927,-0.000000
3.620000,2.268590,0.754150,-1.505280,1.110269,-0.174636,0.228638,-0.879706,1.294249,0.573234,1.631592,-2.272874,-4.063995,-11.186872,-14.165288,6.794673,0.138594,0.094953,0.000000,-0.297663,-0.214503,0.000000
3.630000,2.279649,0.752468,-1.502965,1.101553,-0.161807,0.234167,-0.863953,1.270812,0.532935,1.520240,-2.410147,-3.993882,-11.061714,-13.287704,7.206528,0.135558,0.092860,0.000000,-0.309078,-0.200355,-0.000000
3.640000,2.290621,0.750914,-1.500596,1.092990,-0.149219,0.239297,-0.849301,1.246046,0.493357,1.410357,-2.538628,-3.919864,-10.976187,-12.398884,7.579048,0.132412,0.090908,0.000000,-0.319445,-0.186524,0.000000
3.650000,2.301509,0.749484,-1.498179,1.084567,-0.136886,0.244035,-0.835745,1.220040,0.454537,1.300717,-2.658125,-3.842301,-10.941100,-11.489804,7.926459,0.129169,0.089096,0.000000,-0.328775,-0.172878,0.000000
3.660000,2.312313,0.748176,-1.495716,1.076275,-0.124819,0.248388,-0.823287,1.192884,0.416511,1.191535,-2.768424,-3.761335,-10.852062,-10.577480,8.245972,0.125837,0.087421,0.000000,-0.337071,-0.159436,-0.000000
3.670000,2.323034,0.746988,-1.493211,1.068101,-0.113028,0.252365,-0.811915,1.164671,0.379311,1.083675,-2.869675,-3.677381,-10.719511,-9.703080,8.497640,0.122427,0.085881,0.000000,-0.344374,-0.146285,0.000000
3.680000,2.333675,0.745916,-1.490668,1.060036,-0.101525,0.255974,-0.801614,1.135490,0.342963,0.977145,-2.962486,-3.591382,-10.581837,-8.866918,8.682112,0.118950,0.084473,0.000000,-0.350779,-0.133424,-0.000000
3.690000,2.344235,0.744957,-1.488092,1.052069,-0.090318,0.259224,-0.792372,1.105421,0.307483,0.872039,-3.047013,-3.503739,-10.417453,-8.018700,8.856849,0.115412,0.083193,0.000000,-0.356324,-0.120859,0.000000
3.700000,2.354716,0.744109,-1.485484,1.044189,-0.079417,0.262124,-0.784173,1.074550,0.272888,0.768796,-3.122860,-3.414245,-10.220070,-7.144763,9.030568,0.111823,0.082039,0.000000,-0.360981,-0.108625,0.000000
3.710000,2.365119,0.743369,-1.482849,1.036386,-0.068827,0.264682,-0.776996,1.042964,0.239198,0.667637,-3.189908,-3.323128,-10.007464,-6.283458,9.166559,0.108192,0.081006,0.000000,-0.364755,-0.096736,0.000000
3.720000,2.375444,0.742733,-1.480190,1.028649,-0.058557,0.266908,-0.770820,1.010752,0.206426,0.568647,-3.248529,-3.230914,-9.782080,-5.472582,9.257199,0.104528,0.080092,0.000000,-0.367705,-0.085196,0.000000
3.730000,2.385692,0.742198,-1.477511,1.020969,-0.048612,0.268810,-0.765623,0.977994,0.174580,0.471996,-3.299360,-3.137984,-9.539031,-4.703846,9.317760,0.100838,0.079293,0.000000,-0.369911,-0.074015,0.000000
3.740000,2.395863,0.741760,-1.474814,1.013337,-0.038998,0.270399,-0.761380,0.944764,0.143666,0.377866,-3.342606,-3.044559,-9.278956,-3.932326,9.358895,0.097129,0.078604,0.000000,-0.371406,-0.063206,-0.000000
3.750000,2.405958,0.741418,-1.472103,1.005742,-0.029717,0.271684,-0.758066,0.911141,0.113689,0.286416,-3.378006,-2.950806,-9.003680,-3.146601,9.376816,0.093409,0.078022,0.000000,-0.372176,-0.052776,-0.000000
3.760000,2.415978,0.741166,-1.469380,0.998175,-0.020775,0.272673,-0.755652,0.877204,0.084650,0.197793,-3.405538,-2.857023,-8.714257,-2.379994,9.367951,0.089685,0.077543,0.000000,-0.372227,-0.042732,0.000000
3.770000,2.425922,0.741002,-1.466650,0.990629,-0.012173,0.273377,-0.754110,0.843031,0.056548,0.112131,-3.425606,-2.763447,-8.411600,-1.665988,9.346509,0.085965,0.077164,0.000000,-0.371610,-0.033082,0.000000
3.780000,2.435790,0.740923,-1.463913,0.983093,-0.003914,0.273804,-0.753409,0.808692,0.029381,0.029561,-3.438858,-2.670092,-8.096785,-0.996975,9.317239,0.082253,0.076879,0.000000,-0.370397,-0.023829,0.000000
3.790000,2.445584,0.740924,-1.461173,0.975560,0.004001,0.273964,-0.753519,0.774254,0.003146,-0.049804,-3.445546,-2.577102,-7.770927,-0.332274,9.263793,0.078556,0.076685,0.000000,-0.368619,-0.014978,0.000000
3.800000,2.455302,0.741003,-1.458434,0.968023,0.011571,0.273867,-0.754405,0.739781,-0.022161,-0.125858,-3.445503,-2.484817,-7.434282,0.338316,9.179805,0.074880,0.076578,0.000000,-0.366265,-0.006533,0.000000
3.810000,2.464944,0.741155,-1.455696,0.960472,0.018796,0.273521,-0.756036,0.705343,-0.046550,-0.198490,-3.438780,-2.393506,-7.087812,0.985301,9.079537,0.071231,0.076554,0.000000,-0.363346,0.001499,0.000000
3.820000,2.474511,0.741379,-1.452963,0.952902,0.025678,0.272936,-0.758375,0.671006,-0.070031,-0.267614,-3.425797,-2.303226,-6.734792,1.580367,8.982748,0.067613,0.076608,0.000000,-0.359906,0.009118,0.000000
3.830000,2.484002,0.741669,-1.450237,0.945305,0.032217,0.272120,-0.761388,0.636828,-0.092614,-0.333186,-3.407172,-2.213851,-6.376747,2.130857,8.887698,0.064032,0.076737,0.000000,-0.356007,0.016327,0.000000
3.840000,2.493417,0.742023,-1.447521,0.937674,0.038414,0.271084,-0.765039,0.602862,-0.114308,-0.395149,-3.383180,-2.125472,-6.011389,2.671747,8.771570,0.060492,0.076935,0.000000,-0.351679,0.023127,-0.000000
3.850000,2.502756,0.742437,-1.444816,0.930004,0.044274,0.269834,-0.769291,0.569164,-0.135124,-0.453414,-3.353737,-2.038420,-5.636198,3.211651,8.629420,0.056998,0.077200,0.000000,-0.346916,0.029512,0.000000
3.860000,2.512017,0.742908,-1.442124,0.922288,0.049798,0.268381,-0.774107,0.535788,-0.155076,-0.507873,-3.318947,-1.952884,-5.254601,3.725815,8.479120,0.053554,0.077526,0.000000,-0.341729,0.035476,0.000000
3.870000,2.521201,0.743433,-1.439448,0.914522,0.054990,0.266733,-0.779448,0.502785,-0.174181,-0.558506,-3.279221,-1.868837,-4.876912,4.191354,8.336395,0.050163,0.077910,0.000000,-0.336156,0.041024,0.000000
3.880000,2.530308,0.744008,-1.436789,0.906699,0.059853,0.264898,-0.785277,0.470203,-0.192453,-0.605411,-3.235120,-1.786156,-4.503701,4.614889,8.198019,0.046830,0.078348,0.000000,-0.330254,0.046171,-0.000000
3.890000,2.539335,0.744630,-1.434150,0.898816,0.064394,0.262884,-0.791557,0.438083,-0.209905,-0.648580,-3.186923,-1.704877,-4.123083,5.025267,8.046400,0.043558,0.078835,0.000000,-0.324047,0.050921,0.000000
3.900000,2.548284,0.745296,-1.431532,0.890868,0.068615,0.260699,-0.798249,0.406465,-0.226551,-0.687873,-3.134615,-1.625228,-3.733503,5.429676,7.874965,0.040349,0.079367,0.000000,-0.317534,0.055263,-0.000000
3.910000,2.557153,0.746003,-1.428936,0.882851,0.072523,0.258353,-0.805314,0.375390,-0.242409,-0.723250,-3.078330,-1.547378,-3.344558,5.808208,7.697706,0.037207,0.079941,0.000000,-0.310726,0.059195,0.000000
3.920000,2.565941,0.746747,-1.426365,0.874762,0.076123,0.255851,-0.812714,0.344898,-0.257498,-0.754764,-3.018450,-1.471274,-2.961583,6.142746,7.535823,0.034134,0.080552,0.000000,-0.303658,0.062727,0.000000
3.930000,2.574648,0.747525,-1.423819,0.866597,0.079421,0.253203,-0.820409,0.315021,-0.271835,-0.782481,-2.955475,-1.396661,-2.582613,6.439034,7.387203,0.031133,0.081196,0.000000,-0.296377,0.065872,0.000000
3.940000,2.583273,0.748335,-1.421301,0.858354,0.082423,0.250415,-0.828363,0.285789,-0.285432,-0.806416,-2.889670,-1.323529,-2.202917,6.720521,7.225762,0.028206,0.081870,0.000000,-0.288905,0.068632,0.000000
3.950000,2.591815,0.749173,-1.418811,0.850030,0.085137,0.247494,-0.836538,0.257228,-0.298305,-0.826540,-2.821064,-1.252146,-1.821938,6.993042,7.044552,0.025355,0.082569,0.000000,-0.281243,0.071008,-0.000000
3.960000,2.600274,0.750038,-1.416351,0.841623,0.087568,0.244448,-0.844894,0.229367,-0.310474,-0.842855,-2.749809,-1.182638,-1.444138,7.240923,6.862806,0.022581,0.083291,0.000000,-0.273403,0.072999,-0.000000
3.970000,2.608648,0.750925,-1.413922,0.833132,0.089724,0.241285,-0.853395,0.202232,-0.321958,-0.855422,-2.676246,-1.114890,-1.074123,7.450497,6.699308,0.019887,0.084030,0.000000,-0.265416,0.074616,-0.000000
3.980000,2.616936,0.751832,-1.411525,0.824555,0.091612,0.238009,-0.862003,0.175842,-0.332772,-0.864338,-2.600799,-1.048652,-0.711905,7.626738,6.549269,0.017273,0.084783,0.000000,-0.257319,0.075871,0.000000
3.990000,2.625139,0.752757,-1.409162,0.815892,0.093241,0.234629,-0.870682,0.150216,-0.342931,-0.869661,-2.523711,-0.983904,-0.353065,7.787914,6.389774,0.014740,0.085547,0.000000,-0.249132,0.076773,-0.000000
4.000000,2.633254,0.753697,-1.406833,0.807141,0.094617,0.231151,-0.879396,0.125368,-0.352450,-0.871399,-2.445041,-0.920857,0.005193,7.938420,6.216641,0.012290,0.086319,0.000000,-0.240859,0.077321,0.000000
4.010000,2.641282,0.754649,-1.404539,0.798304,0.095748,0.227580,-0.888110,0.101315,-0.361348,-0.869557,-2.364943,-0.859572,0.358506,8.066553,6.046208,0.009923,0.087094,0.000000,-0.232512,0.077517,-0.000000
4.020000,2.649220,0.755612,-1.402281,0.789379,0.096643,0.223924,-0.896787,0.078069,-0.369642,-0.864229,-2.283710,-0.799933,0.696777,8.163095,5.889641,0.007639,0.087869,0.000000,-0.224115,0.077372,-0.000000
4.030000,2.657069,0.756582,-1.400060,0.780368,0.097310,0.220187,-0.905394,0.055641,-0.377347,-0.855621,-2.201681,-0.741779,1.020045,8.232234,5.742524,0.005440,0.088641,0.000000,-0.215698,0.076909,0.000000
4.040000,2.664828,0.757558,-1.397877,0.771271,0.097756,0.216377,-0.913899,0.034036,-0.384477,-0.843828,-2.119065,-0.685082,1.340471,8.286894,5.591604,0.003325,0.089408,0.000000,-0.207278,0.076136,0.000000
4.050000,2.672495,0.758537,-1.395733,0.762090,0.097990,0.212498,-0.922271,0.013259,-0.391048,-0.828812,-2.035943,-0.629947,1.660576,8.330075,5.433502,0.001295,0.090164,0.000000,-0.198859,0.075051,0.000000
4.060000,2.680069,0.759518,-1.393627,0.752826,0.098021,0.208556,-0.930476,-0.006683,-0.397076,-0.810616,-1.952463,-0.576412,1.971046,8.354035,5.277684,-0.000652,0.090909,0.000000,-0.190454,0.073657,0.000000
4.070000,2.687551,0.760498,-1.391562,0.743481,0.097857,0.204556,-0.938483,-0.025790,-0.402577,-0.789391,-1.868862,-0.524393,2.264750,8.353562,5.134009,-0.002515,0.091637,0.000000,-0.182081,0.071969,0.000000
4.080000,2.694939,0.761475,-1.389536,0.734056,0.097505,0.200504,-0.946263,-0.044060,-0.407564,-0.765321,-1.785392,-0.473732,2.543405,8.331996,4.999909,-0.004294,0.092348,0.000000,-0.173763,0.070008,-0.000000
4.090000,2.702232,0.762448,-1.387551,0.724555,0.096975,0.196405,-0.953789,-0.061498,-0.412051,-0.738523,-1.702222,-0.424395,2.814958,8.297319,4.863027,-0.005990,0.093038,0.000000,-0.165512,0.067783,0.000000
4.100000,2.709430,0.763415,-1.385608,0.714981,0.096275,0.192263,-0.961034,-0.078105,-0.416052,-0.709022,-1.619446,-0.376471,3.083940,8.250882,4.721541,-0.007604,0.093704,0.000000,-0.157334,0.065296,0.000000
4.110000,2.716532,0.764373,-1.383706,0.705335,0.095413,0.188084,-0.967970,-0.093887,-0.419581,-0.676844,-1.537205,-0.329964,3.344029,8.188593,4.583926,-0.009137,0.094344,0.000000,-0.149241,0.062550,-0.000000
4.120000,2.723537,0.765323,-1.381846,0.695621,0.094398,0.183872,-0.974571,-0.108849,-0.422651,-0.642142,-1.455674,-0.284793,3.581218,8.109871,4.454247,-0.010589,0.094955,0.000000,-0.141246,0.059560,0.000000
4.130000,2.730444,0.766261,-1.380029,0.685843,0.093236,0.179631,-0.980813,-0.123000,-0.425277,-0.605220,-1.375007,-0.240879,3.796552,8.017109,4.329948,-0.011962,0.095535,0.000000,-0.133362,0.056354,0.000000
4.140000,2.737254,0.767188,-1.378254,0.676005,0.091938,0.175366,-0.986675,-0.136349,-0.427469,-0.566211,-1.295332,-0.198194,4.007898,7.912352,4.206297,-0.013256,0.096082,0.000000,-0.125599,0.052945,0.000000
4.150000,2.743964,0.768100,-1.376521,0.666110,0.090509,0.171082,-0.992137,-0.148907,-0.429241,-0.525062,-1.216760,-0.156753,4.217748,7.796133,4.081716,-0.014474,0.096594,0.000000,-0.117964,0.049328,0.000000
4.160000,2.750576,0.768998,-1.374832,0.656162,0.088959,0.166781,-0.997176,-0.160684,-0.430604,-0.481856,-1.139409,-0.116560,4.413579,7.668430,3.959398,-0.015616,0.097069,0.000000,-0.110466,0.045508,0.000000
4.170000,2.757088,0.769879,-1.373186,0.646166,0.087296,0.162469,-1.001774,-0.171695,-0.431572,-0.436790,-1.063392,-0.077565,4.590332,7.530222,3.844079,-0.016683,0.097504,0.000000,-0.103115,0.041505,-0.000000
4.180000,2.763499,0.770744,-1.371583,0.636127,0.085526,0.158150,-1.005912,-0.181952,-0.432155,-0.390049,-0.988805,-0.039678,4.751603,7.382693,3.734839,-0.017678,0.097899,0.000000,-0.095917,0.037336,0.000000
4.190000,2.769810,0.771590,-1.370023,0.626048,0.083657,0.153826,-1.009575,-0.191471,-0.432365,-0.341758,-0.915738,-0.002868,4.902913,7.226196,3.625327,-0.018602,0.098251,0.000000,-0.088879,0.033013,-0.000000
4.200000,2.776020,0.772417,-1.368506,0.615935,0.081696,0.149503,-1.012747,-0.200267,-0.432213,-0.291991,-0.844281,0.032829,5.046476,7.060252,3.514707,-0.019456,0.098559,0.000000,-0.082008,0.028541,-0.000000
4.210000,2.782129,0.773224,-1.367033,0.605793,0.079651,0.145182,-1.015415,-0.208357,-0.431709,-0.240828,-0.774533,0.067426,5.178269,6.885987,3.407161,-0.020242,0.098822,0.000000,-0.075311,0.023927,0.000000
4.220000,2.788136,0.774010,-1.365603,0.595627,0.077529,0.140868,-1.017564,-0.215758,-0.430864,-0.188425,-0.706561,0.100972,5.290941,6.707549,3.303837,-0.020962,0.099038,0.000000,-0.068793,0.019185,0.000000
4.230000,2.794041,0.774774,-1.364215,0.585442,0.075336,0.136565,-1.019183,-0.222488,-0.429689,-0.135010,-0.640382,0.133502,5.384978,6.525982,3.203088,-0.021618,0.099206,0.000000,-0.062454,0.014337,-0.000000
4.240000,2.799845,0.775517,-1.362871,0.575243,0.073079,0.132275,-1.020264,-0.228565,-0.428194,-0.080726,-0.576041,0.165034,5.470090,6.337275,3.103540,-0.022211,0.099325,0.000000,-0.056296,0.009395,-0.000000
4.250000,2.805546,0.776236,-1.361570,0.565037,0.070765,0.128001,-1.020798,-0.234009,-0.426389,-0.025608,-0.513636,0.195573,5.550791,6.139391,3.005907,-0.022744,0.099394,0.000000,-0.050329,0.004362,0.000000
4.260000,2.811146,0.776932,-1.360311,0.554827,0.068399,0.123747,-1.020776,-0.238838,-0.424283,0.030290,-0.453254,0.225152,5.620179,5.936422,2.910837,-0.023218,0.099412,0.000000,-0.044558,-0.000758,0.000000
4.270000,2.816643,0.777604,-1.359095,0.544621,0.065988,0.119515,-1.020192,-0.243074,-0.421886,0.086796,-0.394908,0.253790,5.666799,5.736024,2.816191,-0.023635,0.099379,0.000000,-0.038984,-0.005949,-0.000000
4.280000,2.822038,0.778252,-1.357921,0.534423,0.063538,0.115309,-1.019040,-0.246736,-0.419207,0.143626,-0.338533,0.281476,5.692726,5.538208,2.721607,-0.023997,0.099293,0.000000,-0.033600,-0.011185,0.000000
4.290000,2.827331,0.778875,-1.356789,0.524240,0.061053,0.111131,-1.017320,-0.249844,-0.416256,0.200650,-0.284144,0.308222,5.713225,5.334237,2.629850,-0.024307,0.099155,0.000000,-0.028405,-0.016455,0.000000
4.300000,2.832523,0.779473,-1.355698,0.514077,0.058541,0.106984,-1.015027,-0.252419,-0.413042,0.257891,-0.231848,0.334072,5.729395,5.121964,2.540648,-0.024565,0.098964,0.000000,-0.023410,-0.021761,0.000000
4.310000,2.837613,0.780045,-1.354649,0.503940,0.056005,0.102870,-1.012162,-0.254481,-0.409575,0.315238,-0.181704,0.359035,5.731183,4.908466,2.452012,-0.024775,0.098720,0.000000,-0.018619,-0.027093,0.000000
4.320000,2.842602,0.780593,-1.353641,0.493834,0.053451,0.098792,-1.008723,-0.256053,-0.405862,0.372514,-0.133679,0.383113,5.718355,4.700719,2.365128,-0.024938,0.098422,0.000000,-0.014029,-0.032435,0.000000
4.330000,2.847489,0.781114,-1.352673,0.483765,0.050884,0.094753,-1.004711,-0.257155,-0.401912,0.429605,-0.087690,0.406338,5.694491,4.497553,2.280535,-0.025056,0.098071,0.000000,-0.009630,-0.037777,0.000000
4.340000,2.852277,0.781610,-1.351746,0.473740,0.048308,0.090754,-1.000131,-0.257807,-0.397735,0.486404,-0.043728,0.428723,5.659418,4.291200,2.196245,-0.025130,0.097666,0.000000,-0.005422,-0.043108,0.000000
4.350000,2.856964,0.782081,-1.350858,0.463763,0.045728,0.086798,-0.994983,-0.258029,-0.393338,0.542794,-0.001866,0.450263,5.614065,4.079393,2.112565,-0.025164,0.097208,0.000000,-0.001411,-0.048418,0.000000
4.360000,2.861552,0.782525,-1.350010,0.453840,0.043147,0.082887,-0.989275,-0.257844,-0.388730,0.598685,0.037860,0.470975,5.558919,3.868356,2.030662,-0.025159,0.096697,0.000000,0.002400,-0.053700,-0.000000
4.370000,2.866041,0.782944,-1.349200,0.443977,0.040571,0.079024,-0.983010,-0.257272,-0.383918,0.653972,0.075501,0.490876,5.490428,3.665670,1.948622,-0.025116,0.096134,0.000000,0.006016,-0.058943,0.000000
4.380000,2.870432,0.783336,-1.348429,0.434180,0.038002,0.075209,-0.976195,-0.256334,-0.378912,0.708494,0.111173,0.509947,5.408380,3.470339,1.865839,-0.025038,0.095518,0.000000,0.009448,-0.064132,-0.000000
4.390000,2.874725,0.783704,-1.347696,0.424453,0.035444,0.071445,-0.968840,-0.255049,-0.373719,0.762140,0.144908,0.528193,5.318255,3.273431,1.784869,-0.024927,0.094851,0.000000,0.012700,-0.069256,0.000000
4.400000,2.878921,0.784045,-1.347000,0.414803,0.032901,0.067735,-0.960952,-0.253436,-0.368348,0.814859,0.176642,0.545645,5.221843,3.072552,1.705992,-0.024784,0.094132,0.000000,0.015765,-0.074311,0.000000
4.410000,2.883021,0.784362,-1.346342,0.405234,0.030375,0.064079,-0.952543,-0.251516,-0.362807,0.866576,0.206359,0.562312,5.115700,2.874534,1.627326,-0.024612,0.093364,0.000000,0.018642,-0.079290,-0.000000
4.420000,2.887025,0.784653,-1.345719,0.395752,0.027871,0.060479,-0.943621,-0.249309,-0.357102,0.917173,0.234133,0.578191,4.996868,2.686537,1.548552,-0.024411,0.092546,0.000000,0.021338,-0.084181,0.000000
4.430000,2.890936,0.784919,-1.345132,0.386362,0.025389,0.056936,-0.934199,-0.246833,-0.351243,0.966514,0.260090,0.593283,4.866828,2.507154,1.470149,-0.024185,0.091680,0.000000,0.023865,-0.088971,0.000000
4.440000,2.894753,0.785161,-1.344580,0.377068,0.022934,0.053454,-0.924291,-0.244107,-0.345236,1.014510,0.284276,0.607594,4.729902,2.327847,1.392251,-0.023934,0.090766,0.000000,0.026226,-0.093652,-0.000000
4.450000,2.898477,0.785378,-1.344063,0.367876,0.020507,0.050032,-0.913909,-0.241148,-0.339091,1.061112,0.306647,0.621128,4.586512,2.146381,1.315301,-0.023660,0.089806,0.000000,0.028419,-0.098217,0.000000
4.460000,2.902110,0.785571,-1.343580,0.358790,0.018111,0.046672,-0.903068,-0.237974,-0.332814,1.106240,0.327203,0.633900,4.434281,1.969105,1.239069,-0.023366,0.088801,0.000000,0.030442,-0.102660,0.000000
4.470000,2.905653,0.785740,-1.343129,0.349815,0.015748,0.043375,-0.891784,-0.234604,-0.326413,1.149797,0.346029,0.645910,4.273387,1.802528,1.161846,-0.023052,0.087752,0.000000,0.032302,-0.106970,0.000000
4.480000,2.909106,0.785886,-1.342712,0.340954,0.013419,0.040144,-0.880072,-0.231054,-0.319896,1.191708,0.363254,0.657137,4.105064,1.645224,1.083534,-0.022720,0.086661,0.000000,0.034014,-0.111139,0.000000
4.490000,2.912472,0.786008,-1.342327,0.332213,0.011127,0.036978,-0.867950,-0.227339,-0.313270,1.231899,0.378933,0.667581,3.929543,1.489268,1.006350,-0.022371,0.085529,0.000000,0.035581,-0.115160,-0.000000
4.500000,2.915751,0.786108,-1.341972,0.323595,0.008872,0.033878,-0.855434,-0.223475,-0.306544,1.270298,0.393039,0.677264,3.746734,1.332563,0.930820,-0.022008,0.084357,0.000000,0.037000,-0.119026,-0.000000
4.510000,2.918944,0.786186,-1.341649,0.315104,0.006657,0.030847,-0.842544,-0.219478,-0.299725,1.306833,0.405584,0.686197,3.557027,1.180857,0.855346,-0.021631,0.083148,0.000000,0.038272,-0.122727,0.000000
4.520000,2.922053,0.786241,-1.341356,0.306744,0.004483,0.027884,-0.829298,-0.215363,-0.292820,1.341439,0.416656,0.694371,3.361518,1.039966,0.778704,-0.021242,0.081902,0.000000,0.039405,-0.126257,-0.000000
4.530000,2.925079,0.786275,-1.341091,0.298518,0.002350,0.024990,-0.815715,-0.211145,-0.285837,1.374064,0.426384,0.701771,3.160485,0.908497,0.701413,-0.020843,0.080622,0.000000,0.040411,-0.129611,0.000000
4.540000,2.928023,0.786288,-1.340856,0.290430,0.000260,0.022167,-0.801817,-0.206835,-0.278785,1.404649,0.434826,0.708399,2.953138,0.779199,0.624925,-0.020434,0.079309,0.000000,0.041297,-0.132782,-0.000000
4.550000,2.930887,0.786281,-1.340648,0.282482,-0.001787,0.019415,-0.787622,-0.202448,-0.271669,1.433127,0.441968,0.714270,2.739656,0.650159,0.548979,-0.020017,0.077966,0.000000,0.042058,-0.135761,-0.000000
4.560000,2.933673,0.786253,-1.340467,0.274678,-0.003789,0.016734,-0.773154,-0.197996,-0.264499,1.459442,0.447829,0.719379,2.521047,0.526502,0.472602,-0.019593,0.076594,0.000000,0.042697,-0.138542,-0.000000
4.570000,2.936381,0.786205,-1.340313,0.267019,-0.005747,0.014125,-0.758433,-0.193492,-0.257282,1.483547,0.452498,0.723722,2.297744,0.413239,0.396552,-0.019163,0.075194,0.000000,0.043223,-0.141120,0.000000
4.580000,2.939013,0.786138,-1.340185,0.259509,-0.007659,0.011588,-0.743483,-0.188946,-0.250025,1.505397,0.456094,0.727310,2.069772,0.309008,0.321204,-0.018729,0.073771,0.000000,0.043646,-0.143489,-0.000000
4.590000,2.941571,0.786052,-1.340082,0.252149,-0.009526,0.009124,-0.728326,-0.184370,-0.242736,1.524943,0.458678,0.730146,1.837280,0.207426,0.245365,-0.018290,0.072324,0.000000,0.043972,-0.145643,0.000000
4.600000,2.944056,0.785947,-1.340002,0.244942,-0.011346,0.006733,-0.712984,-0.179773,-0.235422,1.542142,0.460243,0.732217,1.600703,0.106821,0.168544,-0.017849,0.070857,0.000000,0.044199,-0.147576,0.000000
4.610000,2.946470,0.785825,-1.339947,0.237890,-0.013121,0.004416,-0.697483,-0.175165,-0.228091,1.556957,0.460814,0.733517,1.360396,0.011577,0.091537,-0.017406,0.069372,0.000000,0.044330,-0.149284,0.000000
4.620000,2.948814,0.785685,-1.339914,0.230993,-0.014850,0.002171,-0.681845,-0.170556,-0.220752,1.569350,0.460474,0.734048,1.116294,-0.074168,0.015280,-0.016963,0.067871,0.000000,0.044372,-0.150761,-0.000000
4.630000,2.951090,0.785528,-1.339903,0.224253,-0.016532,0.000001,-0.666096,-0.165955,-0.213410,1.579283,0.459331,0.733822,0.868674,-0.151673,-0.060556,-0.016519,0.066356,0.000000,0.044337,-0.152002,-0.000000
4.640000,2.953299,0.785354,-1.339914,0.217671,-0.018169,-0.002097,-0.650259,-0.161370,-0.206075,1.586724,0.457441,0.732837,0.618310,-0.226355,-0.137254,-0.016076,0.064831,0.000000,0.044227,-0.153003,-0.000000
4.650000,2.955443,0.785164,-1.339945,0.211248,-0.019760,-0.004121,-0.634361,-0.156807,-0.198754,1.591649,0.454804,0.731077,0.365267,-0.299703,-0.214687,-0.015634,0.063296,0.000000,0.044044,-0.153760,0.000000
4.660000,2.957524,0.784959,-1.339997,0.204984,-0.021305,-0.006072,-0.618426,-0.152274,-0.191454,1.594029,0.451447,0.728543,0.109511,-0.368117,-0.292096,-0.015195,0.061755,0.000000,0.043790,-0.154268,0.000000
4.670000,2.959543,0.784738,-1.340067,0.198879,-0.022805,-0.007950,-0.602481,-0.147778,-0.184183,1.593839,0.447442,0.725235,-0.147870,-0.428111,-0.370142,-0.014759,0.060210,0.000000,0.043471,-0.154524,0.000000
4.680000,2.961502,0.784503,-1.340156,0.192934,-0.024261,-0.009755,-0.586550,-0.143325,-0.176949,1.591072,0.442885,0.721140,-0.406522,-0.480814,-0.449127,-0.014326,0.058664,0.000000,0.043097,-0.154525,0.000000
4.690000,2.963402,0.784253,-1.340262,0.187148,-0.025672,-0.011489,-0.570659,-0.138920,-0.169760,1.585709,0.437825,0.716253,-0.667284,-0.530949,-0.528186,-0.013897,0.057119,0.000000,0.042672,-0.154269,-0.000000
4.700000,2.965245,0.783989,-1.340385,0.181521,-0.027039,-0.013151,-0.554835,-0.134568,-0.162624,1.577726,0.432266,0.710576,-0.929421,-0.579795,-0.607428,-0.013472,0.055579,0.000000,0.042195,-0.153752,0.000000
4.710000,2.967032,0.783712,-1.340525,0.176051,-0.028363,-0.014741,-0.539105,-0.130275,-0.155548,1.567120,0.426229,0.704104,-1.191943,-0.624330,-0.687482,-0.013053,0.054044,0.000000,0.041670,-0.152971,-0.000000
4.720000,2.968766,0.783422,-1.340680,0.170739,-0.029644,-0.016262,-0.523493,-0.126044,-0.148542,1.553887,0.419779,0.696827,-1.456174,-0.661843,-0.767930,-0.012639,0.052519,0.000000,0.041103,-0.151925,-0.000000
4.730000,2.970447,0.783119,-1.340850,0.165582,-0.030884,-0.017712,-0.508027,-0.121879,-0.141612,1.537997,0.412993,0.688745,-1.722312,-0.693366,-0.848490,-0.012231,0.051005,0.000000,0.040499,-0.150611,-0.000000
4.740000,2.972077,0.782804,-1.341034,0.160578,-0.032082,-0.019094,-0.492733,-0.117784,-0.134767,1.519441,0.405912,0.679857,-1.987748,-0.722738,-0.929904,-0.011829,0.049506,0.000000,0.039865,-0.149024,0.000000
4.750000,2.973658,0.782478,-1.341232,0.155727,-0.033240,-0.020408,-0.477638,-0.113761,-0.128015,1.498242,0.398538,0.670147,-2.250537,-0.751130,-1.013058,-0.011433,0.048025,0.000000,0.039199,-0.147168,-0.000000
4.760000,2.975192,0.782140,-1.341443,0.151025,-0.034357,-0.021654,-0.462768,-0.109813,-0.121364,1.474430,0.390889,0.659596,-2.512063,-0.776202,-1.097451,-0.011045,0.046563,0.000000,0.038503,-0.145043,-0.000000
4.770000,2.976679,0.781791,-1.341665,0.146471,-0.035436,-0.022835,-0.448150,-0.105943,-0.114823,1.448001,0.383014,0.648198,-2.776197,-0.795608,-1.180931,-0.010663,0.045124,0.000000,0.037783,-0.142649,-0.000000
4.780000,2.978121,0.781431,-1.341899,0.142062,-0.036476,-0.023951,-0.433808,-0.102153,-0.108400,1.418906,0.374977,0.635977,-3.042403,-0.810100,-1.263691,-0.010289,0.043710,0.000000,0.037043,-0.139978,0.000000
4.790000,2.979520,0.781061,-1.342144,0.137795,-0.037479,-0.025003,-0.419771,-0.098444,-0.102103,1.387153,0.366812,0.622924,-3.304685,-0.823199,-1.348786,-0.009922,0.042324,0.000000,0.036289,-0.137031,-0.000000
4.800000,2.980877,0.780681,-1.342399,0.133667,-0.038445,-0.025993,-0.406065,-0.094817,-0.095941,1.352812,0.358513,0.609001,-3.560583,-0.836983,-1.436340,-0.009563,0.040969,0.000000,0.035518,-0.133815,0.000000
4.810000,2.982193,0.780292,-1.342664,0.129674,-0.039375,-0.026922,-0.392715,-0.091273,-0.089923,1.315941,0.350072,0.594198,-3.813641,-0.849329,-1.524408,-0.009212,0.039648,0.000000,0.034730,-0.130333,0.000000
4.820000,2.983471,0.779894,-1.342938,0.125813,-0.040270,-0.027791,-0.379746,-0.087815,-0.084057,1.276540,0.341526,0.578513,-4.068520,-0.855472,-1.613459,-0.008869,0.038362,0.000000,0.033929,-0.126585,0.000000
4.830000,2.984710,0.779487,-1.343220,0.122079,-0.041132,-0.028603,-0.367184,-0.084443,-0.078353,1.234571,0.332963,0.561928,-4.323665,-0.856303,-1.704278,-0.008534,0.037116,0.000000,0.033123,-0.122567,0.000000
4.840000,2.985912,0.779071,-1.343510,0.118469,-0.041959,-0.029358,-0.355055,-0.081156,-0.072819,1.190066,0.324400,0.544428,-4.572093,-0.858748,-1.796245,-0.008206,0.035911,0.000000,0.032314,-0.118282,0.000000
4.850000,2.987079,0.778648,-1.343807,0.114978,-0.042755,-0.030059,-0.343383,-0.077955,-0.067464,1.143129,0.315788,0.526004,-4.812920,-0.863610,-1.889296,-0.007887,0.034750,0.000000,0.031498,-0.113739,-0.000000
4.860000,2.988212,0.778216,-1.344111,0.111601,-0.043518,-0.030708,-0.332192,-0.074840,-0.062299,1.093808,0.307128,0.506642,-5.050106,-0.866698,-1.983975,-0.007576,0.033636,0.000000,0.030674,-0.108942,0.000000
4.870000,2.989311,0.777777,-1.344421,0.108334,-0.044251,-0.031305,-0.321507,-0.071812,-0.057332,1.042127,0.298454,0.486324,-5.283577,-0.867939,-2.080386,-0.007274,0.032571,0.000000,0.029846,-0.103895,-0.000000
4.880000,2.990378,0.777331,-1.344737,0.105171,-0.044955,-0.031854,-0.311350,-0.068871,-0.052572,0.988136,0.289769,0.465034,-5.511376,-0.869182,-2.178439,-0.006979,0.031558,0.000000,0.029014,-0.098601,0.000000
4.890000,2.991415,0.776878,-1.345058,0.102107,-0.045629,-0.032357,-0.301744,-0.066017,-0.048031,0.931899,0.281070,0.442755,-5.732929,-0.870841,-2.278200,-0.006694,0.030599,0.000000,0.028177,-0.093068,0.000000
4.900000,2.992421,0.776419,-1.345384,0.099136,-0.046275,-0.032815,-0.292712,-0.063250,-0.043717,0.873478,0.272352,0.419470,-5.947949,-0.873022,-2.379769,-0.006416,0.029697,0.000000,0.027336,-0.087301,-0.000000
4.910000,2.993397,0.775953,-1.345715,0.096253,-0.046894,-0.033231,-0.284275,-0.060570,-0.039642,0.812940,0.263610,0.395160,-6.156047,-0.876008,-2.483211,-0.006147,0.028853,0.000000,0.026490,-0.081308,-0.000000
4.920000,2.994346,0.775481,-1.346049,0.093451,-0.047486,-0.033608,-0.276453,-0.057977,-0.035814,0.750357,0.254832,0.369806,-6.356781,-0.880105,-2.588595,-0.005886,0.028071,0.000000,0.025638,-0.075096,-0.000000
4.930000,2.995266,0.775003,-1.346387,0.090724,-0.048053,-0.033947,-0.269267,-0.055473,-0.032245,0.685804,0.246008,0.343388,-6.549627,-0.885638,-2.695993,-0.005634,0.027352,0.000000,0.024778,-0.068673,-0.000000
4.940000,2.996160,0.774520,-1.346728,0.088065,-0.048596,-0.034253,-0.262737,-0.053057,-0.028946,0.619364,0.237120,0.315886,-6.734157,-0.892907,-2.805482,-0.005391,0.026697,0.000000,0.023909,-0.062048,-0.000000
4.950000,2.997028,0.774031,-1.347072,0.085469,-0.049115,-0.034526,-0.256880,-0.050731,-0.025928,0.551121,0.228149,0.287278,-6.909959,-0.902208,-2.917140,-0.005156,0.026111,0.000000,0.023029,-0.055230,0.000000
4.960000,2.997869,0.773537,-1.347418,0.082928,-0.049610,-0.034771,-0.251715,-0.048494,-0.023201,0.481165,0.219075,0.257543,-7.076517,-0.913861,-3.031026,-0.004930,0.025593,0.000000,0.022136,-0.048230,0.000000
4.970000,2.998686,0.773039,-1.347767,0.080435,-0.050084,-0.034990,-0.247257,-0.046349,-0.020777,0.409591,0.209872,0.226658,141.574001,24.354885,6.448424,-0.004713,0.025146,0.000000,0.021228,-0.041058,0.000000
4.980000,2.999478,0.772536,-1.348118,0.077983,-0.050537,-0.035187,-0.243523,-0.044297,-0.018668,3.312645,0.706173,0.386512,287.903731,47.354964,14.335801,-0.004505,0.024772,0.000000,0.071610,-0.335855,-0.000000
4.990000,3.000246,0.772028,-1.348471,0.075564,-0.050970,-0.035364,-0.181004,-0.032226,-0.013047,6.167666,1.156972,0.513374,138.540369,20.032936,3.906881,-0.003280,0.018424,0.000000,0.117551,-0.626698,-0.000000
5.000000,3.000989,0.771516,-1.348825,0.074363,-0.051182,-0.035448,-0.120169,-0.021157,-0.008400,6.083453,1.106832,0.464649,-8.421308,-5.013968,-4.872461,-0.002155,0.012239,0.000000,0.112603,-0.618924,-0.000000
