time,x,y,z,vx,vy,vz,ax,ay,az,jx,jy,jz,sx,sy,sz,roll,pitch,yaw,p,q,r
0.000000,-3.315276,-0.250565,-1.491797,-0.016411,-0.005121,0.009818,0.159871,-0.071209,-0.081649,7.571084,-3.107267,-2.934031,-35.156220,40.573719,100.921207,-0.007198,-0.016161,0.000000,-0.311850,-0.760389,-0.000000
0.010000,-3.315440,-0.250616,-1.491699,-0.014812,-0.005833,0.009002,0.235582,-0.102282,-0.110989,7.219522,-2.701530,-1.924819,-235.312575,134.180660,211.993144,-0.010306,-0.023741,0.000000,-0.270023,-0.722649,-0.000000
0.020000,-3.315572,-0.250681,-1.491617,-0.011699,-0.007167,0.007598,0.304261,-0.125240,-0.120145,2.864832,-0.423654,1.305832,-405.240694,199.506403,249.349926,-0.012606,-0.030631,0.000000,-0.044181,-0.292230,0.000000
0.030000,-3.315674,-0.250759,-1.491547,-0.008727,-0.008338,0.006599,0.292878,-0.110755,-0.084873,-0.885292,1.288598,3.062180,-163.638109,71.001587,45.491686,-0.011188,-0.029590,0.000000,0.126667,0.080234,-0.000000
0.040000,-3.315746,-0.250848,-1.491485,-0.005841,-0.009382,0.005901,0.286555,-0.099468,-0.058902,-0.407930,0.996378,2.215666,44.994921,-26.622224,-76.799060,-0.010074,-0.029028,0.000000,0.098637,0.034785,0.000000
0.050000,-3.315791,-0.250947,-1.491429,-0.002996,-0.010328,0.005421,0.284720,-0.090828,-0.040559,0.014606,0.756153,1.526199,39.752014,-21.724488,-62.091278,-0.009216,-0.028896,0.000000,0.075298,-0.005956,0.000000
0.060000,-3.315806,-0.251055,-1.491377,-0.000147,-0.011199,0.005090,0.286847,-0.084345,-0.028378,0.387110,0.561888,0.973840,34.976272,-17.412140,-49.313199,-0.008569,-0.029148,0.000000,0.056246,-0.042196,-0.000000
0.070000,-3.315794,-0.251171,-1.491328,0.002741,-0.012014,0.004853,0.292462,-0.079590,-0.021082,0.714132,0.407911,0.539935,30.643206,-13.648467,-38.336656,-0.008092,-0.029740,0.000000,0.041044,-0.074206,0.000000
0.080000,-3.315752,-0.251295,-1.491280,0.005702,-0.012790,0.004668,0.301130,-0.076187,-0.017579,0.999974,0.288919,0.207107,26.728404,-10.396761,-29.033492,-0.007749,-0.030632,0.000000,0.029244,-0.102298,0.000000
0.090000,-3.315680,-0.251427,-1.491234,0.008764,-0.013538,0.004502,0.312461,-0.073811,-0.016940,1.248700,0.199975,-0.040735,23.207374,-7.620307,-21.275524,-0.007507,-0.031786,0.000000,0.020400,-0.126805,0.000000
0.100000,-3.315576,-0.251566,-1.491190,0.011952,-0.014267,0.004329,0.326104,-0.072187,-0.018394,1.464122,0.136512,-0.218403,20.055613,-5.282392,-14.934562,-0.007341,-0.033168,0.000000,0.014080,-0.148064,-0.000000
0.110000,-3.315440,-0.251712,-1.491148,0.015286,-0.014982,0.004134,0.341744,-0.071081,-0.021308,1.649812,0.094328,-0.339426,17.248685,-3.346305,-9.882463,-0.007226,-0.034747,0.000000,0.009880,-0.166407,0.000000
0.120000,-3.315271,-0.251865,-1.491107,0.018786,-0.015688,0.003903,0.359100,-0.070301,-0.025182,1.809096,0.069586,-0.416053,14.762086,-1.775337,-5.991050,-0.007143,-0.036496,0.000000,0.007420,-0.182149,0.000000
0.130000,-3.315065,-0.252026,-1.491069,0.022468,-0.016388,0.003630,0.377926,-0.069690,-0.029629,1.945054,0.058821,-0.459247,12.571336,-0.532771,-3.132136,-0.007077,-0.038390,0.000000,0.006357,-0.195589,0.000000
0.140000,-3.314821,-0.252193,-1.491035,0.026345,-0.017082,0.003311,0.398001,-0.069124,-0.034367,2.060522,0.058931,-0.478695,10.652101,0.418103,-1.177605,-0.007016,-0.040407,0.000000,0.006381,-0.207000,0.000000
0.150000,-3.314538,-0.252367,-1.491003,0.030428,-0.017770,0.002943,0.419136,-0.068511,-0.039203,2.158096,0.067183,-0.482800,8.979793,1.113997,0.000750,-0.006950,-0.042530,0.000000,0.007219,-0.216630,-0.000000
0.160000,-3.314213,-0.252549,-1.490976,0.034728,-0.018452,0.002527,0.441163,-0.067781,-0.044023,2.240118,0.081211,-0.478680,7.529792,1.591623,0.531161,-0.006871,-0.044740,0.000000,0.008636,-0.224700,0.000000
0.170000,-3.313843,-0.252736,-1.490953,0.039251,-0.019126,0.002062,0.463938,-0.066887,-0.048777,2.308691,0.099015,-0.472176,6.275330,1.892906,0.561493,-0.006777,-0.047024,0.000000,0.010430,-0.231405,0.000000
0.180000,-3.313428,-0.252931,-1.490935,0.044006,-0.019790,0.001551,0.487337,-0.065800,-0.053467,2.365625,0.119069,-0.467450,5.148172,2.145647,0.565327,-0.006663,-0.049368,0.000000,0.012450,-0.236912,0.000000
0.190000,-3.312963,-0.253132,-1.490922,0.048998,-0.020442,0.000993,0.511251,-0.064505,-0.058126,2.411655,0.141928,-0.460870,4.138861,2.355059,0.551439,-0.006528,-0.051762,0.000000,0.014749,-0.241316,0.000000
0.200000,-3.312448,-0.253340,-1.490915,0.054231,-0.021080,0.000389,0.535570,-0.062962,-0.062684,2.448402,0.166170,-0.456422,3.546031,1.885723,-1.900957,-0.006368,-0.054195,0.000000,0.017185,-0.244764,0.000000
0.210000,-3.311879,-0.253554,-1.490914,0.059710,-0.021701,-0.000261,0.560219,-0.061182,-0.067254,2.482576,0.179643,-0.498889,3.310601,0.846367,-6.390599,-0.006184,-0.056657,0.000000,0.018557,-0.247676,0.000000
0.220000,-3.311253,-0.253774,-1.490920,0.065436,-0.022304,-0.000957,0.585222,-0.059369,-0.072662,2.514614,0.183097,-0.584234,2.481352,1.201176,-5.480678,-0.005997,-0.059148,0.000000,0.018937,-0.250065,0.000000
0.230000,-3.310570,-0.254000,-1.490933,0.071414,-0.022889,-0.001714,0.610511,-0.057520,-0.078939,2.532203,0.203666,-0.608503,1.009239,3.026021,1.087895,-0.005805,-0.061659,0.000000,0.021003,-0.251303,0.000000
0.240000,-3.309825,-0.254232,-1.490954,0.077646,-0.023454,-0.002535,0.635866,-0.055296,-0.084832,2.534799,0.243618,-0.562476,0.158471,3.680550,3.297029,-0.005577,-0.064174,0.000000,0.024976,-0.251479,0.000000
0.250000,-3.309017,-0.254469,-1.490984,0.084131,-0.023995,-0.003411,0.661207,-0.052648,-0.090189,2.535372,0.277277,-0.542562,0.097046,2.889076,0.219876,-0.005306,-0.066688,0.000000,0.028324,-0.251309,0.000000
0.260000,-3.308143,-0.254712,-1.491022,0.090870,-0.024507,-0.004339,0.686573,-0.049750,-0.095683,2.536740,0.301399,-0.558078,-0.059505,2.468050,-1.279915,-0.005010,-0.069200,0.000000,0.030723,-0.250976,-0.000000
0.270000,-3.307200,-0.254959,-1.491071,0.097863,-0.024990,-0.005324,0.711942,-0.046620,-0.101350,2.534182,0.326638,-0.568160,-0.566362,2.681465,-0.584476,-0.004692,-0.071708,0.000000,0.033224,-0.250273,-0.000000
0.280000,-3.306185,-0.255211,-1.491129,0.105109,-0.025439,-0.006366,0.737257,-0.043217,-0.107046,2.525413,0.355029,-0.569768,-1.140012,2.911380,-0.060641,-0.004346,-0.074206,0.000000,0.036031,-0.249004,0.000000
0.290000,-3.305097,-0.255468,-1.491198,0.112608,-0.025854,-0.007465,0.762450,-0.039519,-0.112745,2.511382,0.384866,-0.569373,-1.528567,2.972926,0.097726,-0.003971,-0.076688,0.000000,0.038975,-0.247223,0.000000
0.300000,-3.303933,-0.255728,-1.491278,0.120358,-0.026230,-0.008621,0.787484,-0.035520,-0.118434,2.494841,0.414487,-0.567813,-1.717722,2.928323,0.211139,-0.003566,-0.079150,0.000000,0.041890,-0.245202,0.000000
0.310000,-3.302690,-0.255993,-1.491370,0.128358,-0.026564,-0.009834,0.812347,-0.031229,-0.124102,2.477027,0.443432,-0.565150,-1.881155,2.884667,0.327426,-0.003133,-0.081592,0.000000,0.044729,-0.243067,0.000000
0.320000,-3.301366,-0.256260,-1.491475,0.136605,-0.026854,-0.011103,0.837025,-0.026651,-0.129737,2.457218,0.472180,-0.561265,-2.149852,2.882588,0.444272,-0.002672,-0.084012,0.000000,0.047541,-0.240748,0.000000
0.330000,-3.299958,-0.256530,-1.491592,0.145098,-0.027097,-0.012429,0.861491,-0.021786,-0.135327,2.434030,0.501084,-0.556265,-2.478719,2.890089,0.551331,-0.002182,-0.086407,0.000000,0.050363,-0.238109,0.000000
0.340000,-3.298464,-0.256802,-1.491723,0.153835,-0.027290,-0.013810,0.885706,-0.016630,-0.140862,2.407644,0.529982,-0.550238,-2.713109,2.863035,0.654514,-0.001665,-0.088774,0.000000,0.053177,-0.235168,0.000000
0.350000,-3.296881,-0.257075,-1.491869,0.162812,-0.027430,-0.015246,0.909644,-0.011186,-0.146332,2.379768,0.558345,-0.543175,-2.824149,2.797696,0.756608,-0.001119,-0.091110,0.000000,0.055931,-0.232099,0.000000
0.360000,-3.295208,-0.257350,-1.492028,0.172028,-0.027514,-0.016736,0.933301,-0.005463,-0.151726,2.351161,0.585936,-0.535106,-2.923344,2.724544,0.853134,-0.000546,-0.093416,0.000000,0.058603,-0.228977,-0.000000
0.370000,-3.293441,-0.257626,-1.492203,0.181478,-0.027539,-0.018280,0.956668,0.000533,-0.157034,2.321301,0.612836,-0.526112,-3.097027,2.661612,0.941451,0.000053,-0.095690,0.000000,0.061201,-0.225752,-0.000000
0.380000,-3.291578,-0.257901,-1.492394,0.191161,-0.027503,-0.019877,0.979727,0.006794,-0.162248,2.289220,0.639168,-0.516277,-3.315945,2.600201,1.023094,0.000678,-0.097931,0.000000,0.063738,-0.222327,0.000000
0.390000,-3.289618,-0.258176,-1.492601,0.201073,-0.027403,-0.021525,1.002452,0.013316,-0.167359,2.254982,0.664840,-0.505650,-3.477711,2.519502,1.101295,0.001328,-0.100137,0.000000,0.066204,-0.218710,0.000000
0.400000,-3.287557,-0.258449,-1.492824,0.211210,-0.027237,-0.023224,1.024827,0.020091,-0.172361,2.219666,0.689558,-0.494251,-3.562850,2.416450,1.176093,0.002002,-0.102305,0.000000,0.068573,-0.215009,0.000000
0.410000,-3.285393,-0.258720,-1.493065,0.221569,-0.027001,-0.024972,1.046845,0.027107,-0.177244,2.183725,0.713169,-0.482128,-3.644921,2.305807,1.245410,0.002699,-0.104437,0.000000,0.070828,-0.211269,-0.000000
0.420000,-3.283125,-0.258989,-1.493324,0.232147,-0.026695,-0.026769,1.068501,0.034354,-0.182003,2.146768,0.735675,-0.469343,-3.781192,2.197594,1.309349,0.003419,-0.106531,0.000000,0.072972,-0.207452,0.000000
0.430000,-3.280750,-0.259254,-1.493601,0.242939,-0.026314,-0.028612,1.089781,0.041821,-0.186631,2.108101,0.757121,-0.455941,-3.952225,2.087740,1.368805,0.004159,-0.108586,0.000000,0.075008,-0.203489,-0.000000
0.440000,-3.278267,-0.259515,-1.493896,0.253943,-0.025858,-0.030502,1.110663,0.049497,-0.191122,2.067723,0.777429,-0.441967,-4.089652,1.964535,1.423512,0.004919,-0.110601,0.000000,0.076931,-0.199380,0.000000
0.450000,-3.275672,-0.259772,-1.494211,0.265153,-0.025324,-0.032435,1.131135,0.057369,-0.195471,2.026308,0.796411,-0.427471,-4.179936,1.826163,1.472550,0.005697,-0.112574,0.000000,0.078722,-0.195192,0.000000
0.460000,-3.272964,-0.260022,-1.494545,0.276565,-0.024711,-0.034411,1.151189,0.065425,-0.199672,1.984124,0.813953,-0.412516,-4.271920,1.680988,1.516258,0.006493,-0.114505,0.000000,0.080371,-0.190951,0.000000
0.470000,-3.270140,-0.260266,-1.494899,0.288176,-0.024016,-0.036428,1.170818,0.073648,-0.203721,1.940870,0.830031,-0.397146,-4.404611,1.534669,1.557104,0.007305,-0.116393,0.000000,0.081875,-0.186628,-0.000000
0.480000,-3.267200,-0.260502,-1.495273,0.299982,-0.023238,-0.038485,1.190007,0.082025,-0.207615,1.896032,0.844646,-0.381374,-4.565012,1.384916,1.595282,0.008131,-0.118237,0.000000,0.083236,-0.182171,-0.000000
0.490000,-3.264141,-0.260731,-1.495669,0.311977,-0.022375,-0.040581,1.208738,0.090541,-0.211348,1.849570,0.857729,-0.365240,-4.705927,1.225166,1.627430,0.008970,-0.120036,0.000000,0.084448,-0.177576,-0.000000
0.500000,-3.260960,-0.260950,-1.496085,0.324156,-0.021427,-0.042712,1.226998,0.099180,-0.214919,1.801914,0.869149,-0.348825,-4.817194,1.054446,1.651998,0.009820,-0.121789,0.000000,0.085499,-0.172886,0.000000
0.510000,-3.257658,-0.261159,-1.496523,0.336516,-0.020392,-0.044879,1.244776,0.107924,-0.218325,1.753226,0.878818,-0.332200,-4.932208,0.877481,1.671390,0.010680,-0.123494,0.000000,0.086380,-0.168116,0.000000
0.520000,-3.254230,-0.261358,-1.496983,0.349052,-0.019269,-0.047079,1.262063,0.116756,-0.221563,1.703269,0.886699,-0.315397,-5.079170,0.697374,1.689383,0.011547,-0.125152,0.000000,0.087088,-0.163241,0.000000
0.530000,-3.250677,-0.261544,-1.497464,0.361758,-0.018057,-0.049310,1.278842,0.125658,-0.224633,1.651642,0.892766,-0.298412,-5.248963,0.512774,1.705373,0.012421,-0.126760,0.000000,0.087621,-0.158222,0.000000
0.540000,-3.246995,-0.261719,-1.497969,0.374629,-0.016755,-0.051572,1.295095,0.134612,-0.227532,1.598290,0.896954,-0.281290,-5.406678,0.320166,1.714310,0.013300,-0.128316,0.000000,0.087974,-0.153054,0.000000
0.550000,-3.243184,-0.261880,-1.498496,0.387660,-0.015364,-0.053861,1.310808,0.143597,-0.230259,1.543509,0.899169,-0.264126,-5.544841,0.119635,1.714920,0.014181,-0.129821,0.000000,0.088138,-0.147764,-0.000000
0.560000,-3.239242,-0.262026,-1.499046,0.400845,-0.013884,-0.056177,1.325966,0.152595,-0.232814,1.487393,0.899347,-0.246991,-5.687681,-0.086295,1.710593,0.015063,-0.131272,0.000000,0.088107,-0.142360,0.000000
0.570000,-3.235167,-0.262157,-1.499619,0.414179,-0.012313,-0.058517,1.340556,0.161584,-0.235198,1.429755,0.897443,-0.229914,-5.854557,-0.297577,1.704075,0.015943,-0.132668,0.000000,0.087877,-0.136823,-0.000000
0.580000,-3.230958,-0.262272,-1.500216,0.427656,-0.010652,-0.060881,1.354561,0.170544,-0.237412,1.370302,0.893396,-0.212910,-6.038565,-0.515017,1.694194,0.016820,-0.134009,0.000000,0.087442,-0.131125,0.000000
0.590000,-3.226614,-0.262370,-1.500837,0.441270,-0.008902,-0.063265,1.367962,0.179452,-0.239457,1.308984,0.887143,-0.196031,-6.215224,-0.738164,1.677255,0.017692,-0.135291,0.000000,0.086797,-0.125258,0.000000
0.600000,-3.222133,-0.262450,-1.501482,0.455015,-0.007063,-0.065670,1.380740,0.188287,-0.241333,1.245998,0.878632,-0.179365,-6.378109,-0.966218,1.652991,0.018556,-0.136514,0.000000,0.085936,-0.119241,0.000000
0.610000,-3.217514,-0.262512,-1.502150,0.468885,-0.005136,-0.068092,1.392882,0.197025,-0.243044,1.181422,0.867818,-0.162971,-6.543871,-1.199377,1.623777,0.019411,-0.137677,0.000000,0.084856,-0.113080,0.000000
0.620000,-3.212755,-0.262553,-1.502844,0.482873,-0.003122,-0.070531,1.404369,0.205643,-0.244592,1.115120,0.854645,-0.146889,-6.728795,-1.439132,1.589791,0.020253,-0.138777,0.000000,0.083551,-0.106761,0.000000
0.630000,-3.207856,-0.262574,-1.503561,0.496972,-0.001023,-0.072984,1.415184,0.214118,-0.245982,1.046846,0.839036,-0.131175,-6.928006,-1.685473,1.549894,0.021082,-0.139812,0.000000,0.082013,-0.100258,0.000000
0.640000,-3.202816,-0.262573,-1.504303,0.511177,0.001160,-0.075450,1.425306,0.222424,-0.247216,0.976560,0.820935,-0.115891,-7.119868,-1.936033,1.503766,0.021894,-0.140782,0.000000,0.080238,-0.093565,-0.000000
0.650000,-3.197633,-0.262551,-1.505070,0.525478,0.003425,-0.077928,1.434715,0.230536,-0.248300,0.904448,0.800315,-0.101100,-7.298500,-2.189290,1.452704,0.022686,-0.141684,0.000000,0.078221,-0.086700,-0.000000
0.660000,-3.192306,-0.262505,-1.505862,0.539871,0.005771,-0.080416,1.443395,0.238430,-0.249238,0.830590,0.777149,-0.086837,-7.478190,-2.446723,1.396653,0.023458,-0.142517,0.000000,0.075961,-0.079669,-0.000000
0.670000,-3.186835,-0.262435,-1.506678,0.554346,0.008194,-0.082913,1.451327,0.246079,-0.250036,0.754885,0.751381,-0.073167,-7.672106,-2.711763,1.331684,0.024206,-0.143278,0.000000,0.073452,-0.072459,0.000000
0.680000,-3.181219,-0.262341,-1.507520,0.568897,0.010692,-0.085417,1.458492,0.253458,-0.250701,0.677148,0.722914,-0.060204,-7.875423,-2.984100,1.257136,0.024927,-0.143966,0.000000,0.070684,-0.065051,0.000000
0.690000,-3.175457,-0.262221,-1.508387,0.583516,0.013263,-0.087927,1.464870,0.260538,-0.251240,0.597376,0.691699,-0.048024,-8.070194,-3.258710,1.178345,0.025619,-0.144579,0.000000,0.067650,-0.057442,0.000000
0.700000,-3.169549,-0.262076,-1.509279,0.598195,0.015903,-0.090442,1.470440,0.267292,-0.251662,0.515744,0.657740,-0.036637,-8.252675,-3.532943,1.098780,0.026280,-0.145116,0.000000,0.064353,-0.049648,-0.000000
0.710000,-3.163493,-0.261903,-1.510196,0.612925,0.018609,-0.092960,1.475185,0.273692,-0.251973,0.432323,0.621040,-0.026048,-8.434057,-3.810044,1.014490,0.026906,-0.145573,0.000000,0.060790,-0.041675,0.000000
0.720000,-3.157290,-0.261704,-1.511138,0.627698,0.021377,-0.095481,1.479086,0.279713,-0.252183,0.347063,0.581539,-0.016347,-8.621203,-4.096106,0.916412,0.027496,-0.145949,0.000000,0.056957,-0.033516,-0.000000
0.730000,-3.150939,-0.261476,-1.512105,0.642507,0.024203,-0.098004,1.482126,0.285323,-0.252300,0.259899,0.539118,-0.007720,-8.809856,-4.390219,0.804935,0.028046,-0.146243,0.000000,0.052839,-0.025160,0.000000
0.740000,-3.144440,-0.261220,-1.513098,0.657341,0.027083,-0.100527,1.484284,0.290495,-0.252337,0.170866,0.493735,-0.000248,-8.990000,-4.683682,0.692371,0.028553,-0.146453,0.000000,0.048432,-0.016609,0.000000
0.750000,-3.137793,-0.260934,-1.514116,0.672192,0.030013,-0.103051,1.485543,0.295198,-0.252305,0.080099,0.445444,0.006127,-9.159141,-4.973442,0.584486,0.029014,-0.146576,0.000000,0.043741,-0.007875,0.000000
0.760000,-3.130996,-0.260619,-1.515159,0.687052,0.032987,-0.105573,1.485886,0.299404,-0.252215,-0.012317,0.394266,0.011441,-9.322881,-5.265066,0.472717,0.029428,-0.146610,0.000000,0.038767,0.001033,0.000000
0.770000,-3.124052,-0.260274,-1.516227,0.701910,0.036001,-0.108095,1.485297,0.303083,-0.252076,-0.106359,0.340143,0.015582,-9.485105,-5.564925,0.342864,0.029790,-0.146555,0.000000,0.033503,0.010117,0.000000
0.780000,-3.116958,-0.259899,-1.517321,0.716758,0.039049,-0.110615,1.483759,0.306207,-0.251903,-0.202019,0.282967,0.018299,-9.642883,-5.871338,0.196638,0.030098,-0.146408,0.000000,0.027937,0.019379,0.000000
0.790000,-3.109716,-0.259493,-1.518440,0.731585,0.042125,-0.113133,1.481257,0.308743,-0.251710,-0.299217,0.222716,0.019515,-9.789695,-6.175159,0.053483,0.030348,-0.146167,0.000000,0.022066,0.028815,0.000000
0.800000,-3.102326,-0.259057,-1.519583,0.746383,0.045224,-0.115649,1.477775,0.310661,-0.251513,-0.397813,0.159464,0.019368,-9.925278,-6.472104,-0.077824,0.030539,-0.145831,0.000000,0.015897,0.038408,-0.000000
0.810000,-3.094789,-0.258589,-1.520753,0.761141,0.048339,-0.118163,1.473300,0.311932,-0.251323,-0.497722,0.093274,0.017958,-10.052578,-6.767931,-0.210469,0.030666,-0.145399,0.000000,0.009435,0.048152,0.000000
0.820000,-3.087104,-0.258090,-1.521947,0.775849,0.051463,-0.120676,1.467820,0.312526,-0.251153,-0.598864,0.024106,0.015159,-10.168917,-7.072371,-0.365600,0.030728,-0.144868,0.000000,0.002675,0.058039,-0.000000
0.830000,-3.079272,-0.257560,-1.523166,0.790497,0.054589,-0.123186,1.461323,0.312414,-0.251020,-0.701101,-0.048174,0.010646,-10.271896,-7.383378,-0.539719,0.030720,-0.144237,0.000000,-0.004398,0.068062,0.000000
0.840000,-3.071294,-0.256998,-1.524410,0.805075,0.057711,-0.125696,1.453798,0.311563,-0.250941,-0.804302,-0.123562,0.004365,-10.363710,-7.686968,-0.703629,0.030640,-0.143506,0.000000,-0.011784,0.078210,-0.000000
0.850000,-3.063170,-0.256406,-1.525680,0.819573,0.060820,-0.128205,1.445237,0.309943,-0.250932,-0.908375,-0.201913,-0.003427,-10.445714,-7.980218,-0.848059,0.030484,-0.142672,0.000000,-0.019470,0.088469,0.000000
0.860000,-3.054902,-0.255782,-1.526975,0.833980,0.063910,-0.130715,1.435631,0.307525,-0.251009,-1.013217,-0.283166,-0.012597,-10.514913,-8.271761,-0.992188,0.030250,-0.141736,0.000000,-0.027449,0.098828,0.000000
0.870000,-3.046491,-0.255127,-1.528294,0.848286,0.066971,-0.133225,1.424973,0.304279,-0.251184,-1.118673,-0.367348,-0.023270,-10.565496,-8.565840,-1.156034,0.029935,-0.140695,0.000000,-0.035724,0.109273,0.000000
0.880000,-3.037937,-0.254442,-1.529639,0.862480,0.069995,-0.135738,1.413257,0.300178,-0.251474,-1.224527,-0.454483,-0.035717,-10.596712,-8.859173,-1.333728,0.029536,-0.139549,0.000000,-0.044300,0.119786,0.000000
0.890000,-3.029241,-0.253727,-1.531009,0.876551,0.072974,-0.138255,1.400482,0.295190,-0.251899,-1.330607,-0.544532,-0.049945,-10.614746,-9.145269,-1.497337,0.029049,-0.138298,0.000000,-0.053173,0.130352,0.000000
0.900000,-3.020405,-0.252983,-1.532404,0.890489,0.075899,-0.140776,1.386645,0.289287,-0.252473,-1.436821,-0.637389,-0.065664,-10.623690,-9.420847,-1.636125,0.028472,-0.136941,0.000000,-0.062332,0.140954,0.000000
0.910000,-3.011431,-0.252209,-1.533825,0.904284,0.078760,-0.143304,1.371746,0.282442,-0.253212,-1.543081,-0.732949,-0.082667,-10.617825,-9.689334,-1.767863,0.027802,-0.135478,0.000000,-0.071765,0.151582,0.000000
0.920000,-3.002320,-0.251408,-1.535270,0.917924,0.081548,-0.145841,1.355784,0.274628,-0.254127,-1.649178,-0.831175,-0.101021,-10.583822,-9.957744,-1.916682,0.027037,-0.133908,0.000000,-0.081469,0.162215,-0.000000
0.930000,-2.993073,-0.250579,-1.536741,0.931400,0.084253,-0.148387,1.338762,0.265819,-0.255232,-1.754757,-0.932103,-0.121001,-10.521577,-10.224547,-2.076740,0.026173,-0.132232,0.000000,-0.091448,0.172820,-0.000000
0.940000,-2.983692,-0.249723,-1.538238,0.944699,0.086864,-0.150945,1.320689,0.255986,-0.256547,-1.859610,-1.035666,-0.142556,-10.447694,-10.478739,-2.213539,0.025208,-0.130451,0.000000,-0.101693,0.183374,-0.000000
0.950000,-2.974179,-0.248841,-1.539760,0.957813,0.089372,-0.153518,1.301570,0.245105,-0.258083,-1.963711,-1.141678,-0.165272,-10.368688,-10.716638,-2.316628,0.024139,-0.128564,0.000000,-0.112186,0.193868,-0.000000
0.960000,-2.964536,-0.247935,-1.541308,0.970731,0.091766,-0.156107,1.281414,0.233152,-0.259852,-2.066983,-1.249999,-0.188889,-10.271985,-10.944585,-2.407496,0.022964,-0.126572,0.000000,-0.122909,0.204289,0.000000
0.970000,-2.954764,-0.247006,-1.542882,0.983442,0.094035,-0.158715,1.260230,0.220105,-0.261861,-2.169151,-1.360570,-0.213422,-10.139831,-11.168592,-2.506339,0.021681,-0.124477,0.000000,-0.133855,0.214608,0.000000
0.980000,-2.944867,-0.246055,-1.544483,0.995935,0.096168,-0.161344,1.238031,0.205941,-0.264121,-2.269780,-1.473371,-0.239015,-9.974771,-11.385563,-2.604671,0.020287,-0.122279,0.000000,-0.145022,0.224782,-0.000000
0.990000,-2.934845,-0.245083,-1.546109,1.008202,0.098154,-0.163997,1.214835,0.190638,-0.266642,-2.368646,-1.588281,-0.265515,-9.799350,-11.585978,-2.673072,0.018781,-0.119980,0.000000,-0.156395,0.234785,0.000000
1.000000,-2.924703,-0.244091,-1.547763,1.020232,0.099981,-0.166677,1.190658,0.174175,-0.269431,-2.465767,-1.705090,-0.292477,-9.619801,-11.768879,-2.706474,0.017159,-0.117583,0.000000,-0.167950,0.244611,0.000000
1.010000,-2.914441,-0.243083,-1.549443,1.032015,0.101638,-0.169386,1.165519,0.156536,-0.272491,-2.561042,-1.823659,-0.319645,-9.420137,-11.939181,-2.721876,0.015422,-0.115088,0.000000,-0.179670,0.254246,-0.000000
1.020000,-2.904062,-0.242059,-1.551150,1.043543,0.103112,-0.172127,1.139437,0.137702,-0.275824,-2.654170,-1.943874,-0.346914,-9.184605,-12.095399,-2.724343,0.013566,-0.112497,0.000000,-0.191542,0.263655,0.000000
1.030000,-2.893570,-0.241021,-1.552885,1.054804,0.104392,-0.174902,1.112436,0.117659,-0.279429,-2.744735,-2.065567,-0.374131,-8.917371,-12.234716,-2.705539,0.011591,-0.109814,0.000000,-0.203546,0.272794,-0.000000
1.040000,-2.882966,-0.239971,-1.554648,1.065791,0.105465,-0.177715,1.084543,0.096391,-0.283306,-2.832517,-2.188568,-0.401025,-8.638546,-12.357615,-2.656010,0.009495,-0.107041,0.000000,-0.215663,0.281638,0.000000
1.050000,-2.872254,-0.238911,-1.556440,1.076495,0.106320,-0.180568,1.055786,0.073887,-0.287450,-2.917505,-2.312719,-0.427252,-8.353864,-12.462913,-2.575878,0.007278,-0.104181,0.000000,-0.227873,0.290179,0.000000
1.060000,-2.861436,-0.237844,-1.558260,1.086907,0.106943,-0.183464,1.026193,0.050137,-0.291851,-2.999594,-2.437826,-0.452543,-8.049484,-12.548803,-2.468074,0.004938,-0.101237,0.000000,-0.240155,0.298403,0.000000
1.070000,-2.850516,-0.236773,-1.560109,1.097019,0.107322,-0.186406,0.995794,0.025131,-0.296501,-3.078495,-2.563695,-0.476613,-7.711066,-12.616414,-2.325909,0.002475,-0.098213,0.000000,-0.252486,0.306278,0.000000
1.080000,-2.839496,-0.235698,-1.561988,1.106823,0.107445,-0.189394,0.964623,-0.001137,-0.301384,-3.153816,-2.690155,-0.499061,-7.342765,-12.665320,-2.144068,-0.000112,-0.095112,0.000000,-0.264847,0.313760,0.000000
1.090000,-2.828380,-0.234624,-1.563897,1.116311,0.107300,-0.192433,0.932717,-0.028672,-0.306482,-3.225350,-2.817001,-0.519495,-6.963391,-12.691769,-1.928247,-0.002822,-0.091938,0.000000,-0.277217,0.320827,0.000000
1.100000,-2.817170,-0.233552,-1.565836,1.125477,0.106872,-0.195524,0.900116,-0.057477,-0.311774,-3.293083,-2.943990,-0.537626,-6.576239,-12.694203,-1.689628,-0.005656,-0.088695,0.000000,-0.289569,0.327475,-0.000000
1.110000,-2.805870,-0.232486,-1.567807,1.134314,0.106150,-0.198669,0.866856,-0.087552,-0.317234,-3.356875,-3.070886,-0.553287,-6.168918,-12.673707,-1.420329,-0.008614,-0.085388,0.000000,-0.301879,0.333689,0.000000
1.120000,-2.794484,-0.231429,-1.569810,1.142814,0.105121,-0.201869,0.832978,-0.118895,-0.322839,-3.416462,-3.197464,-0.566032,-5.735006,-12.630548,-1.083277,-0.011694,-0.082021,0.000000,-0.314124,0.339442,0.000000
1.130000,-2.783014,-0.230384,-1.571845,1.150973,0.103772,-0.205125,0.798527,-0.151502,-0.328555,-3.471575,-3.323497,-0.574953,-5.279502,-12.563370,-0.675294,-0.014896,-0.078599,0.000000,-0.326283,0.344703,0.000000
1.140000,-2.771464,-0.229354,-1.573912,1.158785,0.102091,-0.208440,0.763547,-0.185365,-0.334338,-3.522052,-3.448732,-0.579538,-4.810658,-12.469780,-0.243748,-0.018219,-0.075127,0.000000,-0.338333,0.349456,0.000000
1.150000,-2.759838,-0.228342,-1.576013,1.166244,0.100065,-0.211812,0.728086,-0.220476,-0.340146,-3.567789,-3.572892,-0.579828,-4.325010,-12.347317,0.190561,-0.021662,-0.071609,0.000000,-0.350250,0.353696,0.000000
1.160000,-2.748139,-0.227352,-1.578149,1.173347,0.097681,-0.215243,0.692191,-0.256823,-0.345935,-3.608552,-3.695678,-0.575727,-3.817987,-12.196161,0.663368,-0.025224,-0.068051,0.000000,-0.362005,0.357404,0.000000
1.170000,-2.736371,-0.226388,-1.580318,1.180088,0.094928,-0.218731,0.655914,-0.294390,-0.351660,-3.644148,-3.816815,-0.566560,-3.300978,-12.019793,1.230035,-0.028902,-0.064459,0.000000,-0.373578,0.360563,0.000000
1.180000,-2.724537,-0.225454,-1.582523,1.186465,0.091794,-0.222276,0.619308,-0.333159,-0.357266,-3.674572,-3.936074,-0.551126,-2.777066,-11.817188,1.885465,-0.032696,-0.060837,0.000000,-0.384955,0.363171,0.000000
1.190000,-2.712642,-0.224552,-1.584764,1.192474,0.088265,-0.225876,0.582423,-0.373111,-0.362683,-3.699690,-4.053159,-0.528851,-2.230682,-11.581371,2.557767,-0.036601,-0.057191,0.000000,-0.396116,0.365222,0.000000
1.200000,-2.700688,-0.223688,-1.587041,1.198113,0.084331,-0.229530,0.545314,-0.414222,-0.367843,-3.719185,-4.167701,-0.499971,-1.655538,-11.309793,3.212326,-0.040618,-0.053527,0.000000,-0.407032,0.366696,0.000000
1.210000,-2.688680,-0.222866,-1.589354,1.203380,0.079981,-0.233233,0.508039,-0.456465,-0.372682,-3.732800,-4.279355,-0.464604,-1.063006,-11.005618,3.900673,-0.044742,-0.049851,0.000000,-0.417678,0.367576,0.000000
1.220000,-2.676620,-0.222089,-1.591705,1.208274,0.075202,-0.236983,0.470658,-0.499809,-0.377135,-3.740445,-4.387814,-0.421957,-0.467897,-10.671229,4.713518,-0.048971,-0.046168,0.000000,-0.428038,0.367859,0.000000
1.230000,-2.664514,-0.221362,-1.594094,1.212794,0.069985,-0.240776,0.433230,-0.544222,-0.381122,-3.742158,-4.492780,-0.370334,0.132228,-10.304443,5.641554,-0.053303,-0.042485,0.000000,-0.438103,0.367555,0.000000
1.240000,-2.652364,-0.220689,-1.596521,1.216939,0.064318,-0.244606,0.395815,-0.589665,-0.384542,-3.737801,-4.593903,-0.309126,0.756640,-9.899925,6.562853,-0.057733,-0.038807,0.000000,-0.447860,0.366659,0.000000
1.250000,-2.640175,-0.220075,-1.598986,1.220710,0.058191,-0.248467,0.358474,-0.636100,-0.387304,-3.727026,-4.690778,-0.239077,1.412674,-9.455309,7.427730,-0.062260,-0.035139,0.000000,-0.457281,0.365154,0.000000
1.260000,-2.627950,-0.219525,-1.601490,1.224108,0.051596,-0.252352,0.321275,-0.683481,-0.389323,-3.709547,-4.783009,-0.160572,2.086920,-8.972512,8.320039,-0.066879,-0.031489,0.000000,-0.466342,0.363027,-0.000000
1.270000,-2.615693,-0.219043,-1.604033,1.227135,0.044522,-0.256253,0.284283,-0.731760,-0.390515,-3.685287,-4.870228,-0.072676,2.760857,-8.453964,9.360452,-0.071587,-0.027862,0.000000,-0.475032,0.360277,0.000000
1.280000,-2.603408,-0.218635,-1.606615,1.229794,0.036960,-0.260162,0.247569,-0.780885,-0.390777,-3.654330,-4.952088,0.026637,3.437878,-7.897566,10.528300,-0.076380,-0.024265,0.000000,-0.483353,0.356922,0.000000
1.290000,-2.591097,-0.218304,-1.609236,1.232087,0.028904,-0.264069,0.211197,-0.830802,-0.389983,-3.616530,-5.028180,0.137890,4.142802,-7.297752,11.659276,-0.081255,-0.020703,0.000000,-0.491294,0.352962,0.000000
1.300000,-2.578766,-0.218057,-1.611897,1.234018,0.020344,-0.267962,0.175238,-0.881449,-0.388019,-3.571474,-5.098043,0.259823,4.883206,-6.654082,12.692819,-0.086206,-0.017182,0.000000,-0.498827,0.348373,0.000000
1.310000,-2.566417,-0.217897,-1.614596,1.235591,0.011275,-0.271829,0.139767,-0.932762,-0.384786,-3.518865,-5.161261,0.391746,5.642433,-5.968402,13.738562,-0.091232,-0.013709,0.000000,-0.505930,0.343139,0.000000
1.320000,-2.554054,-0.217831,-1.617333,1.236813,0.001689,-0.275657,0.104861,-0.984674,-0.380184,-3.458626,-5.217411,0.534594,6.403409,-5.237148,14.936944,-0.096326,-0.010290,0.000000,-0.512597,0.337261,-0.000000
1.330000,-2.541681,-0.217864,-1.620109,1.237689,-0.008418,-0.279433,0.070595,-1.037111,-0.374094,-3.390797,-5.266004,0.690485,7.173773,-4.457724,16.255229,-0.101484,-0.006932,0.000000,-0.518828,0.330754,0.000000
1.340000,-2.529300,-0.218000,-1.622922,1.238225,-0.019053,-0.283139,0.037045,-1.089994,-0.366375,-3.315150,-5.306566,0.859699,7.975998,-3.632833,17.499779,-0.106703,-0.003640,0.000000,-0.524613,0.323606,0.000000
1.350000,-2.516916,-0.218245,-1.625772,1.238430,-0.030218,-0.286760,0.004292,-1.143242,-0.356900,-3.231277,-5.338661,1.040481,8.797875,-2.764810,18.614805,-0.111977,-0.000422,0.000000,-0.529924,0.315790,0.000000
1.360000,-2.504532,-0.218604,-1.628657,1.238311,-0.041918,-0.290277,-0.027581,-1.196767,-0.345565,-3.139193,-5.361862,1.231995,9.626352,-1.849764,19.725146,-0.117302,0.002716,0.000000,-0.534742,0.307311,0.000000
1.370000,-2.492150,-0.219083,-1.631577,1.237878,-0.054154,-0.293672,-0.058492,-1.250479,-0.332261,-3.038750,-5.375656,1.434984,10.501375,-0.877574,20.946717,-0.122673,0.005767,0.000000,-0.539053,0.298161,0.000000
1.380000,-2.479774,-0.219687,-1.634531,1.237141,-0.066927,-0.296923,-0.088356,-1.304280,-0.316865,-2.929165,-5.379413,1.650929,11.432141,0.160745,22.239776,-0.128084,0.008725,0.000000,-0.542847,0.288266,-0.000000
1.390000,-2.467407,-0.220422,-1.637516,1.236111,-0.080239,-0.300009,-0.117075,-1.358067,-0.299242,-2.810107,-5.372441,1.879779,12.362575,1.251612,23.440360,-0.133531,0.011580,0.000000,-0.546091,0.277597,-0.000000
1.400000,-2.455052,-0.221292,-1.640531,1.234800,-0.094089,-0.302907,-0.144558,-1.411729,-0.279270,-2.681914,-5.354381,2.119736,13.267609,2.331173,24.479003,-0.139007,0.014327,0.000000,-0.548760,0.266181,0.000000
1.410000,-2.442711,-0.222303,-1.643574,1.233220,-0.108474,-0.305594,-0.170714,-1.465155,-0.256847,-2.544755,-5.325818,2.369359,14.187184,3.415029,25.457905,-0.144507,0.016956,0.000000,-0.550920,0.254028,0.000000
1.420000,-2.430387,-0.223461,-1.646643,1.231385,-0.123392,-0.308044,-0.195453,-1.518246,-0.231883,-2.398170,-5.286080,2.628894,15.180285,4.687663,26.533514,-0.150027,0.019461,0.000000,-0.552534,0.241081,0.000000
1.430000,-2.418083,-0.224771,-1.649735,1.229311,-0.138839,-0.310232,-0.218677,-1.570877,-0.204269,-2.241150,-5.232065,2.900029,16.247543,6.148128,27.665206,-0.155559,0.021833,0.000000,-0.553355,0.227232,0.000000
1.440000,-2.405801,-0.226238,-1.652847,1.227012,-0.154809,-0.312130,-0.240276,-1.622887,-0.173882,-2.073219,-5.163118,3.182198,17.307228,7.543893,28.627946,-0.161095,0.024062,0.000000,-0.553337,0.212416,0.000000
1.450000,-2.393543,-0.227867,-1.655977,1.224505,-0.171297,-0.313710,-0.260141,-1.674139,-0.140625,-1.895005,-5.081187,3.472588,18.258488,8.867774,29.398191,-0.166628,0.026137,0.000000,-0.552650,0.196666,-0.000000
1.460000,-2.381311,-0.229664,-1.659121,1.221809,-0.188292,-0.314942,-0.278176,-1.724511,-0.104430,-1.708049,-4.985762,3.770162,19.162169,10.287475,30.111568,-0.172150,0.028050,0.000000,-0.551243,0.180103,0.000000
1.470000,-2.369107,-0.231633,-1.662276,1.218942,-0.205787,-0.315798,-0.294302,-1.773854,-0.065222,-1.511762,-4.875437,4.074820,20.293209,11.765509,30.766465,-0.177654,0.029793,0.000000,-0.548990,0.162636,-0.000000
1.480000,-2.356932,-0.233780,-1.665437,1.215923,-0.223769,-0.316247,-0.308411,-1.822019,-0.022934,-1.302185,-4.750452,4.385492,21.638617,13.253556,31.295596,-0.183131,0.031355,0.000000,-0.545906,0.143830,0.000000
1.490000,-2.344789,-0.236109,-1.668601,1.212773,-0.242227,-0.316257,-0.320346,-1.868863,0.022488,-1.078989,-4.610366,4.700732,22.819064,14.811015,31.692684,-0.188574,0.032718,0.000000,-0.541927,0.123596,-0.000000
1.500000,-2.332677,-0.238624,-1.671763,1.209516,-0.261147,-0.315797,-0.329991,-1.914227,0.071081,-0.845804,-4.454232,5.019345,23.789558,16.346406,32.004807,-0.193972,0.033871,0.000000,-0.536933,0.102238,0.000000
1.510000,-2.320598,-0.241332,-1.674917,1.206174,-0.280512,-0.314835,-0.337262,-1.957948,0.122875,-0.603198,-4.283438,5.340828,24.800107,17.822412,32.213661,-0.199314,0.034801,0.000000,-0.531038,0.079754,-0.000000
1.520000,-2.308553,-0.244235,-1.678059,1.202771,-0.300305,-0.313339,-0.342055,-1.999895,0.177897,-0.349802,-4.097784,5.663618,25.889027,19.533656,32.165007,-0.204594,0.035497,0.000000,-0.524179,0.055934,-0.000000
1.530000,-2.296543,-0.247338,-1.681184,1.199332,-0.320510,-0.311277,-0.344258,-2.039904,0.236147,-0.085418,-3.892765,5.984128,26.970494,21.507541,31.835447,-0.209799,0.035943,0.000000,-0.515808,0.030669,0.000000
1.540000,-2.284567,-0.250645,-1.684285,1.195886,-0.341104,-0.308616,-0.343763,-2.077751,0.297580,0.189608,-3.667633,6.300327,28.000148,23.325248,31.417743,-0.214912,0.036123,0.000000,-0.505756,0.003906,0.000000
1.550000,-2.272625,-0.254160,-1.687356,1.192457,-0.362065,-0.305326,-0.340466,-2.113256,0.362154,0.474585,-3.426260,6.612483,28.925998,24.888106,31.009440,-0.219916,0.036021,0.000000,-0.494362,-0.024377,0.000000
1.560000,-2.260718,-0.257886,-1.690391,1.189076,-0.383369,-0.301373,-0.334272,-2.146276,0.429830,0.768128,-3.169871,6.920516,29.769060,26.476312,30.459122,-0.224800,0.035621,0.000000,-0.481690,-0.054129,0.000000
1.570000,-2.248844,-0.261827,-1.693384,1.185772,-0.404990,-0.296729,-0.325103,-2.176654,0.500564,1.069967,-2.896734,7.221665,30.682876,28.256947,29.495936,-0.229550,0.034908,0.000000,-0.467431,-0.085435,0.000000
1.580000,-2.237002,-0.265986,-1.696326,1.182574,-0.426902,-0.291362,-0.312872,-2.204211,0.574263,1.381786,-2.604732,7.510435,31.657434,30.128056,28.132923,-0.234149,0.033863,0.000000,-0.451150,-0.118598,0.000000
1.590000,-2.225192,-0.270365,-1.699211,1.179514,-0.449074,-0.285244,-0.297468,-2.228748,0.650773,1.703115,-2.294172,7.784324,32.466766,31.869256,26.720543,-0.238574,0.032466,0.000000,-0.432698,-0.153696,0.000000
1.600000,-2.213412,-0.274967,-1.702031,1.176625,-0.471477,-0.278347,-0.278810,-2.250094,0.729949,2.031121,-1.967347,8.044846,33.079944,33.472326,25.437584,-0.242803,0.030696,0.000000,-0.412219,-0.190542,0.000000
1.610000,-2.201660,-0.279795,-1.704778,1.173938,-0.494076,-0.270645,-0.256845,-2.268095,0.811669,2.364714,-1.624726,8.293075,33.636730,35.068667,24.028396,-0.246818,0.028536,0.000000,-0.389656,-0.229135,0.000000
1.620000,-2.189933,-0.284849,-1.707444,1.171488,-0.516839,-0.262113,-0.231516,-2.282589,0.895811,2.703856,-1.265973,8.525414,34.148782,36.642571,22.018555,-0.250595,0.025966,0.000000,-0.364733,-0.269601,0.000000
1.630000,-2.178230,-0.290131,-1.710020,1.169308,-0.539728,-0.252729,-0.202768,-2.293415,0.982178,3.047690,-0.891875,8.733446,34.535242,38.142554,19.459883,-0.254111,0.022965,0.000000,-0.337133,-0.311992,0.000000
1.640000,-2.166547,-0.295643,-1.712498,1.167432,-0.562707,-0.242470,-0.170562,-2.300426,1.070480,3.394560,-0.503122,8.914611,34.778551,39.580142,16.985316,-0.257336,0.019514,0.000000,-0.306655,-0.356238,0.000000
1.650000,-2.154881,-0.301386,-1.714869,1.165897,-0.585737,-0.231319,-0.134877,-2.303477,1.160470,3.743261,-0.100272,9.073153,35.030047,40.906623,14.778442,-0.260241,0.015592,0.000000,-0.273266,-0.402294,0.000000
1.660000,-2.143229,-0.307358,-1.717125,1.164735,-0.608776,-0.219260,-0.095697,-2.302431,1.251943,4.095161,0.315010,9.210180,35.273055,42.100993,12.406358,-0.262798,0.011182,0.000000,-0.236966,-0.450409,-0.000000
1.670000,-2.131586,-0.313561,-1.719255,1.163983,-0.631785,-0.206280,-0.052974,-2.297177,1.344674,4.448722,0.741748,9.321280,35.055683,43.291873,9.453574,-0.264977,0.006258,0.000000,-0.197512,-0.500512,-0.000000
1.680000,-2.119949,-0.319994,-1.721250,1.163675,-0.654720,-0.192367,-0.006722,-2.287597,1.438368,4.796275,1.180848,9.399252,34.351790,44.465500,6.047563,-0.266744,0.000803,0.000000,-0.154345,-0.551788,-0.000000
1.690000,-2.108313,-0.326655,-1.723102,1.163848,-0.677537,-0.177513,0.042952,-2.273560,1.532659,5.135758,1.631058,9.442231,33.769479,45.423866,2.739585,-0.268058,-0.005189,0.000000,-0.107289,-0.603993,-0.000000
1.700000,-2.096672,-0.333545,-1.724800,1.164535,-0.700191,-0.161714,0.095993,-2.254975,1.627213,5.471665,2.089325,9.454043,33.409635,46.236275,-0.311726,-0.268884,-0.011731,0.000000,-0.056553,-0.657629,0.000000
1.710000,-2.085022,-0.340659,-1.726336,1.165768,-0.722637,-0.144968,0.152385,-2.231773,1.721739,5.803950,2.555784,9.435997,32.849975,47.012002,-3.468615,-0.269183,-0.018838,0.000000,-0.001928,-0.712671,0.000000
1.720000,-2.073357,-0.347997,-1.727700,1.167582,-0.744827,-0.127279,0.212072,-2.203860,1.815933,6.128664,3.029565,9.384671,31.920853,47.466462,-7.092747,-0.268915,-0.026522,0.000000,0.056826,-0.768581,0.000000
1.730000,-2.061671,-0.355556,-1.728882,1.170010,-0.766714,-0.108650,0.274958,-2.171182,1.909433,6.442367,3.505113,9.294142,30.756378,47.529526,-11.064555,-0.268038,-0.034788,0.000000,0.119458,-0.824794,0.000000
1.740000,-2.049957,-0.363332,-1.729873,1.173081,-0.788250,-0.089090,0.340919,-2.133757,2.001816,6.743792,3.980156,9.163380,29.550133,47.584017,-14.887149,-0.266517,-0.043634,0.000000,0.185890,-0.880941,0.000000
1.750000,-2.038209,-0.371321,-1.730664,1.176828,-0.809389,-0.068614,0.409834,-2.091579,2.092700,7.033370,4.456793,8.996399,28.342711,47.727506,-18.445358,-0.264311,-0.053056,0.000000,0.256365,-0.936843,0.000000
1.760000,-2.026420,-0.379519,-1.731245,1.181278,-0.830082,-0.047236,0.481587,-2.044622,2.181744,7.310646,4.934706,8.794473,27.005169,47.680699,-22.051383,-0.261380,-0.063048,0.000000,0.330885,-0.992169,0.000000
1.770000,-2.014583,-0.387922,-1.731608,1.186460,-0.850281,-0.024979,0.556047,-1.992885,2.268590,7.573474,5.410407,8.555371,25.405185,47.235155,-25.921679,-0.257684,-0.073599,0.000000,0.409117,-1.046290,0.000000
1.780000,-2.002691,-0.396525,-1.731745,1.192399,-0.869940,-0.001864,0.633056,-1.936413,2.352851,7.818750,5.879409,8.276039,23.575499,46.457169,-29.931067,-0.253189,-0.084689,0.000000,0.490526,-1.098359,-0.000000
1.790000,-1.990735,-0.405321,-1.731646,1.199121,-0.889010,0.022078,0.712422,-1.875297,2.434111,8.044983,6.339551,7.956750,21.692567,45.599358,-33.769025,-0.247865,-0.096289,0.000000,0.574651,-1.147683,-0.000000
1.800000,-1.978709,-0.414305,-1.731303,1.206647,-0.907446,0.046818,0.793956,-1.809622,2.511986,8.252601,6.791396,7.600659,19.834829,44.787172,-37.410402,-0.241688,-0.108365,0.000000,0.661190,-1.193814,0.000000
1.810000,-1.966602,-0.423470,-1.730709,1.215000,-0.925202,0.072318,0.877474,-1.739469,2.586124,8.441680,7.235294,7.208542,17.883261,43.836395,-41.028272,-0.234635,-0.120876,0.000000,0.749805,-1.236210,0.000000
1.820000,-1.954409,-0.432809,-1.729857,1.224197,-0.942235,0.098540,0.962789,-1.664917,2.656157,8.610266,7.668124,6.780093,15.641482,42.387367,-44.598701,-0.226686,-0.133780,0.000000,0.839628,-1.274007,-0.000000
1.830000,-1.942119,-0.442315,-1.728738,1.234256,-0.958500,0.125441,1.049679,-1.586106,2.721726,8.754510,8.083041,6.316568,13.132093,40.469129,-48.017308,-0.217838,-0.147018,0.000000,0.929112,-1.306084,-0.000000
1.840000,-1.929724,-0.451979,-1.727348,1.245191,-0.973957,0.152975,1.137880,-1.503256,2.782488,8.872908,8.477506,5.819747,10.628542,38.562100,-51.290519,-0.208103,-0.160525,0.000000,1.017134,-1.331640,0.000000
1.850000,-1.917215,-0.461794,-1.725679,1.257013,-0.988566,0.181091,1.227138,-1.416556,2.838121,8.967081,8.854283,5.290757,8.279393,36.847076,-54.529554,-0.197497,-0.174228,0.000000,1.103245,-1.350317,-0.000000
1.860000,-1.904583,-0.471751,-1.723726,1.269733,-1.002288,0.209737,1.317221,-1.326170,2.888304,9.038496,9.214448,4.729156,5.900296,34.990802,-57.683948,-0.186042,-0.188055,0.000000,1.186764,-1.361750,0.000000
1.870000,-1.891820,-0.481840,-1.721484,1.283358,-1.015089,0.238857,1.407908,-1.232267,2.932704,9.085086,9.554099,4.137078,3.127239,32.556855,-60.385884,-0.173768,-0.201928,0.000000,1.266194,-1.365211,-0.000000
1.880000,-1.878916,-0.492052,-1.718949,1.297891,-1.026933,0.268391,1.498923,-1.135088,2.971045,9.101041,9.865585,3.521438,0.020496,29.633984,-62.600167,-0.160727,-0.215763,0.000000,1.339371,-1.359697,0.000000
1.890000,-1.865862,-0.502378,-1.716116,1.313336,-1.037791,0.298278,1.589928,-1.034956,3.003133,9.085496,10.146779,2.885075,-2.916116,26.808044,-64.790497,-0.146993,-0.229463,0.000000,1.405058,-1.344918,-0.000000
1.900000,-1.852649,-0.512808,-1.712983,1.329690,-1.047633,0.328454,1.680633,-0.932152,3.028747,9.042718,10.401746,2.225628,-5.626570,24.251461,-67.092540,-0.132640,-0.242940,0.000000,1.463095,-1.321246,0.000000
1.910000,-1.839268,-0.523331,-1.709547,1.346949,-1.056434,0.358853,1.770783,-0.826921,3.047645,8.972965,10.631808,1.543224,-8.433049,21.574020,-69.156334,-0.117747,-0.256108,0.000000,1.512955,-1.288691,0.000000
1.920000,-1.825710,-0.533937,-1.705806,1.365106,-1.064171,0.389407,1.860092,-0.719516,3.059611,8.874057,10.833226,0.842502,-11.371909,18.390609,-70.629186,-0.102400,-0.268881,0.000000,1.553440,-1.247223,0.000000
1.930000,-1.811966,-0.544615,-1.701759,1.384151,-1.070824,0.420045,1.948264,-0.610256,3.064495,8.745527,10.999620,0.130640,-14.314133,14.831722,-71.576897,-0.086698,-0.281172,0.000000,1.583152,-1.197320,0.000000
1.940000,-1.798027,-0.555353,-1.697405,1.404071,-1.076376,0.450697,2.035003,-0.499524,3.062224,8.587775,11.129861,-0.589036,-17.211715,11.419855,-72.430028,-0.070757,-0.292907,0.000000,1.601721,-1.139590,-0.000000
1.950000,-1.783885,-0.566142,-1.692745,1.424851,-1.080815,0.481290,2.120019,-0.387659,3.052714,8.401293,11.228018,-1.317960,-20.077057,8.242736,-73.394341,-0.054684,-0.304013,0.000000,1.609754,-1.074563,0.000000
1.960000,-1.769530,-0.576970,-1.687780,1.446471,-1.084129,0.511751,2.203029,-0.274964,3.035865,8.186234,11.294715,-2.056923,-22.916153,4.971131,-74.149164,-0.038581,-0.314423,0.000000,1.607512,-1.002819,0.000000
1.970000,-1.754955,-0.587825,-1.682510,1.468911,-1.086314,0.542007,2.283744,-0.161765,3.011576,7.942969,11.327440,-2.800943,-25.682417,1.465243,-74.110127,-0.022552,-0.324079,0.000000,1.594946,-0.925281,0.000000
1.980000,-1.740152,-0.598696,-1.676940,1.492146,-1.087365,0.571983,2.361888,-0.048415,2.979846,7.672585,11.324020,-3.539126,-28.353454,-2.139456,-73.328300,-0.006699,-0.332931,0.000000,1.572259,-0.843296,0.000000
1.990000,-1.725113,-0.609572,-1.671071,1.516149,-1.087282,0.601604,2.437196,0.064716,2.940793,7.375900,11.284651,-4.267509,-30.965269,-5.644238,-72.573144,0.008879,-0.340945,0.000000,1.540203,-0.757902,0.000000
2.000000,-1.709829,-0.620442,-1.664907,1.540890,-1.086070,0.630798,2.509406,0.177278,2.894496,7.053280,11.211136,-4.990588,-33.526408,-9.063156,-72.123144,0.024093,-0.348091,0.000000,1.499813,-0.669663,-0.000000
2.010000,-1.694295,-0.631293,-1.658455,1.566337,-1.083737,0.659494,2.578261,0.288938,2.840982,6.705372,11.103388,-5.709972,-35.989993,-12.494734,-71.438889,0.038865,-0.354345,0.000000,1.451873,-0.579265,0.000000
2.020000,-1.678502,-0.642116,-1.651718,1.592455,-1.080292,0.687618,2.643513,0.399346,2.780296,6.333480,10.961241,-6.419366,-38.294982,-15.837233,-69.836956,0.053123,-0.359690,0.000000,1.397216,-0.487793,0.000000
2.030000,-1.662446,-0.652899,-1.644702,1.619207,-1.075750,0.715100,2.704931,0.508163,2.712594,5.939473,10.786643,-7.106711,-40.422192,-19.019012,-67.470050,0.066805,-0.364121,0.000000,1.337046,-0.396613,-0.000000
2.040000,-1.646118,-0.663631,-1.637416,1.646554,-1.070128,0.741870,2.762303,0.615079,2.638162,5.525036,10.580861,-7.768767,-42.428266,-22.151698,-65.242054,0.079862,-0.367648,0.000000,1.272423,-0.306559,0.000000
2.050000,-1.629515,-0.674302,-1.629865,1.674453,-1.063448,0.767863,2.815432,0.719781,2.557219,5.090907,10.343609,-8.411552,-44.433648,-25.312470,-63.325208,0.092253,-0.370281,0.000000,1.204042,-0.217824,0.000000
2.060000,-1.612629,-0.684900,-1.622058,1.702863,-1.055733,0.793014,2.864121,0.821951,2.469931,4.636363,10.074611,-9.035271,-46.370826,-28.389392,-61.118459,0.103945,-0.372033,0.000000,1.132569,-0.130624,-0.000000
2.070000,-1.595457,-0.695416,-1.614005,1.731736,-1.047009,0.817262,2.908159,0.921273,2.376514,4.163491,9.775821,-9.633922,-47.856891,-31.137400,-58.281334,0.114909,-0.372918,0.000000,1.058949,-0.045719,-0.000000
2.080000,-1.577994,-0.705840,-1.605713,1.761026,-1.037307,0.840545,2.947391,1.017468,2.277253,3.679225,9.451863,-10.200898,-48.873055,-33.547934,-55.017169,0.125129,-0.372964,0.000000,0.984359,0.035656,0.000000
2.090000,-1.560237,-0.716163,-1.597194,1.790684,-1.026660,0.862807,2.981743,1.110310,2.172496,3.186030,9.104863,-10.734265,-49.923167,-35.917522,-51.771130,0.134603,-0.372210,0.000000,0.909520,0.113119,0.000000
2.100000,-1.542181,-0.726374,-1.588457,1.820661,-1.015101,0.883994,3.011111,1.199565,2.062567,2.680762,8.733513,-11.236321,-51.158432,-38.389717,-48.643375,0.143327,-0.370692,0.000000,0.834627,0.187160,0.000000
2.110000,-1.523824,-0.736465,-1.579514,1.850906,-1.002668,0.904058,3.035359,1.284980,1.947769,2.162861,8.337068,-11.707133,-52.217090,-40.730732,-45.359258,0.151304,-0.368439,0.000000,0.759893,0.257908,0.000000
2.120000,-1.505163,-0.746427,-1.570376,1.881368,-0.989401,0.922950,3.054369,1.366306,1.828425,1.636420,7.918898,-12.143506,-52.741567,-42.527497,-41.699990,0.158534,-0.365485,0.000000,0.685970,0.324889,0.000000
2.130000,-1.486196,-0.756253,-1.561055,1.911993,-0.975342,0.940626,3.068087,1.443358,1.704899,1.108030,7.486519,-12.541132,-52.826229,-43.812409,-37.778968,0.165032,-0.361869,0.000000,0.613890,0.387398,-0.000000
2.140000,-1.466923,-0.765934,-1.551563,1.942730,-0.960534,0.957048,3.076529,1.516037,1.577602,0.579896,7.042650,-12.899085,-52.925435,-45.113200,-33.912181,0.170822,-0.357639,0.000000,0.544011,0.445411,0.000000
2.150000,-1.447342,-0.775463,-1.541914,1.973524,-0.945022,0.972178,3.079685,1.584211,1.446917,0.049521,6.584255,-13.219376,-53.164165,-46.602878,-30.111567,0.175922,-0.352838,0.000000,0.475989,0.499529,0.000000
2.160000,-1.427452,-0.784834,-1.532120,2.004323,-0.928850,0.985986,3.077520,1.647722,1.313214,-0.483388,6.110592,-13.501317,-53.228689,-47.901380,-26.200491,0.180350,-0.347500,0.000000,0.409755,0.550009,0.000000
2.170000,-1.407255,-0.794040,-1.522194,2.035074,-0.912067,0.998443,3.070017,1.706423,1.176891,-1.015053,5.626227,-13.743386,-52.805344,-48.566188,-22.246022,0.184126,-0.341664,0.000000,0.345762,0.596675,0.000000
2.180000,-1.386751,-0.803076,-1.512151,2.065724,-0.894722,1.009524,3.057219,1.760246,1.038347,-1.539494,5.139269,-13.946237,-51.984449,-48.691002,-18.350212,0.187274,-0.335368,0.000000,0.284719,0.639240,0.000000
2.190000,-1.365941,-0.811935,-1.502004,2.096219,-0.876862,1.019210,3.039227,1.809208,0.897966,-2.054742,4.652407,-14.110390,-51.175805,-48.844973,-14.446769,0.189828,-0.328657,0.000000,0.226735,0.677831,0.000000
2.200000,-1.344826,-0.820613,-1.491767,2.126508,-0.858537,1.027483,3.016124,1.853294,0.756139,-2.563011,4.162369,-14.235172,-50.475987,-49.184111,-10.450974,0.191816,-0.321569,0.000000,0.171349,0.712941,0.000000
2.210000,-1.323411,-0.829105,-1.481454,2.156541,-0.839796,1.034332,2.987967,1.892456,0.613263,-3.064262,3.668725,-14.319409,-49.612049,-49.315255,-6.450036,0.193262,-0.314136,0.000000,0.118401,0.744813,0.000000
2.220000,-1.301696,-0.837409,-1.471080,2.186268,-0.820688,1.039749,2.954839,1.926669,0.469751,-3.555251,3.176064,-14.364173,-48.367643,-48.858342,-2.718909,0.194191,-0.306393,0.000000,0.068158,0.773448,-0.000000
2.230000,-1.279685,-0.845519,-1.460659,2.215638,-0.801263,1.043727,2.916862,1.955977,0.325979,-4.031614,2.691558,-14.373788,-46.833939,-47.928259,0.720099,0.194631,-0.298374,0.000000,0.021044,0.798831,-0.000000
2.240000,-1.257383,-0.853434,-1.450205,2.244605,-0.781569,1.046268,2.874206,1.980500,0.182275,-4.491930,2.217499,-14.349771,-45.299322,-47.020757,4.201466,0.194617,-0.290112,0.000000,-0.022948,0.821128,0.000000
2.250000,-1.234793,-0.861151,-1.439734,2.273122,-0.761653,1.047373,2.827024,2.000327,0.038984,-4.937601,1.751143,-14.289758,-43.814536,-46.248722,7.876937,0.194177,-0.281637,0.000000,-0.064213,0.840643,0.000000
2.260000,-1.211920,-0.868667,-1.429258,2.301145,-0.741562,1.047048,2.775454,2.015523,-0.103520,-5.368221,1.292524,-14.192232,-42.198227,-45.282866,11.482261,0.193337,-0.272978,0.000000,-0.102891,0.857535,0.000000
2.270000,-1.188770,-0.875982,-1.418793,2.328631,-0.721342,1.045303,2.719659,2.026178,-0.244861,-5.781565,0.845485,-14.060113,-40.358588,-43.871777,14.584541,0.192123,-0.264161,0.000000,-0.138849,0.871901,0.000000
2.280000,-1.165348,-0.883094,-1.408352,2.355538,-0.701039,1.042151,2.659823,2.032432,-0.384722,-6.175393,0.415089,-13.900542,-38.369075,-42.126529,17.223924,0.190563,-0.255213,0.000000,-0.171924,0.883912,-0.000000
2.290000,-1.141659,-0.890003,-1.397950,2.381828,-0.680694,1.037608,2.596151,2.034479,-0.522871,-6.548947,0.002955,-13.715635,-36.360041,-40.382231,19.947553,0.188687,-0.246156,0.000000,-0.202171,0.893717,0.000000
2.300000,-1.117711,-0.896708,-1.387600,2.407461,-0.660349,1.031693,2.528844,2.032492,-0.659035,-6.902594,-0.392556,-13.501590,-34.331226,-38.695768,22.922498,0.186522,-0.237014,0.000000,-0.229827,0.901424,-0.000000
2.310000,-1.093510,-0.903210,-1.377316,2.432404,-0.640044,1.024427,2.458099,2.026628,-0.792903,-7.235571,-0.770961,-13.257185,-32.214160,-36.857578,25.752833,0.184092,-0.227808,0.000000,-0.254976,0.907101,0.000000
2.320000,-1.069063,-0.909509,-1.367111,2.456623,-0.619816,1.015835,2.384133,2.017072,-0.924179,-7.546877,-1.129707,-12.986534,-30.048783,-34.767084,28.006260,0.181424,-0.218559,0.000000,-0.277599,0.910896,0.000000
2.330000,-1.044378,-0.915606,-1.356999,2.480087,-0.599703,1.005944,2.307162,2.004034,-1.052634,-7.836547,-1.466302,-12.697060,-27.878940,-32.509432,29.782129,0.178542,-0.209284,0.000000,-0.297720,0.913080,0.000000
2.340000,-1.019461,-0.921503,-1.346992,2.502767,-0.579736,0.994782,2.227402,1.987746,-1.178120,-8.104456,-1.779896,-12.390891,-25.664982,-30.229081,31.628775,0.175470,-0.200000,0.000000,-0.315415,0.913770,0.000000
2.350000,-0.994322,-0.927201,-1.337103,2.524635,-0.559948,0.982381,2.145073,1.968436,-1.300452,-8.349847,-2.070884,-12.064484,-23.369636,-27.930343,33.679970,0.172234,-0.190721,0.000000,-0.330774,0.912926,-0.000000
2.360000,-0.968969,-0.932702,-1.327345,2.545668,-0.540367,0.968773,2.060405,1.946329,-1.419410,-8.571848,-2.338503,-11.717292,-21.040481,-25.538799,35.554674,0.168855,-0.181464,0.000000,-0.343828,0.910560,0.000000
2.370000,-0.943409,-0.938008,-1.317728,2.565843,-0.521021,0.953993,1.973636,1.921666,-1.534798,-8.770656,-2.581660,-11.353391,-18.801811,-23.087709,36.922746,0.165357,-0.172245,0.000000,-0.354636,0.906834,0.000000
2.380000,-0.917652,-0.943122,-1.308265,2.585141,-0.501934,0.938077,1.884992,1.894695,-1.646478,-8.947884,-2.800257,-10.978837,-16.660569,-20.625475,37.895812,0.161762,-0.163074,0.000000,-0.363351,0.902034,0.000000
2.390000,-0.891706,-0.948047,-1.298966,2.603543,-0.483127,0.921064,1.794678,1.865661,-1.754374,-9.103868,-2.994169,-10.595474,-14.469079,-18.126049,38.895717,0.158090,-0.153962,0.000000,-0.370055,0.896247,0.000000
2.400000,-0.865581,-0.952785,-1.289844,2.621034,-0.464621,0.902990,1.702914,1.834812,-1.858387,-9.237266,-3.162778,-10.200923,-12.172247,-15.555415,40.009638,0.154360,-0.144919,0.000000,-0.374732,0.889365,0.000000
2.410000,-0.839286,-0.957339,-1.280907,2.637601,-0.446431,0.883896,1.609933,1.802405,-1.958393,-9.347313,-3.305278,-9.795282,-9.887830,-12.955675,40.954902,0.150594,-0.135957,0.000000,-0.377376,0.881365,-0.000000
2.420000,-0.812829,-0.961713,-1.272166,2.653233,-0.428572,0.863822,1.515968,1.768707,-2.054293,-9.435023,-3.421891,-9.381825,-7.778027,-10.451781,41.529516,0.146812,-0.127087,0.000000,-0.378097,0.872400,0.000000
2.430000,-0.786221,-0.965910,-1.263630,2.667921,-0.411057,0.842810,1.421232,1.733968,-2.146029,-9.502873,-3.514313,-8.964691,-5.823891,-8.055631,41.825663,0.143031,-0.118316,0.000000,-0.377121,0.862732,0.000000
2.440000,-0.759471,-0.969934,-1.255309,2.681658,-0.393893,0.820902,1.325911,1.698420,-2.233586,-9.551500,-3.583004,-8.545311,-3.827364,-5.623244,42.107183,0.139268,-0.109651,0.000000,-0.374533,0.852425,-0.000000
2.450000,-0.732588,-0.973788,-1.247212,2.694439,-0.377088,0.798138,1.230202,1.662308,-2.316936,-9.579420,-3.626778,-8.122548,-1.731436,-3.101099,42.424665,0.135540,-0.101098,0.000000,-0.370251,0.841349,0.000000
2.460000,-0.705582,-0.977476,-1.239347,2.706262,-0.360647,0.774563,1.134322,1.625885,-2.396037,-9.586129,-3.645026,-7.696818,0.316890,-0.608392,42.610115,0.131862,-0.092665,0.000000,-0.364257,0.829470,0.000000
2.470000,-0.678462,-0.981001,-1.231721,2.717125,-0.344571,0.750218,1.038480,1.589407,-2.470872,-9.573083,-3.638946,-7.270345,2.159644,1.689157,42.558667,0.128253,-0.084360,0.000000,-0.356688,0.816917,0.000000
2.480000,-0.651239,-0.984368,-1.224342,2.727031,-0.328859,0.725145,0.942860,1.553106,-2.541444,-9.542936,-3.611243,-6.845645,3.830690,3.807592,42.333034,0.124727,-0.076188,0.000000,-0.347794,0.803910,-0.000000
2.490000,-0.623922,-0.987578,-1.217218,2.735983,-0.313509,0.699389,0.847621,1.517182,-2.607785,-9.496469,-3.562794,-6.423685,5.524884,5.944640,42.079445,0.121296,-0.068153,0.000000,-0.337657,0.790496,-0.000000
2.500000,-0.596520,-0.990638,-1.210355,2.743984,-0.298515,0.672990,0.752931,1.481850,-2.669918,-9.432439,-3.492350,-6.004056,7.289594,8.157584,41.821503,0.117973,-0.060258,0.000000,-0.326177,0.776553,0.000000
2.510000,-0.569042,-0.993549,-1.203758,2.751041,-0.283872,0.645990,0.658972,1.447335,-2.727866,-9.350677,-3.399642,-5.587255,8.985283,10.295660,41.475035,0.114771,-0.052510,0.000000,-0.313336,0.762051,0.000000
2.520000,-0.541499,-0.996315,-1.197435,2.757163,-0.269568,0.618432,0.565918,1.413857,-2.781663,-9.252733,-3.286437,-5.174555,10.485764,12.191908,41.010412,0.111705,-0.044914,0.000000,-0.299279,0.747096,0.000000
2.530000,-0.513899,-0.998940,-1.191390,2.762360,-0.255594,0.590357,0.473918,1.381606,-2.831357,-9.140962,-3.155804,-4.767046,11.827547,13.877439,40.471486,0.108785,-0.037472,0.000000,-0.284246,0.731850,-0.000000
2.540000,-0.486252,-1.001427,-1.185628,2.766642,-0.241936,0.561805,0.383098,1.350741,-2.877004,-9.016182,-3.008888,-4.365125,13.167339,15.554315,39.910273,0.106019,-0.030187,0.000000,-0.268316,0.716350,0.000000
2.550000,-0.458566,-1.003779,-1.180153,2.770022,-0.228580,0.532817,0.293594,1.321429,-2.918659,-8.877615,-2.844718,-3.968841,14.543206,17.274726,39.304551,0.103417,-0.023061,0.000000,-0.251397,0.700505,0.000000
2.560000,-0.430851,-1.005999,-1.174971,2.772513,-0.215508,0.503432,0.205546,1.293847,-2.956381,-8.725318,-2.663394,-3.579034,15.845560,18.890163,38.637734,0.100990,-0.016099,0.000000,-0.233488,0.684292,0.000000
2.570000,-0.403116,-1.008089,-1.170085,2.774132,-0.202703,0.473689,0.119088,1.268161,-2.990240,-8.560704,-2.466915,-3.196086,16.975057,20.253979,38.006127,0.098747,-0.009303,0.000000,-0.214726,0.667788,-0.000000
2.580000,-0.375369,-1.010053,-1.165497,2.774895,-0.190145,0.443627,0.034332,1.244508,-3.020303,-8.385817,-2.258314,-2.818912,17.963572,21.401664,37.439443,0.096695,-0.002676,0.000000,-0.195317,0.651122,0.000000
2.590000,-0.347618,-1.011892,-1.161212,2.774819,-0.177812,0.413283,-0.048629,1.222994,-3.046618,-8.201432,-2.038881,-2.447297,18.937190,22.512827,36.820917,0.094840,0.003782,0.000000,-0.175335,0.634323,0.000000
2.600000,-0.319872,-1.013609,-1.157232,2.773923,-0.165685,0.382695,-0.129697,1.203731,-3.069249,-8.007073,-1.808057,-2.082493,19.916544,23.630893,36.079947,0.093187,0.010070,0.000000,-0.154722,0.617322,-0.000000
2.610000,-0.292139,-1.015206,-1.153558,2.772225,-0.153738,0.351898,-0.208770,1.186833,-3.088268,-7.803101,-1.566264,-1.725698,20.816632,24.627204,35.314759,0.091745,0.016184,0.000000,-0.133493,0.600115,0.000000
2.620000,-0.264428,-1.016684,-1.150194,2.769747,-0.141948,0.320930,-0.285759,1.172405,-3.103763,-7.590740,-1.315513,-1.376198,21.591642,25.384029,34.729358,0.090517,0.022125,0.000000,-0.111771,0.582762,-0.000000
2.630000,-0.236745,-1.018045,-1.147140,2.766510,-0.130290,0.289823,-0.360585,1.160523,-3.115792,-7.371269,-1.058583,-1.031111,22.271030,25.935002,34.315289,0.089509,0.027889,0.000000,-0.089723,0.565337,0.000000
2.640000,-0.209097,-1.019289,-1.144397,2.762536,-0.118737,0.258614,-0.433184,1.151234,-3.124385,-7.145320,-0.796813,-0.689892,22.911682,26.426254,33.813285,0.088722,0.033478,0.000000,-0.067420,0.547862,0.000000
2.650000,-0.181494,-1.020419,-1.141968,2.757846,-0.107265,0.227335,-0.503491,1.144587,-3.129590,-6.913035,-0.530058,-0.354845,23.511824,26.892010,33.139144,0.088160,0.038891,0.000000,-0.044838,0.530314,-0.000000
2.660000,-0.153941,-1.021435,-1.139851,2.752466,-0.095846,0.196022,-0.571445,1.140633,-3.131482,-6.675083,-0.258973,-0.027110,24.036106,27.230098,32.482023,0.087825,0.044127,0.000000,-0.022007,0.512710,0.000000
2.670000,-0.126444,-1.022336,-1.138047,2.746417,-0.084452,0.164706,-0.636993,1.139407,-3.130132,-6.432313,0.014544,0.294795,24.494522,27.351478,32.059478,0.087720,0.049186,0.000000,0.000967,0.495089,-0.000000
2.680000,-0.099012,-1.023124,-1.136557,2.739726,-0.073058,0.133419,-0.700091,1.140923,-3.125586,-6.185193,0.288056,0.614080,24.902060,27.284205,31.827037,0.087845,0.054069,0.000000,0.023946,0.477470,0.000000
2.690000,-0.071650,-1.023797,-1.135379,2.732416,-0.061634,0.102194,-0.760697,1.145168,-3.117851,-5.934272,0.560228,0.931336,25.244259,27.141112,31.507933,0.088199,0.058774,0.000000,0.046862,0.459876,-0.000000
2.700000,-0.044364,-1.024356,-1.134513,2.724512,-0.050154,0.071062,-0.818776,1.152128,-3.106959,-5.680308,0.830879,1.244239,25.513795,26.953348,31.022084,0.088782,0.063303,0.000000,0.069712,0.442328,-0.000000
2.710000,-0.017160,-1.024800,-1.133957,2.716040,-0.038591,0.040055,-0.874303,1.161786,-3.092966,-5.423996,1.099295,1.551777,25.723340,26.643778,30.563343,0.089594,0.067656,0.000000,0.092463,0.424848,-0.000000
2.720000,0.009957,-1.025128,-1.133712,2.707026,-0.026919,0.009203,-0.927256,1.174114,-3.075923,-5.165841,1.363754,1.855506,25.890017,26.133683,30.333978,0.090632,0.071835,0.000000,0.115021,0.407454,0.000000
2.730000,0.036981,-1.025339,-1.133773,2.697495,-0.015109,-0.021464,-0.977620,1.189061,-3.055856,-4.906195,1.621969,2.158457,26.011940,25.444229,30.279575,0.091895,0.075840,0.000000,0.137256,0.390167,0.000000
2.740000,0.063907,-1.025430,-1.134141,2.687473,-0.003137,-0.051914,-1.025380,1.206553,-3.032754,-4.645602,1.872639,2.461097,26.068974,24.679654,30.138098,0.093378,0.079672,0.000000,0.159100,0.373009,-0.000000
2.750000,0.090730,-1.025402,-1.134812,2.676987,0.009022,-0.082119,-1.070532,1.226514,-3.006634,-4.384816,2.115562,2.761219,26.056620,23.875182,29.853143,0.095077,0.083333,0.000000,0.180546,0.356004,0.000000
2.760000,0.117447,-1.025250,-1.135783,2.666063,0.021393,-0.112047,-1.113077,1.248865,-2.977530,-4.124470,2.350142,3.058160,25.990300,22.961199,29.601017,0.096990,0.086825,0.000000,0.201566,0.339172,0.000000
2.770000,0.144052,-1.024974,-1.137053,2.654726,0.033999,-0.141669,-1.153021,1.273517,-2.945471,-3.865010,2.574786,3.353239,25.883573,21.853427,29.508147,0.099110,0.090149,0.000000,0.222069,0.322532,0.000000
2.780000,0.170541,-1.024570,-1.138617,2.643002,0.046863,-0.170956,-1.190377,1.300360,-2.910465,-3.606798,2.787211,3.648323,25.732520,20.571268,29.518246,0.101432,0.093308,0.000000,0.241914,0.306106,0.000000
2.790000,0.196912,-1.024036,-1.140472,2.630918,0.060006,-0.199879,-1.225157,1.329261,-2.872504,-3.350359,2.986211,3.943604,25.521787,19.230507,29.466068,0.103949,0.096303,0.000000,0.261029,0.289916,0.000000
2.800000,0.223159,-1.023370,-1.142614,2.618499,0.073449,-0.228406,-1.257384,1.360085,-2.831593,-3.096362,3.171821,4.237644,25.252239,17.873954,29.312030,0.106654,0.099138,0.000000,0.279423,0.273985,0.000000
2.810000,0.249282,-1.022567,-1.145040,2.605771,0.087208,-0.256510,-1.287085,1.392697,-2.787751,-2.845315,3.343690,4.529845,24.935271,16.425983,29.162169,0.109539,0.101815,0.000000,0.297077,0.258326,0.000000
2.820000,0.275275,-1.021626,-1.147744,2.592758,0.101302,-0.284161,-1.314290,1.426958,-2.740996,-2.597657,3.500341,4.820888,24.569612,14.788861,29.105291,0.112596,0.104336,0.000000,0.313897,0.242961,-0.000000
2.830000,0.301137,-1.020541,-1.150723,2.579485,0.115747,-0.311330,-1.339038,1.462704,-2.691334,-2.353922,3.639468,5.111951,24.150836,12.984791,29.104283,0.115818,0.106705,0.000000,0.329721,0.227923,0.000000
2.840000,0.326865,-1.019311,-1.153971,2.565977,0.130557,-0.337988,-1.361369,1.499748,-2.638757,-2.114640,3.760037,5.402973,23.683703,11.151094,29.035303,0.119192,0.108925,0.000000,0.344476,0.213239,-0.000000
2.850000,0.352456,-1.017930,-1.157483,2.552257,0.145742,-0.364105,-1.381330,1.537905,-2.583274,-1.880248,3.862489,5.692657,23.179512,9.339057,28.868697,0.122709,0.111000,0.000000,0.358188,0.198915,0.000000
2.860000,0.377910,-1.016396,-1.161253,2.538350,0.161315,-0.389654,-1.398974,1.576997,-2.524904,-1.651050,3.946818,5.980347,22.635346,7.460754,28.679683,0.126357,0.112933,0.000000,0.370852,0.184955,0.000000
2.870000,0.403223,-1.014704,-1.165276,2.524278,0.177282,-0.414604,-1.414351,1.616841,-2.463667,-1.427541,4.011705,6.266250,22.023717,5.403565,28.521925,0.130127,0.114729,0.000000,0.382364,0.171385,0.000000
2.880000,0.428395,-1.012850,-1.169545,2.510063,0.193652,-0.438927,-1.427525,1.657232,-2.399579,-1.210576,4.054889,6.550786,21.343862,3.195805,28.360311,0.134006,0.116390,0.000000,0.392540,0.158265,-0.000000
2.890000,0.453424,-1.010831,-1.174054,2.495727,0.210427,-0.462595,-1.438563,1.697939,-2.332651,-1.000664,4.075621,6.833457,20.635907,0.998062,28.115032,0.137979,0.117922,0.000000,0.401304,0.145620,0.000000
2.900000,0.478310,-1.008642,-1.178797,2.481292,0.227610,-0.485580,-1.447538,1.738744,-2.262910,-0.797858,4.074850,7.113086,19.918402,-1.136138,27.799837,0.142033,0.119330,0.000000,0.408702,0.133434,0.000000
2.910000,0.503050,-1.006279,-1.183766,2.466777,0.245202,-0.507853,-1.454520,1.779436,-2.190390,-0.602296,4.052898,7.389453,19.164869,-3.307188,27.455493,0.146155,0.120618,0.000000,0.414738,0.121706,0.000000
2.920000,0.527645,-1.003738,-1.188954,2.452201,0.263199,-0.529388,-1.459584,1.819802,-2.115121,-0.414560,4.008707,7.662196,18.334085,-5.624226,27.012350,0.150329,0.121790,0.000000,0.419299,0.110472,0.000000
2.930000,0.552094,-1.001015,-1.194354,2.437585,0.281598,-0.550156,-1.462811,1.859610,-2.037146,-0.235615,3.940413,7.929700,17.433437,-8.052076,26.438748,0.154542,0.122852,0.000000,0.422181,0.099790,0.000000
2.940000,0.576397,-0.998106,-1.199957,2.422945,0.300391,-0.570131,-1.464296,1.898610,-1.956527,-0.065891,3.847665,8.190971,16.521076,-10.431779,25.821954,0.158774,0.123809,0.000000,0.423300,0.089681,-0.000000
2.950000,0.600553,-0.995007,-1.205756,2.408299,0.319570,-0.589286,-1.464129,1.936564,-1.873326,0.094807,3.731778,8.446139,15.618501,-12.708381,25.216322,0.163009,0.124668,0.000000,0.422721,0.080129,0.000000
2.960000,0.624563,-0.991714,-1.211743,2.393663,0.339122,-0.607597,-1.462400,1.973246,-1.787604,0.246479,3.593497,8.695298,14.688225,-14.977890,24.548553,0.167229,0.125433,0.000000,0.420459,0.071134,0.000000
2.970000,0.648427,-0.988225,-1.217908,2.379051,0.359035,-0.625038,-1.459200,2.008433,-1.699420,0.388572,3.432220,8.937110,13.683353,-17.348499,23.666193,0.171419,0.126110,0.000000,0.416392,0.062730,0.000000
2.980000,0.672144,-0.984534,-1.224244,2.364479,0.379291,-0.641586,-1.454628,2.041890,-1.608862,0.520146,3.246527,9.168621,12.612981,-19.774466,22.571431,0.175558,0.126706,0.000000,0.410290,0.054969,-0.000000
2.990000,0.695716,-0.980639,-1.230740,2.349959,0.399873,-0.657216,-1.448797,2.073364,-1.516048,0.640831,3.036731,9.388539,11.544451,-22.096005,21.459780,0.179625,0.127226,0.000000,0.402084,0.047876,0.000000
3.000000,0.719143,-0.976536,-1.237388,2.335503,0.420758,-0.671907,-1.441812,2.102625,-1.421091,0.751035,2.804607,9.597817,10.521189,-24.326934,20.427354,0.183600,0.127678,0.000000,0.391856,0.041434,0.000000
3.010000,0.742426,-0.972224,-1.244178,2.321122,0.441925,-0.685637,-1.433776,2.129456,-1.324092,0.851255,2.550192,9.797086,9.499314,-26.555330,19.329564,0.187462,0.128069,0.000000,0.379537,0.035619,0.000000
3.020000,0.765566,-0.967698,-1.251101,2.306827,0.463348,-0.698388,-1.424787,2.153629,-1.225149,0.941021,2.273501,9.984408,8.372391,-28.684748,17.909602,0.191190,0.128403,0.000000,0.365002,0.030462,-0.000000
3.030000,0.788563,-0.962957,-1.258146,2.292627,0.484998,-0.710140,-1.414956,2.174926,-1.124403,1.018703,1.976497,10.155278,7.157276,-30.675108,16.198796,0.194761,0.128689,0.000000,0.348242,0.026071,0.000000
3.040000,0.811418,-0.957998,-1.265304,2.278528,0.506846,-0.720876,-1.404413,2.193159,-1.022044,1.084166,1.659999,10.308384,6.003691,-32.643201,14.535495,0.198154,0.128934,0.000000,0.329191,0.022463,-0.000000
3.050000,0.834133,-0.952820,-1.272563,2.264538,0.528861,-0.730581,-1.393272,2.208126,-0.918236,1.138777,1.323633,10.445988,4.917422,-34.543808,12.996751,0.201344,0.129147,0.000000,0.307741,0.019565,0.000000
3.060000,0.856709,-0.947421,-1.279915,2.250663,0.551009,-0.739241,-1.381637,2.219631,-0.813124,1.182515,0.969122,10.568319,3.804838,-36.284823,11.350577,0.204307,0.129333,0.000000,0.283927,0.017403,0.000000
3.070000,0.879146,-0.941799,-1.287348,2.236906,0.573254,-0.746844,-1.369622,2.227509,-0.706869,1.214873,0.597936,10.673000,2.690743,-38.001254,9.429565,0.207021,0.129502,0.000000,0.257711,0.016021,0.000000
3.080000,0.901447,-0.935956,-1.294852,2.223270,0.595559,-0.753379,-1.357340,2.231590,-0.599664,1.236330,0.209097,10.756911,1.615736,-39.702439,7.295580,0.209459,0.129661,0.000000,0.228811,0.015364,0.000000
3.090000,0.923612,-0.929888,-1.302416,2.209759,0.617885,-0.758837,-1.344895,2.231691,-0.491731,1.247188,-0.196112,10.818911,0.546292,-41.175402,5.165956,0.211594,0.129816,0.000000,0.197177,0.015418,0.000000
3.100000,0.945642,-0.923598,-1.310029,2.196372,0.640193,-0.763213,-1.332396,2.227668,-0.383286,1.247256,-0.614411,10.860230,-0.531704,-42.498596,3.163974,0.213400,0.129976,0.000000,0.162986,0.016244,0.000000
3.110000,0.967539,-0.917084,-1.317680,2.183111,0.662439,-0.766503,-1.319950,2.219402,-0.274527,1.236554,-1.046084,10.882191,-1.586508,-43.791173,1.141582,0.214851,0.130149,0.000000,0.126097,0.017888,-0.000000
3.120000,0.989304,-0.910349,-1.325359,2.169973,0.684581,-0.768704,-1.307665,2.206746,-0.165642,1.215525,-1.490234,10.883061,-2.583428,-44.728452,-1.229861,0.215918,0.130343,0.000000,0.086413,0.020320,0.000000
3.130000,1.010939,-0.903393,-1.333054,2.156958,0.706574,-0.769816,-1.295640,2.189598,-0.056865,1.184885,-1.940653,10.857593,-3.527187,-45.229311,-3.914413,0.216575,0.130565,0.000000,0.044272,0.023436,0.000000
3.140000,1.032444,-0.896218,-1.340755,2.144060,0.728373,-0.769841,-1.283967,2.167933,0.051510,1.144982,-2.394820,10.804773,-4.453688,-45.734751,-6.457557,0.216799,0.130823,0.000000,-0.000232,0.027215,-0.000000
3.150000,1.053820,-0.888825,-1.348451,2.131278,0.749932,-0.768785,-1.272740,2.141701,0.159230,1.095812,-2.855348,10.728442,-5.361859,-46.393901,-8.740846,0.216565,0.131123,0.000000,-0.047393,0.031736,0.000000
3.160000,1.075069,-0.881219,-1.356131,2.118606,0.771207,-0.766656,-1.262051,2.110826,0.266079,1.037745,-3.322698,10.629956,-6.221468,-46.885110,-11.063738,0.215845,0.131473,0.000000,-0.097351,0.037008,0.000000
3.170000,1.096192,-0.873401,-1.363784,2.106037,0.792149,-0.763464,-1.251985,2.075247,0.371829,0.971382,-3.793050,10.507168,-7.025853,-46.868082,-13.658735,0.214612,0.131881,0.000000,-0.149888,0.042972,0.000000
3.180000,1.117190,-0.865376,-1.371400,2.093566,0.812712,-0.759220,-1.242623,2.034965,0.476222,0.897227,-4.260060,10.356781,-7.775089,-46.432031,-16.412840,0.212841,0.132354,0.000000,-0.204526,0.049554,0.000000
3.190000,1.138063,-0.857147,-1.378969,2.081185,0.832848,-0.753939,-1.234041,1.990046,0.578965,0.815881,-4.721691,10.178911,-8.468847,-46.007285,-19.010961,0.210515,0.132896,0.000000,-0.261103,0.056710,0.000000
3.200000,1.158814,-0.848719,-1.386479,2.068885,0.852512,-0.747641,-1.226306,1.940531,0.679800,0.727851,-5.180206,9.976562,-9.143320,-45.652258,-21.455049,0.207613,0.133514,0.000000,-0.319818,0.064443,0.000000
3.210000,1.179441,-0.840097,-1.393921,2.056659,0.871659,-0.740343,-1.219484,1.886442,0.778496,0.633014,-5.634736,9.749810,-9.790039,-45.072681,-23.932911,0.204112,0.134214,0.000000,-0.380599,0.072777,-0.000000
3.220000,1.199947,-0.831286,-1.401286,2.044495,0.890241,-0.732071,-1.213645,1.827836,0.874797,0.532050,-6.081659,9.497904,-10.287833,-44.143066,-26.368105,0.199995,0.135001,0.000000,-0.443066,0.081639,-0.000000
3.230000,1.220331,-0.822292,-1.408563,2.032386,0.908215,-0.722847,-1.208843,1.764809,0.968454,0.427257,-6.517598,9.222448,-10.626556,-42.937591,-28.674329,0.195245,0.135881,0.000000,-0.506760,0.090800,0.000000
3.240000,1.240594,-0.813121,-1.415743,2.020319,0.925537,-0.712702,-1.205100,1.697484,1.059245,0.319519,-6.940411,8.924417,-10.967181,-41.607796,-30.946311,0.189853,0.136853,0.000000,-0.571326,0.100166,-0.000000
3.250000,1.260737,-0.803781,-1.422817,2.008284,0.942165,-0.701663,-1.202452,1.626001,1.146943,0.207914,-7.349753,8.603521,-11.357545,-40.326999,-33.204016,0.183813,0.137921,0.000000,-0.636592,0.109815,0.000000
3.260000,1.280760,-0.794278,-1.429776,1.996270,0.958057,-0.689763,-1.200942,1.550489,1.231316,0.092368,-7.746951,8.260337,-11.682285,-38.984195,-35.359347,0.177116,0.139088,0.000000,-0.702517,0.119742,0.000000
3.270000,1.300663,-0.784620,-1.436612,1.984265,0.973175,-0.677036,-1.200605,1.471062,1.312149,-0.025732,-8.129437,7.896335,-11.830933,-37.075710,-37.358901,0.169758,0.140354,0.000000,-0.768572,0.129789,0.000000
3.280000,1.320445,-0.774815,-1.443317,1.972257,0.987479,-0.663520,-1.201457,1.387901,1.389243,-0.144251,-8.488465,7.513159,-11.833424,-34.618239,-39.206086,0.161741,0.141721,0.000000,-0.833460,0.139701,0.000000
3.290000,1.340108,-0.764870,-1.449882,1.960236,1.000933,-0.649251,-1.203490,1.301292,1.462412,-0.262400,-8.821802,7.112213,-11.830208,-32.307260,-40.942417,0.153086,0.143186,0.000000,-0.896553,0.149361,0.000000
3.300000,1.359650,-0.754796,-1.456302,1.948188,1.013505,-0.634271,-1.206705,1.211465,1.531487,-0.380855,-9.134611,6.694311,-11.864476,-30.268949,-42.633633,0.143809,0.144744,0.000000,-0.958073,0.158809,0.000000
3.310000,1.379072,-0.744600,-1.462568,1.936102,1.025162,-0.618622,-1.211107,1.118600,1.596299,-0.499690,-9.427181,6.259540,-11.839133,-28.040534,-44.227740,0.133924,0.146395,0.000000,-1.017680,0.168002,0.000000
3.320000,1.398372,-0.734293,-1.468674,1.923966,1.035877,-0.602345,-1.216698,1.022921,1.656678,-0.617638,-9.695421,5.809756,-11.643989,-25.424660,-45.491487,0.123456,0.148134,0.000000,-1.074449,0.176765,-0.000000
3.330000,1.417551,-0.723883,-1.474615,1.911768,1.045621,-0.585488,-1.223460,0.924692,1.712494,-0.732570,-9.935674,5.349710,-11.306841,-22.582005,-46.401749,0.112437,0.149957,0.000000,-1.127437,0.184867,0.000000
3.340000,1.436608,-0.713380,-1.480384,1.899496,1.054370,-0.568096,-1.231350,0.824207,1.763672,-0.843775,-10.147061,4.881721,-10.972995,-19.767297,-47.257711,0.100910,0.151854,0.000000,-1.176073,0.192203,0.000000
3.350000,1.455541,-0.702795,-1.485977,1.887141,1.062105,-0.550215,-1.240335,0.721750,1.810128,-0.952030,-10.331020,4.404556,-10.673612,-17.045919,-48.220430,0.088920,0.153820,0.000000,-1.220124,0.198784,-0.000000
3.360000,1.474350,-0.692138,-1.491388,1.874690,1.068805,-0.531893,-1.250390,0.617587,1.851763,-1.057247,-10.487980,3.917312,-10.312203,-14.266891,-49.062312,0.076513,0.155845,0.000000,-1.259239,0.204525,0.000000
3.370000,1.493035,-0.681419,-1.496615,1.862133,1.074457,-0.513179,-1.261480,0.511991,1.888474,-1.158274,-10.616358,3.423310,-9.823039,-11.276844,-49.348735,0.063742,0.157921,0.000000,-1.292795,0.209293,-0.000000
3.380000,1.511593,-0.670649,-1.501652,1.849460,1.079045,-0.494124,-1.273556,0.405260,1.920229,-1.253708,-10.713517,2.930338,-9.236254,-8.146668,-49.117196,0.050665,0.160038,0.000000,-1.320065,0.213024,0.000000
3.390000,1.530024,-0.659838,-1.506497,1.836662,1.082562,-0.474775,-1.286554,0.297720,1.947081,-1.342999,-10.779291,2.440966,-8.639781,-5.103156,-48.938642,0.037350,0.162186,0.000000,-1.340759,0.215668,0.000000
3.400000,1.548326,-0.648998,-1.511147,1.823729,1.085000,-0.455182,-1.300416,0.189674,1.969048,-1.426503,-10.815580,1.951565,-8.069032,-2.125312,-48.991938,0.023860,0.164353,0.000000,-1.354931,0.217172,0.000000
3.410000,1.566499,-0.638138,-1.515601,1.810653,1.086355,-0.435394,-1.315084,0.081409,1.986112,-1.504379,-10.821798,1.461127,-7.467907,0.910303,-48.877948,0.010261,0.166529,0.000000,-1.362355,0.217514,0.000000
3.420000,1.584539,-0.627271,-1.519855,1.797427,1.086628,-0.415460,-1.330503,-0.026762,1.998271,-1.575861,-10.797374,0.974006,-6.750218,3.861058,-48.169098,-0.003377,0.168702,0.000000,-1.362859,0.216680,-0.000000
3.430000,1.602447,-0.616406,-1.523910,1.784043,1.085820,-0.395428,-1.346602,-0.134539,2.005593,-1.639384,-10.744577,0.497745,-5.934992,6.652498,-46.980546,-0.016986,0.170861,0.000000,-1.356748,0.214641,0.000000
3.440000,1.620220,-0.605554,-1.527764,1.770495,1.083937,-0.375348,-1.363291,-0.241653,2.008226,-1.694561,-10.664324,0.034395,-5.144381,9.461198,-45.870905,-0.030502,0.172995,0.000000,-1.344263,0.211416,0.000000
3.450000,1.637857,-0.594727,-1.531417,1.756778,1.080987,-0.355264,-1.380493,-0.347825,2.006281,-1.742271,-10.555353,-0.419673,-4.403943,12.348317,-44.952400,-0.043862,0.175090,0.000000,-1.325402,0.207063,0.000000
3.460000,1.655356,-0.583935,-1.534869,1.742885,1.076981,-0.335222,-1.398137,-0.452760,1.999832,-1.782640,-10.417357,-0.864653,-3.637329,15.165152,-43.852898,-0.057002,0.177139,0.000000,-1.300334,0.201628,0.000000
3.470000,1.672715,-0.573188,-1.538121,1.728815,1.071932,-0.315267,-1.416146,-0.556172,1.988987,-1.815018,-10.252050,-1.296731,-2.805283,17.742953,-42.334402,-0.069861,0.179129,0.000000,-1.269563,0.195157,0.000000
3.480000,1.689932,-0.562496,-1.541174,1.714562,1.065857,-0.295442,-1.434437,-0.657801,1.973898,-1.838746,-10.062498,-1.711341,-1.943199,20.097522,-40.522811,-0.082386,0.181050,0.000000,-1.233838,0.187722,0.000000
3.490000,1.707006,-0.551870,-1.544030,1.700126,1.058776,-0.275789,-1.452921,-0.757422,1.954761,-1.853882,-9.850099,-2.107187,-1.107648,22.422668,-38.730032,-0.094532,0.182895,0.000000,-1.193712,0.179419,0.000000
3.500000,1.723935,-0.541321,-1.546690,1.685504,1.050709,-0.256347,-1.471515,-0.854803,1.931754,-1.860899,-9.614045,-2.485942,-0.274520,24.819616,-37.009640,-0.106255,0.184654,0.000000,-1.149439,0.170327,0.000000
3.510000,1.740716,-0.530856,-1.549157,1.670696,1.041680,-0.237154,-1.490139,-0.949703,1.905042,-1.859372,-9.353707,-2.847380,0.582928,27.131773,-35.167538,-0.117517,0.186320,0.000000,-1.101319,0.160460,-0.000000
3.520000,1.757348,-0.520487,-1.551433,1.655701,1.031715,-0.218246,-1.508702,-1.041878,1.874807,-1.849240,-9.071409,-3.189292,1.375562,29.049018,-33.099822,-0.128279,0.187885,0.000000,-1.050048,0.149921,0.000000
3.530000,1.773830,-0.510222,-1.553522,1.640522,1.020842,-0.199658,-1.527123,-1.131131,1.841256,-1.831861,-8.772726,-3.509376,2.080847,30.581328,-30.881360,-0.138516,0.189344,0.000000,-0.996702,0.138986,0.000000
3.540000,1.790159,-0.500070,-1.555426,1.625159,1.009092,-0.181421,-1.545339,-1.217332,1.804619,-1.807623,-8.459783,-3.806920,2.814472,32.126300,-28.662680,-0.148213,0.190692,0.000000,-0.941883,0.127773,-0.000000
3.550000,1.806333,-0.490040,-1.557150,1.609615,0.996495,-0.163566,-1.563276,-1.300327,1.765118,-1.775572,-8.130200,-4.082630,3.612815,33.861563,-26.479241,-0.157354,0.191927,0.000000,-0.885606,0.116199,-0.000000
3.560000,1.822351,-0.480140,-1.558698,1.593893,0.983085,-0.146119,-1.580851,-1.379936,1.722966,-1.735367,-7.782552,-4.336504,4.387921,35.495406,-24.249264,-0.165926,0.193045,0.000000,-0.827991,0.104272,0.000000
3.570000,1.838211,-0.470378,-1.560073,1.577998,0.968897,-0.129106,-1.597983,-1.455978,1.678387,-1.687813,-7.420292,-4.567615,5.049998,36.558062,-21.918435,-0.173916,0.194042,0.000000,-0.769721,0.092153,0.000000
3.580000,1.853911,-0.460762,-1.561280,1.561934,0.953966,-0.112551,-1.614607,-1.528342,1.631614,-1.634367,-7.051390,-4.774873,5.618842,37.119529,-19.536615,-0.181323,0.194917,0.000000,-0.711955,0.080069,-0.000000
3.590000,1.869450,-0.451299,-1.562324,1.545706,0.938330,-0.096474,-1.630671,-1.597006,1.582890,-1.575436,-6.677902,-4.958347,6.203290,37.794985,-17.197357,-0.188158,0.195671,0.000000,-0.655081,0.068091,-0.000000
3.600000,1.884825,-0.441996,-1.563209,1.529320,0.922026,-0.080893,-1.646116,-1.661900,1.532447,-1.510301,-6.295491,-5.118820,6.830853,38.698805,-14.862517,-0.194428,0.196304,0.000000,-0.598714,0.056139,0.000000
3.610000,1.900036,-0.432859,-1.563942,1.512783,0.905092,-0.065825,-1.660877,-1.722916,1.480514,-1.438819,-5.903926,-5.255598,7.422320,39.411170,-12.495342,-0.200136,0.196816,0.000000,-0.542955,0.044231,0.000000
3.620000,1.915081,-0.423894,-1.564526,1.496103,0.887567,-0.051283,-1.674892,-1.779978,1.427335,-1.361855,-5.507267,-5.368727,7.900717,39.698510,-10.261096,-0.205291,0.197207,0.000000,-0.488337,0.032474,0.000000
3.630000,1.929958,-0.415107,-1.564967,1.479286,0.869492,-0.037278,-1.688114,-1.833061,1.373139,-1.280805,-5.109955,-5.460820,8.283734,39.696420,-8.209325,-0.209907,0.197480,0.000000,-0.435330,0.020973,0.000000
3.640000,1.944667,-0.406504,-1.565271,1.462340,0.850906,-0.023820,-1.700508,-1.882178,1.318119,-1.196180,-4.713339,-5.532914,8.666702,39.695610,-6.132718,-0.214002,0.197637,0.000000,-0.384059,0.009759,0.000000
3.650000,1.959205,-0.398089,-1.565444,1.445275,0.831849,-0.010916,-1.712037,-1.927328,1.262481,-1.107471,-4.316043,-5.583474,9.085885,39.748908,-3.912535,-0.217592,0.197681,0.000000,-0.334397,-0.001195,0.000000
3.660000,1.973572,-0.389867,-1.565490,1.428100,0.812360,0.001429,-1.722658,-1.968498,1.206449,-1.014462,-3.918361,-5.611164,9.472618,39.668525,-1.717064,-0.220694,0.197613,0.000000,-0.286387,-0.011890,-0.000000
3.670000,1.987767,-0.381842,-1.565415,1.410822,0.792479,0.013213,-1.732327,-2.005695,1.150257,-0.918019,-3.522673,-5.617815,9.727508,39.324539,0.123360,-0.223324,0.197438,0.000000,-0.240199,-0.022282,0.000000
3.680000,2.001789,-0.374017,-1.565226,1.393453,0.772246,0.024434,-1.741018,-2.038952,1.094093,-0.819912,-3.131870,-5.608697,9.867140,38.785740,1.632211,-0.225501,0.197157,0.000000,-0.195953,-0.032308,0.000000
3.690000,2.015636,-0.366397,-1.564926,1.376002,0.751700,0.035095,-1.748725,-2.068332,1.038084,-0.720676,-2.746958,-5.585171,10.021337,38.227447,3.232104,-0.227246,0.196775,0.000000,-0.153647,-0.041956,-0.000000
3.700000,2.029309,-0.358983,-1.564524,1.358479,0.730879,0.045196,-1.755431,-2.093891,0.982390,-0.619485,-2.367321,-5.544055,10.219108,37.659195,5.032626,-0.228577,0.196296,0.000000,-0.113221,-0.051263,0.000000
3.710000,2.042806,-0.351779,-1.564023,1.340893,0.709822,0.054743,-1.761114,-2.115679,0.927202,-0.516294,-1.993774,-5.484519,10.371693,36.976403,6.731344,-0.229513,0.195723,0.000000,-0.074705,-0.060236,0.000000
3.720000,2.056127,-0.344787,-1.563429,1.323256,0.688566,0.063740,-1.765757,-2.133767,0.872699,-0.412052,-1.627793,-5.409428,10.415016,36.189527,8.060002,-0.230073,0.195060,0.000000,-0.038098,-0.068854,0.000000
3.730000,2.069271,-0.338008,-1.562748,1.305578,0.667147,0.072197,-1.769355,-2.148235,0.819014,-0.307993,-1.269983,-5.323318,10.377408,35.348927,9.100481,-0.230277,0.194309,0.000000,-0.003264,-0.077102,0.000000
3.740000,2.082238,-0.331444,-1.561985,1.287869,0.645601,0.080120,-1.771917,-2.159166,0.766233,-0.204503,-0.920814,-5.227419,10.340941,34.446481,10.187484,-0.230141,0.193476,0.000000,0.029860,-0.084984,0.000000
3.750000,2.095028,-0.325096,-1.561145,1.270140,0.623963,0.087521,-1.773446,-2.166651,0.714466,-0.101174,-0.581054,-5.119569,10.318712,33.454740,11.397391,-0.229682,0.192564,0.000000,0.061222,-0.092517,-0.000000
3.760000,2.107641,-0.318965,-1.560234,1.252400,0.602268,0.094410,-1.773941,-2.170787,0.663841,0.001871,-0.251720,-4.999471,10.257474,32.395274,12.498433,-0.228918,0.191576,0.000000,0.090790,-0.099702,-0.000000
3.770000,2.120076,-0.313051,-1.559257,1.234661,0.580548,0.100798,-1.773408,-2.171685,0.614476,0.103975,0.066852,-4.869600,10.129678,31.357235,13.295505,-0.227867,0.190517,0.000000,0.118668,-0.106541,0.000000
3.780000,2.132334,-0.307354,-1.558218,1.216932,0.558834,0.106699,-1.771861,-2.169450,0.566449,0.204464,0.375425,-4.733561,9.954733,30.350445,13.856653,-0.226545,0.189389,0.000000,0.145092,-0.113054,-0.000000
3.790000,2.144415,-0.301874,-1.557123,1.199224,0.537158,0.112127,-1.769319,-2.164177,0.519805,0.303070,0.673861,-4.592467,9.769338,29.268673,14.430373,-0.224966,0.188196,0.000000,0.170136,-0.119249,-0.000000
3.800000,2.156319,-0.296611,-1.555976,1.181546,0.515551,0.117095,-1.765800,-2.155973,0.474600,0.399851,0.960799,-4.444953,9.576967,28.072046,15.067875,-0.223143,0.186942,0.000000,0.193692,-0.125122,0.000000
3.810000,2.168046,-0.291563,-1.554781,1.163908,0.494039,0.121619,-1.761322,-2.144961,0.430906,0.494609,1.235301,-4.291110,9.356298,26.846055,15.602541,-0.221093,0.185630,0.000000,0.215729,-0.130670,-0.000000
3.820000,2.179597,-0.286730,-1.553544,1.146319,0.472651,0.125713,-1.755908,-2.131267,0.388778,0.586977,1.497720,-4.132902,9.104506,25.707643,15.914442,-0.218829,0.184264,0.000000,0.236378,-0.135907,0.000000
3.830000,2.190972,-0.282110,-1.552267,1.128790,0.451414,0.129395,-1.749582,-2.115006,0.348248,0.676699,1.749454,-3.972821,8.831742,24.643147,16.057926,-0.216365,0.182846,0.000000,0.255883,-0.140866,0.000000
3.840000,2.202173,-0.277702,-1.550956,1.111328,0.430351,0.132678,-1.742374,-2.096278,0.309322,0.763612,1.990583,-3.811744,8.544210,23.510689,16.189483,-0.213711,0.181379,0.000000,0.274307,-0.145556,-0.000000
3.850000,2.213199,-0.273503,-1.549613,1.093942,0.409488,0.135581,-1.734310,-2.075195,0.272013,0.847583,2.219668,-3.649031,8.240777,22.271464,16.337634,-0.210879,0.179867,0.000000,0.291532,-0.149961,0.000000
3.860000,2.224051,-0.269512,-1.548244,1.076642,0.388847,0.138119,-1.725422,-2.051885,0.236341,0.928427,2.436012,-3.484991,7.920996,21.031310,16.402625,-0.207881,0.178312,0.000000,0.307528,-0.154078,0.000000
3.870000,2.234732,-0.265726,-1.546851,1.059434,0.368450,0.140308,-1.715742,-2.026475,0.202313,1.006003,2.640294,-3.320979,7.593445,19.899003,16.326466,-0.204728,0.176717,0.000000,0.322421,-0.157924,0.000000
3.880000,2.245240,-0.262143,-1.545438,1.042327,0.348318,0.142165,-1.705302,-1.999079,0.169921,1.080296,2.833992,-3.158462,7.262093,18.850096,16.148049,-0.201432,0.175086,0.000000,0.336407,-0.161529,-0.000000
3.890000,2.255578,-0.258760,-1.544008,1.025328,0.328469,0.143706,-1.694136,-1.969795,0.139144,1.151245,3.017296,-2.998018,6.919266,17.752150,15.947498,-0.198000,0.173420,0.000000,0.349534,-0.164902,-0.000000
3.900000,2.265747,-0.255573,-1.542564,1.008444,0.308922,0.144948,-1.682277,-1.938733,0.109961,1.218682,3.189035,-2.839512,6.558651,16.575061,15.725829,-0.194441,0.171722,0.000000,0.361701,-0.168027,0.000000
3.910000,2.275747,-0.252581,-1.541109,0.991682,0.289694,0.145906,-1.669762,-1.906014,0.082354,1.282418,3.348797,-2.683501,6.189189,15.414476,15.438294,-0.190765,0.169995,0.000000,0.372891,-0.170899,0.000000
3.920000,2.285580,-0.249780,-1.539646,0.975049,0.270802,0.146595,-1.656629,-1.871757,0.056291,1.342465,3.497324,-2.530746,5.833974,14.352963,15.102688,-0.186983,0.168240,0.000000,0.383199,-0.173532,0.000000
3.930000,2.295248,-0.247165,-1.538177,0.958550,0.252259,0.147031,-1.642913,-1.836068,0.031739,1.399098,3.635857,-2.381447,5.494273,13.365324,14.743859,-0.183101,0.166462,0.000000,0.392754,-0.175959,0.000000
3.940000,2.304751,-0.244734,-1.536705,0.942190,0.234080,0.147230,-1.628647,-1.799040,0.008662,1.452351,3.764631,-2.235869,5.142788,12.351100,14.343502,-0.179127,0.164661,0.000000,0.401589,-0.178187,-0.000000
3.950000,2.314092,-0.242484,-1.535232,0.925977,0.216278,0.147205,-1.613866,-1.760775,-0.012979,1.501953,3.882879,-2.094577,4.769674,11.291163,13.884933,-0.175069,0.162840,0.000000,0.409638,-0.180198,0.000000
3.960000,2.323271,-0.240409,-1.533761,0.909913,0.198865,0.146970,-1.598608,-1.721382,-0.033230,1.547744,3.990454,-1.958170,4.396737,10.256504,13.390497,-0.170934,0.161001,0.000000,0.416898,-0.181986,0.000000
3.970000,2.332290,-0.238506,-1.532293,0.894005,0.181851,0.146540,-1.582911,-1.680966,-0.052142,1.589888,4.088009,-1.826767,4.053205,9.298874,12.914783,-0.166730,0.159146,0.000000,0.423429,-0.183565,0.000000
3.980000,2.341151,-0.236772,-1.530830,0.878255,0.165245,0.145927,-1.566810,-1.639622,-0.069765,1.628809,4.176432,-1.699875,3.735443,8.397968,12.460488,-0.162465,0.157278,0.000000,0.429304,-0.184967,0.000000
3.990000,2.349855,-0.235201,-1.529374,0.862668,0.149058,0.145145,-1.550335,-1.597437,-0.086140,1.664597,4.255968,-1.577558,3.408032,7.491223,11.963862,-0.158143,0.155397,0.000000,0.434541,-0.186200,-0.000000
4.000000,2.358404,-0.233791,-1.527927,0.847248,0.133297,0.144204,-1.533518,-1.554503,-0.101316,1.696969,4.326256,-1.460597,3.061772,6.568995,11.403775,-0.153773,0.153507,0.000000,0.439112,-0.187245,-0.000000
4.010000,2.366800,-0.232535,-1.526490,0.831998,0.117968,0.143118,-1.516395,-1.510912,-0.115352,1.725832,4.387348,-1.349482,2.723037,5.674686,10.831656,-0.149361,0.151608,0.000000,0.443019,-0.188096,0.000000
4.020000,2.375044,-0.231431,-1.525065,0.816920,0.103079,0.141897,-1.499001,-1.466756,-0.128306,1.751430,4.439750,-1.243964,2.417644,4.834508,10.311733,-0.144912,0.149702,0.000000,0.446297,-0.188770,0.000000
4.030000,2.383138,-0.230474,-1.523652,0.802018,0.088633,0.140552,-1.481367,-1.422117,-0.140231,1.774185,4.484038,-1.143247,2.139567,4.035368,9.836131,-0.140434,0.147792,0.000000,0.448980,-0.189292,0.000000
4.040000,2.391085,-0.229659,-1.522254,0.787293,0.074636,0.139093,-1.463517,-1.377075,-0.151171,1.794221,4.520457,-1.047242,1.857569,3.245938,9.328472,-0.135932,0.145879,0.000000,0.451082,-0.189670,0.000000
4.050000,2.398884,-0.228981,-1.520870,0.772748,0.061092,0.137529,-1.445482,-1.331708,-0.161176,1.811337,4.548957,-0.956678,1.563477,2.461834,8.764765,-0.131412,0.143963,0.000000,0.452596,-0.189889,0.000000
4.060000,2.406540,-0.228437,-1.519503,0.758383,0.048002,0.135869,-1.427291,-1.286096,-0.170304,1.825491,4.569694,-0.871946,1.280001,1.704431,8.203217,-0.126880,0.142048,0.000000,0.453531,-0.189948,0.000000
4.070000,2.414052,-0.228021,-1.518153,0.744202,0.035370,0.134123,-1.408972,-1.240314,-0.178615,1.836937,4.583046,-0.792614,1.030160,0.986120,7.714275,-0.122342,0.140133,0.000000,0.453906,-0.189860,-0.000000
4.080000,2.421424,-0.227729,-1.516821,0.730204,0.023196,0.132297,-1.390552,-1.194435,-0.186156,1.846094,4.589416,-0.717661,0.808653,0.299966,7.286408,-0.117802,0.138222,0.000000,0.453737,-0.189648,-0.000000
4.090000,2.428656,-0.227557,-1.515507,0.716391,0.011481,0.130400,-1.372050,-1.148526,-0.192968,1.853110,4.589045,-0.646885,0.586817,-0.368994,6.832958,-0.113267,0.136314,0.000000,0.453034,-0.189321,0.000000
4.100000,2.435751,-0.227500,-1.514213,0.702763,0.000225,0.128438,-1.353490,-1.102654,-0.199094,1.857830,4.582036,-0.581002,0.355985,-1.020860,6.330118,-0.108741,0.134411,0.000000,0.451806,-0.188867,0.000000
4.110000,2.442711,-0.227553,-1.512938,0.689321,-0.010572,0.126418,-1.334894,-1.056885,-0.204588,1.860229,4.568628,-0.520283,0.136601,-1.645822,5.841130,-0.104230,0.132514,0.000000,0.450068,-0.188286,0.000000
4.120000,2.449538,-0.227711,-1.511684,0.676065,-0.020912,0.124346,-1.316285,-1.011281,-0.209500,1.860562,4.549120,-0.464179,-0.048155,-2.244069,5.430833,-0.099739,0.130624,0.000000,0.447832,-0.187590,0.000000
4.130000,2.456233,-0.227971,-1.510451,0.662995,-0.030798,0.122228,-1.297683,-0.965903,-0.213871,1.859266,4.523746,-0.411666,-0.203717,-2.818917,5.083686,-0.095273,0.128743,0.000000,0.445101,-0.186804,0.000000
4.140000,2.462798,-0.228327,-1.509240,0.650111,-0.040231,0.120068,-1.279100,-0.920806,-0.217733,1.856488,4.492742,-0.362505,-0.359905,-3.369420,4.718926,-0.090837,0.126871,0.000000,0.441888,-0.185939,0.000000
4.150000,2.469235,-0.228776,-1.508050,0.637413,-0.049214,0.117873,-1.260553,-0.876048,-0.221122,1.852068,4.456358,-0.317288,-0.522739,-3.896568,4.317363,-0.086436,0.125009,0.000000,0.438215,-0.184982,-0.000000
4.160000,2.475546,-0.229311,-1.506882,0.624900,-0.057751,0.115646,-1.242059,-0.831679,-0.224079,1.846033,4.414810,-0.276158,-0.671854,-4.401149,3.936053,-0.082073,0.123158,0.000000,0.434097,-0.183934,0.000000
4.170000,2.481733,-0.229931,-1.505737,0.612572,-0.065847,0.113392,-1.223632,-0.787752,-0.226645,1.838631,4.368335,-0.238567,-0.793602,-4.878995,3.624687,-0.077754,0.121318,0.000000,0.429542,-0.182810,-0.000000
4.180000,2.487797,-0.230628,-1.504615,0.600428,-0.073507,0.111113,-1.205286,-0.744313,-0.228850,1.830161,4.317230,-0.203664,-0.894267,-5.329628,3.367263,-0.073482,0.119490,0.000000,0.424569,-0.181627,0.000000
4.190000,2.493741,-0.231401,-1.503515,0.588466,-0.080734,0.108814,-1.187029,-0.701407,-0.230718,1.820746,4.261742,-0.171222,-0.991204,-5.759144,3.101529,-0.069262,0.117675,0.000000,0.419193,-0.180391,0.000000
4.200000,2.499567,-0.232243,-1.502438,0.576687,-0.087535,0.106499,-1.168871,-0.659078,-0.232275,1.810337,4.202047,-0.141634,-1.088481,-6.169505,2.814879,-0.065098,0.115874,0.000000,0.413430,-0.179101,0.000000
4.210000,2.505275,-0.233151,-1.501385,0.565089,-0.093915,0.104169,-1.150822,-0.617366,-0.233551,1.798976,4.138352,-0.114924,-1.174680,-6.556687,2.549932,-0.060994,0.114086,0.000000,0.407296,-0.177759,-0.000000
4.220000,2.510868,-0.234121,-1.500355,0.553671,-0.099882,0.101828,-1.132891,-0.576311,-0.234573,1.786844,4.070914,-0.090635,-1.240021,-6.916962,2.337866,-0.056952,0.112312,0.000000,0.400807,-0.176375,0.000000
4.230000,2.516349,-0.235149,-1.499348,0.542431,-0.105442,0.099478,-1.115085,-0.535948,-0.235363,1.774176,4.000013,-0.068167,-1.288151,-7.251714,2.165777,-0.052977,0.110552,0.000000,0.393985,-0.174965,0.000000
4.240000,2.521717,-0.236230,-1.498365,0.531369,-0.110601,0.097121,-1.097408,-0.496310,-0.235936,1.761080,3.925879,-0.047319,-1.332341,-7.566113,1.994061,-0.049073,0.108808,0.000000,0.386848,-0.173535,0.000000
4.250000,2.526976,-0.237361,-1.497406,0.520483,-0.115368,0.094759,-1.079864,-0.457430,-0.236310,1.747529,3.848691,-0.028285,-1.376530,-7.861360,1.813859,-0.045240,0.107077,0.000000,0.379412,-0.172083,0.000000
4.260000,2.532127,-0.238538,-1.496470,0.509772,-0.119750,0.092394,-1.062457,-0.419337,-0.236502,1.733550,3.768652,-0.011042,-1.412290,-8.134266,1.651445,-0.041484,0.105362,0.000000,0.371696,-0.170612,-0.000000
4.270000,2.537171,-0.239756,-1.495558,0.499234,-0.123754,0.090029,-1.045193,-0.382057,-0.236531,1.719283,3.686005,0.004743,-1.431120,-8.382621,1.528115,-0.037807,0.103662,0.000000,0.363720,-0.169130,0.000000
4.280000,2.542111,-0.241013,-1.494670,0.488868,-0.127391,0.087664,-1.028072,-0.345617,-0.236407,1.704927,3.601000,0.019520,-1.436309,-8.607277,1.435003,-0.034210,0.101977,0.000000,0.355504,-0.167652,-0.000000
4.290000,2.546949,-0.242304,-1.493805,0.478672,-0.130667,0.085301,-1.011094,-0.310037,-0.236140,1.690557,3.513860,0.033443,-1.439883,-8.811611,1.343770,-0.030697,0.100307,0.000000,0.347071,-0.166182,0.000000
4.300000,2.551685,-0.243626,-1.492964,0.468646,-0.133591,0.082941,-0.994261,-0.275339,-0.235738,1.676130,3.424768,0.046395,-1.442858,-8.999419,1.250493,-0.027269,0.098652,0.000000,0.338437,-0.164717,-0.000000
4.310000,2.556322,-0.244976,-1.492146,0.458787,-0.136174,0.080586,-0.977572,-0.241542,-0.235212,1.661700,3.333871,0.058453,-1.438112,-9.168590,1.172962,-0.023928,0.097012,0.000000,0.329618,-0.163262,0.000000
4.320000,2.560861,-0.246349,-1.491352,0.449095,-0.138422,0.078237,-0.961027,-0.208662,-0.234569,1.647368,3.241396,0.069855,-1.426177,-9.309333,1.117158,-0.020676,0.095386,0.000000,0.320633,-0.161824,-0.000000
4.330000,2.565304,-0.247744,-1.490581,0.439567,-0.140347,0.075894,-0.944624,-0.176714,-0.233815,1.633176,3.147685,0.080797,-1.410363,-9.422161,1.075792,-0.017515,0.093774,0.000000,0.311518,-0.160405,0.000000
4.340000,2.569652,-0.249156,-1.489834,0.430202,-0.141957,0.073560,-0.928363,-0.145708,-0.232953,1.619160,3.052953,0.091370,-1.390594,-9.521136,1.040348,-0.014446,0.092177,0.000000,0.302292,-0.159007,0.000000
4.350000,2.573908,-0.250583,-1.489110,0.420999,-0.143261,0.071235,-0.912241,-0.115655,-0.231988,1.605364,2.957262,0.101603,-1.366637,-9.609625,1.011555,-0.011469,0.090594,0.000000,0.292963,-0.157635,-0.000000
4.360000,2.578072,-0.252022,-1.488409,0.411957,-0.144270,0.068921,-0.896256,-0.086563,-0.230921,1.591828,2.860760,0.111602,-1.339637,-9.678597,0.993326,-0.008587,0.089024,0.000000,0.283546,-0.156291,-0.000000
4.370000,2.582147,-0.253469,-1.487732,0.403074,-0.144992,0.066617,-0.880404,-0.058440,-0.229756,1.578572,2.763690,0.121470,-1.311355,-9.722498,0.980870,-0.005799,0.087468,0.000000,0.274064,-0.154977,-0.000000
4.380000,2.586133,-0.254921,-1.487077,0.394349,-0.145438,0.064325,-0.864684,-0.031289,-0.228492,1.565600,2.666310,0.131219,-1.282419,-9.744681,0.971040,-0.003105,0.085925,0.000000,0.264544,-0.153693,0.000000
4.390000,2.590034,-0.256377,-1.486445,0.385781,-0.145618,0.062047,-0.849092,-0.005113,-0.227131,1.552923,2.568797,0.140891,-1.251766,-9.753011,0.968829,-0.000508,0.084394,0.000000,0.255005,-0.152439,0.000000
4.400000,2.593849,-0.257834,-1.485836,0.377367,-0.145541,0.059783,-0.833626,0.020087,-0.225674,1.540565,2.471250,0.150596,-1.218328,-9.749476,0.977164,0.001995,0.082876,0.000000,0.245455,-0.151219,0.000000
4.410000,2.597581,-0.259288,-1.485249,0.369108,-0.145216,0.057534,-0.818281,0.044312,-0.224119,1.528557,2.373807,0.160434,-1.183881,-9.729572,0.990880,0.004401,0.081370,0.000000,0.235910,-0.150033,0.000000
4.420000,2.601231,-0.260738,-1.484685,0.361002,-0.144654,0.055300,-0.803055,0.067563,-0.222465,1.516888,2.276658,0.170413,-1.153437,-9.689762,1.000029,0.006713,0.079875,0.000000,0.226389,-0.148881,0.000000
4.430000,2.604801,-0.262181,-1.484143,0.353047,-0.143865,0.053084,-0.787943,0.089845,-0.220711,1.505488,2.180012,0.180435,-1.127629,-9.632023,1.004427,0.008929,0.078392,0.000000,0.216913,-0.147757,-0.000000
4.440000,2.608292,-0.263615,-1.483624,0.345243,-0.142858,0.050886,-0.772945,0.111163,-0.218857,1.494335,2.084018,0.190502,-1.100842,-9.562059,1.015563,0.011051,0.076920,0.000000,0.207497,-0.146659,0.000000
4.450000,2.611706,-0.265038,-1.483126,0.337588,-0.141642,0.048707,-0.758057,0.131525,-0.216901,1.483471,1.988771,0.200746,-1.070563,-9.481727,1.037568,0.013079,0.075459,0.000000,0.198151,-0.145591,-0.000000
4.460000,2.615044,-0.266448,-1.482650,0.330082,-0.140227,0.046548,-0.743276,0.150939,-0.214842,1.472924,1.894383,0.211253,-1.041659,-9.388072,1.061117,0.015014,0.074008,0.000000,0.188886,-0.144554,0.000000
4.470000,2.618308,-0.267843,-1.482195,0.322723,-0.138623,0.044410,-0.728598,0.169413,-0.212676,1.462638,1.801009,0.221968,-1.022095,-9.278347,1.073456,0.016857,0.072567,0.000000,0.179719,-0.143544,0.000000
4.480000,2.621498,-0.269221,-1.481761,0.315510,-0.136839,0.042295,-0.714023,0.186959,-0.210402,1.452482,1.708817,0.232722,-1.011367,-9.154238,1.075914,0.018608,0.071137,0.000000,0.170665,-0.142549,-0.000000
4.490000,2.624618,-0.270580,-1.481349,0.308442,-0.134884,0.040202,-0.699549,0.203589,-0.208022,1.442411,1.617924,0.243487,-0.999912,-9.020606,1.083849,0.020270,0.069716,0.000000,0.161736,-0.141565,0.000000
4.500000,2.627667,-0.271918,-1.480957,0.301519,-0.132767,0.038134,-0.685175,0.219317,-0.205533,1.432484,1.528404,0.254399,-0.984987,-8.878359,1.101980,0.021843,0.068305,0.000000,0.152940,-0.140597,0.000000
4.510000,2.630648,-0.273235,-1.480586,0.294739,-0.130497,0.036092,-0.670899,0.234157,-0.202934,1.422711,1.440357,0.265526,-0.973865,-8.725264,1.118693,0.023329,0.066903,0.000000,0.144286,-0.139645,0.000000
4.520000,2.633562,-0.274528,-1.480235,0.288101,-0.128084,0.034076,-0.656720,0.248124,-0.200222,1.413006,1.353899,0.276773,-0.974485,-8.561540,1.120491,0.024729,0.065511,0.000000,0.135787,-0.138703,0.000000
4.530000,2.636410,-0.275797,-1.479905,0.281604,-0.125535,0.032087,-0.642639,0.261235,-0.197398,1.403221,1.269126,0.287936,-0.985332,-8.388948,1.109895,0.026045,0.064128,0.000000,0.127452,-0.137756,0.000000
4.540000,2.639194,-0.277039,-1.479594,0.275248,-0.122859,0.030128,-0.628656,0.273507,-0.194464,1.393300,1.186120,0.298971,-0.996804,-8.208362,1.103481,0.027278,0.062755,0.000000,0.119287,-0.136799,0.000000
4.550000,2.641915,-0.278254,-1.479302,0.269031,-0.120065,0.028198,-0.614773,0.284958,-0.191419,1.383285,1.104959,0.310006,-1.006514,-8.019197,1.104996,0.028430,0.061391,0.000000,0.111301,-0.135835,0.000000
4.560000,2.644575,-0.279440,-1.479030,0.262953,-0.117160,0.026299,-0.600990,0.295606,-0.188263,1.373169,1.025736,0.321071,-1.021519,-7.822039,1.102468,0.029504,0.060037,0.000000,0.103504,-0.134864,0.000000
4.570000,2.647174,-0.280597,-1.478776,0.257011,-0.114153,0.024433,-0.587309,0.305472,-0.184997,1.362855,0.948518,0.332055,-1.048543,-7.620670,1.085865,0.030500,0.058693,0.000000,0.095900,-0.133877,0.000000
4.580000,2.649715,-0.281723,-1.478541,0.251206,-0.111051,0.022599,-0.573733,0.314576,-0.181622,1.352198,0.873323,0.342788,-1.085879,-7.416097,1.058219,0.031422,0.057358,0.000000,0.088493,-0.132859,0.000000
4.590000,2.652198,-0.282818,-1.478324,0.245537,-0.107861,0.020800,-0.560265,0.322939,-0.178142,1.341137,0.800196,0.353219,-1.125352,-7.204485,1.031735,0.032270,0.056034,0.000000,0.081285,-0.131806,0.000000
4.600000,2.654626,-0.283881,-1.478125,0.240001,-0.104592,0.019036,-0.546910,0.330580,-0.174558,1.329691,0.729233,0.363423,-1.164953,-6.984067,1.009780,0.033048,0.054721,0.000000,0.074286,-0.130717,0.000000
4.610000,2.656998,-0.284910,-1.477943,0.234598,-0.101250,0.017309,-0.533672,0.337523,-0.170873,1.317838,0.660515,0.373415,-1.210533,-6.758589,0.983639,0.033756,0.053419,0.000000,0.067504,-0.129591,0.000000
4.620000,2.659318,-0.285906,-1.477779,0.229328,-0.097841,0.015619,-0.520554,0.343791,-0.167090,1.305481,0.594061,0.383096,-1.267715,-6.534456,0.943971,0.034398,0.052128,0.000000,0.060942,-0.128419,0.000000
4.630000,2.661585,-0.286867,-1.477631,0.224187,-0.094374,0.013967,-0.507562,0.349405,-0.163211,1.292484,0.529826,0.392294,-1.335074,-6.311619,0.893012,0.034975,0.050849,0.000000,0.054592,-0.127186,-0.000000
4.640000,2.663801,-0.287793,-1.477500,0.219176,-0.090853,0.012355,-0.494704,0.354387,-0.159244,1.278779,0.467829,0.400956,-1.405578,-6.082765,0.842634,0.035489,0.049582,0.000000,0.048458,-0.125887,0.000000
4.650000,2.665968,-0.288684,-1.477384,0.214293,-0.087286,0.010782,-0.481986,0.358761,-0.155192,1.264372,0.408171,0.409147,-1.477240,-5.845620,0.795707,0.035944,0.048329,0.000000,0.042550,-0.124521,0.000000
4.660000,2.668087,-0.289539,-1.477284,0.209537,-0.083678,0.009251,-0.469416,0.362551,-0.151061,1.249234,0.350917,0.416870,-1.555023,-5.606127,0.744026,0.036340,0.047090,0.000000,0.036874,-0.123085,0.000000
4.670000,2.670159,-0.290357,-1.477199,0.204905,-0.080035,0.007761,-0.457002,0.365780,-0.146855,1.233272,0.296048,0.424028,-1.644121,-5.371533,0.680549,0.036681,0.045866,0.000000,0.031427,-0.121569,0.000000
4.680000,2.672185,-0.291140,-1.477129,0.200397,-0.076362,0.006314,-0.444751,0.368472,-0.142580,1.216352,0.243486,0.430481,-1.743223,-5.141133,0.607897,0.036969,0.044657,0.000000,0.026203,-0.119960,0.000000
4.690000,2.674167,-0.291885,-1.477073,0.196010,-0.072666,0.004910,-0.432675,0.370649,-0.138245,1.198407,0.193226,0.436185,-1.845644,-4.906374,0.535054,0.037205,0.043465,0.000000,0.021199,-0.118252,0.000000
4.700000,2.676106,-0.292593,-1.477030,0.191743,-0.068949,0.003549,-0.420783,0.372336,-0.133857,1.179439,0.145358,0.441182,-1.949635,-4.663377,0.462558,0.037393,0.042291,0.000000,0.016426,-0.116442,0.000000
4.710000,2.678002,-0.293264,-1.477002,0.187594,-0.065219,0.002232,-0.409086,0.373556,-0.129421,1.159415,0.099958,0.445437,-2.059783,-4.418833,0.384533,0.037534,0.041135,0.000000,0.011891,-0.114529,-0.000000
4.720000,2.679857,-0.293897,-1.476986,0.183561,-0.061478,0.000961,-0.397595,0.374335,-0.124948,1.138244,0.056982,0.448873,-2.180265,-4.184292,0.300510,0.037631,0.039998,0.000000,0.007591,-0.112502,0.000000
4.730000,2.681673,-0.294493,-1.476982,0.179642,-0.057732,-0.000267,-0.386321,0.374696,-0.120444,1.115809,0.016272,0.451447,-2.309599,-3.959201,0.212660,0.037686,0.038883,0.000000,0.003508,-0.110348,0.000000
4.740000,2.683450,-0.295052,-1.476991,0.175835,-0.053984,-0.001448,-0.375278,0.374661,-0.115919,1.092052,-0.022202,0.453126,-2.442358,-3.728731,0.121303,0.037701,0.037790,0.000000,-0.000359,-0.108063,0.000000
4.750000,2.685190,-0.295573,-1.477011,0.172137,-0.050239,-0.002585,-0.364480,0.374252,-0.111382,1.066962,-0.058302,0.453873,-2.577708,-3.485141,0.026119,0.037679,0.036720,0.000000,-0.003996,-0.105643,-0.000000
4.760000,2.686893,-0.296057,-1.477043,0.168545,-0.046499,-0.003676,-0.353939,0.373495,-0.106841,1.040497,-0.091905,0.453648,-2.719150,-3.239336,-0.072849,0.037621,0.035676,0.000000,-0.007391,-0.103085,0.000000
4.770000,2.688561,-0.296503,-1.477085,0.165058,-0.042769,-0.004722,-0.343670,0.372414,-0.102309,1.012579,-0.123089,0.452416,-2.868316,-3.012177,-0.175053,0.037531,0.034657,0.000000,-0.010551,-0.100380,-0.000000
4.780000,2.690194,-0.296912,-1.477137,0.161672,-0.039051,-0.005722,-0.333688,0.371033,-0.097793,0.983131,-0.152149,0.450147,-3.023892,-2.802751,-0.279984,0.037410,0.033667,0.000000,-0.013505,-0.097519,-0.000000
4.790000,2.691794,-0.297284,-1.477199,0.158384,-0.035348,-0.006678,-0.324007,0.369371,-0.093306,0.952101,-0.179144,0.446816,-3.183796,-2.582955,-0.388242,0.037261,0.032705,0.000000,-0.016260,-0.094497,-0.000000
4.800000,2.693362,-0.297619,-1.477271,0.155192,-0.031664,-0.007588,-0.314646,0.367450,-0.088857,0.919455,-0.203808,0.442382,-3.348189,-2.335905,-0.502599,0.037085,0.031775,0.000000,-0.018787,-0.091309,-0.000000
4.810000,2.694898,-0.297917,-1.477351,0.152091,-0.027999,-0.008455,-0.305618,0.365295,-0.084458,0.885138,-0.225862,0.436764,-3.518116,-2.081573,-0.622287,0.036885,0.030878,0.000000,-0.021058,-0.087951,-0.000000
4.820000,2.696404,-0.298179,-1.477440,0.149079,-0.024358,-0.009277,-0.296943,0.362933,-0.080121,0.849093,-0.245439,0.429937,-3.692530,-1.863609,-0.739142,0.036664,0.030015,0.000000,-0.023087,-0.084415,0.000000
4.830000,2.697880,-0.298404,-1.477537,0.146152,-0.020741,-0.010057,-0.288636,0.360386,-0.075859,0.811287,-0.263134,0.421981,-3.870893,-1.676208,-0.853052,0.036423,0.029189,0.000000,-0.024931,-0.080697,-0.000000
4.840000,2.699327,-0.298594,-1.477641,0.143307,-0.017150,-0.010795,-0.280717,0.357670,-0.071682,0.771675,-0.278963,0.412876,-4.054636,-1.460154,-0.975057,0.036165,0.028400,0.000000,-0.026593,-0.076792,0.000000
4.850000,2.700746,-0.298747,-1.477753,0.140538,-0.013587,-0.011491,-0.273203,0.354807,-0.067602,0.730194,-0.292338,0.402480,-4.243879,-1.210112,-1.106181,0.035891,0.027652,0.000000,-0.028013,-0.072695,0.000000
4.860000,2.702137,-0.298866,-1.477871,0.137843,-0.010054,-0.012147,-0.266113,0.351823,-0.063632,0.686797,-0.303166,0.390752,-4.437402,-0.964911,-1.238955,0.035605,0.026945,0.000000,-0.029181,-0.068399,-0.000000
4.870000,2.703503,-0.298949,-1.477996,0.135216,-0.006551,-0.012763,-0.259467,0.348743,-0.059787,0.641446,-0.311636,0.377701,-4.634990,-0.727045,-1.372783,0.035308,0.026283,0.000000,-0.030115,-0.063901,0.000000
4.880000,2.704842,-0.298997,-1.478126,0.132653,-0.003079,-0.013342,-0.253284,0.345591,-0.056078,0.594098,-0.317706,0.363296,-4.836906,-0.481922,-1.510298,0.035002,0.025667,0.000000,-0.030811,-0.059196,-0.000000
4.890000,2.706156,-0.299010,-1.478262,0.130150,0.000361,-0.013885,-0.247585,0.342389,-0.052521,0.544708,-0.321274,0.347495,-5.043098,-0.227766,-1.651710,0.034691,0.025098,0.000000,-0.031257,-0.054279,0.000000
4.900000,2.707445,-0.298989,-1.478404,0.127702,0.003769,-0.014393,-0.242390,0.339165,-0.049128,0.493236,-0.322262,0.330262,-5.253443,0.034454,-1.796714,0.034377,0.024580,0.000000,-0.031446,-0.049146,0.000000
4.910000,2.708710,-0.298935,-1.478550,0.125302,0.007144,-0.014868,-0.237720,0.335944,-0.045915,0.439639,-0.320585,0.311561,-5.467791,0.305529,-1.945324,0.034062,0.024115,0.000000,-0.031368,-0.043793,0.000000
4.920000,2.709951,-0.298846,-1.478701,0.122947,0.010488,-0.015311,-0.233597,0.332753,-0.042897,0.383880,-0.316151,0.291356,-5.686026,0.586358,-2.097584,0.033750,0.023704,0.000000,-0.031014,-0.038217,-0.000000
4.930000,2.711169,-0.298725,-1.478856,0.120630,0.013799,-0.015725,-0.230043,0.329621,-0.040088,0.325919,-0.308858,0.269609,-5.908084,0.877844,-2.253558,0.033442,0.023350,0.000000,-0.030372,-0.032413,-0.000000
4.940000,2.712363,-0.298570,-1.479016,0.118346,0.017080,-0.016113,-0.227079,0.326576,-0.037505,0.265718,-0.298594,0.246284,-6.133850,1.180883,-2.413278,0.033142,0.023055,0.000000,-0.029432,-0.026378,-0.000000
4.950000,2.713536,-0.298383,-1.479179,0.116089,0.020331,-0.016476,-0.224728,0.323649,-0.035163,0.203242,-0.285240,0.221344,-6.363201,1.496375,-2.576762,0.032854,0.022822,0.000000,-0.028181,-0.020109,0.000000
4.960000,2.714685,-0.298164,-1.479345,0.113852,0.023553,-0.016816,-0.223014,0.320871,-0.033078,0.138454,-0.268667,0.194749,-6.596058,1.825222,-2.744084,0.032579,0.022653,0.000000,-0.026605,-0.013604,0.000000
4.970000,2.715813,-0.297912,-1.479515,0.111629,0.026748,-0.017137,-0.221959,0.318276,-0.031268,0.071321,-0.248736,0.166462,132.418345,-192.738282,14.315622,0.032321,0.022550,0.000000,-0.024691,-0.006859,0.000000
4.980000,2.716918,-0.297629,-1.479688,0.109413,0.029919,-0.017441,-0.221588,0.315897,-0.029749,2.786821,-4.123432,0.481062,273.227788,-385.183110,30.477470,0.032085,0.022516,0.000000,-0.416750,-0.281832,-0.000000
4.990000,2.718001,-0.297314,-1.479864,0.107197,0.033066,-0.017732,-0.166223,0.235807,-0.021646,5.535876,-7.952398,0.776011,137.422633,-188.620593,13.036415,0.023976,0.016905,0.000000,-0.806157,-0.561411,-0.000000
5.000000,2.719062,-0.296968,-1.480043,0.106088,0.034635,-0.017874,-0.110870,0.156849,-0.014229,5.535274,-7.895844,0.741790,-0.060265,5.655372,-3.422148,0.015963,0.011285,0.000000,-0.802149,-0.562435,0.000000
