time,x,y,z,vx,vy,vz,ax,ay,az,jx,jy,jz,sx,sy,sz,roll,pitch,yaw,p,q,r
0.000000,-3.312718,0.318309,-1.490126,-0.016449,-0.004341,0.005835,0.290625,-0.165826,0.022426,-1.102430,2.532877,-0.873942,39.198444,-31.927365,17.917615,-0.016933,-0.029685,0.000000,0.260051,0.115169,0.000000
0.010000,-3.312868,0.318258,-1.490066,-0.013591,-0.005878,0.006018,0.281518,-0.142022,0.014524,-0.723164,2.234856,-0.712056,36.663159,-27.753846,14.523889,-0.014492,-0.028732,0.000000,0.229032,0.075845,0.000000
0.020000,-3.312990,0.318192,-1.490005,-0.010806,-0.007190,0.006130,0.276078,-0.120997,0.008078,-0.368995,1.976300,-0.582212,34.179332,-24.030363,11.505922,-0.012339,-0.028158,0.000000,0.202232,0.039284,0.000000
0.030000,-3.313084,0.318114,-1.489944,-0.008058,-0.008306,0.006184,0.274057,-0.102379,0.002785,-0.039396,1.752831,-0.480751,31.749866,-20.732371,8.843752,-0.010435,-0.027937,0.000000,0.179149,0.005382,0.000000
0.040000,-3.313151,0.318027,-1.489882,-0.005314,-0.009245,0.006189,0.275210,-0.085838,-0.001620,0.266193,1.560316,-0.404217,29.377573,-17.835325,6.517402,-0.008745,-0.028042,0.000000,0.159319,-0.025953,0.000000
0.050000,-3.313190,0.317930,-1.489820,-0.002544,-0.010028,0.006154,0.279303,-0.071083,-0.005371,0.548365,1.394870,-0.349351,27.066276,-15.314630,4.506877,-0.007239,-0.028448,0.000000,0.142315,-0.054809,0.000000
0.060000,-3.313202,0.317826,-1.489759,0.000281,-0.010672,0.006083,0.286102,-0.057862,-0.008669,0.807732,1.252851,-0.313094,24.817882,-13.145799,2.792273,-0.005891,-0.029130,0.000000,0.127742,-0.081265,-0.000000
0.070000,-3.313184,0.317717,-1.489699,0.003186,-0.011190,0.005981,0.295383,-0.045959,-0.011686,1.044943,1.130863,-0.292586,22.635735,-11.304261,1.353591,-0.004677,-0.030066,0.000000,0.115239,-0.105399,0.000000
0.080000,-3.313138,0.317603,-1.489639,0.006196,-0.011595,0.005850,0.306929,-0.035189,-0.014565,1.260677,1.025757,-0.285169,20.522824,-9.765465,0.170838,-0.003580,-0.031231,0.000000,0.104473,-0.127287,0.000000
0.090000,-3.313060,0.317485,-1.489582,0.009332,-0.011897,0.005690,0.320528,-0.025397,-0.017425,1.455641,0.934627,-0.288383,18.482144,-8.504860,-0.776017,-0.002583,-0.032604,0.000000,0.095141,-0.147006,0.000000
0.100000,-3.312951,0.317365,-1.489526,0.012613,-0.012105,0.005501,0.335975,-0.016458,-0.020360,1.630566,0.854814,-0.299964,16.516195,-7.497926,-1.506479,-0.001673,-0.034164,0.000000,0.086966,-0.164635,0.000000
0.110000,-3.312807,0.317244,-1.489472,0.016057,-0.012229,0.005282,0.353075,-0.008271,-0.023445,1.786223,0.783904,-0.317857,14.628510,-6.720077,-2.041077,-0.000841,-0.035890,0.000000,0.079699,-0.180255,-0.000000
0.120000,-3.312629,0.317121,-1.489420,0.019679,-0.012273,0.005031,0.371638,-0.000758,-0.026732,1.923406,0.719730,-0.340199,12.821814,-6.146780,-2.399577,-0.000077,-0.037763,0.000000,0.073119,-0.193950,-0.000000
0.130000,-3.312413,0.316998,-1.489371,0.023494,-0.012246,0.004747,0.391484,0.006139,-0.030258,2.042939,0.660369,-0.365329,11.098992,-5.753485,-2.601982,0.000623,-0.039763,0.000000,0.067028,-0.205807,0.000000
0.140000,-3.312158,0.316876,-1.489325,0.027512,-0.012152,0.004425,0.412441,0.012460,-0.034043,2.145674,0.604142,-0.391785,9.462778,-5.515645,-2.668334,0.001265,-0.041873,0.000000,0.061256,-0.215920,0.000000
0.150000,-3.311862,0.316756,-1.489283,0.031746,-0.011998,0.004065,0.434344,0.018228,-0.038094,2.232491,0.549619,-0.418309,7.915626,-5.408712,-2.618709,0.001849,-0.044076,0.000000,0.055658,-0.224382,-0.000000
0.160000,-3.311523,0.316637,-1.489244,0.036202,-0.011790,0.003663,0.457041,0.023454,-0.042406,2.304333,0.495614,-0.443824,6.464151,-5.408142,-2.471760,0.002378,-0.046356,0.000000,0.050117,-0.231297,-0.000000
0.170000,-3.311137,0.316520,-1.489210,0.040889,-0.011531,0.003216,0.480384,0.028139,-0.046964,2.362107,0.441184,-0.467484,5.106755,-5.489379,-2.249189,0.002851,-0.048697,0.000000,0.044537,-0.236764,-0.000000
0.180000,-3.310704,0.316406,-1.489180,0.045811,-0.011229,0.002723,0.504239,0.032274,-0.051747,2.406797,0.385635,-0.488620,3.848009,-5.627882,-1.970297,0.003268,-0.051086,0.000000,0.038851,-0.240889,0.000000
0.190000,-3.310220,0.316296,-1.489156,0.050975,-0.010888,0.002180,0.528480,0.035846,-0.056727,2.439405,0.328517,-0.506768,2.690682,-5.799113,-1.655046,0.003628,-0.053511,0.000000,0.033014,-0.243783,-0.000000
0.200000,-3.309684,0.316189,-1.489137,0.056382,-0.010514,0.001588,0.552991,0.038838,-0.061872,2.460968,0.269626,-0.521666,1.638712,-5.978462,-1.323423,0.003928,-0.055958,0.000000,0.027008,-0.245558,0.000000
0.210000,-3.309092,0.316085,-1.489124,0.062035,-0.010112,0.000942,0.577718,0.041351,-0.067238,2.484523,0.236015,-0.553689,0.930791,-5.607495,-1.399414,0.004179,-0.058423,0.000000,0.023559,-0.247413,0.000000
0.220000,-3.308442,0.315986,-1.489118,0.067936,-0.009689,0.000243,0.602484,0.043176,-0.072649,2.460057,0.112767,-0.515798,-3.713103,-14.316970,5.403185,0.004361,-0.060888,0.000000,0.011097,-0.244833,0.000000
0.230000,-3.307732,0.315892,-1.489119,0.074084,-0.009253,-0.000509,0.626998,0.043839,-0.077723,2.454555,0.048885,-0.520676,2.693120,1.691538,-6.492212,0.004425,-0.063327,0.000000,0.004633,-0.243920,0.000000
0.240000,-3.306960,0.315801,-1.489128,0.080477,-0.008812,-0.001314,0.651667,0.044411,-0.083250,2.471828,0.051140,-0.573394,-1.339905,-6.004277,-0.445922,0.004479,-0.065775,0.000000,0.004826,-0.244967,-0.000000
0.250000,-3.306122,0.315715,-1.489146,0.087117,-0.008367,-0.002175,0.676254,0.044498,-0.088909,2.445963,-0.030662,-0.560260,-1.712294,-5.601726,-0.524473,0.004485,-0.068210,0.000000,-0.003418,-0.242095,0.000000
0.260000,-3.305217,0.315634,-1.489172,0.094001,-0.007924,-0.003092,0.700608,0.043911,-0.094537,2.423660,-0.086661,-0.565149,-2.210863,-5.501130,-0.387792,0.004422,-0.070618,0.000000,-0.009055,-0.239465,0.000000
0.270000,-3.304241,0.315557,-1.489208,0.101128,-0.007490,-0.004065,0.724754,0.042776,-0.100202,2.406790,-0.139777,-0.567426,-1.665067,-5.213014,-0.133082,0.004305,-0.073002,0.000000,-0.014388,-0.237401,0.000000
0.280000,-3.303193,0.315484,-1.489254,0.108496,-0.007070,-0.005096,0.748706,0.041115,-0.105884,2.379801,-0.192832,-0.569183,-3.740345,-5.399447,-0.221362,0.004135,-0.075363,0.000000,-0.019702,-0.234327,0.000000
0.290000,-3.302070,0.315415,-1.489310,0.116101,-0.006670,-0.006183,0.772312,0.038919,-0.111585,2.342485,-0.245871,-0.570572,-3.199282,-5.113729,0.007566,0.003911,-0.077685,0.000000,-0.025001,-0.230227,-0.000000
0.300000,-3.300870,0.315351,-1.489377,0.123941,-0.006294,-0.007328,0.795586,0.036210,-0.117286,2.311573,-0.295875,-0.569605,-3.490989,-4.978915,0.119878,0.003636,-0.079970,0.000000,-0.029983,-0.226794,0.000000
0.310000,-3.299591,0.315289,-1.489457,0.132012,-0.005947,-0.008529,0.818513,0.033002,-0.122975,2.273255,-0.345366,-0.568039,-3.759430,-4.839924,0.226055,0.003311,-0.082218,0.000000,-0.034902,-0.222634,0.000000
0.320000,-3.298229,0.315232,-1.489548,0.140310,-0.005635,-0.009787,0.841076,0.029313,-0.128641,2.240206,-0.391928,-0.564798,-3.237674,-4.547815,0.388577,0.002939,-0.084426,0.000000,-0.039515,-0.219025,0.000000
0.330000,-3.296784,0.315177,-1.489653,0.148832,-0.005362,-0.011102,0.863292,0.025165,-0.134270,2.200359,-0.437903,-0.560971,-4.739574,-4.648539,0.374653,0.002521,-0.086596,0.000000,-0.044060,-0.214753,0.000000
0.340000,-3.295252,0.315124,-1.489770,0.157574,-0.005133,-0.012472,0.885056,0.020556,-0.139859,2.153439,-0.483338,-0.556667,-4.244322,-4.360512,0.517995,0.002058,-0.088718,0.000000,-0.048540,-0.209792,0.000000
0.350000,-3.293632,0.315074,-1.489902,0.166532,-0.004953,-0.013899,0.906387,0.015510,-0.145398,2.112186,-0.525750,-0.550916,-4.398218,-4.197654,0.598979,0.001552,-0.090794,0.000000,-0.052708,-0.205424,0.000000
0.360000,-3.291921,0.315025,-1.490049,0.175701,-0.004825,-0.015380,0.927280,0.010045,-0.150876,2.066172,-0.567049,-0.544642,-4.537303,-4.028358,0.674057,0.001004,-0.092825,0.000000,-0.056756,-0.200600,0.000000
0.370000,-3.290117,0.314977,-1.490210,0.185076,-0.004753,-0.016916,0.947727,0.004177,-0.156287,2.023928,-0.605996,-0.537278,-4.165396,-3.792265,0.779105,0.000417,-0.094808,0.000000,-0.060562,-0.196177,0.000000
0.380000,-3.288218,0.314930,-1.490387,0.194654,-0.004742,-0.018506,0.967743,-0.002071,-0.161620,1.977526,-0.643552,-0.529471,-5.120876,-3.719017,0.780738,-0.000207,-0.096747,0.000000,-0.064222,-0.191360,0.000000
0.390000,-3.286223,0.314882,-1.490580,0.204429,-0.004796,-0.020148,0.987261,-0.008689,-0.166875,1.926742,-0.679712,-0.521305,-4.775055,-3.479941,0.870413,-0.000867,-0.098634,0.000000,-0.067736,-0.186128,-0.000000
0.400000,-3.284129,0.314834,-1.490790,0.214397,-0.004917,-0.021843,1.006295,-0.015656,-0.172043,1.879852,-0.713410,-0.512240,-4.858820,-3.291126,0.922812,-0.001561,-0.100471,0.000000,-0.071000,-0.181307,0.000000
0.410000,-3.281935,0.314783,-1.491017,0.224553,-0.005110,-0.023589,1.024846,-0.022952,-0.177119,1.830011,-0.745415,-0.502805,-4.936441,-3.097065,0.970250,-0.002286,-0.102259,0.000000,-0.074091,-0.176215,0.000000
0.420000,-3.279638,0.314731,-1.491262,0.234893,-0.005377,-0.025385,1.042907,-0.030557,-0.182097,1.782726,-0.775225,-0.492786,-4.686019,-2.875949,1.025894,-0.003042,-0.103997,0.000000,-0.076960,-0.171398,0.000000
0.430000,-3.277236,0.314676,-1.491525,0.245410,-0.005722,-0.027230,1.060490,-0.038451,-0.186973,1.732810,-0.803166,-0.482449,-5.301733,-2.711787,1.040551,-0.003825,-0.105686,0.000000,-0.079639,-0.166341,0.000000
0.440000,-3.274729,0.314616,-1.491807,0.256101,-0.006147,-0.029124,1.077552,-0.046614,-0.191745,1.680078,-0.829209,-0.471851,-5.075710,-2.484354,1.085190,-0.004634,-0.107322,0.000000,-0.082129,-0.161025,-0.000000
0.450000,-3.272114,0.314552,-1.492108,0.266959,-0.006655,-0.031065,1.094103,-0.055027,-0.196409,1.629874,-0.852940,-0.460819,-5.132069,-2.272841,1.113520,-0.005467,-0.108908,0.000000,-0.084387,-0.155981,0.000000
0.460000,-3.269389,0.314483,-1.492428,0.277981,-0.007249,-0.033052,1.110142,-0.063666,-0.200961,1.577701,-0.874605,-0.449535,-5.188103,-2.056620,1.138482,-0.006321,-0.110441,0.000000,-0.086440,-0.150761,-0.000000
0.470000,-3.266553,0.314407,-1.492769,0.289160,-0.007929,-0.035084,1.125665,-0.072511,-0.205399,1.527167,-0.894033,-0.438101,-5.029371,-1.830989,1.151713,-0.007195,-0.111924,0.000000,-0.088270,-0.145721,0.000000
0.480000,-3.263605,0.314324,-1.493130,0.300493,-0.008699,-0.037159,1.140678,-0.081540,-0.209722,1.474791,-0.911269,-0.426431,-5.449269,-1.615519,1.181776,-0.008086,-0.113355,0.000000,-0.089884,-0.140518,-0.000000
0.490000,-3.260543,0.314233,-1.493512,0.311972,-0.009561,-0.039278,1.155153,-0.090729,-0.213927,1.420422,-0.926275,-0.414558,-5.312673,-1.382285,1.188152,-0.008992,-0.114733,0.000000,-0.091280,-0.135137,0.000000
0.500000,-3.257365,0.314133,-1.493916,0.323594,-0.010515,-0.041437,1.169094,-0.100057,-0.218013,1.367584,-0.938924,-0.402644,-5.366346,-1.149722,1.197935,-0.009910,-0.116059,0.000000,-0.092443,-0.129923,0.000000
0.510000,-3.254071,0.314022,-1.494341,0.335352,-0.011562,-0.043638,1.182498,-0.109500,-0.221979,1.313248,-0.949221,-0.390556,-5.422594,-0.912624,1.205518,-0.010840,-0.117331,0.000000,-0.093377,-0.124579,0.000000
0.520000,-3.250658,0.313901,-1.494789,0.347242,-0.012705,-0.045877,1.195363,-0.119034,-0.225825,1.259850,-0.957197,-0.378670,-5.333431,-0.678340,1.184381,-0.011777,-0.118551,0.000000,-0.094084,-0.119340,0.000000
0.530000,-3.247126,0.313768,-1.495259,0.359258,-0.013943,-0.048154,1.207690,-0.128636,-0.229552,1.204975,-0.962702,-0.366601,-5.644257,-0.422015,1.229233,-0.012720,-0.119718,0.000000,-0.094550,-0.113972,0.000000
0.540000,-3.243472,0.313622,-1.495752,0.371394,-0.015278,-0.050467,1.219457,-0.138280,-0.233156,1.148500,-0.965695,-0.354363,-5.574070,-0.179422,1.204463,-0.013667,-0.120830,0.000000,-0.094773,-0.108463,0.000000
0.550000,-3.239697,0.313462,-1.496268,0.383645,-0.016709,-0.052816,1.230664,-0.147941,-0.236640,1.092827,-0.966248,-0.342401,-5.636900,0.072848,1.199998,-0.014615,-0.121888,0.000000,-0.094760,-0.103043,0.000000
0.560000,-3.235799,0.313287,-1.496808,0.396005,-0.018236,-0.055200,1.241308,-0.157596,-0.240004,1.035862,-0.964216,-0.330399,-5.702624,0.329061,1.192409,-0.015562,-0.122891,0.000000,-0.094496,-0.097511,0.000000
0.570000,-3.231777,0.313097,-1.497372,0.408469,-0.019861,-0.057616,1.251383,-0.167218,-0.243249,0.979262,-0.959702,-0.318633,-5.669884,0.579320,1.167811,-0.016504,-0.123839,0.000000,-0.093993,-0.092024,0.000000
0.580000,-3.227629,0.312890,-1.497961,0.421031,-0.021581,-0.060064,1.260889,-0.176781,-0.246377,0.921361,-0.952515,-0.306895,-5.912412,0.858779,1.179469,-0.017441,-0.124731,0.000000,-0.093232,-0.086421,0.000000
0.590000,-3.223356,0.312665,-1.498574,0.433685,-0.023396,-0.062543,1.269805,-0.186259,-0.249387,0.862063,-0.942615,-0.295201,-5.894772,1.116869,1.151529,-0.018368,-0.125567,0.000000,-0.092210,-0.080693,0.000000
0.600000,-3.218955,0.312422,-1.499212,0.446425,-0.025305,-0.065052,1.278132,-0.195625,-0.252282,0.803010,-0.930124,-0.283807,-5.968885,1.386684,1.134380,-0.019284,-0.126345,0.000000,-0.090938,-0.074997,0.000000
0.610000,-3.214427,0.312159,-1.499875,0.459246,-0.027308,-0.067588,1.285861,-0.204852,-0.255064,0.742751,-0.914838,-0.272543,-6.044711,1.660353,1.112890,-0.020186,-0.127067,0.000000,-0.089398,-0.069192,0.000000
0.620000,-3.209770,0.311875,-1.500564,0.472141,-0.029402,-0.070153,1.292987,-0.213913,-0.257734,0.682481,-0.897009,-0.261655,-6.048153,1.916595,1.073240,-0.021071,-0.127730,0.000000,-0.087613,-0.063391,0.000000
0.630000,-3.204984,0.311570,-1.501278,0.485103,-0.031586,-0.072743,1.299506,-0.222782,-0.260297,0.620970,-0.876273,-0.250899,-6.255497,2.231450,1.077831,-0.021937,-0.128334,0.000000,-0.085549,-0.057477,0.000000
0.640000,-3.200068,0.311243,-1.502019,0.498129,-0.033857,-0.075358,1.305402,-0.231429,-0.262753,0.558152,-0.852587,-0.240287,-6.269158,2.495434,1.035138,-0.022781,-0.128879,0.000000,-0.083202,-0.051443,-0.000000
0.650000,-3.195021,0.310893,-1.502785,0.511209,-0.036213,-0.077997,1.310670,-0.239825,-0.265105,0.495246,-0.826264,-0.230123,-6.350376,2.780280,1.005679,-0.023600,-0.129363,0.000000,-0.080602,-0.045403,0.000000
0.660000,-3.189844,0.310519,-1.503579,0.524340,-0.038652,-0.080660,1.315303,-0.247944,-0.267356,0.431185,-0.796947,-0.220232,-6.432531,3.068433,0.973038,-0.024392,-0.129787,0.000000,-0.077713,-0.039255,0.000000
0.670000,-3.184534,0.310119,-1.504399,0.537513,-0.041171,-0.083344,1.319293,-0.255756,-0.269510,0.366865,-0.765025,-0.210663,-6.459862,3.330821,0.939617,-0.025154,-0.130149,0.000000,-0.074575,-0.033084,-0.000000
0.680000,-3.179093,0.309695,-1.505246,0.550724,-0.043766,-0.086050,1.322636,-0.263234,-0.271571,0.301391,-0.730020,-0.201464,-6.635730,3.670961,0.899672,-0.025883,-0.130448,0.000000,-0.071140,-0.026803,-0.000000
0.690000,-3.173520,0.309244,-1.506120,0.563964,-0.046435,-0.088775,1.325317,-0.270346,-0.273541,0.234730,-0.691894,-0.192661,-6.667680,3.939977,0.861307,-0.026576,-0.130685,0.000000,-0.067404,-0.020407,0.000000
0.700000,-3.167814,0.308766,-1.507021,0.577228,-0.049172,-0.091520,1.327330,-0.277063,-0.275425,0.167795,-0.651091,-0.184246,-6.747353,4.235315,0.819888,-0.027230,-0.130857,0.000000,-0.063411,-0.013986,0.000000
0.710000,-3.161975,0.308260,-1.507950,0.590508,-0.051975,-0.094284,1.328669,-0.283357,-0.277228,0.099853,-0.607175,-0.176356,-6.825082,4.532626,0.774202,-0.027843,-0.130964,0.000000,-0.059117,-0.007464,-0.000000
0.720000,-3.156004,0.307726,-1.508907,0.603799,-0.054838,-0.097065,1.329326,-0.289198,-0.278952,0.031445,-0.560577,-0.168618,-6.871318,4.802012,0.757097,-0.028412,-0.131006,0.000000,-0.054565,-0.000899,0.000000
0.730000,-3.149899,0.307163,-1.509891,0.617092,-0.057757,-0.099862,1.329295,-0.294558,-0.280602,-0.037884,-0.510818,-0.161555,-6.994325,5.150329,0.654681,-0.028933,-0.130982,0.000000,-0.049707,0.005761,0.000000
0.740000,-3.143662,0.306571,-1.510904,0.630382,-0.060727,-0.102676,1.328565,-0.299404,-0.282186,-0.108124,-0.457873,-0.155209,-7.037774,5.423728,0.630306,-0.029405,-0.130890,0.000000,-0.044539,0.012516,0.000000
0.750000,-3.137292,0.305949,-1.511945,0.643661,-0.063743,-0.105506,1.327131,-0.303707,-0.283707,-0.178756,-0.402216,-0.149089,-7.103386,5.722746,0.577093,-0.029823,-0.130731,0.000000,-0.039108,0.019309,-0.000000
0.760000,-3.130789,0.305296,-1.513014,0.656923,-0.066799,-0.108350,1.324987,-0.307437,-0.285171,-0.250119,-0.343379,-0.143714,-7.164255,6.022833,0.520641,-0.030186,-0.130504,0.000000,-0.033369,0.026181,0.000000
0.770000,-3.124153,0.304613,-1.514112,0.670159,-0.069890,-0.111209,1.322127,-0.310566,-0.286581,-0.321985,-0.281960,-0.138470,-7.212216,6.281853,0.505616,-0.030490,-0.130207,0.000000,-0.027378,0.033103,0.000000
0.780000,-3.117386,0.303898,-1.515239,0.683363,-0.073009,-0.114082,1.318546,-0.313066,-0.287943,-0.394433,-0.217307,-0.134072,-7.276612,6.649137,0.373113,-0.030732,-0.129841,0.000000,-0.021072,0.040092,0.000000
0.790000,-3.110486,0.303152,-1.516394,0.696527,-0.076149,-0.116968,1.314237,-0.314901,-0.289266,-0.467412,-0.149406,-0.130561,-7.313930,6.909721,0.351373,-0.030910,-0.129405,0.000000,-0.014446,0.047143,0.000000
0.800000,-3.103455,0.302375,-1.517578,0.709645,-0.079304,-0.119867,1.309196,-0.316045,-0.290554,-0.540735,-0.078940,-0.127240,-7.352595,7.204055,0.290708,-0.031020,-0.128898,0.000000,-0.007571,0.054230,0.000000
0.810000,-3.096293,0.301566,-1.518791,0.722709,-0.082467,-0.122779,1.303421,-0.316470,-0.291814,-0.614409,-0.005374,-0.124836,-7.383381,7.495985,0.227029,-0.031060,-0.128319,0.000000,-0.000389,0.061364,0.000000
0.820000,-3.089001,0.300726,-1.520034,0.735711,-0.085631,-0.125703,1.296907,-0.316144,-0.293050,-0.688397,0.070853,-0.122359,-7.410776,7.761186,0.232374,-0.031027,-0.127670,0.000000,0.007052,0.068529,0.000000
0.830000,-3.081579,0.299854,-1.521305,0.748644,-0.088788,-0.128640,1.289652,-0.315042,-0.294265,-0.762553,0.150097,-0.120940,-7.418859,8.087441,0.050534,-0.030918,-0.126948,0.000000,0.014792,0.075726,0.000000
0.840000,-3.074029,0.298950,-1.522606,0.761502,-0.091929,-0.131589,1.281656,-0.313132,-0.295473,-0.836789,0.232339,-0.120621,-7.429008,8.347780,0.049539,-0.030730,-0.126154,0.000000,0.022830,0.082945,0.000000
0.850000,-3.066350,0.298015,-1.523937,0.774275,-0.095048,-0.134549,1.272916,-0.310387,-0.296677,-0.911083,0.317143,-0.120253,-7.426067,8.624760,-0.011773,-0.030461,-0.125288,0.000000,0.031121,0.090172,-0.000000
0.860000,-3.058543,0.297049,-1.525297,0.786957,-0.098134,-0.137522,1.263435,-0.306779,-0.297882,-0.985184,0.404911,-0.120878,-7.412435,8.899193,-0.073064,-0.030107,-0.124350,0.000000,0.039707,0.097395,-0.000000
0.870000,-3.050611,0.296052,-1.526688,0.799541,-0.101180,-0.140507,1.253212,-0.302282,-0.299093,-1.059505,0.494846,-0.121335,-7.428897,9.114582,-0.056972,-0.029666,-0.123339,0.000000,0.048507,0.104640,0.000000
0.880000,-3.042553,0.295026,-1.528108,0.812019,-0.104177,-0.143504,1.242247,-0.296872,-0.300312,-1.133282,0.587764,-0.122828,-7.323945,9.468790,-0.242426,-0.029136,-0.122256,0.000000,0.057606,0.111848,0.000000
0.890000,-3.034371,0.293969,-1.529558,0.824384,-0.107115,-0.146513,1.230548,-0.290517,-0.301553,-1.206377,0.683638,-0.125380,-7.314743,9.676829,-0.227804,-0.028513,-0.121102,0.000000,0.067000,0.119004,0.000000
0.900000,-3.026066,0.292884,-1.531038,0.836628,-0.109984,-0.149535,1.218119,-0.283193,-0.302818,-1.279355,0.781513,-0.127709,-7.257759,9.924825,-0.276195,-0.027795,-0.119875,0.000000,0.076594,0.126150,-0.000000
0.910000,-3.017639,0.291770,-1.532548,0.848744,-0.112775,-0.152570,1.204964,-0.274878,-0.304111,-1.351470,0.882013,-0.130931,-7.187823,10.163927,-0.321984,-0.026980,-0.118578,0.000000,0.086452,0.133224,0.000000
0.920000,-3.009091,0.290628,-1.534089,0.860725,-0.115478,-0.155617,1.191090,-0.265546,-0.305435,-1.423298,0.984672,-0.133713,-7.151913,10.375934,-0.277312,-0.026066,-0.117210,0.000000,0.096524,0.140269,0.000000
0.930000,-3.000425,0.289461,-1.535661,0.872563,-0.118083,-0.158679,1.176502,-0.255176,-0.306789,-1.493966,1.089698,-0.137378,-6.978874,10.627820,-0.455960,-0.025049,-0.115772,0.000000,0.106835,0.147213,0.000000
0.940000,-2.991640,0.288267,-1.537263,0.884252,-0.120578,-0.161753,1.161216,-0.243744,-0.308186,-1.563317,1.197003,-0.141918,-6.913338,10.821941,-0.406280,-0.023928,-0.114265,0.000000,0.117376,0.154042,0.000000
0.950000,-2.982740,0.287049,-1.538896,0.895785,-0.122954,-0.164842,1.145238,-0.231230,-0.309624,-1.631980,1.306181,-0.145853,-6.793680,11.021275,-0.423446,-0.022701,-0.112691,0.000000,0.128103,0.160799,0.000000
0.960000,-2.973725,0.285808,-1.540560,0.907155,-0.125199,-0.167946,1.128581,-0.217614,-0.311105,-1.699110,1.417349,-0.150318,-6.659443,11.208525,-0.432396,-0.021365,-0.111049,0.000000,0.139031,0.167414,0.000000
0.970000,-2.964598,0.284546,-1.542255,0.918355,-0.127302,-0.171065,1.111258,-0.202877,-0.312628,-1.765396,1.530294,-0.154139,-6.567099,11.380020,-0.364398,-0.019920,-0.109342,0.000000,0.150136,0.173941,0.000000
0.980000,-2.955359,0.283263,-1.543981,0.929378,-0.129253,-0.174199,1.093280,-0.187002,-0.314189,-1.829806,1.644943,-0.158294,-6.311627,11.547574,-0.465704,-0.018362,-0.107570,0.000000,0.161412,0.180291,-0.000000
0.990000,-2.946011,0.281961,-1.545739,0.940218,-0.131039,-0.177349,1.074669,-0.169973,-0.315795,-1.892163,1.761164,-0.162712,-6.186348,11.692540,-0.380887,-0.016691,-0.105736,0.000000,0.172847,0.186445,0.000000
1.000000,-2.936555,0.280643,-1.547528,0.950869,-0.132648,-0.180515,1.055440,-0.151775,-0.317440,-1.953246,1.878761,-0.166164,-5.998748,11.826013,-0.341783,-0.014905,-0.103841,0.000000,0.184417,0.192465,0.000000
1.010000,-2.926994,0.279309,-1.549349,0.961325,-0.134070,-0.183697,1.035612,-0.132393,-0.319118,-2.012036,1.997703,-0.169375,-5.794901,11.945696,-0.286916,-0.013002,-0.101887,0.000000,0.196122,0.198259,0.000000
1.020000,-2.917329,0.277962,-1.551202,0.971579,-0.135292,-0.186897,1.015204,-0.111818,-0.320824,-2.069447,2.117492,-0.171749,-5.648346,12.023037,-0.195836,-0.010982,-0.099876,0.000000,0.207910,0.203911,0.000000
1.030000,-2.907563,0.276604,-1.553087,0.981627,-0.136303,-0.190114,0.994232,-0.090040,-0.322550,-2.124184,2.238395,-0.173458,-5.295661,12.155154,-0.143299,-0.008843,-0.097810,0.000000,0.219808,0.209296,0.000000
1.040000,-2.897697,0.275237,-1.555005,0.991462,-0.137089,-0.193348,0.972730,-0.067047,-0.324291,-2.176061,2.360259,-0.174341,-5.114755,12.201015,-0.019535,-0.006585,-0.095691,0.000000,0.231801,0.214394,0.000000
1.050000,-2.887735,0.273863,-1.556954,1.001080,-0.137639,-0.196600,0.950717,-0.042834,-0.326033,-2.226106,2.482471,-0.173873,-4.856298,12.251953,0.105514,-0.004207,-0.093522,0.000000,0.243826,0.219301,0.000000
1.060000,-2.877677,0.272485,-1.558937,1.010475,-0.137942,-0.199869,0.928218,-0.017396,-0.327763,-2.273196,2.605141,-0.172024,-4.584675,12.282497,0.253037,-0.001709,-0.091306,0.000000,0.255897,0.223907,-0.000000
1.070000,-2.867526,0.271105,-1.560952,1.019643,-0.137983,-0.203155,0.905260,0.009270,-0.329469,-2.317987,2.728088,-0.168876,-4.346928,12.299933,0.394418,0.000911,-0.089045,0.000000,0.267994,0.228278,0.000000
1.080000,-2.857284,0.269726,-1.563000,1.028579,-0.137752,-0.206458,0.881869,0.037166,-0.331134,-2.359579,2.850997,-0.163760,-3.968572,12.278306,0.633047,0.003651,-0.086741,0.000000,0.280086,0.232320,0.000000
1.090000,-2.846955,0.268351,-1.565081,1.037279,-0.137236,-0.209777,0.858080,0.066289,-0.332737,-2.397810,2.973654,-0.156425,-3.700148,12.252950,0.823569,0.006512,-0.084399,0.000000,0.292154,0.236017,0.000000
1.100000,-2.836540,0.266982,-1.567195,1.045739,-0.136422,-0.213112,0.833921,0.096638,-0.334256,-2.433328,3.095952,-0.147092,-3.377133,12.199364,1.062497,0.009494,-0.082022,0.000000,0.304188,0.239436,0.000000
1.110000,-2.826041,0.265623,-1.569343,1.053956,-0.135299,-0.216462,0.809425,0.128206,-0.335668,-2.465347,3.217589,-0.134717,-3.041653,12.123193,1.335353,0.012596,-0.079612,0.000000,0.316161,0.242492,-0.000000
1.120000,-2.815461,0.264277,-1.571525,1.061927,-0.133854,-0.219825,0.784624,0.160987,-0.336948,-2.494277,3.338327,-0.121045,-2.725917,12.021347,1.482401,0.015817,-0.077173,0.000000,0.328048,0.245241,0.000000
1.130000,-2.804803,0.262947,-1.573740,1.069648,-0.132075,-0.223201,0.759552,0.194969,-0.338075,-2.519480,3.457956,-0.103323,-2.312251,11.900363,2.069039,0.019156,-0.074708,0.000000,0.339835,0.247601,0.000000
1.140000,-2.794069,0.261637,-1.575989,1.077117,-0.129951,-0.226586,0.734248,0.230141,-0.338999,-2.540818,3.576230,-0.081169,-1.970140,11.748993,2.286623,0.022613,-0.072221,0.000000,0.351502,0.249560,0.000000
1.150000,-2.783262,0.260350,-1.578272,1.084332,-0.127468,-0.229980,0.708747,0.266488,-0.339692,-2.558699,3.692858,-0.056813,-1.588197,11.573388,2.667988,0.026186,-0.069716,0.000000,0.363020,0.251176,0.000000
1.160000,-2.772384,0.259089,-1.580588,1.091291,-0.124617,-0.233379,0.683087,0.303992,-0.340118,-2.572751,3.807599,-0.027530,-1.199083,11.370844,3.084608,0.029873,-0.067197,0.000000,0.374374,0.252396,-0.000000
1.170000,-2.761437,0.257859,-1.582939,1.097993,-0.121385,-0.236781,0.657307,0.342633,-0.340237,-2.582449,3.920190,0.003974,-0.759497,11.142022,3.326470,0.033673,-0.064667,0.000000,0.385538,0.253191,0.000000
1.180000,-2.750424,0.256662,-1.585324,1.104437,-0.117761,-0.240183,0.631450,0.382388,-0.340018,-2.588340,4.030331,0.041314,-0.417585,10.881437,4.149781,0.037583,-0.062132,0.000000,0.396496,0.253594,0.000000
1.190000,-2.739349,0.255505,-1.587743,1.110622,-0.113733,-0.243580,0.605553,0.423230,-0.339389,-2.590348,4.137735,0.084929,0.038646,10.595089,4.471303,0.041602,-0.059593,0.000000,0.407233,0.253600,0.000000
1.200000,-2.728213,0.254389,-1.590196,1.116548,-0.109293,-0.246969,0.579659,0.465132,-0.338310,-2.587709,4.242128,0.131743,0.470050,10.277775,5.002603,0.045727,-0.057057,0.000000,0.417715,0.253156,-0.000000
1.210000,-2.717019,0.253320,-1.592682,1.122216,-0.104427,-0.250345,0.553813,0.508062,-0.336729,-2.580847,4.343263,0.185542,0.910442,9.931286,5.576479,0.049956,-0.054526,0.000000,0.427943,0.252287,0.000000
1.220000,-2.705769,0.252302,-1.595202,1.127625,-0.099128,-0.253702,0.528057,0.551984,-0.334595,-2.569441,4.440530,0.241663,1.368804,9.529338,5.832096,0.054285,-0.052006,0.000000,0.437845,0.250990,0.000000
1.230000,-2.694467,0.251339,-1.597756,1.132777,-0.093385,-0.257035,0.502439,0.596860,-0.331867,-2.553518,4.534004,0.306048,1.817250,9.160381,7.054984,0.058711,-0.049501,0.000000,0.447465,0.249242,0.000000
1.240000,-2.683115,0.250436,-1.600343,1.137674,-0.087188,-0.260337,0.477002,0.642651,-0.328443,-2.532988,4.623375,0.379215,2.293958,8.695659,7.401379,0.063233,-0.047014,0.000000,0.456795,0.247038,0.000000
1.250000,-2.671715,0.249597,-1.602963,1.142318,-0.080529,-0.263601,0.451795,0.689311,-0.324275,-2.507643,4.707911,0.455698,2.773182,8.218364,8.080534,0.067846,-0.044551,0.000000,0.465739,0.244387,0.000000
1.260000,-2.660269,0.248827,-1.605615,1.146711,-0.073399,-0.266820,0.426865,0.736793,-0.319297,-2.477551,4.787575,0.541313,3.260394,7.705791,8.799607,0.072547,-0.042117,0.000000,0.474347,0.241275,0.000000
1.270000,-2.648781,0.248131,-1.608299,1.150856,-0.065790,-0.269984,0.402262,0.785045,-0.313444,-2.442280,4.861884,0.629495,3.782128,7.152598,9.079547,0.077332,-0.039715,0.000000,0.482536,0.237690,0.000000
1.280000,-2.637253,0.247513,-1.611014,1.154757,-0.057695,-0.273085,0.378036,0.834012,-0.306670,-2.402158,4.930560,0.727997,4.243337,6.576516,10.631582,0.082196,-0.037350,0.000000,0.490352,0.233638,0.000000
1.290000,-2.625687,0.246978,-1.613760,1.158418,-0.049108,-0.276114,0.354235,0.883636,-0.298846,-2.357116,4.993237,0.837343,4.779875,5.950078,10.998658,0.087137,-0.035028,0.000000,0.497786,0.229116,0.000000
1.300000,-2.614085,0.246532,-1.616536,1.161844,-0.040021,-0.279059,0.330912,0.933855,-0.289916,-2.306642,5.049456,0.950079,5.302644,5.289934,11.791336,0.092150,-0.032752,0.000000,0.504746,0.224104,0.000000
1.310000,-2.602451,0.246180,-1.619341,1.165038,-0.030429,-0.281908,0.308118,0.984602,-0.279806,-2.251178,5.098697,1.073528,5.830469,4.586750,12.613030,0.097231,-0.030528,0.000000,0.511264,0.218623,0.000000
1.320000,-2.590785,0.245925,-1.622174,1.168008,-0.020327,-0.284651,0.285909,1.035808,-0.268442,-2.189646,5.141383,1.199728,6.439585,3.909641,12.907096,0.102374,-0.028361,0.000000,0.517324,0.212593,0.000000
1.330000,-2.579091,0.245775,-1.625034,1.170759,-0.009711,-0.287273,0.264342,1.087403,-0.255771,-2.123148,5.176038,1.337541,6.860352,3.013633,14.664845,0.107576,-0.026255,0.000000,0.522884,0.206097,0.000000
1.340000,-2.567371,0.245733,-1.627919,1.173297,0.001422,-0.289761,0.243462,1.139300,-0.241649,-2.051648,5.202209,1.487394,7.479206,2.248058,15.024428,0.112830,-0.024216,0.000000,0.527935,0.199135,0.000000
1.350000,-2.555626,0.245805,-1.630829,1.175631,0.013075,-0.292101,0.223330,1.191421,-0.226017,-1.973852,5.220568,1.640412,8.043010,1.382397,15.859204,0.118133,-0.022249,0.000000,0.532463,0.191599,-0.000000
1.360000,-2.543859,0.245996,-1.633761,1.177767,0.025251,-0.294276,0.204004,1.243677,-0.208801,-1.890510,5.229032,1.804359,8.619005,0.459471,16.695969,0.123477,-0.020359,0.000000,0.536371,0.183544,0.000000
1.370000,-2.532071,0.246312,-1.636713,1.179713,0.037949,-0.296271,0.185539,1.295983,-0.189921,-1.801512,5.231052,1.972154,9.189668,-0.213950,17.086702,0.128859,-0.018552,0.000000,0.539933,0.174970,0.000000
1.380000,-2.520265,0.246757,-1.639685,1.181480,0.051170,-0.298069,0.167993,1.348258,-0.169320,-1.706527,5.221434,2.150786,9.809287,-1.721493,18.643686,0.134273,-0.016833,0.000000,0.542742,0.165825,0.000000
1.390000,-2.508442,0.247337,-1.642674,1.183077,0.064914,-0.299651,0.151429,1.400370,-0.146867,-1.605448,5.199545,2.340388,10.400316,-2.510348,19.044876,0.139711,-0.015207,0.000000,0.544765,0.156093,0.000000
1.400000,-2.496604,0.248057,-1.645678,1.184512,0.079177,-0.301000,0.135904,1.452226,-0.122504,-1.498427,5.169789,2.533540,11.013541,-3.600199,19.807644,0.145167,-0.013682,0.000000,0.546352,0.145793,-0.000000
1.410000,-2.484753,0.248922,-1.648693,1.185798,0.093957,-0.302095,0.121493,1.503729,-0.096160,-1.382454,5.129177,2.736825,11.689990,-4.702790,20.556476,0.150636,-0.012264,0.000000,0.547316,0.134604,0.000000
1.420000,-2.472889,0.249938,-1.651719,1.186946,0.109250,-0.302916,0.108238,1.554758,-0.067767,-1.269134,5.073996,2.941903,11.452938,-6.172118,20.730995,0.156110,-0.010957,0.000000,0.547184,0.123683,0.000000
1.430000,-2.461014,0.251109,-1.654751,1.187967,0.125050,-0.303443,0.096155,1.605178,-0.037285,-1.143345,5.009129,3.157154,13.720422,-6.803097,22.320241,0.161578,-0.009764,0.000000,0.546574,0.111495,0.000000
1.440000,-2.449130,0.252440,-1.657786,1.188874,0.141351,-0.303655,0.085418,1.654909,-0.004588,-1.004384,4.934381,3.382501,13.589522,-8.323958,22.458933,0.167040,-0.008703,0.000000,0.545489,0.097946,0.000000
1.450000,-2.437237,0.253937,-1.660823,1.189680,0.158145,-0.303528,0.076052,1.703811,0.030362,-0.867459,4.843946,3.608535,14.276140,-9.600815,23.018332,0.172484,-0.007776,0.000000,0.543207,0.084552,0.000000
1.460000,-2.425336,0.255605,-1.663856,1.190399,0.175424,-0.303040,0.068083,1.751725,0.067613,-0.725917,4.736149,3.842756,14.841042,-11.035746,23.527632,0.177899,-0.006988,0.000000,0.539689,0.070619,-0.000000
1.470000,-2.413429,0.257447,-1.666882,1.191047,0.193176,-0.302168,0.061619,1.798561,0.107209,-0.563184,4.631651,4.076197,16.918847,-10.773134,23.427508,0.183281,-0.006351,0.000000,0.536834,0.054446,0.000000
1.480000,-2.401516,0.259470,-1.669898,1.191637,0.211392,-0.300888,0.056801,1.844267,0.149164,-0.404054,4.501608,4.316911,14.882673,-15.269644,24.710036,0.188629,-0.005879,0.000000,0.531918,0.038500,-0.000000
1.490000,-2.389597,0.261677,-1.672898,1.192188,0.230057,-0.299176,0.053516,1.888495,0.193573,-0.249619,4.344404,4.564455,16.798563,-15.265339,24.501548,0.193912,-0.005565,0.000000,0.524762,0.022878,-0.000000
1.500000,-2.377672,0.264073,-1.675880,1.192713,0.249156,-0.297008,0.051891,1.931175,0.240438,-0.074814,4.188464,4.809014,17.371547,-16.835453,24.675604,0.199127,-0.005422,0.000000,0.518002,0.004992,-0.000000
1.510000,-2.365742,0.266661,-1.678837,1.193231,0.268675,-0.294359,0.052055,1.972191,0.289752,0.109606,4.012264,5.053704,18.149937,-18.375817,24.680647,0.204265,-0.005468,0.000000,0.509523,-0.014115,0.000000
1.520000,-2.353807,0.269447,-1.681765,1.193760,0.288594,-0.291205,0.053998,2.011371,0.341546,0.275648,3.821179,5.306273,16.380836,-19.875600,25.391264,0.209314,-0.005703,0.000000,0.500008,-0.031602,0.000000
1.530000,-2.341867,0.272434,-1.684659,1.194317,0.308895,-0.287520,0.057655,2.048561,0.395853,0.464980,3.614038,5.552261,21.525894,-21.555774,23.773487,0.214260,-0.006124,0.000000,0.488999,-0.051790,-0.000000
1.540000,-2.329921,0.275626,-1.687514,1.194920,0.329558,-0.283280,0.063392,2.083597,0.452560,0.679381,3.390662,5.789896,20.017040,-23.089203,24.159807,0.219088,-0.006774,0.000000,0.476379,-0.074956,-0.000000
1.550000,-2.317968,0.279027,-1.690323,1.195592,0.350560,-0.278461,0.071162,2.116324,0.511671,0.876616,3.151961,6.031406,20.757451,-24.683564,23.695007,0.223784,-0.007653,0.000000,0.462474,-0.096761,0.000000
1.560000,-2.306009,0.282639,-1.693081,1.196351,0.371876,-0.273038,0.080985,2.146568,0.573152,1.089313,2.893796,6.263494,21.429612,-26.344900,23.082981,0.228330,-0.008767,0.000000,0.446491,-0.120652,0.000000
1.570000,-2.294041,0.286465,-1.695782,1.197218,0.393482,-0.266990,0.092942,2.174194,0.636950,1.301910,2.630638,6.496135,21.422107,-26.871789,23.050652,0.232714,-0.010132,0.000000,0.430090,-0.145069,0.000000
1.580000,-2.282064,0.290509,-1.698419,1.198217,0.415351,-0.260292,0.107060,2.199099,0.703030,1.524728,2.344087,6.716239,23.145509,-30.454238,20.934837,0.236923,-0.011755,0.000000,0.410987,-0.171151,0.000000
1.590000,-2.270076,0.294773,-1.700985,1.199367,0.437454,-0.252922,0.123474,2.220991,0.771223,1.757843,2.033480,6.921868,23.128668,-31.071313,20.541776,0.240923,-0.013660,0.000000,0.388938,-0.198983,0.000000
1.600000,-2.258076,0.299259,-1.703475,1.200694,0.459761,-0.244860,0.142208,2.239761,0.841460,1.990030,1.717722,7.123396,23.639535,-32.665233,19.365229,0.244700,-0.015855,0.000000,0.366080,-0.227442,-0.000000
1.610000,-2.246062,0.303969,-1.705880,1.202219,0.482239,-0.236087,0.163276,2.255263,0.913624,2.223609,1.379530,7.306615,23.971208,-34.263694,17.981753,0.248233,-0.018351,0.000000,0.340126,-0.256809,0.000000
1.620000,-2.234031,0.308904,-1.708194,1.203967,0.504854,-0.226582,0.186764,2.267356,0.987603,2.477577,1.039065,7.489227,25.933764,-34.502640,17.808773,0.251502,-0.021166,0.000000,0.313540,-0.289268,0.000000
1.630000,-2.221981,0.314066,-1.710409,1.205963,0.527574,-0.216329,0.212794,2.275961,1.063322,2.723631,0.675353,7.647449,23.238577,-38.250718,13.788249,0.254491,-0.024324,0.000000,0.283352,-0.321756,0.000000
1.640000,-2.209911,0.319456,-1.712518,1.208231,0.550361,-0.205311,0.241197,2.280780,1.140457,2.959890,0.288068,7.778782,24.888563,-38.505732,13.166548,0.257155,-0.027814,0.000000,0.249256,-0.354054,-0.000000
1.650000,-2.197816,0.325074,-1.714513,1.210795,0.573177,-0.193515,0.272066,2.281731,1.218890,3.213641,-0.100343,7.904223,24.966232,-39.848230,11.184773,0.259475,-0.031658,0.000000,0.214088,-0.389315,0.000000
1.660000,-2.185694,0.330919,-1.716386,1.213681,0.595982,-0.180929,0.305475,2.278730,1.298426,3.468997,-0.501354,7.998493,25.134390,-40.984805,8.954206,0.261426,-0.035874,0.000000,0.175744,-0.425746,0.000000
1.670000,-2.173541,0.336993,-1.718129,1.216913,0.618738,-0.167544,0.341372,2.271615,1.378890,3.707255,-0.925657,8.094874,23.433357,-43.230968,9.028155,0.262977,-0.040468,0.000000,0.133865,-0.461376,0.000000
1.680000,-2.161354,0.343294,-1.719734,1.220516,0.641400,-0.153349,0.379665,2.260214,1.460183,3.956902,-1.352437,8.151919,26.510304,-42.086922,2.318692,0.264095,-0.045439,0.000000,0.089307,-0.499281,0.000000
1.690000,-2.149129,0.349821,-1.721193,1.224515,0.663928,-0.138339,0.420557,2.244570,1.541776,4.218347,-1.779704,8.166517,24.824178,-43.979964,1.862329,0.264754,-0.050820,0.000000,0.042018,-0.539504,-0.000000
1.700000,-2.136863,0.356572,-1.722498,1.228936,0.686277,-0.122513,0.463953,2.224544,1.623524,4.461023,-2.226245,8.177862,24.629340,-44.675527,-0.891827,0.264922,-0.056613,0.000000,-0.009046,-0.578695,-0.000000
1.710000,-2.124549,0.363545,-1.723641,1.233802,0.708404,-0.105869,0.509766,2.200034,1.705184,4.700366,-2.676957,8.148543,24.162435,-45.296811,-3.808970,0.264562,-0.062814,0.000000,-0.063521,-0.618359,0.000000
1.720000,-2.112185,0.370739,-1.724613,1.239139,0.730263,-0.088410,0.558020,2.170999,1.786492,4.952549,-3.130359,8.112209,25.342550,-45.502919,-4.619830,0.263644,-0.069436,0.000000,-0.120372,-0.660618,0.000000
1.730000,-2.099765,0.378150,-1.725406,1.244971,0.751809,-0.070141,0.608754,2.137406,1.867273,5.187672,-3.589532,8.031785,21.634141,-46.310796,-11.514626,0.262141,-0.076493,0.000000,-0.181175,-0.701556,0.000000
1.740000,-2.087284,0.385774,-1.726013,1.251321,0.772995,-0.051068,0.661701,2.099192,1.946964,5.403301,-4.053156,7.904847,22.393090,-46.242570,-12.727582,0.260007,-0.083956,0.000000,-0.245960,-0.740593,0.000000
1.750000,-2.074737,0.393608,-1.726425,1.258212,0.793777,-0.031206,0.716864,2.056351,2.025354,5.627306,-4.515062,7.767197,21.469693,-46.254696,-15.964767,0.257215,-0.091828,0.000000,-0.313012,-0.781324,0.000000
1.760000,-2.062118,0.401648,-1.726634,1.265666,0.814107,-0.010567,0.774173,2.008914,2.102151,5.832274,-4.971371,7.586168,20.386183,-45.974590,-19.282464,0.253738,-0.100104,0.000000,-0.382828,-0.819857,-0.000000
1.770000,-2.049421,0.409889,-1.726634,1.273703,0.833940,0.010831,0.833543,1.956855,2.177045,6.042746,-5.443132,7.390327,20.832097,-47.380462,-20.825732,0.249542,-0.108772,0.000000,-0.457132,-0.859353,0.000000
1.780000,-2.036642,0.418325,-1.726415,1.282344,0.853229,0.032967,0.894946,1.900115,2.249802,6.230545,-5.898068,7.149949,16.681347,-43.545953,-27.279614,0.244592,-0.117828,0.000000,-0.532778,-0.895665,0.000000
1.790000,-2.023772,0.426951,-1.725972,1.291607,0.871928,0.055818,0.958064,1.838968,2.319883,6.393303,-6.332999,6.863700,16.715237,-44.385588,-29.022325,0.238885,-0.127220,0.000000,-0.609139,-0.928027,0.000000
1.800000,-2.010807,0.435761,-1.725297,1.301510,0.889993,0.079355,1.022831,1.773408,2.387040,6.557125,-6.776860,6.561558,15.169132,-43.381712,-32.342923,0.232396,-0.136931,0.000000,-0.688793,-0.959913,0.000000
1.810000,-1.997740,0.444749,-1.724383,1.312069,0.907381,0.103548,1.089115,1.703520,2.450982,6.696592,-7.197986,6.221409,13.481395,-42.107154,-35.571160,0.225112,-0.146931,0.000000,-0.768039,-0.987360,0.000000
1.820000,-1.984564,0.453907,-1.723224,1.323297,0.924050,0.128363,1.156768,1.629389,2.511370,6.833534,-7.630293,5.851329,13.137554,-43.066561,-38.536447,0.217021,-0.157184,0.000000,-0.850675,-1.012952,-0.000000
1.830000,-1.971272,0.463227,-1.721813,1.335209,0.939955,0.153763,1.225690,1.551024,2.567899,6.943213,-8.032313,5.448778,8.758692,-37.267447,-41.961582,0.208108,-0.167656,0.000000,-0.930911,-1.033041,0.000000
1.840000,-1.957857,0.472703,-1.720146,1.347814,0.955057,0.179707,1.295528,1.468865,2.620239,7.023613,-8.400461,5.014531,8.065626,-37.600936,-44.764859,0.198416,-0.178278,0.000000,-1.007599,-1.046941,0.000000
1.850000,-1.944313,0.482326,-1.718218,1.361122,0.969320,0.206152,1.366154,1.382978,2.668101,7.097783,-8.772964,4.552993,5.997287,-35.605671,-47.625243,0.187950,-0.189004,0.000000,-1.085161,-1.057428,-0.000000
1.860000,-1.930632,0.492087,-1.716022,1.375139,0.982705,0.233053,1.437375,1.293532,2.711227,7.142122,-9.111919,4.068538,3.793848,-33.383386,-50.231037,0.176732,-0.199781,0.000000,-1.157755,-1.061170,0.000000
1.870000,-1.916808,0.501977,-1.713555,1.389871,0.995179,0.260360,1.508998,1.200717,2.749307,7.182035,-9.451366,3.539781,3.269907,-33.289865,-54.533227,0.164793,-0.210551,0.000000,-1.229857,-1.060652,0.000000
1.880000,-1.902833,0.511987,-1.710814,1.405320,1.006709,0.288021,1.580896,1.104643,2.781989,7.188259,-9.752223,2.998594,-2.062597,-26.819506,-53.645040,0.152160,-0.221259,0.000000,-1.294656,-1.052589,0.000000
1.890000,-1.888699,0.522108,-1.707794,1.421488,1.017263,0.315982,1.652638,1.005821,2.809255,7.158989,-10.011341,2.448063,-2.881936,-26.181719,-57.398974,0.138929,-0.231822,0.000000,-1.351027,-1.036730,0.000000
1.900000,-1.874400,0.532329,-1.704493,1.438372,1.026816,0.344187,1.724069,0.904412,2.830806,7.122715,-10.265211,1.859501,-5.292049,-23.373640,-59.313755,0.125148,-0.242181,0.000000,-1.403988,-1.015892,0.000000
1.910000,-1.859929,0.542641,-1.700909,1.455968,1.035343,0.372578,1.794995,0.800659,2.846423,7.058642,-10.480204,1.261315,-7.655054,-20.428562,-61.003274,0.110882,-0.252277,0.000000,-1.447786,-0.988171,0.000000
1.920000,-1.845279,0.553032,-1.697041,1.474269,1.042823,0.401095,1.865152,0.694841,2.855922,6.968378,-10.680988,0.633583,-10.273954,-18.912865,-63.811638,0.096210,-0.262043,0.000000,-1.485656,-0.953177,-0.000000
1.930000,-1.830442,0.563493,-1.692887,1.493267,1.049234,0.429676,1.934289,0.587179,2.859081,6.855781,-10.841382,0.000420,-12.241286,-13.126356,-62.760183,0.081204,-0.271411,0.000000,-1.513314,-0.912423,-0.000000
1.940000,-1.815411,0.574013,-1.688448,1.512951,1.054562,0.458256,2.002195,0.478161,2.855929,6.721039,-10.959396,-0.634866,-14.831755,-11.269993,-64.957106,0.065980,-0.280335,0.000000,-1.530315,-0.866342,-0.000000
1.950000,-1.800180,0.584581,-1.683722,1.533306,1.058794,0.486773,2.068621,0.368036,2.846299,6.560277,-11.059717,-1.291941,-17.190946,-7.980976,-65.717269,0.050619,-0.288755,0.000000,-1.540155,-0.813991,0.000000
1.960000,-1.784743,0.595186,-1.678713,1.554318,1.061920,0.515160,2.133325,0.257107,2.830123,6.376651,-11.120281,-1.942994,-19.530074,-4.636161,-66.083605,0.035212,-0.296622,0.000000,-1.539669,-0.757244,-0.000000
1.970000,-1.769092,0.605816,-1.673420,1.575966,1.063934,0.543353,2.196076,0.145701,2.807299,6.169805,-11.157037,-2.627758,-21.832010,-2.214069,-69.241768,0.019850,-0.303890,0.000000,-1.531418,-0.694890,-0.000000
1.980000,-1.753221,0.616461,-1.667846,1.598232,1.064833,0.571283,2.256645,0.034102,2.777643,5.940172,-11.154075,-3.293699,-24.085690,2.823495,-63.852816,0.004617,-0.310514,0.000000,-1.513318,-0.629561,-0.000000
1.990000,-1.737125,0.627109,-1.661995,1.621091,1.064617,0.598884,2.314806,-0.077241,2.741516,5.688286,-11.110614,-3.935973,-26.280969,5.365916,-66.156895,-0.010385,-0.316476,0.000000,-1.485937,-0.562073,-0.000000
2.000000,-1.720798,0.637749,-1.655870,1.644519,1.063290,0.626092,2.370339,-0.188037,2.698815,5.414787,-11.042553,-4.602371,-28.406798,8.741763,-65.484692,-0.025080,-0.321743,0.000000,-1.451904,-0.490994,0.000000
2.010000,-1.704233,0.648371,-1.649475,1.668488,1.060859,0.652839,2.423032,-0.297971,2.649578,5.120549,-10.938902,-5.242212,-30.450705,12.044450,-64.430508,-0.039398,-0.326297,0.000000,-1.410439,-0.419032,0.000000
2.020000,-1.687426,0.658963,-1.642815,1.692970,1.057335,0.679061,2.472681,-0.406700,2.593848,4.805852,-10.801253,-5.908436,-32.449625,15.414063,-66.840919,-0.053266,-0.330120,0.000000,-1.362165,-0.344435,0.000000
2.030000,-1.670372,0.669514,-1.635896,1.717931,1.052730,0.704694,2.519087,-0.513892,2.531547,4.472379,-10.632135,-6.537649,-34.226659,18.395039,-58.900309,-0.066623,-0.333198,0.000000,-1.308412,-0.270515,0.000000
2.040000,-1.653066,0.680014,-1.628723,1.743340,1.047063,0.729673,2.562070,-0.619241,2.463251,4.121216,-10.432395,-7.124713,-36.010126,21.599300,-60.423181,-0.079420,-0.335548,0.000000,-1.250195,-0.197982,0.000000
2.050000,-1.635504,0.690452,-1.621305,1.769161,1.040353,0.753939,2.601453,-0.722433,2.388962,3.752779,-10.201013,-7.728786,-37.632896,24.597194,-58.410182,-0.091611,-0.337166,0.000000,-1.187479,-0.124694,0.000000
2.060000,-1.617682,0.700817,-1.613647,1.795357,1.032622,0.777432,2.637100,-0.823185,2.308810,3.374800,-9.945210,-8.297390,-39.009007,27.388015,-56.200239,-0.103162,-0.338062,0.000000,-1.122252,-0.054027,0.000000
2.070000,-1.599596,0.711101,-1.605759,1.821890,1.023898,0.800096,2.668819,-0.921178,2.223016,2.963223,-9.645913,-8.860615,-42.246360,31.628419,-55.514170,-0.114039,-0.338244,0.000000,-1.052494,0.017900,-0.000000
2.080000,-1.581243,0.721292,-1.597648,1.848719,1.014209,0.821874,2.696374,-1.016055,2.131724,2.552113,-9.330342,-9.388191,-39.919212,31.435049,-49.942174,-0.124211,-0.337716,0.000000,-0.982336,0.085679,0.000000
2.090000,-1.562620,0.731382,-1.589324,1.875804,1.003588,0.842714,2.719881,-1.107746,2.035389,2.144354,-9.001140,-9.877020,-42.654477,35.206420,-48.701239,-0.133688,-0.336533,0.000000,-0.912521,0.148902,0.000000
2.100000,-1.543726,0.741361,-1.580797,1.903102,0.992066,0.862566,2.739149,-1.195937,1.934207,1.708417,-8.633806,-10.353974,-43.464264,37.405889,-45.760564,-0.142452,-0.334708,0.000000,-0.840268,0.212207,0.000000
2.110000,-1.524558,0.751220,-1.572076,1.930572,0.979681,0.881383,2.754067,-1.280396,1.828449,1.274607,-8.255404,-10.792095,-44.095671,39.356278,-42.641083,-0.150499,-0.332262,0.000000,-0.769353,0.271116,0.000000
2.120000,-1.505114,0.760952,-1.563173,1.958169,0.966471,0.899121,2.764555,-1.360892,1.718406,0.819444,-7.837070,-11.213726,-46.111771,43.199752,-40.887882,-0.157830,-0.329224,0.000000,-0.696448,0.329165,0.000000
2.130000,-1.485394,0.770547,-1.554098,1.985848,0.952478,0.915737,2.770480,-1.437132,1.604320,0.369670,-7.414715,-11.593166,-43.791945,41.204598,-34.958680,-0.164438,-0.325612,0.000000,-0.626172,0.382527,0.000000
2.140000,-1.465397,0.779999,-1.544862,2.013564,0.937743,0.931195,2.771982,-1.509193,1.486697,-0.072040,-6.991812,-11.928299,-45.330827,44.431705,-32.837952,-0.170364,-0.321485,0.000000,-0.558968,0.431091,0.000000
2.150000,-1.445123,0.789300,-1.535478,2.041272,0.922309,0.945460,2.768972,-1.576840,1.365809,-0.529573,-6.536022,-12.243010,-45.345427,45.605421,-29.311565,-0.175612,-0.316866,0.000000,-0.491038,0.478428,-0.000000
2.160000,-1.424572,0.798443,-1.525957,2.068928,0.906221,0.958502,2.761430,-1.639932,1.241970,-0.978161,-6.081643,-12.518881,-45.165442,46.498219,-25.785696,-0.180197,-0.311783,0.000000,-0.426378,0.521437,0.000000
2.170000,-1.403745,0.807422,-1.516312,2.096486,0.889526,0.970291,2.749351,-1.698344,1.115555,-1.439907,-5.595143,-12.757961,-46.364171,49.540932,-22.092224,-0.184137,-0.306270,0.000000,-0.361464,0.562711,0.000000
2.180000,-1.382643,0.816232,-1.506555,2.123900,0.872271,0.980805,2.732682,-1.751873,0.986927,-1.888265,-5.117267,-12.962060,-43.258174,45.960526,-18.727741,-0.187441,-0.300350,0.000000,-0.300434,0.599774,0.000000
2.190000,-1.361267,0.824866,-1.496700,2.151125,0.854504,0.990023,2.711645,-1.800740,0.856430,-2.320661,-4.651845,-13.131154,-43.999373,48.325918,-15.024483,-0.190160,-0.294075,0.000000,-0.243487,0.632646,0.000000
2.200000,-1.339621,0.833320,-1.486759,2.178118,0.836272,0.997929,2.686228,-1.844807,0.724429,-2.760971,-4.161961,-13.263177,-43.239974,48.382186,-11.451124,-0.192309,-0.287469,0.000000,-0.186892,0.663897,0.000000
2.210000,-1.317706,0.841590,-1.476746,2.204835,0.817624,1.004508,2.656485,-1.884035,0.591268,-3.185997,-3.684528,-13.363549,-42.331257,48.184658,-7.977975,-0.193912,-0.280561,0.000000,-0.134091,0.691588,0.000000
2.220000,-1.295525,0.849671,-1.466674,2.231234,0.798607,1.009752,2.622493,-1.918417,0.457326,-3.612576,-3.188691,-13.416898,-42.393039,49.867384,-3.333758,-0.194993,-0.273380,0.000000,-0.082228,0.717179,0.000000
2.230000,-1.273082,0.857561,-1.456556,2.257271,0.779272,1.013654,2.584296,-1.947875,0.323014,-4.021472,-2.710557,-13.443718,-39.348569,45.693057,-2.061692,-0.195570,-0.265951,0.000000,-0.034285,0.739589,0.000000
2.240000,-1.250381,0.865256,-1.446405,2.282906,0.759665,1.016211,2.542134,-1.972707,0.188530,-4.410706,-2.253588,-13.445592,-39.055561,46.761139,2.311404,-0.195692,-0.258312,0.000000,0.009664,0.758878,0.000000
2.250000,-1.227426,0.872753,-1.436236,2.308101,0.739833,1.017425,2.496081,-1.992890,0.054260,-4.797333,-1.785226,-13.403218,-37.678421,45.791838,5.510042,-0.195379,-0.250484,0.000000,0.052483,0.776394,0.000000
2.260000,-1.204221,0.880052,-1.426061,2.332815,0.719823,1.017298,2.446254,-2.008489,-0.079472,-5.165397,-1.336800,-13.338786,-36.206274,44.628995,8.516209,-0.194655,-0.242492,0.000000,0.091793,0.791362,0.000000
2.270000,-1.180771,0.887149,-1.415894,2.357014,0.699678,1.015838,2.392800,-2.019606,-0.212323,-5.523802,-0.886176,-13.222620,-35.180946,44.726663,13.573143,-0.193548,-0.234360,0.000000,0.129274,0.804125,0.000000
2.280000,-1.157082,0.894045,-1.405749,2.380660,0.679445,1.013056,2.335845,-2.026294,-0.343882,-5.862875,-0.458372,-13.091333,-32.611824,40.785213,12.627871,-0.192081,-0.226111,0.000000,0.163429,0.814804,0.000000
2.290000,-1.133160,0.900738,-1.395638,2.403720,0.659166,1.008965,2.275613,-2.028864,-0.474117,-6.181442,-0.055962,-12.947769,-31.371783,40.421840,17.196638,-0.190291,-0.217766,0.000000,0.194249,0.823456,0.000000
2.300000,-1.109010,0.907228,-1.385574,2.426162,0.638881,1.003580,2.212252,-2.027411,-0.602662,-6.487697,0.343242,-12.757505,-29.588160,38.650354,19.701323,-0.188201,-0.209345,0.000000,0.223289,0.830284,0.000000
2.310000,-1.084639,0.913516,-1.375570,2.447955,0.618631,0.996918,2.145924,-2.022084,-0.729240,-6.774789,0.718786,-12.554824,-27.771427,36.763307,21.999760,-0.185836,-0.200867,0.000000,0.249430,0.835487,0.000000
2.320000,-1.060053,0.919601,-1.365640,2.469071,0.598452,0.989002,2.076821,-2.013073,-0.853588,-7.042505,1.081115,-12.307066,-25.813126,35.368605,26.372150,-0.183220,-0.192350,0.000000,0.273212,0.838576,-0.000000
2.330000,-1.035260,0.925485,-1.355794,2.489483,0.578381,0.979855,2.005135,-2.000545,-0.975366,-7.291939,1.419189,-12.052130,-24.069122,32.220048,24.553221,-0.180380,-0.183814,0.000000,0.294394,0.840455,0.000000
2.340000,-1.010266,0.931169,-1.346046,2.509166,0.558452,0.969503,1.931044,-1.984778,-1.094626,-7.522802,1.731592,-11.793167,-22.050068,30.564727,28.378663,-0.177341,-0.175268,0.000000,0.313012,0.841185,0.000000
2.350000,-0.985079,0.936655,-1.336408,2.528096,0.538696,0.957972,1.854748,-1.965962,-1.211078,-7.733280,2.027511,-11.494976,-20.091297,28.289611,30.071212,-0.174127,-0.166729,0.000000,0.329440,0.840149,0.000000
2.360000,-0.959707,0.941944,-1.326891,2.546254,0.519142,0.945292,1.776436,-1.944310,-1.324519,-7.925904,2.299193,-11.191288,-18.146332,25.974169,31.576710,-0.170760,-0.158210,0.000000,0.343615,0.838168,-0.000000
2.370000,-0.934157,0.947039,-1.317506,2.563619,0.499818,0.931492,1.696318,-1.920062,-1.434780,-8.093557,2.546236,-10.855347,-15.660500,23.486591,34.677208,-0.167264,-0.149725,0.000000,0.355220,0.834327,0.000000
2.380000,-0.908437,0.951941,-1.308265,2.580175,0.480749,0.916607,1.614617,-1.893462,-1.541626,-8.244926,2.770047,-10.517332,-14.622631,21.271106,32.871988,-0.163662,-0.141289,0.000000,0.364885,0.829849,0.000000
2.390000,-0.882556,0.956655,-1.299177,2.595906,0.461956,0.900671,1.531470,-1.864739,-1.645136,-8.380430,2.970328,-10.180029,-12.200234,18.719664,35.480968,-0.159972,-0.132905,0.000000,0.372680,0.824798,-0.000000
2.400000,-0.856522,0.961181,-1.290255,2.610800,0.443460,0.883717,1.447096,-1.834142,-1.745121,-8.491349,3.144889,-9.815993,-10.264992,16.250923,36.387513,-0.156216,-0.124586,0.000000,0.378133,0.818166,-0.000000
2.410000,-0.830343,0.965525,-1.281506,2.624845,0.425279,0.865781,1.361692,-1.801914,-1.841462,-8.586479,3.296761,-9.451253,-8.375584,13.804265,37.141692,-0.152415,-0.116341,0.000000,0.381894,0.811025,0.000000
2.420000,-0.804028,0.969688,-1.272942,2.638031,0.407426,0.846900,1.275460,-1.768314,-1.934075,-8.655381,3.418049,-9.068069,-5.785780,10.763381,38.886814,-0.148587,-0.108181,0.000000,0.383151,0.802349,-0.000000
2.430000,-0.777585,0.973674,-1.264571,2.650352,0.389916,0.827112,1.188628,-1.733620,-2.022833,-8.710196,3.518552,-8.686255,-5.194425,9.349546,37.436210,-0.144756,-0.100116,0.000000,0.382998,0.793368,0.000000
2.440000,-0.751023,0.977487,-1.256403,2.661802,0.372757,0.806456,1.101297,-1.698008,-2.107816,-8.751775,3.598862,-8.307918,-2.747713,6.404936,38.801952,-0.140931,-0.092146,0.000000,0.381529,0.784146,0.000000
2.450000,-0.724352,0.981131,-1.248445,2.672377,0.355958,0.784969,1.013682,-1.661748,-2.188934,-8.768509,3.649402,-7.915637,-0.984919,4.020111,39.045307,-0.137134,-0.084281,0.000000,0.377803,0.773601,0.000000
2.460000,-0.697579,0.984608,-1.240706,2.682075,0.339523,0.762690,0.925968,-1.625081,-2.266144,-8.771766,3.680258,-7.526201,0.714898,1.706012,39.174297,-0.133379,-0.076528,0.000000,0.372854,0.762798,0.000000
2.470000,-0.670713,0.987922,-1.233194,2.690897,0.323457,0.739659,0.838334,-1.588256,-2.339427,-8.750791,3.679521,-7.129277,3.094523,-1.405526,39.853324,-0.129685,-0.068893,0.000000,0.365633,0.750791,-0.000000
2.480000,-0.643764,0.991078,-1.225915,2.698843,0.307758,0.715915,0.750988,-1.551545,-2.408746,-8.717967,3.661555,-6.736604,3.449835,-2.163948,38.654847,-0.126069,-0.061385,0.000000,0.357438,0.738656,0.000000
2.490000,-0.616739,0.994079,-1.218878,2.705918,0.292425,0.691497,0.664008,-1.515075,-2.474181,-8.674337,3.627574,-6.349597,5.647951,-5.064286,39.075847,-0.122539,-0.054001,0.000000,0.348376,0.726452,0.000000
2.500000,-0.589648,0.996928,-1.212087,2.712125,0.277455,0.666444,0.577583,-1.479099,-2.535717,-8.608430,3.564272,-5.958279,7.144250,-7.141542,38.832454,-0.119109,-0.046750,0.000000,0.337295,0.713198,-0.000000
2.510000,-0.562500,0.999629,-1.205551,2.717472,0.262841,0.640795,0.491872,-1.443836,-2.593367,-8.531395,3.485312,-5.572172,8.571436,-9.115689,38.521427,-0.115795,-0.039636,0.000000,0.325379,0.699818,0.000000
2.520000,-0.535302,1.002186,-1.199273,2.721965,0.248575,0.614590,0.407027,-1.409496,-2.647161,-8.434270,3.377835,-5.186743,10.534503,-11.900841,38.414486,-0.112609,-0.032663,0.000000,0.311563,0.685560,0.000000
2.530000,-0.508063,1.004602,-1.193261,2.725616,0.234647,0.587865,0.323217,-1.376319,-2.697122,-8.327396,3.257345,-4.807003,10.820286,-12.167200,37.520537,-0.109566,-0.025837,0.000000,0.297117,0.671245,0.000000
2.540000,-0.480792,1.006880,-1.187518,2.728433,0.221045,0.560660,0.240506,-1.344384,-2.743323,-8.211819,3.125409,-4.433666,12.596666,-14.672736,37.280538,-0.106668,-0.019156,0.000000,0.282152,0.656924,0.000000
2.550000,-0.453497,1.009024,-1.182049,2.730430,0.207754,0.533011,0.159046,-1.313904,-2.785800,-8.078322,2.968203,-4.062719,13.781128,-16.283998,36.762492,-0.103929,-0.012626,0.000000,0.265536,0.641838,-0.000000
2.560000,-0.426186,1.011036,-1.176859,2.731619,0.194761,0.504956,0.078965,-1.285052,-2.824592,-7.936185,2.799911,-3.696415,14.893249,-17.775178,36.249919,-0.101358,-0.006250,0.000000,0.248388,0.626702,0.000000
2.570000,-0.398867,1.012920,-1.171951,2.732014,0.182047,0.476531,0.000379,-1.257987,-2.859766,-7.778299,2.609209,-3.340040,16.423364,-19.941306,35.258597,-0.098966,-0.000030,0.000000,0.229847,0.610930,-0.000000
2.580000,-0.371549,1.014678,-1.167329,2.731632,0.169595,0.447772,-0.076579,-1.232893,-2.891400,-7.613178,2.409971,-2.986323,16.582352,-19.874977,35.490283,-0.096763,0.006029,0.000000,0.210922,0.595160,0.000000
2.590000,-0.344237,1.016313,-1.162997,2.730488,0.157383,0.418715,-0.151865,-1.209807,-2.919499,-7.441806,2.203877,-2.635048,17.933949,-21.734487,34.525083,-0.094748,0.011930,0.000000,0.191720,0.579448,0.000000
2.600000,-0.316941,1.017826,-1.158956,2.728601,0.145391,0.389394,-0.225365,-1.188885,-2.944139,-7.256853,1.979148,-2.293795,18.794615,-22.783717,33.964576,-0.092933,0.017668,0.000000,0.171358,0.563185,-0.000000
2.610000,-0.289668,1.019221,-1.155210,2.725987,0.133598,0.359843,-0.296983,-1.170241,-2.965374,-7.065493,1.748230,-1.953809,19.594796,-23.705296,33.458901,-0.091322,0.023242,0.000000,0.150717,0.546915,-0.000000
2.620000,-0.262424,1.020499,-1.151760,2.722668,0.121979,0.330098,-0.366639,-1.153975,-2.983279,-6.863989,1.502448,-1.629869,20.571926,-25.115464,31.889470,-0.089922,0.028651,0.000000,0.129205,0.530291,0.000000
2.630000,-0.235217,1.021661,-1.148608,2.718661,0.110510,0.300189,-0.434245,-1.140202,-2.997962,-6.656856,1.252946,-1.304249,20.840662,-24.754896,33.255058,-0.088738,0.033891,0.000000,0.107534,0.513669,0.000000
2.640000,-0.208053,1.022709,-1.145756,2.713990,0.099166,0.270149,-0.499761,-1.128921,-3.009350,-6.444870,1.001374,-0.975988,21.671632,-25.857563,31.837629,-0.087771,0.038965,0.000000,0.085802,0.497098,0.000000
2.650000,-0.180939,1.023645,-1.143205,2.708673,0.087923,0.240012,-0.563113,-1.120216,-3.017541,-6.224681,0.738909,-0.662630,22.231839,-26.297450,31.400051,-0.087025,0.043871,0.000000,0.063418,0.480238,0.000000
2.660000,-0.153881,1.024468,-1.140956,2.702735,0.076753,0.209809,-0.624239,-1.114142,-3.022590,-5.999573,0.475601,-0.347454,22.745853,-26.605437,31.023172,-0.086502,0.048606,0.000000,0.041020,0.463370,0.000000
2.670000,-0.126886,1.025180,-1.139009,2.696196,0.065631,0.179571,-0.683091,-1.110734,-3.024552,-5.770272,0.204799,-0.047740,23.138436,-27.280015,29.523228,-0.086206,0.053173,0.000000,0.018181,0.446457,0.000000
2.680000,-0.099959,1.025781,-1.137365,2.689081,0.054529,0.149328,-0.739628,-1.110038,-3.023528,-5.536290,-0.064248,0.255680,23.649728,-26.500882,31.184730,-0.086138,0.057569,0.000000,-0.004539,0.429511,0.000000
2.690000,-0.073107,1.026271,-1.136023,2.681411,0.043421,0.119111,-0.793803,-1.112006,-3.019418,-5.298139,-0.329954,0.563959,23.937477,-26.876700,29.872537,-0.086296,0.061795,0.000000,-0.027053,0.412562,-0.000000
2.700000,-0.046333,1.026649,-1.134983,2.673213,0.032280,0.088949,-0.845583,-1.116654,-3.012306,-5.057436,-0.599191,0.858370,24.227736,-26.694392,29.617854,-0.086680,0.065851,0.000000,-0.049795,0.395622,0.000000
2.710000,-0.019644,1.026916,-1.134243,2.664508,0.021079,0.058874,-0.894941,-1.123970,-3.002231,-4.813706,-0.863514,1.156500,24.466528,-26.380946,29.423787,-0.087291,0.069737,0.000000,-0.072256,0.378715,-0.000000
2.720000,0.006956,1.027070,-1.133805,2.655322,0.009792,0.028915,-0.941854,-1.133930,-2.989230,-4.568678,-1.128532,1.441527,24.571759,-26.378619,28.159199,-0.088126,0.073454,0.000000,-0.094783,0.361860,-0.000000
2.730000,0.033461,1.027111,-1.133665,2.645679,-0.001608,-0.000901,-0.986307,-1.146514,-2.973379,-4.321574,-1.385982,1.731803,24.841467,-25.084598,29.918969,-0.089185,0.077003,0.000000,-0.116889,0.345075,0.000000
2.740000,0.059868,1.027038,-1.133822,2.635604,-0.013147,-0.030543,-1.028280,-1.161618,-2.954568,-4.072864,-1.634365,2.028423,24.849972,-24.798695,28.831880,-0.090462,0.080384,0.000000,-0.138491,0.328389,-0.000000
2.750000,0.086172,1.026848,-1.134275,2.625122,-0.024849,-0.059983,-1.067766,-1.179195,-2.932859,-3.824391,-1.879648,2.313435,24.877760,-24.012960,28.750767,-0.091954,0.083598,0.000000,-0.159952,0.311811,-0.000000
2.760000,0.112369,1.026540,-1.135021,2.614257,-0.036738,-0.089191,-1.104766,-1.199172,-2.908280,-3.575502,-2.114033,2.602504,24.855445,-23.099059,28.697483,-0.093659,0.086647,0.000000,-0.180802,0.295367,0.000000
2.770000,0.138456,1.026112,-1.136058,2.603035,-0.048840,-0.118139,-1.139281,-1.221464,-2.880841,-3.327783,-2.343592,2.884054,24.714827,-22.547859,27.973769,-0.095570,0.089532,0.000000,-0.201449,0.279082,0.000000
2.780000,0.164428,1.025563,-1.137383,2.591480,-0.061175,-0.146798,-1.171323,-1.245996,-2.850583,-3.080642,-2.559455,3.169558,24.706170,-20.599176,29.140684,-0.097685,0.092255,0.000000,-0.221312,0.262966,0.000000
2.790000,0.190284,1.024888,-1.138993,2.579616,-0.073766,-0.175141,-1.200897,-1.272601,-2.817431,-2.834534,-2.760203,3.459659,24.471775,-19.781496,28.519593,-0.099993,0.094817,0.000000,-0.240306,0.247045,0.000000
2.800000,0.216020,1.024086,-1.140884,2.567470,-0.086634,-0.203137,-1.228023,-1.301177,-2.781419,-2.591074,-2.952631,3.743048,24.247131,-18.439047,28.519969,-0.102490,0.097221,0.000000,-0.258891,0.231341,0.000000
2.810000,0.241633,1.023154,-1.143054,2.555064,-0.099796,-0.230760,-1.252726,-1.331594,-2.742556,-2.349975,-3.128232,4.029732,23.969947,-16.977557,28.532577,-0.105168,0.099469,0.000000,-0.276498,0.215888,-0.000000
2.820000,0.267120,1.022089,-1.145498,2.542423,-0.113271,-0.257979,-1.275032,-1.363716,-2.700847,-2.111787,-3.294741,4.311078,23.653972,-16.004975,28.011808,-0.108019,0.101563,0.000000,-0.293677,0.200642,-0.000000
2.830000,0.292480,1.020888,-1.148212,2.529571,-0.127076,-0.284767,-1.294974,-1.397421,-2.656321,-1.877174,-3.441652,4.595742,23.260407,-13.352946,28.928119,-0.111037,0.103507,0.000000,-0.309688,0.185707,-0.000000
2.840000,0.317711,1.019547,-1.151192,2.516532,-0.141224,-0.311096,-1.312589,-1.432477,-2.608918,-1.646630,-3.567650,4.884015,22.845730,-12.138801,28.445275,-0.114208,0.105302,0.000000,-0.324438,0.171110,-0.000000
2.850000,0.342811,1.018062,-1.154433,2.503327,-0.155729,-0.336936,-1.327921,-1.468739,-2.558663,-1.420467,-3.681550,5.166955,22.373466,-10.322458,28.417084,-0.117524,0.106952,0.000000,-0.338552,0.156785,0.000000
2.860000,0.367777,1.016431,-1.157929,2.489981,-0.170602,-0.362259,-1.341017,-1.506031,-2.505569,-1.199784,-3.773495,5.451876,21.843941,-8.408813,28.368862,-0.120975,0.108461,0.000000,-0.351319,0.142865,0.000000
2.870000,0.392610,1.014649,-1.161676,2.476514,-0.185853,-0.387038,-1.351928,-1.544173,-2.449644,-0.982928,-3.852751,5.732450,21.433401,-7.086862,27.928372,-0.124549,0.109831,0.000000,-0.363417,0.129148,0.000000
2.880000,0.417307,1.012713,-1.165668,2.462949,-0.201488,-0.411243,-1.360700,-1.583003,-2.390915,-0.773080,-3.907786,6.014269,20.525799,-3.898876,28.434701,-0.128238,0.111065,0.000000,-0.373976,0.115923,0.000000
2.890000,0.441868,1.010618,-1.169899,2.449307,-0.217514,-0.434847,-1.367415,-1.622241,-2.329353,-0.570820,-3.937496,6.297198,20.005743,-2.381289,27.953586,-0.132023,0.112170,0.000000,-0.382896,0.103228,0.000000
2.900000,0.466293,1.008361,-1.174363,2.435608,-0.233934,-0.457821,-1.372132,-1.661709,-2.264992,-0.373852,-3.952285,6.574787,19.293647,-0.221867,27.744618,-0.135893,0.113149,0.000000,-0.390937,0.090806,-0.000000
2.910000,0.490580,1.005938,-1.179053,2.421871,-0.250748,-0.480137,-1.374922,-1.701198,-2.197866,-0.185343,-3.941619,6.849874,18.529160,2.000902,27.447342,-0.139835,0.114005,0.000000,-0.397260,0.078929,0.000000
2.920000,0.514730,1.003345,-1.183963,2.408115,-0.267957,-0.501769,-1.375855,-1.740496,-2.127990,-0.002235,-3.915467,7.125228,17.961435,3.585816,27.433482,-0.143836,0.114744,0.000000,-0.402689,0.067368,0.000000
2.930000,0.538743,1.000577,-1.189086,2.394360,-0.285557,-0.522688,-1.375000,-1.779415,-2.055382,0.171147,-3.862440,7.394554,16.704483,7.034743,26.414289,-0.147883,0.115369,0.000000,-0.406198,0.056407,-0.000000
2.940000,0.562618,0.997632,-1.194415,2.380621,-0.303543,-0.542868,-1.372467,-1.817650,-1.980124,0.334231,-3.781795,7.656897,16.031086,8.743227,26.222743,-0.151953,0.115887,0.000000,-0.407667,0.046082,0.000000
2.950000,0.586355,0.994505,-1.199941,2.366916,-0.321907,-0.562282,-1.368335,-1.855002,-1.902248,0.490580,-3.684527,7.917208,15.107751,11.064877,25.645619,-0.156033,0.116302,0.000000,-0.408031,0.036144,0.000000
2.960000,0.609956,0.991193,-1.205658,2.353259,-0.340640,-0.580904,-1.362695,-1.891251,-1.821816,0.635757,-3.561330,8.167827,14.133075,13.388878,24.943404,-0.160106,0.116621,0.000000,-0.406376,0.026885,0.000000
2.970000,0.633421,0.987691,-1.211556,2.339666,-0.359728,-0.598710,-1.355636,-1.926166,-1.738877,0.775072,-3.418472,8.420197,13.519651,15.361276,25.050399,-0.164156,0.116848,0.000000,-0.403332,0.017974,0.000000
2.980000,0.656750,0.983997,-1.217629,2.326151,-0.379158,-0.615673,-1.347237,-1.959535,-1.653461,0.901744,-3.250373,8.658765,11.803323,18.261036,22.633328,-0.168166,0.116988,0.000000,-0.398162,0.009830,0.000000
2.990000,0.679944,0.980107,-1.223867,2.312726,-0.398912,-0.631771,-1.337647,-1.991088,-1.565757,1.015189,-3.056969,8.881963,11.088016,20.233264,22.460151,-0.172112,0.117050,0.000000,-0.390753,0.002496,-0.000000
3.000000,0.703005,0.976018,-1.230261,2.299402,-0.418973,-0.646981,-1.326953,-2.020613,-1.475819,1.121662,-2.844270,9.103653,9.996247,22.481175,21.393886,-0.175976,0.117040,0.000000,-0.381755,-0.004413,-0.000000
3.010000,0.725932,0.971727,-1.236803,2.286190,-0.439317,-0.661281,-1.315260,-2.047884,-1.383746,1.215008,-2.605770,9.308653,8.872347,24.728359,20.192347,-0.179738,0.116963,0.000000,-0.370300,-0.010512,-0.000000
3.020000,0.748729,0.967231,-1.243484,2.273099,-0.459922,-0.674649,-1.302674,-2.072694,-1.289639,1.300912,-2.354322,9.512716,8.108554,26.019648,20.018805,-0.183379,0.116827,0.000000,-0.357663,-0.016120,0.000000
3.030000,0.771395,0.962527,-1.250293,2.260139,-0.480762,-0.687067,-1.289289,-2.094876,-1.193564,1.372992,-2.075762,9.696415,6.298953,29.695097,16.686071,-0.186882,0.116638,0.000000,-0.342223,-0.020865,0.000000
3.040000,0.793932,0.957615,-1.257222,2.247316,-0.501810,-0.698515,-1.275263,-2.114115,-1.095789,1.430834,-1.770149,9.857940,5.466656,30.940973,16.193095,-0.190213,0.116406,0.000000,-0.323817,-0.024703,0.000000
3.050000,0.816342,0.952491,-1.264260,2.234636,-0.523034,-0.708977,-1.260696,-2.130250,-0.996410,1.480609,-1.453224,10.014933,4.289031,32.899405,14.600066,-0.193354,0.116137,0.000000,-0.304027,-0.027976,0.000000
3.060000,0.838625,0.947154,-1.271398,2.222103,-0.544404,-0.718438,-1.245701,-2.143128,-0.895574,1.516349,-1.119968,10.148893,3.093763,34.628562,12.870116,-0.196286,0.115839,0.000000,-0.281986,-0.030320,0.000000
3.070000,0.860784,0.941602,-1.278626,2.209723,-0.565885,-0.726884,-1.230390,-2.152520,-0.793435,1.544650,-0.752790,10.278405,2.338721,37.920654,12.343289,-0.198981,0.115520,0.000000,-0.256333,-0.032107,0.000000
3.080000,0.882820,0.935836,-1.285932,2.197496,-0.587442,-0.734303,-1.214858,-2.158172,-0.690100,1.558348,-0.380160,10.381314,0.395056,36.558054,8.202459,-0.201408,0.115187,0.000000,-0.229075,-0.032894,0.000000
3.090000,0.904735,0.929853,-1.293308,2.185426,-0.609036,-0.740684,-1.199274,-2.160120,-0.585909,1.557202,-0.004489,10.455788,-0.391692,39.430830,7.358050,-0.203558,0.114853,0.000000,-0.200294,-0.032634,0.000000
3.100000,0.926529,0.923655,-1.300743,2.173511,-0.630631,-0.746019,-1.183735,-2.158148,-0.480998,1.548607,0.400581,10.522420,-1.554001,40.687910,5.277313,-0.205400,0.114523,0.000000,-0.167845,-0.031758,0.000000
3.110000,0.948205,0.917241,-1.308225,2.161750,-0.652186,-0.750302,-1.168340,-2.152087,-0.375567,1.528638,0.813604,10.559670,-2.657055,41.866685,3.062016,-0.206907,0.114206,0.000000,-0.133138,-0.030100,0.000000
3.120000,0.969765,0.910611,-1.315745,2.150143,-0.673659,-0.753529,-1.153216,-2.141841,-0.269807,1.493514,1.237189,10.591720,-4.149007,42.851488,2.461974,-0.208056,0.113913,0.000000,-0.096265,-0.026994,0.000000
3.130000,0.991209,0.903768,-1.323292,2.138685,-0.695008,-0.755697,-1.138495,-2.127310,-0.163851,1.450254,1.670675,10.590330,-4.491166,43.820766,-2.777191,-0.208823,0.113656,0.000000,-0.056621,-0.023372,0.000000
3.140000,1.012539,0.896712,-1.330856,2.127372,-0.716191,-0.756807,-1.124235,-2.108400,-0.058125,1.399459,2.112551,10.553696,-5.878653,44.501242,-3.674487,-0.209179,0.113437,0.000000,-0.014169,-0.019290,-0.000000
3.150000,1.033757,0.889445,-1.338425,2.116198,-0.737161,-0.756861,-1.110556,-2.085040,0.047212,1.334639,2.560370,10.509188,-6.863374,45.060373,-6.114489,-0.209100,0.113267,0.000000,0.030442,-0.013767,0.000000
3.160000,1.054863,0.881969,-1.345989,2.105158,-0.757876,-0.755865,-1.097569,-2.057191,0.151943,1.261287,3.009558,10.432463,-7.820289,45.376076,-8.603599,-0.208563,0.113157,0.000000,0.077357,-0.007572,0.000000
3.170000,1.075860,0.874288,-1.353539,2.094244,-0.778290,-0.753825,-1.085364,-2.024790,0.255829,1.178194,3.473080,10.342845,-8.771492,46.688938,-9.935816,-0.207541,0.113116,0.000000,0.127571,-0.000327,0.000000
3.180000,1.096749,0.866405,-1.361062,2.083448,-0.798357,-0.750751,-1.074034,-1.987756,0.358687,1.086418,3.929933,10.220839,-9.574990,44.631963,-14.485734,-0.206006,0.113153,0.000000,0.179511,0.007675,-0.000000
3.190000,1.117530,0.858323,-1.368550,2.072760,-0.818030,-0.746656,-1.063662,-1.946227,0.460130,0.986471,4.377431,10.065526,-10.425281,45.451805,-15.957210,-0.203946,0.113275,0.000000,0.232958,0.016400,0.000000
3.200000,1.138204,0.850046,-1.375992,2.062171,-0.837266,-0.741554,-1.054332,-1.900170,0.559963,0.878260,4.833114,9.896476,-11.188284,45.039237,-18.466159,-0.201336,0.113492,0.000000,0.289337,0.026116,0.000000
3.210000,1.158773,0.841579,-1.383378,2.051670,-0.856019,-0.735463,-1.046121,-1.849636,0.657964,0.762939,5.271432,9.699748,-11.892099,44.287058,-20.907811,-0.198159,0.113811,0.000000,0.346340,0.036565,-0.000000
3.220000,1.179238,0.832927,-1.390698,2.041245,-0.874244,-0.728402,-1.039098,-1.794632,0.753874,0.640383,5.733814,9.478133,-12.583347,46.514185,-23.375850,-0.194390,0.114240,0.000000,0.408242,0.047814,-0.000000
3.230000,1.199598,0.824096,-1.397943,2.030884,-0.891896,-0.720393,-1.033332,-1.735071,0.847449,0.512018,6.166582,9.233073,-13.077685,39.957643,-25.626185,-0.189997,0.114788,0.000000,0.469377,0.059742,0.000000
3.240000,1.219856,0.815091,-1.405103,2.020574,-0.908932,-0.711461,-1.028875,-1.671425,0.938460,0.378546,6.565626,8.965152,-13.630568,41.481253,-27.979702,-0.185009,0.115459,0.000000,0.529091,0.072285,0.000000
3.250000,1.240010,0.805919,-1.412169,2.010302,-0.925311,-0.701633,-1.025779,-1.603673,1.026674,0.239862,6.981532,8.673992,-14.068459,40.016947,-30.206372,-0.179399,0.116260,0.000000,0.592750,0.085446,0.000000
3.260000,1.260062,0.796587,-1.419133,2.000054,-0.940992,-0.690938,-1.024077,-1.531891,1.111873,0.100188,7.372110,8.362470,-14.375297,38.448957,-32.325107,-0.173158,0.117196,0.000000,0.655587,0.098784,0.000000
3.270000,1.280011,0.787102,-1.425985,1.989815,-0.955936,-0.679407,-1.023827,-1.456255,1.193835,-0.052188,7.753451,8.025579,-15.580892,37.426689,-34.802002,-0.166284,0.118272,0.000000,0.719291,0.113525,0.000000
3.280000,1.299858,0.777471,-1.432718,1.979572,-0.970105,-0.667073,-1.025104,-1.376899,1.272330,-0.200545,8.112437,7.671706,-14.061714,34.333866,-35.946835,-0.158776,0.119496,0.000000,0.781976,0.127883,0.000000
3.290000,1.319602,0.767703,-1.439324,1.969309,-0.983462,-0.653972,-1.027815,-1.294091,1.347219,-0.343400,8.447054,7.302279,-15.007008,32.935749,-38.155423,-0.150650,0.120859,0.000000,0.843090,0.141638,-0.000000
3.300000,1.339244,0.757805,-1.445795,1.959011,-0.995975,-0.640141,-1.032014,-1.207999,1.418299,-0.496079,8.767543,6.911029,-15.006717,30.770752,-39.836654,-0.141915,0.122366,0.000000,0.903639,0.156418,0.000000
3.310000,1.358783,0.747786,-1.452125,1.948663,-1.007612,-0.625619,-1.037716,-1.118847,1.485402,-0.644066,9.058354,6.507312,-14.921909,28.385841,-41.346190,-0.132588,0.124017,0.000000,0.961293,0.170627,-0.000000
3.320000,1.378217,0.737656,-1.458305,1.938251,-1.018343,-0.610447,-1.044919,-1.026831,1.548359,-0.797423,9.344200,6.080329,-15.402478,27.779216,-43.576542,-0.122687,0.125810,0.000000,1.018766,0.185218,0.000000
3.330000,1.397547,0.727422,-1.464331,1.927760,-1.028140,-0.594667,-1.053642,-0.932094,1.606986,-0.944842,9.592890,5.645716,-14.057855,21.910775,-43.305934,-0.112229,0.127746,0.000000,1.071626,0.199021,0.000000
3.340000,1.416772,0.717096,-1.470197,1.917174,-1.036977,-0.578322,-1.063789,-0.835113,1.661259,-1.085084,9.802027,5.205664,-14.315311,20.896361,-45.130372,-0.101274,0.129812,0.000000,1.119117,0.211837,0.000000
3.350000,1.435890,0.706686,-1.475896,1.906479,-1.044835,-0.561456,-1.075359,-0.736066,1.711031,-1.228031,10.002091,4.747526,-13.925427,18.112232,-46.017165,-0.089851,0.132005,0.000000,1.164671,0.224576,0.000000
3.360000,1.454901,0.696203,-1.481424,1.895662,-1.051693,-0.544116,-1.088314,-0.635192,1.756224,-1.361902,10.167861,4.290571,-13.419003,15.292583,-46.616982,-0.078000,0.134317,0.000000,1.204628,0.236047,0.000000
3.370000,1.473803,0.685656,-1.486777,1.884708,-1.057534,-0.526348,-1.102626,-0.532783,1.796722,-1.501534,10.310160,3.804074,-13.930889,12.905293,-49.417617,-0.065772,0.136741,0.000000,1.240223,0.247470,0.000000
3.380000,1.492595,0.675055,-1.491950,1.873605,-1.062344,-0.508198,-1.118298,-0.429098,1.832351,-1.628437,10.420502,3.328746,-11.421302,9.149315,-45.579196,-0.053216,0.139271,0.000000,1.269659,0.257190,0.000000
3.390000,1.511275,0.664412,-1.496940,1.862339,-1.066113,-0.489716,-1.135143,-0.324484,1.863356,-1.741180,10.498179,2.868119,-11.687542,6.638454,-47.762308,-0.040400,0.141886,0.000000,1.292638,0.265036,0.000000
3.400000,1.529841,0.653737,-1.501743,1.850898,-1.068831,-0.470947,-1.153143,-0.219212,1.889616,-1.857150,10.551048,2.384697,-10.928517,3.678850,-47.648865,-0.027381,0.144576,0.000000,1.310098,0.272433,0.000000
3.410000,1.548292,0.643039,-1.506358,1.839272,-1.070496,-0.451939,-1.172242,-0.113573,1.911114,-1.961340,10.571678,1.916109,-10.128069,0.706176,-47.294261,-0.014222,0.147331,0.000000,1.320746,0.278151,0.000000
3.420000,1.566626,0.632330,-1.510782,1.827450,-1.071103,-0.432740,-1.192360,-0.007857,1.927851,-2.061659,10.567586,1.427837,-9.706381,-1.770723,-49.111102,-0.000986,0.150135,0.000000,1.325479,0.282499,0.000000
3.430000,1.584840,0.621621,-1.515012,1.815422,-1.070653,-0.413399,-1.213436,0.097669,1.939748,-2.150665,10.531116,0.960078,-8.081158,-5.525015,-44.373940,0.012264,0.152976,0.000000,1.323223,0.285270,-0.000000
3.440000,1.602934,0.610921,-1.519049,1.803178,-1.069151,-0.393960,-1.235332,0.202656,1.947142,-2.227645,10.462288,0.516245,-7.532954,-7.979814,-45.596461,0.025456,0.155836,0.000000,1.314145,0.286462,0.000000
3.450000,1.620903,0.600241,-1.522891,1.790713,-1.066603,-0.374471,-1.257975,0.306839,1.950007,-2.299317,10.369579,0.059150,-6.572913,-10.802358,-44.568213,0.038528,0.158702,0.000000,1.299299,0.286190,0.000000
3.460000,1.638747,0.589592,-1.526539,1.778017,-1.063018,-0.354975,-1.281276,0.409968,1.948406,-2.359025,10.252244,-0.376908,-5.576978,-13.446606,-43.378182,0.051424,0.161559,0.000000,1.278867,0.284317,-0.000000
3.470000,1.656463,0.578984,-1.529991,1.765085,-1.058408,-0.335517,-1.305139,0.511733,1.942449,-2.412741,10.093618,-0.814913,-4.957480,-17.491411,-43.461585,0.064079,0.164392,0.000000,1.250851,0.281156,-0.000000
3.480000,1.674048,0.568427,-1.533249,1.751912,-1.052789,-0.316141,-1.329487,0.611793,1.932189,-2.453804,9.918947,-1.230195,-3.246881,-17.401296,-39.549233,0.076428,0.167188,0.000000,1.218855,0.276424,0.000000
3.490000,1.691500,0.557932,-1.536314,1.738494,-1.046178,-0.296887,-1.354170,0.710071,1.917935,-2.481819,9.730343,-1.620384,-2.563328,-21.079638,-39.212327,0.088446,0.169932,0.000000,1.183528,0.270194,-0.000000
3.500000,1.708817,0.547507,-1.539187,1.724828,-1.038594,-0.277795,-1.379105,0.806262,1.899778,-2.503301,9.504370,-2.007724,-1.526229,-23.317253,-37.493900,0.100076,0.172610,0.000000,1.142050,0.262861,-0.000000
3.510000,1.725996,0.537163,-1.541871,1.710912,-1.030061,-0.258904,-1.404204,0.900133,1.877866,-2.514838,9.267113,-2.371450,-0.535093,-25.339487,-35.665409,0.111280,0.175212,0.000000,1.098227,0.254509,0.000000
3.520000,1.743034,0.526909,-1.544366,1.696744,-1.020600,-0.240250,-1.429349,0.991439,1.852377,-2.511764,8.986738,-2.724674,0.907663,-29.521613,-34.545266,0.122018,0.177725,0.000000,1.048361,0.244367,0.000000
3.530000,1.759930,0.516754,-1.546677,1.682325,-1.010241,-0.221868,-1.454418,1.079862,1.823458,-2.501779,8.702158,-3.053276,1.078558,-27.333313,-31.148615,0.132246,0.180135,0.000000,0.997750,0.233750,0.000000
3.540000,1.776680,0.506707,-1.548805,1.667656,-0.999012,-0.203791,-1.479365,1.165488,1.791401,-2.485408,8.416460,-3.355863,2.434086,-30.984175,-29.779733,0.141974,0.182440,0.000000,0.947092,0.222818,0.000000
3.550000,1.793282,0.496776,-1.550754,1.652738,-0.986942,-0.186049,-1.504075,1.248045,1.756378,-2.455245,8.093183,-3.645075,3.352216,-32.447338,-27.631165,0.151171,0.184631,0.000000,0.892127,0.210481,0.000000
3.560000,1.809734,0.486971,-1.552527,1.637576,-0.974062,-0.168672,-1.528458,1.327352,1.718588,-2.420059,7.766520,-3.909124,4.197455,-33.737943,-25.429351,0.159819,0.186699,0.000000,0.837422,0.198111,0.000000
3.570000,1.826033,0.477298,-1.554128,1.622171,-0.960406,-0.151686,-1.552407,1.403264,1.678248,-2.366643,7.410854,-4.155908,5.977158,-36.517641,-23.671567,0.167909,0.188637,0.000000,0.780098,0.184042,-0.000000
3.580000,1.842177,0.467765,-1.555562,1.606529,-0.946009,-0.135115,-1.575788,1.475574,1.635556,-2.311193,7.054566,-4.377210,5.090755,-34.687760,-20.577775,0.175425,0.190434,0.000000,0.723836,0.170423,0.000000
3.590000,1.858163,0.458380,-1.556832,1.590657,-0.930906,-0.118982,-1.598632,1.544369,1.590793,-2.254790,6.700373,-4.572487,6.690581,-36.985627,-18.729515,0.182391,0.192101,0.000000,0.669101,0.157418,-0.000000
3.600000,1.873989,0.449149,-1.557943,1.574559,-0.915134,-0.103306,-1.620819,1.609488,1.544162,-2.181832,6.322666,-4.749658,7.388302,-37.672782,-16.453187,0.188801,0.193630,0.000000,0.612987,0.143094,0.000000
3.610000,1.889653,0.440079,-1.558900,1.558243,-0.898729,-0.088104,-1.642261,1.670845,1.495871,-2.105413,5.948457,-4.905261,8.056324,-38.152350,-14.252084,0.194659,0.195016,0.000000,0.558740,0.129077,0.000000
3.620000,1.905153,0.431177,-1.559707,1.541716,-0.881730,-0.073393,-1.662892,1.728361,1.446164,-2.019308,5.550834,-5.030933,8.993718,-40.370093,-11.293288,0.199971,0.196260,0.000000,0.503605,0.114873,0.000000
3.630000,1.920487,0.422447,-1.560369,1.524988,-0.864175,-0.059185,-1.682634,1.781898,1.395305,-1.929121,5.162063,-5.139769,9.030736,-37.330318,-10.493565,0.204740,0.197361,0.000000,0.450993,0.100847,0.000000
3.640000,1.935652,0.413895,-1.560892,1.508067,-0.846104,-0.045490,-1.701465,1.831649,1.343419,-1.835553,4.784895,-5.232746,9.839351,-39.068428,-7.700678,0.209001,0.198321,0.000000,0.401147,0.087064,0.000000
3.650000,1.950648,0.405526,-1.561281,1.490962,-0.827555,-0.032319,-1.719316,1.877518,1.290752,-1.733900,4.389515,-5.297454,10.318712,-39.002142,-5.659891,0.212760,0.199141,0.000000,0.351078,0.073290,0.000000
3.660000,1.965471,0.397345,-1.561540,1.473684,-0.808567,-0.019677,-1.736141,1.919473,1.237504,-1.630650,4.001906,-5.349497,10.715168,-38.837483,-3.768932,0.216031,0.199822,0.000000,0.303264,0.059897,-0.000000
3.670000,1.980121,0.389356,-1.561676,1.456243,-0.789179,-0.007570,-1.751884,1.957536,1.183904,-1.516134,3.610045,-5.363946,11.797177,-39.187967,-0.096474,0.218831,0.200366,0.000000,0.256985,0.046381,0.000000
3.680000,1.994595,0.381563,-1.561694,1.438650,-0.769429,0.004001,-1.766470,1.991700,1.130239,-1.402904,3.225397,-5.371910,10.828537,-37.713773,-1.540236,0.221177,0.200774,0.000000,0.212653,0.033420,0.000000
3.690000,2.008893,0.373969,-1.561598,1.420917,-0.749357,0.015034,-1.779953,2.022076,1.076473,-1.291993,2.849477,-5.375556,11.731357,-37.784668,1.768399,0.223090,0.201053,0.000000,0.170295,0.021058,-0.000000
3.700000,2.023013,0.366577,-1.561395,1.403055,-0.729000,0.025531,-1.792272,2.048682,1.022859,-1.171721,2.472830,-5.345099,11.930337,-37.199513,3.338391,0.224588,0.201205,0.000000,0.129601,0.008681,0.000000
3.710000,2.036954,0.359389,-1.561089,1.385076,-0.708396,0.035493,-1.803395,2.071560,0.969582,-1.052687,2.104035,-5.308293,12.082151,-36.547803,4.789006,0.225688,0.201233,0.000000,0.090706,-0.003194,-0.000000
3.720000,2.050714,0.352409,-1.560687,1.366991,-0.687581,0.044924,-1.813304,2.090785,0.916803,-0.928267,1.742120,-5.242447,12.586934,-35.820283,7.605029,0.226410,0.201141,0.000000,0.053997,-0.014797,0.000000
3.730000,2.064293,0.345638,-1.560192,1.348814,-0.666592,0.053831,-1.821967,2.106429,0.864741,-0.805453,1.387916,-5.172457,11.961893,-35.009020,6.352670,0.226773,0.200931,0.000000,0.018859,-0.025946,0.000000
3.740000,2.077690,0.339078,-1.559612,1.330556,-0.645465,0.062221,-1.829423,2.118572,0.813355,-0.684978,1.042114,-5.100375,12.335434,-34.143159,8.813006,0.226792,0.200610,0.000000,-0.014763,-0.036626,0.000000
3.750000,2.090904,0.332729,-1.558950,1.312229,-0.624232,0.070101,-1.835650,2.127301,0.762831,-0.560664,0.705263,-5.003043,12.312199,-33.215811,9.872801,0.226485,0.200180,0.000000,-0.046319,-0.047012,0.000000
3.760000,2.103935,0.326594,-1.558211,1.293847,-0.602930,0.077481,-1.840644,2.132703,0.713297,-0.438258,0.376632,-4.902479,12.252695,-32.264070,10.814299,0.225870,0.199646,0.000000,-0.076502,-0.056991,-0.000000
3.770000,2.116781,0.320671,-1.557402,1.275420,-0.581589,0.084371,-1.844411,2.134885,0.664859,-0.314906,0.062322,-4.781654,12.324237,-30.822325,12.760404,0.224964,0.199012,0.000000,-0.104356,-0.066523,0.000000
3.780000,2.129443,0.314962,-1.556526,1.256963,-0.560242,0.090782,-1.846950,2.133972,0.617664,-0.193730,-0.244542,-4.659645,11.902450,-30.551932,11.607104,0.223786,0.198283,0.000000,-0.131110,-0.075703,0.000000
3.790000,2.141920,0.309466,-1.555588,1.238485,-0.538920,0.096728,-1.848295,2.130017,0.571660,-0.075197,-0.543932,-4.538234,11.887008,-29.087602,13.238101,0.222344,0.197461,0.000000,-0.156856,-0.084539,0.000000
3.800000,2.154213,0.304183,-1.554593,1.220001,-0.517652,0.102220,-1.848453,2.123148,0.526965,0.043160,-0.828190,-4.400123,11.690931,-27.992896,13.791427,0.220657,0.196551,0.000000,-0.180484,-0.092946,0.000000
3.810000,2.166320,0.299113,-1.553545,1.201520,-0.496466,0.107272,-1.847441,2.113477,0.483653,0.158955,-1.104318,-4.261747,11.470659,-26.899373,14.246776,0.218738,0.195557,0.000000,-0.203135,-0.101034,-0.000000
3.820000,2.178243,0.294254,-1.552449,1.183056,-0.475391,0.111898,-1.845281,2.101125,0.441774,0.272550,-1.363084,-4.112008,11.237095,-25.172254,15.319398,0.216602,0.194483,0.000000,-0.223693,-0.108635,0.000000
3.830000,2.189982,0.289604,-1.551308,1.164618,-0.454452,0.116112,-1.841999,2.086238,0.401406,0.383470,-1.614457,-3.963351,10.942889,-25.110835,14.386483,0.214266,0.193333,0.000000,-0.243478,-0.115966,-0.000000
3.840000,2.201536,0.285164,-1.550128,1.146219,-0.433675,0.119931,-1.837622,2.068857,0.362496,0.491474,-1.858792,-3.817130,10.661271,-23.431642,15.214691,0.211734,0.192110,0.000000,-0.262585,-0.123038,-0.000000
3.850000,2.212906,0.280930,-1.548911,1.127869,-0.413083,0.123367,-1.832179,2.049126,0.325098,0.596570,-2.085830,-3.662470,10.347816,-22.298489,15.335773,0.209021,0.190818,0.000000,-0.279806,-0.129656,0.000000
3.860000,2.224093,0.276902,-1.547662,1.109579,-0.392699,0.126438,-1.825701,2.027164,0.289237,0.698568,-2.304797,-3.509805,10.020200,-21.180603,15.384110,0.206140,0.189460,0.000000,-0.296309,-0.136013,0.000000
3.870000,2.235098,0.273076,-1.546383,1.091359,-0.372547,0.129157,-1.818221,2.003092,0.254919,0.796656,-2.506560,-3.353189,9.622834,-19.478355,15.734718,0.203101,0.188040,0.000000,-0.311102,-0.141928,0.000000
3.880000,2.245921,0.269450,-1.545079,1.073218,-0.352644,0.131541,-1.809778,1.977056,0.222162,0.891569,-2.700799,-3.199383,9.358545,-19.380312,15.009977,0.199920,0.186563,0.000000,-0.325300,-0.147610,-0.000000
3.890000,2.256563,0.266022,-1.543754,1.055166,-0.333012,0.133605,-1.800400,1.949097,0.190917,0.983220,-2.888021,-3.049284,8.941627,-17.757572,15.195319,0.196597,0.185029,0.000000,-0.338986,-0.153075,-0.000000
3.900000,2.267024,0.262789,-1.542408,1.037213,-0.313668,0.135365,-1.790128,1.919356,0.161186,1.070609,-3.058609,-2.897316,8.562882,-16.669631,14.994979,0.193146,0.183443,0.000000,-0.351126,-0.158126,-0.000000
3.910000,2.277307,0.259747,-1.541047,1.019367,-0.294630,0.136834,-1.778998,1.887949,0.132960,1.154748,-3.221162,-2.748327,8.184679,-15.603070,14.758927,0.189576,0.181807,0.000000,-0.362669,-0.162959,0.000000
3.920000,2.287412,0.256895,-1.539673,1.001636,-0.275914,0.138029,-1.767052,1.854987,0.106208,1.233580,-3.368514,-2.602656,7.655729,-14.103287,14.405589,0.185897,0.180125,0.000000,-0.372936,-0.167382,0.000000
3.930000,2.297340,0.254228,-1.538287,0.984028,-0.257535,0.138963,-1.754336,1.820602,0.080898,1.309421,-3.508180,-2.459564,7.514181,-13.840191,14.207407,0.182119,0.178401,0.000000,-0.382648,-0.171614,-0.000000
3.940000,2.307093,0.251743,-1.536894,0.966552,-0.239507,0.139651,-1.740873,1.784846,0.057007,1.382342,-3.640666,-2.319390,6.994312,-12.424888,13.783899,0.178245,0.176636,0.000000,-0.391864,-0.175669,-0.000000
3.950000,2.316672,0.249437,-1.535495,0.949213,-0.221842,0.140108,-1.726708,1.747841,0.034495,1.449943,-3.758744,-2.183674,6.601525,-11.428751,13.392274,0.174286,0.174833,0.000000,-0.399915,-0.179341,-0.000000
3.960000,2.326078,0.247305,-1.534093,0.932020,-0.204554,0.140346,-1.711883,1.709695,0.013324,1.514484,-3.868923,-2.051018,6.214984,-10.455999,12.986997,0.170249,0.172995,0.000000,-0.407406,-0.182829,0.000000
3.970000,2.335313,0.245344,-1.532689,0.914977,-0.187652,0.140379,-1.696439,1.670507,-0.006551,1.573404,-3.966513,-1.925371,5.658608,-9.215852,12.282071,0.166141,0.171124,0.000000,-0.413948,-0.185949,0.000000
3.980000,2.344378,0.243551,-1.531286,0.898093,-0.171147,0.140219,-1.680424,1.630389,-0.025191,1.629539,-4.056469,-1.802436,5.571932,-8.783767,12.306459,0.161972,0.169224,0.000000,-0.419942,-0.188904,0.000000
3.990000,2.353275,0.241920,-1.529885,0.881371,-0.155047,0.139879,-1.663856,1.589401,-0.042608,1.683053,-4.139228,-1.682192,5.041462,-7.620396,11.595289,0.157744,0.167296,0.000000,-0.425429,-0.191710,0.000000
4.000000,2.362006,0.240448,-1.528489,0.864817,-0.139361,0.139371,-1.646782,1.547646,-0.058862,1.731157,-4.210243,-1.569341,4.669654,-6.737726,11.117260,0.153466,0.165343,0.000000,-0.430037,-0.194171,0.000000
4.010000,2.370572,0.239131,-1.527098,0.848437,-0.124097,0.138705,-1.629242,1.505220,-0.074003,1.776414,-4.273721,-1.459654,4.306859,-5.878678,10.640981,0.149145,0.163367,0.000000,-0.434099,-0.196465,-0.000000
4.020000,2.378975,0.237965,-1.525715,0.832234,-0.109259,0.137894,-1.611272,1.462207,-0.088086,1.816621,-4.327131,-1.358176,3.809536,-4.888066,9.826506,0.144787,0.161371,0.000000,-0.437436,-0.198456,-0.000000
4.030000,2.387217,0.236945,-1.524341,0.816213,-0.094854,0.136947,-1.592918,1.418701,-0.101175,1.854179,-4.373262,-1.259507,3.705883,-4.344768,9.912517,0.140398,0.159357,0.000000,-0.440227,-0.200288,0.000000
4.040000,2.395300,0.236066,-1.522977,0.800377,-0.080886,0.135874,-1.574196,1.374764,-0.113283,1.889278,-4.412472,-1.163417,3.241078,-3.419766,9.131491,0.135984,0.157326,0.000000,-0.442499,-0.201975,0.000000
4.050000,2.403225,0.235326,-1.521624,0.784730,-0.067360,0.134684,-1.555149,1.330484,-0.124473,1.919664,-4.442432,-1.075388,2.912098,-2.657747,8.649018,0.131550,0.155280,0.000000,-0.444092,-0.203378,0.000000
4.060000,2.410995,0.234718,-1.520283,0.769275,-0.054278,0.133387,-1.535810,1.285938,-0.134798,1.947582,-4.465433,-0.990187,2.597256,-1.918291,8.184246,0.127104,0.153223,0.000000,-0.445145,-0.204632,0.000000
4.070000,2.418612,0.234238,-1.518956,0.754014,-0.041642,0.131991,-1.516214,1.241201,-0.144309,1.970945,-4.480620,-0.913591,2.151013,-1.150646,7.338225,0.122649,0.151156,0.000000,-0.445638,-0.205616,0.000000
4.080000,2.426076,0.233883,-1.517644,0.738951,-0.029454,0.130504,-1.496398,1.196348,-0.153075,1.992191,-4.489103,-0.839152,2.102305,-0.550896,7.557708,0.118193,0.149080,0.000000,-0.445587,-0.206467,0.000000
4.090000,2.433391,0.233648,-1.516347,0.724087,-0.017715,0.128932,-1.476376,1.151441,-0.161097,2.011537,-4.491166,-0.766483,1.694448,0.161968,6.774261,0.113739,0.146998,0.000000,-0.445008,-0.207199,0.000000
4.100000,2.440559,0.233528,-1.515065,0.709424,-0.006425,0.127284,-1.456182,1.106549,-0.168436,2.026754,-4.486180,-0.701893,1.425367,0.803454,6.349124,0.109294,0.144910,0.000000,-0.443903,-0.207682,-0.000000
4.110000,2.447580,0.233518,-1.513801,0.694964,0.004416,0.125565,-1.435847,1.061737,-0.175140,2.039969,-4.475160,-0.639502,1.168148,1.419669,5.947085,0.104863,0.142819,0.000000,-0.442294,-0.208036,0.000000
4.120000,2.454459,0.233614,-1.512554,0.680708,0.014810,0.123783,-1.415396,1.017067,-0.181254,2.049654,-4.457658,-0.584575,0.823335,2.054432,5.218337,0.100450,0.140727,0.000000,-0.440183,-0.208180,0.000000
4.130000,2.461195,0.233813,-1.511326,0.666656,0.024758,0.121942,-1.394859,0.972602,-0.186835,2.057577,-4.434618,-0.531358,0.764985,2.548896,5.433394,0.096061,0.138635,0.000000,-0.437593,-0.208203,-0.000000
4.140000,2.467792,0.234108,-1.510116,0.652811,0.034263,0.120048,-1.374249,0.928392,-0.191884,2.063936,-4.406311,-0.479435,0.455988,3.130949,4.775237,0.091700,0.136544,0.000000,-0.434540,-0.208117,-0.000000
4.150000,2.474252,0.234496,-1.508925,0.639171,0.043327,0.118106,-1.353592,0.884495,-0.196450,2.067188,-4.372269,-0.434277,0.249310,3.651165,4.438259,0.087372,0.134456,0.000000,-0.431024,-0.207843,-0.000000
4.160000,2.480577,0.234973,-1.507754,0.625739,0.051954,0.116121,-1.332909,0.840964,-0.200573,2.068986,-4.333233,-0.390713,0.057893,4.149457,4.125558,0.083081,0.132372,0.000000,-0.427059,-0.207468,0.000000
4.170000,2.486768,0.235534,-1.506603,0.612513,0.060148,0.114096,-1.312223,0.797847,-0.204287,2.067886,-4.289382,-0.353104,-0.222953,4.619390,3.547049,0.078832,0.130293,0.000000,-0.422695,-0.206906,0.000000
4.180000,2.492828,0.236175,-1.505472,0.599494,0.067913,0.112036,-1.291555,0.755191,-0.207637,2.065678,-4.240870,-0.316607,-0.214977,5.079204,3.760025,0.074628,0.128221,0.000000,-0.417898,-0.206265,0.000000
4.190000,2.498758,0.236891,-1.504362,0.586682,0.075253,0.109944,-1.270912,0.713044,-0.210620,2.062557,-4.187926,-0.280828,-0.460553,5.503123,3.249896,0.070475,0.126156,0.000000,-0.412686,-0.205559,-0.000000
4.200000,2.504562,0.237678,-1.503273,0.574076,0.082175,0.107825,-1.250313,0.671447,-0.213274,2.056961,-4.130862,-0.250283,-0.603721,5.908323,3.011173,0.066376,0.124100,0.000000,-0.407117,-0.204689,0.000000
4.210000,2.510240,0.238533,-1.502206,0.561676,0.088684,0.105680,-1.229775,0.630440,-0.215628,2.050427,-4.069901,-0.220820,-0.735027,6.289429,2.792003,0.062334,0.122053,0.000000,-0.401179,-0.203752,0.000000
4.220000,2.515796,0.239451,-1.501160,0.549480,0.094786,0.103513,-1.209311,0.590062,-0.217705,2.041986,-4.005064,-0.195234,-0.918494,6.665304,2.417951,0.058354,0.120017,0.000000,-0.394886,-0.202684,0.000000
4.230000,2.521231,0.240427,-1.500135,0.537489,0.100488,0.101327,-1.188938,0.550350,-0.219535,2.032784,-3.936861,-0.170515,-0.919142,6.971194,2.531667,0.054438,0.117993,0.000000,-0.388267,-0.201559,0.000000
4.240000,2.526547,0.241459,-1.499133,0.525701,0.105796,0.099123,-1.168658,0.511335,-0.221116,2.022973,-3.865531,-0.146361,-1.074569,7.300338,2.211272,0.050589,0.115980,0.000000,-0.381343,-0.200390,0.000000
4.250000,2.531745,0.242542,-1.498153,0.514116,0.110717,0.096905,-1.148484,0.473050,-0.222474,2.011609,-3.791006,-0.125462,-1.163601,7.591824,2.061581,0.046812,0.113980,0.000000,-0.374117,-0.199111,0.000000
4.260000,2.536830,0.243672,-1.497195,0.502731,0.115259,0.094674,-1.128427,0.435523,-0.223627,1.999628,-3.713865,-0.105235,-1.243758,7.859067,1.928634,0.043108,0.111994,0.000000,-0.366633,-0.197784,0.000000
4.270000,2.541801,0.244846,-1.496260,0.491547,0.119430,0.092433,-1.108495,0.398783,-0.224588,1.986646,-3.633654,-0.087368,-1.338798,8.154012,1.703227,0.039480,0.110021,0.000000,-0.358850,-0.196390,0.000000
4.280000,2.546661,0.246060,-1.495346,0.480561,0.123237,0.090183,-1.088696,0.362857,-0.225375,1.973143,-3.551393,-0.069946,-1.359938,8.293817,1.785357,0.035931,0.108063,0.000000,-0.350860,-0.194953,-0.000000
4.290000,2.551413,0.247310,-1.494456,0.469772,0.126690,0.087926,-1.069033,0.327761,-0.225987,1.959222,-3.467330,-0.052748,-1.435567,8.541238,1.599843,0.032463,0.106120,0.000000,-0.342686,-0.193481,0.000000
4.300000,2.556057,0.248592,-1.493588,0.459180,0.129796,0.085664,-1.049514,0.293519,-0.226437,1.944569,-3.380856,-0.037418,-1.481731,8.724242,1.523890,0.029079,0.104192,0.000000,-0.334273,-0.191960,-0.000000
4.310000,2.560597,0.249904,-1.492743,0.448782,0.132563,0.083398,-1.030143,0.260149,-0.226736,1.929640,-3.292817,-0.022393,-1.519738,8.887816,1.458868,0.025779,0.102279,0.000000,-0.325699,-0.190417,-0.000000
4.320000,2.565033,0.251242,-1.491920,0.438576,0.135001,0.081130,-1.010924,0.227668,-0.226889,1.914042,-3.203098,-0.008425,-1.582464,9.045426,1.360046,0.022565,0.100382,0.000000,-0.316954,-0.188821,0.000000
4.330000,2.569369,0.252603,-1.491120,0.428563,0.137120,0.078861,-0.991862,0.196091,-0.226905,1.898355,-3.112125,0.005334,-1.553526,9.145745,1.394077,0.019440,0.098502,0.000000,-0.308079,-0.187221,-0.000000
4.340000,2.573605,0.253984,-1.490343,0.418739,0.138926,0.076592,-0.972957,0.165429,-0.226783,1.882660,-3.020101,0.019015,-1.601056,9.263203,1.319957,0.016404,0.096637,0.000000,-0.299093,-0.185623,0.000000
4.350000,2.577744,0.255381,-1.489588,0.409103,0.140431,0.074326,-0.954211,0.135693,-0.226528,1.866494,-2.926985,0.031962,-1.615259,9.349576,1.294449,0.013458,0.094789,0.000000,-0.289993,-0.183987,0.000000
4.360000,2.581788,0.256791,-1.488856,0.399654,0.141643,0.072062,-0.935627,0.106891,-0.226144,1.850263,-2.833248,0.044701,-1.626491,9.415716,1.273004,0.010604,0.092957,0.000000,-0.280826,-0.182350,-0.000000
4.370000,2.585738,0.258213,-1.488147,0.390390,0.142572,0.069803,-0.917205,0.079032,-0.225633,1.834011,-2.738537,0.057615,-1.626761,9.503095,1.292835,0.007842,0.091142,0.000000,-0.271558,-0.180710,0.000000
4.380000,2.589596,0.259642,-1.487460,0.381309,0.143227,0.067550,-0.898947,0.052121,-0.224993,1.817664,-2.643671,0.070202,-1.642361,9.466787,1.224848,0.005173,0.089343,0.000000,-0.262268,-0.179066,0.000000
4.390000,2.593365,0.261076,-1.486796,0.372410,0.143618,0.065304,-0.880852,0.026158,-0.224230,1.801247,-2.548847,0.082491,-1.636962,9.515591,1.251993,0.002597,0.087560,0.000000,-0.252979,-0.177421,0.000000
4.400000,2.597045,0.262513,-1.486154,0.363692,0.143753,0.063066,-0.862922,0.001146,-0.223342,1.784903,-2.453588,0.095101,-1.635187,9.513176,1.252638,0.000114,0.085794,0.000000,-0.243641,-0.175782,0.000000
4.410000,2.600639,0.263951,-1.485535,0.355151,0.143644,0.060837,-0.845155,-0.022915,-0.222329,1.768490,-2.358619,0.107517,-1.632879,9.494312,1.255252,-0.002276,0.084045,0.000000,-0.234329,-0.174140,0.000000
4.420000,2.604149,0.265386,-1.484937,0.346788,0.143298,0.058620,-0.827551,-0.046026,-0.221189,1.752380,-2.263602,0.120438,-1.602625,9.490641,1.305887,-0.004573,0.082311,0.000000,-0.225008,-0.172527,0.000000
4.430000,2.607576,0.266816,-1.484362,0.338600,0.142726,0.056414,-0.810108,-0.068189,-0.219921,1.736152,-2.169189,0.133147,-1.643288,9.389127,1.235527,-0.006776,0.080594,0.000000,-0.215743,-0.170906,0.000000
4.440000,2.610921,0.268239,-1.483809,0.330585,0.141938,0.054222,-0.792828,-0.089413,-0.218527,1.719795,-2.075546,0.145628,-1.614262,9.353087,1.284507,-0.008888,0.078893,0.000000,-0.206552,-0.169278,0.000000
4.450000,2.614188,0.269654,-1.483278,0.322743,0.140941,0.052044,-0.775710,-0.109701,-0.217006,1.703746,-1.982308,0.158641,-1.608950,9.276244,1.294128,-0.010908,0.077208,0.000000,-0.197399,-0.167678,0.000000
4.460000,2.617377,0.271058,-1.482768,0.315070,0.139747,0.049882,-0.758754,-0.129062,-0.215356,1.687598,-1.890001,0.171422,-1.604738,9.186877,1.300770,-0.012836,0.075539,0.000000,-0.188334,-0.166074,0.000000
4.470000,2.620490,0.272448,-1.482280,0.307567,0.138363,0.047737,-0.741957,-0.147504,-0.213574,1.671797,-1.798577,0.185012,-1.571303,9.092289,1.379397,-0.014675,0.073886,0.000000,-0.179356,-0.164501,0.000000
4.480000,2.623529,0.273824,-1.481813,0.300231,0.136800,0.045611,-0.725318,-0.165037,-0.211657,1.655842,-1.708275,0.198216,-1.620235,8.966037,1.259939,-0.016424,0.072249,0.000000,-0.170486,-0.162919,0.000000
4.490000,2.626495,0.275184,-1.481368,0.293060,0.135065,0.043504,-0.708841,-0.181674,-0.209612,1.639702,-1.619217,0.210967,-1.592396,8.847435,1.328159,-0.018085,0.070628,0.000000,-0.161736,-0.161326,0.000000
4.500000,2.629391,0.276525,-1.480943,0.286053,0.133169,0.041419,-0.692523,-0.197426,-0.207435,1.623847,-1.531394,0.224447,-1.593649,8.711679,1.329655,-0.019659,0.069022,0.000000,-0.153107,-0.159759,0.000000
4.510000,2.632217,0.277847,-1.480539,0.279209,0.131120,0.039356,-0.676365,-0.212306,-0.205125,1.607812,-1.444982,0.237524,-1.597540,8.566311,1.326586,-0.021147,0.067432,0.000000,-0.144615,-0.158180,0.000000
4.520000,2.634975,0.279147,-1.480156,0.272526,0.128926,0.037317,-0.660366,-0.226331,-0.202681,1.592037,-1.360124,0.251348,-1.573660,8.406475,1.397679,-0.022552,0.065858,0.000000,-0.136276,-0.156625,0.000000
4.530000,2.637668,0.280425,-1.479793,0.266001,0.126596,0.035303,-0.644525,-0.239514,-0.200100,1.576000,-1.276829,0.264628,-1.634776,8.251039,1.256580,-0.023873,0.064299,0.000000,-0.128087,-0.155052,0.000000
4.540000,2.640296,0.281678,-1.479450,0.259635,0.124138,0.033315,-0.628847,-0.251873,-0.197391,1.559649,-1.195182,0.277277,-1.620047,8.074376,1.312822,-0.025114,0.062756,0.000000,-0.120057,-0.153454,0.000000
4.550000,2.642861,0.282907,-1.479126,0.253424,0.121561,0.031356,-0.613331,-0.263424,-0.194551,1.543452,-1.115345,0.290530,-1.635600,7.894302,1.296997,-0.026275,0.061229,0.000000,-0.112205,-0.151871,-0.000000
4.560000,2.645365,0.284109,-1.478822,0.247367,0.118872,0.029425,-0.597979,-0.274185,-0.191582,1.526916,-1.037296,0.303269,-1.655596,7.707582,1.276834,-0.027359,0.059717,0.000000,-0.104526,-0.150261,-0.000000
4.570000,2.647809,0.285284,-1.478538,0.241464,0.116080,0.027524,-0.582792,-0.284177,-0.188485,1.510480,-0.961280,0.316300,-1.648421,7.501214,1.302688,-0.028366,0.058222,0.000000,-0.097045,-0.148662,0.000000
4.580000,2.650195,0.286431,-1.478272,0.235711,0.113191,0.025656,-0.567771,-0.293417,-0.185258,1.493597,-0.887150,0.328762,-1.729458,7.323901,1.188251,-0.029300,0.056743,0.000000,-0.089746,-0.147024,0.000000
4.590000,2.652524,0.287548,-1.478025,0.230108,0.110214,0.023820,-0.552922,-0.301926,-0.181912,1.476203,-0.814957,0.340576,-1.733776,7.107182,1.200029,-0.030162,0.055281,0.000000,-0.082633,-0.145342,0.000000
4.600000,2.654797,0.288635,-1.477795,0.224652,0.107155,0.022018,-0.538247,-0.309724,-0.178446,1.458764,-0.744966,0.352528,-1.770418,6.896945,1.163048,-0.030953,0.053835,0.000000,-0.075735,-0.143657,0.000000
4.610000,2.657017,0.289690,-1.477584,0.219342,0.104022,0.020251,-0.523749,-0.316832,-0.174864,1.440777,-0.676995,0.363824,-1.812191,6.683202,1.120238,-0.031677,0.052406,0.000000,-0.069030,-0.141923,-0.000000
4.620000,2.659185,0.290715,-1.477390,0.214176,0.100821,0.018521,-0.509432,-0.323272,-0.171169,1.422649,-0.611437,0.375146,-1.829406,6.440639,1.119302,-0.032335,0.050995,0.000000,-0.062561,-0.140176,0.000000
4.630000,2.661301,0.291707,-1.477214,0.209153,0.097559,0.016828,-0.495298,-0.329067,-0.167364,1.403853,-0.547924,0.385688,-1.931179,6.261773,0.987508,-0.032929,0.049601,0.000000,-0.056288,-0.138369,-0.000000
4.640000,2.663368,0.292666,-1.477054,0.204270,0.094242,0.015174,-0.481357,-0.334237,-0.163458,1.384316,-0.486472,0.395369,-1.961771,6.015199,0.972388,-0.033461,0.048226,0.000000,-0.050211,-0.136492,0.000000
4.650000,2.665387,0.293591,-1.476910,0.199525,0.090876,0.013559,-0.467613,-0.338805,-0.159456,1.364481,-0.427518,0.404910,-2.022595,5.788074,0.911068,-0.033934,0.046870,0.000000,-0.044378,-0.134587,0.000000
4.660000,2.667359,0.294483,-1.476782,0.194917,0.087467,0.011985,-0.454070,-0.342794,-0.155363,1.343872,-0.370640,0.413577,-2.089320,5.560822,0.844288,-0.034349,0.045533,0.000000,-0.038742,-0.132610,0.000000
4.670000,2.669286,0.295341,-1.476670,0.190443,0.084022,0.010452,-0.440737,-0.346228,-0.151185,1.322774,-0.316550,0.421991,-2.141463,5.282547,0.815710,-0.034710,0.044217,0.000000,-0.033379,-0.130584,0.000000
4.680000,2.671168,0.296163,-1.476573,0.186101,0.080545,0.008962,-0.427618,-0.349132,-0.146927,1.300809,-0.264458,0.429411,-2.252744,5.136399,0.666723,-0.035018,0.042920,0.000000,-0.028205,-0.128476,0.000000
4.690000,2.673008,0.296951,-1.476491,0.181890,0.077041,0.007514,-0.414724,-0.351524,-0.142601,1.277910,-0.214342,0.435760,-2.317616,4.860819,0.624879,-0.035275,0.041646,0.000000,-0.023220,-0.126277,0.000000
4.700000,2.674807,0.297704,-1.476423,0.177806,0.073516,0.006110,-0.402062,-0.353428,-0.138213,1.254348,-0.167026,0.441703,-2.405782,4.628124,0.540793,-0.035483,0.040393,0.000000,-0.018507,-0.124012,0.000000
4.710000,2.676565,0.298422,-1.476368,0.173848,0.069974,0.004750,-0.389640,-0.354870,-0.133770,1.229767,-0.121720,0.446684,-2.499887,4.397233,0.454198,-0.035645,0.039164,0.000000,-0.013986,-0.121648,0.000000
4.720000,2.678284,0.299104,-1.476327,0.170013,0.066420,0.003435,-0.377469,-0.355873,-0.129282,1.204437,-0.079411,0.450768,-2.578058,4.099223,0.362582,-0.035764,0.037959,0.000000,-0.009756,-0.119209,-0.000000
4.730000,2.679965,0.299750,-1.476300,0.166298,0.062858,0.002164,-0.365555,-0.356465,-0.124758,1.177954,-0.039008,0.453935,-2.719734,3.982347,0.270153,-0.035841,0.036779,0.000000,-0.005709,-0.116655,0.000000
4.740000,2.681610,0.300361,-1.476284,0.162701,0.059292,0.000940,-0.353914,-0.356660,-0.120206,1.150249,-0.000465,0.456148,-2.810895,3.691308,0.171209,-0.035878,0.035625,0.000000,-0.001839,-0.113978,0.000000
4.750000,2.683220,0.300936,-1.476281,0.159218,0.055726,-0.000240,-0.342553,-0.356484,-0.115638,1.121614,0.035115,0.457350,-2.927258,3.459703,0.069449,-0.035879,0.034498,0.000000,0.001742,-0.111207,0.000000
4.760000,2.684795,0.301475,-1.476289,0.155848,0.052163,-0.001373,-0.331486,-0.355963,-0.111063,1.091697,0.068874,0.457561,-3.048857,3.232627,-0.034922,-0.035844,0.033400,0.000000,0.005148,-0.108307,0.000000
4.770000,2.686337,0.301979,-1.476308,0.152588,0.048608,-0.002461,-0.320723,-0.355119,-0.106491,1.060694,0.099222,0.456574,-3.160627,2.894526,-0.155975,-0.035777,0.032331,0.000000,0.008220,-0.105296,0.000000
4.780000,2.687847,0.302447,-1.476338,0.149433,0.045062,-0.003503,-0.310277,-0.353983,-0.101934,1.028301,0.127975,0.454575,-3.319149,2.857982,-0.244285,-0.035680,0.031293,0.000000,0.011139,-0.102143,0.000000
4.790000,2.689326,0.302880,-1.476378,0.146381,0.041529,-0.004500,-0.300162,-0.352564,-0.097403,0.994453,0.155214,0.451538,-3.443153,2.531496,-0.370490,-0.035555,0.030287,0.000000,0.013914,-0.098841,0.000000
4.800000,2.690775,0.303278,-1.476428,0.143429,0.038012,-0.005451,-0.290392,-0.350891,-0.092908,0.959353,0.179098,0.447213,-3.585764,2.303241,-0.488103,-0.035403,0.029315,0.000000,0.016358,-0.095410,-0.000000
4.810000,2.692195,0.303641,-1.476487,0.140572,0.034512,-0.006358,-0.280980,-0.348985,-0.088462,0.922778,0.201790,0.441829,-3.733440,2.087060,-0.607140,-0.035228,0.028379,0.000000,0.018690,-0.091826,0.000000
4.820000,2.693587,0.303968,-1.476555,0.137808,0.031032,-0.007221,-0.271941,-0.346875,-0.084077,0.884619,0.219476,0.434900,-3.894754,1.593140,-0.762173,-0.035031,0.027478,0.000000,0.020524,-0.088080,-0.000000
4.830000,2.694951,0.304261,-1.476631,0.135132,0.027575,-0.008040,-0.263292,-0.344596,-0.079767,0.844963,0.236654,0.426932,-4.037098,1.846418,-0.831315,-0.034817,0.026616,0.000000,0.022312,-0.084178,0.000000
4.840000,2.696290,0.304520,-1.476715,0.132541,0.024141,-0.008816,-0.255047,-0.342141,-0.075542,0.803766,0.253495,0.417919,-4.207939,1.376418,-0.989032,-0.034585,0.025794,0.000000,0.024071,-0.080115,0.000000
4.850000,2.697603,0.304744,-1.476807,0.130030,0.020733,-0.009551,-0.247223,-0.339545,-0.071415,0.760832,0.265396,0.407287,-4.375606,1.147385,-1.120828,-0.034338,0.025014,0.000000,0.025339,-0.075873,-0.000000
4.860000,2.698891,0.304935,-1.476906,0.127595,0.017351,-0.010245,-0.239836,-0.336838,-0.067400,0.716214,0.275657,0.395401,-4.548942,0.903796,-1.256856,-0.034079,0.024277,0.000000,0.026445,-0.071455,-0.000000
4.870000,2.700155,0.305091,-1.477012,0.125231,0.013996,-0.010899,-0.232904,-0.334041,-0.063511,0.669837,0.283451,0.382139,-4.727374,0.653848,-1.396076,-0.033810,0.023584,0.000000,0.027307,-0.066853,-0.000000
4.880000,2.701395,0.305215,-1.477124,0.122935,0.010670,-0.011516,-0.226446,-0.331178,-0.059762,0.621650,0.288710,0.367469,-4.910826,0.396585,-1.538514,-0.033533,0.022939,0.000000,0.027916,-0.062063,0.000000
4.890000,2.702614,0.305305,-1.477242,0.120701,0.007373,-0.012095,-0.220478,-0.328275,-0.056167,0.571604,0.291355,0.351358,-5.099134,0.131051,-1.684206,-0.033252,0.022343,0.000000,0.028265,-0.057080,0.000000
4.900000,2.703810,0.305362,-1.477366,0.118524,0.004105,-0.012640,-0.215020,-0.325360,-0.052740,0.519642,0.291301,0.333775,-5.293157,-0.143666,-1.833054,-0.032969,0.021798,0.000000,0.028344,-0.051897,-0.000000
4.910000,2.704984,0.305387,-1.477495,0.116399,0.000866,-0.013151,-0.210091,-0.322458,-0.049496,0.465721,0.288448,0.314686,-5.491821,-0.428575,-1.985207,-0.032686,0.021305,0.000000,0.028143,-0.046510,0.000000
4.920000,2.706138,0.305380,-1.477629,0.114320,-0.002345,-0.013630,-0.205712,-0.319600,-0.046451,0.409789,0.282692,0.294060,-5.695472,-0.724609,-2.140631,-0.032407,0.020868,0.000000,0.027651,-0.040914,-0.000000
4.930000,2.707271,0.305340,-1.477767,0.112282,-0.005527,-0.014080,-0.201903,-0.316815,-0.043620,0.351796,0.273916,0.271862,-5.904032,-1.032723,-2.299326,-0.032134,0.020487,0.000000,0.026855,-0.035104,-0.000000
4.940000,2.708384,0.305269,-1.477910,0.110280,-0.008681,-0.014503,-0.198683,-0.314132,-0.041019,0.291693,0.261994,0.248062,-6.117338,-1.353870,-2.461264,-0.031871,0.020166,0.000000,0.025743,-0.029076,0.000000
4.950000,2.709476,0.305167,-1.478057,0.108307,-0.011810,-0.014902,-0.196076,-0.311586,-0.038664,0.229424,0.246792,0.222624,-6.336292,-1.688988,-2.626729,-0.031621,0.019906,0.000000,0.024300,-0.022824,-0.000000
4.960000,2.710550,0.305033,-1.478208,0.106356,-0.014914,-0.015278,-0.194102,-0.309208,-0.036572,0.164947,0.228165,0.195516,-6.559756,-2.039053,-2.795420,-0.031386,0.019710,0.000000,0.022512,-0.016346,0.000000
4.970000,2.711604,0.304869,-1.478363,0.104423,-0.017995,-0.015634,-0.192784,-0.307034,-0.034760,0.098212,0.205958,0.166704,-6.788117,-2.405010,-2.967475,-0.031172,0.019580,0.000000,0.020363,-0.009636,-0.000000
4.980000,2.712638,0.304673,-1.478521,0.102498,-0.021055,-0.015974,-0.192146,-0.305101,-0.033244,0.029169,0.180008,0.136155,-7.021366,-2.787817,-3.142928,-0.030980,0.019518,0.000000,0.017837,-0.002691,0.000000
4.990000,2.713654,0.304448,-1.478682,0.100577,-0.024098,-0.016300,-0.192209,-0.303447,-0.032043,-0.042232,0.150142,0.103834,-7.259526,-3.188428,-3.321828,-0.030816,0.019527,0.000000,0.014916,0.004493,0.000000
5.000000,2.714650,0.304191,-1.478847,0.098652,-0.027125,-0.016616,-0.192998,-0.302112,-0.031173,-0.116038,0.116177,0.069707,-7.502667,-3.607796,-3.504264,-0.030683,0.019609,0.000000,0.011582,0.011920,0.000000
