time,x,y,z,vx,vy,vz,ax,ay,az,jx,jy,jz,sx,sy,sz,qw,qx,qy,qz,wx,wy,wz
0.000000,0.022172,-3.007746,0.508312,-0.005981,-0.017270,-0.007091,-0.112310,0.316551,0.009123,0.922494,-1.780987,-0.085653,-6.203651,16.474305,3.753125,0.999982,0.003828,-0.004435,-0.001352,0.003056,-0.014660,0.005585
0.010000,0.022107,-3.007903,0.508241,-0.007059,-0.014190,-0.007003,-0.103389,0.299555,0.008452,0.862326,-1.619019,-0.048771,-5.833141,15.922003,3.623612,0.999982,0.003827,-0.004464,-0.001334,-0.000010,-0.006580,0.003822
0.020000,0.022031,-3.008031,0.508172,-0.008051,-0.011273,-0.006921,-0.095051,0.284152,0.008143,0.805769,-1.462495,-0.013175,-5.481326,15.385207,3.495975,0.999982,0.003826,-0.004498,-0.001315,-0.001979,-0.001379,0.002667
0.030000,0.021946,-3.008129,0.508103,-0.008962,-0.008502,-0.006839,-0.087262,0.270288,0.008184,0.752639,-1.311264,0.021154,-5.147618,14.863520,3.370199,0.999982,0.003826,-0.004529,-0.001296,-0.003174,0.001789,0.001944
0.040000,0.021852,-3.008201,0.508035,-0.009798,-0.005863,-0.006756,-0.079988,0.257910,0.008562,0.702759,-1.165176,0.054235,-4.831431,14.356480,3.246263,0.999982,0.003822,-0.004552,-0.001280,-0.003842,0.003571,0.001519
0.050000,0.021751,-3.008247,0.507968,-0.010564,-0.003339,-0.006667,-0.073197,0.246967,0.009264,0.655954,-1.024079,0.086087,-4.532178,13.864474,3.124241,0.999982,0.003814,-0.004563,-0.001266,-0.004166,0.004454,0.001290
0.060000,0.021641,-3.008268,0.507902,-0.011264,-0.000919,-0.006569,-0.066859,0.237412,0.010280,0.612060,-0.887837,0.116726,-4.249270,13.386250,3.004020,0.999982,0.003799,-0.004556,-0.001257,-0.004282,0.004788,0.001184
0.070000,0.021525,-3.008266,0.507836,-0.011902,0.001413,-0.006460,-0.060946,0.229195,0.011595,0.570916,-0.756309,0.146173,-3.982120,12.921758,2.885631,0.999982,0.003779,-0.004535,-0.001250,-0.004283,0.004820,0.001147
0.080000,0.021403,-3.008240,0.507772,-0.012484,0.003670,-0.006337,-0.055432,0.222270,0.013199,0.532368,-0.629358,0.174445,-3.730142,12.470528,2.769067,0.999982,0.003756,-0.004507,-0.001245,-0.004231,0.004714,0.001145
0.090000,0.021276,-3.008192,0.507710,-0.013012,0.005863,-0.006195,-0.050291,0.216593,0.015080,0.496265,-0.506856,0.201561,-3.492746,12.031919,2.654325,0.999982,0.003732,-0.004477,-0.001241,-0.004166,0.004571,0.001156
0.100000,0.021143,-3.008123,0.507649,-0.013491,0.008006,-0.006034,-0.045499,0.212119,0.017227,0.462466,-0.388660,0.227537,-3.269349,11.607459,2.541333,0.999982,0.003710,-0.004452,-0.001236,-0.004107,0.004446,0.001166
0.110000,0.021006,-3.008032,0.507589,-0.013923,0.010109,-0.005850,-0.041034,0.208806,0.019627,0.430833,-0.274660,0.252393,-3.059361,11.194528,2.430162,0.999983,0.003690,-0.004429,-0.001230,-0.004063,0.004362,0.001171
0.120000,0.020865,-3.007921,0.507532,-0.014313,0.012185,-0.005641,-0.036876,0.206612,0.022271,0.401236,-0.164729,0.276146,-2.862194,10.793605,2.320774,0.999983,0.003669,-0.004407,-0.001224,-0.004037,0.004321,0.001168
0.130000,0.020720,-3.007789,0.507476,-0.014662,0.014245,-0.005404,-0.033003,0.205498,0.025146,0.373549,-0.058749,0.298814,-2.677261,10.404330,2.213163,0.999983,0.003649,-0.004385,-0.001218,-0.004023,0.004313,0.001160
0.140000,0.020572,-3.007636,0.507424,-0.014974,0.016299,-0.005137,-0.029399,0.205424,0.028243,0.347652,0.043395,0.320415,-2.503977,10.026282,2.107342,0.999983,0.003629,-0.004363,-0.001213,-0.004016,0.004325,0.001148
0.150000,0.020421,-3.007463,0.507374,-0.015251,0.018357,-0.004838,-0.026045,0.206354,0.031551,0.323432,0.141812,0.340967,-2.341755,9.658926,2.003353,0.999983,0.003609,-0.004342,-0.001207,-0.004012,0.004341,0.001135
0.160000,0.020267,-3.007269,0.507327,-0.015495,0.020429,-0.004505,-0.022925,0.208249,0.035059,0.300782,0.236616,0.360485,-2.189996,9.302868,1.900832,0.999984,0.003589,-0.004320,-0.001201,-0.004004,0.004350,0.001124
0.170000,0.020111,-3.007054,0.507284,-0.015710,0.022525,-0.004136,-0.020024,0.211074,0.038758,0.279599,0.327906,0.378989,-2.048128,8.956672,1.800204,0.999984,0.003569,-0.004298,-0.001196,-0.003991,0.004343,0.001115
0.180000,0.019953,-3.006818,0.507244,-0.015896,0.024654,-0.003730,-0.017328,0.214795,0.042636,0.259788,0.415783,0.396495,-1.915558,8.620343,1.701297,0.999984,0.003549,-0.004277,-0.001190,-0.003971,0.004320,0.001110
0.190000,0.019793,-3.006561,0.507209,-0.016057,0.026824,-0.003283,-0.014824,0.219379,0.046684,0.241259,0.500344,0.413020,-1.791698,8.293451,1.604091,0.999984,0.003529,-0.004256,-0.001184,-0.003947,0.004283,0.001108
0.200000,0.019632,-3.006282,0.507179,-0.016193,0.029044,-0.002795,-0.012499,0.224792,0.050893,0.223927,0.581686,0.428582,-1.675961,7.976050,1.508618,0.999984,0.003510,-0.004234,-0.001179,-0.003919,0.004238,0.001107
0.210000,0.019469,-3.005980,0.507154,-0.016307,0.031322,-0.002265,-0.010341,0.231002,0.055253,0.207894,0.659825,0.443199,-1.564220,7.665933,1.414841,0.999984,0.003490,-0.004213,-0.001173,-0.003901,0.004218,0.001101
0.220000,0.019306,-3.005655,0.507134,-0.016401,0.033666,-0.001690,-0.008340,0.237979,0.059754,0.192323,0.735149,0.456883,-1.519898,7.388007,1.322458,0.999985,0.003471,-0.004192,-0.001168,-0.003883,0.004197,0.001096
0.230000,0.019141,-3.005306,0.507120,-0.016475,0.036084,-0.001069,-0.006490,0.245694,0.064387,0.178131,0.807355,0.469657,-1.318501,7.054178,1.232543,0.999985,0.003451,-0.004171,-0.001162,-0.003865,0.004177,0.001090
0.240000,0.018976,-3.004933,0.507113,-0.016531,0.038583,-0.000402,-0.004773,0.254116,0.069144,0.165298,0.876508,0.481537,-1.280625,6.790015,1.143534,0.999985,0.003432,-0.004150,-0.001157,-0.003847,0.004157,0.001085
0.250000,0.018811,-3.004534,0.507112,-0.016571,0.041169,0.000314,-0.003183,0.263216,0.074015,0.152767,0.943074,0.492534,-1.195006,6.512346,1.056416,0.999985,0.003413,-0.004130,-0.001152,-0.003829,0.004137,0.001079
0.260000,0.018645,-3.004109,0.507119,-0.016595,0.043849,0.001079,-0.001713,0.272968,0.078992,0.141336,1.006787,0.502672,-1.114399,6.241861,0.970988,0.999985,0.003394,-0.004109,-0.001146,-0.003811,0.004117,0.001074
0.270000,0.018479,-3.003657,0.507134,-0.016605,0.046630,0.001894,-0.000356,0.283344,0.084066,0.130258,1.068029,0.511956,-1.080558,5.997726,0.886436,0.999985,0.003375,-0.004089,-0.001141,-0.003794,0.004097,0.001068
0.280000,0.018313,-3.003176,0.507157,-0.016603,0.049518,0.002761,0.000895,0.294319,0.089228,0.120163,1.126556,0.520414,-0.938552,5.708441,0.805527,0.999985,0.003356,-0.004068,-0.001136,-0.003776,0.004077,0.001063
0.290000,0.018147,-3.002666,0.507189,-0.016588,0.052519,0.003679,0.002051,0.305866,0.094471,0.111034,1.182421,0.528064,-0.909610,5.475644,0.724226,0.999986,0.003337,-0.004048,-0.001130,-0.003759,0.004057,0.001058
0.300000,0.017981,-3.002126,0.507231,-0.016562,0.055637,0.004650,0.003116,0.317960,0.099787,0.102141,1.236003,0.534907,-0.847927,5.231612,0.645085,0.999986,0.003318,-0.004028,-0.001125,-0.003741,0.004038,0.001052
0.310000,0.017816,-3.001553,0.507282,-0.016526,0.058879,0.005675,0.004097,0.330578,0.105167,0.094032,1.287109,0.540973,-0.789914,4.995786,0.567865,0.999986,0.003299,-0.004007,-0.001120,-0.003724,0.004018,0.001047
0.320000,0.017651,-3.000948,0.507345,-0.016480,0.062250,0.006754,0.004997,0.343695,0.110604,0.086190,1.336022,0.546272,-0.764185,4.780019,0.492131,0.999986,0.003281,-0.003987,-0.001115,-0.003707,0.003999,0.001042
0.330000,0.017486,-3.000308,0.507418,-0.016426,0.065755,0.007887,0.005823,0.357290,0.116090,0.079048,1.382563,0.550819,-0.664454,4.528751,0.417581,0.999986,0.003262,-0.003967,-0.001109,-0.003690,0.003980,0.001036
0.340000,0.017322,-2.999632,0.507502,-0.016364,0.069398,0.009076,0.006581,0.371339,0.121618,0.072590,1.426776,0.554630,-0.642460,4.322858,0.344959,0.999986,0.003244,-0.003948,-0.001104,-0.003673,0.003961,0.001031
0.350000,0.017159,-2.998919,0.507599,-0.016295,0.073183,0.010320,0.007275,0.385819,0.127180,0.066315,1.468972,0.557722,-0.598178,4.109048,0.273663,0.999986,0.003226,-0.003928,-0.001099,-0.003656,0.003941,0.001026
0.360000,0.016996,-2.998168,0.507709,-0.016219,0.077116,0.011619,0.007909,0.400711,0.132770,0.060600,1.508981,0.560107,-0.556497,3.900294,0.203912,0.999987,0.003207,-0.003908,-0.001094,-0.003640,0.003922,0.001021
0.370000,0.016835,-2.997376,0.507832,-0.016137,0.081199,0.012975,0.008487,0.415992,0.138380,0.055074,1.547055,0.561807,-0.538264,3.708921,0.136090,0.999987,0.003189,-0.003889,-0.001089,-0.003623,0.003904,0.001016
0.380000,0.016674,-2.996543,0.507969,-0.016049,0.085437,0.014387,0.009012,0.431645,0.144004,0.050052,1.583043,0.562830,-0.466268,3.489324,0.068626,0.999987,0.003171,-0.003869,-0.001084,-0.003606,0.003885,0.001010
0.390000,0.016514,-2.995667,0.508120,-0.015957,0.089833,0.015855,0.009490,0.447646,0.149634,0.045523,1.616985,0.563189,-0.450733,3.306353,0.003769,0.999987,0.003153,-0.003850,-0.001079,-0.003590,0.003866,0.001005
0.400000,0.016355,-2.994746,0.508286,-0.015859,0.094391,0.017380,0.009923,0.463979,0.155265,0.041122,1.649137,0.562907,-0.419001,3.117666,-0.060059,0.999987,0.003135,-0.003830,-0.001074,-0.003574,0.003847,0.001000
0.410000,0.016196,-2.993779,0.508468,-0.015758,0.099113,0.018960,0.010314,0.480623,0.160890,0.037124,1.679360,0.561995,-0.389136,2.933095,-0.122353,0.999987,0.003117,-0.003811,-0.001069,-0.003557,0.003829,0.000995
0.420000,0.016039,-2.992763,0.508665,-0.015653,0.104004,0.020597,0.010666,0.497560,0.166503,0.033257,1.707863,0.560463,-0.376518,2.763092,-0.183493,0.999987,0.003100,-0.003792,-0.001064,-0.003541,0.003810,0.000990
0.430000,0.015883,-2.991698,0.508880,-0.015545,0.109066,0.022290,0.010980,0.514774,0.172098,0.029754,1.734526,0.558333,-0.324228,2.569978,-0.242379,0.999988,0.003082,-0.003773,-0.001059,-0.003525,0.003792,0.000985
0.440000,0.015729,-2.990581,0.509111,-0.015434,0.114300,0.024039,0.011262,0.532245,0.177668,0.026607,1.759384,0.555618,-0.313526,2.407714,-0.300604,0.999988,0.003064,-0.003754,-0.001054,-0.003509,0.003774,0.000980
0.450000,0.015575,-2.989412,0.509361,-0.015320,0.119711,0.025844,0.011513,0.549956,0.183208,0.023546,1.782640,0.552326,-0.290851,2.239770,-0.357191,0.999988,0.003047,-0.003735,-0.001049,-0.003493,0.003756,0.000975
0.460000,0.015422,-2.988187,0.509628,-0.015204,0.125300,0.027703,0.011734,0.567892,0.188712,0.020775,1.804194,0.548478,-0.269535,2.076035,-0.412342,0.999988,0.003030,-0.003717,-0.001044,-0.003477,0.003738,0.000970
0.470000,0.015271,-2.986905,0.509915,-0.015085,0.131070,0.029618,0.011928,0.586035,0.194176,0.018097,1.824214,0.544083,-0.260625,1.924350,-0.466387,0.999988,0.003012,-0.003698,-0.001039,-0.003462,0.003720,0.000965
0.480000,0.015120,-2.985565,0.510221,-0.014965,0.137022,0.031587,0.012097,0.604371,0.199592,0.015678,1.842604,0.539158,-0.223190,1.754009,-0.518270,0.999988,0.002995,-0.003679,-0.001035,-0.003446,0.003702,0.000960
0.490000,0.014971,-2.984164,0.510547,-0.014843,0.143158,0.033610,0.012243,0.622882,0.204957,0.013513,1.859392,0.533719,-0.215662,1.608425,-0.569515,0.999988,0.002978,-0.003661,-0.001030,-0.003430,0.003684,0.000955
0.500000,0.014824,-2.982701,0.510893,-0.014720,0.149480,0.035686,0.012367,0.641554,0.210265,0.011410,1.874758,0.527773,-0.199525,1.459984,-0.619216,0.999988,0.002961,-0.003643,-0.001025,-0.003415,0.003666,0.000950
0.510000,0.014677,-2.981174,0.511261,-0.014596,0.155989,0.037815,0.012472,0.660372,0.215511,0.009511,1.888604,0.521338,-0.184376,1.314268,-0.667547,0.999989,0.002944,-0.003624,-0.001020,-0.003400,0.003649,0.000945
0.520000,0.014532,-2.979580,0.511650,-0.014471,0.162688,0.039996,0.012558,0.679321,0.220690,0.007681,1.901095,0.514426,-0.177924,1.180123,-0.714610,0.999989,0.002927,-0.003606,-0.001016,-0.003384,0.003631,0.000940
0.530000,0.014388,-2.977919,0.512061,-0.014345,0.169576,0.042228,0.012626,0.698389,0.225798,0.006034,1.912128,0.507051,-0.151555,1.026923,-0.760208,0.999989,0.002910,-0.003588,-0.001011,-0.003369,0.003614,0.000935
0.540000,0.014245,-2.976188,0.512495,-0.014218,0.176656,0.044511,0.012679,0.717559,0.230830,0.004566,1.921730,0.499226,-0.146108,0.898313,-0.804697,0.999989,0.002893,-0.003570,-0.001006,-0.003354,0.003596,0.000930
0.550000,0.014103,-2.974386,0.512951,-0.014091,0.183928,0.046844,0.012717,0.736819,0.235781,0.003143,1.930071,0.490963,-0.134656,0.765729,-0.847732,0.999989,0.002876,-0.003552,-0.001002,-0.003339,0.003579,0.000926
0.560000,0.013963,-2.972509,0.513432,-0.013964,0.191392,0.049227,0.012742,0.756156,0.240648,0.001875,1.937080,0.482270,-0.123715,0.636374,-0.889657,0.999989,0.002860,-0.003534,-0.000997,-0.003324,0.003562,0.000921
0.570000,0.013824,-2.970557,0.513936,-0.013837,0.199051,0.051657,0.012755,0.775557,0.245425,0.000624,1.942806,0.473183,-0.122128,0.509561,-0.928580,0.999989,0.002843,-0.003516,-0.000992,-0.003309,0.003544,0.000916
0.580000,0.013686,-2.968527,0.514465,-0.013709,0.206904,0.054135,0.012755,0.795008,0.250110,-0.000476,1.947285,0.463684,-0.097790,0.386717,-0.970949,0.999989,0.002826,-0.003499,-0.000988,-0.003295,0.003527,0.000911
0.590000,0.013550,-2.966418,0.515019,-0.013582,0.214951,0.056659,0.012746,0.814498,0.254697,-0.001425,1.950545,0.453786,-0.096601,0.265313,-1.007534,0.999990,0.002810,-0.003481,-0.000983,-0.003280,0.003510,0.000906
0.600000,0.013415,-2.964228,0.515598,-0.013454,0.223194,0.059229,0.012727,0.834015,0.259184,-0.002372,1.952600,0.443530,-0.088350,0.146337,-1.044392,0.999990,0.002794,-0.003464,-0.000979,-0.003265,0.003494,0.000902
0.610000,0.013281,-2.961954,0.516204,-0.013327,0.231632,0.061842,0.012699,0.853547,0.263567,-0.003211,1.953493,0.432908,-0.080819,0.032193,-1.080003,0.999990,0.002777,-0.003446,-0.000974,-0.003251,0.003477,0.000897
0.620000,0.013148,-2.959594,0.516835,-0.013200,0.240265,0.064499,0.012663,0.873081,0.267841,-0.004001,1.953296,0.421930,-0.076130,-0.074486,-1.115118,0.999990,0.002761,-0.003429,-0.000970,-0.003236,0.003460,0.000892
0.630000,0.013017,-2.957148,0.517494,-0.013074,0.249093,0.067199,0.012619,0.892609,0.272004,-0.004710,1.951942,0.410618,-0.065700,-0.195975,-1.146877,0.999990,0.002745,-0.003411,-0.000965,-0.003222,0.003444,0.000888
0.640000,0.012887,-2.954612,0.518179,-0.012948,0.258117,0.069939,0.012569,0.912116,0.276053,-0.005341,1.949451,0.398988,-0.061746,-0.298512,-1.179482,0.999990,0.002729,-0.003394,-0.000961,-0.003208,0.003427,0.000883
0.650000,0.012758,-2.951985,0.518893,-0.012823,0.267335,0.072719,0.012512,0.931594,0.279983,-0.005936,1.945956,0.387036,-0.056190,-0.403885,-1.210204,0.999990,0.002713,-0.003377,-0.000957,-0.003194,0.003411,0.000879
0.660000,0.012630,-2.949265,0.519634,-0.012698,0.276749,0.075538,0.012450,0.951032,0.283792,-0.006469,1.941375,0.374790,-0.051048,-0.507423,-1.239665,0.999990,0.002697,-0.003360,-0.000952,-0.003180,0.003394,0.000874
0.670000,0.012504,-2.946449,0.520404,-0.012574,0.286356,0.078395,0.012383,0.970419,0.287478,-0.006965,1.935859,0.362239,-0.047576,-0.599906,-1.269523,0.999990,0.002681,-0.003343,-0.000948,-0.003166,0.003378,0.000869
0.680000,0.012379,-2.943537,0.521202,-0.012450,0.296157,0.081288,0.012311,0.989745,0.291036,-0.007407,1.929289,0.349421,-0.040968,-0.713671,-1.293945,0.999990,0.002665,-0.003326,-0.000944,-0.003152,0.003362,0.000865
0.690000,0.012255,-2.940525,0.522029,-0.012327,0.306151,0.084215,0.012235,1.009001,0.294465,-0.007799,1.921685,0.336348,-0.038042,-0.802226,-1.321289,0.999991,0.002650,-0.003310,-0.000939,-0.003138,0.003346,0.000860
0.700000,0.012132,-2.937413,0.522886,-0.012205,0.316336,0.087176,0.012155,1.028176,0.297762,-0.008163,1.913203,0.323004,-0.034271,-0.897163,-1.346224,0.999991,0.002634,-0.003293,-0.000935,-0.003124,0.003330,0.000856
0.710000,0.012011,-2.934198,0.523773,-0.012084,0.326714,0.090170,0.012072,1.047262,0.300925,-0.008474,1.903775,0.309418,-0.030533,-0.989026,-1.370113,0.999991,0.002618,-0.003276,-0.000931,-0.003111,0.003314,0.000851
0.720000,0.011890,-2.930878,0.524690,-0.011964,0.337281,0.093194,0.011986,1.066249,0.303950,-0.008799,1.893420,0.295612,-0.031871,-1.080640,-1.391515,0.999991,0.002603,-0.003260,-0.000927,-0.003097,0.003298,0.000847
0.730000,0.011771,-2.927452,0.525637,-0.011845,0.348038,0.096249,0.011896,1.085127,0.306836,-0.009060,1.882190,0.281576,-0.020365,-1.165037,-1.415599,0.999991,0.002587,-0.003243,-0.000922,-0.003084,0.003282,0.000842
0.740000,0.011653,-2.923917,0.526615,-0.011726,0.358984,0.099331,0.011805,1.103890,0.309581,-0.009257,1.870106,0.267318,-0.021650,-1.252352,-1.435004,0.999991,0.002572,-0.003227,-0.000918,-0.003070,0.003266,0.000838
0.750000,0.011537,-2.920272,0.527624,-0.011608,0.370116,0.102440,0.011711,1.122527,0.312182,-0.009472,1.857159,0.252874,-0.018869,-1.335839,-1.454508,0.999991,0.002557,-0.003211,-0.000914,-0.003057,0.003251,0.000834
0.760000,0.011421,-2.916514,0.528664,-0.011492,0.381434,0.105574,0.011616,1.141030,0.314638,-0.009646,1.843384,0.238236,-0.016388,-1.417628,-1.472937,0.999991,0.002541,-0.003194,-0.000910,-0.003044,0.003235,0.000829
0.770000,0.011307,-2.912642,0.529735,-0.011376,0.392936,0.108732,0.011518,1.159392,0.316946,-0.009806,1.828825,0.223418,-0.015074,-1.495123,-1.490426,0.999991,0.002526,-0.003178,-0.000906,-0.003031,0.003220,0.000825
0.780000,0.011194,-2.908655,0.530838,-0.011261,0.404621,0.111912,0.011420,1.177604,0.319105,-0.009937,1.813462,0.208432,-0.011279,-1.577176,-1.506580,0.999991,0.002511,-0.003162,-0.000902,-0.003017,0.003204,0.000820
0.790000,0.011082,-2.904549,0.531974,-0.011148,0.416487,0.115114,0.011320,1.195658,0.321114,-0.010042,1.797312,0.193289,-0.010201,-1.651270,-1.521957,0.999992,0.002496,-0.003146,-0.000897,-0.003004,0.003189,0.000816
0.800000,0.010971,-2.900324,0.533141,-0.011035,0.428534,0.118334,0.011219,1.213548,0.322971,-0.010137,1.780437,0.177996,-0.008403,-1.725306,-1.536301,0.999992,0.002481,-0.003130,-0.000893,-0.002992,0.003174,0.000812
0.810000,0.010861,-2.895978,0.534340,-0.010923,0.440758,0.121572,0.011117,1.231265,0.324674,-0.010211,1.762814,0.162572,-0.006731,-1.797778,-1.549475,0.999992,0.002466,-0.003115,-0.000889,-0.002979,0.003158,0.000808
0.820000,0.010752,-2.891509,0.535572,-0.010813,0.453158,0.124827,0.011014,1.248802,0.326222,-0.010277,1.744497,0.146999,-0.006021,-1.866422,-1.563834,0.999992,0.002451,-0.003099,-0.000885,-0.002966,0.003143,0.000803
0.830000,0.010645,-2.886914,0.536837,-0.010703,0.465733,0.128096,0.010911,1.266152,0.327613,-0.010323,1.725470,0.131323,-0.003181,-1.938808,-1.571326,0.999992,0.002437,-0.003083,-0.000881,-0.002953,0.003128,0.000799
0.840000,0.010538,-2.882193,0.538134,-0.010594,0.478481,0.131379,0.010808,1.283309,0.328848,-0.010349,1.705749,0.115553,-0.002616,-2.003963,-1.583508,0.999992,0.002422,-0.003067,-0.000877,-0.002941,0.003113,0.000795
0.850000,0.010433,-2.877344,0.539465,-0.010487,0.491399,0.134673,0.010704,1.300265,0.329924,-0.010372,1.685388,0.099665,-0.001416,-2.068861,-1.592759,0.999992,0.002407,-0.003052,-0.000873,-0.002928,0.003098,0.000791
0.860000,0.010329,-2.872365,0.540828,-0.010380,0.504485,0.137977,0.010601,1.317014,0.330841,-0.010375,1.664355,0.083675,-0.000239,-2.133788,-1.601693,0.999992,0.002392,-0.003036,-0.000869,-0.002916,0.003083,0.000787
0.870000,0.010225,-2.867254,0.542224,-0.010275,0.517738,0.141289,0.010497,1.333550,0.331597,-0.010385,1.642719,0.067664,-0.000922,-2.194099,-1.603576,0.999992,0.002378,-0.003021,-0.000866,-0.002903,0.003069,0.000783
0.880000,0.010123,-2.862009,0.543654,-0.010170,0.531156,0.144608,0.010393,1.349866,0.332194,-0.010374,1.620457,0.051541,0.003123,-2.258110,-1.620946,0.999992,0.002363,-0.003006,-0.000862,-0.002891,0.003054,0.000779
0.890000,0.010022,-2.856630,0.545116,-0.010067,0.544735,0.147932,0.010290,1.365957,0.332628,-0.010342,1.597583,0.035311,0.002465,-2.315316,-1.621673,0.999992,0.002349,-0.002991,-0.000858,-0.002879,0.003039,0.000775
0.900000,0.009922,-2.851114,0.546612,-0.009965,0.558474,0.151260,0.010186,1.381816,0.332900,-0.010318,1.574142,0.019084,0.003305,-2.373059,-1.626791,0.999992,0.002335,-0.002975,-0.000854,-0.002867,0.003025,0.000771
0.910000,0.009823,-2.845460,0.548141,-0.009863,0.572370,0.154590,0.010083,1.397438,0.333009,-0.010281,1.550127,0.002806,0.004019,-2.429040,-1.630622,0.999993,0.002320,-0.002960,-0.000850,-0.002855,0.003010,0.000767
0.920000,0.009724,-2.839666,0.549704,-0.009763,0.586422,0.157920,0.009981,1.412817,0.332956,-0.010238,1.525572,-0.013542,0.004577,-2.482437,-1.636949,0.999993,0.002306,-0.002945,-0.000846,-0.002843,0.002996,0.000762
0.930000,0.009627,-2.833731,0.551300,-0.009664,0.600626,0.161248,0.009879,1.427948,0.332738,-0.010188,1.500472,-0.029893,0.005307,-2.537143,-1.633122,0.999993,0.002292,-0.002930,-0.000842,-0.002831,0.002982,0.000758
0.940000,0.009531,-2.827653,0.552929,-0.009565,0.614980,0.164574,0.009777,1.442825,0.332358,-0.010133,1.474845,-0.046237,0.005748,-2.587521,-1.637280,0.999993,0.002278,-0.002915,-0.000839,-0.002819,0.002968,0.000754
0.950000,0.009436,-2.821431,0.554591,-0.009468,0.629482,0.167895,0.009676,1.457443,0.331814,-0.010073,1.448717,-0.062621,0.006211,-2.637751,-1.637557,0.999993,0.002264,-0.002901,-0.000835,-0.002807,0.002954,0.000750
0.960000,0.009342,-2.815063,0.556287,-0.009372,0.644128,0.171210,0.009575,1.471797,0.331106,-0.010010,1.422095,-0.078982,0.006606,-2.686311,-1.636805,0.999993,0.002250,-0.002886,-0.000831,-0.002795,0.002940,0.000746
0.970000,0.009249,-2.808548,0.558015,-0.009277,0.658917,0.174517,0.009476,1.485883,0.330234,-0.009940,1.394998,-0.095376,0.007158,-2.732953,-1.639549,0.999993,0.002236,-0.002871,-0.000828,-0.002784,0.002926,0.000742
0.980000,0.009156,-2.801884,0.559777,-0.009182,0.673845,0.177814,0.009377,1.499696,0.329198,-0.009869,1.367435,-0.111723,0.007109,-2.779571,-1.629675,0.999993,0.002222,-0.002857,-0.000824,-0.002772,0.002912,0.000738
0.990000,0.009065,-2.795071,0.561572,-0.009089,0.688910,0.181100,0.009278,1.513230,0.328000,-0.009796,1.339416,-0.128012,0.007557,-2.823600,-1.630322,0.999993,0.002208,-0.002842,-0.000820,-0.002760,0.002898,0.000735
1.000000,0.008974,-2.788106,0.563399,-0.008997,0.704108,0.184373,0.009181,1.526483,0.326638,-0.009719,1.310969,-0.144307,0.007789,-2.866408,-1.626304,0.999993,0.002194,-0.002828,-0.000816,-0.002749,0.002884,0.000731
1.010000,0.008885,-2.780988,0.565259,-0.008905,0.719438,0.187632,0.009084,1.539448,0.325114,-0.009636,1.282092,-0.160564,0.008063,-2.908083,-1.622011,0.999993,0.002181,-0.002813,-0.000813,-0.002737,0.002870,0.000727
1.020000,0.008796,-2.773717,0.567152,-0.008815,0.734896,0.190875,0.008988,1.552123,0.323427,-0.009563,1.252817,-0.176717,0.007200,-2.947307,-1.611394,0.999993,0.002167,-0.002799,-0.000809,-0.002726,0.002857,0.000723
1.030000,0.008709,-2.766290,0.569077,-0.008726,0.750480,0.194100,0.008893,1.564503,0.321579,-0.009480,1.223138,-0.192850,0.009323,-2.988318,-1.615158,0.999993,0.002153,-0.002785,-0.000806,-0.002715,0.002843,0.000719
1.040000,0.008622,-2.758707,0.571034,-0.008637,0.766185,0.197306,0.008798,1.576585,0.319570,-0.009388,1.193066,-0.208959,0.008529,-3.025292,-1.603658,0.999994,0.002140,-0.002770,-0.000802,-0.002703,0.002830,0.000715
1.050000,0.008536,-2.750966,0.573023,-0.008550,0.782010,0.200491,0.008705,1.588363,0.317400,-0.009305,1.162638,-0.224946,0.008699,-3.061402,-1.596364,0.999994,0.002126,-0.002756,-0.000798,-0.002692,0.002816,0.000712
1.060000,0.008451,-2.743066,0.575043,-0.008463,0.797952,0.203654,0.008612,1.599836,0.315071,-0.009217,1.131850,-0.240861,0.008822,-3.096473,-1.588010,0.999994,0.002113,-0.002742,-0.000795,-0.002681,0.002803,0.000708
1.070000,0.008367,-2.735006,0.577096,-0.008378,0.814006,0.206792,0.008521,1.610999,0.312583,-0.009130,1.100708,-0.256716,0.008706,-3.131174,-1.581535,0.999994,0.002100,-0.002728,-0.000791,-0.002670,0.002790,0.000704
1.080000,0.008283,-2.726785,0.579179,-0.008293,0.830171,0.209905,0.008430,1.621849,0.309937,-0.009040,1.069240,-0.272461,0.009164,-3.162266,-1.567321,0.999994,0.002086,-0.002714,-0.000788,-0.002659,0.002777,0.000700
1.090000,0.008201,-2.718402,0.581294,-0.008209,0.846442,0.212990,0.008340,1.632383,0.307135,-0.008949,1.037458,-0.288088,0.009032,-3.194477,-1.559195,0.999994,0.002073,-0.002701,-0.000784,-0.002648,0.002764,0.000697
1.100000,0.008119,-2.709856,0.583439,-0.008126,0.862817,0.216047,0.008251,1.642597,0.304176,-0.008859,1.005360,-0.303630,0.009077,-3.224552,-1.548028,0.999994,0.002060,-0.002687,-0.000781,-0.002637,0.002751,0.000693
1.110000,0.008038,-2.701146,0.585614,-0.008044,0.879293,0.219073,0.008163,1.652489,0.301063,-0.008765,0.972989,-0.319009,0.009164,-3.253164,-1.535453,0.999994,0.002047,-0.002673,-0.000778,-0.002626,0.002738,0.000689
1.120000,0.007958,-2.692270,0.587820,-0.007963,0.895866,0.222068,0.008075,1.662056,0.297796,-0.008681,0.940267,-0.334410,0.008097,-3.287479,-1.537043,0.999994,0.002033,-0.002659,-0.000774,-0.002615,0.002725,0.000686
1.130000,0.007879,-2.683228,0.590056,-0.007882,0.912533,0.225029,0.007989,1.671294,0.294375,-0.008590,0.907318,-0.349587,0.010088,-3.302151,-1.497960,0.999994,0.002020,-0.002646,-0.000771,-0.002604,0.002712,0.000682
1.140000,0.007801,-2.674019,0.592321,-0.007803,0.929291,0.227955,0.007904,1.680202,0.290805,-0.008491,0.874156,-0.364523,0.009098,-3.333691,-1.496897,0.999994,0.002007,-0.002632,-0.000767,-0.002593,0.002699,0.000678
1.150000,0.007723,-2.664642,0.594615,-0.007724,0.946136,0.230844,0.007819,1.688776,0.287085,-0.008403,0.840682,-0.379458,0.009089,-3.357755,-1.482268,0.999994,0.001994,-0.002619,-0.000764,-0.002583,0.002687,0.000675
1.160000,0.007646,-2.655096,0.596937,-0.007647,0.963065,0.233696,0.007736,1.697014,0.283216,-0.008329,0.806894,-0.394331,0.008704,-3.383077,-1.470175,0.999994,0.001982,-0.002605,-0.000761,-0.002572,0.002674,0.000671
1.170000,0.007570,-2.645380,0.599288,-0.007570,0.980075,0.236508,0.007653,1.704914,0.279200,-0.008203,0.773177,-0.408656,0.013589,-3.376397,-1.416143,0.999994,0.001969,-0.002592,-0.000757,-0.002562,0.002661,0.000667
1.180000,0.007495,-2.635494,0.601667,-0.007493,0.997162,0.239279,0.007571,1.712476,0.275042,-0.008114,0.739033,-0.423105,0.004110,-3.452645,-1.474306,0.999994,0.001956,-0.002579,-0.000754,-0.002551,0.002649,0.000664
1.190000,0.007420,-2.625437,0.604074,-0.007418,1.014323,0.242008,0.007490,1.719693,0.270737,-0.008066,0.704452,-0.437704,0.008428,-3.447045,-1.423718,0.999995,0.001943,-0.002566,-0.000751,-0.002540,0.002637,0.000660
1.200000,0.007346,-2.615208,0.606507,-0.007344,1.031555,0.244694,0.007410,1.726566,0.266290,-0.007969,0.669958,-0.451762,0.008068,-3.467829,-1.409434,0.999995,0.001931,-0.002552,-0.000747,-0.002529,0.002624,0.000656
1.210000,0.007273,-2.604806,0.608968,-0.007270,1.048854,0.247334,0.007331,1.733092,0.261703,-0.007874,0.635257,-0.465713,0.008223,-3.484946,-1.391714,0.999995,0.001918,-0.002539,-0.000744,-0.002518,0.002612,0.000653
1.220000,0.007201,-2.594230,0.611454,-0.007197,1.066216,0.249927,0.007253,1.739269,0.256976,-0.007831,0.600139,-0.479693,0.003132,-3.525607,-1.393628,0.999995,0.001905,-0.002526,-0.000741,-0.002507,0.002600,0.000649
1.230000,0.007129,-2.583481,0.613966,-0.007125,1.083638,0.252473,0.007175,1.745095,0.252110,-0.007753,0.565020,-0.493362,0.012413,-3.497549,-1.339898,0.999995,0.001893,-0.002513,-0.000738,-0.002496,0.002587,0.000646
1.240000,0.007058,-2.572557,0.616503,-0.007054,1.101116,0.254969,0.007098,1.750570,0.247109,-0.007638,0.529931,-0.506701,0.007953,-3.533141,-1.338226,0.999995,0.001880,-0.002500,-0.000734,-0.002485,0.002575,0.000642
1.250000,0.006988,-2.561459,0.619065,-0.006983,1.118648,0.257414,0.007022,1.755692,0.241976,-0.007571,0.494472,-0.520034,0.008211,-3.545441,-1.317795,0.999995,0.001868,-0.002488,-0.000731,-0.002473,0.002563,0.000638
1.260000,0.006919,-2.550184,0.621651,-0.006913,1.136229,0.259808,0.006946,1.760459,0.236710,-0.007473,0.459012,-0.533022,0.008616,-3.556324,-1.295597,0.999995,0.001856,-0.002475,-0.000728,-0.002462,0.002551,0.000635
1.270000,0.006850,-2.538734,0.624261,-0.006844,1.153856,0.262148,0.006872,1.764871,0.231315,-0.007424,0.423256,-0.546090,0.003946,-3.584977,-1.302553,0.999995,0.001843,-0.002462,-0.000725,-0.002452,0.002540,0.000631
1.280000,0.006782,-2.527107,0.626894,-0.006776,1.171525,0.264434,0.006798,1.768925,0.225790,-0.007339,0.387521,-0.558746,0.013067,-3.561508,-1.228008,0.999995,0.001831,-0.002449,-0.000722,-0.002441,0.002528,0.000627
1.290000,0.006714,-2.515303,0.629550,-0.006708,1.189233,0.266664,0.006725,1.772622,0.220141,-0.007216,0.351831,-0.570962,0.008910,-3.586316,-1.230648,0.999995,0.001819,-0.002437,-0.000719,-0.002430,0.002516,0.000623
1.300000,0.006648,-2.503322,0.632227,-0.006641,1.206977,0.268836,0.006653,1.775960,0.214370,-0.007138,0.315886,-0.583226,0.009227,-3.593211,-1.206493,0.999995,0.001807,-0.002424,-0.000715,-0.002420,0.002505,0.000620
1.310000,0.006582,-2.491164,0.634926,-0.006575,1.224751,0.270951,0.006582,1.778939,0.208477,-0.007062,0.279765,-0.595309,0.008986,-3.603164,-1.185632,0.999995,0.001795,-0.002412,-0.000712,-0.002409,0.002493,0.000616
1.320000,0.006516,-2.478827,0.637646,-0.006510,1.242554,0.273005,0.006512,1.781557,0.202467,-0.006931,0.244079,-0.606712,0.014297,-3.560699,-1.118664,0.999995,0.001783,-0.002399,-0.000709,-0.002398,0.002482,0.000612
1.330000,0.006451,-2.466312,0.640386,-0.006445,1.260381,0.275000,0.006444,1.783819,0.196343,-0.006838,0.207992,-0.618180,0.004296,-3.657436,-1.175493,0.999995,0.001771,-0.002387,-0.000706,-0.002387,0.002470,0.000609
1.340000,0.006387,-2.453619,0.643146,-0.006381,1.278229,0.276932,0.006376,1.785716,0.190103,-0.006786,0.171475,-0.629741,0.008873,-3.618767,-1.112586,0.999995,0.001759,-0.002375,-0.000703,-0.002377,0.002459,0.000605
1.350000,0.006324,-2.440748,0.645925,-0.006317,1.296094,0.278801,0.006308,1.787250,0.183751,-0.006685,0.135395,-0.640634,0.008394,-3.624563,-1.089826,0.999995,0.001747,-0.002362,-0.000700,-0.002366,0.002448,0.000602
1.360000,0.006261,-2.427697,0.648722,-0.006254,1.313973,0.280607,0.006242,1.788423,0.177290,-0.006618,0.099177,-0.651419,0.007737,-3.626805,-1.065190,0.999995,0.001735,-0.002350,-0.000697,-0.002356,0.002437,0.000598
1.370000,0.006199,-2.414468,0.651536,-0.006192,1.331862,0.282347,0.006176,1.789233,0.170723,-0.006506,0.062788,-0.661917,0.012140,-3.643070,-1.036272,0.999996,0.001724,-0.002338,-0.000694,-0.002345,0.002426,0.000595
1.380000,0.006137,-2.401060,0.654368,-0.006131,1.349756,0.284021,0.006111,1.789679,0.164052,-0.006431,0.026486,-0.672182,0.002622,-3.616828,-1.016589,0.999996,0.001712,-0.002326,-0.000691,-0.002335,0.002415,0.000591
1.390000,0.006076,-2.387473,0.657217,-0.006070,1.367654,0.285627,0.006047,1.789763,0.157280,-0.006400,-0.009704,-0.682208,0.006410,-3.628916,-0.986667,0.999996,0.001700,-0.002314,-0.000688,-0.002324,0.002404,0.000588
1.400000,0.006016,-2.373707,0.660081,-0.006010,1.385551,0.287166,0.005984,1.789484,0.150409,-0.006326,-0.046024,-0.691927,0.005643,-3.626473,-0.959059,0.999996,0.001689,-0.002302,-0.000685,-0.002314,0.002393,0.000585
1.410000,0.005956,-2.359762,0.662960,-0.005950,1.403443,0.288635,0.005917,1.788846,0.143444,-0.007113,-0.081556,-0.701027,-0.011574,-3.608942,-0.923626,0.999996,0.001677,-0.002290,-0.000683,-0.002303,0.002381,0.000582
1.420000,0.005897,-2.345638,0.665853,-0.005892,1.421326,0.290035,0.005853,1.787843,0.136385,-0.005161,-0.119387,-0.710976,0.255182,-3.832005,-1.005091,0.999996,0.001666,-0.002278,-0.000680,-0.002292,0.002370,0.000579
1.430000,0.005838,-2.331336,0.668760,-0.005833,1.439198,0.291363,0.005806,1.786465,0.129229,-0.005091,-0.155566,-0.719847,-0.245480,-3.399898,-0.767098,0.999996,0.001654,-0.002266,-0.000677,-0.002282,0.002359,0.000576
1.440000,0.005780,-2.316854,0.671680,-0.005776,1.457054,0.292619,0.005743,1.784739,0.121992,-0.007090,-0.189921,-0.727552,-0.005363,-3.597525,-0.835451,0.999996,0.001643,-0.002254,-0.000674,-0.002272,0.002348,0.000572
1.450000,0.005723,-2.302195,0.674612,-0.005719,1.474892,0.293802,0.005676,1.782657,0.114674,-0.006448,-0.226448,-0.736033,-0.013729,-3.582173,-0.799606,0.999996,0.001631,-0.002243,-0.000671,-0.002264,0.002337,0.000568
1.460000,0.005666,-2.287357,0.677556,-0.005662,1.492706,0.294912,0.005628,1.780205,0.107273,-0.002751,-0.264187,-0.744066,0.066748,-3.614893,-0.771845,0.999996,0.001620,-0.002231,-0.000668,-0.002256,0.002327,0.000562
1.470000,0.005609,-2.272341,0.680510,-0.005606,1.510495,0.295947,0.005568,1.777401,0.099796,-0.011427,-0.295512,-0.751145,-1.135293,-2.991381,-0.678490,0.999996,0.001609,-0.002219,-0.000665,-0.002249,0.002316,0.000556
1.480000,0.005554,-2.257147,0.683475,-0.005551,1.528253,0.296908,0.005433,1.774278,0.092250,-0.011466,-0.331179,-0.758361,1.147910,-4.152576,-0.765822,0.999996,0.001598,-0.002208,-0.000663,-0.002242,0.002305,0.000553
1.490000,0.005498,-2.241776,0.686448,-0.005497,1.545979,0.297792,0.005376,1.770758,0.084628,-0.001962,-0.371657,-0.765768,0.079238,-3.598145,-0.681092,0.999996,0.001586,-0.002196,-0.000660,-0.002235,0.002294,0.000552
1.500000,0.005444,-2.226227,0.689430,-0.005443,1.563667,0.298600,0.005343,1.766871,0.076938,-0.004189,-0.406064,-0.772280,0.144770,-3.625618,-0.656045,0.999996,0.001575,-0.002185,-0.000657,-0.002227,0.002281,0.000554
1.510000,0.005389,-2.210502,0.692420,-0.005390,1.581315,0.299331,0.005283,1.762635,0.069180,-0.008391,-0.440813,-0.779275,0.044550,-3.597016,-0.640966,0.999996,0.001564,-0.002173,-0.000654,-0.002218,0.002267,0.000565
1.520000,0.005336,-2.194601,0.695417,-0.005338,1.598919,0.299983,0.005255,1.758033,0.061361,0.006161,-0.480505,-0.784160,1.864100,-4.075512,-0.435335,0.999996,0.001553,-0.002162,-0.000651,-0.002208,0.002253,0.000577
1.530000,0.005283,-2.178524,0.698419,-0.005285,1.616474,0.300558,0.005356,1.753039,0.053493,0.007865,-0.516742,-0.790064,-1.555330,-3.162772,-0.748475,0.999996,0.001542,-0.002151,-0.000648,-0.002197,0.002238,0.000588
1.540000,0.005230,-2.162272,0.701428,-0.005231,1.633978,0.301053,0.005357,1.747713,0.045555,-0.004719,-0.549114,-0.797123,0.048242,-3.578954,-0.563102,0.999996,0.001531,-0.002140,-0.000646,-0.002185,0.002224,0.000595
1.550000,0.005178,-2.145845,0.704440,-0.005178,1.651427,0.301469,0.005338,1.742037,0.037559,0.000251,-0.586033,-0.802174,-0.061082,-3.537623,-0.546674,0.999996,0.001520,-0.002129,-0.000643,-0.002171,0.002211,0.000596
1.560000,0.005127,-2.129244,0.707457,-0.005124,1.668818,0.301804,0.005342,1.736004,0.029513,0.000638,-0.620248,-0.806959,-0.079325,-3.490155,-0.511398,0.999996,0.001510,-0.002118,-0.000640,-0.002157,0.002201,0.000584
1.570000,0.005076,-2.112469,0.710476,-0.005071,1.686146,0.302059,0.005332,1.729618,0.021413,-0.003330,-0.657534,-0.813330,-0.501244,-3.787070,-0.664210,0.999996,0.001499,-0.002107,-0.000637,-0.002141,0.002192,0.000566
1.580000,0.005025,-2.095521,0.713498,-0.005018,1.703409,0.302232,0.005285,1.722864,0.013252,-0.004915,-0.692216,-0.818175,0.192009,-3.143686,-0.301452,0.999996,0.001488,-0.002096,-0.000634,-0.002125,0.002183,0.000546
1.590000,0.004975,-2.078401,0.716520,-0.004965,1.720603,0.302324,0.005245,1.715785,0.005056,-0.003751,-0.724043,-0.821343,-0.171848,-3.403267,-0.431333,0.999997,0.001478,-0.002085,-0.000632,-0.002109,0.002175,0.000525
1.600000,0.004926,-2.061109,0.719544,-0.004913,1.737724,0.302333,0.005193,1.708370,-0.003181,-0.006504,-0.758751,-0.825955,-0.163564,-3.357549,-0.391871,0.999997,0.001467,-0.002074,-0.000629,-0.002093,0.002166,0.000507
1.610000,0.004877,-2.043647,0.722567,-0.004861,1.754769,0.302260,0.005144,1.700606,-0.011459,-0.002582,-0.794329,-0.829468,-0.048727,-3.369080,-0.353023,0.999997,0.001457,-0.002063,-0.000626,-0.002078,0.002156,0.000500
1.620000,0.004829,-2.026014,0.725589,-0.004810,1.771735,0.302104,0.005064,1.692515,-0.019773,-0.016636,-0.822559,-0.833404,-1.792695,-2.655160,-0.392874,0.999997,0.001446,-0.002052,-0.000624,-0.002063,0.002146,0.000497
1.630000,0.004781,-2.008212,0.728609,-0.004760,1.788618,0.301864,0.004861,1.684137,-0.028124,-0.018086,-0.855372,-0.836459,1.533307,-3.919569,-0.216815,0.999997,0.001436,-0.002042,-0.000621,-0.002049,0.002135,0.000499
1.640000,0.004733,-1.990242,0.731626,-0.004712,1.805416,0.301541,0.004757,1.675387,-0.036499,-0.005560,-0.893310,-0.838573,-0.006077,-3.286645,-0.247651,0.999997,0.001426,-0.002031,-0.000619,-0.002035,0.002124,0.000503
1.650000,0.004687,-1.972104,0.734639,-0.004665,1.822125,0.301134,0.004676,1.666300,-0.044897,-0.009917,-0.924352,-0.841059,0.108588,-3.301244,-0.208148,0.999997,0.001416,-0.002020,-0.000616,-0.002021,0.002112,0.000508
1.660000,0.004640,-1.953800,0.737648,-0.004619,1.838741,0.300643,0.004560,1.656896,-0.053320,-0.013988,-0.956351,-0.843394,0.046410,-3.271433,-0.180454,0.999997,0.001406,-0.002010,-0.000614,-0.002007,0.002101,0.000511
1.670000,0.004594,-1.935330,0.740652,-0.004574,1.855262,0.300068,0.004473,1.647160,-0.061758,-0.000084,-0.991368,-0.843949,1.791384,-3.563975,-0.006643,0.999997,0.001396,-0.001999,-0.000611,-0.001993,0.002090,0.000512
1.680000,0.004549,-1.916695,0.743649,-0.004529,1.871683,0.299408,0.004512,1.637077,-0.070201,0.002041,-1.024103,-0.845126,-1.397003,-2.977647,-0.231228,0.999997,0.001386,-0.001989,-0.000609,-0.001979,0.002080,0.000512
1.690000,0.004504,-1.897896,0.746640,-0.004484,1.888002,0.298664,0.004462,1.626688,-0.078663,-0.008990,-1.054312,-0.847035,0.140901,-3.233423,-0.073856,0.999997,0.001376,-0.001979,-0.000606,-0.001965,0.002069,0.000512
1.700000,0.004459,-1.878935,0.749622,-0.004440,1.904216,0.297835,0.004404,1.615979,-0.087135,-0.003230,-1.087330,-0.847256,0.062662,-3.201010,-0.046863,0.999997,0.001366,-0.001968,-0.000604,-0.001951,0.002058,0.000511
1.710000,0.004415,-1.859812,0.752596,-0.004396,1.920321,0.296921,0.004378,1.604945,-0.095609,-0.002017,-1.119332,-0.847544,0.056386,-3.181103,-0.014730,0.999997,0.001356,-0.001958,-0.000601,-0.001937,0.002048,0.000510
1.720000,0.004371,-1.840529,0.755560,-0.004352,1.936314,0.295923,0.004354,1.593594,-0.104085,-0.003240,-1.150796,-0.847589,-0.181346,-3.128247,0.009834,0.999997,0.001347,-0.001948,-0.000599,-0.001922,0.002037,0.000508
1.730000,0.004328,-1.821086,0.758514,-0.004309,1.952192,0.294839,0.004318,1.581929,-0.112560,-0.003134,-1.182243,-0.847263,0.206259,-3.161634,0.055644,0.999997,0.001337,-0.001938,-0.000596,-0.001907,0.002026,0.000506
1.740000,0.004285,-1.801486,0.761457,-0.004266,1.967951,0.293671,0.004297,1.569949,-0.121029,-0.001532,-1.213690,-0.846557,-0.006567,-3.110978,0.081507,0.999997,0.001328,-0.001928,-0.000593,-0.001890,0.002016,0.000503
1.750000,0.004242,-1.781728,0.764387,-0.004223,1.983589,0.292419,0.004278,1.557658,-0.129490,-0.002236,-1.244602,-0.845597,-0.013584,-3.087982,0.114562,0.999997,0.001318,-0.001917,-0.000591,-0.001873,0.002005,0.000501
1.760000,0.004200,-1.761814,0.767305,-0.004180,1.999103,0.291082,0.004257,1.545058,-0.137939,-0.001814,-1.275245,-0.844029,-0.014240,-3.061040,0.152896,0.999997,0.001309,-0.001907,-0.000588,-0.001855,0.001994,0.000498
1.770000,0.004159,-1.741746,0.770209,-0.004138,2.014490,0.289660,0.004233,1.532152,-0.146373,-0.003550,-1.306008,-0.842963,-0.223379,-3.071615,0.105136,0.999997,0.001300,-0.001898,-0.000586,-0.001836,0.001982,0.000495
1.780000,0.004118,-1.721525,0.773098,-0.004096,2.029745,0.288154,0.004192,1.518940,-0.154795,-0.003984,-1.336260,-0.840985,0.140321,-2.978050,0.292059,0.999997,0.001290,-0.001888,-0.000584,-0.001815,0.001971,0.000491
1.790000,0.004077,-1.701152,0.775971,-0.004054,2.044867,0.286564,0.004159,1.505429,-0.163189,-0.002944,-1.365968,-0.838029,-0.042240,-2.983384,0.253680,0.999997,0.001281,-0.001878,-0.000581,-0.001794,0.001960,0.000488
1.800000,0.004037,-1.680628,0.778829,-0.004012,2.059853,0.284891,0.004124,1.491620,-0.171557,-0.003886,-1.395762,-0.835524,-0.035870,-2.954870,0.292115,0.999997,0.001273,-0.001868,-0.000579,-0.001773,0.001950,0.000485
1.810000,0.003997,-1.659955,0.781669,-0.003971,2.074699,0.283133,0.004086,1.477516,-0.179897,-0.003613,-1.424923,-0.832257,-0.022007,-2.922227,0.330587,0.999997,0.001264,-0.001858,-0.000576,-0.001751,0.001939,0.000482
1.820000,0.003957,-1.639135,0.784491,-0.003931,2.089402,0.281293,0.004043,1.463119,-0.188204,-0.005357,-1.454619,-0.829197,-0.217172,-2.973462,0.310972,0.999997,0.001255,-0.001849,-0.000574,-0.001729,0.001928,0.000479
1.830000,0.003918,-1.618168,0.787295,-0.003891,2.103960,0.279369,0.003985,1.448427,-0.196478,-0.005657,-1.483480,-0.825415,0.160803,-2.797494,0.446333,0.999997,0.001246,-0.001839,-0.000571,-0.001707,0.001918,0.000477
1.840000,0.003879,-1.597056,0.790078,-0.003851,2.118370,0.277363,0.003936,1.433452,-0.204709,-0.004351,-1.511451,-0.820878,-0.009844,-2.840727,0.430678,0.999997,0.001238,-0.001829,-0.000569,-0.001686,0.001907,0.000474
1.850000,0.003841,-1.575801,0.792842,-0.003812,2.132628,0.275275,0.003890,1.418195,-0.212897,-0.004916,-1.539927,-0.816551,0.006839,-2.810659,0.464428,0.999997,0.001230,-0.001820,-0.000567,-0.001665,0.001897,0.000472
1.860000,0.003803,-1.554404,0.795584,-0.003773,2.146733,0.273106,0.003840,1.402648,-0.221042,-0.004942,-1.569688,-0.812597,0.013301,-2.819985,0.477706,0.999997,0.001221,-0.001811,-0.000564,-0.001645,0.001886,0.000471
1.870000,0.003766,-1.532867,0.798303,-0.003735,2.160680,0.270855,0.003793,1.386827,-0.229136,-0.004418,-1.593368,-0.805607,0.066497,-2.228084,0.772942,0.999997,0.001213,-0.001801,-0.000562,-0.001626,0.001875,0.000469
1.880000,0.003728,-1.511191,0.801000,-0.003697,2.174469,0.268523,0.003751,1.370766,-0.237161,-0.004134,-1.620800,-0.800231,-0.010640,-3.267890,0.297410,0.999998,0.001205,-0.001792,-0.000560,-0.001607,0.001864,0.000467
1.890000,0.003692,-1.489378,0.803674,-0.003660,2.188095,0.266111,0.003709,1.354395,-0.245148,-0.004137,-1.652404,-0.796685,0.034645,-2.737275,0.560389,0.999998,0.001197,-0.001782,-0.000557,-0.001590,0.001853,0.000466
1.900000,0.003655,-1.467429,0.806322,-0.003623,2.201556,0.263620,0.003670,1.337743,-0.253082,-0.003659,-1.678205,-0.790284,0.035717,-2.736813,0.571489,0.999998,0.001189,-0.001773,-0.000555,-0.001574,0.001842,0.000464
1.910000,0.003619,-1.445347,0.808946,-0.003587,2.214849,0.261050,0.003630,1.320835,-0.260955,-0.004460,-1.703016,-0.784120,0.013095,-2.662980,0.599227,0.999998,0.001181,-0.001764,-0.000553,-0.001560,0.001830,0.000463
1.920000,0.003583,-1.423133,0.811543,-0.003550,2.227971,0.258401,0.003597,1.303649,-0.268769,-0.001478,-1.735483,-0.778870,0.380034,-3.404258,0.511345,0.999998,0.001173,-0.001755,-0.000550,-0.001546,0.001819,0.000461
1.930000,0.003548,-1.400788,0.814114,-0.003515,2.240921,0.255675,0.003591,1.286148,-0.276528,-0.001126,-1.762153,-0.772623,-0.316216,-1.915726,0.740030,0.999998,0.001166,-0.001746,-0.000548,-0.001532,0.001807,0.000458
1.940000,0.003513,-1.378315,0.816656,-0.003479,2.253694,0.252871,0.003563,1.268431,-0.284217,-0.003696,-1.782395,-0.765286,0.007329,-2.561775,0.666611,0.999998,0.001158,-0.001737,-0.000546,-0.001518,0.001796,0.000456
1.950000,0.003479,-1.355715,0.819171,-0.003443,2.266288,0.249991,0.003532,1.250468,-0.291838,-0.002719,-1.809733,-0.758769,-0.016260,-2.477313,0.697893,0.999998,0.001151,-0.001728,-0.000544,-0.001502,0.001784,0.000454
1.960000,0.003444,-1.332990,0.821656,-0.003408,2.278702,0.247035,0.003507,1.232248,-0.299388,-0.002117,-1.834165,-0.751036,-0.009440,-2.418552,0.737986,0.999998,0.001143,-0.001719,-0.000541,-0.001483,0.001773,0.000451
1.970000,0.003410,-1.310142,0.824111,-0.003373,2.290932,0.244003,0.003478,1.213786,-0.306866,-0.004251,-1.858199,-0.745041,-0.275034,-2.378597,0.569986,0.999998,0.001136,-0.001710,-0.000539,-0.001463,0.001762,0.000448
1.980000,0.003377,-1.287172,0.826536,-0.003339,2.302977,0.240897,0.003429,1.195087,-0.314282,-0.004629,-1.881537,-0.737352,0.204120,-2.288863,0.971138,0.999998,0.001129,-0.001701,-0.000537,-0.001443,0.001751,0.000445
1.990000,0.003344,-1.264083,0.828929,-0.003305,2.314833,0.237718,0.003393,1.176158,-0.321607,-0.003038,-1.904181,-0.727817,-0.029255,-2.250299,0.826148,0.999998,0.001121,-0.001693,-0.000535,-0.001423,0.001739,0.000443
2.000000,0.003311,-1.240876,0.831290,-0.003271,2.326499,0.234466,0.003358,1.157004,-0.328846,-0.003991,-1.926472,-0.719898,-0.018059,-2.198488,0.866908,0.999998,0.001114,-0.001684,-0.000532,-0.001403,0.001728,0.000440
2.010000,0.003278,-1.217553,0.833618,-0.003237,2.337973,0.231141,0.003319,1.137620,-0.336003,-0.003679,-1.950562,-0.711621,-0.005357,-2.197779,0.888719,0.999998,0.001107,-0.001675,-0.000530,-0.001384,0.001716,0.000438
2.020000,0.003246,-1.194117,0.835912,-0.003204,2.349251,0.227746,0.003277,1.118027,-0.343069,-0.004887,-1.966554,-0.701202,-0.152694,-1.410749,1.097408,0.999998,0.001100,-0.001667,-0.000528,-0.001367,0.001704,0.000437
2.030000,0.003214,-1.170569,0.838173,-0.003172,2.360333,0.224280,0.003225,1.098270,-0.350031,-0.004980,-1.987389,-0.691722,0.136588,-2.769368,0.795422,0.999998,0.001094,-0.001658,-0.000526,-0.001350,0.001692,0.000435
2.040000,0.003183,-1.146911,0.840398,-0.003140,2.371216,0.220745,0.003183,1.078258,-0.356908,-0.003843,-2.013655,-0.683325,0.006515,-2.070286,0.982191,0.999998,0.001087,-0.001650,-0.000524,-0.001332,0.001680,0.000434
2.050000,0.003151,-1.123145,0.842587,-0.003108,2.381897,0.217142,0.003142,1.058029,-0.363689,-0.004137,-2.032307,-0.672917,0.018483,-2.072244,1.001220,0.999998,0.001080,-0.001642,-0.000521,-0.001315,0.001668,0.000432
2.060000,0.003120,-1.099274,0.844740,-0.003077,2.392376,0.213472,0.003098,1.037610,-0.370367,-0.004781,-2.051304,-0.662675,0.006860,-2.014714,1.028793,0.999998,0.001074,-0.001633,-0.000519,-0.001296,0.001656,0.000431
2.070000,0.003090,-1.075299,0.846856,-0.003046,2.402649,0.209735,0.003059,1.016982,-0.376943,-0.002584,-2.075248,-0.652493,0.282664,-2.494117,1.023880,0.999998,0.001067,-0.001625,-0.000517,-0.001277,0.001645,0.000429
2.080000,0.003059,-1.051222,0.848935,-0.003016,2.412714,0.205933,0.003039,0.996120,-0.383416,-0.002275,-2.095309,-0.641856,-0.225625,-1.509038,1.103895,0.999998,0.001061,-0.001617,-0.000515,-0.001257,0.001633,0.000427
2.090000,0.003029,-1.027045,0.850975,-0.002985,2.422571,0.202067,0.003005,0.975092,-0.389779,-0.004069,-2.111081,-0.630747,0.017825,-1.927700,1.101366,0.999998,0.001055,-0.001609,-0.000513,-0.001235,0.001621,0.000425
2.100000,0.003000,-1.002771,0.852976,-0.002956,2.432216,0.198138,0.002969,0.953878,-0.396031,-0.003203,-2.131458,-0.619688,0.004781,-1.866331,1.126560,0.999998,0.001049,-0.001601,-0.000511,-0.001213,0.001610,0.000423
2.110000,0.002970,-0.978401,0.854937,-0.002926,2.441648,0.194147,0.002939,0.932470,-0.402171,-0.002774,-2.150157,-0.608267,0.009428,-1.827558,1.150853,0.999998,0.001043,-0.001593,-0.000509,-0.001191,0.001598,0.000422
2.120000,0.002941,-0.953939,0.856859,-0.002897,2.450864,0.190095,0.002908,0.910880,-0.408196,-0.003671,-2.167586,-0.596733,-0.119384,-1.702684,1.162288,0.999998,0.001037,-0.001585,-0.000507,-0.001168,0.001587,0.000420
2.130000,0.002912,-0.929385,0.858739,-0.002868,2.459865,0.185984,0.002869,0.889118,-0.414105,-0.003704,-2.185143,-0.584888,0.115031,-1.810136,1.206822,0.999998,0.001031,-0.001577,-0.000505,-0.001144,0.001576,0.000418
2.140000,0.002884,-0.904742,0.860578,-0.002839,2.468646,0.181814,0.002838,0.867176,-0.419893,-0.002774,-2.202888,-0.572729,0.000983,-1.693895,1.218599,0.999998,0.001025,-0.001569,-0.000502,-0.001119,0.001565,0.000416
2.150000,0.002856,-0.880013,0.862375,-0.002811,2.477208,0.177586,0.002808,0.845065,-0.425559,-0.003089,-2.219400,-0.560465,0.005828,-1.653421,1.240622,0.999998,0.001020,-0.001561,-0.000500,-0.001094,0.001553,0.000414
2.160000,0.002828,-0.855199,0.864130,-0.002783,2.485547,0.173303,0.002777,0.822788,-0.431102,-0.003090,-2.235785,-0.548067,0.005012,-1.611263,1.259473,0.999998,0.001015,-0.001553,-0.000498,-0.001067,0.001542,0.000412
2.170000,0.002800,-0.830302,0.865841,-0.002756,2.493663,0.168965,0.002747,0.800351,-0.436518,-0.002888,-2.251513,-0.535090,0.024776,-1.546151,1.316029,0.999998,0.001009,-0.001546,-0.000496,-0.001041,0.001531,0.000410
2.180000,0.002772,-0.805326,0.867509,-0.002728,2.501553,0.164573,0.002719,0.777759,-0.441804,-0.002819,-2.266954,-0.522165,-0.011414,-1.542424,1.268231,0.999998,0.001004,-0.001538,-0.000494,-0.001013,0.001521,0.000408
2.190000,0.002745,-0.780272,0.869132,-0.002701,2.509217,0.160129,0.002690,0.755013,-0.446962,-0.002900,-2.282122,-0.509325,0.006083,-1.479236,1.319754,0.999998,0.000999,-0.001530,-0.000492,-0.000985,0.001510,0.000406
2.200000,0.002718,-0.755143,0.870711,-0.002675,2.516653,0.155634,0.002662,0.732119,-0.451988,-0.002789,-2.296638,-0.495939,0.005254,-1.435868,1.337089,0.999998,0.000994,-0.001523,-0.000490,-0.000956,0.001499,0.000403
2.210000,0.002692,-0.729940,0.872245,-0.002648,2.523859,0.151090,0.002634,0.709082,-0.456881,-0.002739,-2.310784,-0.482565,0.005060,-1.391637,1.353639,0.999998,0.000990,-0.001515,-0.000488,-0.000927,0.001488,0.000401
2.220000,0.002666,-0.704666,0.873733,-0.002622,2.530834,0.146497,0.002607,0.685905,-0.461638,-0.002685,-2.324454,-0.468720,0.005428,-1.343925,1.399988,0.999998,0.000985,-0.001508,-0.000486,-0.000898,0.001478,0.000399
2.230000,0.002639,-0.679324,0.875175,-0.002596,2.537577,0.141857,0.002581,0.662594,-0.466255,-0.002637,-2.337696,-0.454891,0.004221,-1.304378,1.365346,0.999998,0.000981,-0.001501,-0.000484,-0.000868,0.001467,0.000397
2.240000,0.002614,-0.653915,0.876570,-0.002570,2.544086,0.137172,0.002554,0.639152,-0.470736,-0.002595,-2.350508,-0.441098,0.004506,-1.256304,1.408861,0.999998,0.000976,-0.001493,-0.000482,-0.000838,0.001457,0.000395
2.250000,0.002588,-0.628443,0.877918,-0.002545,2.550360,0.132443,0.002529,0.615585,-0.475075,-0.002549,-2.362832,-0.426847,0.004271,-1.210399,1.426115,0.999998,0.000972,-0.001486,-0.000480,-0.000807,0.001447,0.000393
2.260000,0.002563,-0.602909,0.879219,-0.002520,2.556397,0.127671,0.002503,0.591898,-0.479271,-0.002510,-2.374594,-0.412165,0.004001,-1.161865,1.451476,0.999998,0.000968,-0.001479,-0.000478,-0.000777,0.001437,0.000391
2.270000,0.002538,-0.577316,0.880471,-0.002495,2.562197,0.122858,0.002479,0.568093,-0.483323,-0.002465,-2.386251,-0.398357,0.004558,-1.150161,1.367289,0.999998,0.000965,-0.001472,-0.000476,-0.000746,0.001427,0.000388
2.280000,0.002513,-0.551666,0.881676,-0.002470,2.567759,0.118005,0.002454,0.544175,-0.487235,-0.002428,-2.397191,-0.383619,0.002869,-1.037148,1.582128,0.999998,0.000961,-0.001465,-0.000474,-0.000715,0.001417,0.000386
2.290000,0.002488,-0.525961,0.882831,-0.002446,2.573080,0.113114,0.002430,0.520152,-0.490991,-0.002399,-2.407384,-0.367869,0.003346,-1.020950,1.510352,0.999998,0.000957,-0.001457,-0.000472,-0.000684,0.001407,0.000384
2.300000,0.002464,-0.500205,0.883938,-0.002421,2.578161,0.108186,0.002406,0.496028,-0.494596,-0.002365,-2.417442,-0.352925,0.003097,-0.971405,1.536188,0.999998,0.000954,-0.001450,-0.000470,-0.000653,0.001397,0.000382
2.310000,0.002440,-0.474399,0.884995,-0.002398,2.583001,0.103223,0.002383,0.471805,-0.498046,-0.002343,-2.426971,-0.337165,0.002730,-0.924232,1.563983,0.999998,0.000951,-0.001444,-0.000469,-0.000622,0.001387,0.000379
2.320000,0.002416,-0.448546,0.886002,-0.002374,2.587597,0.098225,0.002359,0.447491,-0.501342,-0.002297,-2.435834,-0.322123,0.005146,-0.858114,1.494429,0.999998,0.000948,-0.001437,-0.000467,-0.000591,0.001377,0.000377
2.330000,0.002392,-0.422648,0.886959,-0.002350,2.591950,0.093196,0.002337,0.423090,-0.504486,-0.002270,-2.444340,-0.306224,0.000117,-0.843388,1.686658,0.999998,0.000945,-0.001430,-0.000465,-0.000560,0.001368,0.000375
2.340000,0.002369,-0.396708,0.887866,-0.002327,2.596059,0.088136,0.002314,0.398605,-0.507463,-0.002265,-2.452503,-0.289411,0.002325,-0.779376,1.625117,0.999998,0.000942,-0.001423,-0.000463,-0.000530,0.001358,0.000373
2.350000,0.002346,-0.370727,0.888722,-0.002304,2.599922,0.083048,0.002291,0.374042,-0.510277,-0.002236,-2.460010,-0.273297,0.002146,-0.732142,1.647810,0.999998,0.000940,-0.001416,-0.000461,-0.000500,0.001349,0.000370
2.360000,0.002323,-0.344710,0.889527,-0.002281,2.603539,0.077931,0.002269,0.349406,-0.512929,-0.002165,-2.467157,-0.257188,0.003107,-0.685682,1.655926,0.999998,0.000937,-0.001409,-0.000459,-0.000470,0.001340,0.000368
2.370000,0.002300,-0.318658,0.890280,-0.002259,2.606910,0.072789,0.002247,0.324701,-0.515414,-0.002255,-2.473617,-0.239428,-0.012454,-0.617570,1.815861,0.999998,0.000935,-0.001403,-0.000457,-0.000441,0.001330,0.000366
2.380000,0.002278,-0.292573,0.890983,-0.002236,2.610033,0.067624,0.002225,0.299934,-0.517721,-0.002234,-2.479745,-0.222559,0.016973,-0.608358,1.555048,0.999998,0.000933,-0.001396,-0.000456,-0.000413,0.001321,0.000363
2.390000,0.002255,-0.266458,0.891633,-0.002214,2.612908,0.062436,0.002203,0.275107,-0.519869,-0.002089,-2.485557,-0.206716,0.003186,-0.542525,1.693815,0.999998,0.000931,-0.001390,-0.000454,-0.000386,0.001312,0.000361
2.400000,0.002233,-0.240315,0.892231,-0.002192,2.615535,0.057227,0.002182,0.250226,-0.521849,-0.002096,-2.490692,-0.189376,0.004061,-0.495825,1.693407,0.999999,0.000929,-0.001383,-0.000452,-0.000359,0.001303,0.000359
2.410000,0.002212,-0.214148,0.892777,-0.002171,2.617913,0.051999,0.002161,0.225295,-0.523660,-0.002106,-2.495424,-0.172852,0.003279,-0.448768,1.687242,0.999999,0.000927,-0.001377,-0.000450,-0.000333,0.001294,0.000356
2.420000,0.002190,-0.187958,0.893271,-0.002149,2.620041,0.046754,0.002141,0.200319,-0.525301,-0.001947,-2.499657,-0.154944,0.019559,-0.398989,1.820825,0.999999,0.000926,-0.001370,-0.000448,-0.000308,0.001285,0.000354
2.430000,0.002169,-0.161748,0.893712,-0.002128,2.621919,0.041494,0.002122,0.175303,-0.526763,-0.001902,-2.503429,-0.137981,-0.010803,-0.355502,1.569148,0.999999,0.000924,-0.001364,-0.000447,-0.000284,0.001276,0.000352
2.440000,0.002147,-0.135520,0.894101,-0.002107,2.623547,0.036219,0.002102,0.150252,-0.528064,-0.001983,-2.506741,-0.122080,0.003486,-0.305575,1.684989,0.999999,0.000923,-0.001357,-0.000445,-0.000262,0.001267,0.000349
2.450000,0.002126,-0.109278,0.894437,-0.002086,2.624924,0.030933,0.002083,0.125170,-0.529199,-0.001908,-2.509550,-0.104912,0.002487,-0.257462,1.674645,0.999999,0.000921,-0.001351,-0.000443,-0.000241,0.001258,0.000347
2.460000,0.002106,-0.083023,0.894720,-0.002065,2.626050,0.025636,0.002064,0.100063,-0.530164,-0.001900,-2.511806,-0.088011,0.001734,-0.207469,1.672443,0.999999,0.000920,-0.001345,-0.000441,-0.000221,0.001250,0.000345
2.470000,0.002085,-0.056758,0.894949,-0.002044,2.626925,0.020330,0.002045,0.074935,-0.530962,-0.001849,-2.513825,-0.071767,0.005952,-0.182880,1.608505,0.999999,0.000919,-0.001339,-0.000440,-0.000203,0.001241,0.000342
2.480000,0.002065,-0.030485,0.895126,-0.002024,2.627549,0.015017,0.002027,0.049789,-0.531598,-0.001836,-2.515183,-0.055166,-0.003315,-0.088271,1.712768,0.999999,0.000918,-0.001332,-0.000438,-0.000187,0.001232,0.000340
2.490000,0.002045,-0.004207,0.895250,-0.002004,2.627921,0.009699,0.002008,0.024633,-0.532064,-0.001863,-2.515859,-0.038159,0.000441,-0.060423,1.656346,0.999999,0.000917,-0.001326,-0.000436,-0.000173,0.001224,0.000338
2.500000,0.002025,0.022073,0.895320,-0.001984,2.628041,0.004377,0.001990,-0.000528,-0.532363,-0.001849,-2.516276,-0.021760,-0.000145,-0.009531,1.655828,0.999999,0.000916,-0.001320,-0.000435,-0.000159,0.001215,0.000335
2.510000,0.002005,0.048353,0.895337,-0.001964,2.627910,-0.000948,0.001971,-0.025690,-0.532497,-0.001795,-2.515998,-0.004852,0.000665,0.043086,1.661306,0.999999,0.000916,-0.001314,-0.000433,-0.000148,0.001206,0.000333
2.520000,0.001985,0.074630,0.895301,-0.001944,2.627528,-0.006273,0.001953,-0.050848,-0.532465,-0.001929,-2.515617,0.010875,-0.017563,0.054443,1.546869,0.999999,0.000915,-0.001308,-0.000431,-0.000137,0.001198,0.000331
2.530000,0.001966,0.100902,0.895212,-0.001925,2.626893,-0.011597,0.001933,-0.075999,-0.532276,-0.001938,-2.514459,0.027406,0.016195,0.177754,1.761491,0.999999,0.000914,-0.001302,-0.000430,-0.000128,0.001189,0.000329
2.540000,0.001947,0.127167,0.895069,-0.001906,2.626008,-0.016918,0.001915,-0.101134,-0.531914,-0.001806,-2.512496,0.044838,0.000126,0.193156,1.661779,0.999999,0.000914,-0.001296,-0.000428,-0.000121,0.001181,0.000327
2.550000,0.001928,0.153422,0.894873,-0.001887,2.624871,-0.022234,0.001896,-0.126249,-0.531384,-0.001850,-2.510413,0.061180,0.001059,0.244878,1.669963,0.999999,0.000913,-0.001290,-0.000426,-0.000114,0.001172,0.000325
2.560000,0.001909,0.179664,0.894625,-0.001868,2.623483,-0.027545,0.001878,-0.151341,-0.530687,-0.001870,-2.507914,0.078247,0.000705,0.290698,1.681550,0.999999,0.000912,-0.001284,-0.000425,-0.000109,0.001164,0.000323
2.570000,0.001891,0.205890,0.894323,-0.001849,2.621844,-0.032847,0.001860,-0.176403,-0.529824,-0.001783,-2.504272,0.094240,0.011043,0.402828,1.577213,0.999999,0.000912,-0.001279,-0.000423,-0.000105,0.001155,0.000321
2.580000,0.001872,0.232100,0.893968,-0.001831,2.619955,-0.038141,0.001842,-0.201427,-0.528799,-0.001766,-2.500588,0.111055,-0.007728,0.332909,1.787593,0.999999,0.000911,-0.001273,-0.000421,-0.000102,0.001147,0.000319
2.590000,0.001854,0.258289,0.893560,-0.001812,2.617816,-0.043423,0.001824,-0.226415,-0.527599,-0.001825,-2.496914,0.128771,0.001420,0.436836,1.694726,0.999999,0.000911,-0.001267,-0.000420,-0.000101,0.001139,0.000317
2.600000,0.001836,0.284455,0.893099,-0.001794,2.615427,-0.048692,0.001806,-0.251361,-0.526228,-0.001785,-2.492150,0.145461,0.001036,0.480947,1.703710,0.999999,0.000910,-0.001261,-0.000418,-0.000100,0.001130,0.000315
2.610000,0.001818,0.310596,0.892586,-0.001776,2.612788,-0.053947,0.001788,-0.276258,-0.524689,-0.001778,-2.487231,0.162285,0.000952,0.524504,1.702630,0.999999,0.000910,-0.001256,-0.000417,-0.000101,0.001122,0.000313
2.620000,0.001800,0.336710,0.892020,-0.001758,2.609902,-0.059185,0.001770,-0.301102,-0.522979,-0.001762,-2.481460,0.179893,0.001760,0.608585,1.778015,0.999999,0.000909,-0.001250,-0.000415,-0.000103,0.001114,0.000311
2.630000,0.001783,0.362794,0.891402,-0.001741,2.606767,-0.064406,0.001753,-0.325887,-0.521093,-0.001752,-2.475504,0.196984,0.000159,0.581974,1.638629,0.999999,0.000909,-0.001245,-0.000414,-0.000106,0.001105,0.000309
2.640000,0.001766,0.388845,0.890732,-0.001723,2.603384,-0.069607,0.001735,-0.350612,-0.519042,-0.001749,-2.469392,0.213481,0.000895,0.661677,1.701279,0.999999,0.000908,-0.001239,-0.000412,-0.000111,0.001097,0.000307
2.650000,0.001749,0.414860,0.890010,-0.001706,2.599755,-0.074786,0.001718,-0.375271,-0.516821,-0.001738,-2.462451,0.230654,0.000861,0.705409,1.691991,0.999999,0.000908,-0.001234,-0.000410,-0.000116,0.001089,0.000305
2.660000,0.001732,0.440839,0.889237,-0.001689,2.595879,-0.079943,0.001701,-0.399859,-0.514433,-0.001713,-2.454937,0.246911,0.001208,0.755559,1.669740,0.999999,0.000907,-0.001228,-0.000409,-0.000122,0.001081,0.000303
2.670000,0.001715,0.466777,0.888412,-0.001672,2.591758,-0.085074,0.001683,-0.424372,-0.511875,-0.001741,-2.447721,0.265040,-0.003924,0.728234,1.849834,0.999999,0.000906,-0.001223,-0.000407,-0.000129,0.001072,0.000301
2.680000,0.001698,0.492673,0.887535,-0.001655,2.587392,-0.090179,0.001666,-0.448810,-0.509138,-0.001731,-2.439524,0.281675,0.005888,0.912459,1.473445,0.999999,0.000906,-0.001218,-0.000406,-0.000136,0.001064,0.000299
2.690000,0.001682,0.518524,0.886608,-0.001639,2.582782,-0.095256,0.001649,-0.473159,-0.506247,-0.001681,-2.430287,0.296648,0.001363,0.894090,1.627819,0.999999,0.000905,-0.001212,-0.000404,-0.000145,0.001056,0.000297
2.700000,0.001665,0.544328,0.885630,-0.001622,2.577929,-0.100304,0.001632,-0.497417,-0.503197,-0.001680,-2.421295,0.313318,0.001720,0.945076,1.599392,0.999999,0.000904,-0.001207,-0.000403,-0.000153,0.001048,0.000296
2.710000,0.001649,0.570082,0.884602,-0.001606,2.572834,-0.105320,0.001615,-0.521582,-0.499984,-0.001669,-2.411595,0.329319,0.001726,0.993692,1.579249,0.999999,0.000903,-0.001202,-0.000401,-0.000162,0.001040,0.000294
2.720000,0.001633,0.595784,0.883524,-0.001590,2.567498,-0.110303,0.001599,-0.545647,-0.496613,-0.001633,-2.401431,0.344703,0.004267,1.040218,1.518226,0.999999,0.000903,-0.001197,-0.000400,-0.000171,0.001032,0.000292
2.730000,0.001617,0.621431,0.882396,-0.001574,2.561921,-0.115252,0.001583,-0.569609,-0.493090,-0.001612,-2.390768,0.360122,-0.000148,1.092457,1.566186,0.999999,0.000902,-0.001192,-0.000399,-0.000180,0.001023,0.000290
2.740000,0.001602,0.647021,0.881219,-0.001558,2.556106,-0.120164,0.001567,-0.593461,-0.489410,-0.001609,-2.379605,0.375603,0.002072,1.139004,1.509050,0.999999,0.000901,-0.001186,-0.000397,-0.000189,0.001015,0.000288
2.750000,0.001586,0.672552,0.879993,-0.001543,2.550052,-0.125039,0.001551,-0.617199,-0.485580,-0.001582,-2.367977,0.390482,0.001998,1.187452,1.487838,0.999999,0.000900,-0.001181,-0.000396,-0.000199,0.001007,0.000286
2.760000,0.001571,0.698022,0.878718,-0.001527,2.543762,-0.129875,0.001535,-0.640819,-0.481599,-0.001575,-2.355887,0.405596,0.001727,1.234981,1.472547,0.999999,0.000899,-0.001176,-0.000394,-0.000209,0.000999,0.000285
2.770000,0.001556,0.723427,0.877396,-0.001512,2.537236,-0.134671,0.001519,-0.664315,-0.477474,-0.001526,-2.343236,0.419359,0.005762,1.290769,1.340760,0.999999,0.000898,-0.001171,-0.000393,-0.000219,0.000991,0.000283
2.780000,0.001541,0.748766,0.876025,-0.001497,2.530476,-0.139424,0.001504,-0.687682,-0.473210,-0.001507,-2.330166,0.433686,-0.001946,1.323017,1.526448,0.999999,0.000897,-0.001166,-0.000391,-0.000229,0.000983,0.000281
2.790000,0.001526,0.774036,0.874607,-0.001482,2.523483,-0.144135,0.001489,-0.710917,-0.468797,-0.001520,-2.316687,0.448662,0.001619,1.377200,1.407717,0.999999,0.000895,-0.001162,-0.000390,-0.000239,0.000975,0.000279
2.800000,0.001511,0.799235,0.873143,-0.001467,2.516258,-0.148800,0.001474,-0.734014,-0.464242,-0.001493,-2.302662,0.462361,0.001356,1.423324,1.392970,0.999999,0.000894,-0.001157,-0.000389,-0.000249,0.000967,0.000277
2.810000,0.001496,0.824360,0.871631,-0.001453,2.508803,-0.153419,0.001459,-0.756969,-0.459549,-0.001464,-2.288216,0.476213,0.001584,1.468934,1.374625,0.999999,0.000893,-0.001152,-0.000387,-0.000257,0.000959,0.000275
2.820000,0.001482,0.849410,0.870074,-0.001438,2.501119,-0.157990,0.001444,-0.779777,-0.454719,-0.001489,-2.273255,0.489827,-0.003638,1.520056,1.350931,0.999999,0.000892,-0.001147,-0.000386,-0.000265,0.000951,0.000274
2.830000,0.001468,0.874382,0.868472,-0.001424,2.493208,-0.162513,0.001429,-0.802433,-0.449753,-0.001477,-2.257882,0.503289,0.006009,1.554372,1.341323,0.999999,0.000890,-0.001142,-0.000384,-0.000272,0.000943,0.000272
2.840000,0.001453,0.899273,0.866824,-0.001409,2.485071,-0.166985,0.001415,-0.824933,-0.444653,-0.001426,-2.242106,0.516598,0.001406,1.603838,1.317714,0.999999,0.000889,-0.001138,-0.000383,-0.000279,0.000936,0.000270
2.850000,0.001439,0.924082,0.865132,-0.001395,2.476710,-0.171405,0.001401,-0.847273,-0.439422,-0.001425,-2.225836,0.529666,0.001671,1.647238,1.298485,0.999999,0.000888,-0.001133,-0.000382,-0.000286,0.000928,0.000268
2.860000,0.001426,0.948807,0.863396,-0.001381,2.468126,-0.175773,0.001387,-0.869449,-0.434061,-0.001412,-2.209235,0.542483,0.001659,1.688587,1.277225,0.999999,0.000886,-0.001128,-0.000380,-0.000293,0.000920,0.000266
2.870000,0.001412,0.973444,0.861617,-0.001368,2.459322,-0.180086,0.001373,-0.891455,-0.428572,-0.001384,-2.191920,0.555322,0.003251,1.758954,1.278516,0.999999,0.000885,-0.001124,-0.000379,-0.000299,0.000912,0.000264
2.880000,0.001398,0.997992,0.859795,-0.001354,2.450298,-0.184344,0.001359,-0.913287,-0.422956,-0.001365,-2.174380,0.567801,0.000483,1.748546,1.216687,0.999999,0.000883,-0.001119,-0.000378,-0.000305,0.000904,0.000262
2.890000,0.001385,1.022449,0.857930,-0.001340,2.441057,-0.188545,0.001345,-0.934942,-0.417217,-0.001357,-2.156640,0.579896,0.001897,1.814849,1.214361,0.999999,0.000882,-0.001115,-0.000376,-0.000311,0.000897,0.000261
2.900000,0.001371,1.046813,0.856024,-0.001327,2.431600,-0.192688,0.001332,-0.956417,-0.411358,-0.001334,-2.138216,0.591983,0.001882,1.854648,1.190913,0.999999,0.000880,-0.001110,-0.000375,-0.000317,0.000889,0.000259
2.910000,0.001358,1.071081,0.854077,-0.001314,2.421929,-0.196772,0.001319,-0.977705,-0.405379,-0.001318,-2.119383,0.603716,0.001859,1.896333,1.166684,0.999999,0.000878,-0.001106,-0.000374,-0.000322,0.000881,0.000257
2.920000,0.001345,1.095251,0.852089,-0.001301,2.412046,-0.200795,0.001305,-0.998804,-0.399283,-0.001292,-2.100443,0.615426,0.002826,1.907519,1.163758,0.999999,0.000877,-0.001101,-0.000373,-0.000326,0.000874,0.000255
2.930000,0.001332,1.119321,0.850061,-0.001288,2.401953,-0.204757,0.001293,-1.019712,-0.393072,-0.001272,-2.080902,0.626748,0.001102,2.001090,1.100320,0.999999,0.000875,-0.001097,-0.000371,-0.000331,0.000866,0.000253
2.940000,0.001319,1.143289,0.847994,-0.001275,2.391653,-0.208656,0.001280,-1.040420,-0.386750,-0.001260,-2.060742,0.637662,0.001966,2.014797,1.093982,0.999999,0.000874,-0.001093,-0.000370,-0.000334,0.000859,0.000252
2.950000,0.001307,1.167153,0.845888,-0.001262,2.381146,-0.212492,0.001268,-1.060927,-0.380318,-0.001237,-2.040472,0.648528,0.001955,2.055109,1.067551,0.999999,0.000872,-0.001089,-0.000369,-0.000338,0.000851,0.000250
2.960000,0.001294,1.190911,0.843744,-0.001249,2.370435,-0.216262,0.001254,-1.081228,-0.373780,-0.001446,-2.019661,0.659073,-0.002532,2.095255,1.041427,0.999999,0.000870,-0.001084,-0.000368,-0.000341,0.000844,0.000248
2.970000,0.001282,1.214561,0.841563,-0.001237,2.359522,-0.219967,0.001242,-1.101320,-0.367138,-0.000909,-1.998677,0.669356,0.070133,2.112776,1.015002,0.999999,0.000868,-0.001080,-0.000366,-0.000344,0.000836,0.000246
2.980000,0.001269,1.238101,0.839345,-0.001225,2.348409,-0.223605,0.001234,-1.121199,-0.360394,-0.000881,-1.977167,0.679371,-0.065680,2.189515,0.988050,0.999999,0.000867,-0.001076,-0.000365,-0.000346,0.000829,0.000244
2.990000,0.001257,1.261529,0.837091,-0.001212,2.337099,-0.227174,0.001222,-1.140861,-0.353551,-0.001412,-1.955121,0.689117,-0.000246,2.207970,0.961103,0.999999,0.000865,-0.001072,-0.000364,-0.000348,0.000822,0.000243
3.000000,0.001245,1.284842,0.834802,-0.001200,2.325593,-0.230675,0.001209,-1.160302,-0.346613,-0.001225,-1.932911,0.698588,-0.002315,2.245303,0.933443,0.999999,0.000863,-0.001068,-0.000363,-0.000350,0.000815,0.000241
3.010000,0.001233,1.308040,0.832478,-0.001188,2.313893,-0.234106,0.001202,-1.179520,-0.339580,-0.000021,-1.910760,0.707954,0.023396,2.271389,0.909122,0.999999,0.000862,-0.001064,-0.000361,-0.000351,0.000808,0.000240
3.020000,0.001221,1.331120,0.830120,-0.001176,2.302003,-0.237467,0.001191,-1.198509,-0.332457,-0.002778,-1.886688,0.716486,-0.361576,2.458773,0.826976,0.999999,0.000860,-0.001060,-0.000360,-0.000352,0.000801,0.000238
3.030000,0.001210,1.354079,0.827729,-0.001164,2.289924,-0.240755,0.001157,-1.217257,-0.325250,-0.002776,-1.863350,0.725119,0.368554,2.206242,0.900402,0.999999,0.000858,-0.001056,-0.000359,-0.000353,0.000795,0.000237
3.040000,0.001198,1.376918,0.825305,-0.001153,2.277659,-0.243971,0.001148,-1.235779,-0.317954,0.000273,-1.840863,0.733889,0.025663,2.375921,0.823384,0.999999,0.000856,-0.001052,-0.000358,-0.000353,0.000788,0.000235
3.050000,0.001187,1.399632,0.822850,-0.001141,2.265209,-0.247114,0.001146,-1.254066,-0.310575,-0.000442,-1.816547,0.741839,0.045389,2.402435,0.796636,0.999999,0.000854,-0.001048,-0.000357,-0.000354,0.000780,0.000233
3.060000,0.001175,1.422221,0.820363,-0.001130,2.252578,-0.250183,0.001134,-1.272110,-0.303119,-0.002389,-1.792070,0.749234,0.000107,2.440822,0.758760,0.999999,0.000853,-0.001044,-0.000356,-0.000356,0.000772,0.000230
3.070000,0.001164,1.444683,0.817846,-0.001119,2.239768,-0.253176,0.001132,-1.289911,-0.295585,0.003556,-1.768210,0.757715,0.766236,2.382099,0.863081,0.999999,0.000851,-0.001040,-0.000354,-0.000357,0.000764,0.000227
3.080000,0.001153,1.467016,0.815300,-0.001107,2.226781,-0.256094,0.001183,-1.307470,-0.287970,0.004062,-1.743355,0.764938,-0.678457,2.590859,0.579216,0.999999,0.000849,-0.001036,-0.000353,-0.000359,0.000756,0.000224
3.090000,0.001142,1.489218,0.812725,-0.001095,2.213619,-0.258935,0.001190,-1.324774,-0.280292,-0.001468,-1.717419,0.770798,-0.001036,2.545046,0.667627,0.999999,0.000847,-0.001033,-0.000352,-0.000362,0.000749,0.000222
3.100000,0.001131,1.511288,0.810121,-0.001083,2.200286,-0.261700,0.001186,-1.341822,-0.272549,0.000424,-1.692014,0.777657,-0.045203,2.587571,0.629391,0.999999,0.000845,-0.001029,-0.000351,-0.000365,0.000743,0.000221
3.110000,0.001120,1.533223,0.807491,-0.001071,2.186784,-0.264386,0.001196,-1.358608,-0.264741,0.001815,-1.665068,0.783884,-0.021309,2.645402,0.598306,0.999999,0.000844,-0.001025,-0.000350,-0.000369,0.000739,0.000222
3.120000,0.001110,1.555023,0.804834,-0.001059,2.173115,-0.266994,0.001195,-1.375134,-0.256874,-0.003167,-1.640543,0.789461,-0.639723,2.411350,0.534601,0.999999,0.000842,-0.001021,-0.000349,-0.000374,0.000736,0.000224
3.130000,0.001099,1.576685,0.802151,-0.001048,2.159282,-0.269523,0.001150,-1.391410,-0.248952,-0.003940,-1.613652,0.794942,0.496078,2.971584,0.562226,0.999999,0.000840,-0.001018,-0.000348,-0.000378,0.000733,0.000226
3.140000,0.001089,1.598208,0.799444,-0.001036,2.145288,-0.271973,0.001135,-1.407397,-0.240975,-0.000012,-1.584185,0.800359,-0.048277,2.768412,0.504060,0.999999,0.000838,-0.001014,-0.000347,-0.000382,0.000730,0.000228
3.150000,0.001078,1.619590,0.796712,-0.001025,2.131135,-0.274343,0.001124,-1.423104,-0.232947,-0.002029,-1.556986,0.805175,-0.017798,2.823962,0.476763,0.999999,0.000836,-0.001010,-0.000345,-0.000387,0.000726,0.000229
3.160000,0.001068,1.640830,0.793957,-0.001014,2.116826,-0.276632,0.001105,-1.438535,-0.224869,-0.001699,-1.529349,0.810590,0.001217,2.850214,0.465236,0.999999,0.000834,-0.001007,-0.000344,-0.000390,0.000720,0.000228
3.170000,0.001058,1.661926,0.791180,-0.001003,2.102365,-0.278840,0.001084,-1.453678,-0.216747,-0.002765,-1.498663,0.813186,-0.134317,3.145899,0.191007,0.999999,0.000832,-0.001003,-0.000343,-0.000393,0.000714,0.000225
3.180000,0.001048,1.682877,0.788381,-0.000992,2.087754,-0.280967,0.001054,-1.468514,-0.208599,-0.002703,-1.469394,0.817284,0.148866,2.703177,0.632926,0.999999,0.000830,-0.001000,-0.000342,-0.000397,0.000707,0.000222
3.190000,0.001038,1.703681,0.785561,-0.000982,2.072996,-0.283012,0.001034,-1.483072,-0.200395,-0.001416,-1.441762,0.823077,0.027311,2.964701,0.387347,0.999999,0.000828,-0.000996,-0.000341,-0.000400,0.000700,0.000219
3.200000,0.001028,1.724336,0.782721,-0.000972,2.058093,-0.284975,0.001019,-1.497338,-0.192149,-0.001478,-1.411309,0.826201,0.040382,2.983363,0.375195,0.999999,0.000826,-0.000993,-0.000340,-0.000404,0.000693,0.000216
3.210000,0.001019,1.744842,0.779861,-0.000961,2.043050,-0.286855,0.000996,-1.511303,-0.183871,-0.003435,-1.381767,0.829192,-0.002485,3.000281,0.340067,0.999999,0.000824,-0.000989,-0.000339,-0.000409,0.000688,0.000215
3.220000,0.001009,1.765197,0.776984,-0.000952,2.027868,-0.288652,0.000984,-1.524966,-0.175556,0.002417,-1.350615,0.834077,0.755664,3.156585,0.522869,0.999999,0.000822,-0.000986,-0.000338,-0.000415,0.000682,0.000214
3.230000,0.001000,1.785399,0.774089,-0.000942,2.012552,-0.290366,0.001024,-1.538318,-0.167196,0.002917,-1.320179,0.837254,-0.668884,2.928059,0.108776,0.999999,0.000820,-0.000982,-0.000337,-0.000422,0.000678,0.000213
3.240000,0.000990,1.805447,0.771177,-0.000931,1.997103,-0.291996,0.001019,-1.551373,-0.158819,-0.002525,-1.290574,0.838550,0.001649,3.066901,0.265141,0.999999,0.000818,-0.000979,-0.000336,-0.000429,0.000673,0.000213
3.250000,0.000981,1.825341,0.768249,-0.000921,1.981525,-0.293542,0.001005,-1.564123,-0.150417,-0.000621,-1.259477,0.841581,-0.040192,3.079188,0.225710,0.999999,0.000816,-0.000976,-0.000334,-0.000436,0.000669,0.000213
3.260000,0.000972,1.845078,0.765306,-0.000911,1.965821,-0.295004,0.001006,-1.576562,-0.141992,0.001086,-1.228113,0.843325,-0.009251,3.105948,0.185401,0.999999,0.000813,-0.000972,-0.000333,-0.000444,0.000664,0.000213
3.270000,0.000963,1.864657,0.762349,-0.000901,1.949995,-0.296382,0.000996,-1.588692,-0.133547,-0.004395,-1.198165,0.845860,-0.706964,2.968690,0.260984,0.999999,0.000811,-0.000969,-0.000332,-0.000451,0.000658,0.000212
3.280000,0.000954,1.884077,0.759379,-0.000891,1.934049,-0.297675,0.000937,-1.600520,-0.125079,-0.005076,-1.166953,0.847272,0.582997,3.276415,0.019488,0.999999,0.000809,-0.000966,-0.000331,-0.000458,0.000653,0.000212
3.290000,0.000945,1.903337,0.756396,-0.000882,1.917986,-0.298883,0.000915,-1.612026,-0.116606,-0.000409,-1.134358,0.847475,-0.032457,3.156781,0.082132,0.999999,0.000807,-0.000962,-0.000330,-0.000465,0.000648,0.000211
3.300000,0.000936,1.922436,0.753402,-0.000873,1.901809,-0.300007,0.000900,-1.623213,-0.108126,-0.002468,-1.103095,0.848398,0.002572,3.182035,0.041543,0.999999,0.000804,-0.000959,-0.000329,-0.000470,0.000642,0.000210
3.310000,0.000928,1.941373,0.750396,-0.000864,1.885522,-0.301046,0.000873,-1.634085,-0.099638,-0.003036,-1.071280,0.849377,0.000270,3.199817,0.020347,0.999999,0.000802,-0.000956,-0.000328,-0.000475,0.000637,0.000209
3.320000,0.000919,1.960146,0.747381,-0.000856,1.869129,-0.302000,0.000848,-1.644637,-0.091150,-0.001393,-1.038927,0.847573,0.215312,3.252415,-0.250874,0.999999,0.000800,-0.000953,-0.000327,-0.000478,0.000632,0.000208
3.330000,0.000910,1.978755,0.744356,-0.000847,1.852631,-0.302869,0.000839,-1.654864,-0.082681,-0.001105,-1.006614,0.847091,-0.161431,3.209602,0.158548,0.999999,0.000797,-0.000950,-0.000326,-0.000481,0.000627,0.000207
3.340000,0.000902,1.997199,0.741324,-0.000839,1.836032,-0.303653,0.000820,-1.664770,-0.074202,-0.002337,-0.974368,0.848113,0.028992,3.258010,-0.085428,0.999999,0.000795,-0.000947,-0.000325,-0.000483,0.000623,0.000206
3.350000,0.000894,2.015476,0.738284,-0.000831,1.819336,-0.304353,0.000802,-1.674349,-0.065730,-0.001497,-0.941607,0.846496,0.025221,3.275499,-0.107155,0.999999,0.000792,-0.000943,-0.000324,-0.000484,0.000618,0.000204
3.360000,0.000885,2.033585,0.735237,-0.000823,1.802546,-0.304968,0.000788,-1.683601,-0.057272,-0.001156,-0.908621,0.844999,0.029431,3.296731,-0.143340,0.999999,0.000790,-0.000940,-0.000323,-0.000484,0.000614,0.000203
3.370000,0.000877,2.051526,0.732185,-0.000815,1.785666,-0.305498,0.000777,-1.692523,-0.048827,-0.001034,-0.875901,0.844078,0.007895,3.271360,-0.088626,0.999999,0.000788,-0.000937,-0.000322,-0.000484,0.000610,0.000202
3.380000,0.000869,2.069298,0.729127,-0.000807,1.768697,-0.305944,0.000768,-1.701117,-0.040394,-0.000730,-0.842687,0.842223,0.052949,3.372307,-0.283989,0.999999,0.000785,-0.000934,-0.000321,-0.000484,0.000607,0.000200
3.390000,0.000861,2.086900,0.726066,-0.000800,1.751644,-0.306306,0.000764,-1.709375,-0.031986,-0.000240,-0.808944,0.839358,0.031940,3.351723,-0.241074,0.999999,0.000783,-0.000931,-0.000320,-0.000484,0.000603,0.000199
3.400000,0.000853,2.104331,0.723001,-0.000792,1.734511,-0.306584,0.000762,-1.717297,-0.023604,0.000015,-0.775445,0.836990,0.031743,3.372409,-0.280709,0.999999,0.000780,-0.000928,-0.000319,-0.000484,0.000599,0.000197
3.410000,0.000845,2.121590,0.719935,-0.000784,1.717300,-0.306778,0.000761,-1.724883,-0.015252,-0.000364,-0.741783,0.833289,0.015708,3.387786,-0.332522,0.999999,0.000778,-0.000925,-0.000318,-0.000485,0.000594,0.000194
3.420000,0.000837,2.138677,0.716866,-0.000777,1.700014,-0.306889,0.000765,-1.732130,-0.006930,0.001461,-0.707442,0.831503,0.229401,3.453993,-0.147629,0.999999,0.000775,-0.000922,-0.000317,-0.000486,0.000590,0.000191
3.430000,0.000830,2.155590,0.713797,-0.000769,1.682658,-0.306917,0.000784,-1.739033,0.001371,0.001707,-0.673258,0.827752,-0.183958,3.381983,-0.606450,0.999999,0.000773,-0.000919,-0.000316,-0.000488,0.000586,0.000189
3.440000,0.000822,2.172329,0.710728,-0.000761,1.665235,-0.306862,0.000792,-1.745596,0.009617,0.000204,-0.639269,0.821866,0.004263,3.442523,-0.446372,0.999999,0.000771,-0.000916,-0.000315,-0.000489,0.000581,0.000187
3.450000,0.000814,2.188894,0.707660,-0.000753,1.647747,-0.306725,0.000797,-1.751816,0.017816,0.000767,-0.604637,0.817772,-0.012096,3.457518,-0.495841,0.999999,0.000768,-0.000914,-0.000314,-0.000491,0.000577,0.000186
3.460000,0.000807,2.205284,0.704594,-0.000745,1.630199,-0.306506,0.000807,-1.757687,0.025971,0.001146,-0.569458,0.813212,-0.009113,3.484684,-0.523590,0.999999,0.000766,-0.000911,-0.000313,-0.000492,0.000572,0.000186
3.470000,0.000800,2.221498,0.701530,-0.000737,1.612595,-0.306206,0.000812,-1.763212,0.034071,-0.000305,-0.535806,0.806315,-0.186616,3.336478,-0.750776,0.999999,0.000763,-0.000908,-0.000312,-0.000493,0.000568,0.000187
3.480000,0.000792,2.237536,0.698470,-0.000729,1.594936,-0.305825,0.000805,-1.768398,0.042102,-0.000604,-0.500824,0.800399,0.129862,3.662707,-0.428830,0.999999,0.000761,-0.000905,-0.000311,-0.000494,0.000564,0.000188
3.490000,0.000785,2.253397,0.695414,-0.000721,1.577228,-0.305364,0.000805,-1.773223,0.050084,0.000390,-0.464394,0.795631,-0.025949,3.531349,-0.630075,0.999999,0.000758,-0.000902,-0.000310,-0.000493,0.000560,0.000189
3.500000,0.000778,2.269080,0.692363,-0.000713,1.559473,-0.304823,0.000805,-1.777692,0.058005,-0.000312,-0.429420,0.788702,-0.019406,3.554193,-0.650083,0.999999,0.000756,-0.000899,-0.000310,-0.000492,0.000556,0.000189
3.510000,0.000771,2.284586,0.689318,-0.000705,1.541675,-0.304204,0.000803,-1.781811,0.065862,-0.000152,-0.394328,0.782743,-0.011057,3.558611,-0.661468,0.999999,0.000753,-0.000897,-0.000309,-0.000490,0.000551,0.000188
3.520000,0.000764,2.299914,0.686279,-0.000697,1.523838,-0.303506,0.000798,-1.785571,0.073650,-0.001107,-0.357382,0.774374,-0.119044,3.738155,-0.895667,0.999999,0.000751,-0.000894,-0.000308,-0.000488,0.000546,0.000186
3.530000,0.000757,2.315063,0.683248,-0.000689,1.505965,-0.302731,0.000784,-1.788962,0.081355,-0.001257,-0.321502,0.767279,0.090898,3.434749,-0.519532,0.999999,0.000749,-0.000891,-0.000307,-0.000484,0.000542,0.000184
3.540000,0.000750,2.330033,0.680225,-0.000681,1.488060,-0.301879,0.000776,-1.792006,0.089001,-0.000517,-0.286834,0.761628,-0.004197,3.591353,-0.728084,0.999999,0.000746,-0.000889,-0.000306,-0.000479,0.000537,0.000182
3.550000,0.000743,2.344824,0.677211,-0.000673,1.470126,-0.300951,0.000769,-1.794692,0.096578,-0.000822,-0.250470,0.753716,0.004276,3.588690,-0.737349,0.999999,0.000744,-0.000886,-0.000305,-0.000474,0.000532,0.000179
3.560000,0.000736,2.359435,0.674206,-0.000666,1.452167,-0.299948,0.000759,-1.797019,0.104075,-0.001313,-0.214956,0.745672,-0.002853,3.582709,-0.766450,0.999999,0.000741,-0.000883,-0.000304,-0.000468,0.000528,0.000178
3.570000,0.000730,2.373867,0.671212,-0.000658,1.434187,-0.298870,0.000751,-1.798986,0.111499,0.000038,-0.178186,0.739351,0.176134,3.704219,-0.600025,0.999999,0.000739,-0.000881,-0.000303,-0.000462,0.000524,0.000176
3.580000,0.000723,2.388119,0.668229,-0.000651,1.416189,-0.297718,0.000755,-1.800586,0.118856,0.000173,-0.142278,0.731528,-0.152347,3.475320,-0.967939,0.999999,0.000737,-0.000878,-0.000302,-0.000455,0.000520,0.000175
3.590000,0.000717,2.402191,0.665258,-0.000643,1.398176,-0.296493,0.000749,-1.801835,0.126123,-0.001049,-0.107330,0.722051,0.005776,3.581689,-0.824654,0.999999,0.000735,-0.000875,-0.000301,-0.000449,0.000516,0.000174
3.600000,0.000710,2.416082,0.662299,-0.000636,1.380153,-0.295196,0.000741,-1.802727,0.133305,-0.000543,-0.071215,0.714155,-0.002120,3.573893,-0.857083,0.999999,0.000732,-0.000873,-0.000301,-0.000443,0.000512,0.000173
3.610000,0.000704,2.429794,0.659354,-0.000628,1.362123,-0.293828,0.000737,-1.803257,0.140401,-0.000340,-0.034675,0.705078,0.000933,3.586966,-0.891363,0.999999,0.000730,-0.000870,-0.000300,-0.000438,0.000508,0.000172
3.620000,0.000698,2.443325,0.656423,-0.000621,1.344089,-0.292388,0.000731,-1.803432,0.147410,-0.000910,-0.000827,0.696945,-0.074207,3.325320,-0.800589,0.999999,0.000728,-0.000868,-0.000299,-0.000433,0.000504,0.000170
3.630000,0.000692,2.456676,0.653507,-0.000614,1.326056,-0.290880,0.000720,-1.803267,0.154336,-0.000970,0.034828,0.687693,0.063430,3.810309,-1.051832,0.999999,0.000726,-0.000865,-0.000298,-0.000430,0.000500,0.000169
3.640000,0.000686,2.469846,0.650606,-0.000607,1.308025,-0.289302,0.000714,-1.802728,0.161160,-0.000463,0.072490,0.677228,-0.003089,3.577886,-0.975201,0.999999,0.000724,-0.000863,-0.000297,-0.000426,0.000496,0.000168
3.650000,0.000680,2.482836,0.647721,-0.000599,1.290002,-0.287657,0.000708,-1.801828,0.167884,-0.000683,0.107607,0.667630,0.000023,3.589036,-1.010175,0.999999,0.000721,-0.000860,-0.000296,-0.000424,0.000492,0.000166
3.660000,0.000674,2.495646,0.644853,-0.000592,1.271990,-0.285945,0.000701,-1.800574,0.174511,-0.000725,0.143165,0.657661,-0.000378,3.583531,-1.034783,0.999999,0.000719,-0.000858,-0.000295,-0.000421,0.000489,0.000165
3.670000,0.000668,2.508276,0.642002,-0.000585,1.253992,-0.284167,0.000694,-1.798960,0.181033,-0.000617,0.179844,0.646464,0.014180,3.692106,-1.154703,0.999999,0.000717,-0.000855,-0.000295,-0.000418,0.000485,0.000164
3.680000,0.000662,2.520726,0.639170,-0.000579,1.236012,-0.282324,0.000688,-1.796980,0.187442,-0.000605,0.215745,0.635615,-0.011994,3.486045,-1.013549,0.999999,0.000715,-0.000853,-0.000294,-0.000416,0.000481,0.000162
3.690000,0.000656,2.532996,0.636356,-0.000572,1.218054,-0.280418,0.000682,-1.794648,0.193747,-0.000699,0.250772,0.625189,0.000892,3.579696,-1.121723,0.999999,0.000713,-0.000851,-0.000293,-0.000413,0.000477,0.000161
3.700000,0.000650,2.545087,0.633561,-0.000565,1.200120,-0.278450,0.000675,-1.791960,0.199941,-0.000654,0.286825,0.613609,0.000436,3.569932,-1.144001,0.999999,0.000711,-0.000848,-0.000292,-0.000411,0.000473,0.000160
3.710000,0.000645,2.556999,0.630787,-0.000558,1.182216,-0.276420,0.000668,-1.788914,0.206020,-0.000646,0.322443,0.602140,0.000524,3.561743,-1.166772,0.999999,0.000709,-0.000846,-0.000291,-0.000408,0.000469,0.000158
3.720000,0.000639,2.568732,0.628033,-0.000552,1.164343,-0.274330,0.000662,-1.785511,0.211981,-0.000648,0.358133,0.590118,-0.000404,3.567934,-1.220828,0.999999,0.000707,-0.000843,-0.000291,-0.000406,0.000465,0.000157
3.730000,0.000634,2.580286,0.625301,-0.000545,1.146507,-0.272181,0.000655,-1.781752,0.217822,-0.000643,0.393630,0.578075,0.001392,3.531016,-1.187265,0.999999,0.000705,-0.000841,-0.000290,-0.000404,0.000462,0.000156
3.740000,0.000628,2.591662,0.622590,-0.000538,1.128709,-0.269974,0.000649,-1.777639,0.223543,-0.000631,0.428912,0.566039,0.000557,3.533486,-1.236499,0.999999,0.000703,-0.000839,-0.000289,-0.000401,0.000458,0.000154
3.750000,0.000623,2.602860,0.619901,-0.000532,1.110955,-0.267710,0.000643,-1.773173,0.229141,-0.000628,0.464224,0.553487,0.000610,3.520976,-1.256830,0.999999,0.000701,-0.000837,-0.000288,-0.000399,0.000454,0.000153
3.760000,0.000618,2.613881,0.617236,-0.000526,1.093247,-0.265391,0.000637,-1.768355,0.234612,-0.000620,0.499419,0.540760,0.000646,3.509101,-1.278693,0.999999,0.000699,-0.000834,-0.000288,-0.000396,0.000450,0.000152
3.770000,0.000613,2.624725,0.614594,-0.000519,1.075589,-0.263018,0.000630,-1.763186,0.239956,-0.000616,0.534323,0.528006,0.000349,3.479910,-1.281589,0.999999,0.000697,-0.000832,-0.000287,-0.000393,0.000446,0.000150
3.780000,0.000607,2.635393,0.611976,-0.000513,1.057984,-0.260593,0.000624,-1.757668,0.245171,-0.000610,0.569192,0.514929,0.000941,3.494086,-1.333982,0.999999,0.000695,-0.000830,-0.000286,-0.000390,0.000442,0.000149
3.790000,0.000602,2.645885,0.609382,-0.000507,1.040437,-0.258115,0.000618,-1.751802,0.250254,-0.000601,0.604029,0.501522,0.000674,3.464572,-1.337773,0.999999,0.000693,-0.000828,-0.000285,-0.000388,0.000438,0.000148
3.800000,0.000597,2.656202,0.606813,-0.000501,1.022950,-0.255588,0.000612,-1.745589,0.255202,-0.000595,0.638556,0.488093,0.000698,3.448850,-1.357423,0.999999,0.000691,-0.000825,-0.000285,-0.000385,0.000435,0.000146
3.810000,0.000592,2.666344,0.604270,-0.000495,1.005526,-0.253012,0.000606,-1.739031,0.260014,-0.000589,0.672992,0.474397,0.000696,3.432091,-1.376452,0.999999,0.000689,-0.000823,-0.000284,-0.000383,0.000431,0.000145
3.820000,0.000587,2.676313,0.601753,-0.000489,0.988170,-0.250388,0.000600,-1.732130,0.264690,-0.000580,0.707139,0.460614,0.000911,3.402948,-1.385124,0.999999,0.000687,-0.000821,-0.000283,-0.000380,0.000427,0.000144
3.830000,0.000582,2.686108,0.599263,-0.000483,0.970885,-0.247719,0.000595,-1.724889,0.269226,-0.000573,0.741171,0.446590,0.000540,3.403533,-1.419682,0.999999,0.000685,-0.000819,-0.000282,-0.000377,0.000423,0.000143
3.840000,0.000578,2.695731,0.596799,-0.000477,0.953673,-0.245004,0.000589,-1.717307,0.273621,-0.000567,0.775087,0.432325,0.000734,3.373529,-1.428118,0.999999,0.000684,-0.000817,-0.000282,-0.000375,0.000419,0.000141
3.850000,0.000573,2.705182,0.594363,-0.000471,0.936540,-0.242247,0.000583,-1.709388,0.277872,-0.000559,0.808684,0.417987,0.000740,3.352070,-1.444538,0.999999,0.000682,-0.000815,-0.000281,-0.000372,0.000415,0.000140
3.860000,0.000568,2.714462,0.591954,-0.000465,0.919487,-0.239447,0.000578,-1.701135,0.281980,-0.000548,0.842014,0.403527,0.000820,3.327699,-1.458650,0.999999,0.000680,-0.000813,-0.000280,-0.000370,0.000411,0.000139
3.870000,0.000564,2.723572,0.589574,-0.000459,0.902518,-0.236608,0.000572,-1.692548,0.285941,-0.000548,0.875361,0.388711,-0.000153,3.328016,-1.493455,0.999999,0.000678,-0.000811,-0.000280,-0.000367,0.000408,0.000137
3.880000,0.000559,2.732512,0.587222,-0.000453,0.885637,-0.233729,0.000567,-1.683629,0.289754,-0.000540,0.908289,0.373894,0.001744,3.256924,-1.469470,0.999999,0.000676,-0.000809,-0.000279,-0.000364,0.000404,0.000136
3.890000,0.000555,2.741285,0.584900,-0.000448,0.868847,-0.230813,0.000562,-1.674383,0.293419,-0.000524,0.940767,0.359099,0.000886,3.252208,-1.500649,0.999999,0.000674,-0.000807,-0.000278,-0.000361,0.000400,0.000135
3.900000,0.000550,2.749890,0.582606,-0.000442,0.852150,-0.227861,0.000556,-1.664813,0.296935,-0.000518,0.973214,0.343978,0.000965,3.223479,-1.512246,0.999999,0.000673,-0.000805,-0.000278,-0.000358,0.000396,0.000133
3.910000,0.000546,2.758328,0.580342,-0.000437,0.835551,-0.224875,0.000551,-1.654920,0.300299,-0.000509,1.005319,0.328771,0.000983,3.194528,-1.524318,0.999999,0.000671,-0.000803,-0.000277,-0.000355,0.000392,0.000132
3.920000,0.000541,2.766601,0.578109,-0.000431,0.819053,-0.221856,0.000546,-1.644708,0.303510,-0.000496,1.037067,0.313539,0.001367,3.158371,-1.526718,0.999999,0.000669,-0.000801,-0.000276,-0.000352,0.000388,0.000131
3.930000,0.000537,2.774710,0.575905,-0.000426,0.802658,-0.218805,0.000541,-1.634180,0.306569,-0.000485,1.068553,0.298139,0.000737,3.138615,-1.553449,0.999999,0.000667,-0.000799,-0.000276,-0.000348,0.000385,0.000129
3.940000,0.000533,2.782655,0.573733,-0.000420,0.786370,-0.215725,0.000536,-1.623338,0.309472,-0.000477,1.099770,0.282569,0.001069,3.101308,-1.555663,0.999999,0.000666,-0.000797,-0.000275,-0.000345,0.000381,0.000128
3.950000,0.000529,2.790437,0.571591,-0.000415,0.770193,-0.212616,0.000532,-1.612186,0.312220,-0.000466,1.130598,0.266987,0.001064,3.068208,-1.565450,0.999999,0.000664,-0.000795,-0.000274,-0.000341,0.000377,0.000127
3.960000,0.000525,2.798059,0.569481,-0.000410,0.754128,-0.209481,0.000527,-1.600727,0.314812,-0.000457,1.161158,0.251254,0.001018,3.035092,-1.574990,0.999999,0.000662,-0.000793,-0.000274,-0.000338,0.000373,0.000126
3.970000,0.000520,2.805520,0.567402,-0.000405,0.738179,-0.206320,0.000523,-1.588965,0.317246,-0.000442,1.191219,0.235543,0.001736,2.985128,-1.572857,0.999999,0.000660,-0.000791,-0.000273,-0.000335,0.000369,0.000124
3.980000,0.000516,2.812823,0.565354,-0.000399,0.722349,-0.203136,0.000518,-1.576903,0.319522,-0.000431,1.221030,0.219679,0.000357,2.977042,-1.600124,0.999999,0.000659,-0.000789,-0.000272,-0.000331,0.000366,0.000123
3.990000,0.000513,2.819968,0.563339,-0.000394,0.706642,-0.199931,0.000514,-1.564545,0.321639,-0.000426,1.250590,0.203659,0.000983,2.926531,-1.597904,0.999999,0.000657,-0.000788,-0.000272,-0.000328,0.000362,0.000122
4.000000,0.000509,2.826956,0.561356,-0.000389,0.691060,-0.196704,0.000510,-1.551893,0.323595,-0.000415,1.279630,0.187675,0.000922,2.889240,-1.604695,0.999999,0.000655,-0.000786,-0.000271,-0.000325,0.000358,0.000120
4.010000,0.000505,2.833789,0.559405,-0.000384,0.675605,-0.193459,0.000506,-1.538953,0.325392,-0.000405,1.308302,0.171620,0.000912,2.849611,-1.610033,0.999999,0.000654,-0.000784,-0.000271,-0.000321,0.000354,0.000119
4.020000,0.000501,2.840469,0.557487,-0.000379,0.660281,-0.190197,0.000502,-1.525728,0.327027,-0.000399,1.336661,0.155442,0.000462,2.817413,-1.621646,0.999999,0.000652,-0.000782,-0.000270,-0.000318,0.000350,0.000118
4.030000,0.000497,2.846995,0.555601,-0.000374,0.645091,-0.186919,0.000498,-1.512222,0.328501,-0.000391,1.364553,0.139266,0.001207,2.760704,-1.613393,0.999999,0.000651,-0.000781,-0.000269,-0.000315,0.000347,0.000117
4.040000,0.000493,2.853371,0.553748,-0.000369,0.630038,-0.183627,0.000494,-1.498439,0.329813,-0.000379,1.391961,0.123103,0.000804,2.725268,-1.622678,0.999999,0.000649,-0.000779,-0.000269,-0.000311,0.000343,0.000115
4.050000,0.000490,2.859597,0.551928,-0.000364,0.615124,-0.180323,0.000490,-1.484384,0.330962,-0.000372,1.419016,0.106845,0.000793,2.680975,-1.625039,0.999999,0.000648,-0.000777,-0.000268,-0.000308,0.000339,0.000114
4.060000,0.000486,2.865674,0.550142,-0.000359,0.600351,-0.177009,0.000486,-1.470060,0.331950,-0.000372,1.445598,0.090590,0.000629,2.635734,-1.626684,0.999999,0.000646,-0.000775,-0.000268,-0.000304,0.000335,0.000113
4.070000,0.000483,2.871604,0.548388,-0.000354,0.585723,-0.173685,0.000483,-1.455473,0.332774,-0.000348,1.471732,0.074306,0.002828,2.590303,-1.629101,0.999999,0.000645,-0.000774,-0.000267,-0.000301,0.000331,0.000112
4.080000,0.000479,2.877389,0.546668,-0.000350,0.571243,-0.170354,0.000479,-1.440627,0.333436,-0.000341,1.497390,0.058028,-0.001355,2.541060,-1.626445,0.999999,0.000643,-0.000772,-0.000267,-0.000298,0.000328,0.000110
4.090000,0.000476,2.883029,0.544981,-0.000345,0.556912,-0.167017,0.000476,-1.425527,0.333935,-0.000351,1.522560,0.041763,0.000623,2.493359,-1.627065,0.999999,0.000642,-0.000771,-0.000266,-0.000294,0.000324,0.000109
4.100000,0.000472,2.888527,0.543328,-0.000340,0.542733,-0.163676,0.000472,-1.410177,0.334271,-0.000339,1.547250,0.025496,0.000536,2.443935,-1.625468,0.999999,0.000640,-0.000769,-0.000266,-0.000291,0.000320,0.000108
4.110000,0.000469,2.893885,0.541708,-0.000335,0.528709,-0.160332,0.000469,-1.394584,0.334445,-0.000307,1.571423,0.009240,0.001086,2.391931,-1.623393,0.999999,0.000639,-0.000767,-0.000265,-0.000287,0.000316,0.000106
4.120000,0.000465,2.899102,0.540121,-0.000331,0.514842,-0.156987,0.000466,-1.378751,0.334456,-0.000361,1.595065,-0.006952,-0.007281,2.337409,-1.616743,0.999999,0.000637,-0.000766,-0.000264,-0.000284,0.000313,0.000105
4.130000,0.000462,2.904182,0.538568,-0.000326,0.501135,-0.153643,0.000462,-1.362684,0.334306,-0.000355,1.618191,-0.023132,0.008613,2.287750,-1.619246,0.999999,0.000636,-0.000764,-0.000264,-0.000281,0.000309,0.000104
4.140000,0.000459,2.909125,0.537048,-0.000321,0.487589,-0.150302,0.000459,-1.346389,0.333993,-0.000282,1.640792,-0.039295,0.001193,2.230978,-1.611237,0.999999,0.000634,-0.000763,-0.000263,-0.000277,0.000305,0.000103
4.150000,0.000456,2.913934,0.535562,-0.000317,0.474208,-0.146964,0.000456,-1.329870,0.333520,-0.000291,1.662817,-0.055371,0.001676,2.174982,-1.605713,0.999999,0.000633,-0.000761,-0.000263,-0.000274,0.000301,0.000101
4.160000,0.000453,2.918610,0.534109,-0.000312,0.460992,-0.143632,0.000453,-1.313134,0.332886,-0.000302,1.684279,-0.071392,0.001253,2.117602,-1.599027,0.999999,0.000632,-0.000760,-0.000262,-0.000270,0.000298,0.000100
4.170000,0.000450,2.923155,0.532689,-0.000308,0.447946,-0.140307,0.000451,-1.296187,0.332092,-0.000220,1.705168,-0.087356,0.010209,2.059672,-1.592893,0.999999,0.000630,-0.000758,-0.000262,-0.000267,0.000294,0.000099
4.180000,0.000446,2.927570,0.531303,-0.000303,0.435069,-0.136991,0.000449,-1.279033,0.331139,-0.000201,1.725460,-0.103231,-0.006485,1.998533,-1.581863,0.999999,0.000629,-0.000757,-0.000261,-0.000264,0.000291,0.000098
4.190000,0.000443,2.931857,0.529949,-0.000299,0.422366,-0.133685,0.000446,-1.261679,0.330028,-0.000251,1.745142,-0.119006,0.001374,1.937923,-1.573747,0.999999,0.000628,-0.000755,-0.000261,-0.000260,0.000287,0.000097
4.200000,0.000440,2.936017,0.528629,-0.000294,0.409836,-0.130390,0.000444,-1.244132,0.328760,-0.000215,1.764211,-0.134695,0.000827,1.875440,-1.563284,0.999999,0.000626,-0.000754,-0.000260,-0.000257,0.000283,0.000096
4.210000,0.000438,2.940054,0.527342,-0.000290,0.397484,-0.127110,0.000442,-1.226397,0.327335,-0.000216,1.782641,-0.150267,0.000418,1.811513,-1.551874,0.999999,0.000625,-0.000752,-0.000260,-0.000254,0.000280,0.000095
4.220000,0.000435,2.943968,0.526087,-0.000285,0.385309,-0.123844,0.000440,-1.208481,0.325755,-0.000194,1.800450,-0.165736,0.002689,1.748801,-1.540938,0.999999,0.000624,-0.000751,-0.000260,-0.000250,0.000276,0.000093
4.230000,0.000432,2.947761,0.524865,-0.000281,0.373314,-0.120595,0.000438,-1.190391,0.324020,-0.000192,1.817585,-0.181067,-0.002301,1.677898,-1.525074,0.999999,0.000623,-0.000750,-0.000259,-0.000247,0.000272,0.000092
4.240000,0.000429,2.951435,0.523675,-0.000277,0.361502,-0.117364,0.000436,-1.172132,0.322134,-0.000212,1.834029,-0.196249,-0.000274,1.612148,-1.511974,0.999999,0.000621,-0.000748,-0.000259,-0.000243,0.000269,0.000091
4.250000,0.000426,2.954991,0.522517,-0.000272,0.349872,-0.114153,0.000434,-1.153712,0.320096,-0.000209,1.849816,-0.211298,-0.000581,1.543208,-1.496714,0.999999,0.000620,-0.000747,-0.000258,-0.000240,0.000265,0.000089
4.260000,0.000424,2.958433,0.521392,-0.000268,0.338428,-0.110963,0.000432,-1.135138,0.317908,-0.000182,1.864900,-0.226183,-0.000068,1.472893,-1.480385,0.999999,0.000619,-0.000746,-0.000258,-0.000237,0.000261,0.000088
4.270000,0.000421,2.961761,0.520298,-0.000264,0.327170,-0.107795,0.000430,-1.116417,0.315573,-0.000266,1.879265,-0.240906,-0.010884,1.400390,-1.463720,0.999999,0.000618,-0.000744,-0.000257,-0.000233,0.000258,0.000087
4.280000,0.000418,2.964977,0.519236,-0.000259,0.316100,-0.104652,0.000427,-1.097555,0.313091,-0.000275,1.892913,-0.255447,0.009229,1.328983,-1.444196,1.000000,0.000617,-0.000743,-0.000257,-0.000230,0.000254,0.000086
4.290000,0.000416,2.968083,0.518205,-0.000255,0.305219,-0.101534,0.000424,-1.078561,0.310464,-0.000201,1.905832,-0.269794,-0.000308,1.254071,-1.425378,1.000000,0.000616,-0.000742,-0.000256,-0.000226,0.000250,0.000084
4.300000,0.000413,2.971082,0.517205,-0.000251,0.294529,-0.098443,0.000422,-1.059441,0.307696,-0.000231,1.917991,-0.283949,0.000268,1.178319,-1.405045,1.000000,0.000614,-0.000741,-0.000256,-0.000223,0.000247,0.000083
4.310000,0.000411,2.973974,0.516236,-0.000247,0.284031,-0.095381,0.000420,-1.040204,0.304786,-0.000247,1.929393,-0.297893,0.000054,1.101434,-1.383629,1.000000,0.000613,-0.000739,-0.000256,-0.000220,0.000243,0.000082
4.320000,0.000408,2.976763,0.515297,-0.000243,0.273726,-0.092348,0.000418,-1.020856,0.301738,-0.000197,1.940010,-0.311619,0.006538,1.022179,-1.361300,1.000000,0.000612,-0.000738,-0.000255,-0.000217,0.000239,0.000081
4.330000,0.000406,2.979450,0.514389,-0.000238,0.263614,-0.089346,0.000416,-1.001406,0.298555,-0.000190,1.949843,-0.325114,-0.005226,0.944318,-1.337597,1.000000,0.000611,-0.000737,-0.000255,-0.000213,0.000236,0.000080
4.340000,0.000404,2.982036,0.513510,-0.000234,0.253698,-0.086377,0.000414,-0.981862,0.295237,-0.000231,1.958881,-0.338369,0.000506,0.862350,-1.313169,1.000000,0.000610,-0.000736,-0.000254,-0.000210,0.000232,0.000079
4.350000,0.000401,2.984524,0.512661,-0.000230,0.243977,-0.083442,0.000411,-0.962231,0.291788,-0.000209,1.967095,-0.351373,0.000260,0.780305,-1.287544,1.000000,0.000609,-0.000735,-0.000254,-0.000207,0.000229,0.000077
4.360000,0.000399,2.986916,0.511841,-0.000226,0.234453,-0.080542,0.000409,-0.942522,0.288210,-0.000205,1.974483,-0.364129,0.000268,0.696691,-1.261133,1.000000,0.000608,-0.000733,-0.000254,-0.000204,0.000225,0.000076
4.370000,0.000397,2.989214,0.511050,-0.000222,0.225127,-0.077678,0.000407,-0.922744,0.284506,-0.000207,1.981021,-0.376571,-0.000335,0.610951,-1.229363,1.000000,0.000607,-0.000732,-0.000253,-0.000201,0.000222,0.000075
4.380000,0.000394,2.991419,0.510288,-0.000218,0.215999,-0.074852,0.000405,-0.902905,0.280680,-0.000205,1.986706,-0.388759,0.000707,0.525913,-1.208124,1.000000,0.000606,-0.000731,-0.000253,-0.000198,0.000218,0.000074
4.390000,0.000392,2.993535,0.509553,-0.000214,0.207069,-0.072065,0.000403,-0.883013,0.276732,-0.000199,1.991527,-0.400685,0.000164,0.437611,-1.174613,1.000000,0.000605,-0.000730,-0.000252,-0.000194,0.000215,0.000073
4.400000,0.000390,2.995561,0.508846,-0.000210,0.198339,-0.069318,0.000401,-0.863077,0.272667,-0.000199,1.995454,-0.412266,0.000160,0.348311,-1.143751,1.000000,0.000604,-0.000729,-0.000252,-0.000191,0.000211,0.000071
4.410000,0.000388,2.997502,0.508167,-0.000206,0.189808,-0.066612,0.000399,-0.843107,0.268488,-0.000196,1.998480,-0.423536,0.000166,0.257626,-1.111440,1.000000,0.000603,-0.000728,-0.000252,-0.000188,0.000208,0.000070
4.420000,0.000386,2.999358,0.507514,-0.000202,0.181477,-0.063949,0.000397,-0.823111,0.264197,-0.000199,2.000611,-0.434505,-0.000368,0.167355,-1.080854,1.000000,0.000602,-0.000727,-0.000251,-0.000185,0.000204,0.000069
4.430000,0.000384,3.001132,0.506887,-0.000198,0.173346,-0.061329,0.000395,-0.803098,0.259799,-0.000198,2.001803,-0.445117,0.000563,0.070760,-1.041260,1.000000,0.000601,-0.000726,-0.000251,-0.000182,0.000201,0.000068
4.440000,0.000382,3.002826,0.506287,-0.000194,0.165415,-0.058753,0.000393,-0.783078,0.255296,-0.000193,2.002041,-0.455357,0.000083,-0.022403,-1.007999,1.000000,0.000600,-0.000725,-0.000251,-0.000179,0.000197,0.000067
4.450000,0.000380,3.004441,0.505712,-0.000190,0.157684,-0.056223,0.000391,-0.763060,0.250693,-0.000194,2.001338,-0.465261,0.000080,-0.118922,-0.971004,1.000000,0.000599,-0.000724,-0.000250,-0.000176,0.000194,0.000065
4.460000,0.000378,3.005980,0.505162,-0.000186,0.150153,-0.053739,0.000389,-0.743054,0.245992,-0.000193,1.999657,-0.474777,0.000046,-0.216706,-0.932817,1.000000,0.000599,-0.000723,-0.000250,-0.000173,0.000190,0.000064
4.470000,0.000376,3.007445,0.504637,-0.000182,0.142823,-0.051303,0.000388,-0.723070,0.241199,-0.000192,1.997006,-0.483919,0.000186,-0.314569,-0.894716,1.000000,0.000598,-0.000722,-0.000250,-0.000169,0.000186,0.000063
4.480000,0.000375,3.008837,0.504136,-0.000178,0.135692,-0.048916,0.000386,-0.703118,0.236315,-0.000192,1.993347,-0.492653,-0.000159,-0.417460,-0.851883,1.000000,0.000597,-0.000721,-0.000249,-0.000166,0.000183,0.000062
4.490000,0.000373,3.010159,0.503659,-0.000174,0.128760,-0.046577,0.000384,-0.683207,0.231347,-0.000193,1.988666,-0.500966,-0.000046,-0.518105,-0.811177,1.000000,0.000596,-0.000720,-0.000249,-0.000163,0.000179,0.000061
4.500000,0.000371,3.011413,0.503205,-0.000171,0.122028,-0.044289,0.000382,-0.663348,0.226297,-0.000193,1.982969,-0.508868,-0.000094,-0.621831,-0.768181,1.000000,0.000595,-0.000719,-0.000249,-0.000160,0.000176,0.000060
4.510000,0.000370,3.012601,0.502773,-0.000167,0.115493,-0.042052,0.000380,-0.643551,0.221171,-0.000194,1.976229,-0.516331,-0.000138,-0.726650,-0.723968,1.000000,0.000594,-0.000719,-0.000249,-0.000157,0.000172,0.000059
4.520000,0.000368,3.013724,0.502363,-0.000163,0.109156,-0.039866,0.000378,-0.623827,0.215972,-0.000196,1.968428,-0.523342,-0.000217,-0.833512,-0.678211,1.000000,0.000594,-0.000718,-0.000248,-0.000154,0.000169,0.000058
4.530000,0.000366,3.014784,0.501975,-0.000159,0.103016,-0.037732,0.000376,-0.604186,0.210706,-0.000198,1.959561,-0.529894,-0.000216,-0.940184,-0.632022,1.000000,0.000593,-0.000717,-0.000248,-0.000151,0.000165,0.000056
4.540000,0.000365,3.015785,0.501608,-0.000156,0.097072,-0.035652,0.000374,-0.584639,0.205376,-0.000201,1.949613,-0.535975,-0.000301,-1.049898,-0.583760,1.000000,0.000592,-0.000716,-0.000248,-0.000148,0.000162,0.000055
4.550000,0.000363,3.016726,0.501262,-0.000152,0.091323,-0.033625,0.000372,-0.565197,0.199988,-0.000204,1.938564,-0.541568,-0.000362,-1.160288,-0.534620,1.000000,0.000591,-0.000715,-0.000247,-0.000145,0.000159,0.000054
4.560000,0.000362,3.017612,0.500936,-0.000148,0.085768,-0.031652,0.000370,-0.545871,0.194546,-0.000208,1.926403,-0.546668,-0.000425,-1.272258,-0.484248,1.000000,0.000591,-0.000714,-0.000247,-0.000142,0.000155,0.000053
4.570000,0.000360,3.018442,0.500629,-0.000144,0.080405,-0.029734,0.000368,-0.526673,0.189056,-0.000213,1.913113,-0.551240,-0.000564,-1.385796,-0.430769,1.000000,0.000590,-0.000714,-0.000247,-0.000138,0.000152,0.000052
4.580000,0.000359,3.019221,0.500341,-0.000141,0.075234,-0.027871,0.000366,-0.507613,0.183523,-0.000219,1.898684,-0.555299,-0.000516,-1.500304,-0.380960,1.000000,0.000589,-0.000713,-0.000247,-0.000135,0.000148,0.000051
4.590000,0.000357,3.019948,0.500071,-0.000137,0.070253,-0.026064,0.000363,-0.488703,0.177952,-0.000224,1.883102,-0.558835,-0.000658,-1.616426,-0.325073,1.000000,0.000589,-0.000712,-0.000246,-0.000132,0.000145,0.000049
4.600000,0.000356,3.020626,0.499819,-0.000133,0.065459,-0.024313,0.000361,-0.469955,0.172348,-0.000231,1.866343,-0.561805,-0.000744,-1.734522,-0.269544,1.000000,0.000588,-0.000712,-0.000246,-0.000129,0.000141,0.000048
4.610000,0.000355,3.021258,0.499585,-0.000130,0.060853,-0.022617,0.000359,-0.451380,0.166718,-0.000239,1.848402,-0.564216,-0.000839,-1.853719,-0.212594,1.000000,0.000587,-0.000711,-0.000246,-0.000126,0.000138,0.000047
4.620000,0.000353,3.021844,0.499367,-0.000126,0.056431,-0.020978,0.000356,-0.432991,0.161066,-0.000248,1.829267,-0.566053,-0.000924,-1.973809,-0.154436,1.000000,0.000587,-0.000710,-0.000246,-0.000123,0.000134,0.000046
4.630000,0.000352,3.022387,0.499165,-0.000123,0.052192,-0.019396,0.000354,-0.414799,0.155399,-0.000258,1.808914,-0.567299,-0.001065,-2.096970,-0.094577,1.000000,0.000586,-0.000709,-0.000245,-0.000120,0.000131,0.000045
4.640000,0.000351,3.022888,0.498979,-0.000119,0.048135,-0.017870,0.000351,-0.396817,0.149722,-0.000269,1.787327,-0.567941,-0.001166,-2.220442,-0.033704,1.000000,0.000586,-0.000709,-0.000245,-0.000118,0.000128,0.000044
4.650000,0.000350,3.023350,0.498807,-0.000116,0.044255,-0.016401,0.000348,-0.379056,0.144042,-0.000282,1.764510,-0.567968,-0.001291,-2.344829,0.028674,1.000000,0.000585,-0.000708,-0.000245,-0.000115,0.000124,0.000043
4.660000,0.000349,3.023774,0.498651,-0.000112,0.040553,-0.014989,0.000346,-0.361531,0.138365,-0.000295,1.740433,-0.567362,-0.001418,-2.471189,0.092455,1.000000,0.000584,-0.000708,-0.000245,-0.000112,0.000121,0.000041
4.670000,0.000348,3.024162,0.498508,-0.000109,0.037024,-0.013634,0.000342,-0.344252,0.132697,-0.000310,1.715079,-0.566117,-0.001659,-2.599510,0.157083,1.000000,0.000584,-0.000707,-0.000245,-0.000109,0.000117,0.000040
4.680000,0.000346,3.024515,0.498378,-0.000105,0.033667,-0.012335,0.000339,-0.327233,0.127045,-0.000327,1.688443,-0.564210,-0.001621,-2.727904,0.224600,1.000000,0.000583,-0.000706,-0.000244,-0.000106,0.000114,0.000039
4.690000,0.000345,3.024836,0.498261,-0.000102,0.030478,-0.011093,0.000336,-0.310487,0.121415,-0.000344,1.660510,-0.561626,-0.001871,-2.859228,0.292111,1.000000,0.000583,-0.000706,-0.000244,-0.000103,0.000110,0.000038
4.700000,0.000344,3.025125,0.498156,-0.000099,0.027456,-0.009907,0.000332,-0.294027,0.115814,-0.000364,1.631260,-0.558360,-0.002037,-2.991200,0.361526,1.000000,0.000582,-0.000705,-0.000244,-0.000100,0.000107,0.000037
4.710000,0.000343,3.025385,0.498062,-0.000095,0.024597,-0.008777,0.000329,-0.277867,0.110250,-0.000384,1.600672,-0.554387,-0.002202,-3.125008,0.432454,1.000000,0.000582,-0.000705,-0.000244,-0.000096,0.000103,0.000036
4.720000,0.000343,3.025618,0.497980,-0.000092,0.021898,-0.007702,0.000325,-0.262018,0.104729,-0.000409,1.568770,-0.549714,-0.002647,-3.257203,0.503235,1.000000,0.000581,-0.000704,-0.000244,-0.000093,0.000100,0.000035
4.730000,0.000342,3.025824,0.497908,-0.000089,0.019355,-0.006682,0.000320,-0.246496,0.099258,-0.000434,1.535489,-0.544301,-0.002381,-3.399204,0.579779,1.000000,0.000581,-0.000704,-0.000243,-0.000090,0.000097,0.000034
4.740000,0.000341,3.026005,0.497846,-0.000086,0.016967,-0.005717,0.000316,-0.231313,0.093845,-0.000460,1.500813,-0.538131,-0.002826,-3.534764,0.653635,1.000000,0.000580,-0.000703,-0.000243,-0.000087,0.000093,0.000032
4.750000,0.000340,3.026164,0.497794,-0.000083,0.014728,-0.004805,0.000311,-0.216484,0.088498,-0.000490,1.464780,-0.531216,-0.003051,-3.674083,0.730347,1.000000,0.000580,-0.000703,-0.000243,-0.000084,0.000090,0.000031
4.760000,0.000339,3.026300,0.497750,-0.000079,0.012636,-0.003946,0.000306,-0.202022,0.083224,-0.000523,1.427332,-0.523523,-0.003323,-3.815038,0.808491,1.000000,0.000580,-0.000702,-0.000243,-0.000081,0.000087,0.000030
4.770000,0.000338,3.026417,0.497714,-0.000076,0.010686,-0.003140,0.000301,-0.187942,0.078030,-0.000555,1.388483,-0.515042,-0.003281,-3.955844,0.887907,1.000000,0.000579,-0.000702,-0.000243,-0.000078,0.000083,0.000029
4.780000,0.000338,3.026515,0.497687,-0.000073,0.008876,-0.002385,0.000295,-0.174258,0.072926,-0.000592,1.348193,-0.505757,-0.004161,-4.102332,0.969340,1.000000,0.000579,-0.000702,-0.000243,-0.000075,0.000080,0.000028
4.790000,0.000337,3.026595,0.497667,-0.000071,0.007200,-0.001681,0.000289,-0.160983,0.067918,-0.000634,1.306448,-0.495653,-0.004193,-4.246208,1.051754,1.000000,0.000578,-0.000701,-0.000243,-0.000072,0.000076,0.000027
4.800000,0.000336,3.026659,0.497653,-0.000068,0.005655,-0.001027,0.000282,-0.148133,0.063015,-0.000677,1.263257,-0.484716,-0.004542,-4.393078,1.135855,1.000000,0.000578,-0.000701,-0.000242,-0.000069,0.000073,0.000025
4.810000,0.000335,3.026708,0.497646,-0.000065,0.004236,-0.000421,0.000275,-0.135723,0.058226,-0.000722,1.218601,-0.472944,-0.004847,-4.540309,1.221086,1.000000,0.000578,-0.000700,-0.000242,-0.000066,0.000069,0.000024
4.820000,0.000335,3.026744,0.497645,-0.000062,0.002939,0.000138,0.000268,-0.123766,0.053559,-0.000779,1.172446,-0.460273,-0.006064,-4.690407,1.311492,1.000000,0.000577,-0.000700,-0.000242,-0.000063,0.000066,0.000023
4.830000,0.000334,3.026767,0.497648,-0.000060,0.001759,0.000651,0.000260,-0.112279,0.049024,-0.000833,1.124799,-0.446748,-0.004896,-4.839216,1.393696,1.000000,0.000577,-0.000700,-0.000242,-0.000060,0.000063,0.000022
4.840000,0.000334,3.026780,0.497657,-0.000057,0.000691,0.001119,0.000251,-0.101275,0.044627,-0.000886,1.075647,-0.432356,-0.006072,-4.991946,1.486782,1.000000,0.000577,-0.000700,-0.000242,-0.000056,0.000059,0.000021
4.850000,0.000333,3.026782,0.497671,-0.000055,-0.000268,0.001544,0.000242,-0.090771,0.040380,-0.000951,1.024961,-0.417024,-0.006491,-5.145018,1.578199,1.000000,0.000577,-0.000699,-0.000242,-0.000053,0.000056,0.000020
4.860000,0.000333,3.026775,0.497688,-0.000052,-0.001126,0.001927,0.000232,-0.080781,0.036290,-0.001018,0.972740,-0.400777,-0.006975,-5.299511,1.671321,1.000000,0.000576,-0.000699,-0.000242,-0.000050,0.000052,0.000019
4.870000,0.000332,3.026759,0.497709,-0.000050,-0.001886,0.002270,0.000222,-0.071321,0.032367,-0.001091,0.918967,-0.383592,-0.007497,-5.455328,1.766026,1.000000,0.000576,-0.000699,-0.000242,-0.000047,0.000049,0.000018
4.880000,0.000332,3.026737,0.497733,-0.000048,-0.002554,0.002575,0.000210,-0.062407,0.028621,-0.001168,0.863629,-0.365451,-0.008060,-5.612503,1.862333,1.000000,0.000576,-0.000698,-0.000242,-0.000044,0.000046,0.000016
4.890000,0.000331,3.026709,0.497761,-0.000046,-0.003136,0.002843,0.000198,-0.054054,0.025061,-0.001252,0.806712,-0.346340,-0.008668,-5.771087,1.960256,1.000000,0.000576,-0.000698,-0.000242,-0.000041,0.000042,0.000015
4.900000,0.000331,3.026675,0.497790,-0.000044,-0.003637,0.003077,0.000185,-0.046278,0.021698,-0.001342,0.748208,-0.326241,-0.009322,-5.930515,2.059767,1.000000,0.000575,-0.000698,-0.000241,-0.000038,0.000039,0.000014
4.910000,0.000330,3.026636,0.497822,-0.000042,-0.004063,0.003278,0.000171,-0.039095,0.018540,-0.001439,0.688099,-0.305139,-0.010027,-6.091483,2.160945,1.000000,0.000575,-0.000698,-0.000241,-0.000034,0.000036,0.000013
4.920000,0.000330,3.026594,0.497856,-0.000040,-0.004421,0.003449,0.000157,-0.032522,0.015598,-0.001543,0.626374,-0.283017,-0.010784,-6.253724,2.263780,1.000000,0.000575,-0.000698,-0.000241,-0.000031,0.000032,0.000012
4.930000,0.000329,3.026548,0.497891,-0.000039,-0.004716,0.003591,0.000141,-0.026573,0.012883,-0.001655,0.563021,-0.259858,-0.011598,-6.417261,2.368293,1.000000,0.000575,-0.000698,-0.000241,-0.000028,0.000029,0.000011
4.940000,0.000329,3.026500,0.497927,-0.000038,-0.004955,0.003707,0.000123,-0.021267,0.010405,-0.001775,0.498025,-0.235645,-0.012470,-6.582162,2.474506,1.000000,0.000575,-0.000697,-0.000241,-0.000025,0.000025,0.000010
4.950000,0.000329,3.026449,0.497965,-0.000036,-0.005143,0.003800,0.000105,-0.016618,0.008174,-0.001904,0.431377,-0.210363,-0.013404,-6.747973,2.582379,1.000000,0.000575,-0.000697,-0.000241,-0.000022,0.000022,0.000009
4.960000,0.000328,3.026397,0.498003,-0.000035,-0.005289,0.003871,0.000085,-0.012645,0.006201,-0.002043,0.363062,-0.183992,-0.014403,-6.915206,2.691995,1.000000,0.000575,-0.000697,-0.000241,-0.000019,0.000019,0.000008
4.970000,0.000328,3.026343,0.498042,-0.000035,-0.005399,0.003925,0.000064,-0.009363,0.004498,-0.002192,0.293069,-0.156517,-0.015470,-7.083664,2.803346,1.000000,0.000575,-0.000697,-0.000241,-0.000016,0.000016,0.000006
4.980000,0.000328,3.026289,0.498082,-0.000034,-0.005479,0.003962,0.000041,-0.006789,0.003074,-0.002353,0.221385,-0.127920,-0.016608,-7.253318,2.916457,1.000000,0.000574,-0.000697,-0.000241,-0.000013,0.000014,0.000005
4.990000,0.000327,3.026234,0.498121,-0.000034,-0.005537,0.003987,0.000017,-0.004941,0.001943,-0.002525,0.147999,-0.098182,-0.017819,-7.424095,3.031363,1.000000,0.000574,-0.000697,-0.000241,-0.000010,0.000012,0.000004
5.000000,0.000327,3.026178,0.498161,-0.000034,-0.005580,0.004002,-0.000009,-0.003835,0.001115,-0.002709,0.072900,-0.067286,-0.019107,-7.595849,3.148104,1.000000,0.000574,-0.000697,-0.000241,-0.000007,0.000011,0.000004
