time,x,y,z,vx,vy,vz,ax,ay,az,jx,jy,jz,sx,sy,sz,roll,pitch,yaw,p,q,r
0.000000,-2.722867,0.292597,-1.478335,-0.003403,0.001864,-0.000515,0.136392,-0.004474,0.055781,6.598648,-0.488884,1.841055,-18.549626,-26.974620,-84.266235,-0.000459,-0.013982,0.000000,-0.050198,-0.678998,0.000000
0.010000,-2.722902,0.292615,-1.478340,-0.002039,0.001819,0.000043,0.202378,-0.009363,0.074191,6.413152,-0.758630,0.998392,-189.343673,-28.662386,-162.841093,-0.000961,-0.020784,0.000000,-0.077990,-0.660564,0.000000
0.020000,-2.722908,0.292633,-1.478334,0.000645,0.001677,0.000969,0.264655,-0.019646,0.075749,2.811775,-1.062132,-1.415767,-344.163124,-17.636562,-181.895340,-0.002018,-0.027181,0.000000,-0.108763,-0.284688,-0.000000
0.030000,-2.722889,0.292649,-1.478321,0.003254,0.001426,0.001558,0.258614,-0.030605,0.045876,-0.470111,-1.111361,-2.639515,-151.083554,-3.852670,-29.756610,-0.003133,-0.026480,0.000000,-0.112937,0.055268,-0.000000
0.040000,-2.722843,0.292662,-1.478303,0.005817,0.001065,0.001887,0.255252,-0.041874,0.022958,-0.209896,-1.139185,-2.010900,25.243309,-2.444483,56.598197,-0.004277,-0.026075,0.000000,-0.115480,0.026787,-0.000000
0.050000,-2.722772,0.292670,-1.478283,0.008359,0.000589,0.002017,0.254416,-0.053389,0.005658,0.034756,-1.160251,-1.507551,23.687718,-1.721128,44.895152,-0.005444,-0.025943,0.000000,-0.117460,0.000445,0.000000
0.060000,-2.722676,0.292673,-1.478263,0.010905,-0.000003,0.002000,0.255948,-0.065079,-0.007193,0.263858,-1.173608,-1.112996,22.136228,-0.908938,34.785773,-0.006627,-0.026065,0.000000,-0.118745,-0.023905,0.000000
0.070000,-2.722554,0.292670,-1.478243,0.013478,-0.000713,0.001873,0.259693,-0.076861,-0.016602,0.477480,-1.178430,-0.811835,20.594603,-0.020588,26.163053,-0.007819,-0.026421,0.000000,-0.119218,-0.046373,-0.000000
0.080000,-2.722406,0.292659,-1.478225,0.016099,-0.001540,0.001668,0.265497,-0.088647,-0.023429,0.675750,-1.174019,-0.589735,19.068667,0.931242,18.919960,-0.009011,-0.026993,0.000000,-0.118781,-0.067049,-0.000000
0.090000,-2.722232,0.292639,-1.478210,0.018788,-0.002486,0.001405,0.273208,-0.100341,-0.028397,0.858854,-1.159805,-0.433436,17.564177,1.933881,12.949487,-0.010195,-0.027762,0.000000,-0.117354,-0.086002,0.000000
0.100000,-2.722031,0.292610,-1.478197,0.021563,-0.003547,0.001100,0.282674,-0.111843,-0.032098,1.027034,-1.135342,-0.330746,16.086871,2.974656,8.144632,-0.011359,-0.028713,0.000000,-0.114878,-0.103294,-0.000000
0.110000,-2.721801,0.292568,-1.478188,0.024441,-0.004722,0.000763,0.293749,-0.123048,-0.035012,1.180591,-1.100312,-0.270543,14.642551,4.040889,4.398369,-0.012492,-0.029828,0.000000,-0.111309,-0.118983,-0.000000
0.120000,-2.721542,0.292515,-1.478182,0.027438,-0.006008,0.000399,0.306286,-0.133849,-0.037509,1.319885,-1.054524,-0.242778,13.237042,5.119901,1.603692,-0.013585,-0.031093,0.000000,-0.106623,-0.133124,0.000000
0.130000,-2.721252,0.292448,-1.478180,0.030567,-0.007399,0.000013,0.320146,-0.144139,-0.039867,1.445332,-0.997914,-0.238470,11.876082,6.199021,-0.346407,-0.014625,-0.032491,0.000000,-0.100814,-0.145780,-0.000000
0.140000,-2.720931,0.292367,-1.478182,0.033841,-0.008891,-0.000398,0.335193,-0.153808,-0.042278,1.557406,-0.930543,-0.249706,10.565328,7.265580,-1.558967,-0.015601,-0.034009,0.000000,-0.093893,-0.157013,-0.000000
0.150000,-2.720575,0.292270,-1.478188,0.037271,-0.010476,-0.000833,0.351294,-0.162750,-0.044861,1.656638,-0.852602,-0.269649,9.310663,8.306897,-2.140985,-0.016503,-0.035632,0.000000,-0.085888,-0.166893,-0.000000
0.160000,-2.720185,0.292158,-1.478198,0.040867,-0.012146,-0.001295,0.368325,-0.170860,-0.047671,1.743620,-0.764406,-0.292526,8.118012,9.310287,-2.199442,-0.017319,-0.037347,0.000000,-0.076840,-0.175499,0.000000
0.170000,-2.719758,0.292028,-1.478214,0.044637,-0.013893,-0.001786,0.386167,-0.178038,-0.050712,1.818999,-0.666396,-0.313638,6.994947,10.259958,-1.857928,-0.018039,-0.039142,0.000000,-0.066804,-0.182913,0.000000
0.180000,-2.719292,0.291880,-1.478234,0.048590,-0.015707,-0.002309,0.404705,-0.184188,-0.053944,1.883518,-0.559206,-0.329685,5.981878,11.088570,-1.512572,-0.018655,-0.041006,0.000000,-0.055856,-0.189227,-0.000000
0.190000,-2.718786,0.291713,-1.478260,0.052732,-0.017577,-0.002865,0.423837,-0.189222,-0.057306,1.938636,-0.444625,-0.343889,5.072733,11.802342,-1.170384,-0.019157,-0.042927,0.000000,-0.044175,-0.194579,0.000000
0.200000,-2.718238,0.291528,-1.478291,0.057067,-0.019491,-0.003455,0.443478,-0.193080,-0.060822,1.984973,-0.323160,-0.353092,4.017154,12.792007,1.194828,-0.019539,-0.044898,0.000000,-0.031820,-0.199048,-0.000000
0.210000,-2.717645,0.291324,-1.478329,0.061601,-0.021438,-0.004082,0.463537,-0.195685,-0.064367,2.018979,-0.188785,-0.319993,2.848283,14.001672,5.247472,-0.019793,-0.046909,0.000000,-0.018261,-0.202460,-0.000000
0.220000,-2.717006,0.291099,-1.478373,0.066338,-0.023405,-0.004743,0.483858,-0.196856,-0.067222,2.041939,-0.043126,-0.248143,2.305989,14.262423,4.763929,-0.019904,-0.048948,0.000000,-0.003660,-0.204969,-0.000000
0.230000,-2.716318,0.290856,-1.478424,0.071278,-0.025375,-0.005426,0.504375,-0.196548,-0.069330,2.065099,0.096464,-0.224714,2.403065,13.548886,-0.473331,-0.019866,-0.051009,0.000000,0.010410,-0.207290,-0.000000
0.240000,-2.715580,0.290592,-1.478481,0.076425,-0.027336,-0.006129,0.525160,-0.194927,-0.071716,2.090000,0.227852,-0.257610,2.127805,13.451405,-2.079648,-0.019696,-0.053095,0.000000,0.023749,-0.209484,0.000000
0.250000,-2.714790,0.290309,-1.478546,0.081782,-0.029274,-0.006861,0.546175,-0.191990,-0.074482,2.107655,0.365492,-0.266307,1.425568,14.065077,0.727985,-0.019391,-0.055200,0.000000,0.037655,-0.211056,-0.000000
0.260000,-2.713945,0.290006,-1.478619,0.087349,-0.031176,-0.007619,0.567313,-0.187617,-0.077042,2.118511,0.509153,-0.243050,0.974125,14.317584,2.204912,-0.018943,-0.057317,0.000000,0.052090,-0.212124,0.000000
0.270000,-2.713043,0.289685,-1.478699,0.093128,-0.033026,-0.008401,0.588546,-0.181807,-0.079343,2.127138,0.651843,-0.222209,0.697352,14.288789,1.813944,-0.018350,-0.059443,0.000000,0.066420,-0.212966,0.000000
0.280000,-2.712082,0.289346,-1.478787,0.099120,-0.034812,-0.009206,0.609856,-0.174580,-0.081486,2.132458,0.794929,-0.206771,0.343492,14.369180,1.534782,-0.017614,-0.061577,0.000000,0.080788,-0.213452,0.000000
0.290000,-2.711060,0.288989,-1.478883,0.105325,-0.036518,-0.010031,0.631195,-0.165909,-0.083479,2.134007,0.939227,-0.191513,0.069210,14.359595,1.558412,-0.016734,-0.063713,0.000000,0.095267,-0.213564,-0.000000
0.300000,-2.709975,0.288616,-1.478987,0.111744,-0.038130,-0.010875,0.652536,-0.155795,-0.085317,2.133843,1.082121,-0.175603,-0.048773,14.153692,1.627022,-0.015709,-0.065849,0.000000,0.109593,-0.213516,0.000000
0.310000,-2.708825,0.288226,-1.479100,0.118376,-0.039634,-0.011737,0.673872,-0.144266,-0.086991,2.133032,1.222301,-0.158973,-0.136936,13.912073,1.681404,-0.014542,-0.067984,0.000000,0.123636,-0.213418,0.000000
0.320000,-2.707608,0.287823,-1.479222,0.125221,-0.041015,-0.012615,0.695196,-0.131349,-0.088496,2.131104,1.360362,-0.141975,-0.305410,13.765280,1.701607,-0.013236,-0.070117,0.000000,0.137458,-0.213218,-0.000000
0.330000,-2.706321,0.287406,-1.479353,0.132280,-0.042261,-0.013507,0.716494,-0.117059,-0.089830,2.126924,1.497606,-0.124941,-0.522215,13.669682,1.702612,-0.011793,-0.072248,0.000000,0.151191,-0.212802,-0.000000
0.340000,-2.704962,0.286978,-1.479492,0.139551,-0.043356,-0.014412,0.737735,-0.101397,-0.090995,2.120660,1.633756,-0.107922,-0.656735,13.469314,1.709577,-0.010212,-0.074374,0.000000,0.164809,-0.212185,0.000000
0.350000,-2.703530,0.286539,-1.479641,0.147034,-0.044289,-0.015327,0.758907,-0.084384,-0.091989,2.113789,1.766993,-0.090749,-0.684329,13.137080,1.726169,-0.008497,-0.076492,0.000000,0.178129,-0.211519,-0.000000
0.360000,-2.702022,0.286092,-1.479799,0.154729,-0.045044,-0.016252,0.780011,-0.066057,-0.092810,2.106973,1.896498,-0.073399,-0.699956,12.784153,1.737129,-0.006650,-0.078604,0.000000,0.191071,-0.210868,0.000000
0.370000,-2.700435,0.285638,-1.479966,0.162634,-0.045610,-0.017183,0.801046,-0.046454,-0.093457,2.099790,2.022676,-0.056006,-0.776263,12.488196,1.734540,-0.004675,-0.080710,0.000000,0.203676,-0.210191,-0.000000
0.380000,-2.698769,0.285180,-1.480142,0.170750,-0.045973,-0.018121,0.822006,-0.025604,-0.093930,2.091448,2.146261,-0.038708,-0.888751,12.218419,1.724942,-0.002576,-0.082808,0.000000,0.216019,-0.209406,-0.000000
0.390000,-2.697020,0.284719,-1.480328,0.179075,-0.046122,-0.019062,0.842875,-0.003529,-0.094231,2.082015,2.267044,-0.021508,-0.952204,11.883152,1.720029,-0.000355,-0.084898,0.000000,0.228079,-0.208520,0.000000
0.400000,-2.695187,0.284257,-1.480524,0.187607,-0.046044,-0.020005,0.863647,0.019737,-0.094360,2.072404,2.383925,-0.004308,-0.950538,11.467488,1.719306,0.001985,-0.086979,0.000000,0.239747,-0.207625,-0.000000
0.410000,-2.693268,0.283798,-1.480728,0.196348,-0.045727,-0.020949,0.884323,0.044150,-0.094317,2.063004,2.496394,0.012879,-0.945669,11.036497,1.716939,0.004440,-0.089051,0.000000,0.250971,-0.206759,-0.000000
0.420000,-2.691261,0.283343,-1.480943,0.205294,-0.045161,-0.021892,0.904907,0.069665,-0.094103,2.053490,2.604654,0.030031,-0.986545,10.634780,1.718589,0.007005,-0.091114,0.000000,0.261773,-0.205891,-0.000000
0.430000,-2.689162,0.282895,-1.481166,0.214446,-0.044334,-0.022831,0.925393,0.096243,-0.093717,2.043273,2.709089,0.047250,-1.057374,10.244141,1.728694,0.009675,-0.093168,0.000000,0.272192,-0.204960,-0.000000
0.440000,-2.686972,0.282456,-1.481399,0.223802,-0.043236,-0.023766,0.945772,0.123847,-0.093158,2.032343,2.809537,0.064605,-1.100444,9.812069,1.741113,0.012448,-0.095213,0.000000,0.282211,-0.203968,0.000000
0.450000,-2.684686,0.282030,-1.481642,0.233361,-0.041857,-0.024694,0.966040,0.152433,-0.092424,2.021264,2.905331,0.082073,-1.104123,9.330747,1.749916,0.015320,-0.097248,0.000000,0.291765,-0.202971,0.000000
0.460000,-2.682304,0.281619,-1.481893,0.243123,-0.040187,-0.025615,0.986198,0.181953,-0.091516,2.010260,2.996152,0.099603,-1.110286,8.837381,1.761544,0.018284,-0.099273,0.000000,0.300821,-0.201990,-0.000000
0.470000,-2.679824,0.281226,-1.482154,0.253085,-0.038218,-0.026525,1.006245,0.212356,-0.090432,1.999059,3.082078,0.117303,-1.153788,8.355616,1.794571,0.021336,-0.101289,0.000000,0.309388,-0.200998,0.000000
0.480000,-2.677243,0.280855,-1.482424,0.263247,-0.035940,-0.027423,1.026179,0.243595,-0.089170,1.987185,3.163265,0.135495,-1.224098,7.874828,1.849931,0.024472,-0.103294,0.000000,0.317483,-0.199952,-0.000000
0.490000,-2.674559,0.280507,-1.482702,0.273609,-0.033346,-0.028308,1.045989,0.275622,-0.087722,1.974577,3.239575,0.154302,-1.279550,7.367616,1.904372,0.027686,-0.105289,0.000000,0.325093,-0.198848,-0.000000
0.500000,-2.671771,0.280188,-1.482990,0.284167,-0.030428,-0.029178,1.065670,0.308386,-0.086084,1.961594,3.310617,0.173582,-1.310997,6.831027,1.947129,0.030973,-0.107273,0.000000,0.332180,-0.197719,0.000000
0.510000,-2.668876,0.279899,-1.483286,0.294922,-0.027178,-0.030030,1.085221,0.341834,-0.084251,1.948357,3.376196,0.193245,-1.348519,6.284495,1.995976,0.034329,-0.109245,0.000000,0.338724,-0.196578,-0.000000
0.520000,-2.665872,0.279644,-1.483590,0.305872,-0.023591,-0.030863,1.104637,0.375910,-0.082219,1.934623,3.436307,0.213502,-1.418412,5.737840,2.080505,0.037748,-0.111207,0.000000,0.344728,-0.195403,-0.000000
0.530000,-2.662758,0.279427,-1.483903,0.317015,-0.019660,-0.031674,1.123913,0.410560,-0.079981,1.919989,3.490952,0.234855,-1.513116,5.185462,2.198005,0.041224,-0.113156,0.000000,0.350194,-0.194159,0.000000
0.540000,-2.659532,0.279251,-1.484224,0.328350,-0.015380,-0.032462,1.143037,0.445729,-0.077522,1.904361,3.540016,0.257462,-1.600590,4.616765,2.310200,0.044752,-0.115093,0.000000,0.355115,-0.192840,0.000000
0.550000,-2.656191,0.279119,-1.484552,0.339876,-0.010745,-0.033225,1.162000,0.481361,-0.074832,1.887977,3.583288,0.281059,-1.672676,4.031233,2.402654,0.048326,-0.117017,0.000000,0.359469,-0.191467,-0.000000
0.560000,-2.652734,0.279036,-1.484888,0.351590,-0.005753,-0.033959,1.180797,0.517395,-0.071901,1.870907,3.620641,0.305515,-1.752242,3.436636,2.502673,0.051941,-0.118927,0.000000,0.363246,-0.190047,0.000000
0.570000,-2.649159,0.279004,-1.485232,0.363491,-0.000397,-0.034663,1.199419,0.553773,-0.068721,1.852932,3.652020,0.331112,-1.861757,2.836337,2.647119,0.055591,-0.120823,0.000000,0.366445,-0.188562,0.000000
0.580000,-2.645464,0.279028,-1.485582,0.375578,0.005323,-0.035333,1.217855,0.590435,-0.065279,1.833672,3.677367,0.358457,-1.995385,2.228142,2.829712,0.059270,-0.122704,0.000000,0.369065,-0.186982,-0.000000
0.590000,-2.641648,0.279111,-1.485938,0.387849,0.011411,-0.035968,1.236092,0.627321,-0.061552,1.813024,3.696583,0.387706,-2.124790,1.609089,3.001884,0.062973,-0.124569,0.000000,0.371102,-0.185300,0.000000
0.600000,-2.637707,0.279256,-1.486301,0.400300,0.017869,-0.036564,1.254116,0.664367,-0.057524,1.791176,3.709549,0.418495,-2.242266,0.980621,3.147111,0.066692,-0.126418,0.000000,0.372544,-0.183532,0.000000
0.610000,-2.633642,0.279468,-1.486669,0.412931,0.024699,-0.037119,1.271916,0.701512,-0.053182,1.768179,3.716196,0.450649,-2.367610,0.345201,3.298660,0.070424,-0.128248,0.000000,0.373388,-0.181682,-0.000000
0.620000,-2.629449,0.279750,-1.487043,0.425738,0.031900,-0.037628,1.289479,0.738691,-0.048511,1.743824,3.716453,0.484468,-2.520674,-0.299630,3.496376,0.074160,-0.130060,0.000000,0.373632,-0.179734,-0.000000
0.630000,-2.625127,0.280106,-1.487422,0.438720,0.039472,-0.038089,1.306792,0.775841,-0.043493,1.717765,3.710203,0.520576,-2.696086,-0.954756,3.730963,0.077896,-0.131853,0.000000,0.373273,-0.177663,0.000000
0.640000,-2.620674,0.280540,-1.487805,0.451874,0.047416,-0.038498,1.323835,0.812895,-0.038100,1.689903,3.697358,0.559087,-2.868005,-1.615561,3.948999,0.081626,-0.133624,0.000000,0.372309,-0.175461,-0.000000
0.650000,-2.616090,0.281054,-1.488192,0.465197,0.055730,-0.038851,1.340590,0.849788,-0.032311,1.660405,3.677892,0.599556,-3.029009,-2.277936,4.135116,0.085343,-0.135374,0.000000,0.370736,-0.173142,-0.000000
0.660000,-2.611371,0.281654,-1.488582,0.478686,0.064412,-0.039144,1.357043,0.886453,-0.026109,1.629322,3.651799,0.641790,-3.196635,-2.944619,4.324588,0.089041,-0.137100,0.000000,0.368558,-0.170708,0.000000
0.670000,-2.606516,0.282343,-1.488975,0.492338,0.073459,-0.039373,1.373177,0.922824,-0.019475,1.596473,3.618999,0.686048,-3.388717,-3.624699,4.551590,0.092714,-0.138802,0.000000,0.365771,-0.168146,-0.000000
0.680000,-2.601524,0.283123,-1.489370,0.506150,0.082869,-0.039534,1.388972,0.958833,-0.012388,1.561548,3.579305,0.732821,-3.600136,-4.317653,4.804970,0.096356,-0.140477,0.000000,0.362367,-0.165434,0.000000
0.690000,-2.596393,0.284000,-1.489766,0.520117,0.092636,-0.039621,1.404408,0.994410,-0.004819,1.524470,3.532646,0.782147,-3.807039,-5.009963,5.037847,0.099961,-0.142126,0.000000,0.358344,-0.162565,0.000000
0.700000,-2.591121,0.284976,-1.490162,0.534238,0.102757,-0.039630,1.419462,1.029486,0.003255,1.485407,3.479106,0.833578,-4.002080,-5.694880,5.236095,0.103523,-0.143745,0.000000,0.353709,-0.159552,0.000000
0.710000,-2.585708,0.286055,-1.490558,0.548507,0.113226,-0.039556,1.434116,1.063992,0.011853,1.444428,3.418749,0.886869,-4.200892,-6.381043,5.429479,0.107036,-0.145334,0.000000,0.348468,-0.156397,-0.000000
0.720000,-2.580151,0.287241,-1.490953,0.562920,0.124037,-0.039393,1.448350,1.097861,0.020992,1.401389,3.351485,0.942168,-4.420275,-7.083456,5.648158,0.110493,-0.146891,0.000000,0.342618,-0.153089,0.000000
0.730000,-2.574450,0.288536,-1.491346,0.577474,0.135183,-0.039136,1.462143,1.131022,0.030696,1.356023,3.277080,0.999832,-4.655268,-7.799829,5.881008,0.113888,-0.148415,0.000000,0.336141,-0.149607,0.000000
0.740000,-2.568602,0.289944,-1.491736,0.592163,0.146657,-0.038779,1.475471,1.163402,0.040989,1.308284,3.195489,1.059788,-4.882604,-8.508532,6.085193,0.117216,-0.149903,0.000000,0.329035,-0.145946,0.000000
0.750000,-2.562606,0.291469,-1.492122,0.606983,0.158451,-0.038316,1.488309,1.194932,0.051892,1.258371,3.106909,1.121536,-5.095558,-9.199831,6.253829,0.120469,-0.151354,0.000000,0.321314,-0.142118,0.000000
0.760000,-2.556462,0.293113,-1.492502,0.621929,0.170556,-0.037741,1.500638,1.225541,0.063420,1.206373,3.011492,1.184865,-5.308868,-9.887591,6.412542,0.123642,-0.152766,0.000000,0.312992,-0.138129,0.000000
0.770000,-2.550168,0.294880,-1.492876,0.636996,0.182962,-0.037048,1.512437,1.255161,0.075589,1.152193,2.909157,1.249787,-5.536323,-10.593627,6.568860,0.126729,-0.154138,0.000000,0.304059,-0.133968,0.000000
0.780000,-2.543722,0.296773,-1.493243,0.652178,0.195659,-0.036229,1.523682,1.283724,0.088416,1.095646,2.799620,1.316242,-5.772496,-11.314170,6.710610,0.129724,-0.155467,0.000000,0.294485,-0.129614,-0.000000
0.790000,-2.537124,0.298793,-1.493601,0.667470,0.208636,-0.035279,1.534350,1.311154,0.101914,1.036743,2.682874,1.383999,-5.997684,-12.017897,6.825185,0.132619,-0.156752,0.000000,0.284265,-0.125064,0.000000
0.800000,-2.530373,0.300945,-1.493949,0.682865,0.221882,-0.034191,1.544417,1.337381,0.116096,0.975693,2.559262,1.452746,-6.207400,-12.690705,6.916460,0.135409,-0.157991,0.000000,0.273425,-0.120332,-0.000000
0.810000,-2.523467,0.303231,-1.494285,0.698358,0.235384,-0.032958,1.553863,1.362339,0.130969,0.912595,2.429060,1.522329,-6.413376,-13.352660,6.988568,0.138088,-0.159181,0.000000,0.261986,-0.115423,0.000000
0.820000,-2.516406,0.305653,-1.494608,0.713942,0.249129,-0.031572,1.562669,1.385962,0.146542,0.847425,2.292208,1.592517,-6.622810,-14.035515,7.023305,0.140649,-0.160321,0.000000,0.249933,-0.110329,-0.000000
0.830000,-2.509188,0.308214,-1.494916,0.729611,0.263103,-0.030027,1.570812,1.408183,0.162819,0.780139,2.148349,1.662795,-6.830684,-14.732968,7.013964,0.143086,-0.161410,0.000000,0.237216,-0.105034,0.000000
0.840000,-2.501813,0.310915,-1.495208,0.745358,0.277292,-0.028315,1.578272,1.428929,0.179798,0.710812,1.997549,1.732796,-7.025718,-15.399643,6.981687,0.145393,-0.162444,0.000000,0.223829,-0.099536,0.000000
0.850000,-2.494281,0.313759,-1.495483,0.761177,0.291682,-0.026431,1.585028,1.448134,0.197475,0.639625,1.840357,1.802428,-7.205031,-16.021418,6.940282,0.147563,-0.163421,0.000000,0.209814,-0.093849,0.000000
0.860000,-2.486590,0.316749,-1.495737,0.777059,0.306255,-0.024366,1.591064,1.465737,0.215847,0.566711,1.677121,1.871602,-7.374285,-16.626894,6.870903,0.149590,-0.164341,0.000000,0.195195,-0.087979,-0.000000
0.870000,-2.478740,0.319885,-1.495970,0.792998,0.320996,-0.022114,1.596362,1.481677,0.234907,0.492139,1.507819,1.939846,-7.536795,-17.243872,6.731781,0.151467,-0.165201,0.000000,0.179951,-0.081922,0.000000
0.880000,-2.470730,0.323169,-1.496179,0.808986,0.335889,-0.019668,1.600907,1.495893,0.254644,0.415975,1.332243,2.006238,-7.688725,-17.862013,6.522305,0.153189,-0.165999,0.000000,0.164034,-0.075664,-0.000000
0.890000,-2.462560,0.326602,-1.496363,0.825016,0.350914,-0.017021,1.604682,1.508322,0.275032,0.338365,1.150578,2.070293,-7.823571,-18.441074,6.295273,0.154748,-0.166732,0.000000,0.147440,-0.069207,-0.000000
0.900000,-2.454230,0.330187,-1.496520,0.841080,0.366055,-0.014167,1.607674,1.518905,0.296049,0.259504,0.963422,2.132143,-7.943032,-18.969130,6.078207,0.156137,-0.167399,0.000000,0.130216,-0.062567,-0.000000
0.910000,-2.445738,0.333923,-1.496647,0.857170,0.381292,-0.011100,1.609872,1.527590,0.317675,0.179504,0.771196,2.191857,-8.049090,-19.470222,5.831142,0.157352,-0.167999,0.000000,0.112389,-0.055751,0.000000
0.920000,-2.437086,0.337813,-1.496742,0.873277,0.396607,-0.007814,1.611264,1.534328,0.339886,0.098522,0.574017,2.248766,-8.132031,-19.966355,5.478694,0.158385,-0.168528,0.000000,0.093944,-0.048758,0.000000
0.930000,-2.428273,0.341856,-1.496803,0.889395,0.411979,-0.004302,1.611842,1.539070,0.362650,0.016863,0.371869,2.301431,-8.188011,-20.447017,5.026985,0.159230,-0.168986,0.000000,0.074838,-0.041588,0.000000
0.940000,-2.419298,0.346052,-1.496828,0.905514,0.427388,-0.000561,1.611601,1.541766,0.385915,-0.065238,0.165077,2.349306,-8.228207,-20.878783,4.575178,0.159881,-0.169370,0.000000,0.055076,-0.034251,0.000000
0.950000,-2.410163,0.350403,-1.496814,0.921627,0.442814,0.003416,1.610538,1.542372,0.409636,-0.147701,-0.045707,2.392934,-8.262265,-21.256959,4.158307,0.160331,-0.169680,0.000000,0.034716,-0.026757,-0.000000
0.960000,-2.400866,0.354909,-1.496759,0.937725,0.458236,0.007632,1.608647,1.540852,0.433774,-0.230484,-0.260062,2.432472,-8.279974,-21.599769,3.706747,0.160575,-0.169912,0.000000,0.013783,-0.019109,-0.000000
0.970000,-2.391408,0.359568,-1.496661,0.953800,0.473631,0.012092,1.605928,1.537171,0.458286,-0.313300,-0.477702,2.467069,-8.252212,-21.907724,3.134645,0.160606,-0.170067,0.000000,-0.007723,-0.011315,0.000000
0.980000,-2.381790,0.364381,-1.496518,0.969843,0.488979,0.016798,1.602381,1.531298,0.483115,-0.395528,-0.698217,2.495165,-8.178572,-22.168919,2.458856,0.160420,-0.170141,0.000000,-0.029807,-0.003408,-0.000000
0.990000,-2.372011,0.369348,-1.496325,0.985847,0.504257,0.021754,1.598017,1.523206,0.508189,-0.476872,-0.921081,2.516246,-8.096569,-22.378998,1.793306,0.160010,-0.170136,0.000000,-0.052439,0.004597,-0.000000
1.000000,-2.362073,0.374466,-1.496083,1.001804,0.519443,0.026962,1.592844,1.512876,0.533440,-0.557459,-1.145797,2.531031,-8.020638,-22.552174,1.180656,0.159371,-0.170048,0.000000,-0.075571,0.012702,-0.000000
1.010000,-2.351975,0.379737,-1.495786,1.017704,0.534515,0.032423,1.586868,1.500290,0.558810,-0.637284,-1.372124,2.539859,-7.923247,-22.685534,0.543418,0.158498,-0.169878,0.000000,-0.099187,0.020906,-0.000000
1.020000,-2.341719,0.385157,-1.495434,1.033541,0.549449,0.038138,1.580098,1.485434,0.584237,-0.715924,-1.599507,2.541899,-7.767080,-22.730323,-0.222388,0.157386,-0.169624,0.000000,-0.123254,0.029180,-0.000000
1.030000,-2.331304,0.390725,-1.495023,1.049306,0.564223,0.044107,1.572550,1.468300,0.609648,-0.792626,-1.826731,2.535412,-7.556805,-22.679203,-1.096288,0.156032,-0.169287,0.000000,-0.147686,0.037480,-0.000000
1.040000,-2.320733,0.396441,-1.494552,1.064992,0.578815,0.050331,1.564246,1.448899,0.634946,-0.867060,-2.053091,2.519973,-7.341093,-22.594608,-1.936567,0.154431,-0.168865,0.000000,-0.172422,0.045778,0.000000
1.050000,-2.310005,0.402302,-1.494017,1.080591,0.593201,0.056806,1.555208,1.427238,0.660047,-0.939448,-2.278623,2.496680,-7.144906,-22.505699,-2.694269,0.152582,-0.168360,0.000000,-0.197451,0.054078,0.000000
1.060000,-2.299121,0.408305,-1.493416,1.096096,0.607360,0.063532,1.545457,1.403326,0.684879,-1.009959,-2.503205,2.466088,-6.933578,-22.364719,-3.463110,0.150482,-0.167771,0.000000,-0.222749,0.062385,-0.000000
1.070000,-2.288083,0.414449,-1.492746,1.111500,0.621268,0.070504,1.535009,1.377174,0.709369,-1.078119,-2.725917,2.427418,-6.641635,-22.093541,-4.353887,0.148127,-0.167098,0.000000,-0.248232,0.070662,0.000000
1.080000,-2.276891,0.420731,-1.492006,1.126796,0.634903,0.077719,1.523894,1.348808,0.733427,-1.142791,-2.945076,2.379010,-6.278981,-21.695144,-5.330701,0.145516,-0.166342,0.000000,-0.273740,0.078813,-0.000000
1.090000,-2.265547,0.427147,-1.491192,1.141978,0.648244,0.085172,1.512154,1.318273,0.756949,-1.203699,-3.159820,2.320804,-5.933416,-21.271795,-6.242039,0.142651,-0.165505,0.000000,-0.299169,0.086803,0.000000
1.100000,-2.254051,0.433695,-1.490302,1.157040,0.661269,0.092858,1.499820,1.285612,0.779844,-1.261460,-3.370512,2.254169,-5.613129,-20.895077,-7.093987,0.139532,-0.164588,0.000000,-0.324517,0.094667,-0.000000
1.110000,-2.242406,0.440372,-1.489335,1.171975,0.673956,0.100769,1.486924,1.250862,0.802032,-1.315962,-3.577722,2.178924,-5.260160,-20.489619,-7.979338,0.136160,-0.163593,0.000000,-0.349826,0.102388,0.000000
1.120000,-2.230612,0.447175,-1.488287,1.186778,0.686286,0.108899,1.473501,1.214057,0.823422,-1.366663,-3.780304,2.094583,-4.868305,-19.862312,-8.844301,0.132535,-0.162521,0.000000,-0.374957,0.109908,-0.000000
1.130000,-2.218670,0.454098,-1.487157,1.201445,0.698238,0.117238,1.459591,1.175256,0.843924,-1.413328,-3.974968,2.002038,-4.456826,-19.032871,-9.646949,0.128660,-0.161375,0.000000,-0.399511,0.117173,0.000000
1.140000,-2.206583,0.461139,-1.485942,1.215970,0.709791,0.125777,1.445235,1.134558,0.863463,-1.455799,-4.160962,1.901644,-4.031818,-18.261414,-10.460173,0.124544,-0.160158,0.000000,-0.423363,0.124151,0.000000
1.150000,-2.194351,0.468294,-1.484641,1.230349,0.720929,0.134507,1.430475,1.092037,0.881957,-1.493964,-4.340196,1.792835,-3.607425,-17.569113,-11.303727,0.120193,-0.158872,0.000000,-0.446690,0.130826,-0.000000
1.160000,-2.181976,0.475558,-1.483252,1.244579,0.731632,0.143416,1.415355,1.047754,0.899319,-1.527948,-4.512344,1.675569,-3.180924,-16.783292,-12.118916,0.115610,-0.157522,0.000000,-0.469413,0.137199,0.000000
1.170000,-2.169459,0.482927,-1.481773,1.258656,0.741884,0.152493,1.399916,1.001790,0.915468,-1.557583,-4.675862,1.550456,-2.708827,-15.896533,-12.863221,0.110805,-0.156110,0.000000,-0.491308,0.143228,-0.000000
1.180000,-2.156803,0.490396,-1.480202,1.272578,0.751668,0.161726,1.384204,0.954237,0.930329,-1.582124,-4.830275,1.418305,-2.192246,-14.968640,-13.549923,0.105784,-0.154640,0.000000,-0.512267,0.148802,-0.000000
1.190000,-2.144008,0.497960,-1.478538,1.286341,0.760968,0.171100,1.368274,0.905185,0.943834,-1.601428,-4.975235,1.279458,-1.693999,-14.000308,-14.223563,0.100559,-0.153117,0.000000,-0.532196,0.153887,-0.000000
1.200000,-2.131076,0.505615,-1.476780,1.299943,0.769771,0.180602,1.352175,0.854732,0.955918,-1.616004,-5.110281,1.133833,-1.221007,-13.011035,-14.887780,0.095141,-0.151547,0.000000,-0.550993,0.158524,-0.000000
1.210000,-2.118009,0.513355,-1.474926,1.313384,0.778063,0.190218,1.335954,0.802979,0.966511,-1.625848,-5.235455,0.981702,-0.733528,-12.004988,-15.506745,0.089540,-0.149933,0.000000,-0.568606,0.162695,0.000000
1.220000,-2.104808,0.521176,-1.472976,1.326662,0.785831,0.199933,1.319658,0.750023,0.975552,-1.630675,-5.350381,0.823699,-0.231379,-10.911067,-16.059076,0.083769,-0.148280,0.000000,-0.584935,0.166344,-0.000000
1.230000,-2.091476,0.529072,-1.470928,1.339777,0.793064,0.209729,1.303340,0.695972,0.982985,-1.630475,-5.453677,0.660521,0.267247,-9.724794,-16.546688,0.077842,-0.146594,0.000000,-0.599769,0.169445,-0.000000
1.240000,-2.078013,0.537037,-1.468781,1.352729,0.799750,0.219592,1.287049,0.640949,0.988762,-1.625330,-5.544877,0.492765,0.762123,-8.552606,-16.989505,0.071775,-0.144881,0.000000,-0.613003,0.171987,0.000000
1.250000,-2.064421,0.545067,-1.466536,1.365518,0.805883,0.229505,1.270833,0.585074,0.992840,-1.615233,-5.624729,0.320731,1.267312,-7.438229,-17.424896,0.065583,-0.143146,0.000000,-0.624671,0.173953,0.000000
1.260000,-2.050702,0.553155,-1.464191,1.378146,0.811452,0.239449,1.254744,0.528455,0.995177,-1.599984,-5.693641,0.144267,1.778220,-6.312999,-17.831446,0.059283,-0.141395,0.000000,-0.634779,0.175314,0.000000
1.270000,-2.036858,0.561296,-1.461747,1.390613,0.816452,0.249408,1.238834,0.471201,0.995726,-1.579668,-5.750989,-0.035898,2.253423,-5.088173,-18.089574,0.052889,-0.139634,0.000000,-0.643214,0.176060,0.000000
1.280000,-2.022890,0.569484,-1.459203,1.402922,0.820876,0.259364,1.223151,0.413435,0.994459,-1.554915,-5.795405,-0.217525,2.692496,-3.795373,-18.194950,0.046420,-0.137869,0.000000,-0.649777,0.176221,-0.000000
1.290000,-2.008800,0.577714,-1.456560,1.415076,0.824720,0.269297,1.207735,0.355293,0.991375,-1.525818,-5.826896,-0.399797,3.147852,-2.558979,-18.305927,0.039895,-0.136106,0.000000,-0.654443,0.175791,0.000000
1.300000,-1.994589,0.585979,-1.453817,1.427077,0.827982,0.279191,1.192634,0.296897,0.986463,-1.491958,-5.846584,-0.583643,3.610912,-1.352539,-18.464611,0.033333,-0.134351,0.000000,-0.657328,0.174738,0.000000
1.310000,-1.980258,0.594273,-1.450976,1.438929,0.830658,0.289027,1.177896,0.238361,0.979702,-1.453600,-5.853947,-0.769089,4.044718,-0.103795,-18.558667,0.026750,-0.132610,0.000000,-0.658359,0.173090,0.000000
1.320000,-1.965810,0.602592,-1.448036,1.450635,0.832749,0.298785,1.163562,0.179818,0.971081,-1.411064,-5.848660,-0.954817,4.480005,1.075457,-18.493145,0.020167,-0.130888,0.000000,-0.657492,0.170866,0.000000
1.330000,-1.951245,0.610928,-1.445000,1.462200,0.834255,0.308448,1.149675,0.121388,0.960606,-1.364000,-5.832438,-1.138952,4.927907,2.149113,-18.297016,0.013602,-0.129192,0.000000,-0.654918,0.168004,0.000000
1.340000,-1.936566,0.619277,-1.441867,1.473629,0.835177,0.317997,1.136282,0.063169,0.948302,-1.312506,-5.805678,-1.320757,5.339626,3.267459,-18.090592,0.007070,-0.127528,0.000000,-0.650695,0.164512,-0.000000
1.350000,-1.921773,0.627632,-1.438640,1.484926,0.835518,0.327414,1.123425,0.005275,0.934191,-1.257208,-5.767089,-1.500764,5.715294,4.448681,-17.922103,0.000590,-0.125902,0.000000,-0.644698,0.160475,-0.000000
1.360000,-1.906867,0.635987,-1.435319,1.496097,0.835282,0.336681,1.111138,-0.052172,0.918287,-1.198200,-5.716704,-1.679199,6.085159,5.582778,-17.707947,-0.005822,-0.124319,0.000000,-0.636955,0.155917,0.000000
1.370000,-1.891851,0.644337,-1.431906,1.507148,0.834475,0.345780,1.099461,-0.109059,0.900607,-1.135504,-5.655433,-1.854923,6.426967,6.646775,-17.320076,-0.012148,-0.122784,0.000000,-0.627597,0.150835,-0.000000
1.380000,-1.876725,0.652677,-1.428404,1.518086,0.833101,0.354693,1.088428,-0.165281,0.881188,-1.069660,-5.583769,-2.025600,6.726441,7.669899,-16.779909,-0.018373,-0.121302,0.000000,-0.616719,0.145270,-0.000000
1.390000,-1.861489,0.660999,-1.424813,1.528917,0.831169,0.363404,1.078068,-0.220735,0.860095,-1.000976,-5.502035,-2.190521,7.013535,8.666597,-16.259581,-0.024481,-0.119878,0.000000,-0.604402,0.139261,0.000000
1.400000,-1.846146,0.669300,-1.421136,1.539648,0.828686,0.371895,1.068409,-0.275322,0.837378,-0.929390,-5.410437,-2.350792,7.296258,9.658438,-15.803655,-0.030460,-0.118516,0.000000,-0.590715,0.132832,-0.000000
1.410000,-1.830696,0.677573,-1.417375,1.550285,0.825663,0.380151,1.059480,-0.328944,0.813079,-0.855050,-5.308867,-2.506594,7.550980,10.629212,-15.297147,-0.036295,-0.117220,0.000000,-0.575690,0.126015,-0.000000
1.420000,-1.815140,0.685813,-1.413533,1.560837,0.822108,0.388157,1.051308,-0.381499,0.787246,-0.778370,-5.197853,-2.656735,7.759992,11.492794,-14.645301,-0.041973,-0.115994,0.000000,-0.559441,0.118856,0.000000
1.430000,-1.799480,0.694015,-1.409612,1.571311,0.818033,0.395896,1.043913,-0.432901,0.759944,-0.699851,-5.079011,-2.799500,7.925423,12.244615,-13.889900,-0.047483,-0.114841,0.000000,-0.542204,0.111403,0.000000
1.440000,-1.783714,0.702174,-1.405615,1.581715,0.813450,0.403356,1.037311,-0.483079,0.731256,-0.619862,-4.952960,-2.934533,8.067498,12.996406,-13.157075,-0.052817,-0.113764,0.000000,-0.524104,0.103707,0.000000
1.450000,-1.767845,0.710284,-1.401544,1.592058,0.808371,0.410521,1.031515,-0.531960,0.701254,-0.538501,-4.819083,-3.062642,8.213314,13.779590,-12.445447,-0.057965,-0.112764,0.000000,-0.505119,0.095804,-0.000000
1.460000,-1.751873,0.718341,-1.397404,1.602346,0.802810,0.417381,1.026541,-0.579461,0.670003,-0.455595,-4.677368,-3.183442,8.345213,14.512885,-11.677671,-0.062919,-0.111844,0.000000,-0.485302,0.087683,0.000000
1.470000,-1.735798,0.726340,-1.393197,1.612588,0.796782,0.423921,1.022403,-0.625507,0.637585,-0.371596,-4.528825,-3.296195,8.381899,15.120488,-10.882493,-0.067671,-0.111007,0.000000,-0.464816,0.079398,0.000000
1.480000,-1.719621,0.734277,-1.388926,1.622794,0.790300,0.430132,1.019109,-0.670037,0.604079,-0.287957,-4.374959,-3.401092,8.323973,15.623065,-10.093601,-0.072216,-0.110253,0.000000,-0.443870,0.071118,0.000000
1.490000,-1.703342,0.742147,-1.384594,1.632971,0.783381,0.436003,1.016644,-0.713006,0.569563,-0.205117,-4.216364,-3.498067,8.280784,16.114875,-9.272594,-0.076549,-0.109581,0.000000,-0.422569,0.062899,0.000000
1.500000,-1.686962,0.749945,-1.380206,1.643127,0.776040,0.441524,1.015006,-0.754365,0.534118,-0.122342,-4.052661,-3.586544,8.273025,16.621201,-8.409964,-0.080667,-0.108991,0.000000,-0.400917,0.054663,-0.000000
1.510000,-1.670480,0.757667,-1.375764,1.653271,0.768294,0.446685,1.014197,-0.794060,0.497832,-0.039656,-3.883939,-3.666267,8.225469,17.075730,-7.539300,-0.084568,-0.108483,0.000000,-0.378963,0.046419,-0.000000
1.520000,-1.653897,0.765311,-1.371272,1.663411,0.760159,0.451480,1.014213,-0.832043,0.460793,0.042168,-3.711147,-3.737330,8.099944,17.411737,-6.681389,-0.088247,-0.108059,0.000000,-0.356839,0.038254,0.000000
1.530000,-1.637212,0.772870,-1.366734,1.673555,0.751653,0.455901,1.015041,-0.868282,0.423085,0.122342,-3.535705,-3.799894,7.921010,17.646689,-5.829705,-0.091705,-0.107715,0.000000,-0.334724,0.030257,0.000000
1.540000,-1.620425,0.780344,-1.362154,1.683711,0.742793,0.459942,1.016660,-0.902758,0.384795,0.200588,-3.358213,-3.853924,7.735222,17.866246,-4.966602,-0.094943,-0.107451,0.000000,-0.312704,0.022460,-0.000000
1.550000,-1.603537,0.787726,-1.357535,1.693888,0.733598,0.463597,1.019053,-0.935447,0.346007,0.277047,-3.178380,-3.899226,7.549238,18.094791,-4.094821,-0.097960,-0.107264,0.000000,-0.290769,0.014845,-0.000000
1.560000,-1.586548,0.795016,-1.352882,1.704092,0.724084,0.466862,1.022201,-0.966325,0.306810,0.351573,-2.996317,-3.935820,7.333022,18.273673,-3.231515,-0.100759,-0.107152,0.000000,-0.268948,0.007429,-0.000000
1.570000,-1.569456,0.802208,-1.348198,1.714332,0.714271,0.469733,1.026084,-0.995373,0.267291,0.423707,-2.812906,-3.963857,7.069352,18.342826,-2.381440,-0.103340,-0.107114,0.000000,-0.247344,0.000258,0.000000
1.580000,-1.552261,0.809301,-1.343487,1.724614,0.704177,0.472208,1.030675,-1.022583,0.227533,0.492960,-2.629461,-3.983449,6.767034,18.319877,-1.546491,-0.105707,-0.107147,0.000000,-0.226102,-0.006618,0.000000
1.590000,-1.534963,0.816292,-1.338754,1.734946,0.693820,0.474284,1.035943,-1.047962,0.187622,0.559048,-2.446509,-3.994787,6.449520,18.284070,-0.728193,-0.107863,-0.107247,0.000000,-0.205275,-0.013173,-0.000000
1.600000,-1.517562,0.823177,-1.334002,1.745333,0.683218,0.475960,1.041856,-1.071513,0.147637,0.621950,-2.263779,-3.998013,6.133739,18.251391,0.094853,-0.109813,-0.107411,0.000000,-0.184838,-0.019408,-0.000000
1.610000,-1.500057,0.829956,-1.329235,1.755783,0.672389,0.477237,1.048382,-1.093238,0.107661,0.681723,-2.081481,-3.992889,5.804632,18.169819,0.916519,-0.111561,-0.107637,0.000000,-0.164812,-0.025339,0.000000
1.620000,-1.482446,0.836625,-1.324457,1.766301,0.661353,0.478114,1.055491,-1.113143,0.067780,0.738043,-1.900383,-3.979682,5.417908,18.006635,1.661047,-0.113110,-0.107921,0.000000,-0.145271,-0.030935,0.000000
1.630000,-1.464731,0.843183,-1.319672,1.776893,0.650126,0.478592,1.063143,-1.131246,0.028068,0.790081,-1.721348,-3.959669,4.977347,17.779928,2.321604,-0.114467,-0.108259,0.000000,-0.126280,-0.036107,0.000000
1.640000,-1.446909,0.849628,-1.314885,1.787564,0.638728,0.478675,1.071292,-1.147570,-0.011414,0.837590,-1.544784,-3.933250,4.545970,17.533579,2.996263,-0.115637,-0.108648,0.000000,-0.107866,-0.040835,0.000000
1.650000,-1.428979,0.855958,-1.310099,1.798318,0.627175,0.478364,1.079895,-1.162141,-0.050597,0.881000,-1.370677,-3.899743,4.141216,17.276272,3.709708,-0.116625,-0.109081,0.000000,-0.090026,-0.045179,-0.000000
1.660000,-1.410942,0.862171,-1.305318,1.809161,0.615485,0.477663,1.088912,-1.174984,-0.089409,0.920414,-1.199259,-3.859056,3.722370,16.981377,4.390137,-0.117438,-0.109557,0.000000,-0.072771,-0.049157,-0.000000
1.670000,-1.392796,0.868267,-1.300546,1.820097,0.603675,0.476576,1.098303,-1.186126,-0.127778,0.955448,-1.031049,-3.811941,3.257028,16.632510,4.979225,-0.118081,-0.110071,0.000000,-0.056131,-0.052732,0.000000
1.680000,-1.374540,0.874245,-1.295786,1.831127,0.591763,0.475107,1.108021,-1.195605,-0.165647,0.985555,-0.866609,-3.759472,2.763778,16.240221,5.495073,-0.118561,-0.110619,0.000000,-0.040136,-0.055848,-0.000000
1.690000,-1.356174,0.880102,-1.291043,1.842257,0.579763,0.473263,1.118014,-1.203459,-0.202968,1.010723,-0.706245,-3.702039,2.287224,15.829301,6.008075,-0.118884,-0.111196,0.000000,-0.024795,-0.058509,0.000000
1.700000,-1.337695,0.885840,-1.286321,1.853488,0.567693,0.471048,1.128236,-1.209729,-0.239688,1.031299,-0.550023,-3.639310,1.809314,15.407409,6.538688,-0.119058,-0.111798,0.000000,-0.010103,-0.060761,-0.000000
1.710000,-1.319104,0.891456,-1.281623,1.864822,0.555569,0.468469,1.138640,-1.214459,-0.275754,1.046910,-0.398097,-3.571265,1.305610,14.961176,7.036303,-0.119087,-0.112420,0.000000,0.003941,-0.062576,0.000000
1.720000,-1.300399,0.896951,-1.276952,1.876261,0.543404,0.465533,1.149174,-1.217691,-0.311114,1.057411,-0.250799,-3.498584,0.840051,14.477760,7.442789,-0.118979,-0.113058,0.000000,0.017328,-0.063942,-0.000000
1.730000,-1.281579,0.902324,-1.272312,1.887805,0.531215,0.462247,1.159788,-1.219475,-0.345726,1.063711,-0.108541,-3.422410,0.427819,13.965653,7.769461,-0.118741,-0.113708,0.000000,0.030049,-0.064942,0.000000
1.740000,-1.262643,0.907576,-1.267707,1.899456,0.519015,0.458618,1.170448,-1.219862,-0.379562,1.065968,0.028514,-3.343195,-0.017320,13.446098,8.090691,-0.118379,-0.114366,0.000000,0.042109,-0.065592,0.000000
1.750000,-1.243590,0.912705,-1.263139,1.911214,0.506818,0.454656,1.181108,-1.218905,-0.412590,1.063364,0.160381,-3.260596,-0.515560,12.912259,8.433016,-0.117899,-0.115029,0.000000,0.053522,-0.065824,0.000000
1.760000,-1.224418,0.917712,-1.258614,1.923079,0.494637,0.450367,1.191715,-1.216655,-0.444774,1.055656,0.286759,-3.174535,-1.004497,12.354598,8.744137,-0.117309,-0.115692,0.000000,0.064271,-0.065621,0.000000
1.770000,-1.205128,0.922597,-1.254132,1.935049,0.482485,0.445760,1.202221,-1.213170,-0.476080,1.043274,0.407473,-3.085713,-1.443190,11.803995,8.955662,-0.116614,-0.116351,0.000000,0.074364,-0.065025,0.000000
1.780000,-1.185717,0.927362,-1.249698,1.947123,0.470373,0.440845,1.212581,-1.208505,-0.506488,1.026793,0.522839,-2.995421,-1.851856,11.269331,9.082727,-0.115821,-0.117001,0.000000,0.083861,-0.064078,-0.000000
1.790000,-1.166185,0.932005,-1.245315,1.959300,0.458314,0.435630,1.222757,-1.202713,-0.535989,1.006237,0.632859,-2.904058,-2.278187,10.711861,9.215293,-0.114937,-0.117641,0.000000,0.092777,-0.062785,0.000000
1.800000,-1.146531,0.936528,-1.240986,1.971578,0.446319,0.430125,1.232705,-1.195848,-0.564569,0.981229,0.737076,-2.811115,-2.712581,10.118441,9.365096,-0.113966,-0.118265,0.000000,0.101077,-0.061117,-0.000000
1.810000,-1.126754,0.940931,-1.236713,1.983954,0.434397,0.424339,1.242381,-1.187971,-0.592211,0.951986,0.835228,-2.716757,-3.122785,9.519780,9.472361,-0.112915,-0.118871,0.000000,0.108750,-0.059098,0.000000
1.820000,-1.106852,0.945216,-1.232499,1.996426,0.422560,0.418281,1.251745,-1.179143,-0.618904,0.918773,0.927472,-2.621668,-3.535340,8.950945,9.518313,-0.111791,-0.119455,0.000000,0.115829,-0.056747,0.000000
1.830000,-1.086825,0.949383,-1.228347,2.008989,0.410815,0.411961,1.260757,-1.169422,-0.644644,0.881279,1.014247,-2.526390,-3.958912,8.405279,9.524292,-0.110599,-0.120013,0.000000,0.122371,-0.054031,0.000000
1.840000,-1.066672,0.953432,-1.224260,2.021641,0.399171,0.405388,1.269371,-1.158859,-0.669432,0.839595,1.095578,-2.431182,-4.352615,7.841199,9.512870,-0.109344,-0.120542,0.000000,0.128390,-0.050958,-0.000000
1.850000,-1.046393,0.957366,-1.220239,2.034377,0.387637,0.398572,1.277549,-1.147510,-0.693268,0.794226,1.171071,-2.336133,-4.728099,7.254117,9.484950,-0.108031,-0.121039,0.000000,0.133859,-0.047576,-0.000000
1.860000,-1.025985,0.961185,-1.216288,2.047192,0.376221,0.391523,1.285255,-1.135437,-0.716155,0.745033,1.240660,-2.241483,-5.110427,6.674720,9.427828,-0.106667,-0.121500,0.000000,0.138782,-0.043870,0.000000
1.870000,-1.005449,0.964890,-1.212409,2.060082,0.364929,0.384249,1.292449,-1.122697,-0.738098,0.692018,1.304565,-2.147576,-5.448811,6.116667,9.339484,-0.105255,-0.121921,0.000000,0.143189,-0.039836,0.000000
1.880000,-0.984783,0.968483,-1.208603,2.073041,0.353767,0.376761,1.299096,-1.109346,-0.759106,0.636057,1.362993,-2.054694,-5.730608,5.573031,9.225158,-0.103803,-0.122301,0.000000,0.147111,-0.035553,0.000000
1.890000,-0.963988,0.971966,-1.204874,2.086064,0.342742,0.369067,1.305170,-1.095437,-0.779192,0.577406,1.416026,-1.963073,-6.026459,5.030486,9.089420,-0.102313,-0.122636,0.000000,0.150561,-0.031041,-0.000000
1.900000,-0.943062,0.975338,-1.201222,2.099144,0.331858,0.361177,1.310644,-1.081025,-0.798368,0.515527,1.463603,-1.872905,-6.349782,4.479339,8.937899,-0.100791,-0.122925,0.000000,0.153540,-0.026247,0.000000
1.910000,-0.922005,0.978603,-1.197650,2.112276,0.321121,0.353100,1.315481,-1.066165,-0.816650,0.450410,1.505613,-1.784315,-6.650943,3.931214,8.769390,-0.099242,-0.123164,0.000000,0.156043,-0.021169,0.000000
1.920000,-0.900817,0.981761,-1.194160,2.125454,0.310535,0.344844,1.319652,-1.050913,-0.834054,0.382509,1.542227,-1.697518,-6.908766,3.419686,8.571305,-0.097670,-0.123351,0.000000,0.158092,-0.015843,0.000000
1.930000,-0.879496,0.984814,-1.190753,2.138669,0.300103,0.336419,1.323131,-1.035321,-0.850600,0.312235,1.574006,-1.612889,-7.138878,2.944396,8.345483,-0.096080,-0.123483,0.000000,0.159744,-0.010304,-0.000000
1.940000,-0.858043,0.987763,-1.187432,2.151916,0.289829,0.327832,1.325897,-1.019433,-0.866312,0.239731,1.601115,-1.530608,-7.365490,2.462217,8.112200,-0.094475,-0.123558,0.000000,0.161019,-0.004559,-0.000000
1.950000,-0.836458,0.990610,-1.184197,2.165187,0.279714,0.319092,1.327926,-1.003298,-0.881212,0.164925,1.623251,-1.450645,-7.593310,1.962412,7.873264,-0.092860,-0.123574,0.000000,0.161888,0.001399,0.000000
1.960000,-0.814739,0.993357,-1.181050,2.178475,0.269763,0.310208,1.329195,-0.986968,-0.895325,0.087865,1.640363,-1.373143,-7.806039,1.476049,7.617375,-0.091238,-0.123530,0.000000,0.162351,0.007570,-0.000000
1.970000,-0.792888,0.996005,-1.177992,2.191771,0.259975,0.301186,1.329683,-0.970491,-0.908675,0.008804,1.652772,-1.298298,-7.988324,1.028848,7.348624,-0.089613,-0.123422,0.000000,0.162439,0.013933,0.000000
1.980000,-0.770904,0.998557,-1.175026,2.205069,0.250353,0.292034,1.329371,-0.953912,-0.921291,-0.071902,1.660940,-1.226170,-8.144898,0.612478,7.073376,-0.087989,-0.123250,0.000000,0.162194,0.020460,0.000000
1.990000,-0.748787,1.001012,-1.172152,2.218359,0.240897,0.282760,1.328245,-0.937272,-0.933198,-0.154094,1.665021,-1.156830,-8.295737,0.195437,6.788251,-0.086369,-0.123012,0.000000,0.161633,0.027139,-0.000000
2.000000,-0.726537,1.003375,-1.169371,2.231634,0.231607,0.273370,1.326289,-0.920612,-0.944427,-0.237816,1.664849,-1.090405,-8.445397,-0.229496,6.491006,-0.084756,-0.122705,0.000000,0.160739,0.033976,-0.000000
2.010000,-0.704154,1.005645,-1.166684,2.244885,0.222484,0.263872,1.323489,-0.903975,-0.955007,-0.323002,1.660431,-1.027010,-8.580588,-0.640243,6.186684,-0.083154,-0.122330,0.000000,0.159513,0.040970,0.000000
2.020000,-0.681639,1.007824,-1.164093,2.258103,0.213528,0.254270,1.319829,-0.887403,-0.964967,-0.409428,1.652044,-0.966671,-8.691113,-1.017404,5.884550,-0.081566,-0.121883,0.000000,0.157980,0.048103,0.000000
2.030000,-0.658992,1.009915,-1.161599,2.271281,0.204736,0.244572,1.315300,-0.870934,-0.974340,-0.496824,1.640083,-0.909319,-8.781443,-1.367135,5.585574,-0.079994,-0.121364,0.000000,0.156174,0.055349,-0.000000
2.040000,-0.636213,1.011919,-1.159202,2.284409,0.196109,0.234783,1.309893,-0.854602,-0.983154,-0.585057,1.624702,-0.854960,-8.865165,-1.713893,5.280488,-0.078442,-0.120773,0.000000,0.154109,0.062700,0.000000
2.050000,-0.613304,1.013837,-1.156903,2.297479,0.187644,0.224909,1.303599,-0.838440,-0.991439,-0.674127,1.605805,-0.803709,-8.944588,-2.063137,4.965636,-0.076912,-0.120107,0.000000,0.151773,0.070158,0.000000
2.060000,-0.590264,1.015672,-1.154704,2.310481,0.179340,0.214955,1.296410,-0.822486,-0.999228,-0.763949,1.583439,-0.755647,-9.011185,-2.398139,4.649788,-0.075406,-0.119365,0.000000,0.149171,0.077717,0.000000
2.070000,-0.567094,1.017424,-1.152604,2.323407,0.171195,0.204925,1.288320,-0.806772,-1.006552,-0.854351,1.557843,-0.710713,-9.060817,-2.705418,4.346788,-0.073928,-0.118548,0.000000,0.146322,0.085363,0.000000
2.080000,-0.543796,1.019096,-1.150605,2.336248,0.163205,0.194824,1.279323,-0.791329,-1.013442,-0.945165,1.529330,-0.668711,-9.096910,-2.990123,4.056398,-0.072480,-0.117653,0.000000,0.143251,0.093080,-0.000000
2.090000,-0.520369,1.020688,-1.148708,2.348994,0.155368,0.184656,1.269417,-0.776185,-1.019926,-1.036289,1.498040,-0.629585,-9.125416,-3.269623,3.763039,-0.071063,-0.116681,0.000000,0.139969,0.100857,-0.000000
2.100000,-0.496816,1.022203,-1.146912,2.361636,0.147681,0.174425,1.258597,-0.761368,-1.026034,-1.127673,1.463938,-0.593451,-9.146622,-3.547165,3.461662,-0.069680,-0.115631,0.000000,0.136471,0.108694,-0.000000
2.110000,-0.473137,1.023642,-1.145219,2.374166,0.140141,0.164135,1.246863,-0.746906,-1.031795,-1.219222,1.427097,-0.560352,-9.157403,-3.811329,3.165042,-0.068334,-0.114502,0.000000,0.132763,0.116581,-0.000000
2.120000,-0.449333,1.025006,-1.143630,2.386573,0.132743,0.153789,1.234213,-0.732826,-1.037241,-1.310821,1.387711,-0.530150,-9.158816,-4.055041,2.889532,-0.067025,-0.113294,0.000000,0.128859,0.124509,0.000000
2.130000,-0.425405,1.026297,-1.142143,2.398850,0.125484,0.143390,1.220647,-0.719152,-1.042398,-1.402398,1.345996,-0.502562,-9.152725,-4.282349,2.633086,-0.065756,-0.112006,0.000000,0.124775,0.132467,0.000000
2.140000,-0.401356,1.027516,-1.140762,2.410986,0.118360,0.132941,1.206165,-0.705906,-1.047292,-1.493876,1.302064,-0.477488,-9.138476,-4.502617,2.376544,-0.064530,-0.110639,0.000000,0.120520,0.140448,0.000000
2.150000,-0.377185,1.028664,-1.139485,2.422973,0.111366,0.122444,1.190769,-0.693111,-1.051948,-1.585167,1.255944,-0.455031,-9.115590,-4.716773,2.116196,-0.063346,-0.109192,0.000000,0.116095,0.148444,0.000000
2.160000,-0.352896,1.029743,-1.138313,2.434802,0.104498,0.111902,1.174462,-0.680787,-1.056393,-1.676188,1.207729,-0.435164,-9.085421,-4.919149,1.866691,-0.062208,-0.107664,0.000000,0.111506,0.156448,0.000000
2.170000,-0.328489,1.030754,-1.137247,2.446462,0.097750,0.101317,1.157246,-0.668956,-1.060651,-1.766876,1.157561,-0.417697,-9.050514,-5.108814,1.639408,-0.061116,-0.106057,0.000000,0.106765,0.164452,0.000000
2.180000,-0.303967,1.031698,-1.136286,2.457946,0.091119,0.090689,1.139124,-0.657636,-1.064747,-1.857198,1.105553,-0.402376,-9.011237,-5.288399,1.430799,-0.060072,-0.104369,0.000000,0.101878,0.172449,-0.000000
2.190000,-0.279330,1.032576,-1.135433,2.469245,0.084598,0.080022,1.120102,-0.646845,-1.068699,-1.947101,1.051793,-0.389081,-8.965260,-5.459462,1.228355,-0.059078,-0.102601,0.000000,0.096851,0.180434,0.000000
2.200000,-0.254582,1.033390,-1.134686,2.480349,0.078182,0.069315,1.100182,-0.636600,-1.072528,-2.036503,0.996363,-0.377809,-8.911860,-5.620758,1.031539,-0.058135,-0.100754,0.000000,0.091692,0.188397,0.000000
2.210000,-0.229723,1.034140,-1.134047,2.491249,0.071866,0.058571,1.079372,-0.626918,-1.076255,-2.125338,0.939378,-0.368450,-8.853439,-5.772070,0.849938,-0.057244,-0.098827,0.000000,0.086408,0.196332,-0.000000
2.220000,-0.204757,1.034827,-1.133515,2.501936,0.065643,0.047790,1.057675,-0.617813,-1.079897,-2.213572,0.880922,-0.360810,-8.793434,-5.917899,0.686899,-0.056407,-0.096821,0.000000,0.081005,0.204231,0.000000
2.230000,-0.179685,1.035453,-1.133091,2.512402,0.059509,0.036973,1.035100,-0.609299,-1.083471,-2.301207,0.821020,-0.354712,-8.732062,-6.059358,0.540128,-0.055624,-0.094736,0.000000,0.075485,0.212094,-0.000000
2.240000,-0.154509,1.036017,-1.132775,2.522638,0.053457,0.026121,1.011651,-0.601392,-1.086992,-2.388213,0.759735,-0.350008,-8.665714,-6.190958,0.407425,-0.054897,-0.092572,0.000000,0.069852,0.219914,-0.000000
2.250000,-0.129232,1.036522,-1.132568,2.532635,0.047482,0.015233,0.987336,-0.594105,-1.090472,-2.474521,0.697200,-0.346564,-8.591879,-6.309555,0.289398,-0.054227,-0.090331,0.000000,0.064116,0.227684,0.000000
2.260000,-0.103856,1.036967,-1.132471,2.542385,0.041575,0.004311,0.962161,-0.587448,-1.093923,-2.560051,0.633544,-0.344220,-8.513872,-6.419669,0.188548,-0.053615,-0.088012,0.000000,0.058287,0.235394,-0.000000
2.270000,-0.078384,1.037353,-1.132482,2.551878,0.035733,-0.006645,0.936135,-0.581434,-1.097356,-2.644798,0.568807,-0.342793,-8.439972,-6.530339,0.106267,-0.053061,-0.085616,0.000000,0.052370,0.243040,0.000000
2.280000,-0.052819,1.037682,-1.132603,2.561107,0.029947,-0.017636,0.909265,-0.576072,-1.100779,-2.728850,0.502937,-0.342094,-8.370443,-6.641236,0.043150,-0.052568,-0.083144,0.000000,0.046357,0.250629,-0.000000
2.290000,-0.027162,1.037952,-1.132835,2.570064,0.024211,-0.028661,0.881558,-0.571375,-1.104198,-2.812207,0.435982,-0.341930,-8.294834,-6.740805,-0.001176,-0.052134,-0.080597,0.000000,0.040252,0.258158,0.000000
2.300000,-0.001417,1.038166,-1.133177,2.578739,0.018519,-0.039720,0.853021,-0.567352,-1.107617,-2.894747,0.368121,-0.342118,-8.207890,-6.824307,-0.030325,-0.051763,-0.077974,0.000000,0.034071,0.265613,0.000000
2.310000,0.024413,1.038323,-1.133629,2.587124,0.012864,-0.050813,0.823663,-0.564013,-1.111040,-2.976365,0.299496,-0.342536,-8.117532,-6.900204,-0.042680,-0.051453,-0.075277,0.000000,0.027826,0.272984,-0.000000
2.320000,0.050325,1.038423,-1.134193,2.595212,0.007239,-0.061941,0.793494,-0.561363,-1.114468,-3.057098,0.230117,-0.342971,-8.038152,-6.980985,-0.025251,-0.051206,-0.072507,0.000000,0.021517,0.280271,-0.000000
2.330000,0.076317,1.038467,-1.134868,2.602994,0.001637,-0.073103,0.762521,-0.559410,-1.117900,-3.137128,0.159876,-0.343041,-7.968449,-7.064967,0.024140,-0.051023,-0.069665,0.000000,0.015132,0.287489,-0.000000
2.340000,0.102385,1.038456,-1.135655,2.610462,-0.003949,-0.084299,0.730751,-0.558165,-1.121329,-3.216467,0.088817,-0.342489,-7.889595,-7.135814,0.088621,-0.050903,-0.066750,0.000000,0.008676,0.294637,-0.000000
2.350000,0.128526,1.038389,-1.136554,2.617609,-0.009526,-0.095529,0.698192,-0.557634,-1.124749,-3.294920,0.017160,-0.341269,-7.795420,-7.187619,0.155888,-0.050849,-0.063764,0.000000,0.002167,0.301696,-0.000000
2.360000,0.154737,1.038265,-1.137566,2.624426,-0.015102,-0.106794,0.664853,-0.557822,-1.128154,-3.372375,-0.054935,-0.339371,-7.699134,-7.231782,0.239032,-0.050860,-0.060708,0.000000,-0.004379,0.308657,0.000000
2.370000,0.181015,1.038086,-1.138690,2.630906,-0.020683,-0.118092,0.630744,-0.558733,-1.131537,-3.448903,-0.127475,-0.336488,-7.615821,-7.282988,0.371692,-0.050937,-0.057583,0.000000,-0.010963,0.315525,0.000000
2.380000,0.207355,1.037852,-1.139927,2.637041,-0.026277,-0.129424,0.595875,-0.560371,-1.134884,-3.524691,-0.200595,-0.331937,-7.541777,-7.338387,0.552161,-0.051079,-0.054390,0.000000,-0.017602,0.322314,0.000000
2.390000,0.233755,1.037561,-1.141278,2.642823,-0.031890,-0.140790,0.560250,-0.562744,-1.138176,-3.599738,-0.274243,-0.325445,-7.457212,-7.378380,0.735508,-0.051289,-0.051128,0.000000,-0.024292,0.329023,-0.000000
2.400000,0.260212,1.037214,-1.142743,2.648246,-0.037531,-0.152188,0.523880,-0.565856,-1.141393,-3.673836,-0.348162,-0.317227,-7.358033,-7.396390,0.908793,-0.051565,-0.047800,0.000000,-0.031007,0.335637,0.000000
2.410000,0.286720,1.036810,-1.144322,2.653301,-0.043207,-0.163618,0.486774,-0.569708,-1.144520,-3.746899,-0.422171,-0.307269,-7.257530,-7.405637,1.103101,-0.051909,-0.044407,0.000000,-0.037732,0.342150,0.000000
2.420000,0.313278,1.036350,-1.146016,2.657981,-0.048926,-0.175078,0.448942,-0.574300,-1.147538,-3.818986,-0.496275,-0.295165,-7.164496,-7.421600,1.347549,-0.052320,-0.040948,0.000000,-0.044469,0.348566,-0.000000
2.430000,0.339880,1.035832,-1.147824,2.662280,-0.054693,-0.186568,0.410394,-0.579633,-1.150423,-3.890189,-0.570603,-0.280318,-7.074553,-7.440445,1.632384,-0.052798,-0.037426,0.000000,-0.051232,0.354895,0.000000
2.440000,0.366523,1.035256,-1.149747,2.666189,-0.060518,-0.198087,0.371138,-0.585712,-1.153145,-3.960477,-0.645084,-0.262517,-6.976124,-7.441111,1.919665,-0.053344,-0.033840,0.000000,-0.058017,0.361136,-0.000000
2.450000,0.393204,1.034621,-1.151785,2.669703,-0.066408,-0.209631,0.331184,-0.592535,-1.155674,-4.029711,-0.719425,-0.241925,-6.866657,-7.417188,2.204395,-0.053958,-0.030193,0.000000,-0.064797,0.367280,-0.000000
2.460000,0.419917,1.033928,-1.153940,2.672813,-0.072369,-0.221200,0.290544,-0.600100,-1.157983,-4.097810,-0.793428,-0.218429,-6.753485,-7.382411,2.511352,-0.054640,-0.026484,0.000000,-0.071553,0.373323,-0.000000
2.470000,0.446660,1.033174,-1.156209,2.675513,-0.078410,-0.232791,0.249228,-0.608403,-1.160042,-4.164781,-0.867073,-0.191698,-6.642144,-7.350799,2.849131,-0.055389,-0.022715,0.000000,-0.078289,0.379269,0.000000
2.480000,0.473428,1.032360,-1.158595,2.677798,-0.084537,-0.244401,0.207248,-0.617442,-1.161817,-4.230653,-0.940444,-0.161447,-6.530136,-7.317745,3.209000,-0.056206,-0.018887,0.000000,-0.085012,0.385124,-0.000000
2.490000,0.500216,1.031483,-1.161097,2.679658,-0.090759,-0.256027,0.164615,-0.627212,-1.163271,-4.295384,-1.013428,-0.127518,-6.409577,-7.263756,3.579887,-0.057090,-0.015000,0.000000,-0.091716,0.390889,-0.000000
2.500000,0.527021,1.030544,-1.163716,2.681090,-0.097081,-0.267667,0.121340,-0.637710,-1.164367,-4.358845,-1.085719,-0.089849,-6.277214,-7.183909,3.958388,-0.058040,-0.011056,0.000000,-0.098374,0.396557,0.000000
2.510000,0.553838,1.029542,-1.166451,2.682085,-0.103513,-0.279315,0.077438,-0.648927,-1.165068,-4.420928,-1.157107,-0.048350,-6.137784,-7.090346,4.350763,-0.059057,-0.007056,0.000000,-0.104968,0.402124,0.000000
2.520000,0.580663,1.028474,-1.169302,2.682639,-0.110060,-0.290968,0.032922,-0.660852,-1.165334,-4.481601,-1.227526,-0.002834,-5.998511,-6.992374,4.765407,-0.060140,-0.003000,0.000000,-0.111497,0.407593,0.000000
2.530000,0.607491,1.027340,-1.172270,2.682744,-0.116730,-0.302621,-0.012194,-0.673477,-1.165125,-4.540898,-1.296954,0.046958,-5.857752,-6.885123,5.200174,-0.061287,0.001111,0.000000,-0.117962,0.412972,0.000000
2.540000,0.634317,1.026140,-1.175355,2.682395,-0.123529,-0.314270,-0.057896,-0.686791,-1.164395,-4.598756,-1.365228,0.101170,-5.704800,-6.755055,5.642106,-0.062499,0.005276,0.000000,-0.124351,0.418263,-0.000000
2.550000,0.661138,1.024870,-1.178556,2.681586,-0.130466,-0.325909,-0.104169,-0.700782,-1.163101,-4.654994,-1.432055,0.159800,-5.535748,-6.600347,6.084247,-0.063774,0.009493,0.000000,-0.130640,0.423456,-0.000000
2.560000,0.687949,1.023530,-1.181873,2.680311,-0.137545,-0.337532,-0.150996,-0.715432,-1.161199,-4.709471,-1.497235,0.222855,-5.357101,-6.428600,6.534291,-0.065112,0.013762,0.000000,-0.136814,0.428546,-0.000000
2.570000,0.714745,1.022119,-1.185306,2.678566,-0.144774,-0.349133,-0.198358,-0.730726,-1.158644,-4.762136,-1.560627,0.290486,-5.176540,-6.240651,7.007392,-0.066510,0.018082,0.000000,-0.142864,0.433535,-0.000000
2.580000,0.741520,1.020635,-1.188855,2.676344,-0.152160,-0.360705,-0.246239,-0.746645,-1.155390,-4.813001,-1.622048,0.363003,-4.991371,-6.032190,7.501622,-0.067969,0.022452,0.000000,-0.148779,0.438434,-0.000000
2.590000,0.768272,1.019076,-1.192520,2.673641,-0.159707,-0.372241,-0.294618,-0.763167,-1.151384,-4.861964,-1.681271,0.440519,-4.790209,-5.800816,7.994220,-0.069486,0.026871,0.000000,-0.154543,0.443241,-0.000000
2.600000,0.794993,1.017441,-1.196300,2.670452,-0.167423,-0.383733,-0.343478,-0.780270,-1.146579,-4.908806,-1.738064,0.522887,-4.571105,-5.549564,8.471931,-0.071060,0.031339,0.000000,-0.160138,0.447945,-0.000000
2.610000,0.821681,1.015727,-1.200195,2.666772,-0.175313,-0.395173,-0.392795,-0.797929,-1.140927,-4.953386,-1.792262,0.609957,-4.340621,-5.278130,8.949106,-0.072689,0.035853,0.000000,-0.165551,0.452542,0.000000
2.620000,0.848329,1.013934,-1.204204,2.662596,-0.183381,-0.406552,-0.442546,-0.816116,-1.134380,-4.995618,-1.843627,0.701869,-4.100408,-4.974939,9.456230,-0.074371,0.040414,0.000000,-0.170766,0.457032,-0.000000
2.630000,0.874933,1.012060,-1.208326,2.657921,-0.191635,-0.417860,-0.492707,-0.834801,-1.126889,-5.035394,-1.891761,0.799082,-3.846801,-4.637344,9.989878,-0.076104,0.045020,0.000000,-0.175755,0.461417,0.000000
2.640000,0.901487,1.010102,-1.212561,2.652742,-0.200078,-0.429089,-0.543253,-0.853951,-1.118398,-5.072554,-1.936374,0.901667,-3.576651,-4.279644,10.505757,-0.077886,0.049669,0.000000,-0.180496,0.465694,0.000000
2.650000,0.927987,1.008058,-1.216908,2.647056,-0.208714,-0.440228,-0.594158,-0.873529,-1.108856,-5.106927,-1.977354,1.009197,-3.293207,-3.911128,10.983273,-0.079714,0.054362,0.000000,-0.184982,0.469853,0.000000
2.660000,0.954428,1.005927,-1.221366,2.640859,-0.217548,-0.451266,-0.645392,-0.893498,-1.098214,-5.138418,-2.014596,1.121332,-2.997009,-3.520031,11.450986,-0.081586,0.059097,0.000000,-0.189204,0.473896,-0.000000
2.670000,0.980805,1.003707,-1.225933,2.634148,-0.226584,-0.462193,-0.696926,-0.913821,-1.086429,-5.166867,-2.047755,1.238217,-2.676316,-3.079761,11.955100,-0.083499,0.063872,0.000000,-0.193137,0.477816,0.000000
2.680000,1.007111,1.001396,-1.230609,2.626920,-0.235825,-0.472995,-0.748729,-0.934453,-1.073450,-5.191945,-2.076192,1.360434,-2.328520,-2.590727,12.486340,-0.085449,0.068687,0.000000,-0.196732,0.481598,0.000000
2.690000,1.033343,0.998991,-1.235393,2.619173,-0.245273,-0.483662,-0.800765,-0.955344,-1.059221,-5.213437,-2.099569,1.487944,-1.968621,-2.087677,12.978836,-0.087433,0.073540,0.000000,-0.199962,0.485232,0.000000
2.700000,1.059495,0.996490,-1.240283,2.610905,-0.254931,-0.494179,-0.852998,-0.976444,-1.043691,-5.231317,-2.117945,1.620011,-1.605640,-1.586836,13.415219,-0.089448,0.078429,0.000000,-0.202833,0.488723,-0.000000
2.710000,1.085561,0.993892,-1.245277,2.602113,-0.264802,-0.504535,-0.905392,-0.997703,-1.026820,-5.245550,-2.131306,1.756248,-1.227752,-1.062920,13.836931,-0.091490,0.083354,0.000000,-0.205342,0.492073,-0.000000
2.720000,1.111537,0.991194,-1.250373,2.592797,-0.274885,-0.514716,-0.957909,-1.019071,-1.008566,-5.255872,-2.139204,1.896749,-0.810279,-0.473739,14.275262,-0.093555,0.088313,0.000000,-0.207455,0.495268,-0.000000
2.730000,1.137417,0.988394,-1.255571,2.582955,-0.285183,-0.524707,-1.010509,-1.040487,-0.988885,-5.261756,-2.140781,2.041753,-0.354419,0.176073,14.713496,-0.095640,0.093304,0.000000,-0.209099,0.498272,-0.000000
2.740000,1.163196,0.985491,-1.260867,2.572587,-0.295695,-0.534494,-1.063144,-1.061886,-0.967731,-5.262960,-2.135682,2.191019,0.107483,0.830316,15.106446,-0.097738,0.098325,0.000000,-0.210242,0.501069,0.000000
2.750000,1.188869,0.982480,-1.266261,2.561692,-0.306421,-0.544061,-1.115768,-1.083201,-0.945065,-5.259606,-2.124174,2.343882,0.562462,1.466640,15.449482,-0.099845,0.103374,0.000000,-0.210905,0.503675,0.000000
2.760000,1.214430,0.979362,-1.271749,2.550271,-0.317359,-0.553395,-1.168336,-1.104370,-0.920854,-5.251711,-2.106349,2.500009,1.033582,2.123963,15.767957,-0.101956,0.108449,0.000000,-0.211095,0.506096,0.000000
2.770000,1.239874,0.976133,-1.277329,2.538325,-0.328508,-0.562478,-1.220803,-1.125328,-0.895065,-5.238934,-2.081695,2.659241,1.553551,2.857114,16.060858,-0.104067,0.113549,0.000000,-0.210765,0.508306,0.000000
2.780000,1.265196,0.972792,-1.282998,2.525855,-0.339866,-0.571296,-1.273115,-1.146004,-0.867669,-5.220640,-2.049207,2.821226,2.117134,3.656522,16.313902,-0.106172,0.118671,0.000000,-0.209820,0.510249,0.000000
2.790000,1.290391,0.969336,-1.288755,2.512863,-0.351428,-0.579832,-1.325215,-1.166312,-0.838640,-5.196592,-2.008565,2.985519,2.680929,4.448025,16.524475,-0.108263,0.123813,0.000000,-0.208226,0.511907,0.000000
2.800000,1.315454,0.965763,-1.294595,2.499351,-0.363192,-0.588069,-1.377047,-1.186175,-0.807958,-5.167021,-1.960247,3.151716,3.229970,5.205227,16.702204,-0.110336,0.128971,0.000000,-0.206019,0.513300,0.000000
2.810000,1.340378,0.962072,-1.300516,2.485322,-0.375152,-0.595991,-1.428556,-1.205517,-0.775606,-5.131992,-1.904460,3.319563,3.793938,5.977830,16.842638,-0.112384,0.134142,0.000000,-0.203213,0.514434,0.000000
2.820000,1.365160,0.958260,-1.306515,2.470780,-0.387302,-0.603581,-1.479687,-1.224264,-0.741567,-5.091143,-1.840690,3.488568,4.408646,6.827212,16.910367,-0.114401,0.139325,0.000000,-0.199751,0.515275,0.000000
2.830000,1.389794,0.954326,-1.312588,2.455728,-0.399637,-0.610822,-1.530379,-1.242331,-0.705835,-5.043819,-1.767916,3.657771,5.066033,7.738953,16.899264,-0.116379,0.144516,0.000000,-0.195524,0.515751,-0.000000
2.840000,1.414275,0.950268,-1.318731,2.440172,-0.412149,-0.617698,-1.580563,-1.259622,-0.668412,-4.989822,-1.685911,3.826554,5.717764,8.628780,16.852011,-0.118311,0.149711,0.000000,-0.190497,0.515834,-0.000000
2.850000,1.438597,0.946083,-1.324942,2.424117,-0.424830,-0.624191,-1.630175,-1.276049,-0.629303,-4.929464,-1.595340,3.994811,6.347695,9.469782,16.790012,-0.120189,0.154906,0.000000,-0.184718,0.515550,0.000000
2.860000,1.462757,0.941771,-1.331215,2.407569,-0.437670,-0.630284,-1.679152,-1.291529,-0.588515,-4.862868,-1.496515,4.162354,6.987851,10.316655,16.678456,-0.122006,0.160098,0.000000,-0.178206,0.514905,-0.000000
2.870000,1.486749,0.937330,-1.337547,2.390534,-0.450660,-0.635961,-1.727432,-1.305980,-0.546056,-4.789707,-1.389007,4.328380,7.675237,11.228048,16.455324,-0.123754,0.165282,0.000000,-0.170898,0.513852,-0.000000
2.880000,1.510568,0.932758,-1.343934,2.373020,-0.463790,-0.641205,-1.774947,-1.319309,-0.501948,-4.709363,-1.271954,4.491460,8.400270,12.185757,16.124228,-0.125424,0.170455,0.000000,-0.162685,0.512306,0.000000
2.890000,1.534209,0.928054,-1.350371,2.355035,-0.477046,-0.646000,-1.821620,-1.331419,-0.456227,-4.621702,-1.145292,4.650865,9.111873,13.107602,15.763456,-0.127007,0.175610,0.000000,-0.153534,0.510231,0.000000
2.900000,1.557668,0.923217,-1.356854,2.336588,-0.490418,-0.650329,-1.867381,-1.342215,-0.408931,-4.527126,-1.009802,4.806730,9.793007,13.971055,15.402289,-0.128494,0.180743,0.000000,-0.143501,0.507656,0.000000
2.910000,1.580941,0.918246,-1.363378,2.317688,-0.503891,-0.654178,-1.912162,-1.351615,-0.360093,-4.425842,-0.865871,4.958910,10.476467,14.827295,14.983160,-0.129877,0.185848,0.000000,-0.132600,0.504584,-0.000000
2.920000,1.604022,0.913139,-1.369938,2.298345,-0.517450,-0.657531,-1.955897,-1.359533,-0.309752,-4.317597,-0.713256,5.106393,11.199344,15.719934,14.428062,-0.131146,0.190921,0.000000,-0.120776,0.500962,-0.000000
2.930000,1.626908,0.907897,-1.376529,2.278570,-0.531081,-0.660373,-1.998514,-1.365880,-0.257965,-4.201855,-0.551472,5.247472,11.950547,16.628962,13.748230,-0.132292,0.195955,0.000000,-0.107936,0.496687,-0.000000
2.940000,1.649593,0.902517,-1.383145,2.258374,-0.544768,-0.662691,-2.039934,-1.370562,-0.204803,-4.078586,-0.380677,5.381357,12.677686,17.490888,13.044581,-0.133305,0.200943,0.000000,-0.094061,0.491722,-0.000000
2.950000,1.672075,0.897001,-1.389782,2.237771,-0.558493,-0.664469,-2.080086,-1.373493,-0.150338,-3.948301,-0.201654,5.508363,13.366414,18.293436,12.356443,-0.134173,0.205878,0.000000,-0.079198,0.486095,0.000000
2.960000,1.694349,0.891348,-1.396435,2.216773,-0.572238,-0.665697,-2.118901,-1.374595,-0.094636,-3.811257,-0.014808,5.628486,14.049126,19.073055,11.612558,-0.134888,0.210753,0.000000,-0.063358,0.479806,0.000000
2.970000,1.716411,0.885556,-1.403096,2.195393,-0.585984,-0.666362,-2.156311,-1.373789,-0.037768,-3.667318,0.179807,5.740614,14.752849,19.844607,10.711996,-0.135440,0.215562,0.000000,-0.046501,0.472795,0.000000
2.980000,1.738257,0.879628,-1.409762,2.173646,-0.599713,-0.666453,-2.192247,-1.370999,0.020177,-3.516200,0.382084,5.842726,15.464558,20.589576,9.670842,-0.135817,0.220297,0.000000,-0.028580,0.464961,-0.000000
2.990000,1.759884,0.873562,-1.416425,2.151548,-0.613404,-0.665959,-2.226635,-1.366148,0.079087,-3.358027,0.591598,5.934031,16.144568,21.281820,8.623671,-0.136011,0.224948,0.000000,-0.009591,0.456261,-0.000000
3.000000,1.781288,0.867360,-1.423081,2.129114,-0.627036,-0.664871,-2.259407,-1.359167,0.138857,-3.193309,0.807720,6.015200,16.786216,21.924700,7.619824,-0.136008,0.229507,0.000000,0.010430,0.446724,-0.000000
3.010000,1.802466,0.861021,-1.429723,2.106360,-0.640588,-0.663182,-2.290501,-1.349993,0.199391,-3.022303,1.030092,6.086428,17.411910,22.527802,6.567494,-0.135801,0.233966,0.000000,0.031481,0.436341,-0.000000
3.020000,1.823415,0.854548,-1.436345,2.083304,-0.654036,-0.660883,-2.319853,-1.338565,0.260586,-2.845071,1.258276,6.146549,18.027474,23.065696,5.347976,-0.135378,0.238315,0.000000,0.053569,0.425055,-0.000000
3.030000,1.844132,0.847941,-1.442940,2.059963,-0.667359,-0.657970,-2.347403,-1.324828,0.322322,-2.661754,1.491406,6.193387,18.620949,23.525556,3.986418,-0.134728,0.242545,0.000000,0.076670,0.412783,-0.000000
3.040000,1.864614,0.841201,-1.449504,2.036356,-0.680533,-0.654437,-2.373089,-1.308737,0.384454,-2.472652,1.728787,6.226278,19.180437,23.934648,2.643880,-0.133843,0.246646,0.000000,0.100758,0.399492,0.000000
3.050000,1.884859,0.834330,-1.456029,2.012501,-0.693534,-0.650281,-2.396856,-1.290252,0.446847,-2.278145,1.970099,6.246265,19.709840,24.315295,1.370534,-0.132712,0.250607,0.000000,0.125818,0.385199,0.000000
3.060000,1.904864,0.827330,-1.462510,1.988418,-0.706338,-0.645500,-2.418651,-1.269335,0.509379,-2.078455,2.215093,6.253688,20.211830,24.640329,0.060168,-0.131325,0.254417,0.000000,0.151853,0.369888,0.000000
3.070000,1.924627,0.820203,-1.468939,1.964128,-0.718921,-0.640093,-2.438425,-1.245950,0.571921,-1.873908,2.462906,6.247468,20.665741,24.838523,-1.398583,-0.129673,0.258068,0.000000,0.178816,0.353519,0.000000
3.080000,1.944147,0.812952,-1.475311,1.939650,-0.731257,-0.634061,-2.456130,-1.220077,0.634328,-1.665140,2.711864,6.225717,21.064257,24.907056,-2.971309,-0.127747,0.261547,0.000000,0.206588,0.336056,0.000000
3.090000,1.963420,0.805578,-1.481620,1.915005,-0.743322,-0.627407,-2.471728,-1.191713,0.696435,-1.452623,2.961047,6.188042,21.430534,24.934757,-4.504452,-0.125540,0.264843,0.000000,0.235095,0.317487,0.000000
3.100000,1.982447,0.798085,-1.487860,1.890215,-0.755091,-0.620133,-2.485182,-1.160856,0.758089,-1.236530,3.210559,6.135628,21.780060,24.962607,-5.958357,-0.123043,0.267946,0.000000,0.264347,0.297812,0.000000
3.110000,2.001225,0.790476,-1.494023,1.865302,-0.766539,-0.612245,-2.496458,-1.127502,0.819148,-1.017022,3.460299,6.068875,22.091583,24.922601,-7.429973,-0.120251,0.270844,0.000000,0.294339,0.277016,0.000000
3.120000,2.019753,0.782755,-1.500105,1.840286,-0.777641,-0.603750,-2.505523,-1.091650,0.879467,-0.794698,3.709011,5.987028,22.316797,24.701564,-8.997385,-0.117155,0.273525,0.000000,0.324957,0.255094,-0.000000
3.130000,2.038030,0.774923,-1.506098,1.815191,-0.788372,-0.594655,-2.512352,-1.053322,0.938888,-0.570686,3.954330,5.888927,22.455254,24.309787,-10.623499,-0.113750,0.275979,0.000000,0.355960,0.232087,-0.000000
3.140000,2.056057,0.766987,-1.511998,1.790039,-0.798708,-0.584972,-2.516936,-1.012563,0.997245,-0.345593,4.195207,5.774558,22.567355,23.893465,-12.196578,-0.110034,0.278195,0.000000,0.387221,0.208019,0.000000
3.150000,2.073831,0.758949,-1.517797,1.764853,-0.808623,-0.574711,-2.519264,-0.969417,1.054380,-0.119339,4.432200,5.644996,22.678934,23.507777,-13.697399,-0.106004,0.280163,0.000000,0.418764,0.182880,-0.000000
3.160000,2.091354,0.750815,-1.523492,1.739654,-0.818096,-0.563884,-2.519323,-0.923919,1.110145,0.107986,4.665362,5.500610,22.744155,23.048342,-15.190799,-0.101657,0.281872,0.000000,0.450562,0.156662,0.000000
3.170000,2.108624,0.742587,-1.529075,1.714466,-0.827102,-0.552508,-2.517104,-0.876110,1.164392,0.335544,4.893166,5.341180,22.692009,22.373993,-16.698849,-0.096991,0.283311,0.000000,0.482417,0.129421,-0.000000
3.180000,2.125643,0.734273,-1.534542,1.689312,-0.835618,-0.540597,-2.512612,-0.826056,1.216969,0.561826,5.112842,5.166633,22.530297,21.508922,-18.189095,-0.092007,0.284471,0.000000,0.513978,0.101299,0.000000
3.190000,2.142411,0.725875,-1.539887,1.664214,-0.843623,-0.528168,-2.505868,-0.773853,1.267724,0.786150,5.323345,4.977398,22.350649,20.639015,-19.622445,-0.086710,0.285344,0.000000,0.545061,0.072373,-0.000000
3.200000,2.158927,0.717400,-1.545105,1.639194,-0.851095,-0.515242,-2.496889,-0.719589,1.316517,1.008839,5.525622,4.774185,22.186035,19.825236,-21.007195,-0.081105,0.285922,0.000000,0.575689,0.042630,-0.000000
3.210000,2.175194,0.708853,-1.550192,1.614276,-0.858015,-0.501838,-2.485691,-0.663341,1.363208,1.229871,5.719850,4.557254,21.971147,18.940185,-22.356396,-0.075195,0.286197,0.000000,0.605802,0.012084,0.000000
3.220000,2.191213,0.700240,-1.555142,1.589481,-0.864362,-0.487978,-2.472292,-0.605192,1.407662,1.448262,5.904426,4.327057,21.621903,17.837463,-23.622028,-0.068988,0.286163,0.000000,0.635129,-0.019131,-0.000000
3.230000,2.206984,0.691566,-1.559951,1.564830,-0.870119,-0.473685,-2.456726,-0.545252,1.449749,1.662309,6.076599,4.084813,21.153757,16.554083,-24.783579,-0.062492,0.285812,0.000000,0.663252,-0.050765,-0.000000
3.240000,2.222509,0.682837,-1.564616,1.540346,-0.875267,-0.458983,-2.439046,-0.483660,1.489358,1.871337,6.235508,3.831385,20.677148,15.285796,-25.894543,-0.055723,0.285144,0.000000,0.689956,-0.082681,0.000000
3.250000,2.237791,0.674061,-1.569131,1.516049,-0.879792,-0.443898,-2.419299,-0.420542,1.526377,2.075852,6.382315,3.566922,20.228676,14.080723,-26.994618,-0.048694,0.284155,0.000000,0.715257,-0.114889,-0.000000
3.260000,2.252830,0.665242,-1.573494,1.491960,-0.883678,-0.428455,-2.397528,-0.356014,1.560696,2.275911,6.517122,3.291493,19.732645,12.810135,-28.033400,-0.041418,0.282842,0.000000,0.739049,-0.147344,-0.000000
3.270000,2.267630,0.656387,-1.577700,1.468099,-0.886912,-0.412684,-2.373781,-0.290200,1.592207,2.470505,6.638517,3.006254,19.100526,11.371898,-28.887322,-0.033914,0.281204,0.000000,0.761042,-0.179840,0.000000
3.280000,2.282192,0.647503,-1.581747,1.444485,-0.889482,-0.396611,-2.348118,-0.223244,1.620821,2.657921,6.744560,2.713746,18.354459,9.807585,-29.554537,-0.026199,0.279242,0.000000,0.780878,-0.212035,-0.000000
3.290000,2.296520,0.638597,-1.585632,1.421136,-0.891377,-0.380267,-2.320622,-0.155309,1.646482,2.837594,6.834669,2.415164,17.612843,8.256804,-30.189776,-0.018298,0.276961,0.000000,0.798366,-0.243753,0.000000
3.300000,2.310615,0.629676,-1.589353,1.398072,-0.892588,-0.363682,-2.291367,-0.086550,1.669125,3.010178,6.909696,2.109951,16.903031,6.766678,-30.855735,-0.010234,0.274366,0.000000,0.813490,-0.275009,0.000000
3.310000,2.324481,0.620746,-1.592906,1.375309,-0.893108,-0.346885,-2.260419,-0.017115,1.688681,3.175655,6.970003,1.798049,16.147263,5.249564,-31.435651,-0.002030,0.271461,0.000000,0.826181,-0.305720,-0.000000
3.320000,2.338121,0.611814,-1.596290,1.352864,-0.892930,-0.329908,-2.227853,0.052850,1.705086,3.333123,7.014687,1.481238,15.289033,3.600345,-31.759054,0.006287,0.268252,0.000000,0.836228,-0.335644,-0.000000
3.330000,2.351539,0.602887,-1.599504,1.330752,-0.892051,-0.312783,-2.193756,0.123179,1.718306,3.481435,7.042010,1.162868,14.355088,1.853521,-31.846501,0.014691,0.264748,0.000000,0.843336,-0.364456,0.000000
3.340000,2.364736,0.593973,-1.602546,1.308989,-0.890467,-0.295542,-2.158225,0.193690,1.728343,3.620225,7.051758,0.844308,13.422120,0.159256,-31.916622,0.023151,0.260962,0.000000,0.847410,-0.391988,-0.000000
3.350000,2.377718,0.585078,-1.605415,1.287587,-0.888177,-0.278216,-2.121352,0.264214,1.735192,3.749878,7.045195,0.524535,12.506822,-1.468502,-32.050216,0.031636,0.256907,0.000000,0.848541,-0.418237,0.000000
3.360000,2.390488,0.576209,-1.608110,1.266562,-0.885183,-0.260838,-2.083227,0.334594,1.738834,3.870361,7.022388,0.203303,11.562147,-3.119240,-32.091199,0.040118,0.252594,0.000000,0.846691,-0.443127,-0.000000
3.370000,2.403050,0.567374,-1.610632,1.245923,-0.881485,-0.243439,-2.043945,0.404662,1.739258,3.981121,6.982810,-0.117289,10.556385,-4.788063,-31.830978,0.048567,0.248039,0.000000,0.841775,-0.466455,-0.000000
3.380000,2.415407,0.558579,-1.612979,1.225683,-0.877089,-0.226053,-2.003605,0.474250,1.736488,4.081489,6.926627,-0.433316,9.506865,-6.429572,-31.308369,0.056950,0.243256,0.000000,0.833831,-0.487966,0.000000
3.390000,2.427563,0.549832,-1.615153,1.205851,-0.872000,-0.208710,-1.962315,0.543194,1.730591,4.171258,6.854218,-0.743456,8.460975,-8.043998,-30.796957,0.065240,0.238265,0.000000,0.822936,-0.507546,0.000000
3.400000,2.439524,0.541139,-1.617153,1.186436,-0.866225,-0.191441,-1.920180,0.611334,1.721619,4.250709,6.765747,-1.049255,7.439820,-9.664527,-30.367302,0.073406,0.233085,0.000000,0.809136,-0.525230,-0.000000
3.410000,2.451292,0.532508,-1.618982,1.167447,-0.859774,-0.174277,-1.877301,0.678509,1.709606,4.320054,6.660928,-1.350802,6.416610,-11.275202,-29.833133,0.081419,0.227734,0.000000,0.792447,-0.541009,-0.000000
3.420000,2.462873,0.523944,-1.620639,1.148890,-0.852655,-0.157249,-1.833778,0.744553,1.694603,4.379041,6.540243,-1.645918,5.347324,-12.767806,-29.033408,0.089252,0.222231,0.000000,0.773009,-0.554769,0.000000
3.430000,2.474270,0.515455,-1.622127,1.130772,-0.844883,-0.140385,-1.789720,0.809314,1.676688,4.427001,6.405572,-1.931470,4.248209,-14.131872,-28.024181,0.096877,0.216596,0.000000,0.751166,-0.566341,-0.000000
3.440000,2.485488,0.507046,-1.623447,1.113096,-0.836469,-0.123715,-1.745238,0.872664,1.655973,4.464005,6.257605,-2.206402,3.185441,-15.501111,-27.017495,0.104273,0.210853,0.000000,0.727113,-0.575714,-0.000000
3.450000,2.496532,0.498725,-1.624601,1.095867,-0.827429,-0.107266,-1.700440,0.934466,1.632560,4.490710,6.095550,-2.471820,2.142330,-16.907931,-26.072559,0.111417,0.205021,0.000000,0.700856,-0.583010,-0.000000
3.460000,2.507405,0.490498,-1.625592,1.079087,-0.817780,-0.091064,-1.655424,0.994575,1.606537,4.506852,5.919446,-2.727853,1.083413,-18.249891,-25.050493,0.118288,0.199122,0.000000,0.672511,-0.588225,0.000000
3.470000,2.518113,0.482370,-1.626422,1.062758,-0.807538,-0.075135,-1.610303,1.052855,1.578003,4.512378,5.730552,-2.972830,0.082726,-19.440327,-23.815000,0.124866,0.193176,0.000000,0.642367,-0.591348,-0.000000
3.480000,2.528660,0.474347,-1.627095,1.046881,-0.796723,-0.059504,-1.565177,1.109187,1.547080,4.508506,5.530640,-3.204153,-0.837932,-20.497571,-22.412985,0.131134,0.187204,0.000000,0.610800,-0.592509,0.000000
3.490000,2.539051,0.466435,-1.627612,1.031455,-0.785354,-0.044193,-1.520133,1.163468,1.513920,4.495619,5.320600,-3.421090,-1.775077,-21.522071,-21.031695,0.137081,0.181225,0.000000,0.578051,-0.591796,-0.000000
3.500000,2.549290,0.458640,-1.627979,1.016478,-0.773453,-0.029225,-1.475264,1.215599,1.478659,4.473005,5.100199,-3.624787,-2.746349,-22.570560,-19.708588,0.142695,0.175257,0.000000,0.544195,-0.589215,-0.000000
3.510000,2.559381,0.450966,-1.628197,1.001950,-0.761042,-0.014620,-1.430672,1.265472,1.441424,4.440692,4.869189,-3.815261,-3.678964,-23.564343,-18.326786,0.147965,0.169321,0.000000,0.509319,-0.584836,0.000000
3.520000,2.569329,0.443419,-1.628271,0.987865,-0.748144,-0.000397,-1.386450,1.312982,1.402353,4.399425,4.628912,-3.991322,-4.536018,-24.332122,-16.822174,0.152882,0.163433,0.000000,0.473709,-0.578793,0.000000
3.530000,2.579138,0.436003,-1.628205,0.974221,-0.734782,0.013427,-1.342684,1.358050,1.361598,4.349972,4.382547,-4.151705,-5.335463,-24.882534,-15.242909,0.157440,0.157609,0.000000,0.437856,-0.571225,-0.000000
3.540000,2.588813,0.428723,-1.628002,0.961011,-0.720983,0.026835,-1.299451,1.400633,1.319319,4.292716,4.131261,-4.296181,-6.114776,-25.439192,-13.682058,0.161640,0.151866,0.000000,0.401985,-0.562249,0.000000
3.550000,2.598358,0.421584,-1.627668,0.948232,-0.706770,0.039813,-1.256830,1.440676,1.275674,4.227676,3.873763,-4.425346,-6.886392,-26.077015,-12.143352,0.165481,0.146217,0.000000,0.366015,-0.551956,0.000000
3.560000,2.607778,0.414588,-1.627206,0.935875,-0.692169,0.052348,-1.214898,1.478108,1.230812,4.154988,3.609721,-4.539048,-7.619747,-26.637119,-10.578041,0.168962,0.140675,0.000000,0.329984,-0.540432,-0.000000
3.570000,2.617076,0.407740,-1.626621,0.923934,-0.677208,0.064429,-1.173730,1.512870,1.184893,4.075282,3.341020,-4.636907,-8.266635,-26.935303,-9.006170,0.172082,0.135252,0.000000,0.294171,-0.527816,0.000000
3.580000,2.626256,0.401044,-1.625918,0.912400,-0.661912,0.076046,-1.133392,1.544929,1.138074,3.989656,3.071015,-4.719171,-8.822977,-27.015127,-7.459550,0.174847,0.129960,0.000000,0.258991,-0.514305,-0.000000
3.590000,2.635324,0.394502,-1.625100,0.901266,-0.646309,0.087191,-1.093937,1.574290,1.090510,3.898822,2.800718,-4.786098,-9.349199,-27.115848,-5.922265,0.177264,0.124807,0.000000,0.224582,-0.500046,-0.000000
3.600000,2.644282,0.388118,-1.624174,0.890521,-0.630426,0.097856,-1.055415,1.600943,1.042352,3.802672,2.528698,-4.837616,-9.918310,-27.285158,-4.366114,0.179340,0.119800,0.000000,0.190806,-0.485084,0.000000
3.610000,2.653134,0.381893,-1.623143,0.880157,-0.614290,0.108038,-1.017883,1.624864,0.993757,3.700456,2.255015,-4.873420,-10.480583,-27.361538,-2.817564,0.181082,0.114947,0.000000,0.157686,-0.469389,0.000000
3.620000,2.661885,0.375832,-1.622013,0.870164,-0.597929,0.117732,-0.981406,1.646044,0.944884,3.593060,1.981467,-4.893968,-10.827119,-27.241715,-1.374478,0.182496,0.110255,0.000000,0.125418,-0.453119,0.000000
3.630000,2.670537,0.369935,-1.620788,0.860529,-0.581369,0.126936,-0.946022,1.664494,0.895878,3.483913,1.710180,-4.900910,-10.960927,-26.978094,-0.050109,0.183592,0.105730,0.000000,0.094198,-0.436711,-0.000000
3.640000,2.679095,0.364204,-1.619474,0.851243,-0.564639,0.135649,-0.911728,1.680247,0.846866,3.373841,1.441905,-4.894970,-11.164739,-26.703452,1.274634,0.184381,0.101371,0.000000,0.064075,-0.420294,0.000000
3.650000,2.687562,0.358642,-1.618075,0.842295,-0.547764,0.143873,-0.878545,1.693332,0.797979,3.260619,1.176111,-4.875417,-11.502392,-26.444839,2.675831,0.184875,0.097179,0.000000,0.034981,-0.403646,-0.000000
3.660000,2.695941,0.353249,-1.616597,0.833672,-0.530772,0.151609,-0.846516,1.703769,0.749357,3.143794,0.913008,-4.841453,-11.780515,-26.117347,4.056810,0.185083,0.093157,0.000000,0.006927,-0.386740,-0.000000
3.670000,2.704236,0.348027,-1.615043,0.825364,-0.513689,0.158860,-0.815669,1.711592,0.701149,3.025008,0.653764,-4.794281,-11.873675,-25.660143,5.198870,0.185015,0.089309,0.000000,-0.020013,-0.369790,-0.000000
3.680000,2.712449,0.342975,-1.613420,0.817359,-0.496540,0.165632,-0.786016,1.716845,0.653472,2.906320,0.399805,-4.737476,-11.849032,-25.105058,6.114849,0.184684,0.085632,0.000000,-0.045793,-0.353063,0.000000
3.690000,2.720583,0.338096,-1.611731,0.809644,-0.479352,0.171930,-0.757543,1.719588,0.606400,2.788028,0.151663,-4.671984,-11.865480,-24.536172,7.087847,0.184100,0.082124,0.000000,-0.070412,-0.336605,-0.000000
3.700000,2.728641,0.333388,-1.609981,0.802208,-0.462149,0.177760,-0.730255,1.719878,0.560032,2.669010,-0.090918,-4.595719,-11.918366,-23.961013,8.183704,0.183277,0.078783,0.000000,-0.093898,-0.320281,0.000000
3.710000,2.736627,0.328853,-1.608175,0.795039,-0.444954,0.183130,-0.704163,1.717770,0.514486,2.549660,-0.327557,-4.508310,-11.908122,-23.330270,9.202171,0.182223,0.075609,0.000000,-0.116243,-0.304134,-0.000000
3.720000,2.744542,0.324489,-1.606318,0.788125,-0.427793,0.188049,-0.679262,1.713327,0.469866,2.430848,-0.557523,-4.411675,-11.867139,-22.643449,9.991399,0.180953,0.072597,0.000000,-0.137450,-0.288274,0.000000
3.730000,2.752389,0.320297,-1.604414,0.781454,-0.410688,0.192527,-0.655546,1.706619,0.426252,2.312318,-0.780426,-4.308482,-11.840941,-21.926027,10.609317,0.179475,0.069746,0.000000,-0.157568,-0.272689,-0.000000
3.740000,2.760171,0.316275,-1.602468,0.775014,-0.393661,0.196574,-0.633015,1.697718,0.383696,2.194029,-0.996044,-4.199489,-11.781444,-21.183051,11.243624,0.177802,0.067053,0.000000,-0.176627,-0.257372,-0.000000
3.750000,2.767890,0.312424,-1.600483,0.768794,-0.376734,0.200201,-0.611665,1.686698,0.342262,2.076689,-1.204087,-4.083609,-11.641242,-20.395871,11.930684,0.175943,0.064516,0.000000,-0.194615,-0.242381,-0.000000
3.760000,2.775547,0.308741,-1.598464,0.762781,-0.359927,0.203420,-0.591482,1.673637,0.302024,1.961204,-1.403961,-3.960875,-11.462375,-19.570474,12.542164,0.173910,0.062129,0.000000,-0.211508,-0.227801,-0.000000
3.770000,2.783145,0.305225,-1.596415,0.756964,-0.343261,0.206242,-0.572441,1.658619,0.263045,1.847441,-1.595496,-3.832766,-11.367506,-18.770068,12.984743,0.171713,0.059889,0.000000,-0.227352,-0.213615,0.000000
3.780000,2.790686,0.301876,-1.594339,0.751332,-0.326755,0.208681,-0.554533,1.641727,0.225369,1.733854,-1.779363,-3.701181,-11.351892,-18.003321,13.297134,0.169363,0.057792,0.000000,-0.242282,-0.199665,0.000000
3.790000,2.798172,0.298690,-1.592241,0.745873,-0.310426,0.210749,-0.537764,1.623032,0.189021,1.620403,-1.955563,-3.566823,-11.254762,-17.191877,13.597617,0.166868,0.055837,0.000000,-0.256340,-0.185938,0.000000
3.800000,2.805604,0.295667,-1.590124,0.740577,-0.294294,0.212461,-0.522125,1.602615,0.154032,1.508759,-2.123200,-3.429228,-11.046116,-16.308002,13.913225,0.164237,0.054020,0.000000,-0.269453,-0.172589,-0.000000
3.810000,2.812984,0.292804,-1.587992,0.735431,-0.278374,0.213830,-0.507589,1.580568,0.120437,1.399481,-2.281723,-3.288559,-10.838385,-15.412668,14.165335,0.161479,0.052337,0.000000,-0.281593,-0.159662,0.000000
3.820000,2.820313,0.290100,-1.585847,0.730425,-0.262683,0.214870,-0.494135,1.556981,0.088261,1.291991,-2.431454,-3.145922,-10.692716,-14.581730,14.288177,0.158605,0.050784,0.000000,-0.292838,-0.147090,0.000000
3.830000,2.827592,0.287551,-1.583694,0.725548,-0.247234,0.215595,-0.481749,1.531939,0.057518,1.185627,-2.573358,-3.002795,-10.572814,-13.803054,14.307521,0.155622,0.049357,0.000000,-0.303329,-0.134799,0.000000
3.840000,2.834823,0.285155,-1.581536,0.720790,-0.232044,0.216020,-0.470423,1.505514,0.028205,1.080535,-2.707515,-2.859771,-10.406397,-12.983838,14.310996,0.152538,0.048055,0.000000,-0.313098,-0.122794,-0.000000
3.850000,2.842008,0.282910,-1.579374,0.716140,-0.217124,0.216159,-0.460138,1.477788,0.000323,0.977499,-2.833034,-2.716575,-10.193201,-12.102404,14.314854,0.149360,0.046872,0.000000,-0.322069,-0.111138,-0.000000
3.860000,2.849146,0.280812,-1.577212,0.711587,-0.202488,0.216027,-0.450873,1.448853,-0.026126,0.876671,-2.949563,-2.573474,-9.981138,-11.226504,14.263502,0.146096,0.045806,0.000000,-0.330224,-0.099834,0.000000
3.870000,2.856240,0.278860,-1.575053,0.707122,-0.188147,0.215637,-0.442605,1.418797,-0.051147,0.777876,-3.057564,-2.431305,-9.771245,-10.414933,14.126476,0.142755,0.044854,0.000000,-0.337633,-0.088855,-0.000000
3.880000,2.863289,0.277049,-1.572900,0.702735,-0.174112,0.215004,-0.435315,1.387702,-0.074752,0.681246,-3.157861,-2.290945,-9.545049,-9.649253,13.924843,0.139343,0.044011,0.000000,-0.344402,-0.078207,-0.000000
3.890000,2.870294,0.275378,-1.570753,0.698416,-0.160393,0.214142,-0.428980,1.355640,-0.096966,0.586975,-3.250549,-2.152808,-9.305923,-8.858863,13.701534,0.135867,0.043274,0.000000,-0.350550,-0.067898,0.000000
3.900000,2.877257,0.273842,-1.568617,0.694155,-0.146999,0.213064,-0.423576,1.322691,-0.117809,0.495128,-3.335039,-2.016914,-9.070203,-8.037773,13.464455,0.132332,0.042640,0.000000,-0.356026,-0.057923,-0.000000
3.910000,2.884177,0.272438,-1.566492,0.689944,-0.133939,0.211785,-0.419078,1.288939,-0.137304,0.405571,-3.411305,-1.883519,-8.833994,-7.235848,13.189632,0.128746,0.042105,0.000000,-0.360834,-0.048260,-0.000000
3.920000,2.891056,0.271163,-1.564381,0.685774,-0.121220,0.210318,-0.415464,1.254465,-0.155479,0.318448,-3.479756,-1.753121,-8.557666,-6.469159,12.866209,0.125115,0.041666,0.000000,-0.365024,-0.038914,-0.000000
3.930000,2.897893,0.270013,-1.562286,0.681635,-0.108850,0.208676,-0.412709,1.219344,-0.172366,0.234418,-3.540688,-1.626195,-8.240532,-5.722871,12.507156,0.121445,0.041320,0.000000,-0.368631,-0.029945,-0.000000
3.940000,2.904689,0.268986,-1.560208,0.677520,-0.096834,0.206871,-0.410776,1.183651,-0.188003,0.153637,-3.594213,-1.502978,-7.937356,-4.982096,12.131870,0.117742,0.041063,0.000000,-0.371667,-0.021358,-0.000000
3.950000,2.911443,0.268077,-1.558148,0.673419,-0.085177,0.204916,-0.409636,1.147460,-0.202426,0.075671,-3.640330,-1.383558,-7.659565,-4.246025,11.735806,0.114011,0.040890,0.000000,-0.374133,-0.013103,0.000000
3.960000,2.918157,0.267282,-1.556109,0.669327,-0.073884,0.202822,-0.409262,1.110844,-0.215674,0.000446,-3.679134,-1.268262,-7.370367,-3.526160,11.311988,0.110259,0.040799,0.000000,-0.376038,-0.005168,-0.000000
3.970000,2.924830,0.266599,-1.554092,0.665234,-0.062960,0.200602,-0.409627,1.073877,-0.227791,-0.071737,-3.710853,-1.157318,-7.050193,-2.832315,10.885622,0.106490,0.040786,0.000000,-0.377404,0.002424,-0.000000
3.980000,2.931462,0.266023,-1.552097,0.661134,-0.052407,0.198267,-0.410697,1.036627,-0.238820,-0.140558,-3.735780,-1.050550,-6.713296,-2.163699,10.466050,0.102710,0.040847,0.000000,-0.378251,0.009647,0.000000
3.990000,2.938052,0.265551,-1.550127,0.657020,-0.042227,0.195826,-0.412438,0.999161,-0.248802,-0.206003,-3.754127,-0.947997,-6.384528,-1.509661,10.024336,0.098925,0.040980,0.000000,-0.378597,0.016507,-0.000000
4.000000,2.944602,0.265179,-1.548181,0.652886,-0.032424,0.193291,-0.414817,0.961545,-0.257780,-0.268249,-3.765973,-0.850063,-6.056414,-0.859257,9.545479,0.095138,0.041179,0.000000,-0.378447,0.023022,0.000000
4.010000,2.951110,0.264902,-1.546261,0.648724,-0.022997,0.190670,-0.417803,0.923842,-0.265803,-0.327131,-3.771312,-0.757087,-5.714670,-0.221980,9.055237,0.091355,0.041442,0.000000,-0.377797,0.029179,0.000000
4.020000,2.957577,0.264719,-1.544367,0.644530,-0.013947,0.187975,-0.421360,0.886118,-0.272922,-0.382542,-3.770413,-0.668958,-5.384194,0.368212,8.599684,0.087582,0.041765,0.000000,-0.376665,0.034971,0.000000
4.030000,2.964001,0.264623,-1.542501,0.640297,-0.005274,0.185212,-0.425454,0.848434,-0.279183,-0.434815,-3.763948,-0.585094,-5.072043,0.911445,8.176923,0.083822,0.042144,0.000000,-0.375105,0.040437,0.000000
4.040000,2.970382,0.264613,-1.540663,0.636020,0.003022,0.182391,-0.430056,0.810840,-0.284624,-0.483983,-3.752184,-0.505420,-4.744367,1.452326,7.731225,0.080079,0.042577,0.000000,-0.373136,0.045582,0.000000
4.050000,2.976721,0.264684,-1.538853,0.631696,0.010943,0.179519,-0.435134,0.773390,-0.289291,-0.529702,-3.734902,-0.430469,-4.396762,2.001441,7.245969,0.076359,0.043059,0.000000,-0.370733,0.050372,0.000000
4.060000,2.983016,0.264832,-1.537073,0.627318,0.018490,0.176605,-0.440650,0.736141,-0.293233,-0.571918,-3.712155,-0.360500,-4.053532,2.527267,6.763659,0.072665,0.043587,0.000000,-0.367896,0.054802,-0.000000
4.070000,2.989268,0.265054,-1.535321,0.622883,0.025665,0.173655,-0.446572,0.699147,-0.296501,-0.610773,-3.684356,-0.295196,-3.720101,3.006323,6.331409,0.069001,0.044158,0.000000,-0.364655,0.058887,-0.000000
4.080000,2.995474,0.265345,-1.533600,0.618386,0.032473,0.170675,-0.452866,0.662454,-0.299137,-0.646320,-3.652028,-0.233872,-3.388827,3.448178,5.940201,0.065371,0.044768,0.000000,-0.361049,0.062638,-0.000000
4.090000,3.001635,0.265703,-1.531908,0.613825,0.038915,0.167672,-0.459498,0.626106,-0.301178,-0.678549,-3.615393,-0.176392,-3.055709,3.881832,5.532912,0.061780,0.045413,0.000000,-0.357094,0.066053,0.000000
4.100000,3.007751,0.266124,-1.530246,0.609196,0.044995,0.164651,-0.466437,0.590147,-0.302665,-0.707434,-3.574392,-0.123214,-2.722125,4.310418,5.095985,0.058229,0.046091,0.000000,-0.352779,0.069129,-0.000000
4.110000,3.013819,0.266603,-1.528615,0.604497,0.050717,0.161619,-0.473647,0.554619,-0.303643,-0.732992,-3.529184,-0.074472,-2.391260,4.714390,4.671219,0.054724,0.046798,0.000000,-0.348114,0.071865,0.000000
4.120000,3.019840,0.267138,-1.527014,0.599723,0.056087,0.158579,-0.481096,0.519563,-0.304155,-0.755260,-3.480104,-0.029789,-2.063302,5.086585,4.296430,0.051267,0.047531,0.000000,-0.343123,0.074267,-0.000000
4.130000,3.025814,0.267725,-1.525443,0.594875,0.061109,0.155536,-0.488752,0.485016,-0.304238,-0.774258,-3.427453,0.011456,-1.737791,5.433512,3.961609,0.047861,0.048286,0.000000,-0.337827,0.076340,-0.000000
4.140000,3.031738,0.268360,-1.523903,0.589948,0.065787,0.152494,-0.496582,0.451014,-0.303925,-0.790015,-3.371434,0.049443,-1.415861,5.763414,3.620834,0.044510,0.049059,0.000000,-0.332239,0.078086,-0.000000
4.150000,3.037613,0.269041,-1.522393,0.584943,0.070129,0.149457,-0.504552,0.417588,-0.303250,-0.802575,-3.312184,0.083873,-1.098052,6.077027,3.261035,0.041217,0.049849,0.000000,-0.326369,0.079507,-0.000000
4.160000,3.043437,0.269763,-1.520914,0.579857,0.074139,0.146429,-0.512633,0.384770,-0.302248,-0.811976,-3.249893,0.114663,-0.784333,6.369131,2.915350,0.037983,0.050651,0.000000,-0.320232,0.080606,-0.000000
4.170000,3.049210,0.270523,-1.519465,0.574690,0.077824,0.143412,-0.520792,0.352590,-0.300956,-0.818262,-3.184802,0.142180,-0.475534,6.637132,2.620400,0.034812,0.051462,0.000000,-0.313844,0.081387,-0.000000
4.180000,3.054931,0.271319,-1.518046,0.569442,0.081191,0.140410,-0.528998,0.321074,-0.299404,-0.821487,-3.117151,0.167071,-0.172381,6.882424,2.368189,0.031706,0.052280,0.000000,-0.307223,0.081859,-0.000000
4.190000,3.060599,0.272147,-1.516657,0.564110,0.084246,0.137424,-0.537222,0.290247,-0.297615,-0.821709,-3.047153,0.189544,0.125226,7.108599,2.112361,0.028667,0.053100,0.000000,-0.300386,0.082027,-0.000000
4.200000,3.066213,0.273004,-1.515297,0.558697,0.086996,0.134457,-0.545433,0.260131,-0.295613,-0.818983,-2.974979,0.209319,0.417458,7.319746,1.840420,0.025698,0.053921,0.000000,-0.293348,0.081895,-0.000000
4.210000,3.071773,0.273887,-1.513967,0.553202,0.089448,0.131512,-0.553601,0.230747,-0.293429,-0.813360,-2.900758,0.226352,0.703445,7.513496,1.584790,0.022800,0.054739,0.000000,-0.286118,0.081465,0.000000
4.220000,3.077277,0.274793,-1.512667,0.547625,0.091611,0.128589,-0.561700,0.202116,-0.291086,-0.804914,-2.824709,0.241014,0.981025,7.678778,1.377075,0.019976,0.055551,0.000000,-0.278714,0.080747,-0.000000
4.230000,3.082725,0.275719,-1.511396,0.541968,0.093491,0.125690,-0.569700,0.174253,-0.288608,-0.793740,-2.747183,0.253894,1.249713,7.815963,1.207988,0.017226,0.056354,0.000000,-0.271168,0.079752,0.000000
4.240000,3.088116,0.276663,-1.510153,0.536231,0.095096,0.122817,-0.577575,0.147172,-0.286009,-0.779919,-2.668389,0.265174,1.511420,7.940766,1.036911,0.014552,0.057146,0.000000,-0.263497,0.078488,0.000000
4.250000,3.093450,0.277621,-1.508939,0.530416,0.096434,0.119970,-0.585298,0.120885,-0.283305,-0.763511,-2.588367,0.274632,1.766554,8.057494,0.856122,0.011956,0.057924,0.000000,-0.255705,0.076959,0.000000
4.260000,3.098725,0.278592,-1.507754,0.524525,0.097514,0.117151,-0.592845,0.095405,-0.280516,-0.744588,-2.507240,0.282297,2.013021,8.155860,0.692942,0.009438,0.058685,0.000000,-0.247803,0.075172,0.000000
4.270000,3.103940,0.279571,-1.506596,0.518559,0.098342,0.114360,-0.600190,0.070741,-0.277659,-0.723251,-2.425250,0.288491,2.248449,8.227793,0.564465,0.007000,0.059427,0.000000,-0.239812,0.073137,0.000000
4.280000,3.109096,0.280558,-1.505467,0.512521,0.098928,0.111597,-0.607310,0.046900,-0.274746,-0.699619,-2.342684,0.293586,2.472568,8.277139,0.461668,0.004642,0.060148,0.000000,-0.231759,0.070869,0.000000
4.290000,3.114191,0.281550,-1.504364,0.506413,0.099280,0.108865,-0.614182,0.023887,-0.271787,-0.673800,-2.259707,0.297724,2.687578,8.315013,0.362605,0.002365,0.060845,0.000000,-0.223662,0.068378,0.000000
4.300000,3.119224,0.282544,-1.503289,0.500238,0.099406,0.106162,-0.620786,0.001706,-0.268792,-0.645868,-2.176383,0.300838,2.895796,8.342276,0.263651,0.000169,0.061516,0.000000,-0.215524,0.065671,0.000000
4.310000,3.124195,0.283538,-1.502241,0.493997,0.099314,0.103489,-0.627100,-0.019641,-0.265770,-0.615884,-2.092862,0.302997,3.094856,8.352321,0.178721,-0.001946,0.062158,0.000000,-0.207361,0.062754,-0.000000
4.320000,3.129104,0.284530,-1.501219,0.487696,0.099013,0.100846,-0.633103,-0.040152,-0.262732,-0.583971,-2.009337,0.304413,3.276866,8.345369,0.115446,-0.003978,0.062771,0.000000,-0.199192,0.059639,-0.000000
4.330000,3.133949,0.285518,-1.500224,0.481335,0.098511,0.098234,-0.638779,-0.059828,-0.259682,-0.550346,-1.925954,0.305306,3.441552,8.324130,0.068710,-0.005929,0.063351,0.000000,-0.191031,0.056349,-0.000000
4.340000,3.138731,0.286501,-1.499255,0.474920,0.097817,0.095653,-0.644110,-0.078671,-0.256626,-0.515140,-1.842854,0.305787,3.598831,8.288911,0.027865,-0.007799,0.063898,0.000000,-0.182892,0.052898,0.000000
4.350000,3.143448,0.287475,-1.498311,0.468453,0.096938,0.093102,-0.649082,-0.096685,-0.253566,-0.478370,-1.760176,0.305863,3.751621,8.241811,-0.009584,-0.009587,0.064409,0.000000,-0.174788,0.049288,-0.000000
4.360000,3.148100,0.288439,-1.497393,0.461938,0.095883,0.090581,-0.653678,-0.113874,-0.250508,-0.440107,-1.678018,0.305595,3.892495,8.183421,-0.037563,-0.011295,0.064883,0.000000,-0.166730,0.045525,-0.000000
4.370000,3.152686,0.289392,-1.496499,0.455380,0.094661,0.088091,-0.657884,-0.130245,-0.247454,-0.400520,-1.596508,0.305112,4.013881,8.108636,-0.051671,-0.012922,0.065320,0.000000,-0.158731,0.041626,0.000000
4.380000,3.157207,0.290332,-1.495631,0.448781,0.093278,0.085632,-0.661688,-0.145804,-0.244406,-0.359830,-1.515846,0.304562,4.117360,8.017757,-0.055066,-0.014469,0.065716,0.000000,-0.150810,0.037615,-0.000000
4.390000,3.161662,0.291258,-1.494787,0.442146,0.091744,0.083203,-0.665081,-0.160562,-0.241363,-0.318173,-1.436153,0.304011,4.212226,7.919123,-0.054803,-0.015938,0.066072,0.000000,-0.142980,0.033505,0.000000
4.400000,3.166050,0.292167,-1.493967,0.435479,0.090067,0.080805,-0.668052,-0.174527,-0.238326,-0.275585,-1.357463,0.303466,4.301847,7.814054,-0.049876,-0.017329,0.066386,0.000000,-0.135245,0.029300,0.000000
4.410000,3.170372,0.293059,-1.493171,0.428785,0.088254,0.078437,-0.670592,-0.187711,-0.235294,-0.232136,-1.279872,0.303013,4.379433,7.697860,-0.036994,-0.018643,0.066658,0.000000,-0.127614,0.025007,-0.000000
4.420000,3.174626,0.293932,-1.492398,0.422067,0.086313,0.076099,-0.672694,-0.200125,-0.232266,-0.187996,-1.203506,0.302726,4.435669,7.570736,-0.022430,-0.019881,0.066886,0.000000,-0.120100,0.020643,0.000000
4.430000,3.178813,0.294786,-1.491649,0.415331,0.084251,0.073792,-0.674352,-0.211781,-0.229239,-0.143422,-1.128457,0.302565,4.472103,7.435183,-0.008937,-0.021045,0.067071,0.000000,-0.112713,0.016234,-0.000000
4.440000,3.182933,0.295617,-1.490922,0.408580,0.082077,0.071514,-0.675563,-0.222694,-0.226214,-0.098554,-1.054802,0.302547,4.500749,7.291856,0.010857,-0.022135,0.067211,0.000000,-0.105460,0.011793,-0.000000
4.450000,3.186985,0.296427,-1.490218,0.401820,0.079797,0.069267,-0.676323,-0.232877,-0.223188,-0.053407,-0.982620,0.302782,4.524852,7.140645,0.040272,-0.023154,0.067307,0.000000,-0.098350,0.007322,0.000000
4.460000,3.190969,0.297213,-1.489537,0.395054,0.077420,0.067051,-0.676631,-0.242346,-0.220159,-0.008057,-0.911989,0.303352,4.536079,6.982228,0.072850,-0.024102,0.067358,0.000000,-0.091390,0.002830,-0.000000
4.470000,3.194886,0.297976,-1.488877,0.388287,0.074951,0.064864,-0.676484,-0.251117,-0.217121,0.037314,-0.842975,0.304239,4.526581,6.818549,0.098643,-0.024982,0.067363,0.000000,-0.084587,-0.001666,0.000000
4.480000,3.198735,0.298712,-1.488240,0.381524,0.072397,0.062708,-0.675885,-0.259206,-0.214074,0.082474,-0.775618,0.305325,4.498650,6.650425,0.118456,-0.025794,0.067324,0.000000,-0.077945,-0.006144,-0.000000
4.490000,3.202516,0.299423,-1.487623,0.374769,0.069766,0.060583,-0.674835,-0.266629,-0.211015,0.127287,-0.709967,0.306608,4.462498,6.476556,0.144040,-0.026541,0.067240,0.000000,-0.071469,-0.010590,0.000000
4.500000,3.206230,0.300108,-1.487028,0.368027,0.067065,0.058488,-0.673339,-0.273405,-0.207942,0.171724,-0.646087,0.308206,4.421145,6.295939,0.177569,-0.027223,0.067112,0.000000,-0.065165,-0.015000,0.000000
4.510000,3.209877,0.300765,-1.486454,0.361303,0.064298,0.056424,-0.671400,-0.279551,-0.204851,0.215710,-0.584048,0.310159,4.367688,6.110559,0.210058,-0.027844,0.066940,0.000000,-0.059041,-0.019368,-0.000000
4.520000,3.213456,0.301394,-1.485900,0.354599,0.061474,0.054391,-0.669025,-0.285086,-0.201739,0.259078,-0.523876,0.312407,4.294911,5.925192,0.234958,-0.028404,0.066725,0.000000,-0.053098,-0.023677,-0.000000
4.530000,3.216969,0.301994,-1.485366,0.347922,0.058597,0.052389,-0.666219,-0.290029,-0.198603,0.301608,-0.465544,0.314858,4.204944,5.740315,0.253997,-0.028906,0.066467,0.000000,-0.047335,-0.027906,0.000000
4.540000,3.220415,0.302566,-1.484852,0.341275,0.055673,0.050419,-0.662993,-0.294397,-0.195441,0.343177,-0.409070,0.317487,4.107464,5.550751,0.274379,-0.029351,0.066166,0.000000,-0.041753,-0.032042,-0.000000
4.550000,3.223794,0.303108,-1.484357,0.334662,0.052709,0.048480,-0.659355,-0.298210,-0.192253,0.383758,-0.354529,0.320346,4.004878,5.354697,0.299592,-0.029741,0.065825,0.000000,-0.036360,-0.036083,0.000000
4.560000,3.227108,0.303620,-1.483882,0.328088,0.049709,0.046574,-0.655317,-0.301488,-0.189034,0.423274,-0.301976,0.323479,3.890928,5.156690,0.323797,-0.030078,0.065444,0.000000,-0.031160,-0.040021,0.000000
4.570000,3.230356,0.304102,-1.483426,0.321556,0.046679,0.044699,-0.650890,-0.304250,-0.185783,0.461576,-0.251395,0.326822,3.760514,4.962936,0.335750,-0.030364,0.065025,0.000000,-0.026153,-0.043842,-0.000000
4.580000,3.233539,0.304553,-1.482988,0.315070,0.043624,0.042858,-0.646086,-0.306516,-0.182498,0.498485,-0.202717,0.330194,3.615803,4.772998,0.336222,-0.030601,0.064567,0.000000,-0.021330,-0.047528,0.000000
4.590000,3.236657,0.304974,-1.482569,0.308634,0.040549,0.041050,-0.640920,-0.308304,-0.179179,0.533892,-0.155935,0.333546,3.463881,4.579789,0.339402,-0.030791,0.064074,0.000000,-0.016692,-0.051070,0.000000
4.600000,3.239712,0.305364,-1.482167,0.302252,0.037458,0.039274,-0.635408,-0.309634,-0.175827,0.567762,-0.111121,0.336982,3.306445,4.381196,0.348800,-0.030935,0.063545,0.000000,-0.012245,-0.054463,-0.000000
4.610000,3.242702,0.305723,-1.481783,0.295926,0.034356,0.037533,-0.629565,-0.310526,-0.172440,0.600021,-0.068311,0.340522,3.139167,4.182889,0.354156,-0.031036,0.062984,0.000000,-0.007994,-0.057699,-0.000000
4.620000,3.245630,0.306052,-1.481417,0.289660,0.031247,0.035826,-0.623408,-0.311000,-0.169017,0.630546,-0.027463,0.344065,2.958921,3.991600,0.346622,-0.031095,0.062391,0.000000,-0.003934,-0.060767,-0.000000
4.630000,3.248496,0.306348,-1.481067,0.283458,0.028136,0.034153,-0.616954,-0.311076,-0.165558,0.659200,0.011521,0.347455,2.767449,3.806567,0.328915,-0.031114,0.061768,0.000000,-0.000054,-0.063653,0.000000
4.640000,3.251299,0.306614,-1.480733,0.277321,0.025026,0.032514,-0.610224,-0.310770,-0.162068,0.685895,0.048668,0.350643,2.569425,3.619813,0.311872,-0.031096,0.061117,0.000000,0.003648,-0.066349,0.000000
4.650000,3.254042,0.306849,-1.480416,0.271253,0.021921,0.030911,-0.603236,-0.310102,-0.158546,0.710588,0.083917,0.353692,2.366138,3.427868,0.297706,-0.031041,0.060440,0.000000,0.007165,-0.068851,0.000000
4.660000,3.256724,0.307053,-1.480115,0.265257,0.018824,0.029344,-0.596012,-0.309092,-0.154994,0.733217,0.117225,0.356598,2.155025,3.236912,0.278794,-0.030953,0.059739,0.000000,0.010493,-0.071150,-0.000000
4.670000,3.259347,0.307225,-1.479830,0.259333,0.015739,0.027811,-0.588572,-0.307758,-0.151414,0.753689,0.148655,0.359268,1.934011,3.057198,0.249237,-0.030831,0.059017,0.000000,0.013638,-0.073239,-0.000000
4.680000,3.261911,0.307367,-1.479559,0.253485,0.012669,0.026315,-0.580938,-0.306119,-0.147808,0.771898,0.178369,0.361582,1.704475,2.887694,0.211210,-0.030680,0.058274,0.000000,0.016618,-0.075107,-0.000000
4.690000,3.264417,0.307479,-1.479303,0.247714,0.009616,0.024855,-0.573134,-0.304190,-0.144182,0.787778,0.206409,0.363492,1.469898,2.715354,0.171979,-0.030499,0.057514,0.000000,0.019435,-0.076748,0.000000
4.700000,3.266865,0.307560,-1.479062,0.242023,0.006585,0.023432,-0.565182,-0.301990,-0.140539,0.801296,0.232676,0.365022,1.230376,2.536635,0.132864,-0.030291,0.056738,0.000000,0.022079,-0.078156,-0.000000
4.710000,3.269257,0.307610,-1.478835,0.236411,0.003577,0.022044,-0.557108,-0.299537,-0.136882,0.812386,0.257142,0.366150,0.984295,2.360872,0.088865,-0.030057,0.055950,0.000000,0.024548,-0.079326,0.000000
4.720000,3.271594,0.307631,-1.478621,0.230880,0.000594,0.020694,-0.548935,-0.296848,-0.133216,0.820981,0.279894,0.366799,0.733168,2.196944,0.036582,-0.029800,0.055151,0.000000,0.026851,-0.080250,-0.000000
4.730000,3.273875,0.307622,-1.478421,0.225432,-0.002360,0.019380,-0.540688,-0.293939,-0.129546,0.827049,0.301081,0.366881,0.478212,2.042680,-0.022505,-0.029520,0.054344,0.000000,0.029001,-0.080925,-0.000000
4.740000,3.276102,0.307584,-1.478233,0.220067,-0.005285,0.018103,-0.532394,-0.290826,-0.125878,0.830546,0.320747,0.366349,0.218088,1.886819,-0.084165,-0.029220,0.053532,0.000000,0.031004,-0.081347,-0.000000
4.750000,3.278276,0.307517,-1.478059,0.214784,-0.008177,0.016863,-0.524077,-0.287524,-0.122219,0.831411,0.338817,0.365198,-0.047514,1.724393,-0.147215,-0.028900,0.052716,0.000000,0.032851,-0.081507,0.000000
4.760000,3.280398,0.307421,-1.477896,0.209585,-0.011035,0.015659,-0.515766,-0.284050,-0.118574,0.829595,0.355235,0.363405,-0.316932,1.563362,-0.214503,-0.028563,0.051901,0.000000,0.034536,-0.081402,0.000000
4.770000,3.282468,0.307296,-1.477746,0.204469,-0.013858,0.014491,-0.507485,-0.280419,-0.114951,0.825072,0.370084,0.360908,-0.588477,1.417075,-0.289153,-0.028210,0.051088,0.000000,0.036068,-0.081028,0.000000
4.780000,3.284487,0.307143,-1.477606,0.199435,-0.016644,0.013360,-0.499264,-0.276648,-0.111356,0.817826,0.383577,0.357622,-0.862016,1.284457,-0.370096,-0.027842,0.050280,0.000000,0.037467,-0.080382,-0.000000
4.790000,3.286457,0.306963,-1.477478,0.194484,-0.019391,0.012264,-0.491129,-0.272748,-0.107798,0.807832,0.395773,0.353506,-1.138910,1.147394,-0.453201,-0.027460,0.049480,0.000000,0.038740,-0.079463,0.000000
4.800000,3.288377,0.306756,-1.477361,0.189613,-0.022099,0.011204,-0.483107,-0.268733,-0.104286,0.795048,0.406525,0.348558,-1.420117,0.995189,-0.539199,-0.027067,0.048690,0.000000,0.039871,-0.078264,-0.000000
4.810000,3.290249,0.306521,-1.477254,0.184821,-0.024766,0.010178,-0.475228,-0.264617,-0.100827,0.779429,0.415677,0.342722,-1.703967,0.840500,-0.630677,-0.026663,0.047914,0.000000,0.040844,-0.076782,0.000000
4.820000,3.292073,0.306260,-1.477158,0.180108,-0.027391,0.009187,-0.467519,-0.260419,-0.097431,0.760968,0.423335,0.335944,-1.986361,0.710681,-0.724769,-0.026250,0.047154,0.000000,0.041670,-0.075015,-0.000000
4.830000,3.293851,0.305973,-1.477070,0.175471,-0.029974,0.008230,-0.460009,-0.256151,-0.094108,0.739702,0.429891,0.328227,-2.267252,0.601904,-0.820366,-0.025829,0.046413,0.000000,0.042386,-0.072965,0.000000
4.840000,3.295583,0.305661,-1.476993,0.170908,-0.032514,0.007305,-0.452725,-0.251821,-0.090867,0.715623,0.435373,0.319537,-2.551426,0.476856,-0.921504,-0.025402,0.045694,0.000000,0.042997,-0.070633,0.000000
4.850000,3.297269,0.305323,-1.476924,0.166417,-0.035010,0.006412,-0.445696,-0.247443,-0.087717,0.688674,0.439428,0.309796,-2.839032,0.332096,-1.028672,-0.024970,0.045000,0.000000,0.043467,-0.068010,0.000000
4.860000,3.298911,0.304961,-1.476865,0.161994,-0.037463,0.005551,-0.438951,-0.243033,-0.084671,0.658843,0.442015,0.298963,-3.126235,0.191907,-1.139012,-0.024533,0.044333,0.000000,0.043789,-0.065097,0.000000
4.870000,3.300509,0.304574,-1.476813,0.157638,-0.039871,0.004719,-0.432519,-0.238603,-0.081738,0.626149,0.443266,0.287016,-3.412418,0.057747,-1.252246,-0.024094,0.043697,0.000000,0.043979,-0.061895,0.000000
4.880000,3.302064,0.304163,-1.476770,0.153344,-0.042235,0.003916,-0.426428,-0.234167,-0.078930,0.590594,0.443169,0.273918,-3.698536,-0.079651,-1.369316,-0.023653,0.043095,0.000000,0.044034,-0.058403,-0.000000
4.890000,3.303576,0.303729,-1.476735,0.149109,-0.044554,0.003140,-0.420707,-0.229740,-0.076260,0.552178,0.441673,0.259630,-3.984340,-0.221506,-1.490259,-0.023213,0.042529,0.000000,0.043948,-0.054622,-0.000000
4.900000,3.305046,0.303272,-1.476707,0.144930,-0.046830,0.002391,-0.415385,-0.225334,-0.073738,0.510908,0.438739,0.244113,-4.269322,-0.367317,-1.614916,-0.022774,0.042002,0.000000,0.043717,-0.050551,0.000000
4.910000,3.306475,0.302792,-1.476687,0.140801,-0.049061,0.001666,-0.410489,-0.220965,-0.071377,0.466792,0.434327,0.227332,-4.553214,-0.517684,-1.743237,-0.022339,0.041518,0.000000,0.043338,-0.046193,-0.000000
4.920000,3.307862,0.302291,-1.476674,0.136720,-0.051249,0.000963,-0.406049,-0.216647,-0.069191,0.419843,0.428386,0.209249,-4.835727,-0.673278,-1.875187,-0.021908,0.041078,0.000000,0.042804,-0.041547,0.000000
4.930000,3.309209,0.301768,-1.476668,0.132680,-0.053394,0.000282,-0.402092,-0.212397,-0.067192,0.370077,0.420861,0.189828,-5.116510,-0.834769,-2.010731,-0.021483,0.040687,0.000000,0.042110,-0.036616,0.000000
4.940000,3.310516,0.301223,-1.476669,0.128678,-0.055497,-0.000381,-0.398647,-0.208230,-0.065395,0.317513,0.411690,0.169034,-5.395276,-1.002827,-2.149844,-0.021065,0.040346,0.000000,0.041249,-0.031403,-0.000000
4.950000,3.311783,0.300658,-1.476676,0.124707,-0.057559,-0.001026,-0.395742,-0.204163,-0.063812,0.262172,0.400804,0.146831,-5.671750,-1.178122,-2.292505,-0.020658,0.040059,0.000000,0.040214,-0.025909,-0.000000
4.960000,3.313010,0.300072,-1.476689,0.120763,-0.059580,-0.001657,-0.393404,-0.200214,-0.062458,0.204078,0.388128,0.123184,-5.945610,-1.361325,-2.438668,-0.020261,0.039828,0.000000,0.038998,-0.020138,0.000000
4.970000,3.314198,0.299466,-1.476709,0.116839,-0.061563,-0.002275,-0.391661,-0.196401,-0.061348,0.143260,0.373578,0.098058,237.590995,114.645635,34.634130,-0.019878,0.039656,0.000000,0.037591,-0.014094,0.000000
4.980000,3.315347,0.298841,-1.476735,0.112930,-0.063508,-0.002884,-0.390539,-0.192742,-0.060497,4.955898,2.681041,0.815866,481.813019,226.664209,71.530175,-0.019509,0.039546,0.000000,0.269309,-0.497947,-0.000000
4.990000,3.316456,0.298196,-1.476766,0.109029,-0.065418,-0.003485,-0.292543,-0.142780,-0.045031,9.779520,4.906862,1.528661,240.175949,106.821332,34.742175,-0.014481,0.029676,0.000000,0.494911,-0.986760,0.000000
5.000000,3.317527,0.297532,-1.476804,0.107079,-0.066364,-0.003784,-0.194948,-0.094605,-0.029924,9.759417,4.817467,1.510710,-2.010306,-8.939496,-1.795122,-0.009612,0.019809,0.000000,0.487779,-0.988343,0.000000
