time,x,y,z,vx,vy,vz,ax,ay,az,jx,jy,jz,sx,sy,sz,roll,pitch,yaw,p,q,r
0.000000,-2.722867,0.292597,-1.478335,-0.004804,0.001874,-0.001223,0.284348,0.001294,0.158612,-1.335856,-0.999627,-5.356995,31.407919,-4.297542,120.068066,0.000134,-0.029453,0.000000,-0.103602,0.154629,-0.000000
0.010000,-2.722902,0.292615,-1.478340,-0.002022,0.001837,0.000114,0.272534,-0.008914,0.110719,-1.029350,-1.041476,-4.253426,29.889748,-4.047822,100.991594,-0.000919,-0.028091,0.000000,-0.106934,0.118355,0.000000
0.020000,-2.722908,0.292633,-1.478334,0.000657,0.001695,0.001025,0.263710,-0.019525,0.072942,-0.738125,-1.080119,-3.330424,28.352578,-3.658566,83.936843,-0.002004,-0.027076,0.000000,-0.110207,0.085007,-0.000000
0.030000,-2.722889,0.292649,-1.478321,0.003262,0.001445,0.001601,0.257720,-0.030501,0.043575,-0.462342,-1.114224,-2.568306,26.802156,-3.142450,68.796821,-0.003122,-0.026382,0.000000,-0.113230,0.054241,-0.000000
0.040000,-2.722843,0.292662,-1.478303,0.005820,0.001084,0.001919,0.254411,-0.041790,0.021102,-0.202107,-1.142587,-1.948461,25.244221,-2.512148,55.464567,-0.004268,-0.025984,0.000000,-0.115835,0.025802,0.000000
0.050000,-2.722772,0.292670,-1.478283,0.008358,0.000608,0.002041,0.253626,-0.053330,0.004190,0.042541,-1.164129,-1.453350,23.684972,-1.780350,43.832712,-0.005437,-0.025859,0.000000,-0.117869,-0.000505,-0.000000
0.060000,-2.722676,0.292673,-1.478263,0.010901,0.000017,0.002018,0.255210,-0.065047,-0.008326,0.271608,-1.177898,-1.066496,22.129626,-0.959711,33.794678,-0.006623,-0.025987,0.000000,-0.119200,-0.024823,0.000000
0.070000,-2.722554,0.292670,-1.478243,0.013470,-0.000693,0.001886,0.259007,-0.076859,-0.017450,0.485167,-1.183069,-0.772501,20.584182,-0.062914,25.243290,-0.007818,-0.026349,0.000000,-0.119711,-0.047263,-0.000000
0.080000,-2.722406,0.292659,-1.478225,0.016088,-0.001521,0.001677,0.264862,-0.088677,-0.024037,0.683345,-1.178945,-0.557032,19.054468,0.897361,18.071516,-0.009014,-0.026927,0.000000,-0.119304,-0.067910,0.000000
0.090000,-2.722232,0.292639,-1.478210,0.018773,-0.002466,0.001412,0.272623,-0.100405,-0.028808,0.866328,-1.164953,-0.406828,17.546414,1.908430,12.172317,-0.010201,-0.027702,0.000000,-0.117900,-0.086835,0.000000
0.100000,-2.722031,0.292610,-1.478197,0.021546,-0.003528,0.001105,0.282139,-0.111942,-0.032351,1.034355,-1.140648,-0.309698,16.064882,2.957684,7.438901,-0.011368,-0.028658,0.000000,-0.115438,-0.104098,0.000000
0.110000,-2.721801,0.292568,-1.478188,0.024422,-0.004704,0.000767,0.293261,-0.123183,-0.035141,1.187733,-1.105714,-0.254521,14.616728,4.032365,3.763981,-0.012506,-0.029779,0.000000,-0.111875,-0.119756,0.000000
0.120000,-2.721542,0.292515,-1.478182,0.027416,-0.005990,0.000403,0.305846,-0.134020,-0.037547,1.326819,-1.059958,-0.231246,13.207325,5.119831,1.040644,-0.013602,-0.031048,0.000000,-0.107189,-0.133865,-0.000000
0.130000,-2.721252,0.292448,-1.478180,0.030543,-0.007383,0.000016,0.319751,-0.144346,-0.039843,1.452028,-1.003317,-0.230893,11.842421,6.207407,-0.838137,-0.014646,-0.032451,0.000000,-0.101373,-0.146485,0.000000
0.140000,-2.720931,0.292367,-1.478182,0.033815,-0.008875,-0.000394,0.334842,-0.154050,-0.042215,1.563835,-0.935852,-0.245551,10.527766,7.282422,-1.979419,-0.015626,-0.033973,0.000000,-0.094438,-0.157681,-0.000000
0.150000,-2.720575,0.292270,-1.478188,0.037243,-0.010461,-0.000829,0.350985,-0.163027,-0.044781,1.662770,-0.857753,-0.268380,9.269130,8.332204,-2.490317,-0.016531,-0.035601,0.000000,-0.086412,-0.167522,0.000000
0.160000,-2.720185,0.292158,-1.478198,0.040838,-0.012133,-0.001290,0.368056,-0.171171,-0.047591,1.749433,-0.769335,-0.293605,8.072909,9.344016,-2.477123,-0.017351,-0.037320,0.000000,-0.077336,-0.176087,-0.000000
0.170000,-2.719758,0.292028,-1.478214,0.044607,-0.013882,-0.001781,0.385935,-0.178381,-0.050645,1.824458,-0.671041,-0.316532,6.943942,10.305269,-2.047743,-0.018074,-0.039119,0.000000,-0.067268,-0.183457,-0.000000
0.180000,-2.719292,0.291880,-1.478234,0.048559,-0.015697,-0.002304,0.404509,-0.184561,-0.053901,1.888556,-0.563441,-0.333528,5.888331,11.203256,-1.308889,-0.018693,-0.040986,0.000000,-0.056276,-0.189722,0.000000
0.190000,-2.718786,0.291713,-1.478260,0.052699,-0.017569,-0.002860,0.423672,-0.189621,-0.057287,1.942488,-0.447229,-0.342035,4.911762,12.025306,-0.367627,-0.019197,-0.042911,0.000000,-0.044440,-0.194978,-0.000000
0.200000,-2.718238,0.291528,-1.478291,0.057034,-0.019486,-0.003450,0.443327,-0.193479,-0.060709,1.987081,-0.323230,-0.340559,4.020673,12.758721,0.669413,-0.019579,-0.044883,0.000000,-0.031850,-0.199321,-0.000000
0.210000,-2.717645,0.291324,-1.478329,0.061567,-0.021435,-0.004075,0.463444,-0.196155,-0.064553,2.036657,-0.213576,-0.440703,3.485906,12.972100,-0.519594,-0.019840,-0.046899,0.000000,-0.020522,-0.203670,-0.000000
0.220000,-2.717006,0.291099,-1.478373,0.066304,-0.023404,-0.004740,0.483847,-0.197435,-0.067923,2.034790,-0.028998,-0.165371,-1.494377,20.224848,35.999305,-0.019961,-0.048944,0.000000,-0.002397,-0.204642,-0.000000
0.230000,-2.716318,0.290856,-1.478424,0.071244,-0.025377,-0.005424,0.504236,-0.196905,-0.068812,2.056404,0.112866,-0.131986,5.903527,8.017495,-29.941579,-0.019904,-0.050998,0.000000,0.011882,-0.206901,0.000000
0.240000,-2.715580,0.290592,-1.478481,0.076390,-0.027339,-0.006124,0.525086,-0.195370,-0.071616,2.105538,0.205984,-0.368203,1.561140,14.331271,2.460437,-0.019741,-0.053088,0.000000,0.021764,-0.210461,-0.000000
0.250000,-2.714790,0.290309,-1.478546,0.081746,-0.029280,-0.006856,0.546150,-0.192492,-0.074652,2.107996,0.367492,-0.250773,1.307607,14.231886,1.313952,-0.019442,-0.055196,0.000000,0.037827,-0.211173,0.000000
0.260000,-2.713945,0.290006,-1.478619,0.087313,-0.031184,-0.007615,0.567279,-0.188091,-0.077096,2.116949,0.513248,-0.238007,0.913323,14.365206,1.389961,-0.018990,-0.057313,0.000000,0.052495,-0.211995,0.000000
0.270000,-2.713043,0.289685,-1.478699,0.093092,-0.033037,-0.008398,0.588511,-0.182268,-0.079398,2.130307,0.649598,-0.221606,1.357294,13.423095,1.740048,-0.018396,-0.059439,0.000000,0.066194,-0.213288,0.000000
0.280000,-2.712082,0.289346,-1.478787,0.099084,-0.034825,-0.009202,0.609855,-0.175073,-0.081533,2.135661,0.792611,-0.206357,-0.292141,15.187473,1.303416,-0.017664,-0.061576,0.000000,0.080555,-0.213776,0.000000
0.290000,-2.711060,0.288989,-1.478883,0.105289,-0.036533,-0.010028,0.631193,-0.166389,-0.083531,2.132871,0.942510,-0.192573,0.153331,14.251747,1.601341,-0.016782,-0.063712,0.000000,0.095600,-0.213442,0.000000
0.300000,-2.709975,0.288616,-1.478987,0.111708,-0.038148,-0.010873,0.652537,-0.156267,-0.085372,2.135342,1.082022,-0.175634,-0.064925,14.174847,1.635703,-0.015756,-0.065848,0.000000,0.109584,-0.213666,0.000000
0.310000,-2.708825,0.288226,-1.479100,0.118340,-0.039654,-0.011735,0.673877,-0.144731,-0.087047,2.132107,1.225104,-0.159398,-0.261643,14.064340,1.664905,-0.014589,-0.067984,0.000000,0.123919,-0.213320,0.000000
0.320000,-2.707608,0.287823,-1.479222,0.125185,-0.041038,-0.012613,0.695199,-0.131799,-0.088554,2.133079,1.359770,-0.141850,0.156431,13.222816,1.789644,-0.013281,-0.070117,0.000000,0.137398,-0.213416,0.000000
0.330000,-2.706321,0.287406,-1.479353,0.132244,-0.042286,-0.013505,0.716519,-0.117525,-0.089886,2.128932,1.497005,-0.124758,-0.991435,14.229978,1.625831,-0.011840,-0.072251,0.000000,0.151130,-0.213003,0.000000
0.340000,-2.704962,0.286978,-1.479492,0.139516,-0.043384,-0.014410,0.737757,-0.101847,-0.091052,2.119473,1.636980,-0.108265,-0.590023,13.396491,1.726271,-0.010258,-0.074376,0.000000,0.165134,-0.212062,-0.000000
0.350000,-2.703530,0.286539,-1.479641,0.146999,-0.044318,-0.015326,0.758929,-0.084821,-0.092047,2.114583,1.767924,-0.090708,-0.690991,13.150044,1.729815,-0.008541,-0.076494,0.000000,0.178223,-0.211597,-0.000000
0.360000,-2.702022,0.286092,-1.479799,0.154694,-0.045076,-0.016250,0.780034,-0.066484,-0.092868,2.106201,1.899170,-0.073531,-0.779275,12.877543,1.729835,-0.006693,-0.078606,0.000000,0.191340,-0.210789,0.000000
0.370000,-2.700435,0.285638,-1.479966,0.162599,-0.045643,-0.017183,0.801067,-0.046865,-0.093515,2.100916,2.023392,-0.055892,-0.473442,12.173599,1.773418,-0.004717,-0.080711,0.000000,0.203748,-0.210304,-0.000000
0.380000,-2.698769,0.285180,-1.480142,0.170715,-0.046009,-0.018120,0.822041,-0.026017,-0.093987,2.092619,2.146990,-0.038576,-1.190517,12.548843,1.688772,-0.002618,-0.082811,0.000000,0.216092,-0.209523,-0.000000
0.390000,-2.697020,0.284719,-1.480328,0.179040,-0.046160,-0.019062,0.842907,-0.003926,-0.094288,2.081134,2.270031,-0.021631,-0.905751,11.842909,1.724642,-0.000395,-0.084901,0.000000,0.228379,-0.208429,-0.000000
0.400000,-2.695187,0.284257,-1.480524,0.187573,-0.046083,-0.020005,0.863678,0.019355,-0.094418,2.072842,2.385587,-0.004289,-0.951669,11.477300,1.719522,0.001947,-0.086981,0.000000,0.239913,-0.207667,-0.000000
0.410000,-2.693268,0.283798,-1.480728,0.196313,-0.045769,-0.020949,0.884355,0.043781,-0.094374,2.062413,2.499075,0.012988,-0.995471,11.092701,1.719198,0.004403,-0.089053,0.000000,0.251240,-0.206700,-0.000000
0.420000,-2.691261,0.283343,-1.480943,0.205260,-0.045204,-0.021892,0.904936,0.069313,-0.094159,2.054213,2.606236,0.029948,-0.777766,10.457158,1.689716,0.006969,-0.091116,0.000000,0.261931,-0.205961,0.000000
0.430000,-2.689162,0.282895,-1.481166,0.214412,-0.044379,-0.022832,0.925432,0.095898,-0.093774,2.044054,2.710697,0.047138,-1.258023,10.436053,1.749465,0.009641,-0.093172,0.000000,0.272352,-0.205036,-0.000000
0.440000,-2.686972,0.282456,-1.481399,0.223768,-0.043283,-0.023767,0.945809,0.123519,-0.093215,2.031763,2.812459,0.064620,-1.065142,9.791775,1.731265,0.012416,-0.095216,0.000000,0.282504,-0.203909,-0.000000
0.450000,-2.684686,0.282030,-1.481642,0.233327,-0.041905,-0.024696,0.966077,0.152123,-0.092483,2.021605,2.907517,0.081922,-1.101598,9.338729,1.746617,0.015288,-0.097251,0.000000,0.291983,-0.203002,-0.000000
0.460000,-2.682304,0.281619,-1.481893,0.243089,-0.040237,-0.025616,0.986235,0.181658,-0.091575,2.009891,2.998899,0.099799,-1.142292,8.870296,1.773551,0.018254,-0.099276,0.000000,0.301096,-0.201953,-0.000000
0.470000,-2.679824,0.281226,-1.482154,0.253052,-0.038269,-0.026527,1.006281,0.212079,-0.090491,1.999663,3.084277,0.116899,-1.000077,8.266015,1.702312,0.021308,-0.101292,0.000000,0.309606,-0.201053,0.000000
0.480000,-2.677243,0.280855,-1.482424,0.263214,-0.035993,-0.027425,1.026222,0.243331,-0.089233,1.987855,3.165500,0.135020,-1.365194,7.978322,1.924996,0.024445,-0.103298,0.000000,0.317704,-0.200013,0.000000
0.490000,-2.674559,0.280507,-1.482702,0.273576,-0.033400,-0.028311,1.046032,0.275376,-0.087786,1.974292,3.242522,0.154321,-1.251024,7.360388,1.881521,0.027661,-0.105293,0.000000,0.325387,-0.198818,0.000000
0.500000,-2.671771,0.280188,-1.482990,0.284135,-0.030483,-0.029181,1.065714,0.308159,-0.086149,1.962000,3.313206,0.173153,-1.306198,6.837886,1.941233,0.030950,-0.107276,0.000000,0.332436,-0.197754,-0.000000
0.510000,-2.668876,0.279899,-1.483286,0.294890,-0.027234,-0.030033,1.085266,0.341624,-0.084317,1.948246,3.379043,0.193389,-1.369837,6.302068,2.017227,0.034308,-0.109249,0.000000,0.339009,-0.196567,-0.000000
0.520000,-2.665872,0.279644,-1.483590,0.305839,-0.023648,-0.030866,1.104683,0.375719,-0.082286,1.935280,3.438975,0.212699,-1.298102,5.707104,1.934324,0.037729,-0.111210,0.000000,0.344990,-0.195458,-0.000000
0.530000,-2.662758,0.279427,-1.483903,0.316983,-0.019718,-0.031678,1.123965,0.410387,-0.080056,1.920716,3.493665,0.233954,-1.618130,5.229741,2.321195,0.041206,-0.113161,0.000000,0.350460,-0.194220,0.000000
0.540000,-2.659532,0.279251,-1.484224,0.328318,-0.015439,-0.032467,1.143090,0.445575,-0.077599,1.904381,3.543035,0.257383,-1.575952,4.617762,2.277768,0.044736,-0.115098,0.000000,0.355414,-0.192839,-0.000000
0.550000,-2.656191,0.279119,-1.484552,0.339844,-0.010805,-0.033229,1.162056,0.481226,-0.074912,1.888548,3.586195,0.280299,-1.666872,4.037430,2.395615,0.048312,-0.117021,0.000000,0.359754,-0.191514,0.000000
0.560000,-2.652734,0.279036,-1.484888,0.351559,-0.005813,-0.033964,1.180855,0.517280,-0.071984,1.871045,3.623661,0.305492,-1.768741,3.446322,2.531418,0.051929,-0.118932,0.000000,0.363546,-0.190059,0.000000
0.570000,-2.649159,0.279004,-1.485232,0.363461,-0.000458,-0.034668,1.199479,0.553679,-0.068806,1.853756,3.655018,0.329921,-1.754764,2.830983,2.466134,0.055581,-0.120828,0.000000,0.366735,-0.188628,-0.000000
0.580000,-2.645464,0.279028,-1.485582,0.375548,0.005262,-0.035339,1.217923,0.590361,-0.065376,1.834570,3.680408,0.357159,-2.085714,2.245678,2.986677,0.059262,-0.122710,0.000000,0.369357,-0.187054,0.000000
0.590000,-2.641648,0.279111,-1.485938,0.387818,0.011350,-0.035975,1.236163,0.627267,-0.061652,1.813316,3.699749,0.387464,-2.101619,1.613540,2.964901,0.062966,-0.124575,0.000000,0.371413,-0.185324,-0.000000
0.600000,-2.637707,0.279256,-1.486301,0.400270,0.017807,-0.036571,1.254190,0.664334,-0.057629,1.791959,3.712714,0.417433,-2.235933,0.985625,3.141295,0.066688,-0.126424,0.000000,0.372849,-0.183595,-0.000000
0.610000,-2.633642,0.279468,-1.486669,0.412901,0.024637,-0.037126,1.271994,0.701500,-0.053292,1.768569,3.719339,0.450405,-2.381918,0.347914,3.332726,0.070422,-0.128255,0.000000,0.373696,-0.181716,0.000000
0.620000,-2.629449,0.279750,-1.487043,0.425709,0.031838,-0.037636,1.289562,0.738701,-0.048625,1.744843,3.719737,0.482980,-2.423121,-0.279175,3.302986,0.074160,-0.130067,0.000000,0.373944,-0.179814,0.000000
0.630000,-2.625127,0.280106,-1.487422,0.438692,0.039410,-0.038098,1.306883,0.775873,-0.043620,1.718853,3.713529,0.518994,-2.778022,-0.964009,3.904719,0.077898,-0.131860,0.000000,0.373587,-0.177748,0.000000
0.640000,-2.620674,0.280540,-1.487805,0.451846,0.047355,-0.038507,1.323930,0.812949,-0.038232,1.690439,3.700628,0.558682,-2.847130,-1.607592,3.913172,0.081630,-0.133632,0.000000,0.372626,-0.175506,-0.000000
0.650000,-2.616090,0.281054,-1.488192,0.465169,0.055669,-0.038861,1.340691,0.849864,-0.032449,1.661383,3.681272,0.598304,-3.023880,-2.274309,4.131598,0.085349,-0.135382,0.000000,0.371056,-0.173219,0.000000
0.660000,-2.611371,0.281654,-1.488582,0.478659,0.064351,-0.039155,1.357149,0.886551,-0.026253,1.629946,3.655004,0.641279,-3.210105,-2.949944,4.357957,0.089049,-0.137109,0.000000,0.368866,-0.170760,-0.000000
0.670000,-2.606516,0.282343,-1.488975,0.492311,0.073399,-0.039385,1.373288,0.922944,-0.019624,1.597662,3.622534,0.684496,-3.300916,-3.574352,4.388687,0.092724,-0.138811,0.000000,0.366102,-0.168240,-0.000000
0.680000,-2.601524,0.283123,-1.489370,0.506124,0.082809,-0.039546,1.389094,0.958978,-0.012551,1.562794,3.582880,0.731217,-3.675264,-4.358288,4.958727,0.096369,-0.140487,0.000000,0.362700,-0.165533,-0.000000
0.690000,-2.596393,0.284000,-1.489766,0.520092,0.092577,-0.039634,1.404534,0.994577,-0.004987,1.525210,3.535951,0.781587,-3.788851,-4.998434,5.011321,0.099976,-0.142136,0.000000,0.358660,-0.162628,-0.000000
0.700000,-2.591121,0.284976,-1.490162,0.534213,0.102699,-0.039644,1.419595,1.029676,0.003080,1.486539,3.482645,0.832320,-3.998823,-5.693060,5.238084,0.103540,-0.143756,0.000000,0.354040,-0.159643,0.000000
0.710000,-2.585708,0.286055,-1.490558,0.548483,0.113169,-0.039571,1.434256,1.064205,0.011672,1.445207,3.421966,0.886320,-4.215541,-6.394495,5.464992,0.107055,-0.145345,0.000000,0.348775,-0.156463,-0.000000
0.720000,-2.580151,0.287241,-1.490953,0.562897,0.123981,-0.039409,1.448496,1.098096,0.020807,1.402701,3.355195,0.940716,-4.337541,-7.007299,5.506289,0.110514,-0.146903,0.000000,0.342963,-0.153195,-0.000000
0.730000,-2.574450,0.288536,-1.491346,0.577451,0.135128,-0.039153,1.462300,1.131283,0.030497,1.357373,3.280820,0.998379,-4.730102,-7.869336,6.027847,0.113912,-0.148427,0.000000,0.336488,-0.149717,0.000000
0.740000,-2.568602,0.289944,-1.491736,0.592141,0.146604,-0.038797,1.475633,1.163686,0.040786,1.309126,3.198762,1.059352,-4.867920,-8.494566,6.070551,0.117241,-0.149916,0.000000,0.329348,-0.146021,0.000000
0.750000,-2.562606,0.291469,-1.492122,0.606962,0.158399,-0.038335,1.488479,1.195238,0.051684,1.259570,3.110523,1.120553,-5.094821,-9.200833,6.261179,0.120497,-0.151368,0.000000,0.321654,-0.142220,0.000000
0.760000,-2.556462,0.293113,-1.492502,0.621909,0.170505,-0.037761,1.500815,1.225870,0.063206,1.207257,3.014610,1.184163,-5.323771,-9.911005,6.434140,0.123672,-0.152780,0.000000,0.313285,-0.138204,-0.000000
0.770000,-2.550168,0.294880,-1.492876,0.636977,0.182913,-0.037069,1.512620,1.255513,0.075370,1.153499,2.912959,1.248958,-5.470227,-10.487322,6.545472,0.126761,-0.154153,0.000000,0.304418,-0.134082,0.000000
0.780000,-2.543722,0.296773,-1.493243,0.652160,0.195612,-0.036251,1.523876,1.284103,0.088191,1.096964,2.803437,1.315503,-5.837854,-11.418468,6.760875,0.129758,-0.155483,0.000000,0.294848,-0.129731,-0.000000
0.790000,-2.537124,0.298793,-1.493601,0.667452,0.208592,-0.035303,1.534550,1.311555,0.101686,1.037612,2.685988,1.383632,-5.988908,-12.001421,6.837610,0.132656,-0.156768,0.000000,0.284564,-0.125143,-0.000000
0.800000,-2.530373,0.300945,-1.493949,0.682849,0.221839,-0.034215,1.544624,1.337805,0.115865,0.976826,2.562840,1.452377,-6.209852,-12.695954,6.931219,0.135448,-0.158008,0.000000,0.273771,-0.120437,0.000000
0.810000,-2.523467,0.303231,-1.494285,0.698343,0.235343,-0.032983,1.554077,1.362784,0.130735,0.913525,2.431887,1.521744,-6.425719,-13.390542,6.992142,0.138129,-0.159199,0.000000,0.262254,-0.115505,0.000000
0.820000,-2.516406,0.305653,-1.494608,0.713928,0.249091,-0.031598,1.562889,1.386428,0.146306,0.848549,2.296004,1.592628,-6.591373,-13.884327,7.127323,0.140692,-0.160340,0.000000,0.250308,-0.110442,-0.000000
0.830000,-2.509188,0.308214,-1.494916,0.729598,0.263067,-0.030054,1.571040,1.408677,0.162586,0.781236,2.152140,1.663086,-6.870755,-14.889788,6.957551,0.143132,-0.161429,0.000000,0.237595,-0.105148,0.000000
0.840000,-2.501813,0.310915,-1.495208,0.745347,0.277259,-0.028344,1.578506,1.429443,0.179565,0.711627,2.000267,1.732741,-7.026352,-15.381964,7.021337,0.145441,-0.162463,0.000000,0.224097,-0.099617,0.000000
0.850000,-2.494281,0.313759,-1.495483,0.761166,0.291651,-0.026461,1.585268,1.448669,0.197244,0.640541,1.843691,1.802950,-7.212538,-16.031151,6.961650,0.147613,-0.163442,0.000000,0.210153,-0.093949,-0.000000
0.860000,-2.486590,0.316749,-1.495737,0.777049,0.306227,-0.024397,1.591310,1.466291,0.215617,0.567486,1.679733,1.871440,-7.386577,-16.668257,6.856757,0.149641,-0.164362,0.000000,0.195454,-0.088055,0.000000
0.870000,-2.478740,0.319885,-1.495970,0.792990,0.320971,-0.022146,1.596614,1.482249,0.234679,0.492971,1.511205,1.941130,-7.526481,-17.120820,6.952107,0.151521,-0.165223,0.000000,0.180311,-0.082028,-0.000000
0.880000,-2.470730,0.323169,-1.496179,0.808979,0.335866,-0.019701,1.601164,1.496491,0.254428,0.416745,1.335567,2.007777,-7.716836,-18.005948,6.367095,0.153245,-0.166021,0.000000,0.164394,-0.075769,0.000000
0.890000,-2.462560,0.326602,-1.496363,0.825010,0.350895,-0.017055,1.604943,1.508937,0.274821,0.338927,1.152910,2.070827,-7.832080,-18.434262,6.360464,0.154806,-0.166755,0.000000,0.147687,-0.069275,0.000000
0.900000,-2.454230,0.330187,-1.496520,0.841075,0.366039,-0.014203,1.607939,1.519537,0.295847,0.260046,0.966221,2.133797,-7.952999,-18.986292,6.103237,0.156197,-0.167423,0.000000,0.130530,-0.062653,-0.000000
0.910000,-2.445738,0.333923,-1.496647,0.857167,0.381280,-0.011137,1.610141,1.528240,0.317480,0.180144,0.773332,2.192114,-8.053166,-19.514034,5.786955,0.157414,-0.168023,0.000000,0.112616,-0.055823,0.000000
0.920000,-2.437086,0.337813,-1.496742,0.873276,0.396597,-0.007851,1.611536,1.534993,0.339697,0.098778,0.576707,2.251548,-8.189194,-19.876437,5.866086,0.158448,-0.168553,0.000000,0.094271,-0.048836,-0.000000
0.930000,-2.428273,0.341856,-1.496803,0.889395,0.411973,-0.004341,1.612115,1.539754,0.362487,0.017007,0.374427,2.304536,-8.161011,-20.576344,4.717524,0.159296,-0.169011,0.000000,0.075160,-0.041661,-0.000000
0.940000,-2.419298,0.346052,-1.496828,0.905515,0.427386,-0.000600,1.611876,1.542463,0.385762,-0.064939,0.166723,2.350346,-8.252804,-20.887079,4.666406,0.159949,-0.169396,0.000000,0.055274,-0.034304,0.000000
0.950000,-2.410163,0.350403,-1.496814,0.921629,0.442815,0.003376,1.610813,1.543081,0.409497,-0.147734,-0.043796,2.395784,-8.275409,-21.281494,4.185720,0.160401,-0.169706,0.000000,0.034973,-0.026809,0.000000
0.960000,-2.400866,0.354909,-1.496759,0.937729,0.458240,0.007592,1.608924,1.541572,0.433650,-0.230021,-0.258423,2.433674,-8.268230,-21.632230,3.649037,0.160646,-0.169939,0.000000,0.013987,-0.019183,0.000000
0.970000,-2.391408,0.359568,-1.496661,0.953805,0.473639,0.012050,1.606206,1.537902,0.458173,-0.313850,-0.476254,2.471055,-8.406511,-21.931486,3.564822,0.160679,-0.170094,0.000000,-0.007489,-0.011336,0.000000
0.980000,-2.381790,0.364381,-1.496518,0.969850,0.488991,0.016756,1.602652,1.532038,0.483039,-0.396241,-0.697001,2.499472,-8.064950,-22.210404,2.104091,0.160494,-0.170168,0.000000,-0.029588,-0.003418,-0.000000
0.990000,-2.372011,0.369348,-1.496325,0.985855,0.504273,0.021712,1.598288,1.523953,0.508129,-0.476834,-0.920208,2.518184,-8.137836,-22.417966,1.890392,0.160085,-0.170163,0.000000,-0.052295,0.004551,-0.000000
1.000000,-2.362073,0.374466,-1.496083,1.001813,0.519462,0.026919,1.593112,1.513627,0.533401,-0.558169,-1.145234,2.534966,-8.036943,-22.583306,1.202728,0.159447,-0.170075,0.000000,-0.075423,0.012698,-0.000000
1.010000,-2.351975,0.379737,-1.495786,1.017715,0.534538,0.032380,1.587133,1.501048,0.558791,-0.637328,-1.370829,2.541685,-7.904047,-22.678753,0.461112,0.158575,-0.169905,0.000000,-0.098997,0.020870,-0.000000
1.020000,-2.341719,0.385157,-1.495434,1.033553,0.549476,0.038095,1.580361,1.486196,0.584236,-0.717209,-1.600023,2.547077,-7.957930,-23.003379,0.296362,0.157465,-0.169652,0.000000,-0.123193,0.029213,-0.000000
1.030000,-2.331304,0.390725,-1.495023,1.049320,0.564254,0.044065,1.572799,1.469054,0.609692,-0.794094,-1.827613,2.540885,-7.411377,-22.500225,-1.549232,0.156110,-0.169314,0.000000,-0.147659,0.037527,-0.000000
1.040000,-2.320733,0.396441,-1.494552,1.065007,0.578849,0.050289,1.564491,1.449653,0.635010,-0.867577,-2.052814,2.522395,-7.392139,-22.679004,-1.833850,0.154511,-0.168893,0.000000,-0.172326,0.045781,0.000000
1.050000,-2.310005,0.402302,-1.494017,1.080607,0.593239,0.056765,1.555446,1.427989,0.660137,-0.940909,-2.279729,2.501428,-7.159432,-22.545178,-2.681374,0.152662,-0.168387,0.000000,-0.197461,0.054139,-0.000000
1.060000,-2.299121,0.408305,-1.493416,1.096113,0.607402,0.063491,1.545688,1.404073,0.684994,-1.010122,-2.502980,2.468452,-6.885991,-22.332545,-3.566411,0.150562,-0.167798,0.000000,-0.222661,0.062353,0.000000
1.070000,-2.288083,0.414449,-1.492746,1.111518,0.621313,0.070463,1.535237,1.377918,0.709504,-1.080452,-2.728359,2.433273,-6.975263,-22.501869,-3.811174,0.148207,-0.167125,0.000000,-0.248367,0.070797,0.000000
1.080000,-2.276891,0.420731,-1.492006,1.126816,0.634953,0.077679,1.524099,1.349527,0.733614,-1.145335,-2.947959,2.385062,-5.991363,-21.400397,-5.842699,0.145595,-0.166367,0.000000,-0.273923,0.078968,0.000000
1.090000,-2.265547,0.427147,-1.491192,1.141998,0.648297,0.085134,1.512351,1.318983,0.757158,-1.204267,-3.160822,2.323276,-5.994153,-21.394419,-6.171939,0.142730,-0.165530,0.000000,-0.299215,0.086814,-0.000000
1.100000,-2.254051,0.433695,-1.490302,1.157061,0.661325,0.092820,1.500009,1.286306,0.780076,-1.263423,-3.373655,2.258709,-5.631994,-20.928939,-7.082632,0.139610,-0.164612,0.000000,-0.324760,0.094791,-0.000000
1.110000,-2.242406,0.440372,-1.489335,1.171997,0.674016,0.100733,1.487100,1.251547,0.802299,-1.317876,-3.577000,2.184508,-5.262481,-20.345584,-7.945152,0.136237,-0.163616,0.000000,-0.349644,0.102490,-0.000000
1.120000,-2.230612,0.447175,-1.488287,1.186801,0.686349,0.108864,1.473664,1.214737,0.823722,-1.368676,-3.786027,2.098100,-4.887661,-20.851763,-9.151233,0.132612,-0.162544,0.000000,-0.375503,0.110058,0.000000
1.130000,-2.218670,0.454098,-1.487157,1.201468,0.698304,0.117204,1.459740,1.175876,0.844241,-1.415427,-3.981280,2.005378,-4.459604,-18.170145,-9.384833,0.128732,-0.161397,0.000000,-0.400131,0.117339,0.000000
1.140000,-2.206583,0.461139,-1.485942,1.215994,0.709861,0.125745,1.445370,1.135167,0.863812,-1.457952,-4.161334,1.906753,-4.049654,-18.434925,-10.521880,0.124615,-0.160178,0.000000,-0.423321,0.124293,0.000000
1.150000,-2.194351,0.468294,-1.484641,1.230374,0.721001,0.134477,1.430595,1.092628,0.882335,-1.496314,-4.344671,1.796590,-3.613078,-17.621625,-11.323103,0.120262,-0.158892,0.000000,-0.447119,0.131015,-0.000000
1.160000,-2.181976,0.475558,-1.483252,1.244605,0.731707,0.143388,1.415462,1.048314,0.899724,-1.529391,-4.516888,1.680019,-3.146731,-16.796852,-12.098683,0.115676,-0.157541,0.000000,-0.469849,0.137280,-0.000000
1.170000,-2.169459,0.482927,-1.481773,1.258682,0.741962,0.152467,1.400011,1.002320,0.915901,-1.560558,-4.680291,1.553681,-2.942436,-15.892011,-13.055102,0.110868,-0.156128,0.000000,-0.491752,0.143499,-0.000000
1.180000,-2.156803,0.490396,-1.480202,1.272604,0.751748,0.161702,1.384273,0.954737,0.930778,-1.585217,-4.834915,1.421308,-1.983400,-15.025698,-13.410328,0.105844,-0.154655,0.000000,-0.512744,0.149093,0.000000
1.190000,-2.144008,0.497960,-1.478538,1.286367,0.761051,0.171079,1.368330,0.905652,0.944309,-1.603076,-4.980332,1.283392,-1.730917,-14.034327,-14.276419,0.100616,-0.153132,0.000000,-0.532724,0.154006,0.000000
1.200000,-2.131076,0.505615,-1.476780,1.299970,0.769857,0.180583,1.352217,0.855164,0.956415,-1.618593,-5.115603,1.136843,-1.228371,-13.029625,-14.917210,0.095194,-0.151560,0.000000,-0.551562,0.158764,-0.000000
1.210000,-2.118009,0.513355,-1.474926,1.313411,0.778150,0.190202,1.335978,0.803380,0.967029,-1.628417,-5.239361,0.984863,-0.730936,-11.958964,-15.518546,0.089590,-0.149944,0.000000,-0.569024,0.162932,0.000000
1.220000,-2.104808,0.521176,-1.472976,1.326689,0.785920,0.199919,1.319666,0.750394,0.976089,-1.633160,-5.356909,0.826167,-0.222084,-11.308799,-16.165464,0.083816,-0.148290,0.000000,-0.585659,0.166586,0.000000
1.230000,-2.091476,0.529072,-1.470928,1.339804,0.793155,0.209718,1.303331,0.696290,0.983536,-1.632953,-5.460472,0.662711,0.263364,-9.391715,-16.515821,0.077883,-0.146602,0.000000,-0.600533,0.169693,-0.000000
1.240000,-2.078013,0.537037,-1.468781,1.352756,0.799843,0.219584,1.287023,0.641235,0.989330,-1.627804,-5.549433,0.495062,0.770590,-8.634754,-17.053223,0.071811,-0.144887,0.000000,-0.613523,0.172234,-0.000000
1.250000,-2.064421,0.545067,-1.466536,1.365545,0.805976,0.229499,1.270792,0.585322,0.993420,-1.617586,-5.631065,0.322238,1.267298,-7.450303,-17.454660,0.065615,-0.143151,0.000000,-0.625402,0.174200,-0.000000
1.260000,-2.050702,0.553155,-1.464191,1.378172,0.811547,0.239447,1.254685,0.528665,0.995772,-1.603173,-5.698047,0.148015,1.744817,-6.230459,-17.760011,0.059310,-0.141398,0.000000,-0.635284,0.175620,0.000000
1.270000,-2.036858,0.561296,-1.461747,1.390639,0.816548,0.249409,1.238755,0.471379,0.996340,-1.581511,-5.758270,-0.036259,2.459909,-5.533736,-18.716408,0.052913,-0.139635,0.000000,-0.644073,0.176283,0.000000
1.280000,-2.022890,0.569484,-1.459203,1.402948,0.820973,0.259367,1.223064,0.413554,0.995057,-1.556656,-5.802844,-0.218377,2.505807,-3.371288,-17.685469,0.046437,-0.137869,0.000000,-0.650657,0.176439,0.000000
1.290000,-2.008800,0.577714,-1.456560,1.415102,0.824818,0.269304,1.207631,0.355377,0.991986,-1.528864,-5.831322,-0.397217,3.178686,-2.605476,-18.444282,0.039907,-0.136104,0.000000,-0.654972,0.176103,0.000000
1.300000,-1.994589,0.585979,-1.453817,1.427102,0.828079,0.279201,1.192512,0.296947,0.987080,-1.494202,-5.852574,-0.583896,3.624995,-1.365280,-18.510206,0.033341,-0.134347,0.000000,-0.658046,0.175003,0.000000
1.310000,-1.980258,0.594273,-1.450976,1.438953,0.830756,0.289039,1.177761,0.238364,0.980322,-1.455081,-5.862222,-0.767640,4.081346,-0.192011,-18.506150,0.026752,-0.132604,0.000000,-0.659330,0.173245,-0.000000
1.320000,-1.965810,0.602592,-1.448036,1.450659,0.832847,0.298801,1.163416,0.179772,0.971706,-1.413684,-5.853013,-0.956369,4.308253,1.668638,-18.959374,0.020163,-0.130881,0.000000,-0.658029,0.171192,-0.000000
1.330000,-1.951245,0.610928,-1.445000,1.462223,0.834352,0.308467,1.149508,0.121326,0.961210,-1.366601,-5.836519,-1.140952,5.109409,1.615950,-17.938361,0.013596,-0.129182,0.000000,-0.655423,0.168333,0.000000
1.340000,-1.936566,0.619277,-1.441867,1.473650,0.835274,0.318019,1.136104,0.063061,0.948906,-1.313826,-5.813417,-1.320389,5.329124,3.367316,-18.211139,0.007059,-0.127517,0.000000,-0.651604,0.164663,0.000000
1.350000,-1.921773,0.627632,-1.438640,1.484947,0.835614,0.327439,1.123235,0.005123,0.934788,-1.259117,-5.772357,-1.502655,5.723198,4.475436,-17.960235,0.000573,-0.125889,0.000000,-0.645329,0.160722,0.000000
1.360000,-1.906867,0.635987,-1.435319,1.496117,0.835378,0.336709,1.110935,-0.052359,0.918878,-1.200458,-5.722238,-1.678610,6.081908,5.577726,-17.621582,-0.005843,-0.124305,0.000000,-0.637613,0.156167,0.000000
1.370000,-1.891851,0.644337,-1.431906,1.507167,0.834569,0.345811,1.099244,-0.109282,0.901196,-1.136844,-5.660587,-1.858576,6.562647,6.714535,-17.973275,-0.012174,-0.122768,0.000000,-0.628204,0.151040,-0.000000
1.380000,-1.876725,0.652677,-1.428404,1.518104,0.833194,0.354727,1.088205,-0.165537,0.881739,-1.070843,-5.588741,-2.029725,6.631404,7.648202,-16.234970,-0.018402,-0.121285,0.000000,-0.617296,0.145461,0.000000
1.390000,-1.861489,0.660999,-1.424813,1.528934,0.831261,0.363440,1.077834,-0.221025,0.860637,-1.002792,-5.507078,-2.190960,7.049825,8.711221,-16.395859,-0.024515,-0.119860,0.000000,-0.604990,0.139471,-0.000000
1.400000,-1.846146,0.669300,-1.421136,1.539663,0.828777,0.371934,1.068165,-0.275643,0.837906,-0.930572,-5.414923,-2.354137,7.315163,9.679996,-15.839899,-0.030497,-0.118496,0.000000,-0.591226,0.133008,-0.000000
1.410000,-1.830696,0.677573,-1.417375,1.550299,0.825751,0.380193,1.059228,-0.329299,0.813589,-0.856441,-5.314940,-2.508072,7.553306,10.579565,-15.228594,-0.036336,-0.117199,0.000000,-0.576376,0.126188,-0.000000
1.420000,-1.815140,0.685813,-1.413533,1.560850,0.822194,0.388201,1.051047,-0.381890,0.787743,-0.779168,-5.200992,-2.661219,7.851007,11.940488,-15.113161,-0.042018,-0.115972,0.000000,-0.559783,0.119001,-0.000000
1.430000,-1.799480,0.694015,-1.409612,1.571323,0.818117,0.395943,1.043649,-0.433303,0.760401,-0.700473,-5.081784,-2.804310,7.881631,11.885259,-13.489796,-0.047530,-0.114818,0.000000,-0.542496,0.111530,0.000000
1.440000,-1.783714,0.702174,-1.405615,1.581726,0.813532,0.403405,1.037041,-0.483513,0.731695,-0.620716,-4.958144,-2.936567,8.110457,13.099180,-13.239037,-0.052867,-0.113740,0.000000,-0.524667,0.103823,0.000000
1.450000,-1.767845,0.710284,-1.401544,1.592067,0.808451,0.410572,1.031243,-0.532420,0.701672,-0.538758,-4.822211,-3.066578,8.230260,13.815537,-12.475759,-0.058018,-0.112740,0.000000,-0.505439,0.095876,0.000000
1.460000,-1.751873,0.718341,-1.397404,1.602353,0.802888,0.417434,1.026262,-0.579945,0.670393,-0.457443,-4.681839,-3.188063,8.290329,14.473139,-11.712980,-0.062974,-0.111819,0.000000,-0.485756,0.087933,-0.000000
1.470000,-1.735798,0.726340,-1.393197,1.612595,0.796857,0.423976,1.022116,-0.626018,0.637945,-0.370665,-4.530878,-3.299790,8.806688,15.494850,-10.730185,-0.067729,-0.110980,0.000000,-0.465006,0.079334,0.000000
1.480000,-1.719621,0.734277,-1.388926,1.622799,0.790373,0.430189,1.018837,-0.670554,0.604419,-0.286736,-4.376642,-3.404728,7.965735,15.336820,-10.257296,-0.072274,-0.110227,0.000000,-0.444014,0.071024,0.000000
1.490000,-1.703342,0.742147,-1.384594,1.632974,0.783451,0.436061,1.016368,-0.713544,0.569872,-0.206334,-4.219958,-3.502824,8.365117,16.208799,-9.256652,-0.076609,-0.109555,0.000000,-0.422905,0.063077,-0.000000
1.500000,-1.686962,0.749945,-1.380206,1.643129,0.776108,0.441583,1.014729,-0.754920,0.534398,-0.121715,-4.054493,-3.590683,8.298751,16.658303,-8.415461,-0.080729,-0.108964,0.000000,-0.401062,0.054636,0.000000
1.510000,-1.670480,0.757667,-1.375764,1.653271,0.768359,0.446747,1.013923,-0.794630,0.498084,-0.039695,-3.886926,-3.670823,8.205640,17.045720,-7.562341,-0.084631,-0.108457,0.000000,-0.379221,0.046466,-0.000000
1.520000,-1.653897,0.765311,-1.371272,1.663410,0.760221,0.451543,1.013940,-0.832630,0.461014,0.043267,-3.711920,-3.741457,8.279231,17.752817,-6.610616,-0.088311,-0.108032,0.000000,-0.356861,0.038175,-0.000000
1.530000,-1.637212,0.772870,-1.366734,1.673553,0.751712,0.455965,1.014779,-0.868867,0.423281,0.123638,-3.536116,-3.804013,7.786767,17.393092,-5.901628,-0.091769,-0.107690,0.000000,-0.334705,0.030158,-0.000000
1.540000,-1.620425,0.780344,-1.362154,1.683708,0.742849,0.460006,1.016402,-0.903354,0.384960,0.200978,-3.360315,-3.858530,7.779840,17.953892,-4.954158,-0.095007,-0.107425,0.000000,-0.312854,0.022461,-0.000000
1.550000,-1.603537,0.787726,-1.357535,1.693883,0.733651,0.463662,1.018800,-0.936051,0.346143,0.278263,-3.178877,-3.903511,7.569296,18.130321,-4.089888,-0.098025,-0.107239,0.000000,-0.290750,0.014757,-0.000000
1.560000,-1.586548,0.795016,-1.352882,1.704087,0.724134,0.466928,1.021956,-0.966935,0.306918,0.352540,-2.997863,-3.940096,7.332118,18.247226,-3.227840,-0.100823,-0.107128,0.000000,-0.269036,0.007367,0.000000
1.570000,-1.569456,0.802208,-1.348198,1.714325,0.714318,0.469799,1.025847,-0.995990,0.267370,0.425283,-2.812416,-3.968091,7.163009,18.656112,-2.373414,-0.103405,-0.107090,0.000000,-0.247220,0.000133,-0.000000
1.580000,-1.552261,0.809301,-1.343487,1.724606,0.704221,0.472274,1.030450,-1.023190,0.227584,0.494685,-2.628639,-3.987614,6.711711,18.085545,-1.533279,-0.105770,-0.107124,0.000000,-0.225943,-0.006758,-0.000000
1.590000,-1.534963,0.816292,-1.338754,1.734936,0.693860,0.474351,1.035728,-1.048572,0.187645,0.560428,-2.447267,-3.998797,6.482521,18.360391,-0.705717,-0.107926,-0.107225,0.000000,-0.205279,-0.013278,0.000000
1.600000,-1.517562,0.823177,-1.334002,1.745323,0.683255,0.476027,1.041652,-1.072123,0.147636,0.623839,-2.263113,-4.001792,6.146175,18.284115,0.102858,-0.109875,-0.107390,0.000000,-0.184698,-0.019567,-0.000000
1.610000,-1.500057,0.829956,-1.329235,1.755771,0.672424,0.477303,1.048188,-1.093844,0.107630,0.682734,-2.081326,-3.998134,5.774698,18.163558,0.863769,-0.111622,-0.107617,0.000000,-0.164709,-0.025392,0.000000
1.620000,-1.482446,0.836625,-1.324457,1.766288,0.661385,0.478180,1.055306,-1.113747,0.067717,0.740601,-1.899087,-3.982398,5.654410,18.182410,2.047606,-0.113170,-0.107902,0.000000,-0.145079,-0.031171,-0.000000
1.630000,-1.464731,0.843183,-1.319672,1.776879,0.650155,0.478658,1.062980,-1.131836,0.027996,0.792800,-1.719806,-3.962133,4.777860,17.664218,1.993792,-0.114525,-0.108242,0.000000,-0.126067,-0.036360,-0.000000
1.640000,-1.446909,0.849628,-1.314885,1.787550,0.638754,0.478741,1.071140,-1.148155,-0.011514,0.838954,-1.544018,-3.937927,4.592593,17.582663,3.076529,-0.115694,-0.108631,0.000000,-0.107709,-0.040927,0.000000
1.650000,-1.428979,0.855958,-1.310099,1.798304,0.627198,0.478429,1.079756,-1.162718,-0.050722,0.883398,-1.369090,-3.902688,4.151433,17.301407,3.733041,-0.116681,-0.109066,0.000000,-0.089806,-0.045391,-0.000000
1.660000,-1.410942,0.862171,-1.305318,1.809146,0.615505,0.477727,1.088788,-1.175550,-0.089555,0.922130,-1.197891,-3.863053,3.694778,16.984890,4.354895,-0.117492,-0.109543,0.000000,-0.072563,-0.049288,0.000000
1.670000,-1.392796,0.868267,-1.300546,1.820081,0.603693,0.476639,1.098192,-1.186683,-0.127949,0.958194,-1.029022,-3.814168,3.417581,16.732753,5.255218,-0.118134,-0.110058,0.000000,-0.055880,-0.052983,0.000000
1.680000,-1.374540,0.874245,-1.295786,1.831111,0.591777,0.475170,1.107932,-1.196145,-0.165827,0.988381,-0.864405,-3.761449,2.615589,16.183916,5.277940,-0.118612,-0.110608,0.000000,-0.039872,-0.056107,-0.000000
1.690000,-1.356174,0.880102,-1.291043,1.842240,0.579775,0.473325,1.117938,-1.203987,-0.203169,1.012482,-0.704414,-3.705461,2.303485,15.861010,6.076605,-0.118934,-0.111186,0.000000,-0.024554,-0.058646,0.000000
1.700000,-1.337695,0.885840,-1.286321,1.853471,0.567703,0.471109,1.128173,-1.210244,-0.239907,1.033592,-0.547710,-3.641419,1.818725,15.424509,6.563322,-0.119105,-0.111789,0.000000,-0.009832,-0.060963,0.000000
1.710000,-1.319104,0.891456,-1.281623,1.864804,0.555575,0.468529,1.138597,-1.214958,-0.275989,1.050545,-0.395997,-3.574422,1.361903,14.960891,7.004514,-0.119133,-0.112413,0.000000,0.004202,-0.062895,0.000000
1.720000,-1.300399,0.896951,-1.276952,1.876243,0.543408,0.465591,1.149151,-1.218176,-0.311367,1.058892,-0.248147,-3.499847,0.511948,14.561081,7.735039,-0.119023,-0.113053,0.000000,0.017616,-0.064071,0.000000
1.730000,-1.281579,0.902324,-1.272312,1.887787,0.531217,0.462304,1.159769,-1.219940,-0.345981,1.065076,-0.105776,-3.423401,0.731548,13.908663,7.542796,-0.118783,-0.113703,0.000000,0.030342,-0.065062,0.000000
1.740000,-1.262643,0.907576,-1.267707,1.899439,0.519014,0.458674,1.170448,-1.220311,-0.379832,1.069402,0.030868,-3.345691,-0.071920,13.462324,8.163864,-0.118419,-0.114363,0.000000,0.042380,-0.065894,0.000000
1.750000,-1.243590,0.912705,-1.263139,1.911196,0.506815,0.454710,1.181126,-1.219336,-0.412871,1.065401,0.163036,-3.261703,-0.521964,12.924562,8.457450,-0.117937,-0.115028,0.000000,0.053802,-0.066005,0.000000
1.760000,-1.224418,0.917712,-1.258614,1.923061,0.494632,0.450420,1.191749,-1.217067,-0.445066,1.058521,0.290095,-3.176933,-0.967435,12.387825,8.701362,-0.117345,-0.115692,0.000000,0.064629,-0.065866,-0.000000
1.770000,-1.205128,0.922597,-1.254132,1.935031,0.482478,0.445812,1.202272,-1.213561,-0.476385,1.045019,0.409862,-3.085856,-1.620903,11.658472,9.303195,-0.116648,-0.116352,0.000000,0.074603,-0.065187,0.000000
1.780000,-1.185717,0.927362,-1.249698,1.947106,0.470364,0.440895,1.212640,-1.208883,-0.506786,1.028454,0.525218,-2.995288,-1.687624,11.414358,8.798211,-0.115854,-0.117004,0.000000,0.084094,-0.064235,0.000000
1.790000,-1.166185,0.932005,-1.245315,1.959283,0.458304,0.435679,1.222832,-1.203070,-0.536296,1.009047,0.636216,-2.905866,-2.304508,10.688998,9.287108,-0.114967,-0.117645,0.000000,0.093124,-0.063027,-0.000000
1.800000,-1.146531,0.936528,-1.240986,1.971562,0.446307,0.430172,1.232798,-1.196185,-0.564883,0.983337,0.739791,-2.811414,-2.724020,10.120393,9.391684,-0.113994,-0.118271,0.000000,0.101344,-0.061309,-0.000000
1.810000,-1.126754,0.940931,-1.236713,1.983938,0.434383,0.424384,1.242485,-1.188289,-0.592527,0.953447,0.838672,-2.717313,-3.153099,9.553758,9.471404,-0.112942,-0.118878,0.000000,0.109085,-0.059225,-0.000000
1.820000,-1.106852,0.945216,-1.232499,1.996410,0.422544,0.418325,1.251860,-1.179439,-0.619223,0.921221,0.929927,-2.621648,-3.386967,8.795607,9.609731,-0.111815,-0.119462,0.000000,0.116065,-0.056973,0.000000
1.830000,-1.086825,0.949383,-1.228347,2.008974,0.410798,0.412003,1.260891,-1.169704,-0.644961,0.883718,1.016651,-2.526201,-4.114736,8.552450,9.473277,-0.110622,-0.120023,0.000000,0.122599,-0.054258,0.000000
1.840000,-1.066672,0.953432,-1.224260,2.021627,0.399153,0.405429,1.269516,-1.159120,-0.669750,0.840916,1.098987,-2.431333,-4.346356,7.815395,9.542675,-0.109365,-0.120553,0.000000,0.128713,-0.051076,-0.000000
1.850000,-1.046393,0.957366,-1.220239,2.034363,0.387618,0.398611,1.277704,-1.147751,-0.693585,0.796007,1.173814,-2.335845,-4.730137,7.249574,9.503893,-0.108050,-0.121050,0.000000,0.134114,-0.047742,-0.000000
1.860000,-1.025985,0.961185,-1.216288,2.047179,0.376200,0.391560,1.285426,-1.135660,-0.716469,0.747828,1.243642,-2.241133,-5.074790,6.684581,9.440953,-0.106684,-0.121512,0.000000,0.139059,-0.044130,-0.000000
1.870000,-1.005449,0.964890,-1.212409,2.060070,0.364907,0.384285,1.292636,-1.122900,-0.738410,0.692982,1.307226,-2.147049,-5.725563,6.064384,9.365231,-0.105271,-0.121935,0.000000,0.143431,-0.039927,-0.000000
1.880000,-0.984783,0.968483,-1.208603,2.073030,0.353744,0.376795,1.299283,-1.109532,-0.759414,0.636860,1.365605,-2.054045,-5.491045,5.613528,9.231278,-0.103817,-0.122315,0.000000,0.147346,-0.035631,0.000000
1.890000,-0.963988,0.971966,-1.204874,2.086054,0.342718,0.369100,1.305371,-1.095605,-0.779495,0.579845,1.418891,-1.962367,-6.077364,5.013321,9.107213,-0.102326,-0.122652,0.000000,0.150820,-0.031271,0.000000
1.900000,-0.943062,0.975338,-1.201222,2.099136,0.331834,0.361208,1.310857,-1.081175,-0.798666,0.516789,1.466164,-1.872028,-6.363592,4.474724,8.950464,-0.100802,-0.122942,0.000000,0.153768,-0.026370,0.000000
1.910000,-0.922005,0.978603,-1.197650,2.112269,0.321096,0.353129,1.315703,-1.066296,-0.816942,0.452040,1.508827,-1.783641,-6.638858,3.955377,8.768797,-0.099251,-0.123181,0.000000,0.156333,-0.021323,-0.000000
1.920000,-0.900817,0.981761,-1.194160,2.125447,0.310509,0.344872,1.319884,-1.051024,-0.834341,0.383557,1.544349,-1.696300,-7.001617,3.251786,8.652540,-0.097678,-0.123369,0.000000,0.158274,-0.015950,0.000000
1.930000,-0.879496,0.984814,-1.190753,2.138664,0.300077,0.336445,1.323368,-1.035421,-0.850877,0.313181,1.576020,-1.611567,-7.069343,3.087536,8.290083,-0.096087,-0.123501,0.000000,0.159916,-0.010403,-0.000000
1.940000,-0.858043,0.987763,-1.187432,2.151912,0.289802,0.327858,1.326142,-1.019515,-0.866582,0.241140,1.604096,-1.529667,-7.390156,2.427644,8.131540,-0.094480,-0.123577,0.000000,0.161283,-0.004696,-0.000000
1.950000,-0.836458,0.990610,-1.184197,2.165185,0.279687,0.319117,1.328179,-1.003363,-0.881475,0.165887,1.625480,-1.449358,-7.604179,1.953087,7.883907,-0.092863,-0.123595,0.000000,0.162080,0.001299,-0.000000
1.960000,-0.814739,0.993357,-1.181050,2.178473,0.269735,0.310231,1.329456,-0.987017,-0.895579,0.089084,1.643064,-1.371743,-7.800747,1.492518,7.626655,-0.091240,-0.123551,0.000000,0.162585,0.007444,0.000000
1.970000,-0.792888,0.996005,-1.177992,2.191771,0.259947,0.301208,1.329951,-0.970523,-0.908920,0.009500,1.654691,-1.296976,-8.068810,0.906999,7.336422,-0.089613,-0.123444,0.000000,0.162601,0.013857,-0.000000
1.980000,-0.770904,0.998557,-1.175026,2.205070,0.250325,0.292055,1.329642,-0.953934,-0.921527,-0.071302,1.662757,-1.224808,-8.087581,0.710725,7.095846,-0.087989,-0.123272,0.000000,0.162347,0.020392,-0.000000
1.990000,-0.748787,1.001012,-1.172152,2.218361,0.240869,0.282779,1.328522,-0.937279,-0.933425,-0.153110,1.667498,-1.155318,-8.316882,0.167276,6.789330,-0.086367,-0.123034,0.000000,0.161845,0.027033,-0.000000
2.000000,-0.726537,1.003375,-1.169371,2.231637,0.231580,0.273388,1.326571,-0.920604,-0.944644,-0.237209,1.666762,-1.088948,-8.455254,-0.239523,6.495169,-0.084753,-0.122729,0.000000,0.160899,0.033906,0.000000
2.010000,-0.704154,1.005645,-1.166684,2.244890,0.222457,0.263889,1.323775,-0.903954,-0.955213,-0.322238,1.662686,-1.025357,-8.579044,-0.630399,6.197237,-0.083150,-0.122354,0.000000,0.159704,0.040884,0.000000
2.020000,-0.681639,1.007824,-1.164093,2.258110,0.213500,0.254286,1.320120,-0.887368,-0.965163,-0.409027,1.653675,-0.965247,-8.746734,-1.113987,5.848318,-0.081561,-0.121908,0.000000,0.158115,0.048051,-0.000000
2.030000,-0.658992,1.009915,-1.161599,2.271289,0.204709,0.244587,1.315592,-0.870890,-0.974527,-0.496503,1.641617,-0.907894,-8.745221,-1.293626,5.622583,-0.079988,-0.121389,0.000000,0.156301,0.055305,0.000000
2.040000,-0.636213,1.011919,-1.159202,2.284419,0.196082,0.234798,1.310189,-0.854544,-0.983330,-0.584493,1.626728,-0.853290,-8.880934,-1.737727,5.273723,-0.078435,-0.120798,0.000000,0.154279,0.062631,-0.000000
2.050000,-0.613304,1.013837,-1.156903,2.297490,0.187618,0.224922,1.303897,-0.838371,-0.991605,-0.673825,1.607384,-0.802214,-8.953447,-2.073053,4.965751,-0.076904,-0.120132,0.000000,0.151904,0.070115,0.000000
2.060000,-0.590264,1.015672,-1.154704,2.310494,0.179314,0.214967,1.296711,-0.822405,-0.999383,-0.763602,1.585241,-0.753891,-9.013915,-2.393510,4.660731,-0.075398,-0.119391,0.000000,0.149321,0.077667,0.000000
2.070000,-0.567094,1.017424,-1.152604,2.323421,0.171169,0.204936,1.288623,-0.806680,-1.006696,-0.854179,1.559191,-0.709355,-9.087242,-2.775426,4.284823,-0.073919,-0.118574,0.000000,0.146433,0.085333,0.000000
2.080000,-0.543796,1.019096,-1.150605,2.336263,0.163179,0.194835,1.279626,-0.791230,-1.013578,-0.945052,1.530594,-0.667390,-9.085135,-2.940560,4.110031,-0.072470,-0.117680,0.000000,0.143355,0.093055,0.000000
2.090000,-0.520369,1.020688,-1.148708,2.349011,0.155343,0.184666,1.269721,-0.776076,-1.020052,-1.036097,1.499637,-0.627907,-9.134682,-3.287970,3.748931,-0.071052,-0.116708,0.000000,0.140101,0.100822,0.000000
2.100000,-0.496816,1.022203,-1.146912,2.361655,0.147657,0.174435,1.258903,-0.761249,-1.026149,-1.127607,1.465210,-0.592070,-9.153294,-3.556102,3.457685,-0.069669,-0.115658,0.000000,0.136576,0.108673,-0.000000
2.110000,-0.473137,1.023642,-1.145219,2.374186,0.140117,0.164144,1.247169,-0.746779,-1.031901,-1.219214,1.428465,-0.558675,-9.163631,-3.811858,3.175392,-0.068321,-0.114529,0.000000,0.132875,0.116563,0.000000
2.120000,-0.449333,1.025006,-1.143630,2.386595,0.132720,0.153798,1.234518,-0.732690,-1.037336,-1.310824,1.388820,-0.528973,-9.159733,-4.094715,2.811940,-0.067012,-0.113321,0.000000,0.128951,0.124497,-0.000000
2.130000,-0.425405,1.026297,-1.142143,2.398873,0.125462,0.143399,1.220952,-0.719009,-1.042487,-1.402439,1.347037,-0.501449,-9.162063,-4.259275,2.695741,-0.065743,-0.112033,0.000000,0.124862,0.132459,-0.000000
2.140000,-0.401356,1.027516,-1.140762,2.411011,0.118338,0.132949,1.206470,-0.705756,-1.047371,-1.493983,1.303260,-0.475955,-9.142496,-4.514739,2.358408,-0.064515,-0.110666,0.000000,0.120619,0.140441,0.000000
2.150000,-0.377185,1.028664,-1.139485,2.423000,0.111345,0.122452,1.191073,-0.692953,-1.052018,-1.585289,1.256953,-0.453859,-9.120294,-4.724384,2.108763,-0.063331,-0.109219,0.000000,0.116179,0.148443,0.000000
2.160000,-0.352896,1.029743,-1.138313,2.434830,0.104478,0.111909,1.174765,-0.680623,-1.056455,-1.676387,1.208714,-0.433819,-9.091714,-4.924390,1.870032,-0.062192,-0.107691,0.000000,0.111587,0.156453,-0.000000
2.170000,-0.328489,1.030754,-1.137247,2.446492,0.097731,0.101323,1.157547,-0.668786,-1.060705,-1.767041,1.158475,-0.416706,-9.044391,-5.119165,1.584457,-0.061100,-0.106083,0.000000,0.106841,0.164457,0.000000
2.180000,-0.303967,1.031698,-1.136286,2.457977,0.091100,0.090696,1.139425,-0.657460,-1.064795,-1.857389,1.106418,-0.401460,-9.024366,-5.290563,1.467701,-0.060056,-0.104396,0.000000,0.101950,0.172457,-0.000000
2.190000,-0.279330,1.032576,-1.135433,2.469277,0.084580,0.080028,1.120401,-0.646663,-1.068740,-1.947381,1.052642,-0.387918,-8.966770,-5.465548,1.212439,-0.059061,-0.102628,0.000000,0.096921,0.180448,0.000000
2.200000,-0.254582,1.033390,-1.134686,2.480382,0.078165,0.069321,1.100479,-0.636413,-1.072562,-2.036763,0.997160,-0.376910,-8.915029,-5.626971,1.021674,-0.058118,-0.100781,0.000000,0.091758,0.188412,0.000000
2.210000,-0.229723,1.034140,-1.134047,2.491284,0.071850,0.058577,1.079667,-0.626725,-1.076283,-2.125684,0.940042,-0.367565,-8.859184,-5.781449,0.843379,-0.057227,-0.098854,0.000000,0.086463,0.196355,-0.000000
2.220000,-0.204757,1.034827,-1.133515,2.501973,0.065629,0.047796,1.057968,-0.617616,-1.079920,-2.213847,0.881685,-0.360053,-8.781711,-5.901979,0.667603,-0.056389,-0.096847,0.000000,0.081070,0.204249,-0.000000
2.230000,-0.179685,1.035453,-1.133091,2.512440,0.059496,0.036979,1.035391,-0.609097,-1.083489,-2.301494,0.821750,-0.354033,-8.747507,-6.084018,0.538987,-0.055606,-0.094762,0.000000,0.075548,0.212114,-0.000000
2.240000,-0.154509,1.036017,-1.132775,2.522678,0.053445,0.026126,1.011940,-0.601186,-1.087005,-2.388603,0.760299,-0.349345,-8.664583,-6.191531,0.395220,-0.054878,-0.092598,0.000000,0.069899,0.219944,-0.000000
2.250000,-0.129232,1.036522,-1.132568,2.532676,0.047470,0.015239,0.987622,-0.593894,-1.090481,-2.474854,0.697828,-0.346025,-8.594053,-6.314598,0.277990,-0.054208,-0.090357,0.000000,0.064169,0.227710,-0.000000
2.260000,-0.103856,1.036967,-1.132471,2.542427,0.041565,0.004317,0.962445,-0.587234,-1.093929,-2.560567,0.633948,-0.343752,-8.523017,-6.432680,0.177629,-0.053595,-0.088038,0.000000,0.058321,0.235437,-0.000000
2.270000,-0.078384,1.037353,-1.132482,2.551922,0.035723,-0.006640,0.936415,-0.581217,-1.097359,-2.645075,0.569451,-0.342431,-8.402552,-6.492338,0.091365,-0.053042,-0.085642,0.000000,0.052426,0.243063,-0.000000
2.280000,-0.052819,1.037682,-1.132603,2.561153,0.029938,-0.017630,0.909545,-0.575850,-1.100780,-2.729124,0.503562,-0.341827,-8.407685,-6.685233,0.032621,-0.052547,-0.083170,0.000000,0.046412,0.250652,-0.000000
2.290000,-0.027162,1.037952,-1.132835,2.570110,0.024204,-0.028655,0.881834,-0.571150,-1.104197,-2.812728,0.436310,-0.341752,-8.288329,-6.737207,-0.016333,-0.052114,-0.080622,0.000000,0.040281,0.258204,0.000000
2.300000,-0.001417,1.038166,-1.133177,2.578787,0.018513,-0.039714,0.853295,-0.567125,-1.107616,-2.895095,0.368609,-0.342072,-8.209225,-6.828658,-0.042689,-0.051742,-0.077999,0.000000,0.034115,0.265644,-0.000000
2.310000,0.024413,1.038323,-1.133629,2.587174,0.012859,-0.050807,0.823933,-0.563782,-1.111038,-2.977025,0.299687,-0.342325,-8.132087,-6.916382,-0.044722,-0.051432,-0.075302,0.000000,0.027842,0.273043,0.000000
2.320000,0.050325,1.038423,-1.134193,2.595263,0.007235,-0.061935,0.793760,-0.561131,-1.114466,-3.057323,0.230655,-0.343270,-7.970482,-6.926275,-0.101679,-0.051185,-0.072531,0.000000,0.021567,0.280294,-0.000000
2.330000,0.076317,1.038467,-1.134868,2.603046,0.001634,-0.073097,0.762788,-0.559174,-1.117901,-3.137337,0.160402,-0.343466,-8.033503,-7.124350,0.067059,-0.051001,-0.069689,0.000000,0.015182,0.287511,-0.000000
2.340000,0.102385,1.038456,-1.135655,2.610516,-0.003951,-0.084293,0.731014,-0.557927,-1.121331,-3.217116,0.088941,-0.342649,-7.878430,-7.129369,0.060473,-0.050882,-0.066774,0.000000,0.008687,0.294697,0.000000
2.350000,0.128526,1.038389,-1.136554,2.617664,-0.009527,-0.095523,0.698451,-0.557394,-1.124755,-3.295273,0.017515,-0.341847,-7.796131,-7.191946,0.142760,-0.050827,-0.063788,0.000000,0.002201,0.301732,0.000000
2.360000,0.154737,1.038265,-1.137566,2.624482,-0.015101,-0.106788,0.665109,-0.557581,-1.128162,-3.373059,-0.054931,-0.339340,-7.714925,-7.250651,0.256289,-0.050838,-0.060732,0.000000,-0.004379,0.308719,-0.000000
2.370000,0.181015,1.038086,-1.138690,2.630963,-0.020681,-0.118087,0.630997,-0.558491,-1.131546,-3.449144,-0.127059,-0.337625,-7.546381,-7.217963,0.193415,-0.050914,-0.057606,0.000000,-0.010921,0.315553,-0.000000
2.380000,0.207355,1.037852,-1.139927,2.637100,-0.026273,-0.129419,0.596127,-0.560125,-1.134905,-3.524919,-0.200191,-0.333235,-7.609703,-7.408626,0.691308,-0.051057,-0.054412,0.000000,-0.017560,0.322340,-0.000000
2.390000,0.233755,1.037561,-1.141278,2.642883,-0.031886,-0.140784,0.560499,-0.562498,-1.138200,-3.600429,-0.274318,-0.325809,-7.447078,-7.371070,0.693581,-0.051266,-0.051151,0.000000,-0.024298,0.329087,0.000000
2.400000,0.260212,1.037214,-1.142743,2.648307,-0.037526,-0.152183,0.524125,-0.565609,-1.141423,-3.674236,-0.347965,-0.318408,-7.358829,-7.401433,0.893913,-0.051542,-0.047823,0.000000,-0.030985,0.335678,-0.000000
2.410000,0.286720,1.036810,-1.144322,2.653363,-0.043200,-0.163613,0.487016,-0.569461,-1.144557,-3.747508,-0.422354,-0.307926,-7.268548,-7.426674,1.118489,-0.051886,-0.044429,0.000000,-0.037747,0.342207,0.000000
2.420000,0.313278,1.036350,-1.146016,2.658045,-0.048917,-0.175073,0.449180,-0.574053,-1.147581,-3.819357,-0.496028,-0.296779,-7.126350,-7.353482,1.199635,-0.052297,-0.040970,0.000000,-0.044440,0.348605,-0.000000
2.430000,0.339880,1.035832,-1.147824,2.662345,-0.054684,-0.186564,0.410630,-0.579384,-1.150480,-3.890562,-0.570378,-0.282073,-7.114947,-7.516393,1.747510,-0.052775,-0.037447,0.000000,-0.051204,0.354933,-0.000000
2.440000,0.366523,1.035256,-1.149747,2.666255,-0.060508,-0.198082,0.371371,-0.585463,-1.153208,-3.961129,-0.645379,-0.263490,-6.971886,-7.434987,1.886301,-0.053321,-0.033861,0.000000,-0.058040,0.361196,-0.000000
2.450000,0.393204,1.034621,-1.151785,2.669770,-0.066396,-0.209627,0.331413,-0.592287,-1.155746,-4.030208,-0.719445,-0.243553,-6.869007,-7.423846,2.190223,-0.053935,-0.030213,0.000000,-0.064791,0.367327,-0.000000
2.460000,0.419917,1.033928,-1.153940,2.672881,-0.072356,-0.221197,0.290769,-0.599854,-1.158067,-4.098455,-0.793815,-0.219952,-6.762376,-7.404262,2.509635,-0.054617,-0.026504,0.000000,-0.071581,0.373383,0.000000
2.470000,0.446660,1.033174,-1.156209,2.675583,-0.078395,-0.232788,0.249449,-0.608159,-1.160136,-4.165282,-0.867089,-0.193515,-6.619064,-7.291320,2.803263,-0.055367,-0.022735,0.000000,-0.078281,0.379315,-0.000000
2.480000,0.473428,1.032360,-1.158595,2.677868,-0.084521,-0.244398,0.207466,-0.617196,-1.161924,-4.231172,-0.940498,-0.163357,-6.558493,-7.389987,3.231725,-0.056183,-0.018907,0.000000,-0.085007,0.385171,-0.000000
2.490000,0.500216,1.031483,-1.161097,2.679730,-0.090742,-0.256025,0.164829,-0.626970,-1.163390,-4.296096,-1.013982,-0.129282,-6.408521,-7.261527,3.563067,-0.057067,-0.015020,0.000000,-0.091757,0.390952,0.000000
2.500000,0.527021,1.030544,-1.163716,2.681162,-0.097063,-0.267665,0.121550,-0.637471,-1.164499,-4.359467,-1.086051,-0.091849,-6.281475,-7.192838,3.948657,-0.058018,-0.011075,0.000000,-0.098393,0.396612,-0.000000
2.510000,0.553838,1.029542,-1.166451,2.682159,-0.103493,-0.279314,0.077643,-0.648690,-1.165213,-4.421748,-1.157728,-0.050224,-6.149776,-7.110561,4.350489,-0.059035,-0.007074,0.000000,-0.105014,0.402195,-0.000000
2.520000,0.580663,1.028474,-1.169302,2.682713,-0.110039,-0.290968,0.033121,-0.660620,-1.165492,-4.482220,-1.227939,-0.005051,-5.966703,-6.957790,4.713562,-0.060118,-0.003018,0.000000,-0.111522,0.407644,0.000000
2.530000,0.607491,1.027340,-1.172270,2.682819,-0.116708,-0.302622,-0.011998,-0.673247,-1.165299,-4.541544,-1.297435,0.044664,-5.897459,-6.939685,5.232372,-0.061265,0.001093,0.000000,-0.117992,0.413024,-0.000000
2.540000,0.634317,1.026140,-1.175355,2.682471,-0.123507,-0.314272,-0.057706,-0.686566,-1.164583,-4.599675,-1.366094,0.099084,-5.704004,-6.760115,5.626103,-0.062477,0.005258,0.000000,-0.124416,0.418339,-0.000000
2.550000,0.661138,1.024870,-1.178556,2.681663,-0.130442,-0.325912,-0.103984,-0.700562,-1.163304,-4.655795,-1.432825,0.157459,-5.541755,-6.612051,6.077902,-0.063753,0.009476,0.000000,-0.130695,0.423519,-0.000000
2.560000,0.687949,1.023530,-1.181873,2.680390,-0.137520,-0.337536,-0.150817,-0.715218,-1.161417,-4.710497,-1.498138,0.220811,-5.371749,-6.443837,6.543697,-0.065091,0.013746,0.000000,-0.136882,0.428628,-0.000000
2.570000,0.714745,1.022119,-1.185306,2.678645,-0.144748,-0.349138,-0.198186,-0.730518,-1.158876,-4.762964,-1.561604,0.287900,-5.144672,-6.249456,6.924449,-0.066490,0.018066,0.000000,-0.142935,0.433598,0.000000
2.580000,0.741520,1.020635,-1.188855,2.676424,-0.152133,-0.360711,-0.246071,-0.746443,-1.155641,-4.813871,-1.623130,0.360353,-5.035690,-6.052259,7.569044,-0.067949,0.022436,0.000000,-0.148858,0.438498,-0.000000
2.590000,0.768272,1.019076,-1.192520,2.673722,-0.159679,-0.372248,-0.294459,-0.762974,-1.151651,-4.863144,-1.682509,0.438315,-4.792159,-5.816559,7.974916,-0.069467,0.026856,0.000000,-0.154638,0.443332,-0.000000
2.600000,0.794993,1.017441,-1.196300,2.670534,-0.167394,-0.383742,-0.343325,-0.780085,-1.146862,-4.909887,-1.739414,0.520288,-4.578898,-5.564117,8.470085,-0.071041,0.031324,0.000000,-0.160239,0.448025,-0.000000
2.610000,0.821681,1.015727,-1.200195,2.666854,-0.175283,-0.395183,-0.392650,-0.797752,-1.141225,-4.954582,-1.793500,0.608023,-4.352124,-5.284299,8.977716,-0.072671,0.035839,0.000000,-0.165646,0.452632,-0.000000
2.620000,0.848329,1.013934,-1.204204,2.662679,-0.183351,-0.406563,-0.442409,-0.815948,-1.134693,-4.996831,-1.845342,0.698934,-4.101088,-5.045955,9.301606,-0.074354,0.040400,0.000000,-0.170897,0.457119,-0.000000
2.630000,0.874933,1.012060,-1.208326,2.658005,-0.191603,-0.417874,-0.492578,-0.834647,-1.127225,-5.036677,-1.893622,0.796094,-3.865871,-4.604629,10.133484,-0.076088,0.045006,0.000000,-0.175898,0.461508,-0.000000
2.640000,0.901487,1.010102,-1.212561,2.652826,-0.200045,-0.429104,-0.543134,-0.853808,-1.118749,-5.073984,-1.938039,0.899642,-3.587371,-4.308808,10.478249,-0.077871,0.049657,0.000000,-0.180627,0.465800,-0.000000
2.650000,0.927987,1.008058,-1.216908,2.647141,-0.208681,-0.440245,-0.594048,-0.873398,-1.109222,-5.108422,-1.979419,1.006482,-3.303380,-3.928546,10.986639,-0.079700,0.054350,0.000000,-0.185143,0.469960,-0.000000
2.660000,0.954428,1.005927,-1.221366,2.640944,-0.217514,-0.451285,-0.645292,-0.893380,-1.098596,-5.139754,-2.016231,1.119685,-2.997943,-3.513356,11.501999,-0.081573,0.059086,0.000000,-0.189333,0.473992,0.000000
2.670000,0.980805,1.003707,-1.225933,2.634234,-0.226550,-0.462213,-0.696836,-0.913715,-1.086824,-5.168658,-2.050349,1.235123,-2.744544,-3.225514,11.730158,-0.083486,0.063862,0.000000,-0.193341,0.477944,-0.000000
2.680000,1.007111,1.001396,-1.230609,2.627007,-0.235790,-0.473018,-0.748652,-0.934368,-1.073870,-5.193842,-2.078967,1.357317,-2.288309,-2.491064,12.711569,-0.085438,0.068677,0.000000,-0.196951,0.481732,0.000000
2.690000,1.033343,0.998991,-1.235393,2.619260,-0.245238,-0.483686,-0.800699,-0.955274,-1.059654,-5.215082,-2.101696,1.486372,-1.992399,-2.130695,12.950217,-0.087424,0.073531,0.000000,-0.200134,0.485352,-0.000000
2.700000,1.059495,0.996490,-1.240283,2.610992,-0.254896,-0.494206,-0.852945,-0.976391,-1.044138,-5.233324,-2.120800,1.617522,-1.617291,-1.604868,13.424322,-0.089440,0.078421,0.000000,-0.203063,0.488868,-0.000000
2.710000,1.085561,0.993892,-1.245277,2.602201,-0.264766,-0.504565,-0.905350,-0.997667,-1.027282,-5.247130,-2.133399,1.754575,-1.217173,-1.041090,13.883953,-0.091483,0.083347,0.000000,-0.205509,0.492183,-0.000000
2.720000,1.111537,0.991194,-1.250373,2.592885,-0.274850,-0.514747,-0.957880,-1.019051,-1.009040,-5.258307,-2.142733,1.894224,-0.940810,-0.693994,14.138741,-0.093550,0.088306,0.000000,-0.207745,0.495448,0.000000
2.730000,1.137417,0.988394,-1.255571,2.583043,-0.285147,-0.524741,-1.010499,-1.040496,-0.989379,-5.264325,-2.144515,2.039299,-0.257351,0.346380,14.875494,-0.095636,0.093298,0.000000,-0.209407,0.498462,-0.000000
2.740000,1.163196,0.985491,-1.260867,2.572674,-0.295660,-0.534530,-1.063147,-1.061913,-0.968235,-5.264889,-2.138286,2.189700,0.073057,0.775506,15.103003,-0.097736,0.098320,0.000000,-0.210457,0.501210,-0.000000
2.750000,1.188869,0.982480,-1.266261,2.561780,-0.306385,-0.544100,-1.115787,-1.083250,-0.945580,-5.262164,-2.127824,2.342093,0.549857,1.449541,15.467393,-0.099844,0.103371,0.000000,-0.211210,0.503868,0.000000
2.760000,1.214430,0.979362,-1.271749,2.550359,-0.317324,-0.553436,-1.168370,-1.104440,-0.921380,-5.253663,-2.108937,2.498423,1.052642,2.161010,15.794264,-0.101958,0.108447,0.000000,-0.211306,0.506234,0.000000
2.770000,1.239874,0.976133,-1.277329,2.538413,-0.328474,-0.562523,-1.220851,-1.125418,-0.895601,-5.241976,-2.086093,2.657874,1.385834,2.578109,16.089023,-0.104070,0.113548,0.000000,-0.211143,0.508544,-0.000000
2.780000,1.265196,0.972792,-1.282998,2.525942,-0.339832,-0.571343,-1.273188,-1.146129,-0.868213,-5.223825,-2.053807,2.820056,2.250613,3.888123,16.340898,-0.106178,0.118672,0.000000,-0.210218,0.510503,0.000000
2.790000,1.290391,0.969336,-1.288755,2.512950,-0.351395,-0.579882,-1.325304,-1.166460,-0.839192,-5.198885,-2.011612,2.984580,2.641489,4.387072,16.558024,-0.108271,0.123815,0.000000,-0.208485,0.512080,0.000000
2.800000,1.315454,0.965763,-1.294595,2.499437,-0.363159,-0.588121,-1.377154,-1.186348,-0.808515,-5.170095,-1.964572,3.151065,3.218252,5.191836,16.730208,-0.110346,0.128974,0.000000,-0.206398,0.513548,0.000000
2.810000,1.340378,0.962072,-1.300516,2.485408,-0.375120,-0.596046,-1.428682,-1.205716,-0.776168,-5.134370,-1.907528,3.318447,3.818540,6.027523,16.844561,-0.112396,0.134147,0.000000,-0.203473,0.514612,-0.000000
2.820000,1.365160,0.958260,-1.306515,2.470865,-0.387272,-0.603639,-1.479830,-1.224486,-0.742135,-5.094690,-1.845732,3.488772,4.227907,6.521371,17.109068,-0.114415,0.139331,0.000000,-0.200207,0.515578,-0.000000
2.830000,1.389794,0.954326,-1.312588,2.455813,-0.399608,-0.610883,-1.530550,-1.242593,-0.706396,-5.047497,-1.773125,3.658291,5.216587,8.008241,16.782726,-0.116397,0.144525,0.000000,-0.196001,0.516071,-0.000000
2.840000,1.414275,0.950268,-1.318731,2.440256,-0.412121,-0.617761,-1.580754,-1.259910,-0.668974,-4.992489,-1.689301,3.826335,5.678697,8.570136,16.921209,-0.118332,0.149721,0.000000,-0.190799,0.516051,0.000000
2.850000,1.438597,0.946083,-1.324942,2.424199,-0.424803,-0.624257,-1.630386,-1.276365,-0.629864,-4.932952,-1.600081,3.995643,6.339113,9.463277,16.827008,-0.120212,0.154918,0.000000,-0.185159,0.515859,0.000000
2.860000,1.462757,0.941771,-1.331215,2.407650,-0.437645,-0.630353,-1.679385,-1.291873,-0.589072,-4.865596,-1.499976,4.162193,7.018003,10.373455,16.660560,-0.122031,0.160111,0.000000,-0.178519,0.515130,0.000000
2.870000,1.486749,0.937330,-1.337547,2.390614,-0.450637,-0.636033,-1.727685,-1.306349,-0.546611,-4.793624,-1.394298,4.330379,7.490823,10.942742,16.784638,-0.123781,0.165297,0.000000,-0.171408,0.514223,0.000000
2.880000,1.510568,0.932758,-1.343934,2.373099,-0.463768,-0.641280,-1.775229,-1.319720,-0.502482,-4.713380,-1.277338,4.493863,8.562894,12.455000,15.896148,-0.125456,0.170473,0.000000,-0.163211,0.512696,0.000000
2.890000,1.534209,0.928054,-1.350371,2.355112,-0.477027,-0.646077,-1.821923,-1.331856,-0.456754,-4.624619,-1.148838,4.651771,9.076652,13.062990,15.858425,-0.127042,0.175630,0.000000,-0.153875,0.510497,0.000000
2.900000,1.557668,0.923217,-1.356854,2.336663,-0.490401,-0.650410,-1.867707,-1.342681,-0.409445,-4.530859,-1.014550,4.809258,9.789819,13.974566,15.445269,-0.128532,0.180765,0.000000,-0.143976,0.508028,-0.000000
2.910000,1.580941,0.918246,-1.363378,2.317761,-0.503876,-0.654261,-1.912511,-1.352109,-0.360593,-4.428762,-0.869560,4.960112,10.513028,14.882236,14.951939,-0.129917,0.185873,0.000000,-0.132964,0.504860,0.000000
2.920000,1.604022,0.913139,-1.369938,2.298417,-0.517438,-0.657616,-1.956268,-1.360053,-0.310241,-4.321675,-0.718230,5.110255,11.018823,15.517067,14.835844,-0.131189,0.190947,0.000000,-0.121296,0.501398,-0.000000
2.930000,1.626908,0.907897,-1.376529,2.278640,-0.531072,-0.660461,-1.998915,-1.366438,-0.258418,-4.205986,-0.556424,5.251783,12.122528,16.845509,13.451380,-0.132339,0.195985,0.000000,-0.108465,0.497144,-0.000000
2.940000,1.649593,0.902517,-1.383145,2.258442,-0.544761,-0.662780,-2.040357,-1.371146,-0.205239,-4.081542,-0.384129,5.383712,12.650486,17.473104,13.155375,-0.133354,0.200975,0.000000,-0.094428,0.492034,0.000000
2.950000,1.672075,0.897001,-1.389782,2.237837,-0.558489,-0.664561,-2.080531,-1.374103,-0.150750,-3.952013,-0.205876,5.512696,13.369631,18.309312,12.399304,-0.134226,0.205913,0.000000,-0.079667,0.486523,-0.000000
2.960000,1.694349,0.891348,-1.396435,2.216836,-0.572237,-0.665791,-2.119369,-1.375232,-0.095024,-3.814300,-0.018475,5.630972,14.084682,19.114551,11.557326,-0.134944,0.210791,0.000000,-0.063757,0.480139,0.000000
2.970000,1.716411,0.885556,-1.403096,2.195454,-0.585987,-0.666458,-2.156801,-1.374450,-0.038134,-3.671150,0.175836,5.746499,14.627938,19.791717,11.234290,-0.135498,0.215602,0.000000,-0.046976,0.473280,0.000000
2.980000,1.738257,0.879628,-1.409762,2.173705,-0.599720,-0.666550,-2.192765,-1.371687,0.019861,-3.520008,0.378284,5.849080,15.601051,20.693048,9.261892,-0.135879,0.220340,0.000000,-0.029049,0.465463,0.000000
2.990000,1.759884,0.873562,-1.416425,2.151604,-0.613414,-0.666058,-2.227174,-1.366858,0.078798,-3.360886,0.588554,5.937661,16.135424,21.303454,8.750007,-0.136075,0.224994,0.000000,-0.009959,0.456619,0.000000
3.000000,1.781288,0.867360,-1.423081,2.129167,-0.627050,-0.664971,-2.259967,-1.359898,0.138603,-3.196628,0.804631,6.021278,16.797535,21.954174,7.658423,-0.136076,0.229556,0.000000,0.010022,0.447188,0.000000
3.010000,1.802466,0.861021,-1.429723,2.106410,-0.640605,-0.663283,-2.291082,-1.350745,0.199171,-3.025334,1.026800,6.090198,17.436493,22.544320,6.486500,-0.135871,0.234018,0.000000,0.031078,0.436732,-0.000000
3.020000,1.823415,0.854548,-1.436345,2.083351,-0.654057,-0.660986,-2.320454,-1.339337,0.260397,-2.848170,1.256013,6.154231,18.013019,23.218107,5.951457,-0.135450,0.238370,0.000000,0.053212,0.425552,0.000000
3.030000,1.844132,0.847941,-1.442940,2.060007,-0.667384,-0.658073,-2.348024,-1.325611,0.322197,-2.664726,1.489479,6.201503,18.671983,23.462916,3.483281,-0.134803,0.242604,0.000000,0.076337,0.413289,-0.000000
3.040000,1.864614,0.841201,-1.449504,2.036397,-0.680562,-0.654541,-2.373729,-1.309536,0.384365,-2.475242,1.726505,6.231005,19.199013,24.003565,2.772085,-0.133920,0.246707,0.000000,0.100429,0.399886,-0.000000
3.050000,1.884859,0.834330,-1.456029,2.012539,-0.693567,-0.650385,-2.397513,-1.291063,0.446801,-2.280673,1.968726,6.253712,19.730234,24.357654,1.399948,-0.132791,0.250671,0.000000,0.125542,0.385664,-0.000000
3.060000,1.904864,0.827330,-1.462510,1.988453,-0.706375,-0.645604,-2.419326,-1.270158,0.509376,-2.081196,2.212615,6.258855,20.219661,24.623682,-0.029410,-0.131407,0.254485,0.000000,0.151491,0.370324,-0.000000
3.070000,1.924627,0.820203,-1.468939,1.964159,-0.718962,-0.640197,-2.439116,-1.246785,0.571958,-1.875847,2.462940,6.256206,20.785415,25.220379,-0.844278,-0.129757,0.258139,0.000000,0.178661,0.353977,0.000000
3.080000,1.944147,0.812952,-1.475311,1.939678,-0.731302,-0.634165,-2.456831,-1.220903,0.634435,-1.666846,2.712388,6.234767,21.006185,24.649855,-3.458961,-0.127832,0.261621,0.000000,0.206479,0.336510,-0.000000
3.090000,1.963420,0.805578,-1.481620,1.915030,-0.743371,-0.627510,-2.472443,-1.192546,0.696585,-1.454678,2.959905,6.193776,21.479428,25.051255,-4.401942,-0.125626,0.264920,0.000000,0.234856,0.317893,-0.000000
3.100000,1.982447,0.798085,-1.487860,1.890236,-0.755145,-0.620235,-2.485908,-1.161689,0.758287,-1.237904,3.211354,6.143761,21.808815,25.014858,-5.944495,-0.123131,0.268026,0.000000,0.264278,0.298224,0.000000
3.110000,2.001225,0.790476,-1.494023,1.865319,-0.766597,-0.612346,-2.497195,-1.128334,0.819396,-1.019150,3.459124,6.075274,22.079579,24.871133,-7.508110,-0.120339,0.270927,0.000000,0.294089,0.277464,-0.000000
3.120000,2.019753,0.782755,-1.500105,1.840299,-0.777703,-0.603850,-2.506271,-1.092484,0.879760,-0.795132,3.711678,5.995839,22.574548,25.290142,-8.619285,-0.117244,0.273611,0.000000,0.325080,0.255444,-0.000000
3.130000,2.038030,0.774923,-1.506098,1.815201,-0.788438,-0.594754,-2.513098,-1.054125,0.939249,-0.570793,3.957597,5.897850,22.280538,23.868695,-10.985854,-0.113838,0.276068,0.000000,0.356153,0.232414,-0.000000
3.140000,2.056057,0.766987,-1.511998,1.790045,-0.798778,-0.585068,-2.517689,-1.013361,0.997652,-0.346835,4.195554,5.780980,22.645000,24.047260,-12.145202,-0.110122,0.278287,0.000000,0.387139,0.208396,0.000000
3.150000,2.073831,0.758949,-1.517797,1.764855,-0.808697,-0.574805,-2.520020,-0.970202,1.054835,-0.119281,4.435375,5.652928,22.714599,23.564461,-13.704049,-0.106091,0.280257,0.000000,0.418973,0.183171,0.000000
3.160000,2.091354,0.750815,-1.523492,1.739652,-0.818174,-0.563976,-2.520082,-0.924689,1.110652,0.106809,4.665947,5.507823,22.713372,22.968378,-15.238160,-0.101744,0.281968,0.000000,0.450508,0.157066,0.000000
3.170000,2.108624,0.742587,-1.529075,1.714460,-0.827184,-0.552597,-2.517867,-0.876869,1.164947,0.336792,4.898443,5.348939,23.063155,23.096086,-16.607110,-0.097078,0.283410,0.000000,0.482874,0.129589,-0.000000
3.180000,2.125643,0.734273,-1.534542,1.689302,-0.835704,-0.540683,-2.513359,-0.826764,1.217578,0.563463,5.118754,5.174250,22.255097,20.938715,-18.327298,-0.092089,0.284570,0.000000,0.514521,0.101422,-0.000000
3.190000,2.142411,0.725875,-1.539887,1.664201,-0.843712,-0.528251,-2.506614,-0.774543,1.268380,0.785964,5.325445,4.984001,22.448258,20.810270,-19.641672,-0.086791,0.285445,0.000000,0.545207,0.072661,-0.000000
3.200000,2.158927,0.717400,-1.545105,1.639178,-0.851187,-0.515322,-2.497629,-0.720251,1.317216,1.010435,5.531080,4.780937,22.223920,19.879605,-21.036208,-0.081183,0.286025,0.000000,0.576219,0.042730,-0.000000
3.210000,2.175194,0.708853,-1.550192,1.614256,-0.858110,-0.501914,-2.486424,-0.663973,1.363955,1.229950,5.722511,4.564621,21.927014,18.845453,-22.358171,-0.075271,0.286301,0.000000,0.606030,0.012367,0.000000
3.220000,2.191213,0.700240,-1.555142,1.589456,-0.864461,-0.488050,-2.473020,-0.605800,1.408454,1.451153,5.911889,4.332677,22.054320,18.578957,-23.884029,-0.069061,0.286268,0.000000,0.635924,-0.019212,-0.000000
3.230000,2.206984,0.691566,-1.559951,1.564802,-0.870220,-0.473753,-2.457426,-0.545794,1.450573,1.665605,6.084638,4.090018,20.819025,15.945206,-24.632113,-0.062559,0.285916,0.000000,0.664135,-0.050910,-0.000000
3.240000,2.222509,0.682837,-1.564616,1.540315,-0.875371,-0.459047,-2.439736,-0.484171,1.490223,1.872400,6.239430,3.837516,20.782787,15.444391,-25.993492,-0.055786,0.285248,0.000000,0.690382,-0.082555,0.000000
3.250000,2.237791,0.674061,-1.569131,1.516015,-0.879898,-0.443957,-2.419974,-0.421014,1.527276,2.078940,6.389545,3.571571,20.264616,14.126828,-27.044473,-0.048752,0.284259,0.000000,0.716087,-0.115042,0.000000
3.260000,2.252830,0.665242,-1.573494,1.491922,-0.883787,-0.428510,-2.398187,-0.356442,1.561632,2.277332,6.522374,3.298253,19.678657,12.741085,-27.979369,-0.041472,0.282946,0.000000,0.739661,-0.147250,-0.000000
3.270000,2.267630,0.656387,-1.577700,1.468057,-0.887023,-0.412734,-2.374426,-0.290588,1.593181,2.474858,6.647050,3.008833,19.552775,11.882206,-29.526286,-0.033962,0.281308,0.000000,0.762068,-0.180217,0.000000
3.280000,2.282192,0.647503,-1.581747,1.444440,-0.889595,-0.396656,-2.348724,-0.223564,1.621799,2.662647,6.753486,2.715664,17.988645,9.387449,-29.080376,-0.026239,0.279342,0.000000,0.781969,-0.212486,0.000000
3.290000,2.296520,0.638597,-1.585632,1.421089,-0.891491,-0.380308,-2.321210,-0.155584,1.647490,2.839845,6.840772,2.420198,17.711204,8.368238,-30.362948,-0.018332,0.277061,0.000000,0.799135,-0.243833,0.000000
3.300000,2.310615,0.629676,-1.589353,1.398022,-0.892703,-0.363717,-2.291931,-0.086776,1.670154,3.014448,6.918120,2.111856,16.934624,6.790031,-30.922774,-0.010261,0.274463,0.000000,0.814553,-0.275428,-0.000000
3.310000,2.324481,0.620746,-1.592906,1.375256,-0.893224,-0.346915,-2.260958,-0.017290,1.689730,3.178865,6.976193,1.803015,16.113714,5.158849,-31.344270,-0.002051,0.271556,0.000000,0.826993,-0.305932,-0.000000
3.320000,2.338121,0.611814,-1.596290,1.352808,-0.893048,-0.329933,-2.228368,0.052720,1.706160,3.338170,7.024328,1.480573,15.574424,4.134669,-32.625034,0.006273,0.268345,0.000000,0.837462,-0.336254,-0.000000
3.330000,2.351539,0.602887,-1.599504,1.330694,-0.892169,-0.312802,-2.194231,0.123126,1.719356,3.486736,7.051897,1.161402,14.127730,1.365783,-31.175219,0.014687,0.264836,0.000000,0.844604,-0.365129,0.000000
3.340000,2.364736,0.593973,-1.602546,1.308928,-0.890585,-0.295556,-2.158672,0.193685,1.729409,3.623983,7.058264,0.847295,13.484667,0.238739,-32.133826,0.023153,0.261047,0.000000,0.848291,-0.392355,0.000000
3.350000,2.377718,0.585078,-1.605415,1.287525,-0.888295,-0.278225,-2.121770,0.264261,1.736261,3.754903,7.053824,0.523393,12.526803,-1.458884,-32.123158,0.031645,0.256988,0.000000,0.849671,-0.418886,0.000000
3.360000,2.390488,0.576209,-1.608110,1.266497,-0.885300,-0.260841,-2.083613,0.334698,1.739905,3.874763,7.030958,0.206078,11.541878,-3.132391,-31.961706,0.040135,0.252671,0.000000,0.847834,-0.443593,-0.000000
3.370000,2.403050,0.567374,-1.610632,1.245856,-0.881602,-0.243437,-2.044299,0.404823,1.740338,3.986593,6.991031,-0.121364,10.722743,-4.832812,-32.886768,0.048592,0.248112,0.000000,0.842845,-0.467258,0.000000
3.380000,2.415407,0.558579,-1.612979,1.225615,-0.877205,-0.226046,-2.003919,0.474465,1.737518,4.087097,6.934734,-0.438244,9.372055,-6.422933,-30.451757,0.056982,0.243322,0.000000,0.834873,-0.488811,-0.000000
3.390000,2.427563,0.549832,-1.615153,1.205781,-0.872115,-0.208697,-1.962597,0.543463,1.731619,4.175963,6.862279,-0.742611,8.497779,-8.082055,-31.031322,0.065279,0.238327,0.000000,0.824008,-0.508124,-0.000000
3.400000,2.439524,0.541139,-1.617153,1.186365,-0.866338,-0.191423,-1.920427,0.611655,1.722634,4.256173,6.773347,-1.053190,7.444008,-9.680636,-30.441497,0.073452,0.233142,0.000000,0.810110,-0.526034,0.000000
3.410000,2.451292,0.532508,-1.618982,1.167375,-0.859885,-0.174255,-1.877515,0.678886,1.710602,4.324514,6.670533,-1.351736,6.372256,-11.207473,-29.735416,0.081473,0.227786,0.000000,0.793676,-0.541614,-0.000000
3.420000,2.462873,0.523944,-1.620639,1.148817,-0.852764,-0.157221,-1.833961,0.744988,1.695585,4.384986,6.546287,-1.652031,5.576584,-13.312385,-29.836886,0.089314,0.222278,0.000000,0.773755,-0.555686,-0.000000
3.430000,2.474270,0.515455,-1.622127,1.130698,-0.844989,-0.140353,-1.789857,0.809778,1.677612,4.432998,6.411200,-1.938278,4.021817,-13.686442,-27.382274,0.096942,0.216636,0.000000,0.751838,-0.567276,-0.000000
3.440000,2.485488,0.507046,-1.623447,1.113021,-0.836573,-0.123678,-1.745344,0.873182,1.656875,4.468379,6.266224,-2.208895,3.202178,-15.624358,-27.201388,0.104345,0.210888,0.000000,0.728173,-0.576346,0.000000
3.450000,2.496532,0.498725,-1.624601,1.095792,-0.827531,-0.107225,-1.700514,0.935032,1.633431,4.495826,6.101666,-2.477985,2.143429,-16.953287,-26.129258,0.111495,0.205051,0.000000,0.701559,-0.583814,0.000000
3.460000,2.507405,0.490498,-1.625592,1.079012,-0.817878,-0.091018,-1.655460,0.995185,1.607373,4.513410,5.926981,-2.731370,1.134931,-18.213196,-24.959669,0.118371,0.199146,0.000000,0.673404,-0.589127,0.000000
3.470000,2.518113,0.482370,-1.626422,1.062683,-0.807633,-0.075085,-1.610298,1.053511,1.578809,4.516365,5.735417,-2.980839,-0.306765,-19.854890,-24.510016,0.124955,0.193194,0.000000,0.642860,-0.592046,0.000000
3.480000,2.528660,0.474347,-1.627095,1.046806,-0.796815,-0.059450,-1.565154,1.109865,1.547818,4.512259,5.535016,-3.212687,-0.503222,-20.205576,-21.835815,0.131225,0.187217,0.000000,0.611207,-0.593179,0.000000
3.490000,2.539051,0.466435,-1.627612,1.031380,-0.785443,-0.044136,-1.520073,1.164187,1.514621,4.501648,5.326841,-3.425691,-1.851031,-21.651825,-21.171450,0.137176,0.181233,0.000000,0.578727,-0.592634,0.000000
3.500000,2.549290,0.458640,-1.627979,1.016404,-0.773538,-0.029165,-1.475171,1.216350,1.479318,4.477332,5.104246,-3.632404,-2.771184,-22.619169,-19.747210,0.142793,0.175260,0.000000,0.544547,-0.589908,-0.000000
3.510000,2.559381,0.450966,-1.628197,1.001876,-0.761123,-0.014557,-1.430549,1.266259,1.442035,4.445579,4.876437,-3.821577,-3.665600,-23.459681,-18.279735,0.148067,0.169319,0.000000,0.510047,-0.585555,0.000000
3.520000,2.569329,0.443419,-1.628271,0.987792,-0.748221,-0.000330,-1.386296,1.313809,1.402920,4.403290,4.630452,-3.999702,-4.697676,-25.207802,-17.145698,0.152987,0.163426,0.000000,0.473727,-0.579421,0.000000
3.530000,2.579138,0.436003,-1.628205,0.974148,-0.734855,0.013496,-1.342508,1.358868,1.362101,4.353607,4.383387,-4.160316,-5.229798,-24.174356,-14.966199,0.157543,0.157598,0.000000,0.437778,-0.571817,0.000000
3.540000,2.588813,0.428723,-1.628002,0.960940,-0.721052,0.026907,-1.299246,1.401483,1.319775,4.297029,4.136836,-4.302864,-6.168651,-25.641338,-13.735547,0.161745,0.151850,0.000000,0.402470,-0.562871,0.000000
3.550000,2.598358,0.421584,-1.627668,0.948161,-0.706834,0.039887,-1.256600,1.441546,1.276081,4.231127,3.875274,-4.433307,-6.914691,-26.137428,-12.156411,0.165587,0.146197,0.000000,0.366004,-0.552488,0.000000
3.560000,2.607778,0.414588,-1.627206,0.935805,-0.692229,0.052424,-1.214643,1.478998,1.231165,4.159188,3.614738,-4.547308,-7.606607,-26.515088,-10.587165,0.169069,0.140651,0.000000,0.330353,-0.541040,0.000000
3.570000,2.617076,0.407740,-1.626621,0.923866,-0.677263,0.064507,-1.173450,1.513784,1.185192,4.077853,3.340114,-4.644533,-8.515743,-27.851649,-8.912347,0.172191,0.135225,0.000000,0.293877,-0.528219,-0.000000
3.580000,2.626256,0.401044,-1.625918,0.912334,-0.661963,0.076125,-1.133100,1.545817,1.138324,3.991903,3.069409,-4.726713,-8.661793,-26.257966,-7.526885,0.174951,0.129931,0.000000,0.258619,-0.514660,-0.000000
3.590000,2.635324,0.394502,-1.625100,0.901201,-0.646356,0.087271,-1.093624,1.575195,1.090706,3.902019,2.804243,-4.794021,-9.444420,-27.309772,-5.883078,0.177368,0.124774,0.000000,0.224767,-0.500500,-0.000000
3.600000,2.644282,0.388118,-1.624174,0.890458,-0.630468,0.097937,-1.055088,1.601856,1.042499,3.804364,2.528153,-4.844911,-9.940653,-27.347566,-4.353215,0.179444,0.119765,0.000000,0.190549,-0.485353,-0.000000
3.610000,2.653134,0.381893,-1.623143,0.880096,-0.614328,0.108119,-1.017533,1.625777,0.993851,3.706378,2.256324,-4.882513,-10.318232,-27.305811,-2.880345,0.181184,0.114908,0.000000,0.157605,-0.470137,-0.000000
3.620000,2.661885,0.375832,-1.622013,0.870104,-0.597962,0.117813,-0.981027,1.646961,0.944921,3.592007,1.979529,-4.899946,-11.896622,-27.748506,-0.896000,0.182597,0.110213,0.000000,0.125029,-0.453051,-0.000000
3.630000,2.670537,0.369935,-1.620788,0.860471,-0.581398,0.127017,-0.945672,1.665387,0.895886,3.482278,1.707735,-4.906519,-10.020278,-26.588838,-0.434650,0.183689,0.105692,0.000000,0.093764,-0.436572,-0.000000
3.640000,2.679095,0.364204,-1.619474,0.851187,-0.564663,0.135731,-0.911356,1.681138,0.846822,3.378608,1.442085,-4.903062,-11.362390,-26.824386,1.403878,0.184477,0.101330,0.000000,0.063889,-0.420872,-0.000000
3.650000,2.687562,0.358642,-1.618075,0.842240,-0.547784,0.143954,-0.878159,1.694215,0.797891,3.260771,1.173979,-4.881046,-11.542197,-26.491754,2.704894,0.184968,0.097135,0.000000,0.034591,-0.403691,-0.000000
3.660000,2.695941,0.353249,-1.616597,0.833620,-0.530787,0.151690,-0.846123,1.704641,0.749221,3.146447,0.911944,-4.851395,-11.678574,-26.092408,3.891962,0.185173,0.093113,0.000000,0.006574,-0.387093,-0.000000
3.670000,2.704236,0.348027,-1.615043,0.825314,-0.513700,0.158940,-0.815263,1.712453,0.700957,3.023978,0.650608,-4.797176,-12.454042,-25.983065,6.284341,0.185103,0.089263,0.000000,-0.020451,-0.369672,-0.000000
3.680000,2.712449,0.342975,-1.613420,0.817311,-0.496547,0.165711,-0.785629,1.717678,0.653283,2.904936,0.396291,-4.739718,-11.336781,-24.865529,5.176021,0.184768,0.085589,0.000000,-0.046251,-0.352904,-0.000000
3.690000,2.720583,0.338096,-1.611731,0.809598,-0.479355,0.172007,-0.757148,1.720406,0.606163,2.790196,0.149790,-4.680582,-11.963151,-24.610053,7.303496,0.184182,0.082080,0.000000,-0.070810,-0.336876,-0.000000
3.700000,2.728641,0.333388,-1.609981,0.802164,-0.462147,0.177836,-0.729854,1.720679,0.559756,2.668812,-0.094190,-4.599511,-11.951246,-23.995268,8.238056,0.183355,0.078738,0.000000,-0.094347,-0.320257,-0.000000
3.710000,2.736627,0.328853,-1.608175,0.794997,-0.444949,0.183205,-0.703766,1.718548,0.514178,2.548683,-0.330937,-4.514969,-11.946565,-23.348682,9.097006,0.182299,0.075564,0.000000,-0.116753,-0.304051,0.000000
3.720000,2.744542,0.324489,-1.606318,0.788084,-0.427784,0.188123,-0.678869,1.714082,0.469520,2.431103,-0.561045,-4.413771,-11.685161,-22.665460,10.705602,0.181025,0.072553,0.000000,-0.137879,-0.288284,-0.000000
3.730000,2.752389,0.320297,-1.604414,0.781415,-0.410675,0.192599,-0.655148,1.707350,0.425908,2.312538,-0.784105,-4.310020,-12.028015,-21.941039,10.019499,0.179545,0.069702,0.000000,-0.157998,-0.272691,-0.000000
3.740000,2.760171,0.316275,-1.602468,0.774977,-0.393644,0.196645,-0.632623,1.698425,0.383321,2.193035,-0.999789,-4.205011,-11.748602,-21.192423,11.400043,0.177868,0.067009,0.000000,-0.177134,-0.257276,0.000000
3.750000,2.767890,0.312424,-1.600483,0.768759,-0.376713,0.200269,-0.611275,1.687380,0.341862,2.076593,-1.207856,-4.085900,-11.657438,-20.415570,11.982520,0.176006,0.064472,0.000000,-0.195058,-0.242356,0.000000
3.760000,2.775547,0.308741,-1.598464,0.762748,-0.359903,0.203486,-0.591099,1.674289,0.301605,1.958437,-1.409111,-3.964828,-11.586356,-19.638254,12.492775,0.173969,0.062086,0.000000,-0.212118,-0.227512,0.000000
3.770000,2.783145,0.305225,-1.596415,0.756933,-0.343234,0.206306,-0.572072,1.659240,0.262604,1.848452,-1.598776,-3.833768,-10.782149,-18.480086,13.443691,0.171769,0.059848,0.000000,-0.227710,-0.213698,0.000000
3.780000,2.790686,0.301876,-1.594339,0.751303,-0.326725,0.208742,-0.554145,1.642332,0.224931,1.734992,-1.782612,-3.701723,-11.919658,-18.290722,12.945968,0.169417,0.057749,0.000000,-0.242626,-0.199758,-0.000000
3.790000,2.798172,0.298690,-1.592241,0.745846,-0.310394,0.210809,-0.537388,1.623605,0.188567,1.617653,-1.960746,-3.569725,-11.169210,-17.144632,13.709587,0.166918,0.055795,0.000000,-0.256919,-0.185649,0.000000
3.800000,2.805604,0.295667,-1.590124,0.740551,-0.294258,0.212518,-0.521758,1.603159,0.153567,1.508453,-2.127088,-3.430006,-11.046357,-16.311940,13.957368,0.164284,0.053980,0.000000,-0.269858,-0.172539,-0.000000
3.810000,2.812984,0.292804,-1.587992,0.735407,-0.278336,0.213885,-0.507227,1.581082,0.119964,1.397830,-2.287201,-3.290479,-10.908323,-15.486326,14.137587,0.161523,0.052297,0.000000,-0.282175,-0.159483,-0.000000
3.820000,2.820313,0.290100,-1.585847,0.730403,-0.262642,0.214922,-0.493783,1.557461,0.087779,1.291868,-2.434748,-3.145617,-10.445558,-14.239693,14.631156,0.158645,0.050745,0.000000,-0.293159,-0.147056,-0.000000
3.830000,2.827592,0.287551,-1.583694,0.725528,-0.247191,0.215645,-0.481392,1.532404,0.057045,1.185528,-2.576544,-3.002115,-10.825910,-14.126234,14.053719,0.155661,0.049319,0.000000,-0.303631,-0.134767,-0.000000
3.840000,2.834823,0.285155,-1.581536,0.720772,-0.231999,0.216068,-0.470075,1.505947,0.027727,1.078685,-2.712890,-2.860807,-10.376135,-12.924516,14.394532,0.152574,0.048017,0.000000,-0.313644,-0.122595,0.000000
3.850000,2.842008,0.282910,-1.579374,0.716123,-0.217077,0.216204,-0.459800,1.478191,-0.000156,0.976639,-2.836904,-2.716059,-10.195266,-12.097077,14.351386,0.149393,0.046835,0.000000,-0.322438,-0.111033,-0.000000
3.860000,2.849146,0.280812,-1.577212,0.711572,-0.202439,0.216070,-0.450540,1.449227,-0.026602,0.875741,-2.954627,-2.573422,-9.992079,-11.279362,14.260510,0.146127,0.045770,0.000000,-0.330717,-0.099726,-0.000000
3.870000,2.856240,0.278860,-1.575053,0.707109,-0.188096,0.215677,-0.442279,1.419140,-0.051621,0.776745,-3.060957,-2.430153,-9.795966,-10.151863,14.295924,0.142783,0.044818,0.000000,-0.337943,-0.088724,-0.000000
3.880000,2.863289,0.277049,-1.572900,0.702724,-0.174059,0.215042,-0.434997,1.388027,-0.075215,0.680053,-3.161134,-2.289537,-9.540470,-9.890074,13.817273,0.139369,0.043976,0.000000,-0.344696,-0.078070,-0.000000
3.890000,2.870294,0.275378,-1.570753,0.698406,-0.160339,0.214178,-0.428670,1.355935,-0.097423,0.585785,-3.255469,-2.152125,-9.320654,-8.812917,13.749276,0.135890,0.043241,0.000000,-0.351016,-0.067766,-0.000000
3.900000,2.877257,0.273842,-1.568617,0.694147,-0.146944,0.213098,-0.423274,1.322958,-0.118258,0.493756,-3.338832,-2.015448,-9.074013,-8.026559,13.489692,0.132353,0.042607,0.000000,-0.356369,-0.057771,-0.000000
3.910000,2.884177,0.272438,-1.566492,0.689938,-0.133882,0.211817,-0.418783,1.289180,-0.137744,0.404997,-3.415353,-1.882188,-8.803533,-7.244481,13.196144,0.128764,0.042073,0.000000,-0.361204,-0.048189,0.000000
3.920000,2.891056,0.271163,-1.564381,0.685768,-0.121162,0.210347,-0.415175,1.254679,-0.155909,0.316528,-3.483436,-1.751279,-8.763449,-6.408410,12.943281,0.125131,0.041635,0.000000,-0.365351,-0.038709,0.000000
3.930000,2.897893,0.270013,-1.562286,0.681631,-0.108791,0.208703,-0.412437,1.219535,-0.172783,0.232388,-3.544285,-1.624202,-8.058937,-5.764857,12.466395,0.121459,0.041291,0.000000,-0.368949,-0.029729,-0.000000
3.940000,2.904689,0.268986,-1.560208,0.677517,-0.096774,0.206896,-0.410511,1.183817,-0.188408,0.152848,-3.598086,-1.501279,-7.973895,-4.963011,12.151970,0.117754,0.041035,0.000000,-0.372016,-0.021268,-0.000000
3.950000,2.911443,0.268077,-1.558148,0.673418,-0.085116,0.204939,-0.409380,1.147601,-0.202818,0.074003,-3.643890,-1.381556,-7.666877,-4.234987,11.751487,0.114021,0.040863,0.000000,-0.374448,-0.012926,0.000000
3.960000,2.918157,0.267282,-1.556109,0.669327,-0.073823,0.202844,-0.409017,1.110962,-0.216051,-0.000822,-3.682799,-1.265694,-7.353637,-3.523660,11.342775,0.110266,0.040773,0.000000,-0.376358,-0.005029,0.000000
3.970000,2.924830,0.266599,-1.554092,0.665235,-0.062898,0.200622,-0.409390,1.073970,-0.228152,-0.073568,-3.714181,-1.155447,-7.139520,-2.780798,10.777182,0.106496,0.040761,0.000000,-0.377699,0.002615,-0.000000
3.980000,2.931462,0.266023,-1.552097,0.661137,-0.052345,0.198284,-0.410475,1.036700,-0.239171,-0.142440,-3.739003,-1.048659,-6.632322,-2.187364,10.580798,0.102714,0.040824,0.000000,-0.378537,0.009843,0.000000
3.990000,2.938052,0.265551,-1.550127,0.657024,-0.042165,0.195842,-0.412225,0.999211,-0.249136,-0.207309,-3.757482,-0.945345,-6.396212,-1.486244,10.006880,0.098926,0.040957,0.000000,-0.378889,0.016648,0.000000
4.000000,2.944602,0.265179,-1.548181,0.652890,-0.032361,0.193305,-0.414614,0.961574,-0.258099,-0.269880,-3.769008,-0.847924,-6.062170,-0.847723,9.550158,0.095138,0.041158,0.000000,-0.378714,0.023192,-0.000000
4.010000,2.951110,0.264902,-1.546261,0.648729,-0.022934,0.190683,-0.417613,0.923849,-0.266105,-0.329300,-3.774963,-0.753993,-5.737957,-0.239759,9.099031,0.091353,0.041422,0.000000,-0.378118,0.029406,-0.000000
4.020000,2.957577,0.264719,-1.544367,0.644536,-0.013884,0.187986,-0.421183,0.886103,-0.273205,-0.383863,-3.772889,-0.667207,-5.255312,0.547296,8.390258,0.087578,0.041746,0.000000,-0.376883,0.035109,0.000000
4.030000,2.964001,0.264623,-1.542501,0.640304,-0.005211,0.185222,-0.425283,0.848406,-0.279458,-0.436101,-3.766266,-0.583412,-5.194618,0.770617,8.372959,0.083817,0.042126,0.000000,-0.375309,0.040571,0.000000
4.040000,2.970382,0.264613,-1.540663,0.636029,0.003084,0.182399,-0.429898,0.810791,-0.284882,-0.486112,-3.755450,-0.502419,-4.725481,1.493615,7.692505,0.080073,0.042560,0.000000,-0.373425,0.045804,0.000000
4.050000,2.976721,0.264684,-1.538853,0.631704,0.011005,0.179527,-0.434988,0.773323,-0.289532,-0.531310,-3.737355,-0.428417,-4.394822,2.017361,7.241993,0.076351,0.043043,0.000000,-0.370951,0.050539,-0.000000
4.060000,2.983016,0.264832,-1.537073,0.627327,0.018552,0.176611,-0.440515,0.736057,-0.293459,-0.573629,-3.714997,-0.357507,-4.059394,2.518325,6.803653,0.072655,0.043573,0.000000,-0.368147,0.054982,-0.000000
4.070000,2.989268,0.265054,-1.535321,0.622893,0.025727,0.173660,-0.446448,0.699045,-0.296708,-0.612410,-3.686437,-0.293584,-3.706178,3.124168,6.115471,0.068989,0.044145,0.000000,-0.364842,0.059055,0.000000
4.080000,2.995474,0.265345,-1.533600,0.618397,0.032534,0.170679,-0.452752,0.662341,-0.299338,-0.647950,-3.653969,-0.232371,-3.402278,3.363860,6.132702,0.065359,0.044756,0.000000,-0.361224,0.062804,-0.000000
4.090000,3.001635,0.265703,-1.531908,0.613837,0.038975,0.167675,-0.459396,0.625977,-0.301363,-0.680271,-3.617902,-0.173593,-3.052841,3.912331,5.490159,0.061766,0.045402,0.000000,-0.357318,0.066234,-0.000000
4.100000,3.007751,0.266124,-1.530246,0.609208,0.045054,0.164653,-0.466346,0.590002,-0.302835,-0.709093,-3.576359,-0.121389,-2.721299,4.326374,5.086861,0.058214,0.046082,0.000000,-0.352957,0.069299,0.000000
4.110000,3.013819,0.266603,-1.528615,0.604509,0.050776,0.161620,-0.473567,0.554461,-0.303798,-0.734626,-3.531197,-0.071925,-2.389472,4.720863,4.699047,0.054708,0.046790,0.000000,-0.348294,0.072037,-0.000000
4.120000,3.019840,0.267138,-1.527014,0.599736,0.056145,0.158579,-0.481028,0.519392,-0.304295,-0.756902,-3.481845,-0.028368,-2.064366,5.128227,4.120460,0.051249,0.047523,0.000000,-0.343284,0.074435,-0.000000
4.130000,3.025814,0.267725,-1.525443,0.594888,0.061166,0.155535,-0.488694,0.484835,-0.304373,-0.775885,-3.429079,0.012753,-1.732818,5.420870,4.109459,0.047843,0.048279,0.000000,-0.337977,0.076506,-0.000000
4.140000,3.031738,0.268360,-1.523903,0.589962,0.065844,0.152493,-0.496534,0.450821,-0.304046,-0.791605,-3.373137,0.051728,-1.413620,5.781881,3.581184,0.044491,0.049054,0.000000,-0.332394,0.078253,-0.000000
4.150000,3.037613,0.269041,-1.522393,0.584956,0.070184,0.149456,-0.504516,0.417385,-0.303358,-0.804156,-3.313664,0.085342,-1.095261,6.091310,3.250031,0.041196,0.049845,0.000000,-0.326507,0.079669,-0.000000
4.160000,3.043437,0.269763,-1.520914,0.579871,0.074193,0.146427,-0.512607,0.384557,-0.302345,-0.813542,-3.251327,0.116825,-0.781453,6.380104,2.939952,0.037962,0.050648,0.000000,-0.320363,0.080770,0.000000
4.170000,3.049210,0.270523,-1.519465,0.574704,0.077877,0.143410,-0.520776,0.352368,-0.301040,-0.819789,-3.186062,0.143190,-0.469906,6.662138,2.441879,0.034790,0.051460,0.000000,-0.313963,0.081542,-0.000000
4.180000,3.054931,0.271319,-1.518046,0.569455,0.081243,0.140407,-0.528993,0.320844,-0.299486,-0.822985,-3.118305,0.167945,-0.170361,6.885660,2.515164,0.031683,0.052279,0.000000,-0.307333,0.082011,0.000000
4.190000,3.060599,0.272147,-1.516657,0.564124,0.084297,0.137421,-0.537226,0.290010,-0.297685,-0.823188,-3.048270,0.191404,0.130315,7.125259,2.072437,0.028644,0.053100,0.000000,-0.300490,0.082182,0.000000
4.200000,3.066213,0.273004,-1.515297,0.558711,0.087046,0.134454,-0.545447,0.259887,-0.295674,-0.820420,-2.975928,0.210362,0.421775,7.332314,1.828380,0.025674,0.053922,0.000000,-0.293439,0.082042,-0.000000
4.210000,3.071773,0.273887,-1.513967,0.553215,0.089497,0.131508,-0.553625,0.230497,-0.293481,-0.814800,-2.901854,0.227988,0.706532,7.515826,1.604934,0.022775,0.054741,0.000000,-0.286222,0.081616,0.000000
4.220000,3.077277,0.274793,-1.512667,0.547638,0.091658,0.128585,-0.561733,0.201859,-0.291130,-0.806262,-2.825342,0.241645,0.994517,7.747947,1.221142,0.019950,0.055554,0.000000,-0.278775,0.080883,0.000000
4.230000,3.082725,0.275719,-1.511396,0.541981,0.093537,0.125686,-0.569741,0.173993,-0.288651,-0.795048,-2.747702,0.254397,1.246961,7.775626,1.334922,0.017200,0.056358,0.000000,-0.271218,0.079883,0.000000
4.240000,3.088116,0.276663,-1.510153,0.536244,0.095140,0.122812,-0.577625,0.146907,-0.286043,-0.781242,-2.669176,0.266537,1.518221,7.962313,1.003042,0.014526,0.057151,0.000000,-0.263573,0.078626,-0.000000
4.250000,3.093450,0.277621,-1.508939,0.530429,0.096477,0.119965,-0.585357,0.120616,-0.283333,-0.764751,-2.588821,0.275297,1.772423,8.069925,0.844341,0.011929,0.057930,0.000000,-0.255750,0.077085,-0.000000
4.260000,3.098725,0.278592,-1.507754,0.524538,0.097555,0.117146,-0.592912,0.095133,-0.280539,-0.745824,-2.507787,0.283259,2.017254,8.159001,0.700856,0.009411,0.058692,0.000000,-0.247856,0.075299,-0.000000
4.270000,3.103940,0.279571,-1.506596,0.518571,0.098383,0.114355,-0.600265,0.070465,-0.277676,-0.724383,-2.425470,0.288907,2.263834,8.277206,0.479368,0.006973,0.059435,0.000000,-0.239833,0.073252,-0.000000
4.280000,3.109096,0.280558,-1.505467,0.512533,0.098968,0.111593,-0.607392,0.046624,-0.274762,-0.700699,-2.342808,0.293908,2.470997,8.251620,0.524805,0.004615,0.060156,0.000000,-0.231772,0.070978,0.000000
4.290000,3.114191,0.281550,-1.504364,0.506424,0.099318,0.108860,-0.614272,0.023609,-0.271799,-0.674882,-2.260003,0.298473,2.696578,8.331217,0.341683,0.002337,0.060854,0.000000,-0.223691,0.068490,0.000000
4.300000,3.119224,0.282544,-1.503289,0.500248,0.099442,0.106157,-0.620882,0.001427,-0.268800,-0.646845,-2.176444,0.301199,2.902532,8.353344,0.254369,0.000141,0.061525,0.000000,-0.215531,0.065770,-0.000000
4.310000,3.124195,0.283538,-1.502241,0.494008,0.099349,0.103484,-0.627203,-0.019919,-0.265776,-0.616968,-2.092851,0.303472,3.095096,8.361647,0.179238,-0.001973,0.062168,0.000000,-0.207361,0.062864,0.000000
4.320000,3.129104,0.284530,-1.501219,0.487705,0.099047,0.100841,-0.633214,-0.040430,-0.262735,-0.584758,-2.009271,0.304612,3.321694,8.352960,0.073058,-0.004006,0.062781,0.000000,-0.199186,0.059718,0.000000
4.330000,3.133949,0.285518,-1.500224,0.481345,0.098544,0.098229,-0.638893,-0.060105,-0.259685,-0.551064,-1.925818,0.305440,3.414335,8.335312,0.095082,-0.005957,0.063362,0.000000,-0.191018,0.056421,-0.000000
4.340000,3.138731,0.286501,-1.499255,0.474929,0.097848,0.095648,-0.644231,-0.078947,-0.256626,-0.516036,-1.842633,0.306097,3.612991,8.298456,0.015498,-0.007826,0.063910,0.000000,-0.182870,0.052989,0.000000
4.350000,3.143448,0.287475,-1.498311,0.468461,0.096967,0.093097,-0.649207,-0.096959,-0.253566,-0.479042,-1.759886,0.305973,3.759853,8.249907,-0.015993,-0.009614,0.064421,0.000000,-0.174760,0.049355,-0.000000
4.360000,3.148100,0.288439,-1.497393,0.461946,0.095911,0.090576,-0.653808,-0.114147,-0.250507,-0.440875,-1.677787,0.305771,3.893472,8.186348,-0.038004,-0.011322,0.064896,0.000000,-0.166708,0.045602,0.000000
4.370000,3.152686,0.289392,-1.496499,0.455386,0.094687,0.088086,-0.658019,-0.130516,-0.247452,-0.401011,-1.596029,0.305103,4.055898,8.145284,-0.079625,-0.012949,0.065333,0.000000,-0.158683,0.041675,-0.000000
4.380000,3.157207,0.290332,-1.495631,0.448787,0.093303,0.085627,-0.661825,-0.146071,-0.244405,-0.360247,-1.515300,0.304510,4.094050,7.997950,-0.037433,-0.014496,0.065730,0.000000,-0.150756,0.037656,0.000000
4.390000,3.161662,0.291258,-1.494787,0.442151,0.091768,0.083198,-0.665221,-0.160826,-0.241361,-0.318740,-1.435741,0.304083,4.226901,7.930297,-0.061642,-0.015964,0.066086,0.000000,-0.142940,0.033562,-0.000000
4.400000,3.166050,0.292167,-1.493967,0.435484,0.090090,0.080800,-0.668195,-0.174788,-0.238324,-0.275934,-1.356884,0.303427,4.310372,7.821185,-0.054381,-0.017355,0.066400,0.000000,-0.135188,0.029335,0.000000
4.410000,3.170372,0.293059,-1.493171,0.428789,0.088275,0.078432,-0.670738,-0.187968,-0.235293,-0.232618,-1.279253,0.302829,4.379110,7.703360,-0.045043,-0.018668,0.066672,0.000000,-0.127553,0.025054,0.000000
4.420000,3.174626,0.293932,-1.492398,0.422070,0.086333,0.076094,-0.672843,-0.200377,-0.232265,-0.188135,-1.202849,0.302719,4.487879,7.576042,0.004980,-0.019906,0.066901,0.000000,-0.120036,0.020657,-0.000000
4.430000,3.178813,0.294786,-1.491649,0.415333,0.084270,0.073787,-0.674501,-0.212029,-0.229239,-0.143481,-1.127759,0.302550,4.439731,7.440642,-0.038768,-0.021069,0.067086,0.000000,-0.112644,0.016240,0.000000
4.440000,3.182933,0.295617,-1.490922,0.408582,0.082095,0.071509,-0.675713,-0.222937,-0.226215,-0.098827,-1.054065,0.302333,4.516690,7.296624,0.014797,-0.022159,0.067226,0.000000,-0.105387,0.011819,-0.000000
4.450000,3.186985,0.296427,-1.490218,0.401821,0.079814,0.069262,-0.676474,-0.233115,-0.223190,-0.053425,-0.981850,0.302691,4.533716,7.145321,0.038735,-0.023178,0.067322,0.000000,-0.098274,0.007324,-0.000000
4.460000,3.190969,0.297213,-1.489537,0.395054,0.077435,0.067045,-0.676782,-0.242579,-0.220161,-0.008180,-0.911158,0.303052,4.536834,6.987656,0.062823,-0.024125,0.067373,0.000000,-0.091307,0.002840,0.000000
4.470000,3.194886,0.297976,-1.488877,0.388286,0.074965,0.064859,-0.676636,-0.251344,-0.217125,0.037485,-0.842158,0.304219,4.571087,6.815575,0.142646,-0.025004,0.067378,0.000000,-0.084506,-0.001683,0.000000
4.480000,3.198735,0.298712,-1.488240,0.381523,0.072410,0.062703,-0.676034,-0.259428,-0.214077,0.082719,-0.774777,0.305317,4.472903,6.659982,0.076046,-0.025816,0.067339,0.000000,-0.077862,-0.006168,0.000000
4.490000,3.202516,0.299423,-1.487623,0.374767,0.069778,0.060578,-0.674984,-0.266845,-0.211020,0.127362,-0.709061,0.306312,4.476625,6.478048,0.151398,-0.026562,0.067255,0.000000,-0.071378,-0.010599,0.000000
4.500000,3.206230,0.300108,-1.487028,0.368025,0.067075,0.058483,-0.673486,-0.273615,-0.207948,0.172024,-0.645195,0.308102,4.429509,6.298782,0.178346,-0.027244,0.067127,0.000000,-0.065076,-0.015030,0.000000
4.510000,3.209877,0.300765,-1.486454,0.361299,0.064308,0.056419,-0.671546,-0.279755,-0.204858,0.215913,-0.583047,0.309930,4.368529,6.116842,0.204617,-0.027864,0.066955,0.000000,-0.058941,-0.019389,-0.000000
4.520000,3.213456,0.301394,-1.485900,0.354595,0.061482,0.054386,-0.669169,-0.285283,-0.201747,0.259558,-0.522993,0.312352,4.336901,5.906409,0.262539,-0.028424,0.066739,0.000000,-0.053011,-0.023725,0.000000
4.530000,3.216969,0.301994,-1.485366,0.347917,0.058604,0.052384,-0.666359,-0.290220,-0.198611,0.302159,-0.464655,0.314819,4.180628,5.761215,0.230203,-0.028925,0.066480,0.000000,-0.047247,-0.027960,-0.000000
4.540000,3.220415,0.302566,-1.484852,0.341269,0.055680,0.050413,-0.663130,-0.294582,-0.195451,0.343569,-0.408040,0.317292,4.121131,5.548226,0.281112,-0.029369,0.066180,0.000000,-0.041651,-0.032082,-0.000000
4.550000,3.223794,0.303108,-1.484357,0.334656,0.052715,0.048475,-0.659489,-0.298389,-0.192263,0.384351,-0.353585,0.320293,4.012590,5.355678,0.301009,-0.029759,0.065839,0.000000,-0.036266,-0.036142,-0.000000
4.560000,3.227108,0.303620,-1.483882,0.328081,0.049714,0.046568,-0.655447,-0.301660,-0.189045,0.423808,-0.300903,0.323206,3.892826,5.162879,0.315311,-0.030095,0.065457,0.000000,-0.031053,-0.040076,-0.000000
4.570000,3.230356,0.304102,-1.483426,0.321548,0.046683,0.044694,-0.651016,-0.304415,-0.185795,0.462317,-0.250493,0.326904,3.791717,4.936166,0.390563,-0.030381,0.065037,0.000000,-0.026064,-0.043914,-0.000000
4.580000,3.233539,0.304553,-1.482988,0.315062,0.043627,0.042852,-0.646206,-0.306675,-0.182508,0.499285,-0.201822,0.330310,3.599676,4.798511,0.289041,-0.030617,0.064579,0.000000,-0.021242,-0.047607,-0.000000
4.590000,3.236657,0.304974,-1.482569,0.308625,0.040551,0.041044,-0.641036,-0.308457,-0.179191,0.534586,-0.154869,0.333344,3.474448,4.574751,0.350833,-0.030806,0.064085,0.000000,-0.016586,-0.051140,0.000000
4.600000,3.239712,0.305364,-1.482167,0.302242,0.037460,0.039269,-0.635518,-0.309780,-0.175839,0.568610,-0.110178,0.337025,3.313059,4.380699,0.351741,-0.030949,0.063556,0.000000,-0.012152,-0.054547,0.000000
4.610000,3.242702,0.305723,-1.481783,0.295916,0.034357,0.037527,-0.629670,-0.310666,-0.172452,0.600842,-0.067237,0.340400,3.141853,4.188389,0.348213,-0.031049,0.062994,0.000000,-0.007887,-0.057781,-0.000000
4.620000,3.245630,0.306052,-1.481417,0.289650,0.031248,0.035820,-0.623507,-0.311133,-0.169029,0.631509,-0.026585,0.344211,2.980221,3.961019,0.388506,-0.031108,0.062401,0.000000,-0.003847,-0.060861,-0.000000
4.630000,3.248496,0.306348,-1.481067,0.283447,0.028136,0.034147,-0.617046,-0.311203,-0.165569,0.660212,0.012382,0.347634,2.758615,3.833153,0.294591,-0.031127,0.061777,0.000000,0.000031,-0.063752,0.000000
4.640000,3.251299,0.306614,-1.480733,0.277310,0.025025,0.032509,-0.610309,-0.310891,-0.162078,0.686851,0.049705,0.350592,2.577778,3.612792,0.321253,-0.031108,0.061126,0.000000,0.003751,-0.066445,0.000000
4.650000,3.254042,0.306849,-1.480416,0.271242,0.021919,0.030905,-0.603315,-0.310217,-0.158556,0.711649,0.084806,0.353832,2.371419,3.426574,0.300987,-0.031053,0.060448,0.000000,0.007253,-0.068955,-0.000000
4.660000,3.256724,0.307053,-1.480115,0.265244,0.018822,0.029338,-0.596084,-0.309200,-0.155003,0.734263,0.118317,0.356635,2.157465,3.244913,0.275937,-0.030963,0.059747,0.000000,0.010601,-0.071254,0.000000
4.670000,3.259347,0.307225,-1.479830,0.259321,0.015736,0.027805,-0.588637,-0.307859,-0.151422,0.754841,0.149425,0.359492,1.949841,3.007502,0.278197,-0.030842,0.059023,0.000000,0.013714,-0.073353,-0.000000
4.680000,3.261911,0.307367,-1.479559,0.253472,0.012666,0.026309,-0.580995,-0.306216,-0.147815,0.773087,0.179111,0.361837,1.698114,2.930928,0.189494,-0.030689,0.058280,0.000000,0.016690,-0.075224,0.000000
4.690000,3.264417,0.307479,-1.479303,0.247701,0.009613,0.024849,-0.573183,-0.304281,-0.144188,0.788925,0.207442,0.363601,1.475558,2.705284,0.179127,-0.030508,0.057519,0.000000,0.019537,-0.076862,0.000000
4.700000,3.266865,0.307560,-1.479062,0.242009,0.006581,0.023426,-0.565224,-0.302075,-0.140543,0.802514,0.233485,0.365266,1.234511,2.534359,0.136149,-0.030299,0.056742,0.000000,0.022159,-0.078277,-0.000000
4.710000,3.269257,0.307610,-1.478835,0.236397,0.003572,0.022038,-0.557141,-0.299616,-0.136885,0.813656,0.258123,0.366344,0.988775,2.367486,0.088446,-0.030065,0.055953,0.000000,0.024646,-0.079452,-0.000000
4.720000,3.271594,0.307631,-1.478621,0.230867,0.000589,0.020688,-0.548959,-0.296920,-0.133217,0.822234,0.280605,0.367109,0.729925,2.154812,0.054439,-0.029807,0.055153,0.000000,0.026921,-0.080374,0.000000
4.730000,3.273875,0.307622,-1.478421,0.225418,-0.002365,0.019374,-0.540704,-0.294008,-0.129545,0.828323,0.301763,0.367219,0.487376,2.078141,-0.033568,-0.029527,0.054346,0.000000,0.029068,-0.081051,-0.000000
4.740000,3.276102,0.307584,-1.478233,0.220053,-0.005290,0.018097,-0.532401,-0.290889,-0.125875,0.831884,0.321664,0.366615,0.220030,1.877059,-0.078367,-0.029226,0.053533,0.000000,0.031095,-0.081479,0.000000
4.750000,3.278276,0.307517,-1.478059,0.214770,-0.008183,0.016857,-0.524076,-0.287582,-0.122214,0.832738,0.339532,0.365550,-0.045013,1.722622,-0.144248,-0.028906,0.052716,0.000000,0.032921,-0.081639,-0.000000
4.760000,3.280398,0.307421,-1.477896,0.209571,-0.011041,0.015653,-0.515755,-0.284102,-0.118567,0.830968,0.356223,0.363710,-0.313391,1.574316,-0.214758,-0.028568,0.051900,0.000000,0.034634,-0.081538,-0.000000
4.770000,3.282468,0.307296,-1.477746,0.204455,-0.013864,0.014485,-0.507466,-0.280465,-0.114941,0.826424,0.370645,0.361330,-0.592281,1.351098,-0.271523,-0.028214,0.051086,0.000000,0.036123,-0.081161,-0.000000
4.780000,3.284487,0.307143,-1.477606,0.199422,-0.016650,0.013354,-0.499236,-0.276692,-0.111343,0.819190,0.384103,0.358069,-0.854964,1.342173,-0.381605,-0.027846,0.050277,0.000000,0.037519,-0.080517,0.000000
4.790000,3.286457,0.306963,-1.477478,0.194470,-0.019398,0.012258,-0.491091,-0.272786,-0.107783,0.809241,0.396679,0.353873,-1.138923,1.132727,-0.448718,-0.027464,0.049476,0.000000,0.038830,-0.079603,0.000000
4.800000,3.288377,0.306756,-1.477361,0.189599,-0.022105,0.011198,-0.483060,-0.268766,-0.104268,0.796434,0.407112,0.349000,-1.419139,0.994882,-0.535969,-0.027070,0.048685,0.000000,0.039929,-0.078402,-0.000000
4.810000,3.290249,0.306521,-1.477254,0.184808,-0.024773,0.010173,-0.475171,-0.264645,-0.100806,0.780913,0.416854,0.343245,-1.699201,0.866184,-0.625585,-0.026666,0.047908,0.000000,0.040961,-0.076929,-0.000000
4.820000,3.292073,0.306260,-1.477158,0.180095,-0.027398,0.009182,-0.467452,-0.260440,-0.097407,0.762336,0.423635,0.336384,-2.004548,0.575300,-0.737561,-0.026252,0.047147,0.000000,0.041698,-0.075151,-0.000000
4.830000,3.293851,0.305973,-1.477070,0.175459,-0.029981,0.008224,-0.459933,-0.256173,-0.094081,0.741070,0.430147,0.328682,-2.248480,0.729763,-0.803322,-0.025832,0.046405,0.000000,0.042411,-0.073101,0.000000
4.840000,3.295583,0.305661,-1.476993,0.170896,-0.032521,0.007300,-0.452640,-0.251837,-0.090836,0.717120,0.436512,0.320111,-2.553667,0.457591,-0.921060,-0.025404,0.045686,0.000000,0.043111,-0.070781,0.000000
4.850000,3.297269,0.305323,-1.476924,0.166405,-0.035018,0.006407,-0.445601,-0.247454,-0.087683,0.690096,0.440025,0.310327,-2.839107,0.330375,-1.026406,-0.024971,0.044990,0.000000,0.043526,-0.068152,0.000000
4.860000,3.298911,0.304961,-1.476865,0.161983,-0.037470,0.005546,-0.438847,-0.243039,-0.084633,0.660272,0.442661,0.299518,-3.125679,0.196537,-1.136094,-0.024534,0.044323,0.000000,0.043853,-0.065240,-0.000000
4.870000,3.300509,0.304574,-1.476813,0.157627,-0.039878,0.004714,-0.432406,-0.238605,-0.081696,0.627582,0.443950,0.287593,-3.412380,0.060823,-1.249572,-0.024094,0.043686,0.000000,0.044047,-0.062038,-0.000000
4.880000,3.302064,0.304163,-1.476770,0.153334,-0.042242,0.003911,-0.426305,-0.234165,-0.078885,0.592025,0.443869,0.274514,-3.698949,-0.077437,-1.366802,-0.023653,0.043083,0.000000,0.044103,-0.058546,0.000000
4.890000,3.303576,0.303729,-1.476735,0.149100,-0.044562,0.003136,-0.420575,-0.229732,-0.076210,0.553604,0.442390,0.260245,-3.985164,-0.218908,-1.487743,-0.023212,0.042516,0.000000,0.044019,-0.054764,0.000000
4.900000,3.305046,0.303272,-1.476707,0.144921,-0.046837,0.002387,-0.415243,-0.225322,-0.073684,0.512331,0.439478,0.244746,-4.270058,-0.364279,-1.612473,-0.022773,0.041988,0.000000,0.043791,-0.050693,0.000000
4.910000,3.306475,0.302792,-1.476687,0.140793,-0.049068,0.001662,-0.410337,-0.220948,-0.071319,0.468209,0.435089,0.227982,-4.554160,-0.514199,-1.740811,-0.022337,0.041503,0.000000,0.043413,-0.046334,0.000000
4.920000,3.307862,0.302291,-1.476674,0.136713,-0.051256,0.000960,-0.405888,-0.216625,-0.069129,0.421252,0.429176,0.209917,-4.836850,-0.669347,-1.872775,-0.021906,0.041062,0.000000,0.042882,-0.041687,-0.000000
4.930000,3.309209,0.301768,-1.476668,0.132674,-0.053401,0.000279,-0.401922,-0.212369,-0.067125,0.371478,0.421683,0.190515,-5.117773,-0.830396,-2.008314,-0.021480,0.040670,0.000000,0.042192,-0.036756,0.000000
4.940000,3.310516,0.301223,-1.476669,0.128673,-0.055504,-0.000384,-0.398468,-0.208197,-0.065323,0.318904,0.412546,0.169739,-5.396453,-0.998032,-2.147368,-0.021062,0.040328,0.000000,0.041334,-0.031541,0.000000
4.950000,3.311783,0.300658,-1.476676,0.124703,-0.057565,-0.001029,-0.395553,-0.204124,-0.063735,0.263548,0.401699,0.147553,-5.673494,-1.172851,-2.290168,-0.020654,0.040040,0.000000,0.040303,-0.026046,0.000000
4.960000,3.313010,0.300072,-1.476689,0.120760,-0.059587,-0.001659,-0.393206,-0.200169,-0.062377,0.205441,0.389063,0.123923,-5.947541,-1.355606,-2.436347,-0.020257,0.039808,0.000000,0.039091,-0.020273,-0.000000
4.970000,3.314198,0.299466,-1.476709,0.116837,-0.061569,-0.002277,-0.391453,-0.196349,-0.061262,0.144607,0.374558,0.098815,-6.218672,-1.546939,-2.586001,-0.019873,0.039635,0.000000,0.037689,-0.014227,-0.000000
4.980000,3.315347,0.298841,-1.476735,0.112929,-0.063514,-0.002885,-0.390323,-0.192684,-0.060406,0.081078,0.358094,0.072192,-6.486635,-1.747526,-2.739099,-0.019504,0.039524,0.000000,0.036089,-0.007911,-0.000000
4.990000,3.316456,0.298196,-1.476766,0.109028,-0.065423,-0.003486,-0.389841,-0.189194,-0.059823,0.014886,0.339574,0.044021,-6.751314,-1.958053,-2.895617,-0.019152,0.039478,0.000000,0.034279,-0.001330,-0.000000
5.000000,3.317527,0.297532,-1.476804,0.105129,-0.067299,-0.004083,-0.390034,-0.185900,-0.059530,-0.053938,0.318897,0.014268,-7.012870,-2.179230,-3.055525,-0.018819,0.039498,0.000000,0.032252,0.005513,-0.000000
