time,x,y,z,vx,vy,vz,ax,ay,az,jx,jy,jz,sx,sy,sz,roll,pitch,yaw,p,q,r
0.000000,-3.021724,0.820887,-1.319412,-0.003262,0.002081,-0.001206,0.125122,-0.022858,0.083585,6.284301,-1.031196,2.831936,6.670647,10.541806,-119.128683,-0.002350,-0.012863,0.000000,-0.106675,-0.649743,0.000000
0.010000,-3.021757,0.820908,-1.319424,-0.002011,0.001853,-0.000370,0.187965,-0.033170,0.111905,6.351008,-0.925778,1.640649,-143.402766,40.988792,-235.294194,-0.003420,-0.019379,0.000000,-0.095976,-0.657900,-0.000000
0.020000,-3.021765,0.820924,-1.319419,0.000497,0.001418,0.001032,0.252142,-0.041373,0.116398,3.416246,-0.211420,-1.873948,-289.720963,65.003363,-266.149497,-0.004267,-0.026005,0.000000,-0.020939,-0.347156,-0.000000
0.030000,-3.021747,0.820936,-1.319403,0.003032,0.001025,0.001958,0.256290,-0.037398,0.074426,0.556588,0.374289,-3.682341,-129.416884,27.051277,-43.902736,-0.003840,-0.026319,0.000000,0.039889,-0.047180,-0.000000
0.040000,-3.021704,0.820945,-1.319380,0.005623,0.000670,0.002520,0.263274,-0.033888,0.042752,0.827908,0.329605,-2.752003,25.901119,-4.297453,83.709332,-0.003468,-0.026948,0.000000,0.034718,-0.077112,0.000000
0.050000,-3.021635,0.820950,-1.319353,0.008297,0.000348,0.002813,0.272848,-0.030806,0.019386,1.074611,0.288340,-2.008154,23.440685,-3.968596,66.271621,-0.003145,-0.027861,0.000000,0.030093,-0.103962,-0.000000
0.060000,-3.021538,0.820952,-1.319324,0.011080,0.000054,0.002908,0.284766,-0.028121,0.002588,1.296722,0.250233,-1.426570,20.988104,-3.665025,51.178262,-0.002866,-0.029028,0.000000,0.025931,-0.127887,0.000000
0.070000,-3.021413,0.820951,-1.319295,0.013993,-0.000215,0.002864,0.298783,-0.025801,-0.009146,1.494373,0.215040,-0.984589,18.553888,-3.385190,38.272936,-0.002626,-0.030419,0.000000,0.022165,-0.149000,0.000000
0.080000,-3.021258,0.820947,-1.319266,0.017056,-0.000462,0.002725,0.314654,-0.023820,-0.017103,1.667800,0.182529,-0.661111,16.148507,-3.127541,27.399325,-0.002423,-0.032008,0.000000,0.018740,-0.167388,-0.000000
0.090000,-3.021072,0.820941,-1.319240,0.020286,-0.000691,0.002522,0.332139,-0.022151,-0.022368,1.817343,0.152489,-0.436602,13.782474,-2.890529,18.401113,-0.002252,-0.033767,0.000000,0.015614,-0.183123,0.000000
0.100000,-3.020852,0.820933,-1.319216,0.023698,-0.000905,0.002278,0.351001,-0.020770,-0.025835,1.943449,0.124719,-0.293089,11.466310,-2.672603,11.121989,-0.002110,-0.035671,0.000000,0.012750,-0.196275,-0.000000
0.110000,-3.020598,0.820923,-1.319195,0.027306,-0.001107,0.002006,0.371008,-0.019656,-0.028230,2.046669,0.099037,-0.214163,9.210478,-2.472216,5.405630,-0.001997,-0.037693,0.000000,0.010118,-0.206917,-0.000000
0.120000,-3.020306,0.820911,-1.319176,0.031119,-0.001298,0.001713,0.391934,-0.018790,-0.030119,2.127659,0.075274,-0.184977,7.025584,-2.287817,1.095708,-0.001908,-0.039809,0.000000,0.007696,-0.215132,-0.000000
0.130000,-3.019976,0.820897,-1.319160,0.035145,-0.001482,0.001403,0.413561,-0.018151,-0.031929,2.187181,0.053280,-0.192248,4.922120,-2.117858,-1.964089,-0.001843,-0.041996,0.000000,0.005462,-0.221019,0.000000
0.140000,-3.019603,0.820882,-1.319148,0.039390,-0.001661,0.001075,0.435678,-0.017724,-0.033964,2.226101,0.032917,-0.224258,2.910235,-1.960790,-3.930050,-0.001799,-0.044230,0.000000,0.003399,-0.224690,0.000000
0.150000,-3.019188,0.820864,-1.319139,0.043858,-0.001837,0.000724,0.458083,-0.017493,-0.036414,2.245386,0.014064,-0.270849,1.000715,-1.815062,-4.958516,-0.001775,-0.046489,0.000000,0.001494,-0.226271,-0.000000
0.160000,-3.018726,0.820845,-1.319133,0.048551,-0.002011,0.000346,0.480585,-0.017443,-0.039381,2.246115,-0.003384,-0.323429,-0.795517,-1.679124,-5.205840,-0.001769,-0.048755,0.000000,-0.000266,-0.225906,-0.000000
0.170000,-3.018217,0.820824,-1.319132,0.053470,-0.002186,-0.000064,0.503005,-0.017560,-0.042883,2.229475,-0.019518,-0.374966,-2.464853,-1.551289,-4.852268,-0.001780,-0.051007,0.000000,-0.001890,-0.223750,0.000000
0.180000,-3.017657,0.820801,-1.319135,0.058612,-0.002362,-0.000511,0.525175,-0.017833,-0.046880,2.196818,-0.034410,-0.420474,-3.933367,-1.427560,-4.472945,-0.001807,-0.053230,0.000000,-0.003388,-0.219974,0.000000
0.190000,-3.017044,0.820777,-1.319142,0.063973,-0.002542,-0.001001,0.546942,-0.018249,-0.051292,2.150808,-0.048069,-0.464425,-5.212155,-1.307232,-4.079387,-0.001848,-0.055407,0.000000,-0.004758,-0.214833,0.000000
0.200000,-3.016377,0.820750,-1.319155,0.069550,-0.002727,-0.001537,0.568191,-0.018794,-0.056168,2.092575,-0.060554,-0.502062,-6.759830,-1.206818,-0.737261,-0.001902,-0.057526,0.000000,-0.006008,-0.208474,0.000000
0.210000,-3.015653,0.820722,-1.319173,0.075337,-0.002918,-0.002125,0.588793,-0.019460,-0.061334,2.015611,-0.072206,-0.479170,-8.515729,-1.122831,5.065984,-0.001968,-0.059576,0.000000,-0.007183,-0.200579,-0.000000
0.220000,-3.014871,0.820692,-1.319197,0.081326,-0.003116,-0.002764,0.608503,-0.020238,-0.065752,1.922261,-0.083011,-0.400742,-9.125141,-1.001876,4.312011,-0.002045,-0.061538,0.000000,-0.008282,-0.191417,-0.000000
0.230000,-3.014027,0.820660,-1.319228,0.087507,-0.003323,-0.003440,0.627238,-0.021120,-0.069349,1.833108,-0.092243,-0.392930,-8.566636,-0.840342,-3.316698,-0.002133,-0.063405,0.000000,-0.009209,-0.182289,0.000000
0.240000,-3.013120,0.820626,-1.319266,0.093871,-0.003539,-0.004151,0.645165,-0.022083,-0.073610,1.750928,-0.099818,-0.467076,-8.692265,-0.708958,-5.673058,-0.002230,-0.065184,0.000000,-0.009947,-0.173331,0.000000
0.250000,-3.012149,0.820589,-1.319311,0.100411,-0.003765,-0.004912,0.662257,-0.023116,-0.078690,1.659263,-0.106422,-0.506391,-9.588462,-0.622020,-1.615950,-0.002332,-0.066871,0.000000,-0.010593,-0.163630,-0.000000
0.260000,-3.011112,0.820550,-1.319364,0.107116,-0.004001,-0.005725,0.678351,-0.024212,-0.083738,1.559159,-0.112258,-0.499395,-10.015657,-0.529365,0.529462,-0.002441,-0.068457,0.000000,-0.011171,-0.153408,0.000000
0.270000,-3.010007,0.820509,-1.319426,0.113978,-0.004249,-0.006587,0.693440,-0.025361,-0.088678,1.458950,-0.117010,-0.495802,-10.152510,-0.401893,-0.039221,-0.002556,-0.069940,0.000000,-0.011638,-0.143176,0.000000
0.280000,-3.008833,0.820465,-1.319496,0.120985,-0.004508,-0.007498,0.707530,-0.026552,-0.093654,1.356108,-0.120296,-0.500180,-10.461149,-0.254184,-0.455548,-0.002674,-0.071320,0.000000,-0.011955,-0.132645,-0.000000
0.290000,-3.007587,0.820419,-1.319576,0.128128,-0.004780,-0.008460,0.720562,-0.027767,-0.098682,1.249727,-0.122093,-0.504913,-10.600316,-0.120725,-0.412338,-0.002795,-0.072593,0.000000,-0.012122,-0.121774,-0.000000
0.300000,-3.006270,0.820370,-1.319665,0.135396,-0.005064,-0.009472,0.732524,-0.028994,-0.103753,1.144102,-0.122711,-0.508426,-10.421285,-0.010319,-0.280309,-0.002917,-0.073756,0.000000,-0.012171,-0.111010,-0.000000
0.310000,-3.004880,0.820318,-1.319765,0.142779,-0.005360,-0.010535,0.743444,-0.030221,-0.108850,1.041301,-0.122300,-0.510519,-10.192036,0.101078,-0.167672,-0.003038,-0.074813,0.000000,-0.012116,-0.100559,0.000000
0.320000,-3.003415,0.820262,-1.319876,0.150265,-0.005668,-0.011649,0.753350,-0.031440,-0.113963,0.940261,-0.120689,-0.511780,-10.124502,0.239441,-0.108385,-0.003159,-0.075767,0.000000,-0.011942,-0.090311,0.000000
0.330000,-3.001874,0.820204,-1.319998,0.157846,-0.005989,-0.012814,0.762250,-0.032635,-0.119086,0.838811,-0.117511,-0.512687,-10.146746,0.398252,-0.074214,-0.003277,-0.076619,0.000000,-0.011611,-0.080044,0.000000
0.340000,-3.000258,0.820143,-1.320132,0.165510,-0.006321,-0.014031,0.770127,-0.033790,-0.124217,0.737327,-0.112724,-0.513264,-10.007558,0.543937,-0.025861,-0.003391,-0.077368,0.000000,-0.011119,-0.069796,-0.000000
0.350000,-2.998564,0.820078,-1.320279,0.173248,-0.006664,-0.015298,0.776996,-0.034890,-0.129351,0.638660,-0.106632,-0.513204,-9.663587,0.669189,0.040317,-0.003500,-0.078015,0.000000,-0.010498,-0.059853,-0.000000
0.360000,-2.996793,0.820009,-1.320438,0.181050,-0.007019,-0.016618,0.782900,-0.035923,-0.134481,0.544055,-0.099340,-0.512458,-9.295110,0.796812,0.099142,-0.003601,-0.078565,0.000000,-0.009759,-0.050340,-0.000000
0.370000,-2.994943,0.819937,-1.320611,0.188906,-0.007383,-0.017988,0.787877,-0.036877,-0.139600,0.452758,-0.090696,-0.511221,-9.029983,0.943390,0.138411,-0.003695,-0.079022,0.000000,-0.008885,-0.041178,0.000000
0.380000,-2.993015,0.819862,-1.320798,0.196808,-0.007756,-0.019410,0.791955,-0.037737,-0.144705,0.363455,-0.080472,-0.509689,-8.819400,1.101477,0.167300,-0.003779,-0.079389,0.000000,-0.007855,-0.032233,-0.000000
0.390000,-2.991007,0.819782,-1.320999,0.204745,-0.008138,-0.020882,0.795146,-0.038486,-0.149794,0.276370,-0.068666,-0.507875,-8.513601,1.249702,0.201639,-0.003852,-0.079667,0.000000,-0.006669,-0.023527,0.000000
0.400000,-2.988920,0.819699,-1.321215,0.212710,-0.008526,-0.022405,0.797482,-0.039110,-0.154863,0.193183,-0.055478,-0.505657,-8.087630,1.385188,0.241290,-0.003912,-0.079859,0.000000,-0.005346,-0.015228,0.000000
0.410000,-2.986753,0.819612,-1.321447,0.220695,-0.008920,-0.023979,0.799010,-0.039596,-0.159907,0.114617,-0.040962,-0.503049,-7.648989,1.521652,0.277059,-0.003959,-0.079971,0.000000,-0.003893,-0.007405,-0.000000
0.420000,-2.984506,0.819521,-1.321695,0.228691,-0.009318,-0.025604,0.799775,-0.039929,-0.164924,0.040203,-0.025045,-0.500115,-7.274417,1.664456,0.311860,-0.003990,-0.080007,0.000000,-0.002303,-0.000010,-0.000000
0.430000,-2.982179,0.819425,-1.321959,0.236690,-0.009718,-0.027278,0.799814,-0.040096,-0.169909,-0.030871,-0.007673,-0.496812,-6.935040,1.808254,0.350488,-0.004005,-0.079971,0.000000,-0.000569,0.007038,0.000000
0.440000,-2.979772,0.819326,-1.322241,0.244687,-0.010120,-0.029002,0.799157,-0.040083,-0.174860,-0.098497,0.011120,-0.493106,-6.541201,1.945904,0.389574,-0.004002,-0.079867,0.000000,0.001303,0.013729,-0.000000
0.450000,-2.977285,0.819223,-1.322539,0.252674,-0.010520,-0.030775,0.797844,-0.039874,-0.179771,-0.161695,0.031245,-0.489021,-6.078126,2.078164,0.424962,-0.003979,-0.079697,0.000000,0.003306,0.019968,0.000000
0.460000,-2.974718,0.819116,-1.322856,0.260644,-0.010917,-0.032597,0.795923,-0.039458,-0.184640,-0.220060,0.052683,-0.484606,-5.610395,2.208758,0.460566,-0.003935,-0.079467,0.000000,0.005437,0.025716,-0.000000
0.470000,-2.972072,0.819005,-1.323191,0.268592,-0.011309,-0.034468,0.793443,-0.038820,-0.189464,-0.273903,0.075420,-0.479809,-5.183924,2.334006,0.508849,-0.003870,-0.079183,0.000000,0.007695,0.031004,-0.000000
0.480000,-2.969347,0.818890,-1.323545,0.276513,-0.011694,-0.036386,0.790445,-0.037949,-0.194237,-0.323738,0.099363,-0.474429,-4.781504,2.451386,0.570523,-0.003782,-0.078847,0.000000,0.010070,0.035883,0.000000
0.490000,-2.966542,0.818771,-1.323919,0.284401,-0.012068,-0.038353,0.786968,-0.036833,-0.198952,-0.369533,0.124448,-0.468399,-4.349839,2.565257,0.630027,-0.003669,-0.078465,0.000000,0.012555,0.040350,-0.000000
0.500000,-2.963659,0.818648,-1.324313,0.292252,-0.012430,-0.040365,0.783055,-0.035460,-0.203604,-0.410735,0.150668,-0.461829,-3.880461,2.678924,0.680652,-0.003530,-0.078040,0.000000,0.015151,0.044353,-0.000000
0.510000,-2.960697,0.818522,-1.324726,0.300062,-0.012777,-0.042425,0.778753,-0.033820,-0.208189,-0.447142,0.178026,-0.454786,-3.411995,2.788312,0.734288,-0.003366,-0.077578,0.000000,0.017857,0.047872,-0.000000
0.520000,-2.957657,0.818393,-1.325161,0.307827,-0.013107,-0.044529,0.774112,-0.031900,-0.212700,-0.478975,0.206435,-0.447143,-2.971445,2.883641,0.809371,-0.003173,-0.077083,0.000000,0.020664,0.050931,-0.000000
0.530000,-2.954540,0.818260,-1.325617,0.315544,-0.013415,-0.046679,0.769174,-0.029691,-0.217132,-0.506571,0.235699,-0.438599,-2.548783,2.964885,0.903851,-0.002952,-0.076559,0.000000,0.023554,0.053560,-0.000000
0.540000,-2.951347,0.818124,-1.326095,0.323211,-0.013701,-0.048872,0.763980,-0.027186,-0.221472,-0.529951,0.265732,-0.429066,-2.113067,3.044313,0.994122,-0.002702,-0.076012,0.000000,0.026517,0.055763,0.000000
0.550000,-2.948076,0.817986,-1.326594,0.330824,-0.013959,-0.051108,0.758575,-0.024376,-0.225713,-0.548832,0.296585,-0.418716,-1.658802,3.126406,1.072454,-0.002422,-0.075444,0.000000,0.029559,0.057513,-0.000000
0.560000,-2.944730,0.817845,-1.327117,0.338382,-0.014188,-0.053386,0.753004,-0.021254,-0.229847,-0.563127,0.328260,-0.407617,-1.208752,3.201976,1.155692,-0.002111,-0.074861,0.000000,0.032680,0.058803,-0.000000
0.570000,-2.941309,0.817702,-1.327662,0.345884,-0.014384,-0.055705,0.747312,-0.017811,-0.233865,-0.573008,0.360625,-0.395602,-0.781041,3.259001,1.263517,-0.001768,-0.074268,0.000000,0.035868,0.059651,0.000000
0.580000,-2.937812,0.817558,-1.328231,0.353328,-0.014544,-0.058063,0.741544,-0.014042,-0.237759,-0.578748,0.393440,-0.382347,-0.370118,3.299382,1.391686,-0.001394,-0.073668,0.000000,0.039098,0.060081,-0.000000
0.590000,-2.934242,0.817411,-1.328823,0.360715,-0.014665,-0.060460,0.735737,-0.009942,-0.241512,-0.580410,0.426612,-0.367769,0.044951,3.338358,1.514709,-0.000987,-0.073066,0.000000,0.042361,0.060100,0.000000
0.600000,-2.930598,0.817264,-1.329440,0.368043,-0.014743,-0.062894,0.729935,-0.005509,-0.245114,-0.577849,0.460208,-0.352053,0.468045,3.380495,1.625528,-0.000546,-0.072466,0.000000,0.045665,0.059695,0.000000
0.610000,-2.926881,0.817116,-1.330081,0.375313,-0.014775,-0.065362,0.724180,-0.000738,-0.248553,-0.571049,0.494222,-0.335258,0.883656,3.414981,1.741603,-0.000073,-0.071872,0.000000,0.049010,0.058867,-0.000000
0.620000,-2.923092,0.816969,-1.330747,0.382527,-0.014758,-0.067865,0.718514,0.004375,-0.251819,-0.560176,0.528507,-0.317221,1.279447,3.430141,1.879842,0.000434,-0.071289,0.000000,0.052381,0.057631,-0.000000
0.630000,-2.919231,0.816821,-1.331439,0.389684,-0.014688,-0.070399,0.712977,0.009832,-0.254898,-0.545460,0.562825,-0.297661,1.659218,3.428782,2.035100,0.000974,-0.070720,0.000000,0.055755,0.056008,0.000000
0.640000,-2.915298,0.816675,-1.332155,0.396786,-0.014561,-0.072963,0.707605,0.015631,-0.257772,-0.526991,0.597083,-0.276519,2.037059,3.425915,2.185144,0.001549,-0.070169,0.000000,0.059124,0.054008,0.000000
0.650000,-2.911295,0.816530,-1.332898,0.403836,-0.014375,-0.075554,0.702437,0.021774,-0.260428,-0.504719,0.631343,-0.253958,2.415254,3.425512,2.324423,0.002157,-0.069640,0.000000,0.062494,0.051627,0.000000
0.660000,-2.907221,0.816387,-1.333666,0.410835,-0.014126,-0.078171,0.697511,0.028258,-0.262851,-0.478686,0.665593,-0.230030,2.783339,3.417293,2.467603,0.002799,-0.069136,0.000000,0.065865,0.048869,0.000000
0.670000,-2.903078,0.816248,-1.334461,0.417786,-0.013810,-0.080811,0.692863,0.035085,-0.265029,-0.449052,0.699689,-0.204606,3.133611,3.391673,2.627077,0.003474,-0.068662,0.000000,0.069224,0.045751,0.000000
0.680000,-2.898866,0.816111,-1.335283,0.424692,-0.013424,-0.083472,0.688530,0.042252,-0.266944,-0.416014,0.733427,-0.177489,3.468519,3.351756,2.797927,0.004183,-0.068221,0.000000,0.072550,0.042289,0.000000
0.690000,-2.894584,0.815979,-1.336131,0.431557,-0.012965,-0.086150,0.684543,0.049754,-0.268578,-0.379682,0.766724,-0.148648,3.796683,3.310093,2.963361,0.004925,-0.067816,0.000000,0.075838,0.038496,-0.000000
0.700000,-2.890235,0.815852,-1.337006,0.438383,-0.012429,-0.088843,0.680936,0.057587,-0.269917,-0.340080,0.799628,-0.118221,4.119778,3.269319,3.119762,0.005700,-0.067451,0.000000,0.079092,0.034373,-0.000000
0.710000,-2.885817,0.815731,-1.337908,0.445175,-0.011813,-0.091549,0.677741,0.065746,-0.270943,-0.297286,0.832111,-0.086252,4.431209,3.221183,3.277614,0.006507,-0.067129,0.000000,0.082311,0.029929,0.000000
0.720000,-2.881331,0.815616,-1.338837,0.451938,-0.011114,-0.094262,0.674990,0.074229,-0.271642,-0.251456,0.864052,-0.052669,4.725114,3.160057,3.443817,0.007346,-0.066853,0.000000,0.085483,0.025178,0.000000
0.730000,-2.876778,0.815508,-1.339793,0.458675,-0.010329,-0.096981,0.672712,0.083028,-0.271996,-0.202784,0.895312,-0.017376,5.002900,3.088849,3.614116,0.008217,-0.066625,0.000000,0.088597,0.020138,-0.000000
0.740000,-2.872158,0.815409,-1.340776,0.465392,-0.009454,-0.099702,0.670935,0.092135,-0.271989,-0.151398,0.925829,0.019613,5.271220,3.015095,3.778573,0.009118,-0.066450,0.000000,0.091646,0.014821,-0.000000
0.750000,-2.867470,0.815319,-1.341787,0.472094,-0.008486,-0.102421,0.669684,0.101544,-0.271604,-0.097359,0.955614,0.058195,5.531122,2.939816,3.936729,0.010050,-0.066329,0.000000,0.094634,0.009232,-0.000000
0.760000,-2.862716,0.815239,-1.342825,0.478786,-0.007423,-0.105134,0.668988,0.111247,-0.270825,-0.040776,0.984625,0.098348,5.777480,2.858424,4.094041,0.011011,-0.066265,0.000000,0.097557,0.003382,0.000000
0.770000,-2.857894,0.815171,-1.343889,0.485474,-0.006261,-0.107838,0.668869,0.121237,-0.269637,0.018190,1.012782,0.140076,6.006748,2.769490,4.248669,0.012001,-0.066261,0.000000,0.100408,-0.002715,-0.000000
0.780000,-2.853006,0.815114,-1.344981,0.492163,-0.004998,-0.110527,0.669351,0.131503,-0.268024,0.079359,1.040015,0.183321,6.220303,2.675045,4.397434,0.013019,-0.066320,0.000000,0.103181,-0.009042,0.000000
0.790000,-2.848051,0.815071,-1.346100,0.498861,-0.003631,-0.113198,0.670456,0.142037,-0.265971,0.142596,1.066283,0.228025,6.421809,2.577306,4.541896,0.014065,-0.066442,0.000000,0.105874,-0.015587,0.000000
0.800000,-2.843029,0.815042,-1.347245,0.505572,-0.002157,-0.115846,0.672203,0.152829,-0.263463,0.207796,1.091561,0.274159,6.610257,2.475881,4.684098,0.015137,-0.066631,0.000000,0.108484,-0.022342,0.000000
0.810000,-2.837940,0.815028,-1.348417,0.512305,-0.000574,-0.118467,0.674612,0.163868,-0.260487,0.274801,1.115801,0.321707,6.782791,2.369911,4.821578,0.016234,-0.066889,0.000000,0.111009,-0.029292,-0.000000
0.820000,-2.832783,0.815030,-1.349615,0.519065,0.001120,-0.121056,0.677699,0.175145,-0.257029,0.343451,1.138959,0.370591,6.941457,2.261511,4.947187,0.017357,-0.067217,0.000000,0.113444,-0.036424,-0.000000
0.830000,-2.827558,0.815050,-1.350838,0.525859,0.002929,-0.123608,0.681481,0.186647,-0.253076,0.413630,1.161031,0.420651,7.086826,2.151804,5.060165,0.018503,-0.067618,0.000000,0.115791,-0.043727,-0.000000
0.840000,-2.822266,0.815089,-1.352087,0.532694,0.004853,-0.126118,0.685972,0.198365,-0.248616,0.485188,1.181996,0.471794,7.215142,2.038436,5.168804,0.019673,-0.068092,0.000000,0.118047,-0.051187,-0.000000
0.850000,-2.816904,0.815147,-1.353360,0.539578,0.006896,-0.128580,0.691185,0.210287,-0.243640,0.557933,1.201800,0.524027,7.326644,1.918919,5.277099,0.020864,-0.068642,0.000000,0.120208,-0.058788,-0.000000
0.860000,-2.811474,0.815227,-1.354658,0.546518,0.009059,-0.130990,0.697131,0.222401,-0.238136,0.631721,1.220374,0.577336,7.423382,1.795546,5.378153,0.022077,-0.069268,0.000000,0.122269,-0.066519,0.000000
0.870000,-2.805974,0.815328,-1.355980,0.553521,0.011344,-0.133343,0.703819,0.234695,-0.232093,0.706401,1.237711,0.631590,7.502437,1.675892,5.459844,0.023310,-0.069972,0.000000,0.124228,-0.074366,0.000000
0.880000,-2.800404,0.815453,-1.357325,0.560594,0.013753,-0.135632,0.711259,0.247155,-0.225504,0.781770,1.253892,0.686533,7.562507,1.560170,5.522831,0.024562,-0.070756,0.000000,0.126094,-0.082310,-0.000000
0.890000,-2.794762,0.815603,-1.358693,0.567746,0.016287,-0.137853,0.719455,0.259773,-0.218362,0.857651,1.268914,0.742046,7.607085,1.438645,5.582186,0.025832,-0.071619,0.000000,0.127867,-0.090336,-0.000000
0.900000,-2.789049,0.815779,-1.360082,0.574983,0.018948,-0.140000,0.728412,0.272534,-0.210663,0.933911,1.282665,0.798177,7.636913,1.307846,5.643212,0.027119,-0.072563,0.000000,0.129536,-0.098432,0.000000
0.910000,-2.783263,0.815982,-1.361493,0.582314,0.021738,-0.142066,0.738133,0.285426,-0.202399,1.010389,1.295071,0.854911,7.649105,1.174921,5.694690,0.028422,-0.073589,0.000000,0.131095,-0.106586,0.000000
0.920000,-2.777403,0.816214,-1.362924,0.589746,0.024657,-0.144048,0.748619,0.298435,-0.193565,1.086893,1.306163,0.912070,7.641582,1.048729,5.722230,0.029741,-0.074696,0.000000,0.132545,-0.114780,-0.000000
0.930000,-2.771468,0.816475,-1.364374,0.597287,0.027706,-0.145938,0.759871,0.311549,-0.184157,1.163221,1.316046,0.969355,7.614892,0.927769,5.728137,0.031073,-0.075885,0.000000,0.133897,-0.122994,0.000000
0.940000,-2.765457,0.816768,-1.365842,0.604943,0.030888,-0.147731,0.771884,0.324756,-0.174177,1.239191,1.324718,1.026633,7.571055,0.800667,5.730677,0.032419,-0.077157,0.000000,0.135150,-0.131211,-0.000000
0.950000,-2.759369,0.817093,-1.367328,0.612724,0.034201,-0.149421,0.784654,0.338043,-0.163625,1.314642,1.332059,1.083969,7.510234,0.663076,5.735680,0.033776,-0.078511,0.000000,0.136293,-0.139419,-0.000000
0.960000,-2.753202,0.817452,-1.368831,0.620637,0.037649,-0.151003,0.798177,0.351397,-0.152498,1.389396,1.337980,1.141347,7.430649,0.523020,5.730147,0.035145,-0.079947,0.000000,0.137315,-0.147602,0.000000
0.970000,-2.746956,0.817846,-1.370349,0.628688,0.041229,-0.152471,0.812442,0.364803,-0.140798,1.463255,1.342519,1.198572,7.330938,0.391777,5.699073,0.036523,-0.081465,0.000000,0.138220,-0.155740,-0.000000
0.980000,-2.740629,0.818277,-1.371880,0.636885,0.044945,-0.153819,0.827442,0.378248,-0.128527,1.536015,1.345816,1.255328,7.210220,0.267630,5.645604,0.037909,-0.083064,0.000000,0.139020,-0.163813,-0.000000
0.990000,-2.734218,0.818745,-1.373425,0.645237,0.048794,-0.155042,0.843163,0.391719,-0.115691,1.607459,1.347872,1.311484,7.069971,0.135531,5.589224,0.039303,-0.084744,0.000000,0.139714,-0.171800,0.000000
1.000000,-2.727724,0.819253,-1.374981,0.653749,0.052779,-0.156133,0.859591,0.405205,-0.102297,1.677414,1.348526,1.367113,6.918546,-0.010632,5.536502,0.040704,-0.086503,0.000000,0.140286,-0.179685,-0.000000
1.010000,-2.721143,0.819801,-1.376548,0.662428,0.056898,-0.157088,0.876711,0.418690,-0.088349,1.745830,1.347659,1.422214,6.753951,-0.160534,5.473998,0.042109,-0.088341,0.000000,0.140723,-0.187464,0.000000
1.020000,-2.714475,0.820391,-1.378123,0.671283,0.061153,-0.157900,0.894508,0.432158,-0.073853,1.812493,1.345315,1.476593,6.551343,-0.299177,5.385407,0.043518,-0.090256,0.000000,0.141027,-0.195115,0.000000
1.030000,-2.707718,0.821024,-1.379706,0.680319,0.065542,-0.158565,0.912961,0.445596,-0.058817,1.876857,1.341676,1.529922,6.309609,-0.429564,5.274434,0.044930,-0.092247,0.000000,0.141214,-0.202582,0.000000
1.040000,-2.700869,0.821701,-1.381294,0.689542,0.070065,-0.159076,0.932045,0.458992,-0.043254,1.938685,1.336724,1.582081,6.062830,-0.572011,5.162840,0.046343,-0.094312,0.000000,0.141281,-0.209839,-0.000000
1.050000,-2.693927,0.822425,-1.382887,0.698959,0.074721,-0.159430,0.951735,0.472331,-0.027175,1.998114,1.330235,1.633179,5.819745,-0.730707,5.056771,0.047755,-0.096449,0.000000,0.141205,-0.216901,0.000000
1.060000,-2.686890,0.823196,-1.384483,0.708577,0.079511,-0.159620,0.972007,0.485597,-0.010591,2.055080,1.322110,1.683217,5.556952,-0.892363,4.941787,0.049167,-0.098655,0.000000,0.140973,-0.223761,-0.000000
1.070000,-2.679755,0.824015,-1.386079,0.718400,0.084433,-0.159642,0.992836,0.498773,0.006489,2.109253,1.312388,1.732014,5.256667,-1.049074,4.804227,0.050575,-0.100929,0.000000,0.140588,-0.230384,-0.000000
1.080000,-2.672522,0.824884,-1.387676,0.728433,0.089487,-0.159490,1.014192,0.511844,0.024050,2.160213,1.301129,1.779301,4.922066,-1.203944,4.651380,0.051978,-0.103269,0.000000,0.140053,-0.236724,0.000000
1.090000,-2.665187,0.825805,-1.389269,0.738683,0.094670,-0.159161,1.036040,0.524795,0.042075,2.207694,1.288309,1.825042,4.577350,-1.368105,4.501126,0.053376,-0.105670,0.000000,0.139363,-0.242751,-0.000000
1.100000,-2.657748,0.826778,-1.390859,0.749154,0.099983,-0.158649,1.058346,0.537610,0.060550,2.251760,1.273767,1.869324,4.258611,-1.555615,4.338426,0.054766,-0.108131,0.000000,0.138501,-0.248471,0.000000
1.110000,-2.650204,0.827805,-1.392442,0.759850,0.105423,-0.157950,1.081076,0.550271,0.079461,2.292866,1.257197,1.911811,3.947772,-1.758909,4.153440,0.056146,-0.110648,0.000000,0.137432,-0.253925,0.000000
1.120000,-2.642551,0.828886,-1.394018,0.770776,0.110988,-0.157059,1.104203,0.562754,0.098787,2.330716,1.238588,1.952393,3.544566,-1.940113,3.993298,0.057514,-0.113218,0.000000,0.136151,-0.259078,-0.000000
1.130000,-2.634788,0.830024,-1.395583,0.781934,0.116678,-0.155974,1.127690,0.575043,0.118509,2.363758,1.218395,1.991677,3.054613,-2.105064,3.863671,0.058869,-0.115838,0.000000,0.134708,-0.263778,0.000000
1.140000,-2.626912,0.831220,-1.397137,0.793330,0.122489,-0.154689,1.151478,0.587122,0.138620,2.391808,1.196487,2.029666,2.616351,-2.305978,3.699346,0.060209,-0.118503,0.000000,0.133087,-0.268002,0.000000
1.150000,-2.618921,0.832474,-1.398677,0.804964,0.128420,-0.153201,1.175526,0.598972,0.159103,2.416085,1.172275,2.065663,2.230489,-2.521288,3.493360,0.061531,-0.121208,0.000000,0.131221,-0.271863,-0.000000
1.160000,-2.610813,0.833788,-1.400201,0.816840,0.134468,-0.151507,1.199800,0.610568,0.179933,2.436418,1.146061,2.099533,1.807138,-2.719364,3.290144,0.062833,-0.123950,0.000000,0.129139,-0.275337,-0.000000
1.170000,-2.602585,0.835163,-1.401707,0.828960,0.140631,-0.149603,1.224254,0.621894,0.201093,2.452228,1.117888,2.131466,1.378684,-2.976486,3.093770,0.064114,-0.126726,0.000000,0.126843,-0.278364,0.000000
1.180000,-2.594234,0.836601,-1.403193,0.841325,0.146906,-0.147485,1.248845,0.632926,0.222563,2.463992,1.086532,2.161409,0.980727,-3.308979,2.888339,0.065370,-0.129529,0.000000,0.124204,-0.280989,0.000000
1.190000,-2.585758,0.838102,-1.404657,0.853937,0.153290,-0.145151,1.273534,0.643624,0.244321,2.471842,1.051708,2.189233,0.564458,-3.609950,2.671952,0.066598,-0.132357,0.000000,0.121189,-0.283217,0.000000
1.200000,-2.577155,0.839667,-1.406096,0.866796,0.159779,-0.142599,1.298281,0.653960,0.266347,2.475281,1.014333,2.214848,0.118951,-3.857263,2.448173,0.067794,-0.135206,0.000000,0.117889,-0.284992,-0.000000
1.210000,-2.568422,0.841297,-1.407509,0.879903,0.166369,-0.139825,1.323040,0.663911,0.288618,2.474221,0.974563,2.238197,-0.318321,-4.125105,2.217259,0.068955,-0.138071,0.000000,0.114317,-0.286300,0.000000
1.220000,-2.559557,0.842994,-1.408893,0.893257,0.173057,-0.136826,1.347766,0.673451,0.311111,2.468914,0.931830,2.259193,-0.733306,-4.449746,1.974067,0.070080,-0.140946,0.000000,0.110410,-0.287160,-0.000000
1.230000,-2.550557,0.844758,-1.410246,0.906858,0.179838,-0.133602,1.372418,0.682547,0.333802,2.459555,0.885568,2.277678,-1.137557,-4.806765,1.718816,0.071163,-0.143828,0.000000,0.106105,-0.287584,0.000000
1.240000,-2.541420,0.846591,-1.411565,0.920705,0.186708,-0.130150,1.396957,0.691162,0.356665,2.446163,0.835695,2.293569,-1.543198,-5.152301,1.457798,0.072202,-0.146712,0.000000,0.101389,-0.287568,0.000000
1.250000,-2.532143,0.848492,-1.412849,0.934797,0.193661,-0.126469,1.421341,0.699261,0.379674,2.428691,0.782522,2.306834,-1.941482,-5.481520,1.185834,0.073191,-0.149594,0.000000,0.096290,-0.287099,-0.000000
1.260000,-2.522724,0.850464,-1.414094,0.949132,0.200693,-0.122557,1.445531,0.706813,0.402802,2.407334,0.726065,2.317286,-2.322682,-5.822684,0.898793,0.074128,-0.152470,0.000000,0.090804,-0.286191,0.000000
1.270000,-2.513160,0.852506,-1.415300,0.963708,0.207798,-0.118413,1.469488,0.713783,0.426019,2.382237,0.666068,2.324810,-2.704121,-6.188673,0.612218,0.075007,-0.155334,0.000000,0.084901,-0.284849,-0.000000
1.280000,-2.503450,0.854620,-1.416463,0.978522,0.214969,-0.114037,1.493176,0.720134,0.449298,2.353251,0.602291,2.329530,-3.082757,-6.573825,0.326505,0.075826,-0.158183,0.000000,0.078552,-0.283055,0.000000
1.290000,-2.493590,0.856806,-1.417580,0.993571,0.222200,-0.109427,1.516553,0.725828,0.472610,2.320582,0.534592,2.331340,-3.431691,-6.960107,0.019600,0.076578,-0.161011,0.000000,0.071737,-0.280823,0.000000
1.300000,-2.483578,0.859064,-1.418651,1.008853,0.229485,-0.104584,1.539587,0.730826,0.495925,2.284617,0.463089,2.329922,-3.784135,-7.312462,-0.301642,0.077260,-0.163816,0.000000,0.064462,-0.278180,-0.000000
1.310000,-2.473413,0.861395,-1.419672,1.024363,0.236817,-0.099509,1.562245,0.735090,0.519208,2.244900,0.388343,2.325307,-4.152877,-7.643959,-0.623533,0.077867,-0.166591,0.000000,0.056783,-0.275074,-0.000000
1.320000,-2.463091,0.863800,-1.420641,1.040098,0.244187,-0.094200,1.584485,0.738593,0.542431,2.201560,0.310210,2.317452,-4.429117,-8.052501,-0.972609,0.078396,-0.169334,0.000000,0.048680,-0.271511,0.000000
1.330000,-2.452611,0.866279,-1.421556,1.056053,0.251589,-0.088660,1.606277,0.741294,0.565557,2.156317,0.227293,2.305855,-4.601959,-8.535973,-1.355648,0.078841,-0.172038,0.000000,0.039995,-0.267656,-0.000000
1.340000,-2.441970,0.868832,-1.422414,1.072223,0.259013,-0.082889,1.627612,0.743139,0.588548,2.109521,0.139491,2.290339,-4.820318,-8.957188,-1.735255,0.079195,-0.174703,0.000000,0.030711,-0.263536,-0.000000
1.350000,-2.431166,0.871459,-1.423214,1.088605,0.266451,-0.076889,1.648467,0.744084,0.611364,2.059911,0.048149,2.271150,-5.104808,-9.297562,-2.102750,0.079455,-0.177325,0.000000,0.020971,-0.259019,0.000000
1.360000,-2.420198,0.874161,-1.423952,1.105193,0.273895,-0.070662,1.668810,0.744102,0.633971,2.007424,-0.046461,2.248284,-5.353027,-9.646873,-2.484225,0.079615,-0.179900,0.000000,0.010799,-0.254090,-0.000000
1.370000,-2.409063,0.876937,-1.424627,1.121981,0.281334,-0.064210,1.688616,0.743155,0.656330,1.952850,-0.144789,2.221465,-5.539241,-10.022417,-2.894910,0.079670,-0.182423,0.000000,0.000143,-0.248824,0.000000
1.380000,-2.397758,0.879788,-1.425236,1.138965,0.288758,-0.057535,1.707867,0.741206,0.678400,1.896640,-0.246909,2.190385,-5.696547,-10.390308,-3.328927,0.079617,-0.184892,0.000000,-0.011011,-0.243254,-0.000000
1.390000,-2.386283,0.882712,-1.425778,1.156138,0.296158,-0.050642,1.726548,0.738217,0.700138,1.838919,-0.352595,2.154887,-5.851734,-10.729149,-3.766800,0.079450,-0.187304,0.000000,-0.022645,-0.237386,0.000000
1.400000,-2.374636,0.885711,-1.426249,1.173496,0.303522,-0.043532,1.744645,0.734154,0.721498,1.779605,-0.461492,2.115049,-6.016925,-11.037457,-4.187339,0.079164,-0.189655,0.000000,-0.034719,-0.231208,-0.000000
1.410000,-2.362813,0.888783,-1.426649,1.191031,0.310841,-0.036212,1.762140,0.728987,0.742439,1.718581,-0.573344,2.071140,-6.174725,-11.324137,-4.604689,0.078755,-0.191942,0.000000,-0.047206,-0.224708,-0.000000
1.420000,-2.350815,0.891928,-1.426973,1.208739,0.318102,-0.028684,1.779017,0.722687,0.762921,1.656110,-0.687975,2.022956,-6.283282,-11.591440,-5.078577,0.078220,-0.194163,0.000000,-0.060089,-0.217904,0.000000
1.430000,-2.338639,0.895145,-1.427222,1.226612,0.325294,-0.020953,1.795263,0.715228,0.782898,1.592915,-0.805173,1.969568,-6.349405,-11.829786,-5.608004,0.077553,-0.196313,0.000000,-0.073352,-0.210850,0.000000
1.440000,-2.326283,0.898434,-1.427393,1.244644,0.332406,-0.013026,1.810875,0.706584,0.802312,1.529122,-0.924570,1.910796,-6.430305,-12.031241,-6.110003,0.076753,-0.198392,0.000000,-0.086958,-0.203551,-0.000000
1.450000,-2.313746,0.901793,-1.427483,1.262829,0.339426,-0.004907,1.825845,0.696736,0.821114,1.464309,-1.045797,1.847368,-6.520214,-12.214637,-6.558725,0.075814,-0.200396,0.000000,-0.100855,-0.195974,-0.000000
1.460000,-2.301026,0.905222,-1.427491,1.281161,0.346341,0.003397,1.840161,0.685668,0.839259,1.398718,-1.168863,1.779621,-6.583001,-12.378770,-7.010004,0.074735,-0.202323,0.000000,-0.115039,-0.188148,-0.000000
1.470000,-2.288123,0.908720,-1.427415,1.299632,0.353139,0.011878,1.853820,0.673359,0.856706,1.332649,-1.293373,1.707168,-6.649096,-12.458554,-7.518166,0.073513,-0.204169,0.000000,-0.129466,-0.180095,0.000000
1.480000,-2.275033,0.912285,-1.427253,1.318237,0.359808,0.020531,1.866814,0.659800,0.873403,1.265736,-1.418034,1.629258,-6.733564,-12.444035,-8.063601,0.072146,-0.205934,0.000000,-0.143996,-0.171757,0.000000
1.490000,-2.261758,0.915916,-1.427004,1.336969,0.366335,0.029346,1.879134,0.644998,0.889291,1.197978,-1.542254,1.545896,-6.793208,-12.420322,-8.573249,0.070633,-0.207613,0.000000,-0.158555,-0.163131,-0.000000
1.500000,-2.248294,0.919612,-1.426666,1.355820,0.372708,0.038317,1.890774,0.628955,0.904321,1.129872,-1.666441,1.457793,-6.822438,-12.427505,-9.042503,0.068975,-0.209205,0.000000,-0.173175,-0.154286,-0.000000
1.510000,-2.234641,0.923370,-1.426238,1.374784,0.378915,0.047433,1.901732,0.611669,0.918447,1.061529,-1.790804,1.365046,-6.852381,-12.401661,-9.516939,0.067170,-0.210706,0.000000,-0.187867,-0.145235,0.000000
1.520000,-2.220798,0.927190,-1.425718,1.393854,0.384942,0.056686,1.912004,0.593139,0.931622,0.992824,-1.914474,1.267454,-6.887102,-12.238614,-9.994577,0.065217,-0.212116,0.000000,-0.202529,-0.135960,0.000000
1.530000,-2.206764,0.931069,-1.425104,1.413024,0.390777,0.066065,1.921588,0.573380,0.943796,0.923787,-2.035576,1.165155,-6.916411,-11.950528,-10.455333,0.063119,-0.213431,0.000000,-0.216942,-0.126469,0.000000
1.540000,-2.192538,0.935006,-1.424396,1.432286,0.396409,0.075561,1.930480,0.552428,0.954925,0.854496,-2.153485,1.058347,-6.939151,-11.673286,-10.901736,0.060878,-0.214650,0.000000,-0.231022,-0.116777,-0.000000
1.550000,-2.178119,0.938997,-1.423593,1.451634,0.401826,0.085164,1.938678,0.530310,0.964963,0.785004,-2.269042,0.947120,-6.959043,-11.449514,-11.344611,0.058499,-0.215770,0.000000,-0.244848,-0.106893,-0.000000
1.560000,-2.163505,0.943042,-1.422693,1.471060,0.407016,0.094861,1.946180,0.507047,0.973867,0.715315,-2.382475,0.831455,-6.977355,-11.184195,-11.777332,0.055982,-0.216791,0.000000,-0.258430,-0.096822,0.000000
1.570000,-2.148697,0.947138,-1.421696,1.490557,0.411967,0.104641,1.952984,0.482661,0.981592,0.645457,-2.492726,0.711573,-6.989759,-10.773780,-12.168154,0.053330,-0.217710,0.000000,-0.271635,-0.086575,0.000000
1.580000,-2.133694,0.951281,-1.420600,1.510119,0.416669,0.114493,1.959089,0.457192,0.988099,0.575520,-2.597950,0.588092,-6.998314,-10.244477,-12.514956,0.050549,-0.218525,0.000000,-0.284242,-0.076182,0.000000
1.590000,-2.118495,0.955471,-1.419406,1.529739,0.421111,0.124403,1.964495,0.430702,0.993354,0.505491,-2.697615,0.461274,-7.010041,-9.731917,-12.856635,0.047646,-0.219235,0.000000,-0.296175,-0.065653,-0.000000
1.600000,-2.103099,0.959704,-1.418112,1.549409,0.425283,0.134360,1.969199,0.403240,0.997324,0.435319,-2.792589,0.330959,-7.012727,-9.270973,-13.200357,0.044626,-0.219839,0.000000,-0.307516,-0.054986,-0.000000
1.610000,-2.087507,0.963977,-1.416719,1.569123,0.429175,0.144349,1.973201,0.374850,0.999973,0.365236,-2.883035,0.197267,-7.003699,-8.770589,-13.516429,0.041496,-0.220336,0.000000,-0.318266,-0.044214,-0.000000
1.620000,-2.071717,0.968287,-1.415225,1.588873,0.432780,0.154359,1.976504,0.345579,1.001269,0.295245,-2.968001,0.060631,-7.022326,-8.151150,-13.785742,0.038261,-0.220724,0.000000,-0.328306,-0.033357,0.000000
1.630000,-2.055729,0.972632,-1.413631,1.608653,0.436087,0.164375,1.979106,0.315490,1.001186,0.224790,-3.046058,-0.078448,-7.073674,-7.442579,-14.013283,0.034930,-0.221004,0.000000,-0.337461,-0.022374,0.000000
1.640000,-2.039544,0.977009,-1.411938,1.628456,0.439090,0.174383,1.981000,0.284658,0.999700,0.153772,-3.116852,-0.219635,-7.103709,-6.750831,-14.219811,0.031512,-0.221172,0.000000,-0.345678,-0.011272,-0.000000
1.650000,-2.023160,0.981414,-1.410144,1.648273,0.441780,0.184369,1.982182,0.253153,0.996793,0.082715,-3.181074,-0.362844,-7.092340,-6.093183,-14.424239,0.028017,-0.221229,0.000000,-0.353025,-0.000120,-0.000000
1.660000,-2.006578,0.985844,-1.408250,1.668099,0.444153,0.194319,1.982654,0.221037,0.992444,0.011925,-3.238716,-0.508120,-7.077742,-5.402272,-14.608970,0.024452,-0.221175,0.000000,-0.359489,0.011043,0.000000
1.670000,-1.989798,0.990297,-1.406257,1.687926,0.446201,0.204218,1.982420,0.188379,0.986631,-0.058839,-3.289120,-0.655023,-7.105913,-4.648041,-14.715056,0.020828,-0.221008,0.000000,-0.364991,0.022221,0.000000
1.680000,-1.972820,0.994768,-1.404166,1.707748,0.447920,0.214051,1.981477,0.155254,0.979343,-0.130193,-3.331677,-0.802421,-7.162756,-3.857139,-14.744468,0.017153,-0.220730,0.000000,-0.369453,0.033444,0.000000
1.690000,-1.955643,0.999255,-1.401976,1.727556,0.449306,0.223805,1.979816,0.121745,0.970582,-0.202095,-3.366262,-0.949913,-7.188480,-3.071334,-14.774649,0.013439,-0.220339,0.000000,-0.372859,0.044686,-0.000000
1.700000,-1.938269,1.003755,-1.399690,1.747344,0.450355,0.233463,1.977435,0.087929,0.960345,-0.273963,-3.393103,-1.097914,-7.195251,-2.290565,-14.815750,0.009696,-0.219836,0.000000,-0.375235,0.055886,-0.000000
1.710000,-1.920696,1.008263,-1.397307,1.767105,0.451065,0.243011,1.974337,0.053883,0.948624,-0.346000,-3.412074,-1.246228,-7.221117,-1.492930,-14.814016,0.005935,-0.219222,0.000000,-0.376567,0.067050,0.000000
1.720000,-1.902927,1.012776,-1.394830,1.786831,0.451433,0.252435,1.970515,0.019688,0.935420,-0.418385,-3.422962,-1.394194,-7.221275,-0.689734,-14.752774,0.002166,-0.218496,0.000000,-0.376835,0.078172,-0.000000
1.730000,-1.884960,1.017291,-1.392258,1.806515,0.451458,0.261720,1.965969,-0.014576,0.920740,-0.490425,-3.425868,-1.541283,-7.179595,0.106388,-14.648382,-0.001601,-0.217659,0.000000,-0.376054,0.089156,0.000000
1.740000,-1.866796,1.021805,-1.389595,1.826150,0.451141,0.270850,1.960707,-0.048830,0.904595,-0.561977,-3.420834,-1.687162,-7.160432,0.905709,-14.518396,-0.005355,-0.216713,0.000000,-0.374238,0.099970,0.000000
1.750000,-1.848437,1.026314,-1.386841,1.845729,0.450482,0.279812,1.954730,-0.082993,0.886997,-0.633634,-3.407754,-1.831651,-7.175928,1.710173,-14.371659,-0.009085,-0.215660,0.000000,-0.371385,0.110664,0.000000
1.760000,-1.829882,1.030815,-1.383999,1.865245,0.449481,0.288590,1.948034,-0.116985,0.867962,-0.705496,-3.386631,-1.974595,-7.181353,2.506934,-14.195816,-0.012782,-0.214500,0.000000,-0.367507,0.121238,-0.000000
1.770000,-1.811132,1.035304,-1.381070,1.884690,0.448142,0.297171,1.940620,-0.150726,0.847505,-0.777261,-3.357615,-2.115568,-7.160972,3.284381,-13.960882,-0.016435,-0.213235,0.000000,-0.362636,0.131644,-0.000000
1.780000,-1.792188,1.039778,-1.378055,1.904057,0.446467,0.305540,1.932489,-0.184137,0.825650,-0.848715,-3.320943,-2.253813,-7.132431,4.040956,-13.666562,-0.020034,-0.211867,0.000000,-0.356813,0.141833,-0.000000
1.790000,-1.773051,1.044233,-1.374959,1.923339,0.444459,0.313684,1.923645,-0.217144,0.802429,-0.919909,-3.276796,-2.388899,-7.112826,4.784755,-13.354000,-0.023571,-0.210398,0.000000,-0.350078,0.151797,0.000000
1.800000,-1.753721,1.048667,-1.371782,1.942530,0.442124,0.321589,1.914091,-0.249673,0.777872,-0.990972,-3.225248,-2.520893,-7.083788,5.524600,-13.052005,-0.027036,-0.208831,0.000000,-0.342456,0.161547,-0.000000
1.810000,-1.734200,1.053075,-1.368527,1.961621,0.439466,0.329241,1.903826,-0.281649,0.752011,-1.061585,-3.166304,-2.649939,-7.036001,6.249119,-12.731237,-0.030420,-0.207166,0.000000,-0.333968,0.171049,-0.000000
1.820000,-1.714489,1.057456,-1.365197,1.980606,0.436491,0.336629,1.892859,-0.312999,0.724873,-1.131692,-3.100266,-2.775517,-7.020553,6.922014,-12.316974,-0.033715,-0.205409,0.000000,-0.324667,0.180283,-0.000000
1.830000,-1.694588,1.061805,-1.361794,1.999478,0.433206,0.343739,1.881192,-0.343655,0.696501,-1.201996,-3.027864,-2.896278,-7.040927,7.539020,-11.816854,-0.036913,-0.203559,0.000000,-0.314658,0.189292,-0.000000
1.840000,-1.674499,1.066120,-1.358322,2.018230,0.429618,0.350559,1.868819,-0.373557,0.666948,-1.272510,-2.949485,-3.011854,-7.026241,8.143457,-11.333062,-0.040008,-0.201621,0.000000,-0.304007,0.198069,-0.000000
1.850000,-1.654223,1.070398,-1.354783,2.036855,0.425735,0.357078,1.855742,-0.402644,0.636263,-1.342521,-2.864995,-3.122940,-6.981070,8.759720,-10.880465,-0.042993,-0.199595,0.000000,-0.292716,0.206556,-0.000000
1.860000,-1.633762,1.074635,-1.351181,2.055345,0.421565,0.363284,1.841969,-0.430856,0.604489,-1.412131,-2.774291,-3.229464,-6.952143,9.352360,-10.391740,-0.045862,-0.197486,0.000000,-0.280797,0.214764,0.000000
1.870000,-1.613117,1.078829,-1.347518,2.073694,0.417118,0.369168,1.827499,-0.458130,0.571674,-1.481564,-2.677948,-3.330774,-6.907939,9.849909,-9.847224,-0.048609,-0.195296,0.000000,-0.268335,0.222704,0.000000
1.880000,-1.592288,1.082977,-1.343797,2.091895,0.412402,0.374718,1.812337,-0.484415,0.537874,-1.550290,-2.577293,-3.426408,-6.830321,10.256844,-9.271117,-0.051229,-0.193027,0.000000,-0.255491,0.230316,0.000000
1.890000,-1.571279,1.087077,-1.340023,2.109941,0.407429,0.379925,1.796494,-0.509676,0.503146,-1.618170,-2.472811,-3.516197,-6.766300,10.664221,-8.688199,-0.053719,-0.190684,0.000000,-0.242336,0.237588,0.000000
1.900000,-1.550089,1.091126,-1.336199,2.127825,0.402209,0.384781,1.779974,-0.533872,0.467550,-1.685616,-2.364008,-3.600172,-6.723301,11.095543,-8.104526,-0.056076,-0.188269,0.000000,-0.228835,0.244569,-0.000000
1.910000,-1.528722,1.095121,-1.332328,2.145540,0.396752,0.389276,1.762781,-0.556956,0.431143,-1.752636,-2.250900,-3.678287,-6.668455,11.485309,-7.506764,-0.058296,-0.185785,0.000000,-0.215007,0.251265,0.000000
1.920000,-1.507179,1.099061,-1.328413,2.163081,0.391070,0.393404,1.744921,-0.578890,0.393984,-1.818985,-2.134302,-3.750307,-6.596810,11.775320,-6.880008,-0.060377,-0.183236,0.000000,-0.200953,0.257654,-0.000000
1.930000,-1.485461,1.102943,-1.324460,2.180439,0.385174,0.397156,1.726402,-0.599642,0.356136,-1.884573,-2.015394,-3.815887,-6.519478,11.982303,-6.231223,-0.062316,-0.180623,0.000000,-0.186812,0.263728,-0.000000
1.940000,-1.463570,1.106764,-1.320470,2.197609,0.379077,0.400526,1.707230,-0.619197,0.317666,-1.949375,-1.894656,-3.874932,-6.440195,12.178681,-5.584104,-0.064113,-0.177951,0.000000,-0.172645,0.269492,-0.000000
1.950000,-1.441508,1.110524,-1.316449,2.214583,0.372790,0.403509,1.687414,-0.637535,0.278638,-2.013376,-1.771820,-3.927569,-6.359191,12.386173,-4.939450,-0.065769,-0.175222,0.000000,-0.158433,0.274957,0.000000
1.960000,-1.419278,1.114220,-1.312400,2.231357,0.366326,0.406099,1.666962,-0.654634,0.239115,-2.076559,-1.646932,-3.973721,-6.274260,12.553833,-4.285123,-0.067282,-0.172440,0.000000,-0.144189,0.280127,-0.000000
1.970000,-1.396881,1.117851,-1.308327,2.247923,0.359697,0.408291,1.645883,-0.670474,0.199163,-2.138862,-1.520743,-4.013272,-6.181027,12.623671,-3.629805,-0.068653,-0.169608,0.000000,-0.129998,0.285007,-0.000000
1.980000,-1.374320,1.121414,-1.304234,2.264275,0.352917,0.410082,1.624185,-0.685049,0.158849,-2.200179,-1.394459,-4.046317,-6.079955,12.609003,-2.981900,-0.069883,-0.166727,0.000000,-0.115988,0.289597,0.000000
1.990000,-1.351596,1.124909,-1.300125,2.280406,0.345997,0.411468,1.601879,-0.698363,0.118237,-2.260461,-1.268563,-4.072910,-5.977042,12.585335,-2.332753,-0.070973,-0.163802,0.000000,-0.102208,0.293903,-0.000000
2.000000,-1.328712,1.128334,-1.296005,2.296312,0.338949,0.412447,1.578976,-0.710420,0.077391,-2.319720,-1.142752,-4.092972,-5.874135,12.572753,-1.674814,-0.071927,-0.160834,0.000000,-0.088630,0.297938,-0.000000
2.010000,-1.305669,1.131688,-1.291876,2.311986,0.331788,0.413016,1.555485,-0.721218,0.036378,-2.377943,-1.017108,-4.106406,-5.767222,12.519884,-1.018256,-0.072747,-0.157828,0.000000,-0.075263,0.301708,0.000000
2.020000,-1.282472,1.134970,-1.287744,2.327422,0.324525,0.413175,1.531417,-0.730762,-0.004737,-2.435065,-0.892355,-4.113337,-5.652363,12.379562,-0.388505,-0.073433,-0.154784,0.000000,-0.062178,0.305220,-0.000000
2.030000,-1.259121,1.138178,-1.283613,2.342614,0.317173,0.412922,1.506784,-0.739065,-0.045889,-2.490991,-0.769517,-4.114176,-5.530902,12.167484,0.213052,-0.073991,-0.151707,0.000000,-0.049471,0.308483,-0.000000
2.040000,-1.235620,1.141313,-1.279486,2.357558,0.309744,0.412257,1.481597,-0.746152,-0.087020,-2.545683,-0.649005,-4.109076,-5.408153,11.945888,0.816543,-0.074423,-0.148598,0.000000,-0.037177,0.311505,0.000000
2.050000,-1.211970,1.144373,-1.275368,2.372246,0.302250,0.411181,1.455870,-0.752046,-0.128071,-2.599154,-0.530599,-4.097845,-5.285065,11.729367,1.433782,-0.074735,-0.145460,0.000000,-0.025269,0.314297,0.000000
2.060000,-1.188175,1.147358,-1.271262,2.386675,0.294703,0.409695,1.429614,-0.756764,-0.168977,-2.651384,-0.414418,-4.080400,-5.158339,11.477369,2.040616,-0.074929,-0.142294,0.000000,-0.013753,0.316864,0.000000
2.070000,-1.164236,1.150267,-1.267174,2.400838,0.287115,0.407802,1.402842,-0.760334,-0.209679,-2.702321,-0.301052,-4.057033,-5.026489,11.158444,2.602048,-0.075010,-0.139104,0.000000,-0.002680,0.319217,-0.000000
2.080000,-1.140158,1.153101,-1.263106,2.414732,0.279496,0.405502,1.375568,-0.762786,-0.250118,-2.751914,-0.191249,-4.028359,-4.890878,10.786747,3.121754,-0.074983,-0.135892,0.000000,0.007891,0.321368,0.000000
2.090000,-1.115942,1.155857,-1.259064,2.428350,0.271859,0.402799,1.347804,-0.764159,-0.290246,-2.800138,-0.085317,-3.994598,-4.753559,10.405195,3.642767,-0.074853,-0.132659,0.000000,0.017941,0.323329,-0.000000
2.100000,-1.091591,1.158538,-1.255050,2.441688,0.264213,0.399697,1.319565,-0.764492,-0.330010,-2.846985,0.016855,-3.955504,-4.614361,10.022093,4.177931,-0.074624,-0.129407,0.000000,0.027487,0.325103,-0.000000
2.110000,-1.067108,1.161142,-1.251070,2.454741,0.256569,0.396199,1.290864,-0.763822,-0.369356,-2.892425,0.115125,-3.911039,-4.472295,9.611272,4.695367,-0.074303,-0.126139,0.000000,0.036526,0.326697,0.000000
2.120000,-1.042496,1.163669,-1.247126,2.467505,0.248937,0.392310,1.261716,-0.762189,-0.408231,-2.936431,0.209081,-3.861597,-4.328496,9.158496,5.159848,-0.073894,-0.122855,0.000000,0.045029,0.328121,0.000000
2.130000,-1.017758,1.166120,-1.243224,2.479975,0.241325,0.388034,1.232136,-0.759640,-0.446588,-2.978995,0.298295,-3.807843,-4.183585,8.674772,5.578302,-0.073403,-0.119558,0.000000,0.052972,0.329391,0.000000
2.140000,-0.992897,1.168496,-1.239366,2.492148,0.233744,0.383378,1.202136,-0.756223,-0.484388,-3.020102,0.382576,-3.750031,-4.036345,8.181541,5.994608,-0.072835,-0.116249,0.000000,0.060347,0.330515,-0.000000
2.150000,-0.967915,1.170795,-1.235556,2.504018,0.226201,0.378347,1.171734,-0.751989,-0.521589,-3.059722,0.461926,-3.687950,-3.886705,7.681191,6.422693,-0.072196,-0.112930,0.000000,0.067164,0.331495,0.000000
2.160000,-0.942816,1.173020,-1.231799,2.515582,0.218704,0.372946,1.140942,-0.746985,-0.558147,-3.097837,0.536200,-3.621577,-3.735794,7.162834,6.831063,-0.071492,-0.109602,0.000000,0.073418,0.332336,-0.000000
2.170000,-0.917603,1.175169,-1.228097,2.526837,0.211261,0.367184,1.109777,-0.741265,-0.594020,-3.134438,0.605182,-3.551329,-3.584095,6.627694,7.182433,-0.070728,-0.106266,0.000000,0.079103,0.333048,-0.000000
2.180000,-0.892279,1.177245,-1.224455,2.537778,0.203879,0.361066,1.078253,-0.734881,-0.629173,-3.169518,0.668754,-3.477928,-3.431420,6.082772,7.484100,-0.069910,-0.102924,0.000000,0.084220,0.333644,-0.000000
2.190000,-0.866848,1.179247,-1.220876,2.548402,0.196563,0.354600,1.046387,-0.727890,-0.663579,-3.203066,0.726838,-3.401647,-3.277614,5.529882,7.784148,-0.069044,-0.099577,0.000000,0.088775,0.334131,0.000000
2.200000,-0.841311,1.181176,-1.217363,2.558706,0.189321,0.347794,1.014192,-0.720345,-0.697206,-3.235071,0.779351,-3.322245,-3.123153,4.966583,8.098574,-0.068134,-0.096225,0.000000,0.092766,0.334508,0.000000
2.210000,-0.815674,1.183033,-1.213920,2.568686,0.182157,0.340656,0.981685,-0.712303,-0.730024,-3.265529,0.826169,-3.239676,-2.968382,4.395512,8.393919,-0.067188,-0.092871,0.000000,0.096190,0.334782,0.000000
2.220000,-0.789938,1.184819,-1.210550,2.578339,0.175075,0.333194,0.948881,-0.703821,-0.762000,-3.294438,0.867262,-3.154367,-2.812703,3.829834,8.630013,-0.066211,-0.089514,0.000000,0.099056,0.334959,-0.000000
2.230000,-0.764107,1.186535,-1.207256,2.587664,0.168080,0.325416,0.915796,-0.694957,-0.793111,-3.321784,0.902766,-3.067075,-2.656288,3.272556,8.815973,-0.065207,-0.086157,0.000000,0.101389,0.335049,-0.000000
2.240000,-0.738184,1.188181,-1.204042,2.596655,0.161176,0.317332,0.882446,-0.685766,-0.823341,-3.347564,0.932713,-2.978047,-2.500373,2.710065,9.004962,-0.064183,-0.082799,0.000000,0.103198,0.335056,0.000000
2.250000,-0.712174,1.189758,-1.200910,2.605312,0.154365,0.308949,0.848845,-0.676303,-0.852672,-3.371791,0.956967,-2.886976,-2.344583,2.136664,9.210656,-0.063143,-0.079441,0.000000,0.104478,0.334982,-0.000000
2.260000,-0.686078,1.191268,-1.197863,2.613632,0.147650,0.300278,0.815010,-0.666626,-0.881081,-3.394456,0.975446,-2.793834,-2.188413,1.565256,9.397489,-0.062093,-0.076086,0.000000,0.105226,0.334829,0.000000
2.270000,-0.659901,1.192711,-1.194904,2.621613,0.141032,0.291328,0.780956,-0.656794,-0.908548,-3.415559,0.988273,-2.699026,-2.033960,1.016297,9.535146,-0.061038,-0.072732,0.000000,0.105461,0.334602,0.000000
2.280000,-0.633646,1.194089,-1.192036,2.629251,0.134514,0.282107,0.746699,-0.646861,-0.935061,-3.435135,0.995772,-2.603131,-1.881977,0.489298,9.635889,-0.059984,-0.069381,0.000000,0.105222,0.334310,-0.000000
2.290000,-0.607316,1.195402,-1.189262,2.636547,0.128095,0.272626,0.712253,-0.636879,-0.960611,-3.453199,0.998059,-2.506309,-1.729843,-0.038968,9.740118,-0.058934,-0.066033,0.000000,0.104524,0.333958,-0.000000
2.300000,-0.580915,1.196651,-1.186584,2.643496,0.121776,0.262895,0.677635,-0.626900,-0.985187,-3.469732,0.994993,-2.408329,-1.575436,-0.575625,9.851519,-0.057893,-0.062690,0.000000,0.103356,0.333542,-0.000000
2.310000,-0.554446,1.197837,-1.184004,2.650099,0.115557,0.252923,0.642859,-0.616979,-1.008778,-3.484708,0.986546,-2.309278,-1.420955,-1.101780,9.944828,-0.056867,-0.059351,0.000000,0.101721,0.333064,0.000000
2.320000,-0.527913,1.198962,-1.181525,2.656354,0.109437,0.242719,0.607941,-0.607169,-1.031373,-3.498151,0.972957,-2.209432,-1.272444,-1.594521,10.017268,-0.055859,-0.056017,0.000000,0.099644,0.332528,0.000000
2.330000,-0.501319,1.200026,-1.179150,2.662258,0.103414,0.232295,0.572896,-0.597520,-1.052966,-3.510156,0.954656,-2.108933,-1.129724,-2.056794,10.080408,-0.054874,-0.052690,0.000000,0.097167,0.331944,-0.000000
2.340000,-0.474668,1.201030,-1.176879,2.667812,0.097486,0.221660,0.537737,-0.588076,-1.073552,-3.520745,0.931821,-2.007824,-0.984887,-2.515361,10.138076,-0.053915,-0.049368,0.000000,0.094310,0.331315,0.000000
2.350000,-0.447963,1.201976,-1.174716,2.673013,0.091652,0.210824,0.502481,-0.578883,-1.093123,-3.529854,0.904348,-1.906171,-0.835793,-2.977279,10.180695,-0.052987,-0.046053,0.000000,0.091063,0.330636,0.000000
2.360000,-0.421208,1.202863,-1.172663,2.677861,0.085909,0.199798,0.467140,-0.569989,-1.111675,-3.537461,0.872275,-1.804210,-0.688014,-3.421927,10.208778,-0.052094,-0.042746,0.000000,0.087433,0.329907,-0.000000
2.370000,-0.394406,1.203694,-1.170720,2.682356,0.080252,0.188591,0.431731,-0.561438,-1.129207,-3.543614,0.835910,-1.701996,-0.546593,-3.827735,10.251569,-0.051239,-0.039446,0.000000,0.083447,0.329132,-0.000000
2.380000,-0.367560,1.204468,-1.168891,2.686496,0.074680,0.177214,0.396268,-0.553271,-1.145715,-3.548393,0.795721,-1.599179,-0.409710,-4.198872,10.312544,-0.050425,-0.036154,0.000000,0.079148,0.328317,0.000000
2.390000,-0.340676,1.205187,-1.167176,2.690281,0.069187,0.165676,0.360764,-0.545523,-1.161191,-3.551809,0.751932,-1.495745,-0.270974,-4.560833,10.353591,-0.049656,-0.032871,0.000000,0.074555,0.327464,0.000000
2.400000,-0.313755,1.205852,-1.165577,2.693711,0.063769,0.153990,0.325232,-0.538232,-1.175630,-3.553813,0.704504,-1.392107,-0.130870,-4.919760,10.363260,-0.048934,-0.029597,0.000000,0.069666,0.326570,-0.000000
2.410000,-0.286801,1.206463,-1.164096,2.696786,0.058422,0.142164,0.289687,-0.531433,-1.189033,-3.554426,0.653537,-1.288480,0.006359,-5.256551,10.369555,-0.048262,-0.026331,0.000000,0.064490,0.325638,0.000000
2.420000,-0.259819,1.207020,-1.162734,2.699505,0.053141,0.130209,0.254143,-0.525161,-1.201399,-3.553686,0.599373,-1.184716,0.142712,-5.552939,10.400086,-0.047644,-0.023076,0.000000,0.059055,0.324669,-0.000000
2.430000,-0.232811,1.207526,-1.161492,2.701869,0.047919,0.118136,0.218614,-0.519446,-1.212727,-3.551572,0.542478,-1.080478,0.279988,-5.813219,10.447233,-0.047081,-0.019830,0.000000,0.053402,0.323662,0.000000
2.440000,-0.205782,1.207979,-1.160371,2.703877,0.042752,0.105955,0.183112,-0.514312,-1.223009,-3.548086,0.483109,-0.975771,0.415083,-6.059148,10.476932,-0.046576,-0.016595,0.000000,0.047551,0.322617,-0.000000
2.450000,-0.178734,1.208381,-1.159373,2.705531,0.037633,0.093676,0.147652,-0.509784,-1.232243,-3.543270,0.421295,-0.870939,0.545888,-6.295966,10.485475,-0.046130,-0.013371,0.000000,0.041504,0.321538,-0.000000
2.460000,-0.151671,1.208731,-1.158498,2.706830,0.032556,0.081310,0.112247,-0.505886,-1.240428,-3.537168,0.357189,-0.766062,0.674667,-6.507652,10.496548,-0.045745,-0.010157,0.000000,0.035272,0.320429,-0.000000
2.470000,-0.124597,1.209032,-1.157747,2.707776,0.027515,0.068867,0.076909,-0.502640,-1.247564,-3.529777,0.291142,-0.661008,0.806226,-6.678928,10.518713,-0.045424,-0.006955,0.000000,0.028886,0.319289,0.000000
2.480000,-0.097516,1.209282,-1.157121,2.708368,0.022503,0.056358,0.041651,-0.500063,-1.253648,-3.521043,0.223611,-0.555688,0.939972,-6.813500,10.544783,-0.045168,-0.003765,0.000000,0.022381,0.318113,0.000000
2.490000,-0.070430,1.209482,-1.156620,2.708609,0.017514,0.043794,0.006488,-0.498168,-1.258678,-3.510977,0.154872,-0.450113,1.069388,-6.929907,10.565754,-0.044977,-0.000586,0.000000,0.015782,0.316902,-0.000000
2.500000,-0.043343,1.209632,-1.156245,2.708498,0.012540,0.031185,-0.028569,-0.496965,-1.262650,-3.499656,0.085013,-0.344373,1.193524,-7.033168,10.579497,-0.044852,0.002580,0.000000,0.009092,0.315663,-0.000000
2.510000,-0.016260,1.209733,-1.155996,2.708037,0.007575,0.018541,-0.063505,-0.496467,-1.265565,-3.487107,0.014209,-0.238523,1.316709,-7.109838,10.592427,-0.044795,0.005734,0.000000,0.002324,0.314397,0.000000
2.520000,0.010817,1.209783,-1.155874,2.707228,0.002611,0.005874,-0.098311,-0.496681,-1.267421,-3.473322,-0.057184,-0.132524,1.440259,-7.145882,10.612845,-0.044805,0.008875,0.000000,-0.004492,0.313104,-0.000000
2.530000,0.037885,1.209785,-1.155879,2.706071,-0.002359,-0.006807,-0.132972,-0.497611,-1.268215,-3.458302,-0.128709,-0.026266,1.562472,-7.144419,10.639602,-0.044885,0.012002,0.000000,-0.011320,0.311784,-0.000000
2.540000,0.064939,1.209736,-1.156010,2.704569,-0.007342,-0.019491,-0.167477,-0.499255,-1.267946,-3.442072,-0.200072,0.080268,1.681759,-7.123042,10.662081,-0.045032,0.015117,0.000000,-0.018136,0.310437,-0.000000
2.550000,0.091976,1.209638,-1.156268,2.702722,-0.012344,-0.032166,-0.201813,-0.501612,-1.266610,-3.424667,-0.271169,0.186976,1.799022,-7.087392,10.675704,-0.045247,0.018218,0.000000,-0.024935,0.309068,-0.000000
2.560000,0.118993,1.209489,-1.156653,2.700532,-0.017374,-0.044823,-0.235970,-0.504679,-1.264206,-3.406092,-0.341820,0.293782,1.915056,-7.024979,10.688086,-0.045531,0.021305,0.000000,-0.031703,0.307676,0.000000
2.570000,0.145987,1.209290,-1.157165,2.698002,-0.022438,-0.057450,-0.269935,-0.508449,-1.260734,-3.386365,-0.411669,0.400738,2.027111,-6.920894,10.711358,-0.045881,0.024378,0.000000,-0.038412,0.306262,-0.000000
2.580000,0.172953,1.209041,-1.157802,2.695134,-0.027543,-0.070038,-0.303697,-0.512912,-1.256192,-3.365549,-0.480238,0.508009,2.134576,-6.778057,10.744464,-0.046299,0.027437,0.000000,-0.045023,0.304832,-0.000000
2.590000,0.199889,1.208740,-1.158566,2.691928,-0.032696,-0.082574,-0.337246,-0.518054,-1.250574,-3.343674,-0.547230,0.615627,2.241135,-6.615907,10.771112,-0.046782,0.030481,0.000000,-0.051512,0.303388,0.000000
2.600000,0.226792,1.208387,-1.159454,2.688389,-0.037904,-0.095049,-0.370571,-0.523857,-1.243879,-3.320727,-0.612556,0.723431,2.347983,-6.441543,10.781843,-0.047329,0.033512,0.000000,-0.057874,0.301929,0.000000
2.610000,0.253657,1.207981,-1.160467,2.684517,-0.043173,-0.107452,-0.403661,-0.530305,-1.236106,-3.296714,-0.676061,0.831264,2.452437,-6.241551,10.788137,-0.047940,0.036527,0.000000,-0.064098,0.300453,-0.000000
2.620000,0.280482,1.207523,-1.161603,2.680315,-0.048510,-0.119771,-0.436505,-0.537378,-1.227254,-3.271678,-0.737387,0.939194,2.551679,-5.998129,10.814452,-0.048611,0.039528,0.000000,-0.070155,0.298965,0.000000
2.630000,0.307263,1.207011,-1.162862,2.675787,-0.053921,-0.131997,-0.469094,-0.545053,-1.217322,-3.245681,-0.796024,1.047553,2.646568,-5.714527,10.858941,-0.049343,0.042514,0.000000,-0.076001,0.297470,0.000000
2.640000,0.333998,1.206445,-1.164243,2.670934,-0.059411,-0.144118,-0.501419,-0.553299,-1.206303,-3.218747,-0.851678,1.156373,2.740656,-5.414710,10.887970,-0.050131,0.045485,0.000000,-0.081615,0.295972,0.000000
2.650000,0.360682,1.205823,-1.165744,2.665758,-0.064987,-0.156123,-0.533469,-0.562086,-1.194194,-3.190868,-0.904318,1.265312,2.833388,-5.107861,10.886990,-0.050975,0.048441,0.000000,-0.086994,0.294467,-0.000000
2.660000,0.387313,1.205145,-1.167365,2.660264,-0.070653,-0.168002,-0.565236,-0.571385,-1.180997,-3.162079,-0.953835,1.374113,2.922349,-4.777880,10.878860,-0.051871,0.051382,0.000000,-0.092128,0.292956,0.000000
2.670000,0.413887,1.204410,-1.169104,2.654454,-0.076414,-0.179743,-0.596711,-0.581163,-1.166712,-3.132421,-0.999875,1.482889,3.009382,-4.402936,10.898102,-0.052818,0.054308,0.000000,-0.096989,0.291444,0.000000
2.680000,0.440402,1.203617,-1.170960,2.648330,-0.082276,-0.191336,-0.627885,-0.591382,-1.151339,-3.101891,-1.041894,1.592075,3.095539,-3.987330,10.937840,-0.053811,0.057219,0.000000,-0.101529,0.289932,-0.000000
2.690000,0.466854,1.202765,-1.172931,2.641896,-0.088242,-0.202770,-0.658749,-0.602001,-1.134871,-3.070510,-1.079622,1.701646,3.178017,-3.561052,10.950811,-0.054849,0.060115,0.000000,-0.105727,0.288420,0.000000
2.700000,0.493240,1.201852,-1.175016,2.635155,-0.094316,-0.214033,-0.689295,-0.612975,-1.117306,-3.038331,-1.113115,1.811091,3.255145,-3.135110,10.927496,-0.055926,0.062997,0.000000,-0.109584,0.286912,-0.000000
2.710000,0.519557,1.200878,-1.177212,2.628110,-0.100502,-0.225116,-0.719515,-0.624263,-1.098649,-3.005407,-1.142324,1.920196,3.328859,-2.689825,10.898501,-0.057040,0.065863,0.000000,-0.113096,0.285408,0.000000
2.720000,0.545802,1.199842,-1.179518,2.620765,-0.106801,-0.236006,-0.749403,-0.635821,-1.078902,-2.971754,-1.166911,2.029061,3.402884,-2.200181,10.880494,-0.058188,0.068714,0.000000,-0.116233,0.283912,0.000000
2.730000,0.571972,1.198742,-1.181932,2.613122,-0.113218,-0.246694,-0.778950,-0.647601,-1.058067,-2.937349,-1.186328,2.137806,3.476625,-1.672073,10.861410,-0.059365,0.071551,0.000000,-0.118944,0.282420,0.000000
2.740000,0.598065,1.197578,-1.184452,2.605186,-0.119753,-0.257168,-0.808150,-0.659548,-1.036146,-2.902221,-1.200353,2.246289,3.544953,-1.140471,10.818561,-0.060567,0.074373,0.000000,-0.121207,0.280934,-0.000000
2.750000,0.624076,1.196347,-1.187075,2.596959,-0.126409,-0.267417,-0.836995,-0.671608,-1.013142,-2.866450,-1.209137,2.354177,3.607240,-0.617370,10.753752,-0.061790,0.077180,0.000000,-0.123032,0.279457,-0.000000
2.760000,0.650004,1.195049,-1.189800,2.588446,-0.133186,-0.277430,-0.865479,-0.683731,-0.989062,-2.830076,-1.212700,2.461364,3.666805,-0.080415,10.679545,-0.063028,0.079973,0.000000,-0.124418,0.277991,0.000000
2.770000,0.675845,1.193683,-1.192624,2.579649,-0.140084,-0.287198,-0.893596,-0.695862,-0.963914,-2.793114,-1.210746,2.567768,3.724204,0.496256,10.585256,-0.064278,0.082751,0.000000,-0.125335,0.276537,-0.000000
2.780000,0.701597,1.192248,-1.195544,2.570574,-0.147103,-0.296709,-0.921341,-0.707946,-0.937707,-2.755592,-1.202775,2.673069,3.777916,1.105198,10.462958,-0.065535,0.085515,0.000000,-0.125731,0.275092,-0.000000
2.790000,0.727257,1.190741,-1.198558,2.561223,-0.154242,-0.305952,-0.948708,-0.719918,-0.910453,-2.717556,-1.188642,2.777027,3.827292,1.709567,10.325943,-0.066793,0.088265,0.000000,-0.125587,0.273657,0.000000
2.800000,0.752821,1.189163,-1.201663,2.551600,-0.161501,-0.314918,-0.975692,-0.731718,-0.882166,-2.679047,-1.168584,2.879588,3.874135,2.297863,10.185516,-0.068047,0.091001,0.000000,-0.124919,0.272234,-0.000000
2.810000,0.778288,1.187511,-1.204856,2.541709,-0.168877,-0.323595,-1.002289,-0.743289,-0.852861,-2.640073,-1.142684,2.980738,3.918531,2.892904,10.029571,-0.069291,0.093723,0.000000,-0.123729,0.270822,0.000000
2.820000,0.803655,1.185785,-1.208135,2.531554,-0.176367,-0.331975,-1.028494,-0.754572,-0.822552,-2.600676,-1.110726,3.080180,3.955112,3.517454,9.825819,-0.070521,0.096431,0.000000,-0.121989,0.269419,0.000000
2.830000,0.828920,1.183984,-1.211496,2.521139,-0.183968,-0.340046,-1.054303,-0.765504,-0.791258,-2.560971,-1.072335,3.177254,3.983151,4.162873,9.574134,-0.071731,0.099125,0.000000,-0.119652,0.268029,-0.000000
2.840000,0.854078,1.182106,-1.214936,2.510468,-0.191677,-0.347800,-1.079713,-0.776019,-0.759007,-2.521013,-1.027468,3.271662,4.009961,4.795783,9.315990,-0.072914,0.101805,0.000000,-0.116705,0.266652,0.000000
2.850000,0.879129,1.180150,-1.218452,2.499545,-0.199489,-0.355227,-1.104723,-0.786053,-0.725824,-2.480772,-0.976420,3.363574,4.038958,5.407226,9.067155,-0.074065,0.104472,0.000000,-0.113167,0.265281,-0.000000
2.860000,0.904069,1.178116,-1.222040,2.488373,-0.207398,-0.362317,-1.129329,-0.795547,-0.691735,-2.440234,-0.919324,3.453006,4.064894,6.016779,8.797214,-0.075178,0.107126,0.000000,-0.109041,0.263915,-0.000000
2.870000,0.928896,1.176002,-1.225698,2.476958,-0.215400,-0.369061,-1.153527,-0.804440,-0.656764,-2.399474,-0.856084,3.539518,4.079329,6.639320,8.465356,-0.076246,0.109766,0.000000,-0.104307,0.262553,-0.000000
2.880000,0.953608,1.173808,-1.229422,2.465303,-0.223487,-0.375452,-1.177318,-0.812669,-0.620945,-2.358647,-0.786537,3.622313,4.083561,7.266019,8.078382,-0.077264,0.112392,0.000000,-0.098931,0.261196,-0.000000
2.890000,0.978202,1.171533,-1.233207,2.453412,-0.231653,-0.381480,-1.200700,-0.820171,-0.584318,-2.317802,-0.710764,3.701086,4.088872,7.873391,7.688996,-0.078224,0.115005,0.000000,-0.092908,0.259844,0.000000
2.900000,1.002677,1.169175,-1.237051,2.441289,-0.239890,-0.387138,-1.223674,-0.826884,-0.546923,-2.276870,-0.629069,3.776093,4.097804,8.457193,7.312571,-0.079122,0.117605,0.000000,-0.086256,0.258487,-0.000000
2.910000,1.027028,1.166735,-1.240950,2.428938,-0.248191,-0.392419,-1.246238,-0.832752,-0.508796,-2.235846,-0.541620,3.847337,4.102719,9.029522,6.912447,-0.079949,0.120191,0.000000,-0.078980,0.257121,0.000000
2.920000,1.051255,1.164211,-1.244900,2.416364,-0.256545,-0.397314,-1.268391,-0.837717,-0.469976,-2.194815,-0.448479,3.914342,4.098248,9.592356,6.451130,-0.080701,0.122764,0.000000,-0.071069,0.255744,-0.000000
2.930000,1.075356,1.161604,-1.248896,2.403570,-0.264945,-0.401818,-1.290134,-0.841721,-0.430509,-2.153881,-0.349773,3.976360,4.086893,10.137971,5.938460,-0.081371,0.125323,0.000000,-0.062516,0.254354,-0.000000
2.940000,1.099327,1.158912,-1.252936,2.390561,-0.273380,-0.405924,-1.311469,-0.844712,-0.390449,-2.113077,-0.245720,4.033111,4.075741,10.659694,5.423431,-0.081951,0.127868,0.000000,-0.053328,0.252943,-0.000000
2.950000,1.123167,1.156136,-1.257015,2.377341,-0.281839,-0.409627,-1.332396,-0.846636,-0.349847,-2.072367,-0.136579,4.084828,4.066345,11.159906,4.921859,-0.082437,0.130399,0.000000,-0.043517,0.251506,-0.000000
2.960000,1.146874,1.153276,-1.261129,2.363913,-0.290312,-0.412921,-1.352916,-0.847444,-0.308753,-2.031751,-0.022521,4.131548,4.054179,11.638755,4.400680,-0.082821,0.132916,0.000000,-0.033087,0.250037,0.000000
2.970000,1.170445,1.150330,-1.265273,2.350283,-0.298788,-0.415802,-1.373031,-0.847086,-0.267216,-1.991283,0.096196,4.172842,4.035880,12.081381,3.821483,-0.083098,0.135417,0.000000,-0.022048,0.248532,-0.000000
2.980000,1.193879,1.147300,-1.269445,2.336453,-0.307254,-0.418266,-1.392742,-0.845520,-0.225296,-1.951033,0.219106,4.207978,4.013032,12.482806,3.193568,-0.083262,0.137903,0.000000,-0.010425,0.246980,-0.000000
2.990000,1.217174,1.144185,-1.273638,2.322428,-0.315698,-0.420308,-1.412051,-0.842704,-0.183057,-1.911022,0.345852,4.236713,3.990362,12.858755,2.569016,-0.083306,0.140374,0.000000,0.001761,0.245373,0.000000
3.000000,1.240328,1.140986,-1.277851,2.308212,-0.324108,-0.421927,-1.430962,-0.838603,-0.140561,-1.871226,0.476281,4.259358,3.969419,13.219370,1.964831,-0.083226,0.142828,0.000000,0.014503,0.243705,0.000000
3.010000,1.263338,1.137703,-1.282077,2.293809,-0.332470,-0.423119,-1.449476,-0.833179,-0.097869,-1.831634,0.610240,4.276010,3.947387,13.549499,1.346803,-0.083016,0.145265,0.000000,0.027796,0.241971,0.000000
3.020000,1.286204,1.134337,-1.286313,2.279222,-0.340772,-0.423884,-1.467595,-0.826398,-0.055041,-1.792278,0.747271,4.286294,3.921000,13.815736,0.676606,-0.082670,0.147684,0.000000,0.041608,0.240162,0.000000
3.030000,1.308923,1.130887,-1.290555,2.264457,-0.348998,-0.424220,-1.485321,-0.818233,-0.012144,-1.753214,0.886555,4.289542,3.891391,14.017384,-0.034671,-0.082183,0.150085,0.000000,0.055873,0.238264,-0.000000
3.040000,1.331493,1.127357,-1.294798,2.249516,-0.357136,-0.424127,-1.502659,-0.808667,0.030750,-1.714450,1.027619,4.285601,3.863440,14.195210,-0.733903,-0.081552,0.152465,0.000000,0.070550,0.236268,0.000000
3.050000,1.353913,1.123745,-1.299037,2.234404,-0.365172,-0.423605,-1.519610,-0.797681,0.073568,-1.675945,1.170459,4.274864,3.838249,14.366951,-1.407309,-0.080771,0.154826,0.000000,0.085643,0.234169,-0.000000
3.060000,1.376181,1.120053,-1.303270,2.219124,-0.373090,-0.422656,-1.536178,-0.785257,0.116247,-1.637685,1.314958,4.257454,3.812994,14.500975,-2.088400,-0.079838,0.157164,0.000000,0.101142,0.231957,-0.000000
3.070000,1.398296,1.116283,-1.307490,2.203680,-0.380877,-0.421280,-1.552364,-0.771382,0.158717,-1.599685,1.460478,4.233096,3.786235,14.546936,-2.803964,-0.078748,0.159479,0.000000,0.116989,0.229623,-0.000000
3.080000,1.420255,1.112436,-1.311695,2.188076,-0.388518,-0.419481,-1.568172,-0.756048,0.200909,-1.561961,1.605897,4.201375,3.759406,14.509462,-3.541150,-0.077498,0.161771,0.000000,0.133073,0.227153,-0.000000
3.090000,1.442057,1.108513,-1.315880,2.172317,-0.395998,-0.417262,-1.583603,-0.739264,0.242745,-1.524497,1.750667,4.162273,3.734917,14.452680,-4.261547,-0.076086,0.164036,0.000000,0.149337,0.224536,0.000000
3.100000,1.463701,1.104516,-1.320040,2.156404,-0.403303,-0.414626,-1.598662,-0.721035,0.284154,-1.487262,1.894950,4.116144,3.712625,14.400373,-4.958541,-0.074510,0.166274,0.000000,0.165790,0.221766,0.000000
3.110000,1.485185,1.100447,-1.324173,2.140343,-0.410419,-0.411579,-1.613349,-0.701365,0.325068,-1.450245,2.038675,4.063102,3.691562,14.306149,-5.654350,-0.072769,0.168483,0.000000,0.182418,0.218836,0.000000
3.120000,1.506508,1.096307,-1.328272,2.124137,-0.417330,-0.408125,-1.627666,-0.680261,0.365416,-1.413431,2.181073,4.003057,3.673319,14.107785,-6.356446,-0.070861,0.170662,0.000000,0.199136,0.215734,0.000000
3.130000,1.527668,1.092100,-1.332335,2.107790,-0.424024,-0.404271,-1.641617,-0.657743,0.405129,-1.376778,2.320831,3.935973,3.658936,13.815531,-7.053667,-0.068786,0.172809,0.000000,0.215797,0.212448,-0.000000
3.140000,1.548664,1.087827,-1.336357,2.091305,-0.430485,-0.400022,-1.655202,-0.633844,0.444136,-1.340252,2.457384,3.861984,3.646919,13.510510,-7.732594,-0.066545,0.174921,0.000000,0.232327,0.208968,0.000000
3.150000,1.569494,1.083490,-1.340335,2.074686,-0.436701,-0.395388,-1.668422,-0.608596,0.482369,-1.303840,2.591041,3.781321,3.635618,13.219785,-8.395907,-0.064139,0.176997,0.000000,0.248742,0.205289,-0.000000
3.160000,1.590157,1.079093,-1.344265,2.057937,-0.442657,-0.390375,-1.681279,-0.582024,0.519762,-1.267540,2.721780,3.694066,3.626654,12.887097,-9.048085,-0.061570,0.179035,0.000000,0.265020,0.201407,0.000000
3.170000,1.610653,1.074637,-1.348143,2.041060,-0.448341,-0.384993,-1.693773,-0.554160,0.556250,-1.231307,2.848783,3.600360,3.625309,12.445802,-9.673156,-0.058838,0.181032,0.000000,0.281058,0.197310,-0.000000
3.180000,1.630979,1.070126,-1.351965,2.024061,-0.453740,-0.379250,-1.705905,-0.525048,0.591769,-1.195034,2.970696,3.500603,3.631885,11.910798,-10.264544,-0.055948,0.182988,0.000000,0.296687,0.192991,-0.000000
3.190000,1.651134,1.065562,-1.355728,2.006942,-0.458842,-0.373157,-1.717674,-0.494746,0.626262,-1.158669,3.086999,3.395069,3.639978,11.370719,-10.839554,-0.052904,0.184898,0.000000,0.311827,0.188443,0.000000
3.200000,1.671117,1.060949,-1.359428,1.989708,-0.463635,-0.366725,-1.729078,-0.463308,0.659671,-1.122234,3.198110,3.283811,3.647149,10.853351,-11.408053,-0.049711,0.186761,0.000000,0.326496,0.183665,0.000000
3.210000,1.690928,1.056290,-1.363062,1.972361,-0.468108,-0.359964,-1.740118,-0.430784,0.691938,-1.085726,3.304066,3.166908,3.658268,10.299266,-11.953706,-0.046374,0.188575,0.000000,0.340673,0.178652,0.000000
3.220000,1.710565,1.051587,-1.366627,1.954905,-0.472251,-0.352886,-1.750793,-0.397227,0.723009,-1.049069,3.404095,3.044737,3.680141,9.643948,-12.444416,-0.042898,0.190338,0.000000,0.354247,0.173402,0.000000
3.230000,1.730026,1.046845,-1.370120,1.937345,-0.476053,-0.345504,-1.761100,-0.362702,0.752833,-1.012123,3.496945,2.918019,3.711917,8.906887,-12.879357,-0.039289,0.192046,0.000000,0.367051,0.167911,-0.000000
3.240000,1.749312,1.042066,-1.373538,1.919683,-0.479505,-0.337829,-1.771035,-0.327288,0.781369,-0.974830,3.582233,2.787150,3.745024,8.175390,-13.297306,-0.035557,0.193698,0.000000,0.379015,0.162178,0.000000
3.250000,1.768420,1.037254,-1.376877,1.901924,-0.482599,-0.329876,-1.780596,-0.291057,0.808576,-0.937223,3.660453,2.652073,3.776663,7.463213,-13.719011,-0.031709,0.195292,0.000000,0.390165,0.156207,-0.000000
3.260000,1.787350,1.032414,-1.380135,1.884071,-0.485326,-0.321658,-1.789780,-0.254079,0.834411,-0.899297,3.731497,2.512770,3.813037,6.714788,-14.113766,-0.027754,0.196824,0.000000,0.400462,0.149994,0.000000
3.270000,1.806101,1.027548,-1.383310,1.866129,-0.487680,-0.313188,-1.798582,-0.216427,0.858831,-0.860962,3.794748,2.369798,3.861546,5.908831,-14.421621,-0.023700,0.198292,0.000000,0.409809,0.143543,0.000000
3.280000,1.824673,1.022660,-1.386399,1.848100,-0.489655,-0.304481,-1.806999,-0.178184,0.881807,-0.822066,3.849674,2.224338,3.921070,5.063810,-14.646687,-0.019558,0.199695,0.000000,0.418122,0.136865,-0.000000
3.290000,1.843063,1.017755,-1.389400,1.829989,-0.491244,-0.295552,-1.815024,-0.139434,0.903318,-0.782541,3.896025,2.076864,3.982013,4.210315,-14.866211,-0.015338,0.201030,0.000000,0.425347,0.129965,-0.000000
3.300000,1.861272,1.012835,-1.392310,1.811799,-0.492443,-0.286415,-1.822650,-0.100263,0.923344,-0.742426,3.933880,1.927013,4.039127,3.374970,-15.103613,-0.011052,0.202294,0.000000,0.431475,0.122843,-0.000000
3.310000,1.879299,1.007906,-1.395128,1.793536,-0.493249,-0.277085,-1.829872,-0.060756,0.941858,-0.701758,3.963524,1.774792,4.099283,2.540261,-15.303736,-0.006710,0.203486,0.000000,0.436516,0.115507,-0.000000
3.320000,1.897143,1.002970,-1.397852,1.775202,-0.493658,-0.267578,-1.836685,-0.020993,0.958840,-0.660440,3.984685,1.620939,4.176476,1.637868,-15.408444,-0.002322,0.204604,0.000000,0.440422,0.107968,-0.000000
3.330000,1.914803,0.998033,-1.400479,1.756802,-0.493669,-0.257908,-1.843081,0.018937,0.974277,-0.618229,3.996281,1.466623,4.269767,0.676373,-15.431489,0.002098,0.205645,0.000000,0.443059,0.100232,0.000000
3.340000,1.932279,0.993097,-1.403010,1.738340,-0.493280,-0.248092,-1.849050,0.058933,0.988172,-0.575045,3.998213,1.312309,4.360088,-0.244895,-15.447525,0.006538,0.206608,0.000000,0.444406,0.092306,0.000000
3.350000,1.949570,0.988167,-1.405441,1.719821,-0.492490,-0.238145,-1.854582,0.098902,1.000523,-0.531027,3.991383,1.157672,4.438368,-1.122071,-15.480606,0.010985,0.207491,0.000000,0.444555,0.084207,0.000000
3.360000,1.966676,0.983247,-1.407773,1.701249,-0.491302,-0.228082,-1.859670,0.138760,1.011326,-0.486278,3.975772,1.002697,4.517772,-2.015765,-15.479112,0.015429,0.208292,0.000000,0.443499,0.075951,0.000000
3.370000,1.983595,0.978341,-1.410003,1.682627,-0.489715,-0.217918,-1.864307,0.178417,1.020577,-0.440672,3.951068,0.848090,4.620463,-2.904618,-15.382495,0.019855,0.209010,0.000000,0.441200,0.067550,-0.000000
3.380000,2.000328,0.973453,-1.412131,1.663962,-0.487733,-0.207670,-1.868484,0.217782,1.028288,-0.393868,3.917679,0.695047,4.741139,-3.758139,-15.205777,0.024252,0.209644,0.000000,0.437708,0.059002,-0.000000
3.390000,2.016874,0.968587,-1.414156,1.645258,-0.485359,-0.197353,-1.872185,0.256771,1.034478,-0.345849,3.875905,0.543975,4.850020,-4.603862,-15.029035,0.028608,0.210191,0.000000,0.433064,0.050323,-0.000000
3.400000,2.033233,0.963746,-1.416078,1.626519,-0.482598,-0.186981,-1.875401,0.295300,1.039167,-0.296868,3.825602,0.394466,4.952612,-5.470953,-14.867741,0.032912,0.210650,0.000000,0.427257,0.041541,-0.000000
3.410000,2.049405,0.958935,-1.417896,1.607750,-0.479453,-0.176569,-1.878122,0.333283,1.042368,-0.246796,3.766486,0.246620,5.067513,-6.331818,-14.668978,0.037153,0.211022,0.000000,0.420265,0.032652,0.000000
3.420000,2.065388,0.954157,-1.419609,1.588956,-0.475932,-0.166133,-1.880336,0.370630,1.044099,-0.195518,3.698966,0.101087,5.172476,-7.104381,-14.402083,0.041317,0.211304,0.000000,0.412149,0.023668,-0.000000
3.430000,2.081184,0.949416,-1.421219,1.570143,-0.472041,-0.155687,-1.882032,0.407262,1.044389,-0.143347,3.624399,-0.041422,5.262724,-7.790543,-14.085492,0.045395,0.211495,0.000000,0.403077,0.014648,-0.000000
3.440000,2.096791,0.944716,-1.422723,1.551316,-0.467787,-0.145245,-1.883203,0.443118,1.043271,-0.090263,3.543155,-0.180623,5.368835,-8.493877,-13.759612,0.049378,0.211597,0.000000,0.393107,0.005604,0.000000
3.450000,2.112210,0.940060,-1.424123,1.532479,-0.463178,-0.134822,-1.883838,0.478125,1.040777,-0.035970,3.454521,-0.316614,5.471204,-9.225259,-13.431005,0.053257,0.211608,0.000000,0.382179,-0.003488,0.000000
3.460000,2.127441,0.935452,-1.425420,1.513639,-0.458224,-0.124430,-1.883923,0.512208,1.036939,0.019161,3.358650,-0.449243,5.550046,-9.910017,-13.075174,0.057021,0.211527,0.000000,0.370328,-0.012579,0.000000
3.470000,2.142483,0.930896,-1.426612,1.494801,-0.452934,-0.114083,-1.883455,0.545298,1.031792,0.075031,3.256321,-0.578117,5.670173,-10.526724,-12.680139,0.060663,0.211356,0.000000,0.357663,-0.021640,0.000000
3.480000,2.157337,0.926394,-1.427701,1.475970,-0.447318,-0.103794,-1.882422,0.577334,1.025376,0.132564,3.148115,-0.702846,5.840332,-11.093095,-12.254763,0.064174,0.211094,0.000000,0.344273,-0.030757,-0.000000
3.490000,2.172002,0.921949,-1.428688,1.457152,-0.441388,-0.093576,-1.880803,0.608261,1.017735,0.191837,3.034459,-0.823213,5.967919,-11.627969,-11.817571,0.067548,0.210740,0.000000,0.330226,-0.039925,0.000000
3.500000,2.186480,0.917566,-1.429573,1.438354,-0.435153,-0.083439,-1.878585,0.638024,1.008912,0.251923,2.915556,-0.939198,6.041435,-12.162230,-11.381312,0.070778,0.210293,0.000000,0.315566,-0.049039,-0.000000
3.510000,2.200769,0.913246,-1.430357,1.419580,-0.428627,-0.073397,-1.875765,0.666572,0.998951,0.312666,2.791214,-1.050839,6.122356,-12.677962,-10.935969,0.073859,0.209756,0.000000,0.300291,-0.058077,-0.000000
3.520000,2.214871,0.908993,-1.431041,1.400838,-0.421822,-0.063460,-1.872332,0.693848,0.987895,0.374370,2.661996,-1.157917,6.216526,-13.072705,-10.451932,0.076784,0.209129,0.000000,0.284484,-0.067063,-0.000000
3.530000,2.228786,0.904810,-1.431626,1.382134,-0.414750,-0.053639,-1.868277,0.719812,0.975793,0.436997,2.529760,-1.259878,6.298101,-13.343326,-9.934717,0.079549,0.208411,0.000000,0.268374,-0.075977,-0.000000
3.540000,2.242514,0.900698,-1.432114,1.363473,-0.407426,-0.043945,-1.863592,0.744443,0.962698,0.500332,2.395130,-1.356611,6.362551,-13.627166,-9.428728,0.082151,0.207605,0.000000,0.252047,-0.084789,0.000000
3.550000,2.256056,0.896661,-1.432505,1.344862,-0.399861,-0.034385,-1.858271,0.767714,0.948661,0.564248,2.257217,-1.448452,6.432191,-13.962251,-8.935934,0.084590,0.206710,0.000000,0.235420,-0.093491,0.000000
3.560000,2.269411,0.892701,-1.432801,1.326307,-0.392071,-0.024971,-1.852307,0.789587,0.933729,0.628976,2.115885,-1.535330,6.505430,-14.252306,-8.430387,0.086860,0.205728,0.000000,0.218492,-0.102106,-0.000000
3.570000,2.282582,0.888820,-1.433004,1.307816,-0.384070,-0.015711,-1.845691,0.810032,0.917954,0.694356,1.972171,-1.617060,6.520802,-14.413488,-7.923016,0.088960,0.204660,0.000000,0.201395,-0.110611,0.000000
3.580000,2.295568,0.885020,-1.433115,1.289394,-0.375871,-0.006612,-1.838420,0.829031,0.901388,0.759392,1.827615,-1.693790,6.475447,-14.476121,-7.429479,0.090888,0.203508,0.000000,0.184304,-0.118901,0.000000
3.590000,2.308370,0.881302,-1.433137,1.271047,-0.367489,0.002317,-1.830503,0.846584,0.884078,0.823865,1.682648,-1.765649,6.451476,-14.547130,-6.936728,0.092646,0.202273,0.000000,0.167276,-0.126958,-0.000000
3.600000,2.320989,0.877670,-1.433069,1.252784,-0.358939,0.011069,-1.821943,0.862684,0.866075,0.888421,1.536672,-1.832525,6.454428,-14.634627,-6.421008,0.094234,0.200958,0.000000,0.150255,-0.134848,0.000000
3.610000,2.333425,0.874124,-1.432915,1.234609,-0.350235,0.019638,-1.812735,0.877318,0.847428,0.952954,1.389956,-1.894070,6.427616,-14.668223,-5.897091,0.095651,0.199564,0.000000,0.133283,-0.142556,0.000000
3.620000,2.345681,0.870665,-1.432676,1.216529,-0.341393,0.028018,-1.802884,0.890483,0.828193,1.016974,1.243308,-1.950467,6.370704,-14.637413,-5.434965,0.096900,0.198094,0.000000,0.116450,-0.150034,0.000000
3.630000,2.357756,0.867296,-1.432355,1.198551,-0.332426,0.036202,-1.792396,0.902184,0.808418,1.080368,1.097208,-2.002769,6.300197,-14.566767,-5.038401,0.097981,0.196549,0.000000,0.099803,-0.157297,-0.000000
3.640000,2.369652,0.864017,-1.431952,1.180681,-0.323349,0.044186,-1.781276,0.912427,0.788138,1.142977,0.951973,-2.051235,6.211020,-14.466878,-4.615508,0.098896,0.194933,0.000000,0.083375,-0.164336,-0.000000
3.650000,2.381369,0.860829,-1.431471,1.162925,-0.314177,0.051965,-1.769536,0.921223,0.767394,1.204588,0.807870,-2.095079,6.119687,-14.343175,-4.130846,0.099648,0.193247,0.000000,0.067206,-0.171113,0.000000
3.660000,2.392910,0.857733,-1.430913,1.145290,-0.304924,0.059534,-1.757185,0.928585,0.746236,1.265371,0.665109,-2.133852,6.028146,-14.190769,-3.651112,0.100240,0.191494,0.000000,0.051323,-0.177643,-0.000000
3.670000,2.404275,0.854730,-1.430280,1.127782,-0.295605,0.066890,-1.744229,0.934525,0.724717,1.325151,0.524055,-2.168101,5.878339,-13.990546,-3.264637,0.100675,0.189676,0.000000,0.035761,-0.183922,-0.000000
3.680000,2.415466,0.851821,-1.429575,1.110406,-0.286234,0.074028,-1.730682,0.939066,0.702874,1.382938,0.385298,-2.199144,5.666211,-13.743446,-2.951682,0.100956,0.187797,0.000000,0.020565,-0.189877,-0.000000
3.690000,2.426483,0.849006,-1.428800,1.093168,-0.276824,0.080947,-1.716570,0.942231,0.680734,1.438475,0.249186,-2.227135,5.472035,-13.478801,-2.598410,0.101087,0.185859,0.000000,0.005768,-0.195488,0.000000
3.700000,2.437329,0.846285,-1.427956,1.076074,-0.267389,0.087643,-1.701912,0.944049,0.658331,1.492379,0.115722,-2.251113,5.311095,-13.212783,-2.201927,0.101072,0.183867,0.000000,-0.008619,-0.200805,-0.000000
3.710000,2.448005,0.843658,-1.427047,1.059130,-0.257943,0.094114,-1.686722,0.944546,0.635711,1.544697,-0.015070,-2.271174,5.128800,-12.927032,-1.838399,0.100915,0.181823,0.000000,-0.022600,-0.205841,0.000000
3.720000,2.458512,0.841126,-1.426074,1.042340,-0.248498,0.100357,-1.671018,0.943748,0.612908,1.594955,-0.142818,-2.287881,4.900349,-12.585976,-1.500201,0.100620,0.179729,0.000000,-0.036143,-0.210560,0.000000
3.730000,2.468852,0.838688,-1.425040,1.025709,-0.239068,0.106372,-1.654823,0.941689,0.589954,1.642704,-0.266790,-2.301178,4.643645,-12.197717,-1.159329,0.100192,0.177590,0.000000,-0.049177,-0.214921,0.000000
3.740000,2.479026,0.836344,-1.423947,1.009243,-0.229665,0.112156,-1.638164,0.938412,0.566884,1.687828,-0.386773,-2.311067,4.389549,-11.813309,-0.833092,0.099637,0.175409,0.000000,-0.061683,-0.218915,0.000000
3.750000,2.489037,0.834095,-1.422797,0.992946,-0.220300,0.117710,-1.621067,0.933954,0.543732,1.730495,-0.503056,-2.317839,4.147093,-11.432590,-0.533066,0.098959,0.173190,0.000000,-0.073700,-0.222572,0.000000
3.760000,2.498885,0.831938,-1.421592,0.976822,-0.210986,0.123031,-1.603554,0.928351,0.520528,1.770769,-0.615425,-2.321728,3.896797,-11.024896,-0.245743,0.098163,0.170936,0.000000,-0.085212,-0.225907,0.000000
3.770000,2.508573,0.829875,-1.420336,0.960875,-0.201733,0.128120,-1.585651,0.921645,0.497298,1.808431,-0.723554,-2.322754,3.614900,-10.606504,0.048398,0.097255,0.168650,0.000000,-0.096191,-0.228903,-0.000000
3.780000,2.518102,0.827904,-1.419030,0.945109,-0.192553,0.132977,-1.567386,0.913880,0.474073,1.843067,-0.827555,-2.320760,3.309291,-10.191637,0.344642,0.096239,0.166336,0.000000,-0.106652,-0.231518,-0.000000
3.790000,2.527475,0.826024,-1.417676,0.929527,-0.183455,0.137602,-1.548790,0.905094,0.450883,1.874617,-0.927386,-2.315861,3.013163,-9.759558,0.617654,0.095122,0.163998,0.000000,-0.116599,-0.233755,0.000000
3.800000,2.536693,0.824235,-1.416278,0.914133,-0.174451,0.141995,-1.529893,0.895332,0.427755,1.903331,-1.022746,-2.308407,2.725073,-9.306725,0.871128,0.093907,0.161640,0.000000,-0.126008,-0.235649,0.000000
3.810000,2.545758,0.822535,-1.414837,0.898929,-0.165549,0.146157,-1.510723,0.884639,0.404715,1.929118,-1.113521,-2.298439,2.425169,-8.851015,1.121554,0.092602,0.159265,0.000000,-0.134873,-0.237196,-0.000000
3.820000,2.554672,0.820924,-1.413355,0.883919,-0.156758,0.150089,-1.491311,0.873062,0.381787,1.951834,-1.199766,-2.285976,2.126542,-8.400760,1.354132,0.091210,0.156876,0.000000,-0.143205,-0.238388,-0.000000
3.830000,2.563436,0.819400,-1.411835,0.869103,-0.148087,0.153793,-1.471687,0.860644,0.358995,1.971649,-1.281536,-2.271356,1.837076,-7.956189,1.561148,0.089738,0.154477,0.000000,-0.151019,-0.239250,-0.000000
3.840000,2.572054,0.817962,-1.410279,0.854485,-0.139545,0.157269,-1.451878,0.847431,0.336359,1.988576,-1.358890,-2.254753,1.540057,-7.510712,1.764736,0.088190,0.152071,0.000000,-0.158328,-0.239792,-0.000000
3.850000,2.580526,0.816609,-1.408689,0.840066,-0.131139,0.160520,-1.431915,0.833466,0.313900,2.002450,-1.431750,-2.236061,1.242453,-7.038449,1.977453,0.086571,0.149662,0.000000,-0.165127,-0.239998,0.000000
3.860000,2.588855,0.815339,-1.407069,0.825847,-0.122876,0.163547,-1.411829,0.818796,0.291638,2.013425,-1.499659,-2.215204,0.957194,-6.548813,2.183382,0.084887,0.147253,0.000000,-0.171373,-0.239887,0.000000
3.870000,2.597043,0.814151,-1.405419,0.811829,-0.114763,0.166352,-1.391647,0.803473,0.269596,2.021594,-1.562727,-2.192394,0.662014,-6.123634,2.353690,0.083144,0.144847,0.000000,-0.177085,-0.239476,0.000000
3.880000,2.605092,0.813044,-1.403742,0.798014,-0.106806,0.168939,-1.371397,0.787542,0.247790,2.026665,-1.622132,-2.168131,0.354844,-5.764970,2.493026,0.081346,0.142447,0.000000,-0.182394,-0.238745,-0.000000
3.890000,2.613003,0.812015,-1.402040,0.784401,-0.099012,0.171308,-1.351113,0.771031,0.226233,2.028691,-1.678026,-2.142533,0.070012,-5.363820,2.640228,0.079496,0.140056,0.000000,-0.187319,-0.237705,-0.000000
3.900000,2.620780,0.811064,-1.400315,0.770991,-0.091386,0.173463,-1.330823,0.753981,0.204940,2.028065,-1.729408,-2.115326,-0.199495,-4.907330,2.799704,0.077599,0.137678,0.000000,-0.191758,-0.236394,-0.000000
3.910000,2.628423,0.810187,-1.398570,0.757785,-0.083932,0.175407,-1.310552,0.736442,0.183927,2.024701,-1.776173,-2.086539,-0.473813,-4.470990,2.945962,0.075661,0.135314,0.000000,-0.195707,-0.234807,-0.000000
3.920000,2.635935,0.809385,-1.396807,0.744780,-0.076657,0.177142,-1.290329,0.718458,0.163209,2.018589,-1.818828,-2.056407,-0.718107,-4.071397,3.074467,0.073685,0.132968,0.000000,-0.199222,-0.232950,0.000000
3.930000,2.643319,0.808654,-1.395028,0.731978,-0.069563,0.178671,-1.270180,0.700066,0.142799,2.010339,-1.857601,-2.025050,-0.919158,-3.681622,3.196372,0.071676,0.130642,0.000000,-0.202331,-0.230887,-0.000000
3.940000,2.650575,0.807994,-1.393234,0.719377,-0.062656,0.179998,-1.250122,0.681306,0.122708,2.000206,-1.892460,-1.992479,-1.124718,-3.287263,3.316372,0.069639,0.128338,0.000000,-0.205034,-0.228647,-0.000000
3.950000,2.657706,0.807401,-1.391428,0.706976,-0.055937,0.181125,-1.230176,0.662217,0.102949,1.987845,-1.923346,-1.958722,-1.362416,-2.903431,3.421901,0.067576,0.126058,0.000000,-0.207329,-0.226197,0.000000
3.960000,2.664714,0.806875,-1.389611,0.694773,-0.049411,0.182057,-1.210365,0.642839,0.083533,1.972957,-1.950529,-1.924041,-1.595974,-2.538461,3.512081,0.065492,0.123804,0.000000,-0.209249,-0.223512,-0.000000
3.970000,2.671602,0.806413,-1.387787,0.682768,-0.043080,0.182796,-1.190717,0.623206,0.064468,1.955925,-1.974115,-1.888481,-1.755486,-2.157320,3.622715,0.063391,0.121578,0.000000,-0.210807,-0.220631,0.000000
3.980000,2.678370,0.806013,-1.385955,0.670959,-0.036947,0.183346,-1.171247,0.603356,0.045764,1.937848,-1.993675,-1.851587,-1.850533,-1.758692,3.756228,0.061276,0.119382,0.000000,-0.211960,-0.217663,0.000000
3.990000,2.685021,0.805674,-1.384120,0.659343,-0.031013,0.183711,-1.151960,0.583333,0.027436,1.918915,-2.009289,-1.813356,-1.972698,-1.391985,3.864122,0.059152,0.117217,0.000000,-0.212718,-0.214627,-0.000000
4.000000,2.691557,0.805393,-1.382281,0.647920,-0.025280,0.183895,-1.132869,0.563171,0.009497,1.898394,-2.021515,-1.774305,-2.126443,-1.046081,3.940268,0.057021,0.115082,0.000000,-0.213144,-0.211457,0.000000
4.010000,2.697979,0.805168,-1.380442,0.636686,-0.019750,0.183901,-1.113992,0.542902,-0.008050,1.876386,-2.030210,-1.734551,-2.250001,-0.689726,4.018078,0.054889,0.112980,0.000000,-0.213229,-0.208164,-0.000000
4.020000,2.704290,0.804998,-1.378603,0.625640,-0.014422,0.183734,-1.095341,0.522566,-0.025194,1.853394,-2.035309,-1.693943,-2.345530,-0.369377,4.104923,0.052757,0.110912,0.000000,-0.212965,-0.204798,-0.000000
4.030000,2.710492,0.804880,-1.376767,0.614779,-0.009299,0.183397,-1.076924,0.502196,-0.041928,1.829475,-2.037598,-1.652452,-2.433746,-0.098380,4.189307,0.050629,0.108879,0.000000,-0.212435,-0.201364,-0.000000
4.040000,2.716586,0.804812,-1.374935,0.604101,-0.004378,0.182895,-1.058751,0.481814,-0.058243,1.804719,-2.037277,-1.610157,-2.506478,0.188998,4.264291,0.048508,0.106880,0.000000,-0.211660,-0.197874,-0.000000
4.050000,2.722574,0.804792,-1.373109,0.593604,0.000338,0.182233,-1.040830,0.461451,-0.074132,1.779345,-2.033818,-1.567167,-2.568150,0.499941,4.331639,0.046396,0.104916,0.000000,-0.210591,-0.194350,0.000000
4.060000,2.728458,0.804819,-1.371291,0.583285,0.004851,0.181413,-1.023165,0.441138,-0.089587,1.753356,-2.027278,-1.523524,-2.624685,0.789044,4.395506,0.044296,0.102989,0.000000,-0.209235,-0.190793,-0.000000
4.070000,2.734240,0.804889,-1.369481,0.573141,0.009161,0.180441,-1.005763,0.420905,-0.104602,1.726852,-2.018037,-1.479257,-2.653309,1.053846,4.453886,0.042211,0.101097,0.000000,-0.207631,-0.187213,-0.000000
4.080000,2.739921,0.805002,-1.367682,0.563170,0.013269,0.179321,-0.988628,0.400777,-0.119172,1.700290,-2.006201,-1.434446,-2.651059,1.310025,4.504895,0.040143,0.099241,0.000000,-0.205793,-0.183656,-0.000000
4.090000,2.745503,0.805155,-1.365894,0.553368,0.017176,0.178057,-0.971757,0.380781,-0.133291,1.673831,-1.991837,-1.389159,-2.650627,1.556648,4.551621,0.038095,0.097421,0.000000,-0.203727,-0.180139,0.000000
4.100000,2.750988,0.805346,-1.364121,0.543734,0.020884,0.176655,-0.955151,0.360941,-0.146955,1.647277,-1.975068,-1.343414,-2.657878,1.791872,4.597032,0.036069,0.095635,0.000000,-0.201449,-0.176641,-0.000000
4.110000,2.756378,0.805572,-1.362361,0.534265,0.024395,0.175118,-0.938811,0.341280,-0.160159,1.620673,-1.955999,-1.297218,-2.650932,2.016801,4.638776,0.034066,0.093885,0.000000,-0.198968,-0.173167,-0.000000
4.120000,2.761673,0.805833,-1.360618,0.524958,0.027710,0.173452,-0.922737,0.321821,-0.172899,1.594258,-1.934732,-1.250638,-2.622275,2.230024,4.669532,0.032089,0.092170,0.000000,-0.196297,-0.169740,0.000000
4.130000,2.766877,0.806127,-1.358892,0.515811,0.030831,0.171660,-0.906926,0.302585,-0.185172,1.568228,-1.911399,-1.203827,-2.580155,2.430739,4.690176,0.030140,0.090489,0.000000,-0.193450,-0.166381,-0.000000
4.140000,2.771990,0.806450,-1.357185,0.506820,0.033762,0.169748,-0.891373,0.283593,-0.196976,1.542655,-1.886118,-1.156835,-2.534213,2.621101,4.710468,0.028220,0.088841,0.000000,-0.190438,-0.163096,0.000000
4.150000,2.777013,0.806802,-1.355497,0.497983,0.036503,0.167721,-0.876073,0.264863,-0.208309,1.517543,-1.858977,-1.109618,-2.483495,2.803618,4.729007,0.026331,0.087225,0.000000,-0.187271,-0.159884,-0.000000
4.160000,2.781949,0.807180,-1.353831,0.489298,0.039059,0.165582,-0.861022,0.246413,-0.219168,1.492985,-1.830045,-1.062255,-2.422760,2.976618,4.739504,0.024475,0.085642,0.000000,-0.183957,-0.156755,-0.000000
4.170000,2.786799,0.807583,-1.352186,0.480763,0.041431,0.163337,-0.846213,0.228262,-0.229554,1.469088,-1.799444,-1.014828,-2.355980,3.133539,4.748031,0.022652,0.084089,0.000000,-0.180506,-0.153718,0.000000
4.180000,2.791565,0.808009,-1.350564,0.472374,0.043624,0.160991,-0.831640,0.210424,-0.239465,1.445866,-1.767374,-0.967294,-2.285890,3.274548,4.756899,0.020864,0.082567,0.000000,-0.176939,-0.150775,0.000000
4.190000,2.796247,0.808456,-1.348966,0.464130,0.045640,0.158548,-0.817296,0.192914,-0.248900,1.423370,-1.733953,-0.919690,-2.207886,3.408676,4.757340,0.019113,0.081073,0.000000,-0.173268,-0.147929,-0.000000
4.200000,2.800847,0.808922,-1.347393,0.456028,0.047482,0.156013,-0.803173,0.175745,-0.257859,1.401708,-1.699201,-0.872147,-2.121761,3.538461,4.749591,0.017399,0.079607,0.000000,-0.169495,-0.145191,-0.000000
4.210000,2.805367,0.809405,-1.345846,0.448066,0.049155,0.153391,-0.789262,0.158930,-0.266343,1.380935,-1.663184,-0.824698,-2.031663,3.657808,4.739605,0.015723,0.078169,0.000000,-0.165625,-0.142566,0.000000
4.220000,2.809808,0.809905,-1.344325,0.440243,0.050661,0.150686,-0.775554,0.142481,-0.274353,1.361075,-1.626045,-0.777355,-1.938505,3.761480,4.723948,0.014086,0.076756,0.000000,-0.161672,-0.140055,-0.000000
4.230000,2.814172,0.810418,-1.342832,0.432555,0.052004,0.147904,-0.762040,0.126409,-0.281890,1.342165,-1.587955,-0.730219,-1.841564,3.851526,4.700192,0.012490,0.075367,0.000000,-0.157652,-0.137662,-0.000000
4.240000,2.818460,0.810945,-1.341367,0.425002,0.053189,0.145048,-0.748711,0.110722,-0.288957,1.324244,-1.549014,-0.683351,-1.741245,3.934936,4.673719,0.010933,0.074002,0.000000,-0.153576,-0.135391,0.000000
4.250000,2.822672,0.811482,-1.339931,0.417581,0.054219,0.142125,-0.735556,0.095429,-0.295557,1.307340,-1.509256,-0.636745,-1.638579,4.012637,4.647142,0.009418,0.072659,0.000000,-0.149444,-0.133243,-0.000000
4.260000,2.826811,0.812029,-1.338524,0.410291,0.055098,0.139137,-0.722564,0.080537,-0.301692,1.291472,-1.468761,-0.590409,-1.534154,4.080223,4.616664,0.007944,0.071337,0.000000,-0.145265,-0.131219,0.000000
4.270000,2.830878,0.812584,-1.337148,0.403130,0.055830,0.136091,-0.709726,0.066054,-0.307365,1.276657,-1.427651,-0.544411,-1.427643,4.136356,4.576931,0.006513,0.070035,0.000000,-0.141048,-0.129320,0.000000
4.280000,2.834874,0.813146,-1.335803,0.396096,0.056419,0.132990,-0.697031,0.051984,-0.312580,1.262919,-1.386034,-0.498870,-1.319949,4.182676,4.529336,0.005123,0.068750,0.000000,-0.136805,-0.127550,-0.000000
4.290000,2.838800,0.813713,-1.334488,0.389189,0.056869,0.129839,-0.684468,0.038333,-0.317342,1.250258,-1.343998,-0.453825,-1.212755,4.221107,4.481059,0.003776,0.067483,0.000000,-0.132543,-0.125906,-0.000000
4.300000,2.842658,0.814283,-1.333206,0.382407,0.057185,0.126643,-0.672026,0.025104,-0.321657,1.238664,-1.301612,-0.409249,-1.103858,4.252651,4.431451,0.002472,0.066232,0.000000,-0.128267,-0.124388,0.000000
4.310000,2.846448,0.814856,-1.331956,0.375749,0.057371,0.123406,-0.659694,0.012301,-0.325527,1.228181,-1.258945,-0.365196,-0.993267,4.276358,4.375978,0.001211,0.064996,0.000000,-0.123983,-0.123000,0.000000
4.320000,2.850173,0.815431,-1.330738,0.369213,0.057431,0.120133,-0.647462,-0.000075,-0.328961,1.218799,-1.216085,-0.321729,-0.889809,4.289900,4.318020,-0.000007,0.063772,0.000000,-0.119698,-0.121739,-0.000000
4.330000,2.853832,0.816005,-1.329553,0.362799,0.057370,0.116827,-0.635318,-0.012021,-0.331962,1.210385,-1.173147,-0.278835,-0.794580,4.293800,4.259341,-0.001183,0.062561,0.000000,-0.115423,-0.120593,-0.000000
4.340000,2.857429,0.816578,-1.328401,0.356507,0.057191,0.113493,-0.623254,-0.023538,-0.334537,1.202907,-1.130209,-0.236542,-0.696581,4.291719,4.195166,-0.002316,0.061360,0.000000,-0.111163,-0.119558,-0.000000
4.350000,2.860962,0.817149,-1.327283,0.350334,0.056899,0.110136,-0.611260,-0.034625,-0.336693,1.196453,-1.087312,-0.194932,-0.594601,4.284361,4.125572,-0.003406,0.060170,0.000000,-0.106923,-0.118642,0.000000
4.360000,2.864435,0.817716,-1.326198,0.344282,0.056499,0.106760,-0.599325,-0.045284,-0.338436,1.191015,-1.044522,-0.154031,-0.496944,4.269664,4.053957,-0.004454,0.058987,0.000000,-0.102707,-0.117844,0.000000
4.370000,2.867848,0.818279,-1.325148,0.338348,0.055993,0.103367,-0.587440,-0.055515,-0.339773,1.186514,-1.001919,-0.113853,-0.406283,4.247174,3.978804,-0.005460,0.057813,0.000000,-0.098521,-0.117156,0.000000
4.380000,2.871202,0.818836,-1.324131,0.332533,0.055388,0.099964,-0.575595,-0.065322,-0.340713,1.182889,-0.959578,-0.074455,-0.320642,4.217915,3.898991,-0.006425,0.056644,0.000000,-0.094373,-0.116571,0.000000
4.390000,2.874499,0.819386,-1.323149,0.326836,0.054687,0.096553,-0.563782,-0.074707,-0.341263,1.180101,-0.917561,-0.035873,-0.238008,4.182935,3.817131,-0.007348,0.055481,0.000000,-0.090266,-0.116087,-0.000000
4.400000,2.877739,0.819930,-1.322200,0.321257,0.053894,0.093139,-0.551993,-0.083673,-0.341430,1.178129,-0.875920,0.001888,-0.156916,4.142621,3.733849,-0.008230,0.054322,0.000000,-0.086206,-0.115699,0.000000
4.410000,2.880924,0.820464,-1.321286,0.315796,0.053014,0.089725,-0.540220,-0.092225,-0.341225,1.176963,-0.834708,0.038804,-0.079468,4.096723,3.647503,-0.009072,0.053167,0.000000,-0.082195,-0.115408,-0.000000
4.420000,2.884055,0.820990,-1.320406,0.310453,0.052050,0.086314,-0.528454,-0.100368,-0.340654,1.176540,-0.793985,0.074838,-0.012043,4.045047,3.557691,-0.009874,0.052014,0.000000,-0.078239,-0.115206,0.000000
4.430000,2.887133,0.821505,-1.319559,0.305227,0.051006,0.082912,-0.516689,-0.108105,-0.339728,1.176722,-0.753808,0.109958,0.045152,3.988059,3.465096,-0.010637,0.050863,0.000000,-0.074342,-0.115080,-0.000000
4.440000,2.890159,0.822010,-1.318747,0.300119,0.049887,0.079520,-0.504919,-0.115444,-0.338455,1.177443,-0.714224,0.144140,0.099939,3.926618,3.370391,-0.011361,0.049712,0.000000,-0.070508,-0.115023,-0.000000
4.450000,2.893135,0.822503,-1.317969,0.295129,0.048697,0.076142,-0.493140,-0.122390,-0.336845,1.178721,-0.675275,0.177366,0.154286,3.860909,3.273853,-0.012047,0.048562,0.000000,-0.066740,-0.115037,-0.000000
4.460000,2.896062,0.822984,-1.317224,0.290256,0.047440,0.072783,-0.481345,-0.128949,-0.334908,1.180529,-0.637006,0.209617,0.202247,3.790837,3.175233,-0.012696,0.047411,0.000000,-0.063042,-0.115118,0.000000
4.470000,2.898940,0.823452,-1.316513,0.285502,0.046118,0.069444,-0.469529,-0.135130,-0.332653,1.182766,-0.599458,0.240870,0.238424,3.716990,3.074087,-0.013308,0.046260,0.000000,-0.059416,-0.115256,-0.000000
4.480000,2.901772,0.823906,-1.315836,0.280866,0.044737,0.066130,-0.457690,-0.140938,-0.330090,1.185297,-0.562666,0.271099,0.264054,3.639837,2.970771,-0.013884,0.045106,0.000000,-0.055866,-0.115439,-0.000000
4.490000,2.904558,0.824347,-1.315191,0.276348,0.043300,0.062842,-0.445823,-0.146383,-0.327231,1.188047,-0.526662,0.300286,0.285469,3.559191,2.866125,-0.014425,0.043950,0.000000,-0.052393,-0.115658,-0.000000
4.500000,2.907299,0.824772,-1.314579,0.271949,0.041809,0.059585,-0.433929,-0.151472,-0.324085,1.191007,-0.491482,0.328421,0.304840,3.474835,2.759363,-0.014932,0.042793,0.000000,-0.049001,-0.115912,0.000000
4.510000,2.909997,0.825183,-1.313999,0.267669,0.040270,0.056361,-0.422003,-0.156213,-0.320662,1.194144,-0.457165,0.355473,0.317383,3.387394,2.650201,-0.015405,0.041632,0.000000,-0.045692,-0.116197,0.000000
4.520000,2.912652,0.825578,-1.313452,0.263509,0.038685,0.053172,-0.410046,-0.160615,-0.316975,1.197354,-0.423734,0.381425,0.316568,3.298432,2.541529,-0.015846,0.040468,0.000000,-0.042469,-0.116503,0.000000
4.530000,2.915267,0.825956,-1.312936,0.259468,0.037058,0.050021,-0.398056,-0.164687,-0.313034,1.200475,-0.391196,0.406303,0.303322,3.208232,2.433753,-0.016255,0.039302,0.000000,-0.039331,-0.116814,0.000000
4.540000,2.917842,0.826319,-1.312451,0.255548,0.035391,0.046911,-0.386036,-0.168439,-0.308849,1.203421,-0.359570,0.430100,0.285840,3.115286,2.323109,-0.016632,0.038132,0.000000,-0.036280,-0.117120,-0.000000
4.550000,2.920378,0.826664,-1.311997,0.251748,0.033689,0.043844,-0.373988,-0.171879,-0.304432,1.206192,-0.328891,0.452766,0.266480,3.019033,2.208945,-0.016980,0.036959,0.000000,-0.033319,-0.117422,-0.000000
4.560000,2.922877,0.826993,-1.311574,0.248068,0.031954,0.040823,-0.361912,-0.175017,-0.299794,1.208750,-0.299189,0.474279,0.239369,2.920981,2.094006,-0.017299,0.035783,0.000000,-0.030450,-0.117714,-0.000000
4.570000,2.925339,0.827303,-1.311181,0.244509,0.030189,0.037848,-0.349813,-0.177863,-0.294946,1.210979,-0.270471,0.494646,0.198331,2.823408,1.979636,-0.017589,0.034604,0.000000,-0.027675,-0.117986,0.000000
4.580000,2.927767,0.827596,-1.310817,0.241072,0.028397,0.034924,-0.337693,-0.180426,-0.289901,1.212717,-0.242721,0.513872,0.144797,2.726323,1.865119,-0.017852,0.033423,0.000000,-0.024990,-0.118220,-0.000000
4.590000,2.930161,0.827871,-1.310483,0.237756,0.026580,0.032050,-0.325558,-0.182717,-0.284669,1.213875,-0.215945,0.531948,0.086635,2.627251,1.749001,-0.018089,0.032239,0.000000,-0.022396,-0.118407,-0.000000
4.600000,2.932522,0.828128,-1.310176,0.234561,0.024742,0.029230,-0.313415,-0.184745,-0.279262,1.214450,-0.190176,0.548852,0.026096,2.525235,1.630750,-0.018300,0.031054,0.000000,-0.019897,-0.118546,0.000000
4.610000,2.934852,0.828366,-1.309898,0.231487,0.022885,0.026465,-0.301269,-0.186521,-0.273692,1.214397,-0.165440,0.564563,-0.042315,2.422399,1.511478,-0.018487,0.029868,0.000000,-0.017494,-0.118633,0.000000
4.620000,2.937152,0.828586,-1.309647,0.228535,0.021012,0.023756,-0.289127,-0.188054,-0.267971,1.213603,-0.141728,0.579081,-0.124247,2.321978,1.393023,-0.018650,0.028681,0.000000,-0.015187,-0.118655,-0.000000
4.630000,2.939423,0.828786,-1.309423,0.225705,0.019124,0.021106,-0.276997,-0.189355,-0.262110,1.211912,-0.119000,0.592424,-0.218318,2.223792,1.275253,-0.018791,0.027494,0.000000,-0.012972,-0.118595,0.000000
4.640000,2.941666,0.828968,-1.309225,0.222995,0.017225,0.018514,-0.264889,-0.190434,-0.256122,1.209237,-0.097252,0.604586,-0.317158,2.124001,1.155833,-0.018909,0.026309,0.000000,-0.010849,-0.118446,0.000000
4.650000,2.943883,0.829131,-1.309052,0.220407,0.015316,0.015983,-0.252813,-0.191300,-0.250019,1.205569,-0.076520,0.615540,-0.417633,2.021257,1.033792,-0.019008,0.025125,0.000000,-0.008820,-0.118204,-0.000000
4.660000,2.946074,0.829274,-1.308905,0.217939,0.013399,0.013514,-0.240778,-0.191964,-0.243811,1.200884,-0.056827,0.625262,-0.524777,1.918544,0.910839,-0.019086,0.023944,0.000000,-0.006889,-0.117867,-0.000000
4.670000,2.948241,0.829399,-1.308782,0.215591,0.011476,0.011107,-0.228795,-0.192437,-0.237513,1.195074,-0.038149,0.633757,-0.646629,1.819850,0.789556,-0.019145,0.022767,0.000000,-0.005053,-0.117423,0.000000
4.680000,2.950386,0.829504,-1.308683,0.213363,0.009550,0.008764,-0.216876,-0.192727,-0.231136,1.187952,-0.020430,0.641053,-0.781794,1.724755,0.669610,-0.019187,0.021595,0.000000,-0.003306,-0.116854,0.000000
4.690000,2.952509,0.829590,-1.308607,0.211254,0.007622,0.006484,-0.205036,-0.192845,-0.224692,1.179438,-0.003654,0.647149,-0.919320,1.628314,0.547614,-0.019211,0.020430,0.000000,-0.001648,-0.116148,-0.000000
4.700000,2.954611,0.829656,-1.308553,0.209262,0.005693,0.004270,-0.193288,-0.192800,-0.218193,1.169565,0.012136,0.652006,-1.056865,1.528322,0.422315,-0.019220,0.019272,0.000000,-0.000082,-0.115310,0.000000
4.710000,2.956694,0.829704,-1.308522,0.207388,0.003766,0.002120,-0.181645,-0.192603,-0.211652,1.158300,0.026912,0.655596,-1.201634,1.428463,0.296073,-0.019213,0.018123,0.000000,0.001388,-0.114335,0.000000
4.720000,2.958759,0.829732,-1.308511,0.205630,0.001841,0.000037,-0.170122,-0.192262,-0.205081,1.145533,0.040706,0.657927,-1.357994,1.334860,0.172011,-0.019192,0.016985,0.000000,0.002765,-0.113211,0.000000
4.730000,2.960806,0.829741,-1.308521,0.203986,-0.000080,-0.001981,-0.158734,-0.191788,-0.198494,1.131140,0.053609,0.659036,-1.523593,1.246996,0.049693,-0.019158,0.015859,0.000000,0.004059,-0.111925,0.000000
4.740000,2.962838,0.829730,-1.308551,0.202455,-0.001995,-0.003933,-0.147499,-0.191190,-0.191901,1.115061,0.065646,0.658921,-1.692501,1.156832,-0.075107,-0.019111,0.014746,0.000000,0.005270,-0.110469,0.000000
4.750000,2.964856,0.829701,-1.308599,0.201036,-0.003903,-0.005819,-0.136433,-0.190475,-0.185315,1.097290,0.076746,0.657534,-1.861905,1.060639,-0.204831,-0.019052,0.013649,0.000000,0.006393,-0.108843,-0.000000
4.760000,2.966859,0.829652,-1.308667,0.199726,-0.005804,-0.007639,-0.125553,-0.189655,-0.178750,1.077823,0.086858,0.654824,-2.035448,0.964129,-0.336545,-0.018983,0.012569,0.000000,0.007422,-0.107043,0.000000
4.770000,2.968850,0.829585,-1.308752,0.198525,-0.007696,-0.009394,-0.114876,-0.188738,-0.172219,1.056581,0.096029,0.650803,-2.220151,0.876941,-0.463996,-0.018904,0.011508,0.000000,0.008361,-0.105063,-0.000000
4.780000,2.970830,0.829498,-1.308855,0.197429,-0.009579,-0.011084,-0.104421,-0.187734,-0.165734,1.033420,0.104397,0.645544,-2.415092,0.798285,-0.587680,-0.018816,0.010467,0.000000,0.009223,-0.102886,-0.000000
4.790000,2.972799,0.829393,-1.308974,0.196436,-0.011451,-0.012709,-0.094208,-0.186650,-0.159308,1.008280,0.111994,0.639049,-2.610001,0.715079,-0.716261,-0.018719,0.009450,0.000000,0.010012,-0.100506,0.000000
4.800000,2.974758,0.829269,-1.309109,0.195545,-0.013312,-0.014270,-0.084256,-0.185495,-0.152953,0.981220,0.118699,0.631219,-2.800268,0.619741,-0.853585,-0.018616,0.008457,0.000000,0.010715,-0.097927,0.000000
4.810000,2.976709,0.829127,-1.309259,0.194751,-0.015161,-0.015768,-0.074584,-0.184276,-0.146683,0.952274,0.124389,0.621977,-2.992507,0.521397,-0.993795,-0.018505,0.007491,0.000000,0.011319,-0.095152,0.000000
4.820000,2.978653,0.828966,-1.309424,0.194053,-0.016998,-0.017204,-0.065210,-0.183007,-0.140513,0.921369,0.129127,0.611343,-3.197012,0.439364,-1.127815,-0.018389,0.006553,0.000000,0.011832,-0.092173,-0.000000
4.830000,2.980591,0.828787,-1.309603,0.193447,-0.018821,-0.018578,-0.056156,-0.181694,-0.134457,0.888334,0.133176,0.599421,-3.411313,0.370870,-1.257608,-0.018269,0.005647,0.000000,0.012277,-0.088972,-0.000000
4.840000,2.982522,0.828590,-1.309796,0.192930,-0.020631,-0.019893,-0.047444,-0.180343,-0.128525,0.853143,0.136544,0.586191,-3.620663,0.289565,-1.395635,-0.018144,0.004774,0.000000,0.012657,-0.085544,0.000000
4.850000,2.984449,0.828374,-1.310001,0.192498,-0.022428,-0.021149,-0.039093,-0.178963,-0.122733,0.815921,0.138968,0.571508,-3.823437,0.193023,-1.543057,-0.018015,0.003936,0.000000,0.012944,-0.081904,-0.000000
4.860000,2.986372,0.828141,-1.310219,0.192148,-0.024211,-0.022347,-0.031125,-0.177564,-0.117095,0.776674,0.140405,0.555330,-4.028748,0.098378,-1.691938,-0.017885,0.003135,0.000000,0.013134,-0.078049,0.000000
4.870000,2.988292,0.827890,-1.310448,0.191876,-0.025979,-0.023491,-0.023560,-0.176155,-0.111626,0.735346,0.140935,0.537670,-4.236866,0.006652,-1.841886,-0.017753,0.002375,0.000000,0.013235,-0.073975,0.000000
4.880000,2.990210,0.827621,-1.310689,0.191677,-0.027734,-0.024580,-0.016418,-0.174745,-0.106341,0.691937,0.140538,0.518492,-4.443856,-0.088697,-1.996061,-0.017620,0.001656,0.000000,0.013245,-0.069680,0.000000
4.890000,2.992126,0.827335,-1.310940,0.191547,-0.029474,-0.025617,-0.009721,-0.173344,-0.101256,0.646469,0.139161,0.497749,-4.648915,-0.188540,-2.154968,-0.017488,0.000981,0.000000,0.013157,-0.065166,0.000000
4.900000,2.994041,0.827032,-1.311201,0.191482,-0.031201,-0.026605,-0.003489,-0.171962,-0.096386,0.598959,0.136767,0.475393,-4.851903,-0.292537,-2.318547,-0.017357,0.000352,0.000000,0.012969,-0.060436,0.000000
4.910000,2.995955,0.826711,-1.311472,0.191477,-0.032913,-0.027545,0.002258,-0.170609,-0.091748,0.549431,0.133311,0.451378,-5.052290,-0.401110,-2.487080,-0.017228,-0.000228,0.000000,0.012674,-0.055490,-0.000000
4.920000,2.997870,0.826374,-1.311752,0.191527,-0.034613,-0.028440,0.007500,-0.169296,-0.087359,0.497913,0.128745,0.425651,-5.249502,-0.514734,-2.660881,-0.017103,-0.000758,0.000000,0.012269,-0.050333,-0.000000
4.930000,2.999786,0.826019,-1.312041,0.191627,-0.036299,-0.029292,0.012216,-0.168034,-0.083235,0.444441,0.123016,0.398160,-5.442920,-0.633896,-2.840282,-0.016983,-0.001235,0.000000,0.011748,-0.044967,-0.000000
4.940000,3.001703,0.825648,-1.312338,0.191772,-0.037974,-0.030105,0.016389,-0.166835,-0.079396,0.389055,0.116067,0.368846,-5.631978,-0.759076,-3.025597,-0.016869,-0.001657,0.000000,0.011105,-0.039397,0.000000
4.950000,3.003621,0.825260,-1.312643,0.191955,-0.039636,-0.030880,0.019997,-0.165713,-0.075858,0.331801,0.107834,0.337648,-5.816120,-0.890748,-3.217139,-0.016761,-0.002023,0.000000,0.010334,-0.033627,-0.000000
4.960000,3.005542,0.824855,-1.312955,0.192172,-0.041288,-0.031622,0.023025,-0.164679,-0.072643,0.272732,0.098252,0.304503,-5.994737,-1.029392,-3.415234,-0.016662,-0.002330,0.000000,0.009427,-0.027665,0.000000
4.970000,3.007465,0.824434,-1.313275,0.192416,-0.042930,-0.032333,0.025452,-0.163748,-0.069768,0.211906,0.087247,0.269343,-24.375832,99.874002,35.939240,-0.016572,-0.002576,0.000000,0.008378,-0.021516,-0.000000
4.980000,3.009390,0.823996,-1.313602,0.192681,-0.044563,-0.033017,0.027263,-0.162934,-0.067256,-0.214784,2.095732,1.023288,-42.999274,200.202684,73.391066,-0.016494,-0.002760,0.000000,0.210410,0.021456,-0.000000
4.990000,3.011318,0.823543,-1.313936,0.192961,-0.046188,-0.033678,0.021156,-0.121833,-0.049303,-0.648079,4.091300,1.737165,-23.537155,98.839212,32.785868,-0.012356,-0.002146,0.000000,0.412726,0.065349,0.000000
5.000000,3.013249,0.823073,-1.314276,0.193104,-0.046999,-0.034003,0.014301,-0.081108,-0.032513,-0.685528,4.072516,1.679005,-3.744841,-1.878424,-5.815955,-0.008240,-0.001453,0.000000,0.412333,0.069399,-0.000000
