time,x,y,z,vx,vy,vz,ax,ay,az,jx,jy,jz,sx,sy,sz,roll,pitch,yaw,p,q,r
0.000000,-3.332238,-0.308714,-1.475711,-0.005309,0.002837,0.007505,0.341818,-0.104088,-0.208835,-3.154300,2.120875,5.959868,103.531180,-36.111279,-144.507719,-0.010383,-0.034104,0.000000,0.205263,0.294183,0.000000
0.010000,-3.332274,-0.308690,-1.475645,-0.002032,0.001896,0.005691,0.315253,-0.084584,-0.156092,-2.178041,1.789814,4.624952,91.872099,-30.210213,-122.852298,-0.008483,-0.031622,0.000000,0.175497,0.203654,0.000000
0.020000,-3.332279,-0.308675,-1.475596,0.001027,0.001135,0.004342,0.297883,-0.068106,-0.115651,-1.313889,1.514542,3.495476,81.103692,-24.947769,-103.400667,-0.006858,-0.030002,0.000000,0.150073,0.121692,-0.000000
0.030000,-3.332254,-0.308667,-1.475557,0.003953,0.000525,0.003344,0.288631,-0.054128,-0.085569,-0.553125,1.288843,2.549975,71.188016,-20.290039,-86.038165,-0.005468,-0.029159,0.000000,0.128769,0.048338,0.000000
0.040000,-3.332200,-0.308664,-1.475528,0.006823,0.000045,0.002602,0.286504,-0.042184,-0.064107,0.112588,1.106839,1.768131,62.087219,-16.203108,-70.650223,-0.004270,-0.029008,0.000000,0.111283,-0.016584,0.000000
0.050000,-3.332118,-0.308666,-1.475505,0.009704,-0.000324,0.002038,0.290592,-0.031864,-0.049725,0.691198,0.962990,1.130780,53.762228,-12.653189,-57.121182,-0.003230,-0.029464,0.000000,0.097262,-0.073419,0.000000
0.060000,-3.332006,-0.308670,-1.475487,0.012653,-0.000596,0.001588,0.300063,-0.022814,-0.041070,1.190291,0.852098,0.619893,46.176336,-9.606237,-45.337448,-0.002315,-0.030451,0.000000,0.086320,-0.122631,0.000000
0.070000,-3.331864,-0.308677,-1.475473,0.015720,-0.000783,0.001202,0.314157,-0.014729,-0.036962,1.617060,0.769301,0.218597,39.291078,-7.028403,-35.183897,-0.001495,-0.031893,0.000000,0.078061,-0.164760,-0.000000
0.080000,-3.331691,-0.308686,-1.475463,0.018949,-0.000893,0.000837,0.332186,-0.007350,-0.036385,1.978321,0.710079,-0.088836,33.068520,-4.885787,-26.545820,-0.000746,-0.033724,0.000000,0.072086,-0.200386,-0.000000
0.090000,-3.331485,-0.308695,-1.475456,0.022375,-0.000932,0.000465,0.353527,-0.000462,-0.038474,2.280513,0.670248,-0.316988,27.470846,-3.144487,-19.308504,-0.000047,-0.035881,0.000000,0.068014,-0.230108,-0.000000
0.100000,-3.331243,-0.308704,-1.475453,0.026029,-0.000903,0.000061,0.377619,0.006107,-0.042505,2.529682,0.645964,-0.479291,22.458799,-1.770616,-13.357079,0.000619,-0.038308,0.000000,0.065479,-0.254517,0.000000
0.110000,-3.330963,-0.308713,-1.475455,0.029935,-0.000810,-0.000390,0.403962,0.012497,-0.047882,2.731514,0.633724,-0.588033,17.995885,-0.730252,-8.577029,0.001267,-0.040956,0.000000,0.064142,-0.274184,0.000000
0.120000,-3.330643,-0.308720,-1.475461,0.034114,-0.000654,-0.000899,0.432109,0.018811,-0.054125,2.891301,0.630361,-0.654354,14.043551,0.010495,-4.853546,0.001905,-0.043778,0.000000,0.063692,-0.289651,0.000000
0.130000,-3.330280,-0.308726,-1.475473,0.038582,-0.000434,-0.001474,0.461665,0.025124,-0.060861,3.013960,0.633048,-0.688244,10.563830,0.485527,-2.071877,0.002543,-0.046736,0.000000,0.063849,-0.301418,-0.000000
0.140000,-3.329870,-0.308729,-1.475491,0.043351,-0.000151,-0.002117,0.492280,0.031484,-0.067811,3.104027,0.639298,-0.698548,7.518823,0.728752,-0.117211,0.003183,-0.049796,0.000000,0.064365,-0.309947,0.000000
0.150000,-3.329412,-0.308728,-1.475516,0.048430,0.000196,-0.002830,0.523651,0.037915,-0.074779,3.165660,0.646963,-0.692962,4.870750,0.774092,1.125358,0.003830,-0.052926,0.000000,0.065025,-0.315654,-0.000000
0.160000,-3.328901,-0.308724,-1.475548,0.053825,0.000608,-0.003612,0.555511,0.044422,-0.081639,3.202617,0.654233,-0.678050,2.579702,0.655372,1.768963,0.004484,-0.056101,0.000000,0.065647,-0.318911,0.000000
0.170000,-3.328334,-0.308716,-1.475588,0.059541,0.001085,-0.004462,0.587632,0.050993,-0.088327,3.218315,0.659637,-0.659199,0.610122,0.406566,1.930350,0.005143,-0.059297,0.000000,0.066082,-0.320051,0.000000
0.180000,-3.327709,-0.308703,-1.475637,0.065578,0.001628,-0.005378,0.619816,0.057605,-0.094825,3.215762,0.662044,-0.640671,-1.076793,0.061552,1.723463,0.005804,-0.062496,0.000000,0.066216,-0.319363,-0.000000
0.190000,-3.327022,-0.308683,-1.475696,0.071937,0.002237,-0.006358,0.651895,0.064222,-0.101152,3.197595,0.660661,-0.625575,-2.518845,-0.345774,1.262974,0.006466,-0.065679,0.000000,0.065969,-0.317096,-0.000000
0.200000,-3.326269,-0.308658,-1.475765,0.078615,0.002912,-0.007401,0.683724,0.070804,-0.107354,3.166057,0.655034,-0.615872,-3.755680,-0.781501,0.663853,0.007122,-0.068833,0.000000,0.065293,-0.313465,0.000000
0.210000,-3.325448,-0.308625,-1.475844,0.085610,0.003653,-0.008504,0.715067,0.077464,-0.112967,3.097538,0.680813,-0.492611,-5.327333,-0.504763,2.408010,0.007786,-0.071937,0.000000,0.067869,-0.306978,0.000000
0.220000,-3.324556,-0.308584,-1.475935,0.092915,0.004461,-0.009660,0.745998,0.083906,-0.118902,3.102280,0.585694,-0.766245,1.842224,-12.265479,-36.199592,0.008427,-0.074993,0.000000,0.057975,-0.304919,-0.000000
0.230000,-3.323589,-0.308535,-1.476038,0.100530,0.005328,-0.010891,0.776860,0.089478,-0.127261,3.041241,0.566814,-0.777011,-14.168027,8.687410,34.702495,0.008977,-0.078018,0.000000,0.055950,-0.298098,0.000000
0.240000,-3.322544,-0.308478,-1.476153,0.108448,0.006252,-0.012197,0.806552,0.095575,-0.133303,2.909498,0.633014,-0.495700,-7.661426,-1.756633,0.425163,0.009580,-0.080938,0.000000,0.062748,-0.286666,-0.000000
0.250000,-3.321419,-0.308410,-1.476282,0.116658,0.007239,-0.013556,0.835370,0.101649,-0.138792,2.850154,0.585320,-0.589013,-8.675669,-1.488832,1.981211,0.010181,-0.083770,0.000000,0.057779,-0.279526,-0.000000
0.260000,-3.320210,-0.308333,-1.476424,0.125153,0.008284,-0.014973,0.863401,0.107428,-0.144578,2.754357,0.570426,-0.567726,-9.419651,-1.603697,2.186791,0.010751,-0.086518,0.000000,0.056217,-0.269701,-0.000000
0.270000,-3.318915,-0.308244,-1.476582,0.133923,0.009387,-0.016447,0.890519,0.113044,-0.150147,2.671706,0.552207,-0.546137,-8.112905,-1.928654,2.210563,0.011304,-0.089171,0.000000,0.054331,-0.261232,0.000000
0.280000,-3.317531,-0.308145,-1.476754,0.142960,0.010545,-0.017975,0.916768,0.118474,-0.155491,2.571023,0.534191,-0.521844,-12.042408,-1.670585,2.646981,0.011838,-0.091736,0.000000,0.052478,-0.251033,-0.000000
0.290000,-3.316055,-0.308033,-1.476941,0.152255,0.011756,-0.019556,0.941869,0.123730,-0.160575,2.451677,0.516558,-0.494950,-10.788667,-1.967733,2.644287,0.012354,-0.094185,0.000000,0.050679,-0.239050,0.000000
0.300000,-3.314485,-0.307909,-1.477145,0.161794,0.013019,-0.021186,0.965867,0.128793,-0.165392,2.346754,0.495791,-0.468320,-11.208914,-2.073868,2.761685,0.012850,-0.096524,0.000000,0.048574,-0.228547,0.000000
0.310000,-3.312818,-0.307773,-1.477365,0.171568,0.014331,-0.022863,0.988754,0.133643,-0.169937,2.229661,0.474131,-0.440572,-11.573432,-2.193761,2.846256,0.013325,-0.098752,0.000000,0.046394,-0.216892,-0.000000
0.320000,-3.311053,-0.307623,-1.477602,0.181565,0.015691,-0.024584,1.010500,0.138276,-0.174196,2.121231,0.452513,-0.410868,-10.712152,-2.192709,3.028735,0.013778,-0.100867,0.000000,0.044230,-0.206162,0.000000
0.330000,-3.309186,-0.307459,-1.477857,0.191775,0.017096,-0.026346,1.031141,0.142687,-0.178156,2.002815,0.428952,-0.381379,-12.982181,-2.521788,2.863593,0.014209,-0.102872,0.000000,0.041883,-0.194485,-0.000000
0.340000,-3.307217,-0.307281,-1.478129,0.202184,0.018544,-0.028146,1.050517,0.146848,-0.181826,1.874033,0.403347,-0.352403,-12.153516,-2.535822,2.991012,0.014615,-0.104753,0.000000,0.039343,-0.181819,0.000000
0.350000,-3.305142,-0.307088,-1.478420,0.212781,0.020032,-0.029981,1.068664,0.150755,-0.185198,1.754675,0.377691,-0.322158,-12.325095,-2.659264,2.991412,0.014996,-0.106513,0.000000,0.036809,-0.170141,0.000000
0.360000,-3.302960,-0.306880,-1.478729,0.223553,0.021558,-0.031849,1.085583,0.154395,-0.188272,1.628719,0.350122,-0.292691,-12.466168,-2.788208,2.967939,0.015351,-0.108153,0.000000,0.034093,-0.157842,0.000000
0.370000,-3.300670,-0.306656,-1.479057,0.234488,0.023119,-0.033746,1.101266,0.157758,-0.191048,1.509085,0.322533,-0.262228,-11.837940,-2.794688,3.054383,0.015678,-0.109673,0.000000,0.031385,-0.146214,-0.000000
0.380000,-3.298270,-0.306417,-1.479404,0.245575,0.024712,-0.035669,1.115744,0.160838,-0.193522,1.384030,0.292860,-0.233075,-13.180387,-3.142383,2.770950,0.015978,-0.111076,0.000000,0.028477,-0.134070,0.000000
0.390000,-3.295758,-0.306162,-1.479770,0.256799,0.026335,-0.037615,1.128925,0.163607,-0.195715,1.253303,0.260987,-0.205511,-12.574650,-3.167337,2.806664,0.016247,-0.112353,0.000000,0.025356,-0.121380,-0.000000
0.400000,-3.293134,-0.305891,-1.480156,0.268149,0.027983,-0.039582,1.140839,0.166058,-0.197629,1.129330,0.228949,-0.177574,-12.600074,-3.305867,2.710230,0.016485,-0.113507,0.000000,0.022226,-0.109388,0.000000
0.410000,-3.290395,-0.305602,-1.480562,0.279612,0.029655,-0.041567,1.151497,0.168179,-0.199273,1.002067,0.194897,-0.151319,-12.605569,-3.449176,2.595226,0.016691,-0.114539,0.000000,0.018900,-0.097076,-0.000000
0.420000,-3.287541,-0.305297,-1.480988,0.291175,0.031346,-0.043567,1.160900,0.169956,-0.200655,0.879524,0.160470,-0.125196,-12.135978,-3.490798,2.571480,0.016863,-0.115451,0.000000,0.015541,-0.085250,0.000000
0.430000,-3.284571,-0.304975,-1.481434,0.302825,0.033053,-0.045579,1.169077,0.171381,-0.201784,0.754453,0.123935,-0.101103,-12.882614,-3.818200,2.243134,0.017001,-0.116244,0.000000,0.011975,-0.073169,0.000000
0.440000,-3.281484,-0.304636,-1.481899,0.314552,0.034772,-0.047602,1.175978,0.172427,-0.202685,0.626705,0.085193,-0.079257,-12.425967,-3.875892,2.179711,0.017102,-0.116913,0.000000,0.008191,-0.060813,-0.000000
0.450000,-3.278280,-0.304280,-1.482386,0.326341,0.036500,-0.049632,1.181632,0.173084,-0.203370,0.503961,0.045946,-0.058025,-12.357734,-4.028458,2.008885,0.017165,-0.117462,0.000000,0.004357,-0.048956,0.000000
0.460000,-3.274957,-0.303906,-1.482892,0.338180,0.038232,-0.051668,1.186052,0.173339,-0.203854,0.380057,0.004686,-0.039051,-12.275664,-4.183900,1.825531,0.017188,-0.117892,0.000000,0.000322,-0.036967,-0.000000
0.470000,-3.271516,-0.303515,-1.483419,0.350058,0.039965,-0.053708,1.189248,0.173176,-0.204154,0.259827,-0.037370,-0.021168,-11.908807,-4.266344,1.709357,0.017171,-0.118203,0.000000,-0.003793,-0.025334,0.000000
0.480000,-3.267956,-0.303107,-1.483966,0.361961,0.041694,-0.055751,1.191245,0.172584,-0.204286,0.138972,-0.081458,-0.005739,-12.264467,-4.552545,1.373684,0.017111,-0.118398,0.000000,-0.008112,-0.013615,-0.000000
0.490000,-3.264277,-0.302681,-1.484534,0.373879,0.043415,-0.057794,1.192024,0.171539,-0.204278,0.017423,-0.127641,0.007093,-11.901285,-4.645091,1.232019,0.017008,-0.118475,0.000000,-0.012644,-0.001798,0.000000
0.500000,-3.260479,-0.302239,-1.485122,0.385798,0.045124,-0.059836,1.191609,0.170029,-0.204148,-0.100216,-0.174694,0.018543,-11.766707,-4.804441,1.015540,0.016858,-0.118436,0.000000,-0.017267,0.009649,0.000000
0.510000,-3.256561,-0.301779,-1.485731,0.397707,0.046814,-0.061876,1.190019,0.168039,-0.203916,-0.217556,-0.223655,0.027456,-11.620721,-4.963969,0.793006,0.016662,-0.118282,0.000000,-0.022085,0.021099,-0.000000
0.520000,-3.252525,-0.301302,-1.486360,0.409594,0.048483,-0.063914,1.187269,0.165553,-0.203604,-0.331870,-0.273753,0.034634,-11.316725,-5.078574,0.616115,0.016416,-0.118015,0.000000,-0.027021,0.032274,0.000000
0.530000,-3.248369,-0.300809,-1.487009,0.421449,0.050124,-0.065948,1.183384,0.162557,-0.203232,-0.445457,-0.325708,0.039229,-11.401281,-5.313079,0.301831,0.016121,-0.117636,0.000000,-0.032149,0.043412,0.000000
0.540000,-3.244096,-0.300300,-1.487679,0.433258,0.051732,-0.067979,1.178362,0.159032,-0.202828,-0.558317,-0.379542,0.041187,-11.092059,-5.430134,0.115685,0.015773,-0.117146,0.000000,-0.037470,0.054514,0.000000
0.550000,-3.239704,-0.299775,-1.488369,0.445012,0.053303,-0.070005,1.172229,0.154963,-0.202414,-0.667918,-0.434502,0.041324,-10.903228,-5.584785,-0.114295,0.015371,-0.116547,0.000000,-0.042911,0.065323,-0.000000
0.560000,-3.235196,-0.299234,-1.489079,0.456699,0.054830,-0.072027,1.165008,0.150336,-0.202010,-0.776110,-0.491182,0.038985,-10.702921,-5.737007,-0.342395,0.014914,-0.115840,0.000000,-0.048530,0.076027,0.000000
0.570000,-3.230571,-0.298678,-1.489809,0.468309,0.056307,-0.074045,1.156717,0.145136,-0.201641,-0.881662,-0.549108,0.034586,-10.435549,-5.860822,-0.547234,0.014400,-0.115027,0.000000,-0.054280,0.086501,0.000000
0.580000,-3.225830,-0.298108,-1.490560,0.479830,0.057730,-0.076060,1.147380,0.139348,-0.201326,-0.985412,-0.608663,0.027833,-10.313603,-6.049975,-0.802837,0.013828,-0.114110,0.000000,-0.060199,0.096830,0.000000
0.590000,-3.220974,-0.297524,-1.491330,0.491253,0.059092,-0.078072,1.137014,0.132957,-0.201092,-1.087302,-0.669827,0.018762,-10.032863,-6.168775,-0.999602,0.013195,-0.113091,0.000000,-0.066284,0.107007,-0.000000
0.600000,-3.216005,-0.296927,-1.492121,0.502567,0.060387,-0.080082,1.125644,0.125948,-0.200957,-1.186291,-0.732136,0.007776,-9.793308,-6.305399,-1.206993,0.012502,-0.111971,0.000000,-0.072490,0.116924,-0.000000
0.610000,-3.210923,-0.296317,-1.492932,0.513762,0.061609,-0.082091,1.113296,0.118309,-0.200943,-1.282999,-0.795848,-0.005282,-9.542902,-6.435831,-1.405406,0.011745,-0.110753,0.000000,-0.078841,0.126643,-0.000000
0.620000,-3.205730,-0.295695,-1.493763,0.524830,0.062751,-0.084101,1.099993,0.110027,-0.201070,-1.377091,-0.860827,-0.020337,-9.276893,-6.559473,-1.600273,0.010924,-0.109439,0.000000,-0.085322,0.136128,0.000000
0.630000,-3.200427,-0.295062,-1.494614,0.535759,0.063808,-0.086113,1.085763,0.101089,-0.201356,-1.468571,-0.927026,-0.037173,-9.017765,-6.679148,-1.764741,0.010038,-0.108031,0.000000,-0.091927,0.145376,0.000000
0.640000,-3.195016,-0.294419,-1.495485,0.546542,0.064771,-0.088129,1.070631,0.091483,-0.201819,-1.557352,-0.994377,-0.055663,-8.733838,-6.789346,-1.934609,0.009085,-0.106532,0.000000,-0.098650,0.154374,-0.000000
0.650000,-3.189497,-0.293767,-1.496377,0.557169,0.065635,-0.090150,1.054625,0.081198,-0.202475,-1.643240,-1.062791,-0.075783,-8.445655,-6.892699,-2.083677,0.008065,-0.104944,0.000000,-0.105478,0.163102,-0.000000
0.660000,-3.183873,-0.293106,-1.497288,0.567632,0.066393,-0.092179,1.037776,0.070224,-0.203338,-1.726161,-1.132145,-0.097135,-8.147172,-6.986702,-2.214144,0.006976,-0.103271,0.000000,-0.112399,0.171545,0.000000
0.670000,-3.178145,-0.292439,-1.498220,0.577922,0.067037,-0.094218,1.020111,0.058551,-0.204424,-1.806246,-1.202589,-0.120285,-7.858566,-7.090841,-2.383800,0.005817,-0.101514,0.000000,-0.119427,0.179720,-0.000000
0.680000,-3.172315,-0.291766,-1.499173,0.588031,0.067561,-0.096269,1.001662,0.046170,-0.205746,-1.883096,-1.273725,-0.144139,-7.509649,-7.134425,-2.382785,0.004587,-0.099677,0.000000,-0.126518,0.187575,0.000000
0.690000,-3.166385,-0.291088,-1.500146,0.597952,0.067958,-0.098334,0.982461,0.033075,-0.207308,-1.956609,-1.345443,-0.168466,-7.201230,-7.217467,-2.508770,0.003286,-0.097764,0.000000,-0.133661,0.195095,0.000000
0.700000,-3.160357,-0.290407,-1.501139,0.607678,0.068220,-0.100416,0.962540,0.019258,-0.209120,-2.027009,-1.417955,-0.193992,-6.867422,-7.273328,-2.563914,0.001913,-0.095776,0.000000,-0.140876,0.202307,-0.000000
0.710000,-3.154232,-0.289724,-1.502154,0.617201,0.068341,-0.102517,0.941932,0.004714,-0.211188,-2.093919,-1.490841,-0.219600,-6.524430,-7.317324,-2.594615,0.000468,-0.093719,0.000000,-0.148117,0.209161,0.000000
0.720000,-3.148013,-0.289041,-1.503190,0.626515,0.068312,-0.104640,0.920672,-0.010561,-0.213516,-2.157572,-1.564405,-0.246183,-6.193911,-7.378660,-2.678532,-0.001049,-0.091594,0.000000,-0.155414,0.215687,-0.000000
0.730000,-3.141702,-0.288359,-1.504247,0.635612,0.068127,-0.106788,0.898793,-0.026574,-0.216109,-2.217544,-1.638063,-0.272260,-5.798752,-7.350487,-2.531450,-0.002640,-0.089406,0.000000,-0.162707,0.221828,-0.000000
0.740000,-3.135302,-0.287679,-1.505326,0.644488,0.067778,-0.108963,0.876334,-0.043322,-0.218958,-2.273740,-1.711675,-0.297528,-5.450075,-7.384803,-2.557975,-0.004303,-0.087159,0.000000,-0.169980,0.227570,-0.000000
0.750000,-3.128813,-0.287004,-1.506426,0.653137,0.067258,-0.111168,0.853330,-0.060809,-0.222061,-2.326419,-1.785589,-0.322993,-5.074480,-7.381021,-2.490695,-0.006040,-0.084856,0.000000,-0.177267,0.232947,-0.000000
0.760000,-3.122240,-0.286335,-1.507549,0.661553,0.066560,-0.113405,0.829819,-0.079033,-0.225412,-2.375223,-1.859251,-0.347026,-4.691605,-7.363550,-2.390156,-0.007848,-0.082501,0.000000,-0.184511,0.237910,0.000000
0.770000,-3.115583,-0.285673,-1.508694,0.669732,0.065675,-0.115677,0.805838,-0.097994,-0.229004,-2.420286,-1.932948,-0.371428,-4.313428,-7.359502,-2.409115,-0.009730,-0.080099,0.000000,-0.191738,0.242484,0.000000
0.780000,-3.108846,-0.285022,-1.509863,0.677669,0.064597,-0.117986,0.781426,-0.117690,-0.232833,-2.461337,-2.006102,-0.393509,-3.895337,-7.268694,-1.999809,-0.011683,-0.077653,0.000000,-0.198892,0.246623,0.000000
0.790000,-3.102031,-0.284382,-1.511054,0.685359,0.063319,-0.120334,0.756625,-0.138114,-0.236865,-2.498297,-2.078556,-0.412874,-3.502017,-7.233751,-1.945479,-0.013707,-0.075168,0.000000,-0.205958,0.250316,0.000000
0.800000,-3.095140,-0.283756,-1.512269,0.692800,0.061833,-0.122724,0.731473,-0.159260,-0.241090,-2.531293,-2.150609,-0.431663,-3.090535,-7.160385,-1.730538,-0.015802,-0.072647,0.000000,-0.212963,0.253593,-0.000000
0.810000,-3.088175,-0.283146,-1.513509,0.699988,0.060131,-0.125157,0.706013,-0.181122,-0.245486,-2.560192,-2.221680,-0.447171,-2.674807,-7.070848,-1.478048,-0.017966,-0.070097,0.000000,-0.219853,0.256423,-0.000000
0.820000,-3.081141,-0.282554,-1.514773,0.706919,0.058208,-0.127634,0.680285,-0.203692,-0.250033,-2.584644,-2.292156,-0.462152,-2.227546,-7.002828,-1.404498,-0.020199,-0.067520,0.000000,-0.226662,0.258792,-0.000000
0.830000,-3.074038,-0.281983,-1.516062,0.713593,0.056055,-0.130158,0.654333,-0.226961,-0.254714,-2.604997,-2.361285,-0.472880,-1.842478,-6.819728,-0.732511,-0.022499,-0.064921,0.000000,-0.233322,0.260711,-0.000000
0.840000,-3.066870,-0.281434,-1.517376,0.720005,0.053666,-0.132729,0.628198,-0.250912,-0.259474,-2.621209,-2.428884,-0.478897,-1.385791,-6.716608,-0.575596,-0.024865,-0.062306,0.000000,-0.239820,0.262178,-0.000000
0.850000,-3.059639,-0.280910,-1.518716,0.726156,0.051035,-0.135348,0.601925,-0.275535,-0.264289,-2.632806,-2.495401,-0.483358,-0.945846,-6.564936,-0.202139,-0.027295,-0.059678,0.000000,-0.246195,0.263168,0.000000
0.860000,-3.052347,-0.280414,-1.520083,0.732044,0.048154,-0.138015,0.575556,-0.300815,-0.269123,-2.640168,-2.560186,-0.482641,-0.501151,-6.397279,0.209473,-0.029788,-0.057042,0.000000,-0.252394,0.263701,0.000000
0.870000,-3.044999,-0.279948,-1.521477,0.737667,0.045016,-0.140730,0.549138,-0.326734,-0.273939,-2.642565,-2.623361,-0.480384,-0.002578,-6.227536,0.385018,-0.032342,-0.054403,0.000000,-0.258421,0.263731,-0.000000
0.880000,-3.037595,-0.279514,-1.522898,0.743026,0.041617,-0.143493,0.522719,-0.353275,-0.278709,-2.640732,-2.684525,-0.471943,0.369474,-6.002322,1.312321,-0.034956,-0.051766,0.000000,-0.264254,0.263307,0.000000
0.890000,-3.030139,-0.279116,-1.524347,0.748122,0.037949,-0.146304,0.496338,-0.380417,-0.283355,-2.634645,-2.743501,-0.456839,0.874250,-5.797453,1.573621,-0.037627,-0.049135,0.000000,-0.269884,0.262432,-0.000000
0.900000,-3.022633,-0.278756,-1.525824,0.752953,0.034007,-0.149160,0.470043,-0.408138,-0.287839,-2.623445,-2.800354,-0.439188,1.341418,-5.562759,2.099401,-0.040353,-0.046515,0.000000,-0.275308,0.261048,0.000000
0.910000,-3.015081,-0.278437,-1.527330,0.757523,0.029784,-0.152060,0.443883,-0.436416,-0.292113,-2.607834,-2.854729,-0.414492,1.812563,-5.311007,2.662711,-0.043132,-0.043911,0.000000,-0.280514,0.259208,-0.000000
0.920000,-3.007484,-0.278162,-1.528866,0.761832,0.025276,-0.155001,0.417905,-0.465224,-0.296125,-2.586890,-2.906531,-0.387520,2.347298,-5.044898,2.911784,-0.045962,-0.041328,0.000000,-0.285477,0.256847,-0.000000
0.930000,-2.999845,-0.277933,-1.530430,0.765882,0.020478,-0.157981,0.392160,-0.494537,-0.299835,-2.561498,-2.955532,-0.352480,2.731332,-4.752307,4.105520,-0.048841,-0.038771,0.000000,-0.290207,0.254033,-0.000000
0.940000,-2.992167,-0.277753,-1.532025,0.769676,0.015384,-0.160997,0.366690,-0.524325,-0.303145,-2.531637,-3.001551,-0.308899,3.272003,-4.450065,4.436310,-0.051766,-0.036243,0.000000,-0.294700,0.250772,-0.000000
0.950000,-2.984452,-0.277626,-1.533650,0.773217,0.009990,-0.164043,0.341546,-0.554558,-0.306006,-2.496294,-3.044459,-0.262176,3.767650,-4.126821,5.088700,-0.054734,-0.033750,0.000000,-0.298924,0.246989,-0.000000
0.960000,-2.976704,-0.277554,-1.535306,0.776508,0.004292,-0.167115,0.316780,-0.585203,-0.308358,-2.456156,-3.083978,-0.207151,4.270679,-3.784107,5.764942,-0.057743,-0.031297,0.000000,-0.302885,0.242740,-0.000000
0.970000,-2.968923,-0.277541,-1.536993,0.779554,-0.001715,-0.170208,0.292441,-0.616226,-0.310139,-2.410770,-3.120174,-0.148243,4.798410,-3.442052,6.168784,-0.060791,-0.028889,0.000000,-0.306577,0.237999,0.000000
0.980000,-2.961113,-0.277590,-1.538710,0.782358,-0.008034,-0.173316,0.268581,-0.647593,-0.311293,-2.360362,-3.152547,-0.080590,5.284070,-3.029006,7.368460,-0.063874,-0.026530,0.000000,-0.309986,0.232779,0.000000
0.990000,-2.953277,-0.277703,-1.540459,0.784927,-0.014668,-0.176431,0.245250,-0.679264,-0.311719,-2.304876,-3.180893,-0.003863,5.823818,-2.647207,7.827614,-0.066989,-0.024225,0.000000,-0.313107,0.227081,-0.000000
1.000000,-2.945416,-0.277884,-1.542239,0.787265,-0.021620,-0.179547,0.222502,-0.711198,-0.311358,-2.243940,-3.205342,0.077269,6.354921,-2.229295,8.550873,-0.070135,-0.021980,0.000000,-0.315934,0.220884,0.000000
1.010000,-2.937532,-0.278136,-1.544050,0.789379,-0.028893,-0.182656,0.200390,-0.743356,-0.310142,-2.177527,-3.225435,0.167353,6.897524,-1.792116,9.289826,-0.073307,-0.019799,0.000000,-0.318461,0.214179,0.000000
1.020000,-2.929629,-0.278463,-1.545892,0.791275,-0.036488,-0.185747,0.178967,-0.775693,-0.308001,-2.106254,-3.241175,0.261447,7.388870,-1.346860,9.700665,-0.076503,-0.017686,0.000000,-0.320666,0.207040,-0.000000
1.030000,-2.921707,-0.278867,-1.547765,0.792961,-0.044407,-0.188812,0.158285,-0.808164,-0.304880,-2.029083,-3.252185,0.364964,8.047483,-0.851526,11.007619,-0.079719,-0.015647,0.000000,-0.322559,0.199355,-0.000000
1.040000,-2.913770,-0.279352,-1.549668,0.794444,-0.052651,-0.191841,0.138406,-0.840720,-0.300668,-1.945896,-3.258259,0.478116,8.560437,-0.365977,11.448548,-0.082953,-0.013688,0.000000,-0.324139,0.191117,-0.000000
1.050000,-2.905819,-0.279921,-1.551602,0.795732,-0.061222,-0.194822,0.119383,-0.873312,-0.295307,-1.857587,-3.259388,0.595378,9.133282,0.149331,12.175004,-0.086201,-0.011813,0.000000,-0.325368,0.182421,-0.000000
1.060000,-2.897856,-0.280578,-1.553564,0.796834,-0.070118,-0.197743,0.101276,-0.905888,-0.288727,-1.762772,-3.254897,0.722018,9.723667,0.690853,12.905914,-0.089459,-0.010028,0.000000,-0.326236,0.173124,0.000000
1.070000,-2.889883,-0.281325,-1.555556,0.797761,-0.079339,-0.200592,0.084139,-0.938397,-0.280863,-1.664078,-3.246070,0.851190,10.120480,1.137293,13.162924,-0.092725,-0.008338,0.000000,-0.326818,0.163489,0.000000
1.080000,-2.881901,-0.282166,-1.557576,0.798521,-0.088885,-0.203356,0.068020,-0.970788,-0.271669,-1.558152,-3.230835,0.990196,11.069096,1.914843,14.641876,-0.095994,-0.006747,0.000000,-0.326985,0.153175,0.000000
1.090000,-2.873913,-0.283104,-1.559623,0.799125,-0.098754,-0.206021,0.053001,-1.002991,-0.261024,-1.444783,-3.208914,1.139137,11.500330,2.412476,14.901745,-0.099263,-0.005263,0.000000,-0.326723,0.142157,0.000000
1.100000,-2.865919,-0.284142,-1.561696,0.799585,-0.108944,-0.208572,0.039136,-1.034951,-0.248883,-1.327230,-3.182011,1.290169,12.115808,3.031161,15.538189,-0.102528,-0.003891,0.000000,-0.326133,0.130755,-0.000000
1.110000,-2.857922,-0.285283,-1.563794,0.799912,-0.119452,-0.210993,0.026485,-1.066607,-0.235195,-1.201789,-3.148071,1.448439,12.753633,3.674328,16.122689,-0.105784,-0.002637,0.000000,-0.325069,0.118591,-0.000000
1.120000,-2.849922,-0.286532,-1.565915,0.800118,-0.130275,-0.213270,0.015104,-1.097897,-0.219894,-1.074165,-3.109252,1.612611,12.984545,4.175621,16.691835,-0.109028,-0.001506,0.000000,-0.323736,0.106220,0.000000
1.130000,-2.841920,-0.287890,-1.568059,0.800218,-0.141409,-0.215386,0.005033,-1.128766,-0.202926,-0.937620,-3.062755,1.781860,14.331324,5.129309,17.149728,-0.112257,-0.000503,0.000000,-0.321856,0.092963,0.000000
1.140000,-2.833918,-0.289361,-1.570223,0.800224,-0.152849,-0.217323,-0.003616,-1.159125,-0.184242,-0.791847,-3.008290,1.955699,14.608181,5.682465,17.622255,-0.115463,0.000362,0.000000,-0.319398,0.078773,0.000000
1.150000,-2.825916,-0.290948,-1.572405,0.800151,-0.164589,-0.219065,-0.010799,-1.188915,-0.163797,-0.643631,-2.948338,2.134021,15.248467,6.394227,18.019465,-0.118644,0.001083,0.000000,-0.316606,0.064308,0.000000
1.160000,-2.817915,-0.292654,-1.574603,0.800013,-0.176625,-0.220593,-0.016458,-1.218064,-0.141552,-0.486864,-2.880216,2.315473,15.894485,7.127816,18.349021,-0.121793,0.001654,0.000000,-0.313200,0.048943,-0.000000
1.170000,-2.809916,-0.294481,-1.576816,0.799827,-0.188948,-0.221889,-0.020532,-1.246503,-0.117470,-0.327690,-2.806700,2.501602,16.142413,7.679567,18.780491,-0.124907,0.002068,0.000000,-0.309472,0.033268,-0.000000
1.180000,-2.801918,-0.296434,-1.579040,0.799608,-0.201552,-0.222936,-0.022981,-1.274168,-0.091516,-0.159773,-2.724441,2.689064,17.445637,8.777529,18.697660,-0.127980,0.002321,0.000000,-0.305045,0.016629,-0.000000
1.190000,-2.793923,-0.298513,-1.581274,0.799373,-0.214429,-0.223714,-0.023696,-1.300961,-0.063688,0.017069,-2.633170,2.877047,17.715309,9.375756,18.973035,-0.131005,0.002400,0.000000,-0.299872,-0.001021,-0.000000
1.200000,-2.785931,-0.300723,-1.583513,0.799140,-0.227568,-0.224203,-0.022636,-1.326813,-0.033965,0.196229,-2.536016,3.067540,18.318903,10.159224,19.026510,-0.133977,0.002299,0.000000,-0.294281,-0.019045,0.000000
1.210000,-2.777941,-0.303066,-1.585757,0.798926,-0.240962,-0.224387,-0.019741,-1.351647,-0.002343,0.383724,-2.429320,3.256582,18.919691,10.969172,18.982669,-0.136888,0.002012,0.000000,-0.287843,-0.038079,0.000000
1.220000,-2.769952,-0.305543,-1.588000,0.798751,-0.254598,-0.224244,-0.014962,-1.375390,0.031181,0.572171,-2.318557,3.448897,19.016398,11.390049,19.257697,-0.139733,0.001530,0.000000,-0.281156,-0.057406,-0.000000
1.230000,-2.761965,-0.308158,-1.590240,0.798633,-0.268466,-0.223756,-0.008267,-1.397982,0.066619,0.769231,-2.197182,3.637070,20.398797,12.892044,18.355774,-0.142507,0.000849,0.000000,-0.273445,-0.077835,0.000000
1.240000,-2.753979,-0.310913,-1.592474,0.798593,-0.282553,-0.222905,0.000453,-1.419295,0.103903,0.974977,-2.064868,3.819935,20.491967,13.363460,18.412689,-0.145198,-0.000047,0.000000,-0.264629,-0.099411,-0.000000
1.250000,-2.745993,-0.313810,-1.594697,0.798649,-0.296847,-0.221672,0.011229,-1.439268,0.143023,1.181111,-1.928149,4.003229,20.980725,14.187381,18.020578,-0.147799,-0.001162,0.000000,-0.255429,-0.121324,-0.000000
1.260000,-2.738006,-0.316851,-1.596906,0.798824,-0.311334,-0.220039,0.024098,-1.457821,0.183935,1.393500,-1.780970,4.178033,21.422375,15.020997,17.485293,-0.150303,-0.002503,0.000000,-0.245071,-0.144204,-0.000000
1.270000,-2.730016,-0.320037,-1.599097,0.799138,-0.325999,-0.217988,0.039107,-1.474878,0.226610,1.608792,-1.629833,4.357779,21.694366,15.425253,17.903655,-0.152700,-0.004081,0.000000,-0.234390,-0.167751,-0.000000
1.280000,-2.722023,-0.323371,-1.601264,0.799614,-0.340826,-0.215501,0.056290,-1.490380,0.271043,1.828611,-1.467875,4.524356,22.263396,16.971346,15.378756,-0.154986,-0.005901,0.000000,-0.222376,-0.192160,0.000000
1.290000,-2.714023,-0.326854,-1.603405,0.800272,-0.355801,-0.212562,0.075694,-1.504197,0.317043,2.052555,-1.294897,4.676047,22.449842,17.399802,15.493087,-0.157143,-0.007974,0.000000,-0.208927,-0.217420,-0.000000
1.300000,-2.706016,-0.330488,-1.605514,0.801135,-0.370904,-0.209155,0.097344,-1.516269,0.364578,2.277986,-1.118046,4.829228,22.692687,18.188863,14.579574,-0.159163,-0.010306,0.000000,-0.195001,-0.243302,0.000000
1.310000,-2.698000,-0.334273,-1.607587,0.802226,-0.386120,-0.205265,0.121256,-1.526524,0.413570,2.504451,-0.931735,4.967068,22.842572,18.956546,13.543005,-0.161038,-0.012904,0.000000,-0.179705,-0.269772,-0.000000
1.320000,-2.689971,-0.338211,-1.609618,0.803568,-0.401428,-0.200879,0.147458,-1.534888,0.463930,2.736948,-0.740035,5.105026,23.400660,19.488985,13.479973,-0.162755,-0.015776,0.000000,-0.163671,-0.297405,-0.000000
1.330000,-2.681928,-0.342302,-1.611602,0.805183,-0.416811,-0.195982,0.175985,-1.541296,0.515606,2.967090,-0.539744,5.224747,22.608378,20.567622,10.432115,-0.164306,-0.018932,0.000000,-0.146210,-0.325319,-0.000000
1.340000,-2.673866,-0.346547,-1.613536,0.807095,-0.432248,-0.190563,0.206787,-1.545653,0.568354,3.193840,-0.331009,5.324572,22.977139,21.062928,10.077317,-0.165674,-0.022372,0.000000,-0.127246,-0.353398,-0.000000
1.350000,-2.665785,-0.350947,-1.615412,0.809326,-0.447717,-0.184612,0.239879,-1.547902,0.622096,3.424288,-0.117665,5.421266,22.852574,21.709954,8.690937,-0.166849,-0.026102,0.000000,-0.107422,-0.382450,0.000000
1.360000,-2.657679,-0.355501,-1.617226,0.811900,-0.463198,-0.178118,0.275251,-1.547983,0.676705,3.649580,0.102546,5.497745,22.619694,22.311153,7.193238,-0.167818,-0.030128,0.000000,-0.086150,-0.411489,-0.000000
1.370000,-2.649545,-0.360211,-1.618972,0.814839,-0.478669,-0.171075,0.312896,-1.545833,0.732049,3.880348,0.328280,5.570414,23.106704,22.841443,6.745032,-0.168568,-0.034454,0.000000,-0.063811,-0.441714,0.000000
1.380000,-2.641381,-0.365075,-1.620646,0.818166,-0.494107,-0.163475,0.352827,-1.541399,0.788033,4.102754,0.559500,5.620161,21.348179,23.394520,3.175025,-0.169089,-0.039088,0.000000,-0.040020,-0.471559,0.000000
1.390000,-2.633181,-0.370093,-1.622240,0.821903,-0.509490,-0.155314,0.394915,-1.534627,0.844366,4.315422,0.795717,5.645509,21.590123,23.825930,2.473706,-0.169364,-0.044019,0.000000,-0.014753,-0.500810,0.000000
1.400000,-2.624941,-0.375264,-1.623750,0.826071,-0.524792,-0.146587,0.439152,-1.525472,0.900932,4.530734,1.035945,5.664447,21.042059,24.223586,0.717003,-0.169381,-0.049253,0.000000,0.011605,-0.530878,0.000000
1.410000,-2.616658,-0.380588,-1.625170,0.830693,-0.539991,-0.137295,0.485491,-1.513899,0.957570,4.735750,1.279098,5.659785,20.390319,24.542915,-1.112572,-0.169127,-0.054788,0.000000,0.039277,-0.560212,-0.000000
1.420000,-2.608326,-0.386064,-1.626494,0.835788,-0.555062,-0.127436,0.533880,-1.499868,1.014110,4.942346,1.527935,5.647066,20.485969,25.071226,-1.965754,-0.168590,-0.060622,0.000000,0.068322,-0.590168,-0.000000
1.430000,-2.599940,-0.391689,-1.627717,0.841377,-0.569980,-0.117013,0.584292,-1.483339,1.070424,5.136184,1.777310,5.609268,18.255139,24.787677,-5.614991,-0.167757,-0.066757,0.000000,0.098501,-0.618983,0.000000
1.440000,-2.591497,-0.397463,-1.628833,0.847480,-0.584720,-0.106029,0.636553,-1.464324,1.126205,5.315880,2.026324,5.545373,18.104855,25.146388,-6.634032,-0.166617,-0.073173,0.000000,0.129737,-0.646373,-0.000000
1.450000,-2.582989,-0.403383,-1.629836,0.854114,-0.599258,-0.094491,0.690613,-1.442799,1.181309,5.494343,2.278768,5.472009,17.142784,25.186598,-8.572071,-0.165158,-0.079867,0.000000,0.162158,-0.673837,0.000000
1.460000,-2.574412,-0.409447,-1.630721,0.861298,-0.613568,-0.082406,0.746386,-1.418760,1.235567,5.658230,2.528689,5.376371,16.083170,25.120443,-10.488851,-0.163372,-0.086829,0.000000,0.195308,-0.699661,0.000000
1.470000,-2.565761,-0.415653,-1.631482,0.869047,-0.627625,-0.069783,0.803779,-1.392201,1.288778,5.820007,2.784001,5.262862,15.813661,25.602259,-12.276369,-0.161246,-0.094048,0.000000,0.229997,-0.725191,0.000000
1.480000,-2.557030,-0.421998,-1.632114,0.877379,-0.641403,-0.056635,0.862726,-1.363102,1.340758,5.964896,3.033614,5.129523,13.139317,24.296302,-14.390448,-0.158771,-0.101516,0.000000,0.264943,-0.748595,0.000000
1.490000,-2.548212,-0.428480,-1.632613,0.886306,-0.654879,-0.042973,0.923012,-1.331555,1.391302,6.091621,3.276244,4.976443,12.646521,24.544712,-16.155363,-0.155948,-0.109202,0.000000,0.299921,-0.769574,-0.000000
1.500000,-2.539301,-0.435095,-1.632972,0.895843,-0.668026,-0.028814,0.984552,-1.297562,1.440230,6.213798,3.521427,4.805969,11.329376,24.149479,-17.999171,-0.152768,-0.117094,0.000000,0.335947,-0.789596,0.000000
1.510000,-2.530293,-0.441840,-1.633188,0.906001,-0.680822,-0.014174,1.047230,-1.261162,1.487364,6.319465,3.757597,4.617991,9.966640,23.627249,-19.776798,-0.149231,-0.125171,0.000000,0.371577,-0.807135,0.000000
1.520000,-2.521179,-0.448710,-1.633254,0.916791,-0.693242,0.000927,1.110909,-1.222384,1.532516,6.414539,3.998810,4.408868,8.873816,24.060700,-21.856234,-0.145332,-0.133411,0.000000,0.408427,-0.822681,-0.000000
1.530000,-2.511955,-0.455703,-1.633168,0.928222,-0.705262,0.016469,1.175465,-1.181232,1.575493,6.493295,4.227180,4.184895,6.864940,21.582192,-22.922292,-0.141066,-0.141791,0.000000,0.444176,-0.835515,0.000000
1.540000,-2.502613,-0.462814,-1.632923,0.940303,-0.716859,0.032429,1.240716,-1.137893,1.616168,6.555065,4.441109,3.946952,5.650635,21.735615,-24.838820,-0.136453,-0.150279,0.000000,0.478479,-0.845440,-0.000000
1.550000,-2.493147,-0.470039,-1.632518,0.953038,-0.728012,0.048784,1.306529,-1.092394,1.654365,6.604759,4.656985,3.689936,4.115069,20.881892,-26.367616,-0.131494,-0.158850,0.000000,0.513236,-0.852817,-0.000000
1.560000,-2.483550,-0.477373,-1.631947,0.966434,-0.738700,0.065507,1.372754,-1.044807,1.689931,6.637560,4.858478,3.421063,2.547028,19.925173,-27.782125,-0.126195,-0.167473,0.000000,0.546245,-0.857089,-0.000000
1.570000,-2.473816,-0.484811,-1.631206,0.980494,-0.748902,0.082573,1.439236,-0.995215,1.722709,6.656592,5.060032,3.131009,1.152042,19.867178,-29.835216,-0.120568,-0.176119,0.000000,0.579233,-0.858332,-0.000000
1.580000,-2.463938,-0.492349,-1.630294,0.995220,-0.758598,0.099952,1.505827,-0.943666,1.752526,6.658360,5.244952,2.832617,-0.804871,17.089138,-29.814736,-0.114619,-0.184755,0.000000,0.609855,-0.856298,0.000000
1.590000,-2.453909,-0.499981,-1.629206,1.010611,-0.767769,0.117614,1.572344,-0.890380,1.779342,6.642535,5.411824,2.527409,-2.257856,16.785144,-31.590715,-0.108380,-0.193347,0.000000,0.637779,-0.850932,0.000000
1.600000,-2.443723,-0.507703,-1.627941,1.026666,-0.776400,0.135528,1.638632,-0.835429,1.803008,6.612282,5.576101,2.204404,-3.898075,15.550412,-32.611046,-0.101865,-0.201863,0.000000,0.664886,-0.842306,0.000000
1.610000,-2.433373,-0.515507,-1.626495,1.043382,-0.784473,0.153663,1.704528,-0.778919,1.823421,6.564223,5.723533,1.876967,-5.554152,14.252306,-33.473105,-0.095093,-0.210269,0.000000,0.689153,-0.830304,-0.000000
1.620000,-2.422853,-0.523390,-1.624867,1.060754,-0.791973,0.171985,1.769874,-0.720976,1.840471,6.502676,5.863964,1.529668,-6.909820,13.509029,-35.368858,-0.088086,-0.218534,0.000000,0.711843,-0.815042,-0.000000
1.630000,-2.412156,-0.531345,-1.623055,1.078777,-0.798888,0.190461,1.834520,-0.661701,1.854019,6.422790,5.986914,1.182546,-9.070420,11.063384,-34.016404,-0.080867,-0.226623,0.000000,0.731347,-0.796466,-0.000000
1.640000,-2.401276,-0.539366,-1.621057,1.097442,-0.805204,0.209054,1.898267,-0.601302,1.864134,6.324453,6.091484,0.837663,-10.437575,10.163098,-35.542497,-0.073471,-0.234505,0.000000,0.747490,-0.774698,0.000000
1.650000,-2.390205,-0.547447,-1.618874,1.116739,-0.810910,0.227731,1.960967,-0.539894,1.870710,6.212776,6.187342,0.477242,-12.050508,8.684626,-35.918267,-0.065923,-0.242149,0.000000,0.761562,-0.749902,0.000000
1.660000,-2.378939,-0.555582,-1.616503,1.136657,-0.815999,0.246456,2.022466,-0.477616,1.873700,6.084391,6.265756,0.120848,-13.627120,7.175391,-36.116869,-0.058251,-0.249526,0.000000,0.772293,-0.722318,-0.000000
1.670000,-2.367470,-0.563765,-1.613944,1.157184,-0.820460,0.265193,2.082602,-0.414615,1.873059,5.940292,6.332442,-0.251821,-15.181621,5.981870,-37.640641,-0.050485,-0.256609,0.000000,0.780511,-0.691554,0.000000
1.680000,-2.355793,-0.571989,-1.611199,1.178304,-0.824289,0.283905,2.141221,-0.351027,1.868699,5.780995,6.381629,-0.615687,-16.670607,3.847564,-35.087684,-0.042653,-0.263368,0.000000,0.785354,-0.658542,0.000000
1.690000,-2.343902,-0.580249,-1.608266,1.200003,-0.827480,0.302556,2.198173,-0.287044,1.860789,5.606923,6.412927,-0.968418,-18.141234,2.588979,-36.199184,-0.034790,-0.269785,0.000000,0.786848,-0.623566,-0.000000
1.700000,-2.331791,-0.588537,-1.605148,1.222262,-0.830029,0.321109,2.253311,-0.222806,1.849278,5.418385,6.431881,-1.332777,-19.552163,1.024240,-35.892071,-0.026924,-0.275838,0.000000,0.785817,-0.586066,0.000000
1.710000,-2.319455,-0.596847,-1.601845,1.245062,-0.831935,0.339529,2.306505,-0.158461,1.834174,5.218297,6.434505,-1.687065,-20.862694,-0.523886,-35.454262,-0.019083,-0.281507,0.000000,0.781769,-0.547223,0.000000
1.720000,-2.306888,-0.605173,-1.598358,1.268385,-0.833198,0.357781,2.357601,-0.094170,1.815512,4.997575,6.421197,-2.046175,-22.875045,-2.110574,-35.851233,-0.011298,-0.286774,0.000000,0.774879,-0.505638,0.000000
1.730000,-2.294086,-0.613509,-1.594690,1.292207,-0.833819,0.375827,2.406434,-0.030087,1.793294,4.769330,6.392871,-2.393274,-22.750458,-3.550575,-33.533940,-0.003595,-0.291620,0.000000,0.765339,-0.463539,-0.000000
1.740000,-2.281043,-0.621847,-1.590842,1.316506,-0.833801,0.393635,2.452970,0.033639,1.767697,4.534784,6.349756,-2.726518,-24.546593,-5.093365,-33.597385,0.004001,-0.296045,0.000000,0.753315,-0.421268,-0.000000
1.750000,-2.267754,-0.630183,-1.586818,1.341258,-0.833148,0.411170,2.497062,0.096856,1.738752,4.282033,6.291315,-3.060599,-25.592093,-6.564239,-32.701268,0.011464,-0.300038,0.000000,0.738868,-0.377094,-0.000000
1.760000,-2.254216,-0.638508,-1.582620,1.366438,-0.831866,0.428399,2.538596,0.159424,1.706537,4.023404,6.220053,-3.380463,-26.540066,-7.969243,-31.684362,0.018772,-0.303589,0.000000,0.722432,-0.333067,0.000000
1.770000,-2.240424,-0.646818,-1.578251,1.392021,-0.829963,0.445290,2.577466,0.221188,1.671144,3.747635,6.129421,-3.697909,-28.193629,-9.870832,-31.371610,0.025903,-0.306694,0.000000,0.703359,-0.287623,0.000000
1.780000,-2.226374,-0.655106,-1.573715,1.417978,-0.827446,0.461812,2.613540,0.281981,1.632637,3.468346,6.028650,-3.998825,-27.637737,-10.266380,-28.783392,0.032834,-0.309346,0.000000,0.682892,-0.242893,-0.000000
1.790000,-2.212063,-0.663365,-1.569016,1.444283,-0.824326,0.477934,2.646829,0.341732,1.591231,3.186922,5.918620,-4.281723,-29.044071,-12.012380,-28.203111,0.039557,-0.311559,0.000000,0.661270,-0.199158,-0.000000
1.800000,-2.197488,-0.671590,-1.564158,1.470905,-0.820615,0.493627,2.677224,0.400289,1.547014,2.891229,5.790981,-4.559038,-29.670124,-13.224422,-26.827269,0.046053,-0.313329,0.000000,0.637618,-0.154713,0.000000
1.810000,-2.182644,-0.679775,-1.559145,1.497817,-0.816325,0.508865,2.704648,0.457528,1.500115,2.592951,5.655060,-4.818126,-30.210315,-14.349013,-25.361167,0.052307,-0.314660,0.000000,0.613173,-0.111356,0.000000
1.820000,-2.167530,-0.687915,-1.553982,1.524988,-0.811469,0.523621,2.729047,0.513322,1.450671,2.285110,5.500540,-5.069558,-31.111516,-16.156302,-24.543463,0.058309,-0.315558,0.000000,0.586822,-0.067997,0.000000
1.830000,-2.152144,-0.696003,-1.548674,1.552388,-0.806064,0.537870,2.750348,0.567523,1.398793,1.975881,5.340302,-5.301001,-30.712465,-15.867485,-21.724274,0.064043,-0.316027,0.000000,0.560194,-0.025995,0.000000
1.840000,-2.136482,-0.704034,-1.543227,1.579985,-0.800124,0.551589,2.768565,0.620116,1.344724,1.666458,5.175581,-5.511385,-31.391821,-17.456290,-20.719669,0.069513,-0.316085,0.000000,0.533515,0.014482,-0.000000
1.850000,-2.120543,-0.712004,-1.537645,1.607749,-0.793667,0.564758,2.783650,0.670974,1.288592,1.350323,4.994750,-5.712062,-31.586645,-18.307452,-19.036073,0.074708,-0.315738,0.000000,0.505500,0.054521,-0.000000
1.860000,-2.104327,-0.719906,-1.531933,1.635647,-0.786711,0.577355,2.795583,0.720002,1.230545,1.036376,4.809767,-5.894453,-31.656896,-19.064743,-17.351392,0.079624,-0.314997,0.000000,0.477592,0.092884,0.000000
1.870000,-2.087830,-0.727736,-1.526099,1.663650,-0.779274,0.589363,2.804339,0.767114,1.170766,0.713162,4.610141,-6.058212,-32.516994,-20.470670,-15.479790,0.084256,-0.313875,0.000000,0.448731,0.130783,-0.000000
1.880000,-2.071053,-0.735490,-1.520148,1.691723,-0.771376,0.600765,2.809869,0.812201,1.109435,0.395863,4.408526,-6.205730,-30.914646,-19.827372,-14.023792,0.088600,-0.312379,0.000000,0.420298,0.166734,0.000000
1.890000,-2.053996,-0.743162,-1.514086,1.719837,-0.763036,0.611547,2.812284,0.855285,1.046705,0.085948,4.206236,-6.336969,-31.513804,-20.997588,-12.138707,0.092664,-0.310534,0.000000,0.392446,0.200639,0.000000
1.900000,-2.036657,-0.750749,-1.507919,1.747959,-0.754277,0.621695,2.811559,0.896279,0.982760,-0.230250,3.992074,-6.449209,-31.254681,-21.442499,-10.392517,0.096447,-0.308350,0.000000,0.364064,0.233861,0.000000
1.910000,-2.019036,-0.758246,-1.501654,1.776057,-0.745118,0.631199,2.807706,0.935131,0.917773,-0.539778,3.777916,-6.545428,-30.916055,-21.785767,-8.665098,0.099948,-0.305841,0.000000,0.336381,0.265216,-0.000000
1.920000,-2.001136,-0.765650,-1.495298,1.804102,-0.735581,0.640048,2.800754,0.971794,0.851924,-0.850878,3.552851,-6.620824,-31.022217,-22.816024,-6.598231,0.103172,-0.303023,0.000000,0.308323,0.295448,0.000000
1.930000,-1.982955,-0.772957,-1.488856,1.832062,-0.725690,0.648235,2.790716,1.006199,0.785405,-1.154325,3.330214,-6.681264,-29.647092,-21.686006,-5.498855,0.106118,-0.299907,0.000000,0.281222,0.323870,0.000000
1.940000,-1.964495,-0.780163,-1.482335,1.859907,-0.715465,0.655754,2.777699,1.038414,0.718346,-1.449047,3.111340,-6.727207,-29.558527,-22.477699,-3.510996,0.108800,-0.296515,0.000000,0.255181,0.350456,0.000000
1.950000,-1.945757,-0.787265,-1.475743,1.887606,-0.704929,0.662601,2.761733,1.068392,0.650931,-1.742971,2.884326,-6.753145,-28.944542,-22.511996,-1.864987,0.111221,-0.292860,0.000000,0.229042,0.375897,-0.000000
1.960000,-1.926743,-0.794261,-1.469085,1.915132,-0.694104,0.668772,2.742870,1.096116,0.583324,-2.028326,2.660873,-6.765686,-28.269321,-22.464631,-0.283632,0.113385,-0.288956,0.000000,0.203906,0.399685,-0.000000
1.970000,-1.907455,-0.801146,-1.462370,1.942454,-0.683014,0.674267,2.721177,1.121588,0.515699,-2.309548,2.432526,-6.755565,-27.819911,-22.903269,1.943188,0.115299,-0.284819,0.000000,0.179005,0.422056,0.000000
1.980000,-1.887895,-0.807920,-1.455602,1.969546,-0.671680,0.679087,2.696711,1.144786,0.448247,-2.581482,2.209119,-6.734478,-26.554052,-21.757890,2.254983,0.116969,-0.280464,0.000000,0.155176,0.442913,0.000000
1.990000,-1.868065,-0.814579,-1.448790,1.996380,-0.660126,0.683233,2.669582,1.165792,0.381040,-2.843425,1.991732,-6.703413,-25.974248,-22.000989,4.309541,0.118407,-0.275905,0.000000,0.132476,0.462271,-0.000000
2.000000,-1.847968,-0.821122,-1.441940,2.022929,-0.648372,0.686709,2.639860,1.184607,0.314254,-3.099566,1.771792,-6.651541,-25.100354,-21.685056,5.696162,0.119619,-0.271157,0.000000,0.110151,0.480306,0.000000
2.010000,-1.827607,-0.827546,-1.435058,2.049168,-0.636441,0.689520,2.607624,1.201250,0.248036,-3.345997,1.557630,-6.590137,-24.194899,-21.308393,6.998610,0.120614,-0.266234,0.000000,0.088869,0.497009,-0.000000
2.020000,-1.806986,-0.833850,-1.428152,2.075073,-0.624354,0.691672,2.572969,1.215759,0.182528,-3.583489,1.344240,-6.507876,-23.283137,-21.194598,9.030994,0.121399,-0.261150,0.000000,0.068233,0.512216,0.000000
2.030000,-1.786107,-0.840033,-1.421227,2.100620,-0.612133,0.693173,2.535987,1.228158,0.117900,-3.811244,1.137398,-6.418381,-22.262739,-20.160051,8.843910,0.121982,-0.255918,0.000000,0.048625,0.526268,0.000000
2.040000,-1.764975,-0.846092,-1.414290,2.125786,-0.599797,0.694033,2.496778,1.238532,0.054177,-4.028957,0.937848,-6.322898,-21.290885,-19.909478,10.656678,0.122375,-0.250549,0.000000,0.030065,0.539204,-0.000000
2.050000,-1.743593,-0.852028,-1.407348,2.150549,-0.587369,0.694260,2.455440,1.246920,-0.008490,-4.236861,0.740783,-6.209014,-20.271559,-19.329391,11.693887,0.122585,-0.245057,0.000000,0.012196,0.550794,0.000000
2.060000,-1.721965,-0.857840,-1.400407,2.174888,-0.574865,0.693867,2.412073,1.253373,-0.069988,-4.434946,0.550726,-6.089275,-19.245963,-18.713991,12.640492,0.122622,-0.239453,0.000000,-0.004715,0.561389,-0.000000
2.070000,-1.700097,-0.863525,-1.393473,2.198784,-0.562307,0.692865,2.366784,1.257953,-0.130213,-4.620839,0.366273,-5.952789,-18.024932,-18.133144,14.258096,0.122494,-0.233750,0.000000,-0.020715,0.570555,0.000000
2.080000,-1.677991,-0.869086,-1.386552,2.222217,-0.549712,0.691267,2.319687,1.260722,-0.189034,-4.797392,0.188964,-5.812472,-17.287427,-17.322005,13.780882,0.122210,-0.227959,0.000000,-0.035828,0.578902,-0.000000
2.090000,-1.655654,-0.874520,-1.379650,2.245172,-0.537099,0.689089,2.270866,1.261757,-0.246457,-4.964658,0.019173,-5.669605,-16.069836,-16.669586,15.169898,0.121780,-0.222087,0.000000,-0.050060,0.586482,-0.000000
2.100000,-1.633089,-0.879828,-1.372772,2.267629,-0.524483,0.686343,2.220436,1.261127,-0.302372,-5.119593,-0.144019,-5.512631,-15.011646,-15.926973,15.823225,0.121212,-0.216146,0.000000,-0.063400,0.592796,-0.000000
2.110000,-1.610303,-0.885009,-1.365925,2.289575,-0.511881,0.683047,2.168503,1.258901,-0.356704,-5.265349,-0.299880,-5.352990,-13.967660,-15.172375,16.393338,0.120515,-0.210146,0.000000,-0.075927,0.598410,-0.000000
2.120000,-1.587300,-0.890065,-1.359113,2.310995,-0.499310,0.679215,2.115178,1.255160,-0.409390,-5.397376,-0.446766,-5.182244,-12.605942,-14.269435,17.451874,0.119697,-0.204095,0.000000,-0.087423,0.602757,0.000000
2.130000,-1.564085,-0.894996,-1.352342,2.331875,-0.486783,0.674865,2.060583,1.249989,-0.460347,-5.521004,-0.586636,-5.010320,-12.126349,-13.704564,16.911872,0.118769,-0.198005,0.000000,-0.098195,0.606553,0.000000
2.140000,-1.540664,-0.899801,-1.345617,2.352202,-0.474315,0.670013,2.004784,1.243451,-0.509598,-5.636555,-0.719456,-4.838344,-10.817136,-12.789668,17.765989,0.117736,-0.191879,0.000000,-0.108269,0.609854,-0.000000
2.150000,-1.517043,-0.904482,-1.338943,2.371967,-0.461918,0.664679,1.947899,1.235632,-0.557080,-5.738822,-0.842981,-4.657731,-9.807182,-11.982462,18.051025,0.116607,-0.185727,0.000000,-0.117370,0.612039,-0.000000
2.160000,-1.493227,-0.909040,-1.332325,2.391157,-0.449606,0.658878,1.890032,1.226613,-0.602756,-5.832943,-0.959514,-4.477164,-8.824129,-11.182413,18.262742,0.115390,-0.179556,0.000000,-0.125813,0.613752,0.000000
2.170000,-1.469221,-0.913475,-1.325767,2.409764,-0.437390,0.652630,1.831288,1.216480,-0.646600,-5.913564,-1.065325,-4.290750,-7.493228,-10.116993,18.803773,0.114094,-0.173374,0.000000,-0.133214,0.614409,0.000000
2.180000,-1.445033,-0.917788,-1.319274,2.427780,-0.425280,0.645952,1.771784,1.205327,-0.688577,-5.986861,-1.164738,-4.105614,-7.175422,-9.770391,18.206679,0.112728,-0.167189,0.000000,-0.140053,0.614706,0.000000
2.190000,-1.420668,-0.921981,-1.312850,2.445198,-0.413286,0.638864,1.711572,1.193205,-0.728722,-6.053305,-1.257975,-3.922669,-5.925636,-8.739623,18.579349,0.111295,-0.161002,0.000000,-0.146366,0.614697,0.000000
2.200000,-1.396131,-0.926054,-1.306498,2.462010,-0.401419,0.631384,1.650763,1.180205,-0.767014,-6.107079,-1.340727,-3.735982,-5.024415,-7.950590,18.541490,0.109804,-0.154822,0.000000,-0.151715,0.613759,-0.000000
2.210000,-1.371430,-0.930009,-1.300223,2.478211,-0.389685,0.623530,1.589452,1.166409,-0.803452,-6.153878,-1.417256,-3.551756,-4.156587,-7.182140,18.443486,0.108262,-0.148654,0.000000,-0.156555,0.612510,-0.000000
2.220000,-1.346569,-0.933848,-1.294029,2.493798,-0.378093,0.615321,1.527729,1.151899,-0.838041,-6.188613,-1.482801,-3.365921,-2.972634,-6.098696,18.570308,0.106676,-0.142503,0.000000,-0.160422,0.610424,0.000000
2.230000,-1.321556,-0.937572,-1.287918,2.508765,-0.366649,0.606775,1.465699,1.136770,-0.870783,-6.217154,-1.542840,-3.183554,-2.745791,-5.916952,17.890316,0.105055,-0.136376,0.000000,-0.163868,0.608104,0.000000
2.240000,-1.296396,-0.941182,-1.281894,2.523111,-0.355359,0.597911,1.403404,1.121058,-0.901727,-6.240028,-1.597760,-3.005348,-1.654156,-4.898471,17.889020,0.103400,-0.130274,0.000000,-0.166935,0.605597,0.000000
2.250000,-1.271096,-0.944680,-1.275961,2.536832,-0.344229,0.588747,1.340938,1.104852,-0.930887,-6.251863,-1.642325,-2.827158,-0.896237,-4.188320,17.596175,0.101720,-0.124202,0.000000,-0.169115,0.602356,0.000000
2.260000,-1.245661,-0.948067,-1.270120,2.549929,-0.333264,0.579299,1.278383,1.088227,-0.958285,-6.257982,-1.681654,-2.653103,-0.174061,-3.505984,17.265163,0.100019,-0.118164,0.000000,-0.170911,0.598908,-0.000000
2.270000,-1.220099,-0.951345,-1.264376,2.562400,-0.322466,0.569587,1.215815,1.071256,-0.983956,-6.253986,-1.710904,-2.481457,0.814427,-2.517348,17.002758,0.098304,-0.112166,0.000000,-0.171871,0.594823,0.000000
2.280000,-1.194415,-0.954517,-1.258729,2.574246,-0.311839,0.559626,1.153319,1.054023,-1.007930,-6.245023,-1.735635,-2.314319,0.968231,-2.437757,16.417729,0.096582,-0.106211,0.000000,-0.172515,0.590583,0.000000
2.290000,-1.168616,-0.957583,-1.253184,2.585467,-0.301386,0.549434,1.090928,1.036555,-1.030259,-6.231611,-1.756303,-2.152090,1.864483,-1.528565,16.078933,0.094855,-0.100299,0.000000,-0.172887,0.586226,-0.000000
2.300000,-1.142708,-0.960545,-1.247741,2.596065,-0.291109,0.539026,1.028720,1.018931,-1.050982,-6.209155,-1.767737,-1.993303,2.467066,-0.933117,15.618516,0.093128,-0.094435,0.000000,-0.172507,0.581309,0.000000
2.310000,-1.116697,-0.963405,-1.242404,2.606042,-0.281008,0.528419,0.966758,1.001213,-1.070141,-6.182239,-1.774959,-1.839096,3.035666,-0.367548,15.145820,0.091406,-0.088623,0.000000,-0.171834,0.576248,0.000000
2.320000,-1.090589,-0.966166,-1.237174,2.615401,-0.271085,0.517628,0.905104,0.983462,-1.087786,-6.147395,-1.773810,-1.691131,3.807436,0.449845,14.515311,0.089693,-0.082864,0.000000,-0.170506,0.570728,-0.000000
2.330000,-1.064391,-0.968828,-1.232052,2.624145,-0.261339,0.506668,0.843822,0.965748,-1.103977,-6.108725,-1.769058,-1.547355,3.917890,0.491765,14.239401,0.087996,-0.077162,0.000000,-0.168933,0.565091,0.000000
2.340000,-1.038108,-0.971393,-1.227041,2.632279,-0.251770,0.495554,0.782939,0.948090,-1.118747,-6.066688,-1.761155,-1.407830,4.606893,1.229436,13.591453,0.086315,-0.071518,0.000000,-0.167152,0.559370,0.000000
2.350000,-1.011748,-0.973864,-1.222141,2.639806,-0.242377,0.484298,0.722514,0.930552,-1.132157,-6.017716,-1.745783,-1.274955,5.061164,1.696259,13.053757,0.084655,-0.065935,0.000000,-0.164790,0.553242,-0.000000
2.360000,-0.985314,-0.976241,-1.217355,2.646731,-0.233158,0.472915,0.662595,0.913184,-1.144258,-5.965316,-1.727124,-1.146166,5.487820,2.135474,12.522781,0.083020,-0.060414,0.000000,-0.162200,0.546996,0.000000
2.370000,-0.958815,-0.978527,-1.212683,2.653059,-0.224112,0.461417,0.603227,0.896032,-1.155112,-5.907372,-1.702200,-1.026176,6.025427,2.744252,11.648925,0.081413,-0.054958,0.000000,-0.159146,0.540454,-0.000000
2.380000,-0.932255,-0.980724,-1.208127,2.658797,-0.215236,0.449816,0.544457,0.879149,-1.164792,-5.846388,-1.674442,-0.909533,6.165078,2.800035,11.684627,0.079838,-0.049569,0.000000,-0.155891,0.533798,-0.000000
2.390000,-0.905641,-0.982833,-1.203687,2.663951,-0.206528,0.438125,0.486308,0.862551,-1.173312,-5.782711,-1.644237,-0.796024,6.638183,3.338830,10.840781,0.078296,-0.044248,0.000000,-0.152468,0.527053,-0.000000
2.400000,-0.878978,-0.984855,-1.199365,2.668526,-0.197984,0.426354,0.428820,0.846284,-1.180744,-5.714313,-1.608612,-0.691220,6.965943,3.680751,10.296032,0.076790,-0.038997,0.000000,-0.148642,0.520043,-0.000000
2.410000,-0.852272,-0.986793,-1.195161,2.672529,-0.189601,0.414514,0.372030,0.830386,-1.187147,-5.643148,-1.570474,-0.590246,7.274846,3.999453,9.757601,0.075323,-0.033817,0.000000,-0.144639,0.512915,0.000000
2.420000,-0.825529,-0.988648,-1.191075,2.675969,-0.181375,0.402614,0.315968,0.814889,-1.192579,-5.568777,-1.528177,-0.497358,7.584482,4.401123,8.958093,0.073898,-0.028710,0.000000,-0.140335,0.505630,-0.000000
2.430000,-0.798755,-0.990421,-1.187109,2.678851,-0.173302,0.390665,0.260664,0.799829,-1.197106,-5.491768,-1.483680,-0.408186,7.813756,4.492984,8.881541,0.072517,-0.023677,0.000000,-0.135873,0.498214,0.000000
2.440000,-0.771954,-0.992114,-1.183262,2.681185,-0.165377,0.378675,0.206141,0.785222,-1.200753,-5.412333,-1.437277,-0.322484,8.081553,4.839408,8.121389,0.071181,-0.018720,0.000000,-0.131275,0.490680,0.000000
2.450000,-0.745133,-0.993729,-1.179535,2.682977,-0.157596,0.366653,0.152426,0.771096,-1.203584,-5.330296,-1.387433,-0.244550,8.311547,5.070794,7.604190,0.069892,-0.013839,0.000000,-0.126428,0.483007,-0.000000
2.460000,-0.718296,-0.995267,-1.175929,2.684236,-0.149954,0.354606,0.099543,0.757479,-1.205657,-5.245961,-1.335729,-0.170800,8.527885,5.283593,7.092788,0.068653,-0.009036,0.000000,-0.121448,0.475207,0.000000
2.470000,-0.691450,-0.996729,-1.172443,2.684970,-0.142445,0.342542,0.047511,0.744390,-1.207021,-5.160018,-1.281669,-0.103165,8.681991,5.508766,6.488919,0.067464,-0.004313,0.000000,-0.116300,0.467334,-0.000000
2.480000,-0.664599,-0.998116,-1.169078,2.685189,-0.135064,0.330468,-0.003650,0.731851,-1.207734,-5.071870,-1.225964,-0.039869,8.945930,5.628680,6.173908,0.066327,0.000331,0.000000,-0.111032,0.459324,0.000000
2.490000,-0.637748,-0.999430,-1.165834,2.684900,-0.127806,0.318389,-0.053919,0.719875,-1.207832,-4.981631,-1.168821,0.019278,9.075402,5.813636,5.604081,0.065244,0.004894,0.000000,-0.105662,0.451178,-0.000000
2.500000,-0.610902,-1.000673,-1.162710,2.684114,-0.120665,0.306313,-0.103279,0.708481,-1.207368,-4.890202,-1.109889,0.072711,9.232426,5.953176,5.138237,0.064215,0.009374,0.000000,-0.100165,0.442971,-0.000000
2.510000,-0.584067,-1.001844,-1.159707,2.682838,-0.113634,0.294244,-0.151717,0.697682,-1.206391,-4.796977,-1.049666,0.122016,9.378871,6.078348,4.687319,0.063241,0.013771,0.000000,-0.094572,0.434639,0.000000
2.520000,-0.557247,-1.002946,-1.156825,2.681082,-0.106709,0.282186,-0.199217,0.687490,-1.204946,-4.702954,-0.988469,0.166158,9.454465,6.168578,4.180438,0.062323,0.018084,0.000000,-0.088919,0.426265,-0.000000
2.530000,-0.530447,-1.003978,-1.154064,2.678857,-0.099882,0.270146,-0.245770,0.677916,-1.203080,-4.607280,-0.926136,0.206452,9.679530,6.295783,3.882133,0.061463,0.022312,0.000000,-0.083179,0.417766,0.000000
2.540000,-0.503672,-1.004943,-1.151422,2.676170,-0.093148,0.258126,-0.291357,0.668971,-1.200829,-4.510019,-0.862802,0.243111,9.740241,6.358660,3.415521,0.060660,0.026455,0.000000,-0.077364,0.409142,0.000000
2.550000,-0.476925,-1.005842,-1.148901,2.673033,-0.086501,0.246131,-0.335969,0.660662,-1.198234,-4.412245,-0.798924,0.275136,9.843970,6.424802,3.029563,0.059916,0.030510,0.000000,-0.071519,0.400482,0.000000
2.560000,-0.450212,-1.006674,-1.146500,2.669454,-0.079933,0.234162,-0.379597,0.652995,-1.195337,-4.313164,-0.734257,0.303761,9.940307,6.480241,2.663559,0.059230,0.034478,0.000000,-0.065614,0.391713,0.000000
2.570000,-0.423538,-1.007441,-1.144218,2.665444,-0.073439,0.222225,-0.422232,0.645976,-1.192174,-4.213745,-0.669602,0.328149,9.971741,6.474188,2.251215,0.058603,0.038358,0.000000,-0.059724,0.382913,0.000000
2.580000,-0.396905,-1.008143,-1.142055,2.661013,-0.067011,0.210320,-0.463868,0.639606,-1.188784,-4.113136,-0.604278,0.349565,10.149653,6.589489,2.036507,0.058036,0.042149,0.000000,-0.053782,0.374006,-0.000000
2.590000,-0.370319,-1.008781,-1.140011,2.656170,-0.060644,0.198450,-0.504490,0.633893,-1.185191,-4.011371,-0.538365,0.368260,10.172651,6.565534,1.671609,0.057528,0.045851,0.000000,-0.047791,0.364992,-0.000000
2.600000,-0.343783,-1.009356,-1.138086,2.650926,-0.054331,0.186616,-0.544095,0.628837,-1.181431,-3.909453,-0.472784,0.383358,10.239609,6.574491,1.385980,0.057080,0.049461,0.000000,-0.041840,0.355954,0.000000
2.610000,-0.317301,-1.009868,-1.136279,2.645292,-0.048066,0.174822,-0.582676,0.624439,-1.177531,-3.806555,-0.406860,0.396284,10.302864,6.575258,1.128273,0.056691,0.052981,0.000000,-0.035860,0.346821,-0.000000
2.620000,-0.290878,-1.010317,-1.134589,2.639276,-0.041840,0.163066,-0.620227,0.620697,-1.173520,-3.703747,-0.341620,0.405311,10.293077,6.503554,0.753243,0.056362,0.056409,0.000000,-0.029954,0.337678,0.000000
2.630000,-0.264517,-1.010705,-1.133017,2.632891,-0.035649,0.151351,-0.656747,0.617607,-1.169429,-3.599973,-0.276137,0.412944,10.461888,6.592557,0.779385,0.056092,0.059745,0.000000,-0.024023,0.328439,-0.000000
2.640000,-0.238222,-1.011030,-1.131562,2.626145,-0.029486,0.139678,-0.692223,0.615175,-1.165264,-3.495234,-0.210457,0.419510,10.449755,6.509144,0.464595,0.055882,0.062988,0.000000,-0.018070,0.319105,-0.000000
2.650000,-0.211995,-1.011295,-1.130224,2.619050,-0.023344,0.128046,-0.726653,0.613394,-1.161050,-3.390691,-0.145704,0.422934,10.493480,6.472757,0.296771,0.055730,0.066137,0.000000,-0.012210,0.309769,0.000000
2.660000,-0.185842,-1.011497,-1.129001,2.611615,-0.017216,0.116457,-0.760034,0.612261,-1.156806,-3.285278,-0.081012,0.425729,10.536789,6.429733,0.159344,0.055637,0.069192,0.000000,-0.006349,0.300346,0.000000
2.670000,-0.159764,-1.011639,-1.127894,2.603852,-0.011096,0.104910,-0.792362,0.611770,-1.152549,-3.180446,-0.017455,0.425216,10.479458,6.313971,-0.154528,0.055603,0.072153,0.000000,-0.000600,0.290950,0.000000
2.680000,-0.133766,-1.011719,-1.126903,2.595772,-0.004978,0.093406,-0.823639,0.611912,-1.148300,-3.074644,0.045946,0.424888,10.681802,6.365882,0.095874,0.055626,0.075020,0.000000,0.005144,0.281462,0.000000
2.690000,-0.107850,-1.011738,-1.126026,2.587383,0.001144,0.081944,-0.853851,0.612688,-1.144048,-2.967839,0.109158,0.425115,10.627892,6.241482,-0.151238,0.055706,0.077791,0.000000,0.010882,0.271884,-0.000000
2.700000,-0.082019,-1.011696,-1.125264,2.578698,0.007277,0.070525,-0.882999,0.614090,-1.139808,-2.861667,0.171039,0.422826,10.656784,6.167127,-0.198872,0.055843,0.080466,0.000000,0.016492,0.262340,-0.000000
2.710000,-0.056277,-1.011593,-1.124615,2.569727,0.013428,0.059148,-0.911081,0.616108,-1.135589,-2.754677,0.232469,0.421004,10.685299,6.086648,-0.224413,0.056036,0.083046,0.000000,0.022072,0.252721,0.000000
2.720000,-0.030626,-1.011428,-1.124081,2.560480,0.019602,0.047813,-0.938096,0.618734,-1.131394,-2.648480,0.292463,0.417832,10.607189,5.941058,-0.345769,0.056284,0.085529,0.000000,0.027520,0.243159,0.000000
2.730000,-0.005068,-1.011201,-1.123659,2.550968,0.025804,0.036520,-0.964047,0.621956,-1.127229,-2.541420,0.351896,0.415434,10.805835,5.945258,-0.128541,0.056586,0.087916,0.000000,0.032928,0.233521,0.000000
2.740000,0.020393,-1.010911,-1.123350,2.541203,0.032043,0.025269,-0.988921,0.625770,-1.123081,-2.433460,0.410737,0.414099,10.731583,5.791461,-0.196561,0.056942,0.090207,0.000000,0.038294,0.223806,0.000000
2.750000,0.045755,-1.010560,-1.123153,2.531194,0.038322,0.014058,-1.012720,0.630164,-1.118951,-2.326343,0.467959,0.412090,10.745152,5.681882,-0.140970,0.057351,0.092400,0.000000,0.043516,0.214160,0.000000
2.760000,0.071016,-1.010145,-1.123069,2.520952,0.044648,0.002889,-1.035445,0.635127,-1.114835,-2.218634,0.524323,0.411092,10.755633,5.565845,-0.069057,0.057812,0.094497,0.000000,0.048671,0.204466,0.000000
2.770000,0.096173,-1.009667,-1.123096,2.510488,0.051026,-0.008238,-1.057096,0.640645,-1.110727,-2.111615,0.579032,0.410647,10.686516,5.397981,-0.004007,0.058324,0.096497,0.000000,0.053684,0.194838,-0.000000
2.780000,0.121225,-1.009124,-1.123233,2.499814,0.057463,-0.019325,-1.077676,0.646704,-1.106619,-2.004101,0.632744,0.411342,10.816570,5.343864,0.146338,0.058886,0.098400,0.000000,0.058619,0.185173,0.000000
2.790000,0.146169,-1.008517,-1.123482,2.488938,0.063962,-0.030371,-1.097176,0.653297,-1.102496,-1.896090,0.685417,0.413367,10.745489,5.166103,0.248253,0.059496,0.100206,0.000000,0.063474,0.175475,-0.000000
2.800000,0.171003,-1.007845,-1.123841,2.477874,0.070530,-0.041375,-1.115601,0.660406,-1.098348,-1.788876,0.736238,0.416473,10.735547,5.020327,0.388549,0.060155,0.101916,0.000000,0.068172,0.165858,-0.000000
2.810000,0.195726,-1.007106,-1.124309,2.466630,0.077172,-0.052338,-1.132953,0.668017,-1.094161,-1.681520,0.785753,0.421088,10.718848,4.867081,0.542734,0.060859,0.103529,0.000000,0.072766,0.156242,0.000000
2.820000,0.220335,-1.006301,-1.124887,2.455218,0.083892,-0.063258,-1.149233,0.676115,-1.089920,-1.574666,0.833422,0.427429,10.666226,4.679383,0.722258,0.061609,0.105047,0.000000,0.077209,0.146688,-0.000000
2.830000,0.244830,-1.005428,-1.125574,2.443649,0.090696,-0.074136,-1.164446,0.684681,-1.085607,-1.467898,0.879604,0.435465,10.686625,4.556124,0.887060,0.062403,0.106469,0.000000,0.081534,0.137158,-0.000000
2.840000,0.269208,-1.004487,-1.126370,2.431933,0.097587,-0.084970,-1.178591,0.693702,-1.081205,-1.361267,0.924238,0.445326,10.622832,4.355233,1.092946,0.063240,0.107795,0.000000,0.085737,0.127659,0.000000
2.850000,0.293468,-1.003476,-1.127274,2.420081,0.104571,-0.095759,-1.191674,0.703158,-1.076693,-1.255337,0.966800,0.457320,10.577309,4.169735,1.302211,0.064117,0.109027,0.000000,0.089773,0.118244,-0.000000
2.860000,0.317609,-1.002395,-1.128285,2.408103,0.111652,-0.106503,-1.203699,0.713032,-1.072051,-1.149837,1.007545,0.471499,10.522369,3.975183,1.525098,0.065035,0.110165,0.000000,0.093665,0.108890,-0.000000
2.870000,0.341630,-1.001243,-1.129403,2.396010,0.118833,-0.117200,-1.214673,0.723302,-1.067257,-1.044910,1.046250,0.487762,10.460521,3.766914,1.739573,0.065990,0.111210,0.000000,0.097394,0.099609,0.000000
2.880000,0.365529,-1.000018,-1.130629,2.383813,0.126119,-0.127848,-1.224600,0.733950,-1.062288,-0.940678,1.082910,0.506543,10.384225,3.563589,2.018644,0.066982,0.112162,0.000000,0.100963,0.090416,-0.000000
2.890000,0.389306,-0.998720,-1.131960,2.371522,0.133513,-0.138445,-1.233489,0.744954,-1.057117,-0.837238,1.117439,0.527960,10.303143,3.338084,2.256018,0.068009,0.113023,0.000000,0.104366,0.081319,0.000000
2.900000,0.412959,-0.997347,-1.133397,2.359146,0.141019,-0.148989,-1.241348,0.756291,-1.051720,-0.734658,1.149664,0.551783,10.210162,3.108008,2.520332,0.069069,0.113793,0.000000,0.107587,0.072323,-0.000000
2.910000,0.436488,-0.995899,-1.134940,2.346698,0.148640,-0.159479,-1.248185,0.767939,-1.046071,-0.633078,1.179493,0.578573,10.106364,2.866829,2.797028,0.070160,0.114473,0.000000,0.110622,0.063446,-0.000000
2.920000,0.459893,-0.994374,-1.136587,2.334186,0.156379,-0.169910,-1.254013,0.779873,-1.040143,-0.532544,1.207055,0.607356,9.996182,2.634574,3.002099,0.071281,0.115065,0.000000,0.113478,0.054680,-0.000000
2.930000,0.483172,-0.992771,-1.138338,2.321621,0.164239,-0.180280,-1.258840,0.792071,-1.033913,-0.433245,1.231955,0.639503,9.861543,2.343381,3.429536,0.072429,0.115570,0.000000,0.116129,0.046056,-0.000000
2.940000,0.506325,-0.991089,-1.140192,2.309013,0.172221,-0.190587,-1.262682,0.804503,-1.027341,-0.335303,1.254081,0.675132,9.727306,2.089744,3.655676,0.073602,0.115989,0.000000,0.118566,0.037584,0.000000
2.950000,0.529352,-0.989326,-1.142149,2.296371,0.180329,-0.200826,-1.265551,0.817144,-1.020403,-0.238763,1.273635,0.712987,9.576316,1.810002,3.957370,0.074799,0.116324,0.000000,0.120801,0.029256,0.000000
2.960000,0.552252,-0.987482,-1.144209,2.283705,0.188565,-0.210994,-1.267463,0.829966,-1.013069,-0.143879,1.290174,0.754324,9.411220,1.518413,4.265238,0.076018,0.116577,0.000000,0.122804,0.021104,0.000000
2.970000,0.575026,-0.985555,-1.146369,2.271025,0.196929,-0.221086,-1.268433,0.842939,-1.005310,-0.050464,1.304174,0.797885,9.256934,1.258321,4.491225,0.077255,0.116748,0.000000,0.124610,0.013098,-0.000000
2.980000,0.597673,-0.983543,-1.148630,2.258339,0.205424,-0.231098,-1.268479,0.856038,-0.997099,0.040952,1.314854,0.845076,9.023570,0.875258,4.948608,0.078509,0.116840,0.000000,0.126158,0.005299,0.000000
2.990000,0.620193,-0.981446,-1.150991,2.245658,0.214050,-0.241026,-1.267622,0.869225,-0.988396,0.130213,1.322082,0.895970,8.838975,0.590399,5.185752,0.079777,0.116855,0.000000,0.127439,-0.002280,-0.000000
3.000000,0.642586,-0.979262,-1.153450,2.232990,0.222809,-0.250865,-1.265881,0.882470,-0.979173,0.217575,1.326446,0.949165,8.618499,0.258723,5.497281,0.081057,0.116795,0.000000,0.128496,-0.009679,-0.000000
3.010000,0.664853,-0.976989,-1.156008,2.220343,0.231700,-0.260608,-1.263279,0.895741,-0.969401,0.302410,1.327147,1.005846,8.380281,-0.085619,5.807483,0.082346,0.116662,0.000000,0.129266,-0.016830,0.000000
3.020000,0.686993,-0.974627,-1.158662,2.207727,0.240723,-0.270251,-1.259838,0.909004,-0.959048,0.385447,1.325019,1.065018,8.191351,-0.375199,6.056382,0.083642,0.116458,0.000000,0.129819,-0.023812,-0.000000
3.030000,0.709007,-0.972174,-1.161412,2.195149,0.249880,-0.279787,-1.255580,0.922228,-0.948089,0.465485,1.318905,1.127590,7.812622,-0.850268,6.458169,0.084941,0.116185,0.000000,0.130056,-0.030508,-0.000000
3.040000,0.730896,-0.969629,-1.164257,2.182618,0.259168,-0.289210,-1.250539,0.935369,-0.936485,0.542323,1.308661,1.193552,7.586121,-1.166188,6.702716,0.086242,0.115846,0.000000,0.129963,-0.036902,0.000000
3.050000,0.752660,-0.966990,-1.167196,2.170141,0.268587,-0.298514,-1.244741,0.948391,-0.924210,0.616869,1.295259,1.261880,7.286865,-1.549244,6.991620,0.087540,0.115445,0.000000,0.129622,-0.043088,-0.000000
3.060000,0.774299,-0.964257,-1.170227,2.157726,0.278135,-0.307692,-1.238214,0.961259,-0.911237,0.687890,1.277567,1.333302,6.968099,-1.944394,7.272006,0.088833,0.114982,0.000000,0.128935,-0.048950,0.000000
3.070000,0.795815,-0.961427,-1.173349,2.145379,0.287811,-0.316737,-1.230989,0.973933,-0.897537,0.756670,1.256767,1.407109,6.733481,-2.261965,7.506207,0.090118,0.114462,0.000000,0.128003,-0.054612,0.000000
3.080000,0.817207,-0.958500,-1.176562,2.133108,0.297613,-0.325640,-1.223094,0.986379,-0.883085,0.821419,1.231358,1.483781,6.212046,-2.822729,7.826886,0.091392,0.113887,0.000000,0.126692,-0.059908,0.000000
3.090000,0.838477,-0.955475,-1.179862,2.120919,0.307538,-0.334396,-1.214576,0.998544,-0.867852,0.881908,1.201193,1.563224,5.935422,-3.166137,8.040425,0.092650,0.113260,0.000000,0.124985,-0.064818,-0.000000
3.100000,0.859626,-0.952349,-1.183249,2.108818,0.317583,-0.342995,-1.205465,1.010392,-0.851814,0.939631,1.167624,1.644705,5.554577,-3.594026,8.271816,0.093891,0.112586,0.000000,0.123000,-0.069489,-0.000000
3.110000,0.880654,-0.949123,-1.186721,2.096812,0.327744,-0.351429,-1.195799,1.021880,-0.834949,0.992838,1.129220,1.728519,5.154036,-4.032348,8.486280,0.095109,0.111866,0.000000,0.120604,-0.073758,0.000000
3.120000,0.901562,-0.945794,-1.190277,2.084904,0.338019,-0.359691,-1.185616,1.032966,-0.817237,1.043303,1.087469,1.814354,4.868894,-4.372966,8.679617,0.096302,0.111104,0.000000,0.117932,-0.077791,0.000000
3.130000,0.922352,-0.942362,-1.193914,2.073101,0.348402,-0.367771,-1.174950,1.043612,-0.798656,1.088747,1.040605,1.902091,4.215357,-5.002345,8.864588,0.097466,0.110304,0.000000,0.114813,-0.081379,-0.000000
3.140000,0.943025,-0.938825,-1.197632,2.061407,0.358890,-0.375661,-1.163859,1.053760,-0.779189,1.128932,0.988499,1.991538,3.887543,-5.365089,9.019415,0.098596,0.109471,0.000000,0.111230,-0.084502,-0.000000
3.150000,0.963581,-0.935184,-1.201427,2.049825,0.369476,-0.383352,-1.152381,1.063371,-0.758821,1.165872,0.932825,2.082424,3.430157,-5.824768,9.156073,0.099690,0.108607,0.000000,0.107333,-0.087349,-0.000000
3.160000,0.984021,-0.931436,-1.205298,2.038360,0.380155,-0.390834,-1.140560,1.072399,-0.737537,1.197410,0.871929,2.174430,2.955648,-6.291761,9.266454,0.100741,0.107717,0.000000,0.102960,-0.089721,-0.000000
3.170000,1.004348,-0.927580,-1.209243,2.027015,0.390922,-0.398100,-1.128442,1.080799,-0.715327,1.225692,0.807558,2.267900,2.620170,-6.643795,9.399227,0.101748,0.106804,0.000000,0.098273,-0.091812,-0.000000
3.180000,1.024562,-0.923617,-1.213259,2.015792,0.401769,-0.405138,-1.116067,1.088531,-0.692178,1.248123,0.737768,2.361820,1.861774,-7.316344,9.379525,0.102705,0.105873,0.000000,0.093074,-0.093390,0.000000
3.190000,1.044665,-0.919545,-1.217345,2.004694,0.412690,-0.411940,-1.103501,1.095535,-0.668090,1.264484,0.662462,2.455890,1.488094,-7.683247,9.454366,0.103608,0.104928,0.000000,0.087342,-0.094433,-0.000000
3.200000,1.064656,-0.915363,-1.221497,1.993723,0.423677,-0.418497,-1.090788,1.101770,-0.643057,1.277177,0.583582,2.550607,0.970052,-8.153986,9.459482,0.104451,0.103975,0.000000,0.081261,-0.095157,0.000000
3.210000,1.084539,-0.911071,-1.225714,1.982879,0.434722,-0.424798,-1.077978,1.107188,-0.617080,1.283842,0.499277,2.644765,0.439825,-8.627931,9.429506,0.105231,0.103017,0.000000,0.074633,-0.095348,0.000000
3.220000,1.104314,-0.906668,-1.229992,1.972163,0.445818,-0.430835,-1.065122,1.111746,-0.590159,1.286669,0.411758,2.739669,0.048452,-8.951698,9.485530,0.105943,0.102058,0.000000,0.067676,-0.095197,0.000000
3.230000,1.123983,-0.902154,-1.234330,1.961576,0.456954,-0.436598,-1.052266,1.115404,-0.562292,1.283197,0.318653,2.833097,-0.746155,-9.670673,9.192929,0.106582,0.101104,0.000000,0.060131,-0.094487,0.000000
3.240000,1.143546,-0.897529,-1.238723,1.951118,0.468123,-0.442078,-1.039481,1.118100,-0.533503,1.273265,0.219909,2.924644,-1.164218,-10.000026,9.171986,0.107143,0.100160,0.000000,0.051977,-0.093198,-0.000000
3.250000,1.163006,-0.892792,-1.243170,1.940786,0.479313,-0.447265,-1.026813,1.119793,-0.503799,1.259248,0.118023,3.015904,-1.715895,-10.452771,9.013532,0.107621,0.099230,0.000000,0.043462,-0.091536,-0.000000
3.260000,1.182363,-0.887943,-1.247668,1.930581,0.490515,-0.452151,-1.014319,1.120445,-0.473196,1.238666,0.011600,3.104247,-2.278261,-10.885698,8.807033,0.108011,0.098320,0.000000,0.034412,-0.089282,0.000000
3.270000,1.201618,-0.882982,-1.252212,1.920499,0.501718,-0.456726,-1.002049,1.120006,-0.441709,1.214807,-0.100169,3.193381,-2.612152,-11.412553,8.860747,0.108307,0.097435,0.000000,0.024779,-0.086707,0.000000
3.280000,1.220773,-0.877908,-1.256801,1.910539,0.512911,-0.460982,-0.990047,1.118430,-0.409344,1.183935,-0.215480,3.278129,-3.565560,-11.645886,8.078300,0.108505,0.096578,0.000000,0.014668,-0.083493,0.000000
3.290000,1.239829,-0.872723,-1.261431,1.900697,0.524083,-0.464910,-0.978395,1.115686,-0.376164,1.145910,-0.334138,3.357927,-3.918968,-12.137943,8.030066,0.108599,0.095758,0.000000,0.004079,-0.079622,0.000000
3.300000,1.258787,-0.867427,-1.266098,1.890970,0.535221,-0.468503,-0.967138,1.111730,-0.342185,1.104558,-0.457731,3.437295,-4.470005,-12.524056,7.683964,0.108584,0.094977,0.000000,-0.007102,-0.075411,0.000000
3.310000,1.277649,-0.862019,-1.270800,1.881353,0.546313,-0.471751,-0.956324,1.106515,-0.307434,1.057293,-0.586052,3.512206,-5.003559,-12.922534,7.310425,0.108455,0.094242,0.000000,-0.018915,-0.070637,-0.000000
3.320000,1.296415,-0.856501,-1.275532,1.871842,0.557347,-0.474649,-0.946011,1.100013,-0.271952,1.004315,-0.714147,3.583554,-5.568961,-12.902117,6.935528,0.108206,0.093558,0.000000,-0.030879,-0.065301,0.000000
3.330000,1.315086,-0.850872,-1.280292,1.862431,0.568309,-0.477188,-0.936254,1.092210,-0.235778,0.946401,-0.848412,3.650426,-6.011168,-13.954011,6.432493,0.107834,0.092930,0.000000,-0.043638,-0.059475,-0.000000
3.340000,1.333664,-0.845135,-1.285075,1.853115,0.579187,-0.479362,-0.927099,1.083022,-0.198960,0.883702,-0.988936,3.712443,-6.547808,-13.936298,5.982862,0.107330,0.092363,0.000000,-0.057222,-0.053168,-0.000000
3.350000,1.352149,-0.839289,-1.289878,1.843887,0.589965,-0.481165,-0.918598,1.072437,-0.161544,0.815675,-1.128849,3.769810,-7.033098,-14.252139,5.467100,0.106690,0.091863,0.000000,-0.070968,-0.046313,0.000000
3.360000,1.370542,-0.833336,-1.294697,1.834740,0.600631,-0.482591,-0.910801,1.060433,-0.123588,0.742891,-1.272210,3.820392,-7.504740,-14.517224,4.889836,0.105909,0.091433,0.000000,-0.085306,-0.038974,-0.000000
3.370000,1.388844,-0.827277,-1.299528,1.825668,0.611169,-0.483635,-0.903754,1.046976,-0.085136,0.665791,-1.420037,3.869759,-7.927532,-14.944519,4.738742,0.104981,0.091080,0.000000,-0.100292,-0.031133,-0.000000
3.380000,1.407055,-0.821113,-1.304368,1.816663,0.621565,-0.484292,-0.897501,1.032030,-0.046225,0.584079,-1.568928,3.910035,-8.411973,-14.825581,3.303387,0.103901,0.090809,0.000000,-0.115682,-0.022822,-0.000000
3.390000,1.425177,-0.814846,-1.309213,1.807715,0.631805,-0.484559,-0.892088,1.015596,-0.006970,0.497944,-1.718440,3.940557,-8.795167,-15.171019,3.037123,0.102666,0.090623,0.000000,-0.131446,-0.014055,-0.000000
3.400000,1.443210,-0.808478,-1.314058,1.798818,0.641872,-0.484431,-0.887554,0.997648,0.032582,0.408121,-1.871391,3.968624,-9.181030,-15.314105,2.330568,0.101270,0.090528,0.000000,-0.147798,-0.004831,-0.000000
3.410000,1.461154,-0.802009,-1.318900,1.789961,0.651752,-0.483906,-0.883940,0.978171,0.072367,0.314117,-2.024013,3.986862,-9.546738,-15.406400,1.580670,0.099710,0.090527,0.000000,-0.164442,0.004844,-0.000000
3.420000,1.479009,-0.795443,-1.323735,1.781136,0.661430,-0.482983,-0.881278,0.957149,0.112316,0.217920,-2.181259,4.002622,-9.754846,-15.840698,1.306194,0.097979,0.090626,0.000000,-0.181810,0.014842,0.000000
3.430000,1.496776,-0.788781,-1.328558,1.772332,0.670890,-0.481660,-0.879595,0.934554,0.152381,0.117713,-2.336587,4.007429,-10.283402,-15.212542,-0.356877,0.096073,0.090827,0.000000,-0.199328,0.025276,-0.000000
3.440000,1.514456,-0.782026,-1.333367,1.763541,0.680116,-0.479935,-0.878937,0.910427,0.192424,0.013721,-2.489353,4.000688,-10.441586,-15.532345,-0.731346,0.093992,0.091135,0.000000,-0.216930,0.036126,0.000000
3.450000,1.532047,-0.775180,-1.338156,1.754750,0.689094,-0.477811,-0.879324,0.884752,0.232388,-0.091578,-2.645426,3.990501,-10.679447,-15.478496,-1.571373,0.091732,0.091554,0.000000,-0.235136,0.047215,-0.000000
3.460000,1.549551,-0.768245,-1.342921,1.745951,0.697806,-0.475288,-0.880768,0.857522,0.272196,-0.197407,-2.800451,3.969678,-10.836224,-15.410661,-2.429002,0.089289,0.092084,0.000000,-0.253563,0.058398,0.000000
3.470000,1.566966,-0.761225,-1.347660,1.737131,0.706239,-0.472368,-0.883305,0.828755,0.311766,-0.311451,-2.952503,3.943410,-11.620565,-15.098985,-2.988077,0.086661,0.092730,0.000000,-0.271962,0.070522,-0.000000
3.480000,1.584293,-0.754121,-1.352368,1.728281,0.714376,-0.469054,-0.886985,0.798472,0.351028,-0.422433,-3.104519,3.906496,-10.558576,-15.300573,-4.401011,0.083848,0.093498,0.000000,-0.290663,0.082369,-0.000000
3.490000,1.601532,-0.746938,-1.357040,1.719388,0.722203,-0.465349,-0.891738,0.766665,0.389858,-0.529482,-3.256230,3.858638,-11.193407,-14.927711,-5.008140,0.080847,0.094382,0.000000,-0.309629,0.093832,0.000000
3.500000,1.618681,-0.739678,-1.361673,1.710442,0.729705,-0.461258,-0.897603,0.733363,0.428184,-0.643206,-3.403836,3.804939,-11.197107,-14.692728,-5.893949,0.077657,0.095384,0.000000,-0.328408,0.106067,0.000000
3.510000,1.635740,-0.732345,-1.366264,1.701432,0.736866,-0.456787,-0.904592,0.698599,0.465923,-0.754512,-3.548199,3.741417,-11.170843,-14.382995,-6.771779,0.074279,0.096508,0.000000,-0.347094,0.118074,-0.000000
3.520000,1.652709,-0.724942,-1.370808,1.692347,0.743672,-0.451942,-0.912700,0.662393,0.502986,-0.867534,-3.693285,3.669870,-11.316985,-14.422160,-7.573319,0.070713,0.097753,0.000000,-0.366075,0.130299,0.000000
3.530000,1.669587,-0.717473,-1.375301,1.683174,0.750109,-0.446730,-0.921934,0.624756,0.539290,-0.978411,-3.832197,3.589209,-10.848541,-13.346283,-8.558079,0.066959,0.099120,0.000000,-0.384596,0.142309,0.000000
3.540000,1.686372,-0.709941,-1.379741,1.673904,0.756162,-0.441159,-0.932259,0.585773,0.574740,-1.086599,-3.964195,3.499495,-10.893520,-13.252161,-9.345112,0.063024,0.100605,0.000000,-0.402542,0.154030,-0.000000
3.550000,1.703065,-0.702351,-1.384123,1.664525,0.761820,-0.435239,-0.943670,0.545471,0.609255,-1.195207,-4.095337,3.402046,-10.711099,-12.762520,-10.178537,0.058908,0.102207,0.000000,-0.420521,0.165792,0.000000
3.560000,1.719662,-0.694706,-1.388445,1.655027,0.767068,-0.428978,-0.956153,0.503893,0.642755,-1.301030,-4.219172,3.296875,-10.492269,-12.216169,-10.975542,0.054616,0.103925,0.000000,-0.437803,0.177236,-0.000000
3.570000,1.736165,-0.687011,-1.392702,1.645399,0.771894,-0.422387,-0.969686,0.461089,0.675156,-1.405339,-4.341527,3.181478,-10.319436,-12.034831,-11.979808,0.050152,0.105756,0.000000,-0.454993,0.188451,-0.000000
3.580000,1.752570,-0.679270,-1.396891,1.635630,0.776285,-0.415478,-0.984248,0.417093,0.706365,-1.506376,-4.455257,3.059884,-9.880302,-10.697267,-12.330439,0.045519,0.107698,0.000000,-0.471252,0.199271,0.000000
3.590000,1.768877,-0.671487,-1.401010,1.625711,0.780232,-0.408264,-0.999801,0.372017,0.736335,-1.603705,-4.559632,2.932545,-9.623499,-10.385229,-13.253077,0.040730,0.109744,0.000000,-0.486453,0.209633,0.000000
3.600000,1.785084,-0.663667,-1.405056,1.615631,0.783722,-0.400756,-1.016314,0.325907,0.764983,-1.698343,-4.661000,2.795956,-9.254574,-9.667416,-13.937991,0.035791,0.111892,0.000000,-0.501262,0.219584,-0.000000
3.610000,1.801189,-0.655814,-1.409025,1.605381,0.786747,-0.392969,-1.033747,0.278831,0.792234,-1.787419,-4.752796,2.653152,-8.822848,-8.899089,-14.596586,0.030709,0.114136,0.000000,-0.514901,0.228822,0.000000
3.620000,1.817191,-0.647933,-1.412914,1.594953,0.789296,-0.384916,-1.052069,0.230860,0.818026,-1.877152,-4.840821,2.504339,-8.857896,-8.492072,-15.178643,0.025495,0.116471,0.000000,-0.527967,0.238008,-0.000000
3.630000,1.833087,-0.640030,-1.416722,1.584337,0.791361,-0.376613,-1.071262,0.182052,0.842300,-1.959002,-4.918158,2.349313,-7.498648,-6.962913,-15.819812,0.020155,0.118894,0.000000,-0.539651,0.246182,-0.000000
3.640000,1.848877,-0.632108,-1.420446,1.573525,0.792935,-0.368076,-1.091219,0.132536,0.864993,-2.032286,-4.984163,2.188486,-7.415763,-6.442028,-16.318022,0.014707,0.121392,0.000000,-0.549837,0.253248,-0.000000
3.650000,1.864557,-0.624173,-1.424083,1.562510,0.794010,-0.359319,-1.111911,0.082382,0.886055,-2.104988,-5.045112,2.022948,-6.858133,-5.533733,-16.800846,0.009160,0.123960,0.000000,-0.559181,0.260077,0.000000
3.660000,1.880126,-0.616229,-1.427631,1.551285,0.794580,-0.350360,-1.133292,0.031675,0.905441,-2.170380,-5.094469,1.853845,-6.282950,-4.581272,-17.208313,0.003529,0.126590,0.000000,-0.566919,0.265926,0.000000
3.670000,1.895582,-0.608283,-1.431089,1.539842,0.794642,-0.341216,-1.155304,-0.019496,0.923103,-2.231188,-5.138927,1.677154,-5.809030,-4.065838,-17.929741,-0.002175,0.129276,0.000000,-0.573765,0.271018,0.000000
3.680000,1.910922,-0.600338,-1.434455,1.528177,0.794189,-0.331904,-1.177893,-0.071059,0.938982,-2.285108,-5.170657,1.499448,-4.969378,-2.269000,-17.595757,-0.007940,0.132008,0.000000,-0.578815,0.275176,-0.000000
3.690000,1.926145,-0.592401,-1.437727,1.516283,0.793220,-0.322442,-1.200982,-0.122863,0.953093,-2.331834,-5.189107,1.321572,-4.438777,-1.660721,-18.162352,-0.013745,0.134776,0.000000,-0.581992,0.278367,0.000000
3.700000,1.941247,-0.584476,-1.440904,1.504156,0.791731,-0.312848,-1.224513,-0.174826,0.965392,-2.373259,-5.201754,1.138038,-3.777483,-0.624330,-18.341498,-0.019577,0.137573,0.000000,-0.584105,0.280707,-0.000000
3.710000,1.956227,-0.576568,-1.443984,1.491791,0.789723,-0.303140,-1.248421,-0.226854,0.975863,-2.407272,-5.202017,0.956340,-3.096406,0.425572,-18.422205,-0.025421,0.140388,0.000000,-0.584422,0.282069,-0.000000
3.720000,1.971082,-0.568683,-1.446966,1.479186,0.787194,-0.293337,-1.272641,-0.278843,0.984482,-2.435820,-5.194576,0.765806,-2.539717,1.207210,-19.252499,-0.031261,0.143213,0.000000,-0.583429,0.282495,0.000000
3.730000,1.985810,-0.560826,-1.449850,1.466338,0.784146,-0.283457,-1.297111,-0.330704,0.991199,-2.456529,-5.174842,0.580354,-1.598116,2.744587,-17.814116,-0.037084,0.146038,0.000000,-0.580653,0.281938,-0.000000
3.740000,2.000408,-0.553002,-1.452635,1.453243,0.780581,-0.273519,-1.321745,-0.382297,0.996113,-2.469202,-5.142590,0.401203,-1.007574,3.560421,-18.431391,-0.042869,0.148852,0.000000,-0.576100,0.280406,-0.000000
3.750000,2.014874,-0.545216,-1.455320,1.439902,0.776502,-0.263541,-1.346477,-0.433532,0.999194,-2.476049,-5.102416,0.215553,-0.289075,4.618001,-18.264038,-0.048602,0.151648,0.000000,-0.570235,0.277936,0.000000
3.760000,2.029205,-0.537473,-1.457906,1.426314,0.771912,-0.253541,-1.371238,-0.484310,1.000449,-2.474981,-5.051570,0.035919,0.435244,5.647179,-18.021162,-0.054268,0.154415,0.000000,-0.562833,0.274512,0.000000
3.770000,2.043400,-0.529779,-1.460391,1.412478,0.766817,-0.243538,-1.395958,-0.534521,0.999892,-2.467968,-4.988613,-0.148060,1.032824,6.846896,-18.407045,-0.059852,0.157143,0.000000,-0.553695,0.270186,0.000000
3.780000,2.057454,-0.522139,-1.462777,1.398395,0.761224,-0.233550,-1.420571,-0.584053,0.997515,-2.452953,-4.916678,-0.324519,1.971466,7.534309,-16.864084,-0.065338,0.159825,0.000000,-0.543275,0.264948,-0.000000
3.790000,2.071367,-0.514556,-1.465062,1.384067,0.755139,-0.223593,-1.444990,-0.632826,0.993433,-2.429889,-4.836074,-0.492387,2.573789,8.678606,-17.061295,-0.070714,0.162451,0.000000,-0.531664,0.258833,0.000000
3.800000,2.085135,-0.507037,-1.467249,1.369496,0.748570,-0.213687,-1.469150,-0.680734,0.987654,-2.400944,-4.743997,-0.662503,3.279731,9.637077,-16.592605,-0.075966,0.165012,0.000000,-0.518500,0.251904,-0.000000
3.810000,2.098756,-0.499587,-1.469336,1.354685,0.741527,-0.203846,-1.492987,-0.727673,0.980212,-2.365358,-4.642133,-0.824889,3.956273,10.589970,-16.073286,-0.081080,0.167501,0.000000,-0.504091,0.244276,-0.000000
3.820000,2.112228,-0.492208,-1.471326,1.339638,0.734020,-0.194088,-1.516425,-0.773557,0.971158,-2.320752,-4.533598,-0.985619,4.844910,11.248131,-15.873585,-0.086045,0.169910,0.000000,-0.488777,0.235597,0.000000
3.830000,2.125548,-0.484908,-1.473218,1.324358,0.726060,-0.184428,-1.539385,-0.818309,0.960528,-2.270984,-4.414421,-1.138196,5.102076,12.585138,-14.628525,-0.090851,0.172229,0.000000,-0.472215,0.226433,0.000000
3.840000,2.138714,-0.477689,-1.475015,1.308852,0.717658,-0.174882,-1.561829,-0.861810,0.948425,-2.216397,-4.284793,-1.281914,5.930472,13.195403,-14.301199,-0.095485,0.174456,0.000000,-0.454484,0.216858,0.000000
3.850000,2.151724,-0.470556,-1.476716,1.293123,0.708828,-0.165464,-1.583683,-0.903988,0.934897,-2.153449,-4.149492,-1.422448,6.536716,13.994705,-13.607228,-0.099939,0.176583,0.000000,-0.436105,0.206400,-0.000000
3.860000,2.164576,-0.463514,-1.478325,1.277180,0.699583,-0.156189,-1.604882,-0.944783,0.920007,-2.085428,-4.008527,-1.554196,7.120412,14.681912,-12.874432,-0.104206,0.178603,0.000000,-0.417172,0.195547,-0.000000
3.870000,2.177267,-0.456566,-1.479841,1.261028,0.689938,-0.147068,-1.625368,-0.984097,0.903827,-2.010601,-3.851497,-1.681095,7.785138,16.237745,-12.366802,-0.108276,0.180513,0.000000,-0.396550,0.184055,-0.000000
3.880000,2.189796,-0.449716,-1.481266,1.244675,0.679907,-0.138116,-1.645079,-1.021815,0.886418,-1.930980,-3.693978,-1.798632,8.132529,15.242082,-11.131910,-0.112137,0.182305,0.000000,-0.376032,0.172253,-0.000000
3.890000,2.202160,-0.442969,-1.482604,1.228129,0.669506,-0.129344,-1.663974,-1.057982,0.867888,-1.846930,-3.537181,-1.906354,8.728255,16.590063,-10.543452,-0.115798,0.183979,0.000000,-0.355786,0.160207,-0.000000
3.900000,2.214358,-0.436327,-1.483854,1.211399,0.658753,-0.120762,-1.681997,-1.092503,0.848308,-1.756996,-3.366462,-2.008286,9.197281,17.063425,-9.705271,-0.119248,0.185529,0.000000,-0.334210,0.147700,-0.000000
3.910000,2.226387,-0.429795,-1.485019,1.194492,0.647662,-0.112381,-1.699106,-1.125317,0.827755,-1.664184,-3.195839,-2.100722,9.609330,17.463313,-8.851958,-0.122483,0.186954,0.000000,-0.312893,0.135142,-0.000000
3.920000,2.238247,-0.423375,-1.486102,1.177420,0.636252,-0.104210,-1.715247,-1.156374,0.806316,-1.562610,-3.013606,-2.185968,10.456016,18.574179,-8.123706,-0.125501,0.188249,0.000000,-0.290586,0.121876,-0.000000
3.930000,2.249935,-0.417071,-1.487104,1.160191,0.624541,-0.096257,-1.730357,-1.185597,0.784068,-1.460300,-2.832935,-2.261662,9.992384,17.537806,-7.011873,-0.128297,0.189411,0.000000,-0.268741,0.108818,0.000000
3.940000,2.261450,-0.410885,-1.488028,1.142816,0.612546,-0.088531,-1.744455,-1.213045,0.761115,-1.357951,-2.654965,-2.327643,10.717283,18.449502,-6.256408,-0.130879,0.190445,0.000000,-0.247492,0.096050,0.000000
3.950000,2.272791,-0.404821,-1.488876,1.125305,0.600286,-0.081037,-1.757487,-1.238658,0.737539,-1.248170,-2.467561,-2.386177,10.987970,18.619882,-5.378416,-0.133244,0.191347,0.000000,-0.225546,0.082754,0.000000
3.960000,2.283956,-0.398880,-1.489650,1.107670,0.587779,-0.073782,-1.769422,-1.262403,0.713422,-1.138637,-2.281311,-2.435791,11.205072,18.745114,-4.513080,-0.135391,0.192116,0.000000,-0.204045,0.069778,0.000000
3.970000,2.294944,-0.393066,-1.490352,1.089921,0.575044,-0.066770,-1.780229,-1.284271,0.688854,-1.021498,-2.091702,-2.476169,11.932701,19.046734,-3.595736,-0.137324,0.192753,0.000000,-0.182542,0.056306,0.000000
3.980000,2.305754,-0.387380,-1.490986,1.072069,0.562100,-0.060006,-1.789860,-1.304242,0.663925,-0.906063,-1.903094,-2.508409,11.139477,18.661929,-2.855831,-0.139044,0.193255,0.000000,-0.161463,0.043298,0.000000
3.990000,2.316385,-0.381825,-1.491553,1.054127,0.548965,-0.053493,-1.798361,-1.322340,0.638712,-0.793082,-1.716203,-2.532705,11.737566,18.829152,-1.974702,-0.140555,0.193629,0.000000,-0.140874,0.030820,-0.000000
4.000000,2.326836,-0.376401,-1.492057,1.036106,0.535659,-0.047232,-1.805696,-1.338558,0.613301,-0.673859,-1.527724,-2.548238,11.815679,18.736565,-1.167967,-0.141861,0.193876,0.000000,-0.120465,0.017986,0.000000
4.010000,2.337107,-0.371112,-1.492499,1.018017,0.522201,-0.041227,-1.811843,-1.352911,0.587765,-0.555523,-1.343240,-2.557826,11.875732,18.555289,-0.420942,-0.142967,0.193994,0.000000,-0.100751,0.005477,-0.000000
4.020000,2.347196,-0.365958,-1.492882,0.999873,0.508607,-0.035477,-1.816802,-1.365397,0.562196,-0.436180,-1.153069,-2.553683,11.959040,19.079331,0.921512,-0.143875,0.193987,0.000000,-0.080838,-0.006750,-0.000000
4.030000,2.357104,-0.360940,-1.493209,0.981685,0.494899,-0.029983,-1.820568,-1.375999,0.536700,-0.317047,-0.970030,-2.546284,11.861566,17.508671,0.543122,-0.144587,0.193858,0.000000,-0.061896,-0.018788,-0.000000
4.040000,2.366830,-0.356060,-1.493483,0.963466,0.481093,-0.024743,-1.823145,-1.384828,0.511276,-0.198468,-0.795118,-2.536389,11.878190,17.862154,1.756515,-0.145117,0.193608,0.000000,-0.043994,-0.030621,0.000000
4.050000,2.376374,-0.351319,-1.493705,0.945226,0.467208,-0.019757,-1.824536,-1.391881,0.486020,-0.079830,-0.616277,-2.514039,11.816446,17.505390,2.382121,-0.145466,0.193240,0.000000,-0.026026,-0.042121,0.000000
4.060000,2.385735,-0.346716,-1.493878,0.926979,0.453262,-0.015022,-1.824747,-1.397173,0.461000,0.037420,-0.442748,-2.489145,11.718990,17.142762,2.952150,-0.145640,0.192758,0.000000,-0.008783,-0.053344,0.000000
4.070000,2.394913,-0.342253,-1.494006,0.908735,0.439271,-0.010536,-1.823784,-1.400753,0.436284,0.155289,-0.274011,-2.451794,11.763203,16.649579,4.161068,-0.145645,0.192163,0.000000,0.007653,-0.064308,0.000000
4.080000,2.403909,-0.337931,-1.494090,0.890507,0.425252,-0.006295,-1.821650,-1.402665,0.411965,0.270769,-0.108803,-2.413416,11.326020,16.388665,3.497123,-0.145488,0.191459,0.000000,0.023604,-0.074942,-0.000000
4.090000,2.412723,-0.333748,-1.494133,0.872306,0.411223,-0.002295,-1.818379,-1.402941,0.388014,0.383496,0.052652,-2.374881,11.303674,15.847195,4.557714,-0.145174,0.190649,0.000000,0.039073,-0.085233,-0.000000
4.100000,2.421356,-0.329706,-1.494137,0.854143,0.397199,0.001467,-1.813979,-1.401631,0.364510,0.496021,0.208488,-2.325398,11.109903,15.366766,4.979480,-0.144710,0.189737,0.000000,0.053719,-0.095239,0.000000
4.110000,2.429806,-0.325804,-1.494104,0.836030,0.383195,0.004997,-1.808467,-1.398785,0.341507,0.606081,0.360062,-2.274641,10.900861,14.868882,5.362969,-0.144102,0.188725,0.000000,0.067845,-0.104928,-0.000000
4.120000,2.438076,-0.322042,-1.494038,0.817978,0.369228,0.008299,-1.801865,-1.394453,0.319045,0.713981,0.505098,-2.216457,10.675015,14.209032,6.076612,-0.143356,0.187618,0.000000,0.081141,-0.114221,-0.000000
4.130000,2.446166,-0.318420,-1.493939,0.799996,0.355311,0.011380,-1.794195,-1.388697,0.297180,0.819502,0.645736,-2.157242,10.426299,13.918192,5.754300,-0.142480,0.186418,0.000000,0.093934,-0.123228,-0.000000
4.140000,2.454077,-0.314936,-1.493811,0.782097,0.341458,0.014245,-1.785483,-1.381553,0.275900,0.922474,0.781918,-2.097632,10.166754,13.241376,6.354266,-0.141479,0.185129,0.000000,0.106238,-0.131952,0.000000
4.150000,2.461808,-0.311590,-1.493655,0.764290,0.327684,0.016900,-1.775755,-1.373083,0.255251,1.022779,0.911155,-2.031917,9.890867,12.678527,6.591091,-0.140358,0.183754,0.000000,0.117732,-0.140280,-0.000000
4.160000,2.469363,-0.308382,-1.493473,0.746585,0.314001,0.019352,-1.765036,-1.363345,0.235262,1.120533,1.035449,-1.965592,9.607588,12.108551,6.791376,-0.139126,0.182296,0.000000,0.128708,-0.148337,-0.000000
4.170000,2.476740,-0.305310,-1.493268,0.728993,0.300421,0.021607,-1.753358,-1.352399,0.215955,1.214428,1.152655,-1.895068,9.218351,11.399544,7.188264,-0.137787,0.180760,0.000000,0.138915,-0.155930,0.000000
4.180000,2.483943,-0.302373,-1.493042,0.711521,0.286957,0.023673,-1.740755,-1.340309,0.197360,1.305891,1.264848,-1.824451,9.074214,11.040411,6.925978,-0.136349,0.179149,0.000000,0.148623,-0.163287,-0.000000
4.190000,2.490971,-0.299570,-1.492796,0.694181,0.273619,0.025557,-1.727248,-1.327118,0.179464,1.394892,1.372074,-1.754231,8.675121,10.335789,7.233704,-0.134816,0.177464,0.000000,0.157853,-0.170417,-0.000000
4.200000,2.497827,-0.296900,-1.492531,0.676979,0.260418,0.027265,-1.712872,-1.312892,0.162288,1.479790,1.472141,-1.680906,8.351942,9.745821,7.306065,-0.133195,0.175711,0.000000,0.166348,-0.177100,0.000000
4.210000,2.504511,-0.294361,-1.492251,0.659926,0.247364,0.028805,-1.697661,-1.297691,0.145843,1.561815,1.567245,-1.607979,8.021861,9.163974,7.349114,-0.131491,0.173892,0.000000,0.174379,-0.183527,-0.000000
4.220000,2.511026,-0.291952,-1.491956,0.643029,0.234467,0.030184,-1.681649,-1.281576,0.130135,1.639929,1.654404,-1.533329,7.629437,8.376116,7.504212,-0.129710,0.172010,0.000000,0.181630,-0.189560,0.000000
4.230000,2.517373,-0.289672,-1.491648,0.626295,0.221736,0.031410,-1.664873,-1.264617,0.115174,1.715004,1.737043,-1.459498,7.385779,8.155756,7.255590,-0.127859,0.170069,0.000000,0.188478,-0.195336,0.000000
4.240000,2.523553,-0.287517,-1.491328,0.609734,0.209178,0.032490,-1.647359,-1.246848,0.100941,1.787040,1.815353,-1.386835,6.991174,7.398376,7.346102,-0.125941,0.168072,0.000000,0.194951,-0.200863,-0.000000
4.250000,2.529568,-0.285487,-1.490998,0.593351,0.196801,0.033431,-1.629146,-1.228337,0.087441,1.855064,1.885956,-1.313264,6.643678,6.831894,7.291178,-0.123963,0.166021,0.000000,0.200690,-0.206011,-0.000000
4.260000,2.535420,-0.283581,-1.490660,0.577153,0.184613,0.034241,-1.610268,-1.209143,0.074672,1.919993,1.952041,-1.240638,6.297833,6.278101,7.221217,-0.121929,0.163920,0.000000,0.206039,-0.210907,0.000000
4.270000,2.541112,-0.281795,-1.490314,0.561147,0.172620,0.034927,-1.590761,-1.189324,0.062625,1.980614,2.010549,-1.168989,5.868971,5.530131,7.114682,-0.119845,0.161773,0.000000,0.210695,-0.215431,-0.000000
4.280000,2.546644,-0.280127,-1.489962,0.545340,0.160828,0.035496,-1.570665,-1.168945,0.051290,2.038269,2.064886,-1.098207,5.663521,5.342342,7.039323,-0.117716,0.159581,0.000000,0.214996,-0.219717,-0.000000
4.290000,2.552019,-0.278577,-1.489604,0.529736,0.149243,0.035955,-1.550005,-1.148038,0.040657,2.093023,2.115301,-1.028441,5.244425,4.636247,6.902143,-0.115546,0.157349,0.000000,0.218970,-0.223774,-0.000000
4.300000,2.557239,-0.277142,-1.489243,0.514341,0.137869,0.036312,-1.528819,-1.126665,0.030716,2.143534,2.158552,-0.960133,4.900557,4.121758,6.766723,-0.113339,0.155077,0.000000,0.222299,-0.227476,-0.000000
4.310000,2.562307,-0.275819,-1.488878,0.499161,0.126711,0.036572,-1.507143,-1.104881,0.021452,2.191177,2.197515,-0.892869,4.563446,3.618681,6.625057,-0.111101,0.152770,0.000000,0.225265,-0.230954,0.000000
4.320000,2.567223,-0.274607,-1.488512,0.484200,0.115773,0.036743,-1.485012,-1.082736,0.012849,2.234215,2.230470,-0.828212,4.107749,3.027198,6.362052,-0.108835,0.150431,0.000000,0.227713,-0.234058,0.000000
4.330000,2.571991,-0.273503,-1.488144,0.469462,0.105057,0.036831,-1.462467,-1.060285,0.004885,2.274670,2.259207,-0.764456,3.985960,2.724147,6.389367,-0.106548,0.148062,0.000000,0.229798,-0.236964,-0.000000
4.340000,2.576613,-0.272505,-1.487775,0.454952,0.094568,0.036843,-1.439527,-1.037564,-0.002443,2.312670,2.283937,-0.701612,3.551003,2.171193,6.120377,-0.104241,0.145665,0.000000,0.231542,-0.239682,0.000000
4.350000,2.581091,-0.271611,-1.487407,0.440673,0.084307,0.036784,-1.416229,-1.014625,-0.009158,2.346247,2.303130,-0.641577,3.228733,1.722918,5.942897,-0.101919,0.143243,0.000000,0.232811,-0.242046,0.000000
4.360000,2.585427,-0.270818,-1.487040,0.426629,0.074276,0.036662,-1.392610,-0.991514,-0.015278,2.377102,2.318557,-0.582706,2.910945,1.294371,5.763378,-0.099585,0.140800,0.000000,0.233760,-0.244197,0.000000
4.370000,2.589624,-0.270125,-1.486674,0.412822,0.064477,0.036481,-1.368701,-0.968274,-0.020823,2.404188,2.328420,-0.526944,2.538263,0.749368,5.453532,-0.097245,0.138336,0.000000,0.234228,-0.246059,-0.000000
4.380000,2.593685,-0.269528,-1.486310,0.399255,0.054911,0.036247,-1.344535,-0.944956,-0.025820,2.428543,2.335036,-0.472277,2.334798,0.578747,5.481372,-0.094902,0.135856,0.000000,0.234423,-0.247703,-0.000000
4.390000,2.597610,-0.269026,-1.485949,0.385932,0.045578,0.035966,-1.320138,-0.921583,-0.030272,2.450271,2.338662,-0.418645,1.980345,0.079935,5.178750,-0.092557,0.133360,0.000000,0.234366,-0.249138,0.000000
4.400000,2.601404,-0.268615,-1.485591,0.372853,0.036479,0.035643,-1.295542,-0.898200,-0.034204,2.468434,2.337278,-0.368147,1.685333,-0.285170,4.986214,-0.090216,0.130853,0.000000,0.233874,-0.250297,-0.000000
4.410000,2.605068,-0.268295,-1.485237,0.360022,0.027614,0.035284,-1.270778,-0.874847,-0.037638,2.484031,2.332879,-0.318883,1.399059,-0.633541,4.796409,-0.087881,0.128335,0.000000,0.233125,-0.251252,-0.000000
4.420000,2.608605,-0.268062,-1.484886,0.347438,0.018982,0.034892,-1.245874,-0.851557,-0.040594,2.496106,2.324279,-0.272866,1.052159,-1.043228,4.475139,-0.085555,0.125809,0.000000,0.232015,-0.251930,-0.000000
4.430000,2.612018,-0.267915,-1.484539,0.335104,0.010583,0.034473,-1.220863,-0.828370,-0.043099,2.505831,2.312919,-0.227947,0.894933,-1.224736,4.510865,-0.083241,0.123278,0.000000,0.230665,-0.252420,-0.000000
4.440000,2.615308,-0.267850,-1.484196,0.323021,0.002414,0.034032,-1.195765,-0.805307,-0.045156,2.513321,2.299022,-0.184024,0.569094,-1.592718,4.205201,-0.080942,0.120744,0.000000,0.229094,-0.252729,-0.000000
4.450000,2.618479,-0.267866,-1.483858,0.311189,-0.005524,0.033572,-1.170608,-0.782402,-0.046791,2.517536,2.281466,-0.143250,0.310199,-1.874817,4.018107,-0.078660,0.118208,0.000000,0.227206,-0.252777,-0.000000
4.460000,2.621533,-0.267960,-1.483525,0.299609,-0.013234,0.033097,-1.145421,-0.759685,-0.048024,2.519520,2.261567,-0.103694,0.059385,-2.138790,3.835162,-0.076399,0.115673,0.000000,0.225113,-0.252643,0.000000
4.470000,2.624472,-0.268130,-1.483196,0.288281,-0.020719,0.032612,-1.120228,-0.737183,-0.048875,2.518486,2.238410,-0.067076,-0.237522,-2.454470,3.545509,-0.074159,0.113141,0.000000,0.222734,-0.252265,0.000000
4.480000,2.627299,-0.268373,-1.482873,0.277204,-0.027979,0.032121,-1.095058,-0.714923,-0.049369,2.515374,2.213276,-0.031584,-0.382732,-2.568495,3.555290,-0.071945,0.110614,0.000000,0.220180,-0.251715,-0.000000
4.490000,2.630017,-0.268688,-1.482554,0.266380,-0.035018,0.031626,-1.069927,-0.692923,-0.049510,2.510295,2.186378,0.002893,-0.659870,-2.844246,3.283375,-0.069756,0.108094,0.000000,0.217469,-0.251000,-0.000000
4.500000,2.632628,-0.269073,-1.482240,0.255806,-0.041838,0.031132,-1.044862,-0.671205,-0.049321,2.502445,2.156748,0.034580,-0.881919,-3.043301,3.111875,-0.067596,0.105583,0.000000,0.214515,-0.250056,0.000000
4.510000,2.635134,-0.269525,-1.481931,0.245482,-0.048443,0.030641,-1.019884,-0.649793,-0.048822,2.492656,2.125545,0.065094,-1.096645,-3.225420,2.945492,-0.065466,0.103082,0.000000,0.211420,-0.248948,-0.000000
4.520000,2.637538,-0.270041,-1.481627,0.235408,-0.054835,0.030156,-0.995017,-0.628703,-0.048029,2.480334,2.092010,0.093079,-1.345337,-3.449213,2.696747,-0.063368,0.100594,0.000000,0.208115,-0.247627,0.000000
4.530000,2.639843,-0.270621,-1.481328,0.225581,-0.061018,0.029681,-0.970284,-0.607956,-0.046963,2.466218,2.057235,0.119980,-1.476207,-3.502475,2.685514,-0.061304,0.098120,0.000000,0.204696,-0.246149,-0.000000
4.540000,2.642051,-0.271261,-1.481034,0.216002,-0.066995,0.029218,-0.945699,-0.587561,-0.045632,2.450403,2.021410,0.145899,-1.707078,-3.690016,2.453751,-0.059275,0.095662,0.000000,0.201182,-0.244524,-0.000000
4.550000,2.644164,-0.271960,-1.480744,0.206667,-0.072771,0.028769,-0.921284,-0.567535,-0.044054,2.432281,1.983738,0.169448,-1.895030,-3.812142,2.302070,-0.057281,0.093222,0.000000,0.197499,-0.242699,0.000000
4.560000,2.646185,-0.272716,-1.480458,0.197575,-0.078347,0.028338,-0.897058,-0.547889,-0.042246,2.412505,1.945217,0.191874,-2.076147,-3.918788,2.154731,-0.055325,0.090801,0.000000,0.193737,-0.240728,-0.000000
4.570000,2.648116,-0.273526,-1.480177,0.188725,-0.083730,0.027925,-0.873041,-0.528636,-0.040224,2.390621,1.905140,0.212289,-2.283148,-4.066033,1.956934,-0.053407,0.088401,0.000000,0.189829,-0.238570,-0.000000
4.580000,2.649960,-0.274389,-1.479900,0.180114,-0.088921,0.027534,-0.849251,-0.509788,-0.038004,2.367210,1.864532,0.231616,-2.397447,-4.052500,1.910003,-0.051529,0.086023,0.000000,0.185871,-0.236273,0.000000
4.590000,2.651719,-0.275304,-1.479626,0.171739,-0.093927,0.027166,-0.825701,-0.491346,-0.035595,2.342354,1.823563,0.249931,-2.589651,-4.167851,1.725187,-0.049690,0.083669,0.000000,0.181879,-0.233844,0.000000
4.600000,2.653396,-0.276267,-1.479356,0.163599,-0.098750,0.026822,-0.802410,-0.473321,-0.033012,2.315585,1.781458,0.266376,-2.747420,-4.222636,1.592252,-0.047891,0.081341,0.000000,0.177779,-0.231242,-0.000000
4.610000,2.654992,-0.277278,-1.479090,0.155690,-0.103395,0.026506,-0.779394,-0.455717,-0.030271,2.287392,1.739177,0.281691,-2.900300,-4.263888,1.461744,-0.046134,0.079040,0.000000,0.173661,-0.228506,-0.000000
4.620000,2.656510,-0.278335,-1.478826,0.148010,-0.107866,0.026218,-0.756668,-0.438541,-0.027383,2.257503,1.695921,0.295533,-3.066972,-4.354343,1.316472,-0.044419,0.076766,0.000000,0.169446,-0.225612,-0.000000
4.630000,2.657953,-0.279435,-1.478565,0.140556,-0.112167,0.025959,-0.734249,-0.421798,-0.024364,2.226272,1.652783,0.308226,-3.178212,-4.270426,1.222861,-0.042745,0.074523,0.000000,0.165241,-0.222591,0.000000
4.640000,2.659322,-0.280577,-1.478307,0.133324,-0.116303,0.025731,-0.712147,-0.405484,-0.021222,2.193758,1.609911,0.319811,-3.333818,-4.334021,1.085380,-0.041114,0.072311,0.000000,0.161062,-0.219447,0.000000
4.650000,2.660620,-0.281761,-1.478051,0.126312,-0.120278,0.025535,-0.690379,-0.389603,-0.017972,2.159690,1.566402,0.330022,-3.468963,-4.334795,0.966519,-0.039524,0.070131,0.000000,0.156816,-0.216154,-0.000000
4.660000,2.661849,-0.282983,-1.477796,0.119515,-0.124096,0.025372,-0.668957,-0.374155,-0.014626,2.124420,1.523210,0.339058,-3.599214,-4.326395,0.848727,-0.037977,0.067985,0.000000,0.152600,-0.212744,0.000000
4.670000,2.663011,-0.284242,-1.477543,0.112931,-0.127763,0.025242,-0.647896,-0.359140,-0.011194,2.087581,1.479678,0.347075,-3.753803,-4.355425,0.747615,-0.036472,0.065874,0.000000,0.148344,-0.209177,-0.000000
4.680000,2.664108,-0.285537,-1.477291,0.106556,-0.131281,0.025148,-0.627209,-0.344560,-0.007689,2.049657,1.436617,0.353863,-3.829966,-4.254815,0.610004,-0.035010,0.063799,0.000000,0.144132,-0.205504,0.000000
4.690000,2.665143,-0.286867,-1.477040,0.100386,-0.134655,0.025089,-0.606906,-0.330406,-0.004121,2.010699,1.394128,0.359433,-3.975749,-4.265804,0.511864,-0.033590,0.061761,0.000000,0.139974,-0.201728,-0.000000
4.700000,2.666117,-0.288230,-1.476789,0.094417,-0.137890,0.025066,-0.587000,-0.316678,-0.000503,1.970270,1.351520,0.364041,-4.094835,-4.231248,0.402862,-0.032211,0.059763,0.000000,0.135798,-0.197801,-0.000000
4.710000,2.667032,-0.289624,-1.476538,0.088644,-0.140990,0.025079,-0.567504,-0.303373,0.003155,1.928760,1.309633,0.367417,-4.212150,-4.188831,0.294014,-0.030873,0.057804,0.000000,0.131691,-0.193765,-0.000000
4.720000,2.667890,-0.291049,-1.476287,0.083065,-0.143959,0.025129,-0.548429,-0.290487,0.006843,1.885983,1.267358,0.370124,-4.337871,-4.223618,0.226954,-0.029577,0.055886,0.000000,0.127536,-0.189596,-0.000000
4.730000,2.668694,-0.292503,-1.476036,0.077674,-0.146801,0.025216,-0.529788,-0.278022,0.010553,1.842114,1.226050,0.371527,-4.435471,-4.036347,0.053411,-0.028322,0.054010,0.000000,0.123475,-0.185316,0.000000
4.740000,2.669444,-0.293985,-1.475783,0.072468,-0.149521,0.025340,-0.511591,-0.265962,0.014269,1.797171,1.185788,0.371617,-4.558289,-4.058206,-0.014299,-0.027107,0.052178,0.000000,0.119514,-0.180923,-0.000000
4.750000,2.670144,-0.295493,-1.475529,0.067441,-0.152122,0.025501,-0.493849,-0.254308,0.017984,1.750998,1.145248,0.371074,-4.671629,-4.007628,-0.115279,-0.025932,0.050391,0.000000,0.115517,-0.176400,-0.000000
4.760000,2.670794,-0.297027,-1.475273,0.062589,-0.154608,0.025700,-0.476574,-0.243054,0.021687,1.703725,1.105696,0.369347,-4.785244,-3.954514,-0.214878,-0.024797,0.048650,0.000000,0.111615,-0.171760,-0.000000
4.770000,2.671396,-0.298585,-1.475015,0.057908,-0.156984,0.025935,-0.459778,-0.232196,0.025369,1.655272,1.065676,0.366920,-4.903338,-3.999752,-0.284695,-0.023700,0.046955,0.000000,0.107658,-0.166993,-0.000000
4.780000,2.671953,-0.300166,-1.474754,0.053392,-0.159254,0.026207,-0.443473,-0.221736,0.029021,1.605700,1.026745,0.363357,-5.011084,-3.785555,-0.428100,-0.022643,0.045309,0.000000,0.103805,-0.162106,-0.000000
4.790000,2.672465,-0.301770,-1.474490,0.049037,-0.161420,0.026515,-0.427668,-0.211657,0.032632,1.555004,0.988936,0.358657,-5.130403,-3.827600,-0.496894,-0.021624,0.043713,0.000000,0.100060,-0.157099,0.000000
4.800000,2.672934,-0.303394,-1.474224,0.044837,-0.163488,0.026859,-0.412377,-0.201960,0.036193,1.503107,0.950605,0.353302,-5.247089,-3.789290,-0.588430,-0.020642,0.042167,0.000000,0.096254,-0.151961,-0.000000
4.810000,2.673362,-0.305039,-1.473953,0.040787,-0.165461,0.027239,-0.397610,-0.192641,0.039693,1.450076,0.913231,0.346665,-5.367309,-3.753783,-0.682487,-0.019698,0.040673,0.000000,0.092540,-0.146701,0.000000
4.820000,2.673750,-0.306703,-1.473679,0.036883,-0.167342,0.027653,-0.383380,-0.183700,0.043127,1.395622,0.874882,0.340185,-5.511832,-3.852283,-0.668201,-0.018792,0.039233,0.000000,0.088717,-0.141284,0.000000
4.830000,2.674100,-0.308386,-1.473400,0.033118,-0.169136,0.028101,-0.369701,-0.175140,0.046491,1.340085,0.837520,0.332155,-5.595667,-3.619901,-0.938978,-0.017923,0.037847,0.000000,0.084990,-0.135750,0.000000
4.840000,2.674413,-0.310086,-1.473117,0.029487,-0.170846,0.028582,-0.356582,-0.166946,0.049765,1.283450,0.801126,0.322530,-5.744247,-3.726724,-0.929866,-0.017092,0.036518,0.000000,0.081356,-0.130098,-0.000000
4.850000,2.674690,-0.311802,-1.472828,0.025984,-0.172476,0.029096,-0.344037,-0.159123,0.052944,1.225295,0.763501,0.313098,-5.875559,-3.735289,-1.011322,-0.016297,0.035246,0.000000,0.077587,-0.124278,0.000000
4.860000,2.674933,-0.313535,-1.472535,0.022604,-0.174030,0.029641,-0.332080,-0.151675,0.056023,1.165860,0.726022,0.302612,-6.012224,-3.763115,-1.085165,-0.015540,0.034032,0.000000,0.073828,-0.118319,0.000000
4.870000,2.675143,-0.315283,-1.472235,0.019341,-0.175511,0.030216,-0.320725,-0.144603,0.058993,1.105034,0.688183,0.291409,-6.153748,-3.807649,-1.154531,-0.014820,0.032880,0.000000,0.070024,-0.112208,0.000000
4.880000,2.675320,-0.317045,-1.471930,0.016188,-0.176923,0.030820,-0.309984,-0.137913,0.061849,1.042767,0.649808,0.279537,-6.300564,-3.870534,-1.219024,-0.014140,0.031789,0.000000,0.066160,-0.105941,-0.000000
4.890000,2.675467,-0.318821,-1.471619,0.013139,-0.178270,0.031453,-0.299874,-0.131610,0.064582,0.979004,0.610705,0.267047,-6.453059,-3.953417,-1.278214,-0.013498,0.030761,0.000000,0.062214,-0.099511,0.000000
4.900000,2.675583,-0.320610,-1.471301,0.010188,-0.179557,0.032112,-0.290410,-0.125702,0.067188,0.913680,0.570668,0.253987,-6.612252,-4.057895,-1.332147,-0.012896,0.029799,0.000000,0.058166,-0.092913,-0.000000
4.910000,2.675671,-0.322412,-1.470976,0.007329,-0.180786,0.032796,-0.281606,-0.120200,0.069660,0.846735,0.529470,0.240422,-6.777952,-4.185661,-1.379933,-0.012335,0.028903,0.000000,0.053992,-0.086139,-0.000000
4.920000,2.675730,-0.324226,-1.470645,0.004554,-0.181962,0.033504,-0.273480,-0.115117,0.071995,0.778097,0.486871,0.226410,-6.950866,-4.338337,-1.421387,-0.011816,0.028076,0.000000,0.049669,-0.079182,-0.000000
4.930000,2.675762,-0.326051,-1.470306,0.001857,-0.183090,0.034235,-0.266050,-0.110468,0.074187,0.707692,0.442615,0.212017,-7.131429,-4.517561,-1.456126,-0.011342,0.027320,0.000000,0.045170,-0.072036,-0.000000
4.940000,2.675767,-0.327887,-1.469960,-0.000770,-0.184173,0.034988,-0.259333,-0.106271,0.076234,0.635442,0.396426,0.197311,-7.320020,-4.724967,-1.483764,-0.010913,0.026636,0.000000,0.040468,-0.064692,-0.000000
4.950000,2.675747,-0.329734,-1.469607,-0.003332,-0.185217,0.035760,-0.253348,-0.102547,0.078133,0.561258,0.348016,0.182364,-7.517639,-4.962219,-1.504089,-0.010533,0.026027,0.000000,0.035531,-0.057142,0.000000
4.960000,2.675701,-0.331592,-1.469245,-0.005839,-0.186226,0.036550,-0.248114,-0.099319,0.079881,0.485057,0.297077,0.167255,-7.724137,-5.230933,-1.516519,-0.010204,0.025494,0.000000,0.030330,-0.049378,-0.000000
4.970000,2.675630,-0.333459,-1.468875,-0.008297,-0.187205,0.037357,-0.243654,-0.096615,0.081477,0.406744,0.243287,0.152061,-7.940230,-5.532760,-1.520755,-0.009928,0.025040,0.000000,0.024832,-0.041390,0.000000
4.980000,2.675535,-0.335336,-1.468498,-0.010715,-0.188160,0.038179,-0.239987,-0.094464,0.082922,0.326219,0.186306,0.136868,-8.166473,-5.869338,-1.516393,-0.009708,0.024667,0.000000,0.019001,-0.033168,0.000000
4.990000,2.675416,-0.337222,-1.468112,-0.013100,-0.189096,0.039015,-0.237137,-0.092901,0.084215,0.243378,0.125779,0.121764,-8.403507,-6.242310,-1.502981,-0.009549,0.024377,0.000000,0.012802,-0.024703,0.000000
5.000000,2.675273,-0.339117,-1.467717,-0.015460,-0.190020,0.039863,-0.235127,-0.091962,0.085358,0.158110,0.061333,0.106841,-8.652089,-6.653318,-1.479986,-0.009454,0.024174,0.000000,0.006197,-0.015983,0.000000
