time,x,y,z,vx,vy,vz,ax,ay,az,jx,jy,jz,sx,sy,sz,roll,pitch,yaw,p,q,r
0.000000,-3.035270,-0.827446,-1.306229,-0.003759,0.002158,0.007254,0.168207,-0.024637,-0.106593,7.810453,-1.091828,-3.880533,-48.854210,13.353367,127.582087,-0.002484,-0.016961,0.000000,-0.109080,-0.780750,-0.000000
0.010000,-3.035308,-0.827424,-1.306157,-0.002077,0.001911,0.006189,0.246312,-0.035556,-0.145399,7.321911,-0.958295,-2.604712,-258.192642,46.725076,272.533373,-0.003570,-0.024736,0.000000,-0.095230,-0.728548,-0.000000
0.020000,-3.035312,-0.827408,-1.306105,0.001168,0.001447,0.004346,0.314645,-0.043803,-0.158687,2.646601,-0.157327,1.570134,-423.902112,72.312825,324.771438,-0.004392,-0.031553,0.000000,-0.016428,-0.270191,-0.000000
0.030000,-3.035284,-0.827395,-1.306070,0.004216,0.001035,0.003015,0.299244,-0.038702,-0.113996,-1.156131,0.487962,3.890717,-154.587606,30.227047,63.420785,-0.003898,-0.030144,0.000000,0.047606,0.104581,-0.000000
0.040000,-3.035227,-0.827387,-1.306045,0.007153,0.000673,0.002067,0.291523,-0.034044,-0.080873,-0.445152,0.447214,2.838550,65.664334,-3.741819,-95.388471,-0.003440,-0.029465,0.000000,0.044204,0.036516,-0.000000
0.050000,-3.035141,-0.827382,-1.306028,0.010047,0.000354,0.001397,0.290341,-0.029758,-0.057225,0.157156,0.413126,1.982947,55.334366,-3.117398,-76.979868,-0.003015,-0.029416,0.000000,0.041246,-0.021821,0.000000
0.060000,-3.035026,-0.827380,-1.306017,0.012959,0.000077,0.000922,0.294666,-0.025781,-0.041214,0.661536,0.384866,1.298953,46.049796,-2.573416,-60.986710,-0.002616,-0.029903,0.000000,0.038711,-0.071033,0.000000
0.070000,-3.034882,-0.827380,-1.306010,0.015940,-0.000161,0.000573,0.303571,-0.022061,-0.031246,1.078152,0.361657,0.763213,37.752503,-2.104799,-47.248881,-0.002241,-0.030837,0.000000,0.036565,-0.111840,0.000000
0.080000,-3.034708,-0.827383,-1.306006,0.019031,-0.000364,0.000297,0.316229,-0.018548,-0.025950,1.416586,0.342770,0.353975,30.384401,-1.706462,-35.606252,-0.001885,-0.032139,0.000000,0.034772,-0.145028,0.000000
0.090000,-3.034502,-0.827388,-1.306004,0.022265,-0.000532,0.000054,0.331903,-0.015205,-0.024166,1.685840,0.327528,0.051088,23.887359,-1.373334,-25.898707,-0.001545,-0.033737,0.000000,0.033287,-0.171407,0.000000
0.100000,-3.034262,-0.827394,-1.306005,0.025669,-0.000668,-0.000186,0.349946,-0.011998,-0.024928,1.894333,0.315304,-0.163999,18.203227,-1.100350,-17.966133,-0.001219,-0.035567,0.000000,0.032068,-0.191777,0.000000
0.110000,-3.033988,-0.827401,-1.306008,0.029264,-0.000772,-0.000445,0.369790,-0.008899,-0.027446,2.049904,0.305521,-0.308235,13.273921,-0.882420,-11.648406,-0.000904,-0.037572,0.000000,0.031070,-0.206907,0.000000
0.120000,-3.033677,-0.827409,-1.306014,0.033065,-0.000846,-0.000735,0.390944,-0.005887,-0.031093,2.159811,0.297655,-0.396967,9.041348,-0.714482,-6.785404,-0.000598,-0.039705,0.000000,0.030252,-0.217523,0.000000
0.130000,-3.033327,-0.827418,-1.306022,0.037083,-0.000890,-0.001066,0.412986,-0.002946,-0.035386,2.230731,0.291231,-0.443943,5.447359,-0.591465,-3.217011,-0.000299,-0.041923,0.000000,0.029571,-0.224290,-0.000000
0.140000,-3.032935,-0.827427,-1.306035,0.041324,-0.000905,-0.001443,0.435558,-0.000063,-0.039972,2.268759,0.285826,-0.461307,2.433803,-0.508240,-0.783107,-0.000006,-0.044190,0.000000,0.028990,-0.227815,-0.000000
0.150000,-3.032500,-0.827436,-1.306051,0.045794,-0.000891,-0.001866,0.458361,0.002771,-0.044612,2.279407,0.281067,-0.459605,-0.057392,-0.459771,0.676425,0.000281,-0.046479,0.000000,0.028474,-0.228640,-0.000000
0.160000,-3.032020,-0.827445,-1.306072,0.050492,-0.000849,-0.002335,0.481146,0.005559,-0.049164,2.267611,0.276631,-0.447779,-2.084299,-0.441048,1.321706,0.000563,-0.048763,0.000000,0.027993,-0.227243,0.000000
0.170000,-3.031491,-0.827453,-1.306098,0.055417,-0.000780,-0.002849,0.503713,0.008303,-0.053567,2.237721,0.272246,-0.433171,-3.711847,-0.446095,1.337551,0.000841,-0.051024,0.000000,0.027519,-0.224040,0.000000
0.180000,-3.030911,-0.827460,-1.306129,0.060566,-0.000683,-0.003406,0.525901,0.011004,-0.057827,2.193374,0.267709,-0.421028,-5.116086,-0.455454,1.315550,0.001114,-0.053244,0.000000,0.027030,-0.219378,0.000000
0.190000,-3.030279,-0.827467,-1.306166,0.065935,-0.000560,-0.004006,0.547581,0.013657,-0.061988,2.135400,0.263137,-0.406860,-6.314308,-0.469076,1.266621,0.001381,-0.055411,0.000000,0.026541,-0.213366,-0.000000
0.200000,-3.029593,-0.827471,-1.306209,0.071517,-0.000410,-0.004646,0.568609,0.016266,-0.065964,2.067088,0.258327,-0.395695,-6.494578,-0.587803,-1.832960,0.001644,-0.057512,0.000000,0.026028,-0.206314,0.000000
0.210000,-3.028849,-0.827475,-1.306259,0.077307,-0.000235,-0.005325,0.588922,0.018824,-0.069902,2.005508,0.251381,-0.443519,-5.808245,-0.795182,-7.481955,0.001902,-0.059538,0.000000,0.025290,-0.199603,-0.000000
0.220000,-3.028046,-0.827476,-1.306316,0.083296,-0.000034,-0.006044,0.608719,0.021294,-0.074835,1.950923,0.242423,-0.545334,-6.809074,-0.782482,-6.391214,0.002150,-0.061503,0.000000,0.024334,-0.193235,-0.000000
0.230000,-3.027183,-0.827475,-1.306380,0.089481,0.000191,-0.006822,0.627941,0.023672,-0.080808,1.869327,0.235731,-0.571343,-9.616269,-0.539903,1.761781,0.002389,-0.063402,0.000000,0.023619,-0.184584,0.000000
0.240000,-3.026257,-0.827472,-1.306452,0.095855,0.000440,-0.007660,0.646106,0.026008,-0.086262,1.758597,0.231625,-0.510099,-10.818963,-0.483732,4.464000,0.002623,-0.065195,0.000000,0.023191,-0.173597,0.000000
0.250000,-3.025266,-0.827467,-1.306533,0.102403,0.000712,-0.008547,0.663113,0.028305,-0.091010,1.652947,0.226056,-0.482063,-9.994298,-0.647582,0.566248,0.002852,-0.066874,0.000000,0.022610,-0.162955,-0.000000
0.260000,-3.024209,-0.827458,-1.306623,0.109117,0.001006,-0.009481,0.679164,0.030530,-0.095903,1.558711,0.218674,-0.498774,-9.512446,-0.747067,-1.359062,0.003075,-0.068454,0.000000,0.021836,-0.153179,0.000000
0.270000,-3.023084,-0.827446,-1.306723,0.115987,0.001322,-0.010465,0.694287,0.032678,-0.100986,1.462698,0.211115,-0.509245,-9.945654,-0.771537,-0.564582,0.003289,-0.069938,0.000000,0.021047,-0.143280,-0.000000
0.280000,-3.021889,-0.827432,-1.306832,0.123003,0.001659,-0.011500,0.708418,0.034752,-0.106088,1.359798,0.203243,-0.510065,-10.515259,-0.820791,-0.007811,0.003496,-0.071320,0.000000,0.020231,-0.132777,-0.000000
0.290000,-3.020624,-0.827413,-1.306953,0.130155,0.002017,-0.012587,0.721483,0.036743,-0.111187,1.252393,0.194699,-0.509401,-10.685375,-0.882375,0.103228,0.003694,-0.072594,0.000000,0.019350,-0.121855,-0.000000
0.300000,-3.019286,-0.827391,-1.307084,0.137432,0.002394,-0.013724,0.733466,0.038646,-0.116276,1.146091,0.185595,-0.508001,-10.465680,-0.934088,0.177537,0.003883,-0.073757,0.000000,0.018416,-0.111071,0.000000
0.310000,-3.017875,-0.827365,-1.307227,0.144824,0.002790,-0.014912,0.744405,0.040455,-0.121347,1.043080,0.176017,-0.505850,-10.213193,-0.988515,0.251873,0.004062,-0.074815,0.000000,0.017436,-0.100645,-0.000000
0.320000,-3.016389,-0.827335,-1.307382,0.152320,0.003203,-0.016151,0.754328,0.042166,-0.126393,0.941827,0.165825,-0.502963,-10.148936,-1.067149,0.307157,0.004231,-0.075770,0.000000,0.016397,-0.090421,0.000000
0.330000,-3.014828,-0.827301,-1.307550,0.159911,0.003633,-0.017440,0.763241,0.043772,-0.131407,0.840101,0.154674,-0.499707,-10.173852,-1.166564,0.338356,0.004390,-0.076624,0.000000,0.015265,-0.080173,-0.000000
0.340000,-3.013191,-0.827263,-1.307731,0.167585,0.004079,-0.018779,0.771130,0.045260,-0.136387,0.738350,0.142494,-0.496196,-10.031763,-1.257973,0.374183,0.004537,-0.077374,0.000000,0.014032,-0.069944,0.000000
0.350000,-3.011477,-0.827220,-1.307926,0.175333,0.004539,-0.020168,0.778008,0.046621,-0.141330,0.639466,0.129515,-0.492223,-9.682515,-1.334800,0.421123,0.004671,-0.078023,0.000000,0.012722,-0.060025,-0.000000
0.360000,-3.009685,-0.827172,-1.308135,0.183145,0.005011,-0.021606,0.783919,0.047850,-0.146231,0.544700,0.115798,-0.487774,-9.308900,-1.416319,0.460362,0.004791,-0.078574,0.000000,0.011341,-0.050538,0.000000
0.370000,-3.007814,-0.827120,-1.308358,0.191012,0.005496,-0.023092,0.788902,0.048937,-0.151086,0.453288,0.101189,-0.483016,-9.039641,-1.516023,0.483634,0.004897,-0.079033,0.000000,0.009873,-0.041405,-0.000000
0.380000,-3.005864,-0.827062,-1.308596,0.198923,0.005990,-0.024627,0.792985,0.049874,-0.155892,0.363907,0.085477,-0.478101,-8.825161,-1.627283,0.498397,0.004989,-0.079403,0.000000,0.008298,-0.032492,0.000000
0.390000,-3.003835,-0.827000,-1.308851,0.206872,0.006493,-0.026210,0.796181,0.050647,-0.160648,0.276784,0.068643,-0.473048,-8.514767,-1.732325,0.515910,0.005063,-0.079683,0.000000,0.006613,-0.023819,0.000000
0.400000,-3.001727,-0.826932,-1.309121,0.214847,0.007003,-0.027840,0.798521,0.051247,-0.165353,0.193611,0.050831,-0.467783,-8.083797,-1.829070,0.535469,0.005121,-0.079879,0.000000,0.004833,-0.015555,-0.000000
0.410000,-2.999538,-0.826860,-1.309407,0.222842,0.007518,-0.029517,0.800053,0.051664,-0.170004,0.115108,0.032061,-0.462339,-7.640367,-1.928553,0.551143,0.005160,-0.079995,0.000000,0.002960,-0.007770,0.000000
0.420000,-2.997270,-0.826782,-1.309711,0.230848,0.008036,-0.031240,0.800823,0.051888,-0.174599,0.040804,0.012260,-0.456760,-7.260492,-2.033681,0.567669,0.005180,-0.080034,0.000000,0.000987,-0.000415,-0.000000
0.430000,-2.994922,-0.826699,-1.310032,0.238858,0.008556,-0.033009,0.800869,0.051909,-0.179139,-0.030101,-0.008612,-0.450985,-6.915051,-2.139719,0.588984,0.005180,-0.080003,0.000000,-0.001090,0.006591,0.000000
0.440000,-2.992493,-0.826611,-1.310371,0.246866,0.009074,-0.034823,0.800221,0.051716,-0.183619,-0.097497,-0.030534,-0.444980,-6.515492,-2.242436,0.609689,0.005158,-0.079903,0.000000,-0.003270,0.013236,-0.000000
0.450000,-2.989984,-0.826517,-1.310729,0.254863,0.009590,-0.036682,0.798919,0.051298,-0.188038,-0.160411,-0.053461,-0.438791,-6.047295,-2.343303,0.624977,0.005114,-0.079738,0.000000,-0.005547,0.019427,0.000000
0.460000,-2.987396,-0.826419,-1.311105,0.262844,0.010100,-0.038584,0.797013,0.050646,-0.192395,-0.218443,-0.077401,-0.432481,-5.574301,-2.443894,0.640282,0.005047,-0.079514,0.000000,-0.007922,0.025124,0.000000
0.470000,-2.984727,-0.826315,-1.311500,0.270803,0.010603,-0.040530,0.794550,0.049750,-0.196688,-0.271897,-0.102339,-0.425986,-5.142113,-2.538422,0.670196,0.004956,-0.079236,0.000000,-0.010394,0.030360,0.000000
0.480000,-2.981980,-0.826207,-1.311915,0.278735,0.011095,-0.042518,0.791575,0.048600,-0.200915,-0.321285,-0.128169,-0.419077,-4.733887,-2.624898,0.715094,0.004840,-0.078907,0.000000,-0.012952,0.035183,0.000000
0.490000,-2.979153,-0.826094,-1.312351,0.286635,0.011575,-0.044548,0.788124,0.047187,-0.205070,-0.366575,-0.154837,-0.411684,-4.296710,-2.710230,0.756740,0.004697,-0.078532,0.000000,-0.015591,0.039592,-0.000000
0.500000,-2.976247,-0.825975,-1.312806,0.294497,0.012039,-0.046619,0.784243,0.045503,-0.209148,-0.407219,-0.182374,-0.403942,-3.821590,-2.798133,0.788102,0.004528,-0.078115,0.000000,-0.018314,0.043533,0.000000
0.510000,-2.973263,-0.825853,-1.313283,0.302319,0.012485,-0.048731,0.779980,0.043539,-0.213148,-0.443007,-0.210799,-0.395922,-3.346985,-2.882708,0.822972,0.004331,-0.077661,0.000000,-0.021123,0.046987,-0.000000
0.520000,-2.970200,-0.825726,-1.313781,0.310097,0.012910,-0.050882,0.775383,0.041287,-0.217067,-0.474159,-0.240028,-0.387483,-2.901455,-2.953036,0.880445,0.004105,-0.077175,0.000000,-0.024009,0.049977,0.000000
0.530000,-2.967061,-0.825595,-1.314301,0.317827,0.013311,-0.053072,0.770497,0.038739,-0.220898,-0.501036,-0.269860,-0.378313,-2.475066,-3.009578,0.957867,0.003851,-0.076662,0.000000,-0.026953,0.052536,-0.000000
0.540000,-2.963844,-0.825460,-1.314842,0.325507,0.013685,-0.055300,0.765362,0.035890,-0.224633,-0.523660,-0.300219,-0.368325,-2.034770,-3.065903,1.030998,0.003566,-0.076125,0.000000,-0.029947,0.054667,-0.000000
0.550000,-2.960551,-0.825321,-1.315407,0.333134,0.014029,-0.057565,0.760024,0.032734,-0.228265,-0.541731,-0.331178,-0.357693,-1.575280,-3.126903,1.092064,0.003252,-0.075568,0.000000,-0.032999,0.056341,-0.000000
0.560000,-2.957181,-0.825179,-1.315994,0.340707,0.014339,-0.059865,0.754528,0.029266,-0.231787,-0.555166,-0.362757,-0.346484,-1.120800,-3.182442,1.158356,0.002906,-0.074998,0.000000,-0.036111,0.057553,0.000000
0.570000,-2.953736,-0.825034,-1.316604,0.348225,0.014614,-0.062201,0.748920,0.025479,-0.235194,-0.564147,-0.394827,-0.334526,-0.688324,-3.219193,1.249975,0.002529,-0.074417,0.000000,-0.039269,0.058319,0.000000
0.580000,-2.950217,-0.824887,-1.317238,0.355686,0.014849,-0.064569,0.743245,0.021370,-0.238477,-0.568932,-0.427141,-0.321485,-0.271717,-3.239249,1.362623,0.002121,-0.073831,0.000000,-0.042451,0.058664,-0.000000
0.590000,-2.946623,-0.824737,-1.317895,0.363090,0.015041,-0.066970,0.737542,0.016936,-0.241624,-0.569582,-0.459612,-0.307273,0.148218,-3.259530,1.470294,0.001680,-0.073244,0.000000,-0.045647,0.058593,-0.000000
0.600000,-2.942955,-0.824586,-1.318577,0.370437,0.015188,-0.069402,0.731853,0.012177,-0.244623,-0.565968,-0.492332,-0.292079,0.574914,-3.285046,1.565609,0.001208,-0.072660,0.000000,-0.048866,0.058096,-0.000000
0.610000,-2.939214,-0.824433,-1.319283,0.377727,0.015285,-0.071863,0.726222,0.007090,-0.247466,-0.558083,-0.525313,-0.275961,0.994044,-3.303786,1.666457,0.000703,-0.072082,0.000000,-0.052112,0.057173,0.000000
0.620000,-2.935400,-0.824280,-1.320014,0.384961,0.015329,-0.074351,0.720691,0.001671,-0.250142,-0.546087,-0.558408,-0.258750,1.393854,-3.302964,1.790697,0.000166,-0.071516,0.000000,-0.055369,0.055838,-0.000000
0.630000,-2.931515,-0.824127,-1.320770,0.392141,0.015318,-0.076865,0.715301,-0.004078,-0.252641,-0.530206,-0.591372,-0.240147,1.777663,-3.285753,1.933061,-0.000404,-0.070965,0.000000,-0.058613,0.054114,-0.000000
0.640000,-2.927558,-0.823974,-1.321552,0.399267,0.015248,-0.079404,0.710087,-0.010156,-0.254945,-0.510534,-0.624123,-0.220088,2.158847,-3.268586,2.070067,-0.001007,-0.070434,0.000000,-0.061837,0.052008,0.000000
0.650000,-2.923529,-0.823822,-1.322358,0.406342,0.015115,-0.081964,0.705090,-0.016561,-0.257042,-0.487029,-0.656744,-0.198746,2.540048,-3.255544,2.196183,-0.001641,-0.069925,0.000000,-0.065051,0.049518,0.000000
0.660000,-2.919431,-0.823671,-1.323191,0.413369,0.014917,-0.084545,0.700347,-0.023291,-0.258920,-0.459733,-0.689233,-0.176165,2.911183,-3.235387,2.326919,-0.002308,-0.069443,0.000000,-0.068253,0.046650,0.000000
0.670000,-2.915262,-0.823523,-1.324049,0.420349,0.014649,-0.087143,0.695895,-0.030346,-0.260566,-0.428806,-0.721452,-0.152208,3.263453,-3.198381,2.474460,-0.003006,-0.068992,0.000000,-0.071432,0.043417,-0.000000
0.680000,-2.911024,-0.823378,-1.324934,0.427287,0.014310,-0.089756,0.691771,-0.037720,-0.261964,-0.394464,-0.753201,-0.126676,3.599107,-3.147952,2.633608,-0.003736,-0.068575,0.000000,-0.074568,0.039840,-0.000000
0.690000,-2.906716,-0.823237,-1.325844,0.434185,0.013895,-0.092382,0.688006,-0.045410,-0.263099,-0.356823,-0.784411,-0.099535,3.928248,-3.096783,2.787938,-0.004497,-0.068195,0.000000,-0.077656,0.035930,0.000000
0.700000,-2.902340,-0.823101,-1.326781,0.441047,0.013402,-0.095018,0.684634,-0.053408,-0.263955,-0.315899,-0.815137,-0.070917,4.252705,-3.047586,2.933893,-0.005289,-0.067856,0.000000,-0.080701,0.031690,0.000000
0.710000,-2.897895,-0.822969,-1.327745,0.447877,0.012827,-0.097661,0.681688,-0.061712,-0.264517,-0.271769,-0.845362,-0.040858,4.564820,-2.992037,3.081716,-0.006112,-0.067562,0.000000,-0.083703,0.027126,-0.000000
0.720000,-2.893383,-0.822844,-1.328735,0.454681,0.012167,-0.100308,0.679199,-0.070316,-0.264772,-0.224602,-0.874977,-0.009282,4.858625,-2.924212,3.238337,-0.006963,-0.067314,0.000000,-0.086652,0.022254,0.000000
0.730000,-2.888802,-0.822726,-1.329751,0.461461,0.011420,-0.102957,0.677196,-0.079212,-0.264703,-0.174597,-0.903847,0.023909,5.136036,-2.847040,3.399635,-0.007845,-0.067116,0.000000,-0.089535,0.017093,-0.000000
0.740000,-2.884153,-0.822616,-1.330794,0.468225,0.010583,-0.105602,0.675707,-0.088393,-0.264294,-0.121882,-0.931918,0.058710,5.403646,-2.768492,3.555619,-0.008754,-0.066972,0.000000,-0.092348,0.011655,0.000000
0.750000,-2.879437,-0.822514,-1.331863,0.474976,0.009653,-0.108242,0.674758,-0.097850,-0.263529,-0.066524,-0.959216,0.095021,5.661723,-2.689574,3.705512,-0.009692,-0.066883,0.000000,-0.095095,0.005945,-0.000000
0.760000,-2.874654,-0.822423,-1.332959,0.481720,0.008626,-0.110873,0.674376,-0.107577,-0.262393,-0.008647,-0.985710,0.132820,5.905296,-2.605426,3.854836,-0.010656,-0.066853,0.000000,-0.097773,-0.000024,0.000000
0.770000,-2.869803,-0.822342,-1.334081,0.488463,0.007501,-0.113490,0.674585,-0.117564,-0.260872,0.051582,-1.011325,0.172118,6.132603,-2.514811,4.002669,-0.011647,-0.066884,0.000000,-0.100377,-0.006238,-0.000000
0.780000,-2.864885,-0.822273,-1.335228,0.495211,0.006275,-0.116090,0.675408,-0.127803,-0.258951,0.114005,-1.036006,0.212874,6.344746,-2.419961,4.145743,-0.012664,-0.066978,0.000000,-0.102901,-0.012682,0.000000
0.790000,-2.859899,-0.822216,-1.336402,0.501971,0.004945,-0.118669,0.676865,-0.138285,-0.256615,0.178477,-1.059724,0.255033,6.542994,-2.322803,4.284388,-0.013705,-0.067138,0.000000,-0.105344,-0.019344,0.000000
0.800000,-2.854845,-0.822174,-1.337602,0.508749,0.003509,-0.121223,0.678977,-0.148998,-0.253850,0.244865,-1.082462,0.298562,6.727811,-2.222303,4.421370,-0.014771,-0.067365,0.000000,-0.107704,-0.026210,-0.000000
0.810000,-2.849724,-0.822146,-1.338827,0.515551,0.001965,-0.123746,0.681763,-0.159934,-0.250644,0.313033,-1.104170,0.343460,6.897807,-2.117861,4.555007,-0.015859,-0.067662,0.000000,-0.109978,-0.033271,0.000000
0.820000,-2.844534,-0.822134,-1.340077,0.522384,0.000310,-0.126236,0.685238,-0.171081,-0.246981,0.382821,-1.124819,0.389662,7.050104,-2.013374,4.675747,-0.016970,-0.068030,0.000000,-0.112164,-0.040511,-0.000000
0.830000,-2.839276,-0.822140,-1.341351,0.529256,-0.001457,-0.128686,0.689419,-0.182430,-0.242851,0.454035,-1.144438,0.436975,7.184730,-1.909881,4.782570,-0.018103,-0.068472,0.000000,-0.114265,-0.047913,0.000000
0.840000,-2.833949,-0.822164,-1.342651,0.536172,-0.003338,-0.131093,0.694319,-0.193970,-0.238242,0.526515,-1.163017,0.485313,7.304864,-1.802614,4.887162,-0.019256,-0.068989,0.000000,-0.116281,-0.055461,0.000000
0.850000,-2.828553,-0.822207,-1.343973,0.543142,-0.005336,-0.133451,0.699949,-0.205691,-0.233144,0.600132,-1.180490,0.534719,7.410110,-1.689362,4.993132,-0.020428,-0.069582,0.000000,-0.118206,-0.063146,-0.000000
0.860000,-2.823086,-0.822270,-1.345320,0.550171,-0.007452,-0.135755,0.706321,-0.217580,-0.227547,0.674718,-1.196804,0.585176,7.497861,-1.573987,5.091353,-0.021620,-0.070252,0.000000,-0.120035,-0.070954,0.000000
0.870000,-2.817549,-0.822356,-1.346688,0.557268,-0.009688,-0.138002,0.713444,-0.229627,-0.221441,0.750090,-1.211970,0.636546,7.568727,-1.462691,5.171745,-0.022829,-0.071001,0.000000,-0.121770,-0.078867,0.000000
0.880000,-2.811941,-0.822464,-1.348080,0.564440,-0.012044,-0.140184,0.721323,-0.241819,-0.214816,0.826092,-1.226058,0.688611,7.623191,-1.355164,5.235827,-0.024055,-0.071830,0.000000,-0.123418,-0.086872,-0.000000
0.890000,-2.806260,-0.822597,-1.349492,0.571695,-0.014524,-0.142298,0.729966,-0.254148,-0.207669,0.902553,-1.239073,0.741262,7.659627,-1.243686,5.295717,-0.025297,-0.072739,0.000000,-0.124979,-0.094953,0.000000
0.900000,-2.800507,-0.822754,-1.350926,0.579040,-0.017127,-0.144338,0.739374,-0.266601,-0.199991,0.979285,-1.250932,0.794525,7.678011,-1.124310,5.356573,-0.026555,-0.073730,0.000000,-0.126445,-0.103094,-0.000000
0.910000,-2.794680,-0.822939,-1.352379,0.586482,-0.019856,-0.146298,0.749551,-0.279166,-0.191778,1.056114,-1.261559,0.848394,7.678932,-1.002824,5.409208,-0.027826,-0.074802,0.000000,-0.127811,-0.111281,0.000000
0.920000,-2.788777,-0.823152,-1.353851,0.594031,-0.022711,-0.148173,0.760497,-0.291832,-0.183023,1.132863,-1.270988,0.902709,7.660830,-0.890179,5.438669,-0.029111,-0.075956,0.000000,-0.129077,-0.119497,0.000000
0.930000,-2.782799,-0.823393,-1.355342,0.601692,-0.025693,-0.149958,0.772209,-0.304586,-0.173724,1.209330,-1.279363,0.957167,7.622763,-0.785531,5.446472,-0.030408,-0.077193,0.000000,-0.130258,-0.127722,-0.000000
0.940000,-2.776743,-0.823665,-1.356851,0.609475,-0.028802,-0.151648,0.784683,-0.317419,-0.163880,1.285319,-1.286699,1.011639,7.566377,-0.674433,5.451878,-0.031716,-0.078512,0.000000,-0.131356,-0.135938,-0.000000
0.950000,-2.770609,-0.823969,-1.358375,0.617386,-0.032041,-0.153236,0.797915,-0.330320,-0.153491,1.360658,-1.292852,1.066205,7.493925,-0.551438,5.461342,-0.033035,-0.079913,0.000000,-0.132355,-0.144131,0.000000
0.960000,-2.764396,-0.824306,-1.359915,0.625433,-0.035409,-0.154718,0.811896,-0.343276,-0.142556,1.435197,-1.297728,1.120865,7.403623,-0.426699,5.461149,-0.034364,-0.081396,0.000000,-0.133246,-0.152287,0.000000
0.970000,-2.758101,-0.824678,-1.361470,0.633624,-0.038907,-0.156087,0.826619,-0.356275,-0.131074,1.508730,-1.301385,1.175428,7.288518,-0.313664,5.435014,-0.035700,-0.082961,0.000000,-0.134035,-0.160387,-0.000000
0.980000,-2.751723,-0.825084,-1.363037,0.641965,-0.042534,-0.157339,0.842071,-0.369304,-0.119047,1.580967,-1.304001,1.229566,7.147898,-0.209873,5.386379,-0.037044,-0.084606,0.000000,-0.134737,-0.168401,0.000000
0.990000,-2.745261,-0.825528,-1.364616,0.650465,-0.046293,-0.158468,0.858238,-0.382355,-0.106482,1.651688,-1.305583,1.283155,6.990854,-0.097401,5.336450,-0.038395,-0.086332,0.000000,-0.135352,-0.176307,-0.000000
1.000000,-2.738714,-0.826010,-1.366206,0.659130,-0.050181,-0.159469,0.875105,-0.395416,-0.093384,1.720785,-1.305949,1.336295,6.823893,0.029962,5.291375,-0.039751,-0.088135,0.000000,-0.135861,-0.184096,-0.000000
1.010000,-2.732079,-0.826532,-1.367806,0.667967,-0.054201,-0.160336,0.892654,-0.408474,-0.079757,1.788166,-1.304984,1.388983,6.640125,0.160069,5.236647,-0.041112,-0.090017,0.000000,-0.136253,-0.191761,0.000000
1.020000,-2.725355,-0.827094,-1.369413,0.676983,-0.058351,-0.161064,0.910868,-0.421515,-0.065605,1.853587,-1.302747,1.441028,6.421780,0.278148,5.157581,-0.042477,-0.091974,0.000000,-0.136531,-0.199275,0.000000
1.030000,-2.718539,-0.827699,-1.371027,0.686185,-0.062631,-0.161648,0.929726,-0.434529,-0.050936,1.916602,-1.299421,1.492134,6.168206,0.387127,5.058919,-0.043843,-0.094006,0.000000,-0.136713,-0.206593,0.000000
1.040000,-2.711631,-0.828347,-1.372646,0.695578,-0.067042,-0.162083,0.949200,-0.447504,-0.035762,1.976951,-1.295005,1.542206,5.903756,0.507207,4.959996,-0.045211,-0.096110,0.000000,-0.136796,-0.213686,-0.000000
1.050000,-2.704628,-0.829040,-1.374269,0.705169,-0.071581,-0.162363,0.969265,-0.460429,-0.020092,2.034677,-1.289277,1.591334,5.647338,0.648430,4.862289,-0.046579,-0.098284,0.000000,-0.136757,-0.220560,0.000000
1.060000,-2.697527,-0.829779,-1.375893,0.714963,-0.076250,-0.162484,0.989894,-0.473289,-0.003935,2.089898,-1.282036,1.639452,5.381317,0.797265,4.753336,-0.047946,-0.100526,0.000000,-0.136575,-0.227226,-0.000000
1.070000,-2.690328,-0.830565,-1.377518,0.724967,-0.081047,-0.162442,1.011063,-0.486069,0.012697,2.142303,-1.273331,1.686401,5.055954,0.929104,4.632283,-0.049310,-0.102834,0.000000,-0.136252,-0.233650,0.000000
1.080000,-2.683028,-0.831399,-1.379142,0.735184,-0.085971,-0.162230,1.032740,-0.498756,0.029793,2.191017,-1.263454,1.732098,4.675079,1.049878,4.504900,-0.050671,-0.105205,0.000000,-0.135817,-0.239742,0.000000
1.090000,-2.675625,-0.832284,-1.380763,0.745621,-0.091022,-0.161846,1.054883,-0.511339,0.047339,2.235805,-1.252334,1.776499,4.306798,1.193243,4.371742,-0.052027,-0.107635,0.000000,-0.135261,-0.245476,0.000000
1.100000,-2.668116,-0.833220,-1.382379,0.756282,-0.096198,-0.161284,1.077456,-0.523803,0.065323,2.277153,-1.239589,1.819532,3.964646,1.352292,4.225331,-0.053376,-0.110121,0.000000,-0.134544,-0.250898,-0.000000
1.110000,-2.660499,-0.834208,-1.383989,0.767170,-0.101498,-0.160539,1.100426,-0.536130,0.083730,2.315098,-1.225288,1.861006,3.603309,1.506397,4.066621,-0.054718,-0.112660,0.000000,-0.133669,-0.256007,-0.000000
1.120000,-2.652772,-0.835250,-1.385590,0.778291,-0.106921,-0.159609,1.123758,-0.548308,0.102543,2.349219,-1.209461,1.900865,3.199032,1.683684,3.916854,-0.056050,-0.115249,0.000000,-0.132637,-0.260759,0.000000
1.130000,-2.644933,-0.836346,-1.387181,0.789646,-0.112464,-0.158489,1.147410,-0.560320,0.121747,2.379078,-1.191614,1.939343,2.765479,1.892018,3.778087,-0.057371,-0.117884,0.000000,-0.131399,-0.265109,0.000000
1.140000,-2.636979,-0.837499,-1.388760,0.801239,-0.118127,-0.157174,1.171339,-0.572141,0.141330,2.404529,-1.171621,1.976427,2.334314,2.092655,3.621371,-0.058678,-0.120560,0.000000,-0.129939,-0.269038,-0.000000
1.150000,-2.628908,-0.838709,-1.390324,0.813072,-0.123907,-0.155662,1.195501,-0.583752,0.161276,2.425765,-1.149761,2.011770,1.927008,2.291026,3.434719,-0.059969,-0.123274,0.000000,-0.128283,-0.272559,0.000000
1.160000,-2.620718,-0.839977,-1.391873,0.825149,-0.129802,-0.153949,1.219855,-0.595136,0.181565,2.443069,-1.125801,2.045121,1.523246,2.513846,3.238679,-0.061243,-0.126022,0.000000,-0.126401,-0.275694,0.000000
1.170000,-2.612405,-0.841305,-1.393403,0.837470,-0.135810,-0.152031,1.244362,-0.606268,0.202178,2.456230,-1.099484,2.076544,1.066453,2.735994,3.061800,-0.062497,-0.128799,0.000000,-0.124266,-0.278417,0.000000
1.180000,-2.603969,-0.842694,-1.394914,0.850036,-0.141928,-0.149905,1.268979,-0.617125,0.223096,2.464398,-1.071081,2.106357,0.565222,2.951084,2.897560,-0.063729,-0.131601,0.000000,-0.121906,-0.280643,-0.000000
1.190000,-2.595405,-0.844144,-1.396401,0.862849,-0.148152,-0.147569,1.293650,-0.627690,0.244305,2.467534,-1.040462,2.134495,0.099009,3.196698,2.708299,-0.064935,-0.134423,0.000000,-0.119306,-0.282362,0.000000
1.200000,-2.586712,-0.845657,-1.397865,0.875909,-0.154481,-0.145019,1.318330,-0.637935,0.265786,2.466378,-1.007147,2.160523,-0.334964,3.454909,2.493046,-0.066115,-0.137260,0.000000,-0.116410,-0.283640,-0.000000
1.210000,-2.577887,-0.847233,-1.399302,0.889216,-0.160911,-0.142253,1.342978,-0.647833,0.287516,2.460835,-0.971364,2.184356,-0.786050,3.702856,2.276433,-0.067264,-0.140108,0.000000,-0.113238,-0.284459,-0.000000
1.220000,-2.568927,-0.848875,-1.400710,0.902769,-0.167438,-0.139269,1.367547,-0.657362,0.309473,2.450657,-0.933090,2.206052,-1.223898,4.007074,2.054549,-0.068380,-0.142962,0.000000,-0.109786,-0.284792,0.000000
1.230000,-2.559831,-0.850582,-1.402087,0.916567,-0.174058,-0.136064,1.391991,-0.666494,0.331637,2.436357,-0.891223,2.225447,-1.624857,4.383414,1.817652,-0.069459,-0.145817,0.000000,-0.105936,-0.284683,0.000000
1.240000,-2.550596,-0.852356,-1.403431,0.930608,-0.180768,-0.132636,1.416274,-0.675186,0.353982,2.418160,-0.845421,2.242405,-2.031301,4.737812,1.572639,-0.070498,-0.148670,0.000000,-0.101646,-0.284147,-0.000000
1.250000,-2.541219,-0.854197,-1.404740,0.944892,-0.187562,-0.128984,1.440354,-0.683403,0.376485,2.395731,-0.796467,2.256900,-2.466549,5.025571,1.324374,-0.071492,-0.151515,0.000000,-0.096994,-0.283145,-0.000000
1.260000,-2.531698,-0.856107,-1.406011,0.959415,-0.194436,-0.125106,1.464188,-0.691116,0.399120,2.368829,-0.744910,2.268892,-2.896530,5.313512,1.066945,-0.072438,-0.154347,0.000000,-0.092035,-0.281646,0.000000
1.270000,-2.522031,-0.858086,-1.407242,0.974176,-0.201384,-0.121002,1.487731,-0.698301,0.421863,2.337800,-0.690196,2.278238,-3.263669,5.706147,0.789997,-0.073333,-0.157162,0.000000,-0.086707,-0.279676,-0.000000
1.280000,-2.512215,-0.860135,-1.408431,0.989170,-0.208402,-0.116669,1.510944,-0.704920,0.444685,2.303556,-0.630787,2.284692,-3.575078,6.182961,0.494810,-0.074172,-0.159956,0.000000,-0.080841,-0.277322,-0.000000
1.290000,-2.502247,-0.862254,-1.409575,1.004395,-0.215483,-0.112108,1.533802,-0.710917,0.467556,2.266299,-0.566537,2.288135,-3.903685,6.604271,0.194368,-0.074949,-0.162724,0.000000,-0.074417,-0.274595,-0.000000
1.300000,-2.492127,-0.864445,-1.410673,1.019846,-0.222620,-0.107318,1.556270,-0.716250,0.490447,2.225482,-0.498702,2.288579,-4.258838,6.958909,-0.110525,-0.075660,-0.165463,0.000000,-0.067562,-0.271435,-0.000000
1.310000,-2.481850,-0.866707,-1.411722,1.035520,-0.229808,-0.102299,1.578312,-0.720891,0.513328,2.181122,-0.427359,2.285924,-4.589151,7.338286,-0.429045,-0.076301,-0.168168,0.000000,-0.060280,-0.267834,0.000000
1.320000,-2.471416,-0.869041,-1.412719,1.051412,-0.237038,-0.097051,1.599893,-0.724798,0.536166,2.133699,-0.351936,2.279999,-4.875137,7.747443,-0.762382,-0.076866,-0.170835,0.000000,-0.052505,-0.263834,-0.000000
1.330000,-2.460822,-0.871447,-1.413663,1.067518,-0.244304,-0.091576,1.620986,-0.727929,0.558928,2.083619,-0.272410,2.270677,-5.129477,8.154476,-1.108949,-0.077351,-0.173460,0.000000,-0.044228,-0.259470,0.000000
1.340000,-2.450066,-0.873927,-1.414551,1.083832,-0.251597,-0.085873,1.641565,-0.730246,0.581579,2.031109,-0.188846,2.257820,-5.373294,8.555870,-1.468092,-0.077750,-0.176040,0.000000,-0.035452,-0.254756,0.000000
1.350000,-2.439145,-0.876479,-1.415380,1.100349,-0.258909,-0.079944,1.661608,-0.731706,0.604084,1.976153,-0.101293,2.241315,-5.630927,8.936663,-1.830757,-0.078059,-0.178571,0.000000,-0.026176,-0.249683,-0.000000
1.360000,-2.428059,-0.879105,-1.416149,1.117064,-0.266231,-0.073791,1.681088,-0.732272,0.626406,1.918491,-0.010113,2.221204,-5.885604,9.295993,-2.198330,-0.078273,-0.181049,0.000000,-0.016435,-0.244220,0.000000
1.370000,-2.416804,-0.881804,-1.416856,1.133971,-0.273554,-0.067416,1.699978,-0.731909,0.648508,1.858441,0.084627,2.197348,-6.062350,9.681768,-2.598864,-0.078388,-0.183470,0.000000,-0.006234,-0.238391,0.000000
1.380000,-2.405379,-0.884576,-1.417498,1.151064,-0.280869,-0.060821,1.718257,-0.730579,0.670353,1.797244,0.183522,2.169227,-6.162446,10.092928,-3.035502,-0.078398,-0.185831,0.000000,0.004503,-0.232311,0.000000
1.390000,-2.393783,-0.887421,-1.418072,1.168336,-0.288166,-0.054009,1.735922,-0.728238,0.691893,1.735192,0.286486,2.136638,-6.287639,10.458088,-3.469109,-0.078298,-0.188131,0.000000,0.015769,-0.226003,0.000000
1.400000,-2.382013,-0.890339,-1.418578,1.185782,-0.295434,-0.046983,1.752961,-0.724849,0.713085,1.671491,0.392684,2.099845,-6.457594,10.769777,-3.877548,-0.078082,-0.190365,0.000000,0.027476,-0.219382,0.000000
1.410000,-2.370067,-0.893330,-1.419012,1.203395,-0.302663,-0.039747,1.769352,-0.720384,0.733890,1.606040,0.501881,2.059087,-6.603154,11.071867,-4.288529,-0.077748,-0.192531,0.000000,0.039597,-0.212438,0.000000
1.420000,-2.357945,-0.896393,-1.419373,1.221169,-0.309842,-0.032305,1.785082,-0.714812,0.754267,1.539428,0.614121,2.014074,-6.689261,11.360329,-4.756785,-0.077290,-0.194626,0.000000,0.052141,-0.205224,-0.000000
1.430000,-2.345644,-0.899527,-1.419658,1.239097,-0.316959,-0.024662,1.800141,-0.708102,0.774171,1.472255,0.729088,1.963951,-6.741355,11.613891,-5.276465,-0.076705,-0.196648,0.000000,0.065082,-0.197780,-0.000000
1.440000,-2.333163,-0.902732,-1.419866,1.257172,-0.324004,-0.016822,1.814527,-0.700230,0.793546,1.404601,0.846399,1.908545,-6.802746,11.836297,-5.772806,-0.075988,-0.198594,0.000000,0.078379,-0.190109,0.000000
1.450000,-2.320500,-0.906007,-1.419995,1.275388,-0.330964,-0.008791,1.828233,-0.691174,0.812342,1.336200,0.965814,1.848495,-6.863372,12.042892,-6.220879,-0.075137,-0.200461,0.000000,0.091999,-0.182190,-0.000000
1.460000,-2.307655,-0.909351,-1.420042,1.293737,-0.337827,-0.000575,1.841251,-0.680914,0.830516,1.267333,1.087257,1.784127,-6.897250,12.224617,-6.670862,-0.074148,-0.202247,0.000000,0.105929,-0.174060,0.000000
1.470000,-2.294626,-0.912763,-1.420006,1.312213,-0.344582,0.007820,1.853579,-0.669429,0.848025,1.198255,1.210306,1.715078,-6.936847,12.334004,-7.178291,-0.073018,-0.203951,0.000000,0.120123,-0.165734,-0.000000
1.480000,-2.281411,-0.916243,-1.419886,1.330808,-0.351216,0.016386,1.865216,-0.656708,0.864818,1.128596,1.333937,1.640562,-6.992958,12.364352,-7.726028,-0.071746,-0.205571,0.000000,0.134469,-0.157154,-0.000000
1.490000,-2.268010,-0.919788,-1.419678,1.349517,-0.357716,0.025116,1.876151,-0.642750,0.880836,1.058396,1.457593,1.560557,-7.020993,12.375649,-8.238916,-0.070329,-0.207102,0.000000,0.148901,-0.148322,0.000000
1.500000,-2.254421,-0.923397,-1.419383,1.368331,-0.364071,0.034002,1.886384,-0.627556,0.896029,0.988177,1.581450,1.475783,-7.021647,12.406085,-8.709339,-0.068767,-0.208544,0.000000,0.163426,-0.139309,0.000000
1.510000,-2.240643,-0.927069,-1.418998,1.387245,-0.370267,0.043036,1.895915,-0.611121,0.910352,0.917963,1.705715,1.386371,-7.026384,12.408537,-9.184639,-0.067060,-0.209895,0.000000,0.178055,-0.130120,0.000000
1.520000,-2.226676,-0.930802,-1.418523,1.406250,-0.376293,0.052209,1.904743,-0.593442,0.923756,0.847649,1.829621,1.292091,-7.022453,12.276965,-9.670435,-0.065206,-0.211152,0.000000,0.192698,-0.120739,0.000000
1.530000,-2.212518,-0.934595,-1.417954,1.425339,-0.382136,0.061512,1.912868,-0.574529,0.936194,0.777514,1.951254,1.192962,-6.999345,12.016921,-10.146150,-0.063206,-0.212315,0.000000,0.207134,-0.111199,0.000000
1.540000,-2.198169,-0.938445,-1.417292,1.444507,-0.387784,0.070933,1.920293,-0.554416,0.947616,0.707662,2.069959,1.089168,-6.979260,11.768016,-10.604060,-0.061064,-0.213381,0.000000,0.221276,-0.101515,0.000000
1.550000,-2.183628,-0.942351,-1.416536,1.463745,-0.393224,0.080464,1.927021,-0.533130,0.957977,0.637929,2.186615,0.980881,-6.966363,11.576604,-11.055329,-0.058781,-0.214348,0.000000,0.235207,-0.091677,-0.000000
1.560000,-2.168894,-0.946310,-1.415683,1.483047,-0.398446,0.090093,1.933052,-0.510684,0.967233,0.568335,2.301491,0.868061,-6.946597,11.344355,-11.500095,-0.056360,-0.215217,0.000000,0.248942,-0.081691,0.000000
1.570000,-2.153967,-0.950320,-1.414734,1.502406,-0.403438,0.099809,1.938388,-0.487100,0.975338,0.498997,2.413502,0.750879,-6.920365,10.959435,-11.903458,-0.053802,-0.215985,0.000000,0.262347,-0.071575,-0.000000
1.580000,-2.138846,-0.954378,-1.413687,1.521815,-0.408188,0.109600,1.943032,-0.462414,0.982251,0.429927,2.520680,0.629992,-6.896115,10.449246,-12.260722,-0.051113,-0.216650,0.000000,0.275186,-0.061353,-0.000000
1.590000,-2.123531,-0.958483,-1.412542,1.541267,-0.412686,0.119454,1.946986,-0.436686,0.987938,0.361075,2.622487,0.505664,-6.873368,9.960013,-12.615642,-0.048299,-0.217213,0.000000,0.287382,-0.051030,0.000000
1.600000,-2.108021,-0.962632,-1.411298,1.560755,-0.416922,0.129358,1.950253,-0.409964,0.992364,0.292460,2.719880,0.377679,-6.834775,9.523323,-12.976395,-0.045365,-0.217672,0.000000,0.299028,-0.040611,-0.000000
1.610000,-2.092315,-0.966822,-1.409955,1.580272,-0.420886,0.139301,1.952836,-0.382289,0.995491,0.224379,2.812953,0.246137,-6.783623,9.041097,-13.309848,-0.042318,-0.218026,0.000000,0.310117,-0.030135,0.000000
1.620000,-2.076415,-0.971050,-1.408512,1.599812,-0.424568,0.149268,1.954741,-0.353705,0.997287,0.156788,2.900702,0.111482,-6.771064,8.444655,-13.595881,-0.039163,-0.218275,0.000000,0.320523,-0.019616,0.000000
1.630000,-2.060319,-0.975313,-1.406969,1.619367,-0.427960,0.159247,1.955971,-0.324274,0.997721,0.088958,2.981846,-0.025781,-6.800426,7.766014,-13.841316,-0.035908,-0.218419,0.000000,0.330086,-0.008996,-0.000000
1.640000,-2.044028,-0.979609,-1.405327,1.638931,-0.431053,0.169223,1.956520,-0.294068,0.996771,0.020779,3.056023,-0.165344,-6.802388,7.095243,-14.067782,-0.032562,-0.218455,0.000000,0.338752,0.001721,-0.000000
1.650000,-2.027541,-0.983934,-1.403585,1.658497,-0.433841,0.179182,1.956387,-0.263154,0.994414,-0.047090,3.123751,-0.307137,-6.757945,6.451858,-14.288842,-0.029134,-0.218384,0.000000,0.346568,0.012455,-0.000000
1.660000,-2.010858,-0.988286,-1.401743,1.678059,-0.436316,0.189111,1.955578,-0.231593,0.990628,-0.114380,3.185060,-0.451121,-6.715547,5.778683,-14.486722,-0.025631,-0.218206,0.000000,0.353527,0.023164,0.000000
1.670000,-1.993979,-0.992661,-1.399803,1.697609,-0.438473,0.198995,1.954099,-0.199453,0.985392,-0.181401,3.239325,-0.596871,-6.715668,5.033892,-14.617559,-0.022064,-0.217921,0.000000,0.359549,0.033864,0.000000
1.680000,-1.976906,-0.997055,-1.397763,1.717141,-0.440305,0.208819,1.951950,-0.166807,0.978691,-0.248693,3.285738,-0.743472,-6.740871,4.238508,-14.683016,-0.018441,-0.217529,0.000000,0.364534,0.044582,-0.000000
1.690000,-1.959637,-1.001467,-1.395626,1.736648,-0.441809,0.218568,1.949125,-0.133738,0.970522,-0.316218,3.324095,-0.890531,-6.740038,3.451374,-14.739740,-0.014774,-0.217029,0.000000,0.368457,0.055293,0.000000
1.700000,-1.942173,-1.005891,-1.393392,1.756123,-0.442980,0.228229,1.945626,-0.100325,0.960880,-0.383494,3.354765,-1.038267,-6.723813,2.684537,-14.801880,-0.011072,-0.216423,0.000000,0.371356,0.065942,0.000000
1.710000,-1.924514,-1.010326,-1.391062,1.775560,-0.443816,0.237786,1.941456,-0.066643,0.949757,-0.450695,3.377785,-1.186569,-6.724555,1.903452,-14.828985,-0.007347,-0.215711,0.000000,0.373235,0.076535,-0.000000
1.720000,-1.906661,-1.014768,-1.388636,1.794952,-0.444313,0.247224,1.936612,-0.032769,0.937149,-0.517985,3.392834,-1.334847,-6.705429,1.089519,-14.787503,-0.003608,-0.214893,0.000000,0.374058,0.087066,0.000000
1.730000,-1.888615,-1.019212,-1.386117,1.814293,-0.444471,0.256529,1.931096,0.001214,0.923060,-0.584803,3.399576,-1.482319,-6.652583,0.259947,-14.688563,0.000133,-0.213970,0.000000,0.373793,0.097448,-0.000000
1.740000,-1.870376,-1.023657,-1.383506,1.833574,-0.444289,0.265685,1.924916,0.035222,0.907503,-0.651037,3.398033,-1.628618,-6.619159,-0.555639,-14.573863,0.003867,-0.212944,0.000000,0.372450,0.107651,0.000000
1.750000,-1.851944,-1.028098,-1.380803,1.852791,-0.443766,0.274679,1.918075,0.069175,0.890488,-0.717186,3.388463,-1.773796,-6.616644,-1.364205,-14.453152,0.007582,-0.211817,0.000000,0.370066,0.117724,-0.000000
1.760000,-1.833320,-1.032532,-1.378012,1.871936,-0.442905,0.283495,1.910572,0.102991,0.872027,-0.783370,3.370749,-1.917681,-6.607906,-2.178666,-14.297564,0.011268,-0.210590,0.000000,0.366639,0.127666,0.000000
1.770000,-1.814505,-1.036956,-1.375133,1.891002,-0.441707,0.292120,1.902408,0.136590,0.852134,-0.849345,3.344890,-2.059748,-6.576022,-2.964763,-14.081675,0.014914,-0.209264,0.000000,0.362182,0.137433,-0.000000
1.780000,-1.795500,-1.041367,-1.372170,1.909984,-0.440173,0.300538,1.893585,0.169889,0.830832,-0.914890,3.311454,-2.199315,-6.535930,-3.710098,-13.811571,0.018511,-0.207841,0.000000,0.356773,0.146981,0.000000
1.790000,-1.776305,-1.045760,-1.369123,1.928874,-0.438309,0.308736,1.884110,0.202819,0.808148,-0.980063,3.270688,-2.335979,-6.507038,-4.455895,-13.520421,0.022049,-0.206324,0.000000,0.350457,0.156301,0.000000
1.800000,-1.756922,-1.050133,-1.365995,1.947666,-0.436117,0.316701,1.873984,0.235303,0.784112,-1.045031,3.222336,-2.469723,-6.471720,-5.219893,-13.232294,0.025520,-0.204715,0.000000,0.343224,0.165406,0.000000
1.810000,-1.737352,-1.054482,-1.362789,1.966354,-0.433603,0.324418,1.863209,0.267265,0.758753,-1.109498,3.166290,-2.600625,-6.418978,-5.967318,-12.923656,0.028914,-0.203015,0.000000,0.335082,0.174265,0.000000
1.820000,-1.717595,-1.058805,-1.359507,1.984930,-0.430772,0.331876,1.851794,0.298629,0.732100,-1.173410,3.102989,-2.728196,-6.399367,-6.646764,-12.529160,0.032221,-0.201228,0.000000,0.326098,0.182857,0.000000
1.830000,-1.697653,-1.063098,-1.356151,2.003390,-0.427630,0.339060,1.839741,0.329325,0.704189,-1.237485,3.033355,-2.851208,-6.417286,-7.262977,-12.053834,0.035435,-0.199357,0.000000,0.316398,0.191232,0.000000
1.840000,-1.677527,-1.067357,-1.352725,2.021725,-0.424185,0.345960,1.827044,0.359296,0.675075,-1.301756,2.957730,-2.969273,-6.402351,-7.877623,-11.587451,0.038549,-0.197402,0.000000,0.306042,0.199384,-0.000000
1.850000,-1.657219,-1.071581,-1.349232,2.039931,-0.420444,0.352562,1.813706,0.388480,0.644804,-1.365532,2.875802,-3.082957,-6.356831,-8.505923,-11.149563,0.041556,-0.195366,0.000000,0.295015,0.207254,0.000000
1.860000,-1.636729,-1.075766,-1.345674,2.057999,-0.416416,0.358856,1.799734,0.416812,0.613416,-1.428893,2.787611,-3.192264,-6.327350,-9.101246,-10.680475,0.044449,-0.193254,0.000000,0.283343,0.214852,-0.000000
1.870000,-1.616059,-1.079910,-1.342055,2.075925,-0.412108,0.364830,1.785128,0.444232,0.580959,-1.492079,2.693777,-3.296567,-6.288908,-9.619805,-10.144515,0.047223,-0.191066,0.000000,0.271116,0.222192,-0.000000
1.880000,-1.595210,-1.084008,-1.338378,2.093702,-0.407531,0.370475,1.769892,0.470688,0.547485,-1.554671,2.595215,-3.395154,-6.223551,-10.070530,-9.562684,0.049872,-0.188805,0.000000,0.258455,0.229221,-0.000000
1.890000,-1.574185,-1.088060,-1.334645,2.111323,-0.402694,0.375780,1.754035,0.496136,0.513056,-1.616550,2.492367,-3.487820,-6.169279,-10.505497,-8.982226,0.052392,-0.186476,0.000000,0.245426,0.235926,-0.000000
1.900000,-1.552984,-1.092062,-1.330862,2.128783,-0.397608,0.380736,1.737561,0.520535,0.477729,-1.678056,2.385105,-3.574799,-6.132960,-10.947651,-8.410018,0.054781,-0.184081,0.000000,0.232033,0.242355,0.000000
1.910000,-1.531609,-1.096012,-1.327031,2.146074,-0.392284,0.385335,1.720474,0.543838,0.441560,-1.739209,2.273414,-3.656021,-6.087684,-11.357542,-7.817486,0.057033,-0.181622,0.000000,0.218293,0.248513,0.000000
1.920000,-1.510062,-1.099908,-1.323155,2.163192,-0.386732,0.389567,1.702777,0.566003,0.404608,-1.799810,2.157955,-3.731149,-6.027948,-11.667862,-7.193363,0.059147,-0.179103,0.000000,0.204292,0.254382,-0.000000
1.930000,-1.488345,-1.103747,-1.319239,2.180130,-0.380964,0.393427,1.684477,0.586997,0.366937,-1.859768,2.040056,-3.799888,-5.962650,-11.885560,-6.549967,0.061120,-0.176526,0.000000,0.190186,0.259953,0.000000
1.940000,-1.466460,-1.107527,-1.315287,2.196882,-0.374992,0.396906,1.665582,0.606804,0.328610,-1.919063,1.920243,-3.862148,-5.896586,-12.097565,-5.904723,0.062951,-0.173894,0.000000,0.176040,0.265232,0.000000
1.950000,-1.444408,-1.111247,-1.311301,2.213441,-0.368827,0.399999,1.646096,0.625402,0.289694,-1.977700,1.798105,-3.917982,-5.830421,-12.328608,-5.258292,0.064641,-0.171211,0.000000,0.161822,0.270230,0.000000
1.960000,-1.422191,-1.114904,-1.307287,2.229804,-0.362484,0.402700,1.626028,0.642766,0.250251,-2.035671,1.673671,-3.967314,-5.761057,-12.517315,-4.602832,0.066188,-0.168479,0.000000,0.147546,0.274955,-0.000000
1.970000,-1.399812,-1.118497,-1.303247,2.245962,-0.355972,0.405004,1.605383,0.658876,0.210347,-2.092921,1.547759,-4.010039,-5.683697,-12.603422,-3.943751,0.067592,-0.165700,0.000000,0.133304,0.279407,-0.000000
1.980000,-1.377272,-1.122023,-1.299187,2.261911,-0.349306,0.406907,1.584169,0.673722,0.170050,-2.149345,1.421603,-4.046189,-5.599012,-12.603596,-3.287771,0.068854,-0.162878,0.000000,0.119226,0.283588,-0.000000
1.990000,-1.354573,-1.125483,-1.295109,2.277645,-0.342498,0.408405,1.562396,0.687308,0.129424,-2.204901,1.295687,-4.075795,-5.513230,-12.595243,-2.631330,0.069977,-0.160015,0.000000,0.105366,0.287505,-0.000000
2.000000,-1.331719,-1.128873,-1.291019,2.293159,-0.335560,0.409495,1.540071,0.699635,0.088534,-2.259610,1.169698,-4.098815,-5.427980,-12.598731,-1.968050,0.070962,-0.157114,0.000000,0.091693,0.291168,-0.000000
2.010000,-1.308710,-1.132194,-1.286919,2.308447,-0.328505,0.410176,1.517204,0.710702,0.047447,-2.313461,1.043712,-4.115156,-5.339014,-12.561351,-1.304559,0.071812,-0.154177,0.000000,0.078216,0.294588,-0.000000
2.020000,-1.285550,-1.135443,-1.282815,2.323503,-0.321346,0.410444,1.493802,0.720510,0.006231,-2.366390,0.918471,-4.124907,-5.242617,-12.433765,-0.664846,0.072527,-0.151207,0.000000,0.065009,0.297769,-0.000000
2.030000,-1.262240,-1.138621,-1.278710,2.338323,-0.314095,0.410300,1.469876,0.729071,-0.035051,-2.418313,0.795037,-4.128452,-5.140079,-12.231859,-0.051543,0.073112,-0.148206,0.000000,0.052173,0.300719,-0.000000
2.040000,-1.238783,-1.141725,-1.274609,2.352901,-0.306764,0.409743,1.445436,0.736410,-0.076338,-2.469192,0.673834,-4.125937,-5.036246,-12.020665,0.563711,0.073571,-0.145177,0.000000,0.039745,0.303448,-0.000000
2.050000,-1.215182,-1.144756,-1.270515,2.367232,-0.299367,0.408773,1.420492,0.742548,-0.117570,-2.519038,0.554624,-4.117178,-4.932210,-11.815655,1.192492,0.073908,-0.142121,0.000000,0.027695,0.305964,0.000000
2.060000,-1.191439,-1.147713,-1.266434,2.381311,-0.291913,0.407392,1.395055,0.747503,-0.158682,-2.567836,0.437521,-4.102088,-4.824811,-11.574214,1.811720,0.074125,-0.139041,0.000000,0.016032,0.308274,-0.000000
2.070000,-1.167556,-1.150594,-1.262368,2.395133,-0.284417,0.405600,1.369135,0.751298,-0.199611,-2.615534,0.323139,-4.080944,-4.711669,-11.262543,2.386960,0.074229,-0.135938,0.000000,0.004806,0.310388,0.000000
2.080000,-1.143536,-1.153401,-1.258322,2.408693,-0.276887,0.403400,1.342744,0.753966,-0.240301,-2.662069,0.212270,-4.054348,-4.593896,-10.895280,2.921405,0.074222,-0.132816,0.000000,-0.005918,0.312318,-0.000000
2.090000,-1.119382,-1.156132,-1.254300,2.421988,-0.269337,0.400794,1.315894,0.755544,-0.280698,-2.707412,0.105234,-4.022516,-4.474688,-10.518431,3.457253,0.074111,-0.129675,0.000000,-0.016118,0.314072,-0.000000
2.100000,-1.095096,-1.158788,-1.250306,2.435011,-0.261777,0.397786,1.288596,0.756070,-0.320751,-2.751563,0.001901,-3.985203,-4.354363,-10.141213,4.007401,0.073900,-0.126517,0.000000,-0.025815,0.315656,0.000000
2.110000,-1.070682,-1.161368,-1.246344,2.447760,-0.254216,0.394379,1.260863,0.755582,-0.360402,-2.794499,-0.097590,-3.942368,-4.230972,-9.735262,4.540364,0.073595,-0.123344,0.000000,-0.035006,0.317077,0.000000
2.120000,-1.046141,-1.163872,-1.242418,2.460228,-0.246665,0.390578,1.232706,0.754118,-0.399598,-2.836183,-0.192804,-3.894396,-4.104313,-9.284160,5.020499,0.073200,-0.120158,0.000000,-0.043659,0.318343,0.000000
2.130000,-1.021477,-1.166301,-1.238532,2.472414,-0.239133,0.386387,1.204139,0.751726,-0.438290,-2.876586,-0.283274,-3.841958,-3.975167,-8.799558,5.454457,0.072722,-0.116960,0.000000,-0.051746,0.319469,-0.000000
2.140000,-0.996693,-1.168655,-1.234690,2.484311,-0.231630,0.381812,1.175174,0.748453,-0.476437,-2.915686,-0.368795,-3.785307,-3.843927,-8.305716,5.886534,0.072165,-0.113752,0.000000,-0.059260,0.320461,-0.000000
2.150000,-0.971791,-1.170934,-1.230896,2.495917,-0.224164,0.376858,1.145825,0.744350,-0.513996,-2.953464,-0.449388,-3.724227,-3.711046,-7.805675,6.330981,0.071537,-0.110534,0.000000,-0.066211,0.321322,-0.000000
2.160000,-0.946774,-1.173138,-1.227153,2.507228,-0.216743,0.371532,1.116105,0.739465,-0.550922,-2.989907,-0.524909,-3.658687,-3.576455,-7.286663,6.755860,0.070841,-0.107309,0.000000,-0.072595,0.322058,-0.000000
2.170000,-0.921646,-1.175268,-1.223465,2.518239,-0.209375,0.365840,1.086027,0.733852,-0.587170,-3.024993,-0.595121,-3.589110,-3.439130,-6.748401,7.122800,0.070085,-0.104077,0.000000,-0.078404,0.322678,0.000000
2.180000,-0.896410,-1.177325,-1.219836,2.528948,-0.202066,0.359788,1.055605,0.727563,-0.622704,-3.058689,-0.659877,-3.516231,-3.299126,-6.198523,7.439075,0.069273,-0.100839,0.000000,-0.083638,0.323191,-0.000000
2.190000,-0.871067,-1.179310,-1.216270,2.539351,-0.194824,0.353386,1.024853,0.720654,-0.657495,-3.090976,-0.719092,-3.440328,-3.158188,-5.640828,7.754075,0.068412,-0.097597,0.000000,-0.088300,0.323604,0.000000
2.200000,-0.845623,-1.181222,-1.212769,2.549445,-0.187653,0.346639,0.993786,0.713181,-0.691511,-3.121853,-0.772693,-3.361150,-3.017338,-5.073224,8.084248,0.067507,-0.094352,0.000000,-0.092392,0.323918,-0.000000
2.210000,-0.820079,-1.183063,-1.209337,2.559227,-0.180560,0.339555,0.962416,0.705200,-0.724718,-3.151323,-0.820556,-3.278643,-2.875569,-4.497109,8.395132,0.066564,-0.091104,0.000000,-0.095910,0.324138,-0.000000
2.220000,-0.794438,-1.184833,-1.205978,2.568694,-0.173549,0.332144,0.930759,0.696770,-0.757084,-3.179365,-0.862636,-3.193247,-2.730843,-3.924949,8.645217,0.065589,-0.087854,0.000000,-0.098862,0.324271,-0.000000
2.230000,-0.768705,-1.186534,-1.202694,2.577842,-0.166625,0.324414,0.898829,0.687947,-0.788583,-3.205939,-0.899055,-3.105739,-2.583677,-3.360222,8.843797,0.064587,-0.084604,0.000000,-0.101271,0.324324,0.000000
2.240000,-0.742881,-1.188166,-1.199489,2.586670,-0.159790,0.316373,0.866640,0.678789,-0.819198,-3.231038,-0.929840,-3.016371,-2.437145,-2.790315,9.045686,0.063564,-0.081354,0.000000,-0.103149,0.324299,-0.000000
2.250000,-0.716971,-1.189730,-1.196367,2.595175,-0.153049,0.308030,0.834208,0.669351,-0.848910,-3.254682,-0.954861,-2.924825,-2.291337,-2.209602,9.265019,0.062524,-0.078105,0.000000,-0.104488,0.324200,-0.000000
2.260000,-0.690978,-1.191227,-1.193329,2.603354,-0.146403,0.299394,0.801547,0.659691,-0.877695,-3.276865,-0.974032,-2.831071,-2.144484,-1.630431,9.465023,0.061474,-0.074857,0.000000,-0.105288,0.324029,-0.000000
2.270000,-0.664904,-1.192658,-1.190379,2.611206,-0.139855,0.290476,0.768671,0.649870,-0.905532,-3.297572,-0.987470,-2.735525,-1.997527,-1.073353,9.614135,0.060418,-0.071612,0.000000,-0.105566,0.323789,-0.000000
2.280000,-0.638754,-1.194024,-1.187519,2.618728,-0.133406,0.281284,0.735595,0.639942,-0.932405,-3.316815,-0.995499,-2.638788,-1.851587,-0.538197,9.724900,0.059363,-0.068369,0.000000,-0.105362,0.323489,0.000000
2.290000,-0.612530,-1.195326,-1.184753,2.625918,-0.127056,0.271828,0.702335,0.629960,-0.958307,-3.334604,-0.998234,-2.541027,-1.705540,-0.001696,9.839274,0.058311,-0.065130,0.000000,-0.104691,0.323132,0.000000
2.300000,-0.586235,-1.196565,-1.182083,2.632774,-0.120807,0.262118,0.668903,0.619977,-0.983226,-3.350926,-0.995533,-2.442003,-1.557615,0.543463,9.961324,0.057269,-0.061895,0.000000,-0.103543,0.322716,0.000000
2.310000,-0.559874,-1.197742,-1.179511,2.639296,-0.114657,0.252163,0.635316,0.610049,-1.007147,-3.365756,-0.987365,-2.341800,-1.409013,1.078223,10.064679,0.056240,-0.058665,0.000000,-0.101919,0.322241,-0.000000
2.320000,-0.533449,-1.198858,-1.177039,2.645481,-0.108606,0.241975,0.601588,0.600230,-1.030062,-3.379107,-0.973969,-2.240709,-1.264969,1.578983,10.145570,0.055230,-0.055440,0.000000,-0.099845,0.321712,-0.000000
2.330000,-0.506965,-1.199914,-1.174671,2.651328,-0.102652,0.231562,0.567734,0.590570,-1.051962,-3.391055,-0.955785,-2.138889,-1.125636,2.048590,10.215878,0.054243,-0.052221,0.000000,-0.097366,0.321136,0.000000
2.340000,-0.480423,-1.200911,-1.172408,2.656835,-0.096794,0.220935,0.533767,0.581114,-1.072840,-3.401619,-0.932997,-2.036392,-0.984178,2.514612,10.280666,0.053283,-0.049007,0.000000,-0.094499,0.320517,-0.000000
2.350000,-0.453828,-1.201850,-1.170252,2.662003,-0.091030,0.210105,0.499702,0.571910,-1.092689,-3.410739,-0.905493,-1.933276,-0.838677,2.984424,10.330612,0.052353,-0.045801,0.000000,-0.091237,0.319850,0.000000
2.360000,-0.427183,-1.202732,-1.168206,2.666829,-0.085356,0.199082,0.465552,0.563005,-1.111505,-3.418393,-0.873308,-1.829779,-0.694032,3.436729,10.365389,0.051458,-0.042601,0.000000,-0.087585,0.319135,0.000000
2.370000,-0.400491,-1.203557,-1.166271,2.671314,-0.079770,0.187875,0.431334,0.554444,-1.129285,-3.424620,-0.836758,-1.725968,-0.554819,3.849005,10.413575,0.050601,-0.039409,0.000000,-0.083571,0.318374,0.000000
2.380000,-0.373757,-1.204327,-1.164449,2.675456,-0.074267,0.176496,0.397060,0.546269,-1.146025,-3.429489,-0.796328,-1.621508,-0.419470,4.225509,10.478897,0.049786,-0.036225,0.000000,-0.079240,0.317575,-0.000000
2.390000,-0.346982,-1.205042,-1.162741,2.679255,-0.068844,0.164955,0.362744,0.538517,-1.161715,-3.433009,-0.752248,-1.516390,-0.282259,4.592891,10.524077,0.049016,-0.033050,0.000000,-0.074611,0.316738,-0.000000
2.400000,-0.320171,-1.205704,-1.161149,2.682711,-0.063497,0.153262,0.328400,0.531224,-1.176352,-3.435134,-0.704470,-1.411026,-0.143784,4.957678,10.537807,0.048294,-0.029883,0.000000,-0.069681,0.315861,0.000000
2.410000,-0.293328,-1.206312,-1.159676,2.685823,-0.058220,0.141428,0.294041,0.524428,-1.189936,-3.435885,-0.653095,-1.305634,-0.007899,5.299870,10.547554,0.047622,-0.026725,0.000000,-0.064460,0.314945,-0.000000
2.420000,-0.266455,-1.206868,-1.158321,2.688592,-0.053008,0.129463,0.259682,0.518162,-1.202465,-3.435292,-0.598473,-1.200075,0.127538,5.600057,10.580642,0.047005,-0.023576,0.000000,-0.058977,0.313994,0.000000
2.430000,-0.239556,-1.207372,-1.157086,2.691017,-0.047857,0.117378,0.225335,0.512458,-1.213937,-3.433334,-0.541093,-1.094021,0.264139,5.862706,10.629647,0.046443,-0.020438,0.000000,-0.053273,0.313003,0.000000
2.440000,-0.212635,-1.207825,-1.155973,2.693099,-0.042759,0.105184,0.191015,0.507341,-1.224345,-3.430010,-0.481219,-0.987482,0.398545,6.111020,10.660838,0.045939,-0.017309,0.000000,-0.047370,0.311975,0.000000
2.450000,-0.185694,-1.208228,-1.154983,2.694837,-0.037710,0.092891,0.156735,0.502834,-1.233687,-3.425363,-0.418873,-0.880804,0.528625,6.350738,10.670462,0.045495,-0.014191,0.000000,-0.041269,0.310912,-0.000000
2.460000,-0.158738,-1.208580,-1.154116,2.696233,-0.032703,0.080510,0.122508,0.498963,-1.241962,-3.419437,-0.354204,-0.774073,0.656740,6.564788,10.682013,0.045114,-0.011084,0.000000,-0.034982,0.309819,0.000000
2.470000,-0.131769,-1.208882,-1.153373,2.697287,-0.027731,0.068052,0.088346,0.495750,-1.249168,-3.412228,-0.287577,-0.667164,0.787616,6.736528,10.704222,0.044796,-0.007988,0.000000,-0.028539,0.308695,0.000000
2.480000,-0.104792,-1.209134,-1.152754,2.698000,-0.022788,0.055527,0.054263,0.493212,-1.255305,-3.403685,-0.219474,-0.559989,0.920563,6.869898,10.730009,0.044543,-0.004904,0.000000,-0.021979,0.307535,-0.000000
2.490000,-0.077809,-1.209337,-1.152262,2.698373,-0.017866,0.042946,0.020273,0.491360,-1.260368,-3.393817,-0.150179,-0.452564,1.049090,6.985195,10.750136,0.044356,-0.001831,0.000000,-0.015325,0.306340,-0.000000
2.500000,-0.050825,-1.209492,-1.151896,2.698406,-0.012960,0.030320,-0.013613,0.490208,-1.264356,-3.382703,-0.079770,-0.344986,1.172264,7.087980,10.762355,0.044236,0.001229,0.000000,-0.008582,0.305116,0.000000
2.510000,-0.023841,-1.209597,-1.151656,2.698100,-0.008062,0.017659,-0.047381,0.489765,-1.267268,-3.370372,-0.008420,-0.237317,1.294318,7.163582,10.773266,0.044184,0.004277,0.000000,-0.001761,0.303866,-0.000000
2.520000,0.003137,-1.209653,-1.151542,2.697458,-0.003165,0.004974,-0.081020,0.490040,-1.269102,-3.356817,0.063502,-0.129521,1.416401,7.196619,10.791462,0.044201,0.007313,0.000000,0.005107,0.302589,-0.000000
2.530000,0.030108,-1.209660,-1.151556,2.696480,0.001739,-0.007723,-0.114518,0.491035,-1.269858,-3.342044,0.135513,-0.021487,1.536774,7.190544,10.815770,0.044286,0.010335,0.000000,0.011982,0.301284,-0.000000
2.540000,0.057067,-1.209618,-1.151697,2.695168,0.006656,-0.020423,-0.147861,0.492750,-1.269532,-3.326081,0.207313,0.086795,1.653977,7.164717,10.835192,0.044441,0.013345,0.000000,0.018843,0.299955,-0.000000
2.550000,0.084011,-1.209527,-1.151965,2.693523,0.011594,-0.033114,-0.181039,0.495181,-1.268122,-3.308964,0.278807,0.195216,1.768983,7.125274,10.845053,0.044663,0.016341,0.000000,0.025682,0.298604,-0.000000
2.560000,0.110937,-1.209386,-1.152359,2.691547,0.016559,-0.045785,-0.214040,0.498326,-1.265628,-3.290701,0.349818,0.303696,1.882427,7.058555,10.853247,0.044954,0.019323,0.000000,0.032488,0.297230,0.000000
2.570000,0.137842,-1.209196,-1.152880,2.689242,0.021560,-0.058426,-0.246853,0.502178,-1.262048,-3.271316,0.419978,0.412281,1.991229,6.948459,10.872133,0.045313,0.022291,0.000000,0.039230,0.295836,0.000000
2.580000,0.164722,-1.208955,-1.153528,2.686610,0.026603,-0.071026,-0.279467,0.506726,-1.257382,-3.250877,0.488788,0.521139,2.094744,6.798235,10.900548,0.045739,0.025246,0.000000,0.045869,0.294428,0.000000
2.590000,0.191574,-1.208664,-1.154301,2.683653,0.031695,-0.083574,-0.311871,0.511954,-1.251626,-3.229421,0.555943,0.630292,2.197016,6.628945,10.921941,0.046231,0.028186,0.000000,0.052380,0.293008,0.000000
2.600000,0.218395,-1.208321,-1.155199,2.680372,0.036842,-0.096059,-0.344055,0.517844,-1.244776,-3.206937,0.621366,0.739577,2.299441,6.448141,10.926881,0.046787,0.031113,0.000000,0.058759,0.291575,-0.000000
2.610000,0.245182,-1.207927,-1.156222,2.676772,0.042051,-0.108470,-0.376010,0.524381,-1.236834,-3.183432,0.684906,0.848830,2.399015,6.241330,10.927012,0.047406,0.034025,0.000000,0.064994,0.290129,0.000000
2.620000,0.271931,-1.207480,-1.157369,2.672852,0.047330,-0.120795,-0.407724,0.531543,-1.227800,-3.158956,0.746193,0.958118,2.492285,5.989800,10.946741,0.048087,0.036922,0.000000,0.071056,0.288672,-0.000000
2.630000,0.298639,-1.206980,-1.158638,2.668617,0.052682,-0.133026,-0.439189,0.539305,-1.217672,-3.133586,0.804702,1.067765,2.580116,5.697206,10.984155,0.048827,0.039805,0.000000,0.076902,0.287214,0.000000
2.640000,0.325303,-1.206426,-1.160029,2.664068,0.058116,-0.145149,-0.470396,0.547637,-1.206444,-3.107354,0.860137,1.177801,2.666826,5.388803,11.005706,0.049625,0.042673,0.000000,0.082506,0.285756,0.000000
2.650000,0.351920,-1.205818,-1.161541,2.659209,0.063635,-0.157154,-0.501336,0.556507,-1.194116,-3.080250,0.912478,1.287879,2.752209,5.073954,10.996989,0.050477,0.045527,0.000000,0.087869,0.284297,0.000000
2.660000,0.378487,-1.205154,-1.163172,2.654042,0.069246,-0.169031,-0.532001,0.565886,-1.180687,-3.052310,0.961616,1.397740,2.833286,4.735728,10.980791,0.051382,0.048367,0.000000,0.092981,0.282836,-0.000000
2.670000,0.405001,-1.204433,-1.164921,2.648569,0.074953,-0.180768,-0.562382,0.575740,-1.166161,-3.023584,1.007192,1.507495,2.910949,4.351963,10.991264,0.052337,0.051192,0.000000,0.097812,0.281380,-0.000000
2.680000,0.431459,-1.203655,-1.166787,2.642794,0.080761,-0.192354,-0.592472,0.586030,-1.150537,-2.994091,1.048656,1.617566,2.986338,3.927309,11.021520,0.053339,0.054002,0.000000,0.102315,0.279930,0.000000
2.690000,0.457857,-1.202818,-1.168769,2.636720,0.086673,-0.203779,-0.622264,0.596713,-1.133810,-2.963857,1.085738,1.727925,3.057842,3.492354,11.024824,0.054384,0.056799,0.000000,0.106467,0.278489,0.000000
2.700000,0.484193,-1.201921,-1.170863,2.630349,0.092695,-0.215031,-0.651749,0.607745,-1.115978,-2.932934,1.118503,1.838062,3.124203,3.058232,10.991917,0.055468,0.059581,0.000000,0.110271,0.277058,-0.000000
2.710000,0.510464,-1.200964,-1.173069,2.623685,0.098828,-0.226098,-0.680922,0.619083,-1.097048,-2.901373,1.146903,1.947763,3.186521,2.604935,10.953046,0.056589,0.062349,0.000000,0.113723,0.275640,-0.000000
2.720000,0.536667,-1.199945,-1.175385,2.616730,0.105076,-0.236972,-0.709777,0.630683,-1.077023,-2.869203,1.170601,2.057123,3.247444,2.107362,10.924252,0.057743,0.065103,0.000000,0.116792,0.274237,0.000000
2.730000,0.562799,-1.198862,-1.177809,2.609489,0.111442,-0.247639,-0.738306,0.642495,-1.055906,-2.836424,1.189050,2.166249,3.306563,1.571601,10.893549,0.058925,0.067843,0.000000,0.119428,0.272849,-0.000000
2.740000,0.588857,-1.197716,-1.180338,2.601964,0.117926,-0.258090,-0.766505,0.654464,-1.033698,-2.803072,1.202033,2.274994,3.360165,1.032855,10.839117,0.060132,0.070569,0.000000,0.121608,0.271477,0.000000
2.750000,0.614838,-1.196504,-1.182970,2.594159,0.124531,-0.268313,-0.794368,0.666536,-1.010406,-2.769221,1.209707,2.383031,3.408120,0.503084,10.763118,0.061357,0.073282,0.000000,0.123343,0.270126,0.000000
2.760000,0.640740,-1.195225,-1.185704,2.586077,0.131257,-0.278298,-0.821890,0.678658,-0.986038,-2.734910,1.212095,2.490256,3.452773,-0.040130,10.677533,0.062599,0.075982,0.000000,0.124632,0.268797,0.000000
2.770000,0.666559,-1.193879,-1.188536,2.577721,0.138104,-0.288034,-0.849066,0.690778,-0.960601,-2.700166,1.208905,2.596582,3.493458,-0.622244,10.570856,0.063850,0.078669,0.000000,0.125444,0.267491,-0.000000
2.780000,0.692294,-1.192463,-1.191465,2.569096,0.145073,-0.297510,-0.875893,0.702836,-0.934106,-2.665041,1.199650,2.701674,3.528896,-1.235633,10.435323,0.065108,0.081343,0.000000,0.125730,0.266208,0.000000
2.790000,0.717941,-1.190977,-1.194487,2.560203,0.152161,-0.306716,-0.902367,0.714771,-0.906567,-2.629588,1.184192,2.805288,3.560085,-1.843901,10.285369,0.066365,0.084005,0.000000,0.125469,0.264951,0.000000
2.800000,0.743498,-1.189420,-1.197599,2.551048,0.159368,-0.315641,-0.928485,0.726520,-0.878000,-2.593839,1.162772,2.907381,3.589386,-2.435889,10.132695,0.067617,0.086654,0.000000,0.124679,0.263719,0.000000
2.810000,0.768962,-1.187790,-1.200799,2.541634,0.166691,-0.324276,-0.954244,0.738026,-0.848420,-2.557800,1.135474,3.007942,3.615763,-3.033977,9.964453,0.068859,0.089292,0.000000,0.123361,0.262513,-0.000000
2.820000,0.794331,-1.186086,-1.204085,2.531963,0.174129,-0.332610,-0.979641,0.749229,-0.817841,-2.521524,1.102093,3.106670,3.632614,-3.659878,9.747489,0.070084,0.091917,0.000000,0.121487,0.261332,0.000000
2.830000,0.819602,-1.184307,-1.207452,2.522041,0.181676,-0.340633,-1.004674,0.760068,-0.786286,-2.485148,1.062277,3.202892,3.639565,-4.304920,9.481921,0.071288,0.094531,0.000000,0.119014,0.260182,-0.000000
2.840000,0.844772,-1.182453,-1.210897,2.511870,0.189330,-0.348335,-1.029344,0.770475,-0.753784,-2.448732,1.015994,3.296308,3.645599,-4.937033,9.210438,0.072465,0.097134,0.000000,0.115927,0.259062,-0.000000
2.850000,0.869839,-1.180521,-1.214418,2.501454,0.197086,-0.355708,-1.053649,0.780388,-0.720360,-2.412236,0.963536,3.387100,3.654625,-5.547870,8.949156,0.073607,0.099726,0.000000,0.112246,0.257968,-0.000000
2.860000,0.894801,-1.178511,-1.218011,2.490797,0.204938,-0.362743,-1.077588,0.789746,-0.686042,-2.375640,0.905037,3.475292,3.660315,-6.156004,8.666901,0.074710,0.102308,0.000000,0.107974,0.256896,-0.000000
2.870000,0.919655,-1.176422,-1.221673,2.479902,0.212880,-0.369429,-1.101162,0.798488,-0.650854,-2.339029,0.840416,3.560438,3.653176,-6.774616,8.322179,0.075766,0.104879,0.000000,0.103090,0.255847,0.000000
2.880000,0.944399,-1.174253,-1.225400,2.468774,0.220907,-0.375760,-1.124369,0.806554,-0.614833,-2.302576,0.769544,3.641735,3.634874,-7.395033,7.922089,0.076771,0.107440,0.000000,0.097567,0.254826,-0.000000
2.890000,0.969030,-1.172004,-1.229188,2.457415,0.229012,-0.381726,-1.147213,0.813879,-0.578020,-2.266332,0.692515,3.718880,3.618155,-7.995981,7.520317,0.077718,0.109990,0.000000,0.091397,0.253830,-0.000000
2.900000,0.993547,-1.169673,-1.233034,2.445829,0.237185,-0.387320,-1.169696,0.820404,-0.540455,-2.230213,0.609625,3.792141,3.605984,-8.574018,7.132417,0.078599,0.112532,0.000000,0.084600,0.252851,0.000000
2.910000,1.017947,-1.167260,-1.236935,2.434021,0.245420,-0.392535,-1.191817,0.826072,-0.502177,-2.194212,0.521035,3.861529,3.589843,-9.139639,6.721161,0.079409,0.115063,0.000000,0.077178,0.251885,-0.000000
2.920000,1.042228,-1.164765,-1.240885,2.421993,0.253706,-0.397364,-1.213580,0.830825,-0.463225,-2.158416,0.426832,3.926565,3.563570,-9.692748,6.248846,0.080142,0.117585,0.000000,0.069124,0.250931,0.000000
2.930000,1.066387,-1.162186,-1.244882,2.409749,0.262036,-0.401799,-1.234986,0.834608,-0.423646,-2.122941,0.327180,3.986505,3.530012,-10.226005,5.725615,0.080792,0.120098,0.000000,0.060435,0.249987,-0.000000
2.940000,1.090423,-1.159524,-1.248921,2.397293,0.270399,-0.405836,-1.256039,0.837369,-0.383494,-2.087816,0.222312,4.041077,3.497404,-10.735497,5.200815,0.081351,0.122602,0.000000,0.051117,0.249047,-0.000000
2.950000,1.114333,-1.156778,-1.252999,2.384629,0.278783,-0.409469,-1.276742,0.839055,-0.342824,-2.052993,0.112470,4.090522,3.467522,-11.224529,4.690134,0.081814,0.125096,0.000000,0.041183,0.248105,0.000000
2.960000,1.138115,-1.153948,-1.257111,2.371759,0.287180,-0.412693,-1.297099,0.839618,-0.301684,-2.018466,-0.002179,4.134880,3.435198,-11.691348,4.160396,0.082174,0.127580,0.000000,0.030637,0.247155,-0.000000
2.970000,1.161768,-1.151034,-1.261253,2.358687,0.295576,-0.415503,-1.317111,0.839011,-0.260126,-1.984289,-0.121357,4.173730,3.396832,-12.118864,3.573748,0.082426,0.130056,0.000000,0.019489,0.246192,-0.000000
2.980000,1.185289,-1.148037,-1.265421,2.345416,0.303960,-0.417895,-1.336784,0.837191,-0.218209,-1.950529,-0.244556,4.206355,3.354335,-12.502625,2.939708,0.082563,0.132521,0.000000,0.007770,0.245208,0.000000
2.990000,1.208676,-1.144955,-1.269610,2.331951,0.312320,-0.419867,-1.356122,0.834120,-0.175999,-1.917202,-0.371409,4.232524,3.312883,-12.861352,2.309687,0.082581,0.134977,0.000000,-0.004497,0.244194,0.000000
3.000000,1.231928,-1.141790,-1.273818,2.318294,0.320642,-0.421415,-1.375128,0.829763,-0.133559,-1.884271,-0.501783,4.252548,3.274014,-13.206050,1.700202,0.082473,0.137422,0.000000,-0.017307,0.243145,-0.000000
3.010000,1.255042,-1.138542,-1.278039,2.304448,0.328915,-0.422538,-1.393807,0.824084,-0.090948,-1.851722,-0.635530,4.266528,3.234743,-13.519593,1.077660,0.082234,0.139856,0.000000,-0.030655,0.242054,0.000000
3.020000,1.278017,-1.135212,-1.282269,2.290418,0.337124,-0.423234,-1.412163,0.817052,-0.048228,-1.819577,-0.772175,4.274102,3.192176,-13.766659,0.405088,0.081859,0.142279,0.000000,-0.044507,0.240911,-0.000000
3.030000,1.300850,-1.131800,-1.286503,2.276205,0.345256,-0.423503,-1.430199,0.808641,-0.005466,-1.787878,-0.910863,4.274630,3.147685,-13.947181,-0.306464,0.081344,0.144690,0.000000,-0.058792,0.239704,-0.000000
3.040000,1.323541,-1.128307,-1.290739,2.261814,0.353297,-0.423344,-1.447920,0.798835,0.037264,-1.756623,-1.051118,4.267972,3.105779,-14.104558,-1.005568,0.080683,0.147089,0.000000,-0.073467,0.238423,0.000000
3.050000,1.346087,-1.124734,-1.294970,2.247247,0.361233,-0.422758,-1.465331,0.787618,0.079893,-1.725763,-1.192955,4.254518,3.067268,-14.257175,-1.679166,0.079874,0.149474,0.000000,-0.088537,0.237061,0.000000
3.060000,1.368486,-1.121082,-1.299194,2.232507,0.369049,-0.421746,-1.482436,0.774976,0.122355,-1.695278,-1.336262,4.234389,3.029759,-14.371712,-2.359513,0.078912,0.151845,0.000000,-0.103994,0.235609,0.000000
3.070000,1.390737,-1.117353,-1.303405,2.217598,0.376732,-0.420311,-1.499237,0.760893,0.164581,-1.665167,-1.480389,4.207328,2.992773,-14.396627,-3.071445,0.077793,0.154201,0.000000,-0.119775,0.234057,0.000000
3.080000,1.412838,-1.113548,-1.307600,2.202522,0.384267,-0.418454,-1.515739,0.745368,0.206501,-1.635422,-1.624194,4.172960,2.957754,-14.337224,-3.802333,0.076516,0.156541,0.000000,-0.135767,0.232388,0.000000
3.090000,1.434787,-1.109668,-1.311774,2.187283,0.391640,-0.416180,-1.531945,0.728409,0.248040,-1.606012,-1.767133,4.131281,2.926003,-14.259320,-4.516327,0.075077,0.158862,0.000000,-0.151910,0.230592,0.000000
3.100000,1.456583,-1.105715,-1.315924,2.171883,0.398835,-0.413493,-1.547859,0.710025,0.289127,-1.576902,-1.909381,4.082634,2.896966,-14.186912,-5.207723,0.073477,0.161165,0.000000,-0.168216,0.228661,0.000000
3.110000,1.478225,-1.101691,-1.320044,2.156326,0.405840,-0.410398,-1.563483,0.690222,0.329693,-1.548073,-2.050872,4.027127,2.870545,-14.072656,-5.896935,0.071712,0.163448,0.000000,-0.184670,0.226587,-0.000000
3.120000,1.499710,-1.097598,-1.324132,2.140614,0.412640,-0.406900,-1.578821,0.669008,0.369669,-1.519491,-2.190834,3.964695,2.849645,-13.854195,-6.589190,0.069783,0.165709,0.000000,-0.201184,0.224357,-0.000000
3.130000,1.521037,-1.093438,-1.328182,2.124750,0.419220,-0.403005,-1.593873,0.646405,0.408987,-1.491080,-2.327955,3.895343,2.835200,-13.542327,-7.273864,0.067688,0.167946,0.000000,-0.217611,0.221955,0.000000
3.140000,1.542205,-1.089214,-1.332192,2.108736,0.425568,-0.398720,-1.608642,0.622449,0.447576,-1.462787,-2.461681,3.819218,2.824072,-13.218461,-7.940547,0.065430,0.170158,0.000000,-0.233877,0.219370,-0.000000
3.150000,1.563212,-1.084927,-1.336157,2.092577,0.431669,-0.394053,-1.623129,0.597171,0.485371,-1.434599,-2.592325,3.736532,2.814101,-12.909149,-8.592295,0.063010,0.172342,0.000000,-0.249996,0.216596,-0.000000
3.160000,1.584056,-1.080580,-1.340073,2.076274,0.437511,-0.389012,-1.637334,0.570602,0.522307,-1.406505,-2.719863,3.647372,2.808140,-12.558210,-9.231538,0.060430,0.174498,0.000000,-0.265948,0.213627,0.000000
3.170000,1.604737,-1.076177,-1.343937,2.059830,0.443081,-0.383607,-1.651259,0.542774,0.558318,-1.378436,-2.843489,3.551901,2.812880,-12.100897,-9.841587,0.057691,0.176622,0.000000,-0.281627,0.210450,-0.000000
3.180000,1.625253,-1.071719,-1.347745,2.043249,0.448367,-0.377846,-1.664903,0.513732,0.593345,-1.350247,-2.961881,3.450540,2.828555,-11.552762,-10.416118,0.054797,0.178713,0.000000,-0.296870,0.207052,-0.000000
3.190000,1.645602,-1.067209,-1.351494,2.026532,0.453356,-0.371740,-1.678264,0.483537,0.627329,-1.321865,-3.074544,3.343579,2.846918,-10.999854,-10.973555,0.051753,0.180769,0.000000,-0.311596,0.203423,-0.000000
3.200000,1.665784,-1.062651,-1.355180,2.009683,0.458037,-0.365299,-1.691340,0.452242,0.660216,-1.293309,-3.181879,3.231069,2.863569,-10.466407,-11.527396,0.048565,0.182787,0.000000,-0.325823,0.199562,-0.000000
3.210000,1.685796,-1.058048,-1.358800,1.992705,0.462401,-0.358536,-1.704130,0.419899,0.691951,-1.264593,-3.283872,3.113031,2.884805,-9.895206,-12.060343,0.045237,0.184765,0.000000,-0.339525,0.195465,-0.000000
3.220000,1.705638,-1.053403,-1.362351,1.975601,0.466435,-0.351460,-1.716632,0.386564,0.722477,-1.235613,-3.379783,2.989862,2.922871,-9.231445,-12.530079,0.041774,0.186700,0.000000,-0.352594,0.191125,0.000000
3.230000,1.725308,-1.048720,-1.365829,1.958373,0.470132,-0.344086,-1.728842,0.352303,0.751748,-1.206136,-3.468501,2.862430,2.975940,-8.491973,-12.937111,0.038185,0.188590,0.000000,-0.364878,0.186529,-0.000000
3.240000,1.744805,-1.044001,-1.369232,1.941024,0.473481,-0.336425,-1.740755,0.317194,0.779726,-1.176094,-3.549622,2.731120,3.028232,-7.751611,-13.334118,0.034477,0.190433,0.000000,-0.376304,0.181677,-0.000000
3.250000,1.764128,-1.039250,-1.372557,1.923557,0.476476,-0.328492,-1.752364,0.281311,0.806370,-1.145571,-3.623533,2.595747,3.081294,-7.039537,-13.734082,0.030659,0.192226,0.000000,-0.386889,0.176571,-0.000000
3.260000,1.783276,-1.034471,-1.375802,1.905977,0.479108,-0.320298,-1.763666,0.244723,0.831641,-1.114468,-3.690413,2.456438,3.145762,-6.307324,-14.097859,0.026740,0.193966,0.000000,-0.396625,0.171202,-0.000000
3.270000,1.802248,-1.029668,-1.378963,1.888284,0.481370,-0.311859,-1.774654,0.207503,0.855499,-1.082656,-3.749680,2.313790,3.214980,-5.486946,-14.391347,0.022727,0.195650,0.000000,-0.405422,0.165569,0.000000
3.280000,1.821042,-1.024844,-1.382039,1.870483,0.483258,-0.303188,-1.785319,0.169730,0.877916,-1.050169,-3.800152,2.168611,3.286980,-4.597318,-14.620874,0.018632,0.197277,0.000000,-0.413125,0.159692,-0.000000
3.290000,1.839658,-1.020003,-1.385027,1.852578,0.484765,-0.294300,-1.795657,0.131500,0.898871,-1.016917,-3.841626,2.021372,3.371669,-3.733382,-14.827908,0.014465,0.198844,0.000000,-0.419688,0.153574,0.000000
3.300000,1.858094,-1.015149,-1.387925,1.834570,0.485888,-0.285211,-1.805658,0.092897,0.918344,-0.982735,-3.874819,1.872053,3.456969,-2.895766,-15.045127,0.010238,0.200349,0.000000,-0.425171,0.147200,0.000000
3.310000,1.876349,-1.010285,-1.390731,1.816465,0.486623,-0.275934,-1.815312,0.054003,0.936312,-0.947777,-3.899542,1.720470,3.537315,-2.026509,-15.240590,0.005962,0.201788,0.000000,-0.429534,0.140585,0.000000
3.320000,1.894423,-1.005416,-1.393444,1.798264,0.486968,-0.266484,-1.824613,0.014907,0.952753,-0.911989,-3.915350,1.567241,3.651660,-1.149143,-15.320083,0.001648,0.203160,0.000000,-0.432712,0.133741,0.000000
3.330000,1.912314,-1.000546,-1.396061,1.779972,0.486921,-0.256879,-1.833552,-0.024304,0.967657,-0.874744,-3.922524,1.414068,3.803563,-0.288286,-15.288889,-0.002691,0.204463,0.000000,-0.434723,0.126642,-0.000000
3.340000,1.930022,-0.995678,-1.398582,1.761593,0.486482,-0.247131,-1.842108,-0.063544,0.981035,-0.835918,-3.921115,1.261463,3.938644,0.586294,-15.273299,-0.007045,0.205693,0.000000,-0.435567,0.119293,0.000000
3.350000,1.947546,-0.990816,-1.401004,1.743130,0.485650,-0.237258,-1.850270,-0.102726,0.992886,-0.795971,-3.910799,1.108602,4.049815,1.472155,-15.296241,-0.011402,0.206848,0.000000,-0.435201,0.111733,0.000000
3.360000,1.964885,-0.985965,-1.403327,1.724588,0.484427,-0.227274,-1.858028,-0.141760,1.003207,-0.754921,-3.891672,0.955539,4.173664,2.343178,-15.271712,-0.015749,0.207927,0.000000,-0.433632,0.103970,0.000000
3.370000,1.982038,-0.981127,-1.405549,1.705970,0.482815,-0.217194,-1.865368,-0.180560,1.011997,-0.712498,-3.863935,0.803168,4.316527,3.210245,-15.158044,-0.020074,0.208928,0.000000,-0.430883,0.096004,0.000000
3.380000,1.999004,-0.976308,-1.407671,1.687280,0.480816,-0.207034,-1.872278,-0.219039,1.019270,-0.668591,-3.827467,0.652378,4.463911,4.079296,-14.984408,-0.024366,0.209848,0.000000,-0.426946,0.087850,0.000000
3.390000,2.015784,-0.971511,-1.409690,1.668524,0.478434,-0.196808,-1.878740,-0.257109,1.025045,-0.623220,-3.782349,0.503480,4.609735,4.925644,-14.801957,-0.028612,0.210685,0.000000,-0.421836,0.079527,-0.000000
3.400000,2.032375,-0.966740,-1.411607,1.649705,0.475674,-0.186533,-1.884742,-0.294686,1.029340,-0.576396,-3.728954,0.356339,4.764276,5.739736,-14.614195,-0.032802,0.211439,0.000000,-0.415604,0.071042,0.000000
3.410000,2.048778,-0.961998,-1.413421,1.630829,0.472540,-0.176222,-1.890268,-0.331688,1.032172,-0.527934,-3.667554,0.211196,4.929571,6.533459,-14.389142,-0.036923,0.212107,0.000000,-0.408292,0.062388,0.000000
3.420000,2.064991,-0.957289,-1.415131,1.611900,0.469040,-0.165889,-1.895301,-0.368037,1.033563,-0.477805,-3.598285,0.068556,5.078121,7.313475,-14.119799,-0.040967,0.212687,0.000000,-0.399929,0.053583,0.000000
3.430000,2.081016,-0.952617,-1.416738,1.592923,0.465180,-0.155550,-1.899824,-0.403654,1.033543,-0.426372,-3.521285,-0.071200,5.211694,8.065611,-13.816361,-0.044921,0.213179,0.000000,-0.390548,0.044684,0.000000
3.440000,2.096850,-0.947985,-1.418242,1.573904,0.460967,-0.145218,-1.903828,-0.438462,1.032139,-0.373571,-3.436973,-0.207771,5.366352,8.775820,-13.488863,-0.048777,0.213582,0.000000,-0.380213,0.035701,0.000000
3.450000,2.112494,-0.943398,-1.419643,1.554847,0.456410,-0.134907,-1.907296,-0.472393,1.029387,-0.319045,-3.345768,-0.340977,5.515912,9.483866,-13.154583,-0.052525,0.213894,0.000000,-0.368991,0.026606,0.000000
3.460000,2.127947,-0.938857,-1.420940,1.535758,0.451519,-0.124631,-1.910209,-0.505378,1.025320,-0.263253,-3.247296,-0.470863,5.637725,10.190108,-12.808093,-0.056157,0.214115,0.000000,-0.356859,0.017458,-0.000000
3.470000,2.143209,-0.934367,-1.422135,1.516642,0.446303,-0.114401,-1.912561,-0.537339,1.019970,-0.206290,-3.141966,-0.597139,5.814565,10.766500,-12.401944,-0.059662,0.214244,0.000000,-0.343882,0.008280,-0.000000
3.480000,2.158280,-0.929931,-1.423228,1.497506,0.440772,-0.104231,-1.914335,-0.568217,1.013377,-0.146961,-3.031966,-0.718902,6.055906,11.200624,-11.937823,-0.063034,0.214281,0.000000,-0.330331,-0.001028,0.000000
3.490000,2.173159,-0.925552,-1.424220,1.478356,0.434939,-0.094134,-1.915500,-0.597978,1.005592,-0.085172,-2.917954,-0.835896,6.244374,11.663858,-11.484468,-0.066268,0.214223,0.000000,-0.316301,-0.010462,0.000000
3.500000,2.187847,-0.921232,-1.425111,1.459196,0.428813,-0.084119,-1.916038,-0.626576,0.996659,-0.022074,-2.798689,-0.948591,6.372555,12.199438,-11.053245,-0.069360,0.214071,0.000000,-0.301671,-0.019904,0.000000
3.510000,2.202343,-0.916975,-1.425902,1.440035,0.422407,-0.074200,-1.915941,-0.653952,0.986620,0.042279,-2.673965,-1.056960,6.518060,12.685628,-10.600545,-0.072302,0.213824,0.000000,-0.286437,-0.029340,-0.000000
3.520000,2.216648,-0.912784,-1.426595,1.420878,0.415734,-0.064387,-1.915193,-0.680055,0.975520,0.108287,-2.544976,-1.160602,6.668702,13.029540,-10.115128,-0.075089,0.213483,0.000000,-0.270753,-0.038799,-0.000000
3.530000,2.230761,-0.908661,-1.427190,1.401731,0.408806,-0.054690,-1.913776,-0.704852,0.963408,0.175653,-2.413374,-1.259263,6.793279,13.266444,-9.615007,-0.077717,0.213046,0.000000,-0.254820,-0.048238,-0.000000
3.540000,2.244682,-0.904608,-1.427689,1.382602,0.401637,-0.045119,-1.911680,-0.728323,0.950335,0.244153,-2.279647,-1.352902,6.913123,13.511629,-9.116514,-0.080185,0.212515,0.000000,-0.238708,-0.057630,-0.000000
3.550000,2.258413,-0.900628,-1.428092,1.363498,0.394239,-0.035683,-1.908893,-0.750445,0.936350,0.313916,-2.143142,-1.441593,7.045849,13.788841,-8.618738,-0.082491,0.211890,0.000000,-0.222360,-0.066985,-0.000000
3.560000,2.271952,-0.896723,-1.428402,1.344424,0.386628,-0.026392,-1.905401,-0.771186,0.921503,0.385070,-2.003870,-1.525277,7.172754,14.019424,-8.115193,-0.084632,0.211171,0.000000,-0.205791,-0.076314,-0.000000
3.570000,2.285301,-0.892896,-1.428620,1.325390,0.378816,-0.017253,-1.901191,-0.790522,0.905844,0.457371,-1.862753,-1.603897,7.254058,14.142779,-7.614306,-0.086607,0.210359,0.000000,-0.189116,-0.085588,0.000000
3.580000,2.298460,-0.889147,-1.428748,1.306400,0.370817,-0.008275,-1.896254,-0.808441,0.889425,0.530151,-1.721015,-1.677563,7.294463,14.183182,-7.125550,-0.088415,0.209453,0.000000,-0.172476,-0.094736,0.000000
3.590000,2.311429,-0.885479,-1.428786,1.287464,0.362647,0.000535,-1.890588,-0.824942,0.872293,0.603260,-1.579090,-1.746408,7.344316,14.218124,-6.640940,-0.090057,0.208457,0.000000,-0.155926,-0.103745,-0.000000
3.600000,2.324209,-0.881894,-1.428737,1.268589,0.354319,0.009171,-1.884189,-0.840023,0.854497,0.677037,-1.436652,-1.810382,7.399274,14.261671,-6.132504,-0.091534,0.207370,0.000000,-0.139438,-0.112651,0.000000
3.610000,2.336801,-0.878393,-1.428602,1.249781,0.345846,0.017625,-1.877047,-0.853675,0.836086,0.751246,-1.293856,-1.869058,7.424572,14.262839,-5.611765,-0.092846,0.206194,0.000000,-0.123040,-0.121419,0.000000
3.620000,2.349205,-0.874977,-1.428384,1.231048,0.337245,0.025893,-1.869164,-0.865900,0.817116,0.825529,-1.151395,-1.922617,7.438325,14.190393,-5.164672,-0.093995,0.204931,0.000000,-0.106810,-0.130016,0.000000
3.630000,2.361422,-0.871648,-1.428085,1.212397,0.328529,0.033968,-1.860537,-0.876703,0.797633,0.900012,-1.010048,-1.972352,7.449984,14.062343,-4.795829,-0.094982,0.203583,0.000000,-0.090821,-0.138488,0.000000
3.640000,2.373453,-0.868406,-1.427705,1.193837,0.319711,0.041845,-1.851163,-0.886101,0.777669,0.974528,-0.870149,-2.018534,7.430169,13.919864,-4.391061,-0.095811,0.202149,0.000000,-0.075109,-0.146823,-0.000000
3.650000,2.385299,-0.865254,-1.427248,1.175374,0.310806,0.049521,-1.841046,-0.894106,0.757263,1.048615,-0.731651,-2.060173,7.390938,13.766751,-3.918560,-0.096485,0.200633,0.000000,-0.059679,-0.154953,0.000000
3.660000,2.396960,-0.862190,-1.426715,1.157016,0.301829,0.056990,-1.830191,-0.900734,0.736465,1.122347,-0.594814,-2.096905,7.349832,13.578035,-3.459447,-0.097005,0.199036,0.000000,-0.044562,-0.162882,0.000000
3.670000,2.408439,-0.859217,-1.426108,1.138770,0.292792,0.064250,-1.818599,-0.906003,0.715324,1.195612,-0.460090,-2.129362,7.257426,13.349927,-3.085528,-0.097376,0.197360,0.000000,-0.029800,-0.170614,-0.000000
3.680000,2.419736,-0.856334,-1.425430,1.120644,0.283709,0.071297,-1.806279,-0.909936,0.693878,1.267496,-0.327815,-2.158616,7.102250,13.092255,-2.770838,-0.097601,0.195608,0.000000,-0.015413,-0.178081,-0.000000
3.690000,2.430852,-0.853543,-1.424682,1.102645,0.274593,0.078128,-1.793249,-0.912559,0.672152,1.337657,-0.198245,-2.184779,6.953163,12.811814,-2.425379,-0.097685,0.193782,0.000000,-0.001425,-0.185251,0.000000
3.700000,2.441789,-0.850843,-1.423867,1.084779,0.265458,0.084740,-1.779526,-0.913900,0.650182,1.406559,-0.071579,-2.207123,6.835843,12.515323,-2.051874,-0.097630,0.191885,0.000000,0.012138,-0.192163,0.000000
3.710000,2.452547,-0.848234,-1.422987,1.067054,0.256315,0.091131,-1.765118,-0.913990,0.628010,1.474374,0.052061,-2.225816,6.701262,12.200792,-1.709867,-0.097442,0.189920,0.000000,0.025268,-0.198842,0.000000
3.720000,2.463130,-0.845716,-1.422044,1.049477,0.247178,0.097300,-1.750038,-0.912859,0.605666,1.540584,0.172437,-2.241321,6.491910,11.852667,-1.382737,-0.097125,0.187889,0.000000,0.037949,-0.205248,-0.000000
3.730000,2.473537,-0.843290,-1.421041,1.032053,0.238058,0.103245,-1.734307,-0.910542,0.583183,1.604212,0.289115,-2.253471,6.221622,11.472536,-1.048747,-0.096683,0.185796,0.000000,0.050141,-0.211280,-0.000000
3.740000,2.483771,-0.840955,-1.419979,1.014791,0.228967,0.108964,-1.717954,-0.907077,0.560597,1.665017,0.401888,-2.262296,5.965726,11.085872,-0.736040,-0.096123,0.183644,0.000000,0.061825,-0.216918,-0.000000
3.750000,2.493833,-0.838711,-1.418862,0.997694,0.219916,0.114457,-1.701006,-0.902504,0.537937,1.723527,0.510832,-2.268192,5.739127,10.702441,-0.451225,-0.095447,0.181437,0.000000,0.073019,-0.222232,-0.000000
3.760000,2.503725,-0.836557,-1.417690,0.980771,0.210917,0.119723,-1.683484,-0.896860,0.515233,1.779799,0.615937,-2.271320,5.491456,10.307680,-0.174248,-0.094662,0.179179,0.000000,0.083728,-0.227234,-0.000000
3.770000,2.513448,-0.834493,-1.416467,0.964025,0.201979,0.124761,-1.665410,-0.890185,0.492511,1.833356,0.716986,-2.271677,5.191354,9.885692,0.099436,-0.093773,0.176872,0.000000,0.093934,-0.231879,-0.000000
3.780000,2.523005,-0.832517,-1.415195,0.947462,0.193113,0.129573,-1.646816,-0.882521,0.469799,1.883626,0.813650,-2.269331,4.852783,9.447252,0.361068,-0.092784,0.174521,0.000000,0.103610,-0.236115,-0.000000
3.790000,2.532397,-0.830630,-1.413876,0.931088,0.184329,0.134157,-1.627738,-0.873912,0.447124,1.930411,0.905931,-2.264455,4.517332,9.016589,0.606697,-0.091701,0.172130,0.000000,0.112763,-0.239929,0.000000
3.800000,2.541627,-0.828831,-1.412512,0.914908,0.175635,0.138515,-1.608208,-0.864402,0.424510,1.973973,0.993982,-2.257197,4.213855,8.570515,0.850261,-0.090529,0.169702,0.000000,0.121415,-0.243356,0.000000
3.810000,2.550695,-0.827118,-1.411106,0.898924,0.167041,0.142648,-1.588258,-0.854032,0.401980,2.014689,1.077341,-2.247450,3.914665,8.098428,1.093060,-0.089273,0.167243,0.000000,0.129522,-0.246438,0.000000
3.820000,2.559605,-0.825490,-1.409659,0.883142,0.158554,0.146555,-1.567914,-0.842855,0.379561,2.052266,1.155951,-2.235336,3.543158,7.678017,1.296700,-0.087938,0.164754,0.000000,0.137083,-0.249151,-0.000000
3.830000,2.568358,-0.823946,-1.408174,0.867566,0.150184,0.150239,-1.547213,-0.830913,0.357274,2.085552,1.230901,-2.221516,3.110860,7.318534,1.459171,-0.086531,0.162240,0.000000,0.144225,-0.251392,0.000000
3.840000,2.576957,-0.822486,-1.406654,0.852198,0.141936,0.153700,-1.526203,-0.818237,0.335131,2.114483,1.302321,-2.206153,2.723977,6.915921,1.633912,-0.085054,0.159707,0.000000,0.150966,-0.253163,0.000000
3.850000,2.585402,-0.821108,-1.405100,0.837042,0.133819,0.156941,-1.504923,-0.804867,0.313151,2.140031,1.369220,-2.188838,2.374048,6.458938,1.828625,-0.083512,0.157159,0.000000,0.157202,-0.254559,0.000000
3.860000,2.593697,-0.819810,-1.403515,0.822100,0.125839,0.159963,-1.483403,-0.790853,0.291354,2.161964,1.431500,-2.169580,1.994481,6.020711,2.007510,-0.081910,0.154598,0.000000,0.162928,-0.255563,-0.000000
3.870000,2.601844,-0.818591,-1.401901,0.807374,0.118002,0.162768,-1.461684,-0.776237,0.269759,2.179921,1.489634,-2.148688,1.637479,5.613481,2.161904,-0.080253,0.152030,0.000000,0.168201,-0.256145,0.000000
3.880000,2.609845,-0.817450,-1.400260,0.792866,0.110314,0.165359,-1.439804,-0.761060,0.248380,2.194714,1.543770,-2.126342,1.333614,5.214450,2.305491,-0.078546,0.149459,0.000000,0.173038,-0.256396,-0.000000
3.890000,2.617702,-0.816385,-1.398594,0.778578,0.102781,0.167736,-1.417790,-0.745362,0.227232,2.206593,1.593923,-2.102578,1.009127,4.815449,2.448058,-0.076793,0.146886,0.000000,0.177446,-0.256344,0.000000
3.900000,2.625417,-0.815394,-1.396905,0.764510,0.095407,0.169903,-1.395672,-0.729182,0.206329,2.214897,1.640079,-2.077381,0.637607,4.412121,2.583977,-0.074997,0.144317,0.000000,0.181427,-0.255924,-0.000000
3.910000,2.632992,-0.814477,-1.395196,0.750664,0.088197,0.171863,-1.373492,-0.712560,0.185684,2.219345,1.682165,-2.050898,0.274548,4.011151,2.708533,-0.073164,0.141753,0.000000,0.184979,-0.255115,-0.000000
3.920000,2.640430,-0.813630,-1.393468,0.737040,0.081156,0.173617,-1.351286,-0.695538,0.165311,2.220387,1.720302,-2.023210,-0.023106,3.636613,2.837440,-0.071298,0.139201,0.000000,0.188117,-0.253965,0.000000
3.930000,2.647733,-0.812853,-1.391724,0.723639,0.074286,0.175169,-1.329084,-0.678154,0.145220,2.218883,1.754898,-1.994149,-0.270517,3.290122,2.975188,-0.069402,0.136661,0.000000,0.190884,-0.252562,-0.000000
3.940000,2.654903,-0.812144,-1.389965,0.710459,0.067592,0.176521,-1.306908,-0.660440,0.125428,2.214977,1.786104,-1.963707,-0.537860,2.940111,3.100724,-0.067480,0.134137,0.000000,0.193298,-0.250922,-0.000000
3.950000,2.661942,-0.811502,-1.388193,0.697500,0.061077,0.177677,-1.284784,-0.642432,0.105946,2.208126,1.813700,-1.932135,-0.830484,2.569102,3.201380,-0.065536,0.131631,0.000000,0.195342,-0.248998,0.000000
3.960000,2.668853,-0.810923,-1.386411,0.684763,0.054744,0.178640,-1.262745,-0.624166,0.086785,2.198367,1.837486,-1.899679,-1.099538,2.200509,3.293168,-0.063573,0.129146,0.000000,0.197000,-0.246797,-0.000000
3.970000,2.675637,-0.810407,-1.384620,0.672245,0.048594,0.179413,-1.240817,-0.605682,0.067953,2.186135,1.857710,-1.866272,-1.333743,1.880269,3.408994,-0.061596,0.126685,0.000000,0.198299,-0.244366,-0.000000
3.980000,2.682297,-0.809951,-1.382823,0.659947,0.042630,0.179999,-1.219023,-0.587012,0.049460,2.171693,1.875092,-1.831499,-1.545470,1.600432,3.545046,-0.059607,0.124250,0.000000,0.199312,-0.241725,-0.000000
3.990000,2.688836,-0.809554,-1.381020,0.647865,0.036854,0.180402,-1.197383,-0.568180,0.031323,2.155226,1.889719,-1.795371,-1.744837,1.300759,3.658010,-0.057609,0.121842,0.000000,0.200050,-0.238897,-0.000000
4.000000,2.695255,-0.809214,-1.379215,0.635999,0.031267,0.180626,-1.175918,-0.549218,0.013552,2.136796,1.901107,-1.758339,-1.953656,0.989578,3.743195,-0.055606,0.119464,0.000000,0.200469,-0.235895,-0.000000
4.010000,2.701556,-0.808929,-1.377408,0.624347,0.025869,0.180673,-1.154647,-0.530158,-0.003844,2.116153,1.909510,-1.720507,-2.162733,0.706318,3.830007,-0.053600,0.117117,0.000000,0.200598,-0.232695,0.000000
4.020000,2.707742,-0.808697,-1.375601,0.612906,0.020663,0.180549,-1.133595,-0.511028,-0.020858,2.093541,1.915233,-1.681739,-2.302322,0.416415,3.924598,-0.051594,0.114803,0.000000,0.200468,-0.229323,0.000000
4.030000,2.713814,-0.808516,-1.373797,0.601675,0.015649,0.180256,-1.112777,-0.491854,-0.037479,2.070106,1.917839,-1.642015,-2.372938,0.105288,4.016150,-0.049591,0.112524,0.000000,0.200037,-0.225893,-0.000000
4.040000,2.719775,-0.808384,-1.371996,0.590651,0.010826,0.179799,-1.092193,-0.472671,-0.053698,2.046082,1.917339,-1.601416,-2.469224,-0.176106,4.098855,-0.047593,0.110279,0.000000,0.199309,-0.222430,0.000000
4.050000,2.725627,-0.808299,-1.370201,0.579831,0.006196,0.179182,-1.071855,-0.453507,-0.069507,2.020722,1.914316,-1.560038,-2.597363,-0.425393,4.178135,-0.045604,0.108070,0.000000,0.198344,-0.218862,0.000000
4.060000,2.731372,-0.808260,-1.368413,0.569213,0.001756,0.178409,-1.051779,-0.434384,-0.084899,1.994135,1.908831,-1.517853,-2.693744,-0.677108,4.256944,-0.043626,0.105897,0.000000,0.197151,-0.215198,-0.000000
4.070000,2.737011,-0.808264,-1.366633,0.558795,-0.002492,0.177484,-1.031972,-0.415330,-0.099864,1.966847,1.900774,-1.474899,-2.761165,-0.920736,4.321961,-0.041661,0.103762,0.000000,0.195720,-0.211493,-0.000000
4.080000,2.742548,-0.808310,-1.364863,0.548574,-0.006550,0.176412,-1.012442,-0.396369,-0.114397,1.938912,1.890416,-1.431414,-2.822287,-1.143081,4.371929,-0.039712,0.101664,0.000000,0.194080,-0.207754,0.000000
4.090000,2.747983,-0.808395,-1.363105,0.538547,-0.010420,0.175196,-0.993194,-0.377522,-0.128493,1.910401,1.877913,-1.387460,-2.868478,-1.361534,4.425146,-0.037780,0.099603,0.000000,0.192248,-0.203989,-0.000000
4.100000,2.753319,-0.808518,-1.361359,0.528710,-0.014101,0.173842,-0.974234,-0.358811,-0.142146,1.881542,1.863186,-1.342911,-2.898174,-1.582425,4.480597,-0.035867,0.097581,0.000000,0.190217,-0.200219,0.000000
4.110000,2.758557,-0.808677,-1.359628,0.519062,-0.017596,0.172353,-0.955563,-0.340258,-0.155351,1.852438,1.846264,-1.297848,-2.918569,-1.793028,4.526010,-0.033975,0.095596,0.000000,0.187991,-0.196455,0.000000
4.120000,2.763700,-0.808870,-1.357912,0.509599,-0.020906,0.170735,-0.937185,-0.321885,-0.168103,1.823171,1.827325,-1.252391,-2.924756,-1.983332,4.568721,-0.032107,0.093649,0.000000,0.185589,-0.192706,0.000000
4.130000,2.768749,-0.809095,-1.356213,0.500318,-0.024033,0.168991,-0.919100,-0.303712,-0.180399,1.793943,1.806598,-1.206474,-2.913990,-2.157291,4.613007,-0.030263,0.091740,0.000000,0.183034,-0.188990,-0.000000
4.140000,2.773706,-0.809351,-1.354532,0.491217,-0.026980,0.167127,-0.901306,-0.285753,-0.192233,1.764891,1.784179,-1.160131,-2.895096,-2.327445,4.647659,-0.028446,0.089868,0.000000,0.180337,-0.185321,-0.000000
4.150000,2.778573,-0.809635,-1.352870,0.482292,-0.029749,0.165147,-0.883802,-0.268028,-0.203601,1.736041,1.760049,-1.113521,-2.873947,-2.495060,4.673121,-0.026656,0.088032,0.000000,0.177496,-0.181702,-0.000000
4.160000,2.783352,-0.809946,-1.351229,0.473541,-0.032341,0.163055,-0.866585,-0.250553,-0.214503,1.707412,1.734278,-1.066668,-2.844916,-2.651770,4.696918,-0.024896,0.086232,0.000000,0.174519,-0.178135,0.000000
4.170000,2.788044,-0.810281,-1.349609,0.464960,-0.034760,0.160857,-0.849654,-0.233342,-0.224935,1.679142,1.707013,-1.019582,-2.796012,-2.795028,4.713314,-0.023166,0.084468,0.000000,0.171420,-0.174633,0.000000
4.180000,2.792651,-0.810641,-1.348012,0.456548,-0.037008,0.158556,-0.833002,-0.216412,-0.234895,1.651492,1.678378,-0.972402,-2.729887,-2.927685,4.719217,-0.021468,0.082739,0.000000,0.168212,-0.171222,0.000000
4.190000,2.797175,-0.811022,-1.346438,0.448300,-0.039088,0.156159,-0.816624,-0.199775,-0.244383,1.624545,1.648460,-0.925198,-2.663786,-3.052662,4.723178,-0.019802,0.081043,0.000000,0.164904,-0.167909,-0.000000
4.200000,2.801617,-0.811422,-1.344889,0.440215,-0.041003,0.153669,-0.800511,-0.183443,-0.253399,1.598216,1.617324,-0.877938,-2.597051,-3.170420,4.727502,-0.018169,0.079380,0.000000,0.161501,-0.164685,0.000000
4.210000,2.805979,-0.811842,-1.343365,0.432290,-0.042757,0.151091,-0.784659,-0.167428,-0.261941,1.572604,1.585051,-0.830648,-2.519351,-3.279206,4.726172,-0.016572,0.077748,0.000000,0.158012,-0.161559,-0.000000
4.220000,2.810263,-0.812278,-1.341867,0.424522,-0.044352,0.148430,-0.769059,-0.151742,-0.270012,1.547829,1.551740,-0.783415,-2.438104,-3.377490,4.715493,-0.015009,0.076148,0.000000,0.154446,-0.158543,0.000000
4.230000,2.814470,-0.812729,-1.340396,0.416909,-0.045792,0.145691,-0.753703,-0.136394,-0.277610,1.523841,1.517501,-0.736338,-2.358456,-3.465810,4.697458,-0.013483,0.074577,0.000000,0.150814,-0.155631,-0.000000
4.240000,2.818601,-0.813193,-1.338953,0.409448,-0.047080,0.142878,-0.738583,-0.121392,-0.284738,1.500660,1.482424,-0.689466,-2.270652,-3.546414,4.676659,-0.011993,0.073035,0.000000,0.147124,-0.152826,-0.000000
4.250000,2.822659,-0.813670,-1.337539,0.402137,-0.048219,0.139996,-0.723690,-0.106745,-0.291399,1.478428,1.446573,-0.642805,-2.171483,-3.620723,4.653438,-0.010540,0.071520,0.000000,0.143381,-0.150139,-0.000000
4.260000,2.826644,-0.814158,-1.336153,0.394974,-0.049214,0.137050,-0.709014,-0.092461,-0.297594,1.457230,1.410010,-0.596397,-2.068984,-3.687364,4.624837,-0.009125,0.070032,0.000000,0.139590,-0.147578,0.000000
4.270000,2.830558,-0.814655,-1.334798,0.387957,-0.050069,0.134044,-0.694545,-0.078545,-0.303327,1.437049,1.372826,-0.550308,-1.970910,-3.742917,4.590216,-0.007748,0.068569,0.000000,0.135761,-0.145143,-0.000000
4.280000,2.834403,-0.815159,-1.333472,0.381083,-0.050785,0.130983,-0.680273,-0.065004,-0.308601,1.417812,1.335151,-0.504593,-1.875269,-3.787889,4.550421,-0.006410,0.067129,0.000000,0.131906,-0.142824,-0.000000
4.290000,2.838180,-0.815670,-1.332178,0.374351,-0.051369,0.127872,-0.666189,-0.051842,-0.313419,1.399543,1.297068,-0.459300,-1.773508,-3.827227,4.506293,-0.005110,0.065712,0.000000,0.128030,-0.140623,-0.000000
4.300000,2.841890,-0.816187,-1.330915,0.367760,-0.051822,0.124715,-0.652282,-0.039063,-0.317787,1.382342,1.258607,-0.414467,-1.667270,-3.861718,4.459657,-0.003849,0.064316,0.000000,0.124137,-0.138550,0.000000
4.310000,2.845535,-0.816707,-1.329684,0.361306,-0.052150,0.121516,-0.638542,-0.026670,-0.321708,1.366198,1.219834,-0.370107,-1.563044,-3.888299,4.409962,-0.002627,0.062941,0.000000,0.120232,-0.136603,0.000000
4.320000,2.849116,-0.817230,-1.328485,0.354989,-0.052356,0.118281,-0.624958,-0.014666,-0.325189,1.351081,1.180841,-0.326268,-1.457153,-3.906238,4.352031,-0.001444,0.061584,0.000000,0.116322,-0.134778,0.000000
4.330000,2.852635,-0.817754,-1.327318,0.348807,-0.052443,0.115012,-0.611520,-0.003053,-0.328234,1.337055,1.141709,-0.283066,-1.348319,-3.916757,4.286155,-0.000301,0.060245,0.000000,0.112416,-0.133082,0.000000
4.340000,2.856092,-0.818278,-1.326184,0.342758,-0.052417,0.111716,-0.598217,0.008168,-0.330850,1.324115,1.102506,-0.240545,-1.243304,-3.921042,4.219623,0.000804,0.058923,0.000000,0.108518,-0.131514,0.000000
4.350000,2.859490,-0.818802,-1.325084,0.336842,-0.052280,0.108395,-0.585038,0.018997,-0.333044,1.312189,1.063288,-0.198674,-1.140316,-3.919729,4.152157,0.001870,0.057615,0.000000,0.104632,-0.130065,0.000000
4.360000,2.862829,-0.819324,-1.324017,0.331058,-0.052037,0.105055,-0.571973,0.029434,-0.334823,1.301309,1.024111,-0.157501,-1.035872,-3.912345,4.079146,0.002897,0.056321,0.000000,0.100764,-0.128739,-0.000000
4.370000,2.866111,-0.819843,-1.322983,0.325403,-0.051691,0.101699,-0.559012,0.039479,-0.336195,1.291471,0.985041,-0.117091,-0.939454,-3.897620,4.003412,0.003885,0.055040,0.000000,0.096919,-0.127534,-0.000000
4.380000,2.869337,-0.820358,-1.321983,0.319877,-0.051247,0.098331,-0.546144,0.049135,-0.337165,1.282519,0.946159,-0.077433,-0.853520,-3.875933,3.926785,0.004835,0.053770,0.000000,0.093103,-0.126435,-0.000000
4.390000,2.872509,-0.820868,-1.321016,0.314480,-0.050709,0.094956,-0.533361,0.058403,-0.337743,1.274401,0.907522,-0.038555,-0.765799,-3.849474,3.845313,0.005747,0.052511,0.000000,0.089321,-0.125436,-0.000000
4.400000,2.875627,-0.821372,-1.320083,0.309210,-0.050079,0.091576,-0.520656,0.067285,-0.337936,1.267203,0.869169,-0.000527,-0.673909,-3.818733,3.759089,0.006622,0.051262,0.000000,0.085576,-0.124545,0.000000
4.410000,2.878693,-0.821869,-1.319185,0.304067,-0.049363,0.088197,-0.508017,0.075786,-0.337754,1.260923,0.831148,0.036627,-0.587116,-3.782598,3.671037,0.007459,0.050020,0.000000,0.081871,-0.123762,-0.000000
4.420000,2.881708,-0.822359,-1.318319,0.299050,-0.048563,0.084821,-0.495437,0.083908,-0.337204,1.255461,0.793517,0.072894,-0.510649,-3.740852,3.579815,0.008259,0.048786,0.000000,0.078211,-0.123076,0.000000
4.430000,2.884674,-0.822841,-1.317488,0.294158,-0.047685,0.081453,-0.482908,0.091656,-0.336296,1.250710,0.756331,0.108223,-0.442244,-3.694176,3.484501,0.009023,0.047559,0.000000,0.074601,-0.122478,0.000000
4.440000,2.887591,-0.823313,-1.316690,0.289392,-0.046730,0.078095,-0.470423,0.099035,-0.335039,1.246616,0.719634,0.142584,-0.376395,-3.643287,3.387519,0.009751,0.046337,0.000000,0.071044,-0.121960,-0.000000
4.450000,2.890462,-0.823775,-1.315926,0.284750,-0.045704,0.074752,-0.457976,0.106049,-0.333444,1.243182,0.683465,0.175974,-0.311495,-3.588377,3.289505,0.010444,0.045119,0.000000,0.067543,-0.121522,-0.000000
4.460000,2.893286,-0.824227,-1.315195,0.280232,-0.044609,0.071426,-0.445560,0.112704,-0.331520,1.240386,0.647866,0.208374,-0.251935,-3.529358,3.189011,0.011102,0.043906,0.000000,0.064100,-0.121164,0.000000
4.470000,2.896066,-0.824667,-1.314498,0.275838,-0.043450,0.068122,-0.433168,0.119006,-0.329277,1.238143,0.612878,0.239754,-0.203654,-3.466531,3.085626,0.011726,0.042696,0.000000,0.060720,-0.120874,-0.000000
4.480000,2.898803,-0.825096,-1.313833,0.271569,-0.042229,0.064841,-0.420797,0.124962,-0.326725,1.236313,0.578536,0.270086,-0.166018,-3.400272,2.980188,0.012316,0.041488,0.000000,0.057405,-0.120641,-0.000000
4.490000,2.901498,-0.825512,-1.313201,0.267423,-0.040951,0.061587,-0.408442,0.130577,-0.323875,1.234823,0.544872,0.299358,-0.131907,-3.330678,2.873435,0.012874,0.040283,0.000000,0.054158,-0.120455,-0.000000
4.500000,2.904152,-0.825915,-1.312601,0.263400,-0.039618,0.058363,-0.396100,0.135859,-0.320738,1.233675,0.511922,0.327555,-0.099175,-3.257787,2.764312,0.013400,0.039079,0.000000,0.050980,-0.120317,-0.000000
4.510000,2.906766,-0.826304,-1.312034,0.259501,-0.038233,0.055172,-0.383768,0.140815,-0.317324,1.232839,0.479717,0.354644,-0.073228,-3.181945,2.652685,0.013894,0.037876,0.000000,0.047875,-0.120223,-0.000000
4.520000,2.909342,-0.826680,-1.311498,0.255724,-0.036801,0.052017,-0.371443,0.145453,-0.313645,1.232211,0.448283,0.380609,-0.060234,-3.103863,2.542103,0.014357,0.036674,0.000000,0.044845,-0.120163,-0.000000
4.530000,2.911880,-0.827040,-1.310993,0.252072,-0.035324,0.048899,-0.359124,0.149781,-0.309712,1.231635,0.417639,0.405486,-0.059100,-3.023800,2.432972,0.014791,0.035473,0.000000,0.041891,-0.120120,-0.000000
4.540000,2.914383,-0.827386,-1.310520,0.248542,-0.033806,0.045823,-0.346811,0.153806,-0.305535,1.231029,0.387807,0.429268,-0.062271,-2.941325,2.320690,0.015195,0.034272,0.000000,0.039014,-0.120087,0.000000
4.550000,2.916851,-0.827717,-1.310077,0.245135,-0.032248,0.042789,-0.334504,0.157537,-0.301126,1.230389,0.358813,0.451900,-0.067420,-2.856177,2.204468,0.015571,0.033071,0.000000,0.036217,-0.120062,-0.000000
4.560000,2.919286,-0.828031,-1.309664,0.241852,-0.030655,0.039800,-0.322203,0.160982,-0.296497,1.229680,0.330684,0.473358,-0.080057,-2.769054,2.087648,0.015919,0.031870,0.000000,0.033501,-0.120042,0.000000
4.570000,2.921688,-0.828330,-1.309281,0.238691,-0.029029,0.036859,-0.309910,0.164151,-0.291659,1.228788,0.303432,0.493653,-0.106639,-2.681485,1.971881,0.016241,0.030669,0.000000,0.030869,-0.120014,-0.000000
4.580000,2.924060,-0.828612,-1.308927,0.235654,-0.027372,0.033967,-0.297627,0.167051,-0.286624,1.227547,0.277054,0.512795,-0.146040,-2.593671,1.856298,0.016537,0.029469,0.000000,0.028319,-0.119962,0.000000
4.590000,2.926401,-0.828877,-1.308602,0.232739,-0.025688,0.031126,-0.285359,0.169692,-0.281403,1.225867,0.251558,0.530779,-0.190039,-2.504035,1.739098,0.016807,0.028270,0.000000,0.025852,-0.119876,0.000000
4.600000,2.928714,-0.829125,-1.308304,0.229947,-0.023978,0.028339,-0.273110,0.172082,-0.276008,1.223747,0.226973,0.547577,-0.235543,-2.411933,1.619579,0.017054,0.027071,0.000000,0.023470,-0.119756,0.000000
4.610000,2.931000,-0.829357,-1.308035,0.227277,-0.022246,0.025606,-0.260884,0.174231,-0.270452,1.221156,0.203320,0.563170,-0.288427,-2.318833,1.499113,0.017277,0.025874,0.000000,0.021175,-0.119597,0.000000
4.620000,2.933260,-0.829570,-1.307792,0.224729,-0.020493,0.022930,-0.248687,0.176149,-0.264745,1.217978,0.180596,0.577560,-0.356746,-2.227072,1.380061,0.017477,0.024679,0.000000,0.018968,-0.119388,0.000000
4.630000,2.935495,-0.829767,-1.307576,0.222303,-0.018723,0.020311,-0.236525,0.177843,-0.258901,1.214022,0.158778,0.590771,-0.438928,-2.136649,1.262227,0.017656,0.023486,0.000000,0.016845,-0.119109,0.000000
4.640000,2.937706,-0.829945,-1.307386,0.219998,-0.016937,0.017752,-0.224406,0.179324,-0.252930,1.209200,0.137863,0.602804,-0.524425,-2.044867,1.142598,0.017814,0.022297,0.000000,0.014806,-0.118750,-0.000000
4.650000,2.939895,-0.830105,-1.307221,0.217815,-0.015136,0.015253,-0.212341,0.180601,-0.246844,1.203533,0.117881,0.613623,-0.611216,-1.950475,1.020169,0.017952,0.021111,0.000000,0.012855,-0.118313,0.000000
4.660000,2.942062,-0.830248,-1.307081,0.215752,-0.013325,0.012815,-0.200336,0.181682,-0.240657,1.196975,0.098854,0.623207,-0.706413,-1.855679,0.897113,0.018071,0.019930,0.000000,0.010993,-0.117792,0.000000
4.670000,2.944210,-0.830372,-1.306965,0.213808,-0.011503,0.010439,-0.188401,0.182578,-0.234380,1.189405,0.080767,0.631566,-0.814208,-1.764313,0.775998,0.018172,0.018755,0.000000,0.009219,-0.117175,0.000000
4.680000,2.946338,-0.830478,-1.306872,0.211984,-0.009673,0.008127,-0.176548,0.183297,-0.228026,1.180691,0.063568,0.638727,-0.932551,-1.676166,0.656332,0.018255,0.017586,0.000000,0.007528,-0.116447,0.000000
4.690000,2.948449,-0.830565,-1.306802,0.210277,-0.007837,0.005879,-0.164787,0.183849,-0.221606,1.170754,0.047244,0.644692,-1.055999,-1.586447,0.534793,0.018322,0.016425,0.000000,0.005919,-0.115600,0.000000
4.700000,2.950544,-0.830634,-1.306755,0.208688,-0.005996,0.003695,-0.153132,0.184242,-0.215132,1.159571,0.031839,0.649423,-1.181434,-1.493275,0.410156,0.018374,0.015274,0.000000,0.004397,-0.114631,-0.000000
4.710000,2.952623,-0.830685,-1.306728,0.207214,-0.004152,0.001576,-0.141596,0.184486,-0.208617,1.147125,0.017379,0.652895,-1.312476,-1.400214,0.284744,0.018410,0.014132,0.000000,0.002963,-0.113536,0.000000
4.720000,2.954688,-0.830717,-1.306723,0.205856,-0.002306,-0.000477,-0.130190,0.184590,-0.202074,1.133322,0.003835,0.655118,-1.457439,-1.312363,0.161669,0.018433,0.013003,0.000000,0.001616,-0.112307,0.000000
4.730000,2.956740,-0.830731,-1.306738,0.204611,-0.000460,-0.002465,-0.118929,0.184562,-0.195515,1.117976,-0.008869,0.656129,-1.615541,-1.229170,0.040506,0.018443,0.011886,0.000000,0.000347,-0.110922,-0.000000
4.740000,2.958781,-0.830727,-1.306772,0.203477,0.001385,-0.004387,-0.107830,0.184412,-0.188952,1.101011,-0.020749,0.655928,-1.775128,-1.144022,-0.082942,0.018440,0.010784,0.000000,-0.000843,-0.109374,0.000000
4.750000,2.960810,-0.830704,-1.306826,0.202454,0.003228,-0.006244,-0.096909,0.184148,-0.182396,1.082474,-0.031749,0.654470,-1.932016,-1.053636,-0.211221,0.018426,0.009698,0.000000,-0.001950,-0.107666,-0.000000
4.760000,2.962830,-0.830662,-1.306897,0.201539,0.005068,-0.008035,-0.086181,0.183777,-0.175862,1.062370,-0.041822,0.651704,-2.093872,-0.962757,-0.341424,0.018401,0.008630,0.000000,-0.002969,-0.105798,-0.000000
4.770000,2.964841,-0.830602,-1.306986,0.200730,0.006904,-0.009761,-0.075662,0.183311,-0.169362,1.040596,-0.051004,0.647641,-2.269898,-0.880071,-0.466920,0.018366,0.007582,0.000000,-0.003903,-0.103759,0.000000
4.780000,2.966844,-0.830524,-1.307092,0.200026,0.008734,-0.011423,-0.065369,0.182757,-0.162909,1.016972,-0.059423,0.642365,-2.457636,-0.805099,-0.588142,0.018323,0.006555,0.000000,-0.004764,-0.101530,0.000000
4.790000,2.968841,-0.830428,-1.307215,0.199423,0.010559,-0.013020,-0.055322,0.182123,-0.156515,0.991444,-0.067106,0.635879,-2.644089,-0.726055,-0.714309,0.018271,0.005551,0.000000,-0.005555,-0.099104,0.000000
4.800000,2.970833,-0.830313,-1.307353,0.198919,0.012377,-0.014553,-0.045540,0.181415,-0.150192,0.964091,-0.073944,0.628079,-2.825960,-0.635551,-0.849544,0.018212,0.004572,0.000000,-0.006265,-0.096488,0.000000
4.810000,2.972820,-0.830180,-1.307506,0.198512,0.014187,-0.016023,-0.036040,0.180644,-0.143953,0.934924,-0.079817,0.618888,-3.011659,-0.541876,-0.987594,0.018146,0.003621,0.000000,-0.006882,-0.093683,-0.000000
4.820000,2.974803,-0.830029,-1.307673,0.198199,0.015989,-0.017432,-0.026842,0.179819,-0.137814,0.903858,-0.084782,0.608327,-3.207797,-0.464004,-1.118699,0.018074,0.002698,0.000000,-0.007410,-0.090679,0.000000
4.830000,2.976784,-0.829860,-1.307854,0.197975,0.017783,-0.018780,-0.017963,0.178948,-0.131787,0.870769,-0.089097,0.596514,-3.411099,-0.399472,-1.244946,0.017998,0.001807,0.000000,-0.007877,-0.087464,-0.000000
4.840000,2.978762,-0.829673,-1.308049,0.197839,0.019568,-0.020068,-0.009426,0.178037,-0.125884,0.835636,-0.092771,0.583428,-3.611808,-0.322438,-1.379740,0.017917,0.000949,0.000000,-0.008281,-0.084034,0.000000
4.850000,2.980740,-0.829469,-1.308256,0.197787,0.021344,-0.021297,-0.001251,0.177093,-0.120118,0.798532,-0.095546,0.568919,-3.808841,-0.230539,-1.524328,0.017832,0.000126,0.000000,-0.008597,-0.080395,-0.000000
4.860000,2.982718,-0.829247,-1.308475,0.197814,0.023110,-0.022470,0.006544,0.176126,-0.114505,0.759459,-0.097382,0.552942,-4.007997,-0.140611,-1.670156,0.017745,-0.000659,0.000000,-0.008822,-0.076548,-0.000000
4.870000,2.984697,-0.829007,-1.308705,0.197918,0.024867,-0.023588,0.013939,0.175145,-0.109059,0.718372,-0.098358,0.535516,-4.209301,-0.053680,-1.816794,0.017656,-0.001405,0.000000,-0.008962,-0.072488,-0.000000
4.880000,2.986677,-0.828749,-1.308947,0.198093,0.026613,-0.024651,0.020912,0.174159,-0.103795,0.675273,-0.098455,0.516606,-4.409964,0.036643,-1.967626,0.017565,-0.002109,0.000000,-0.009015,-0.068214,-0.000000
4.890000,2.988658,-0.828474,-1.309198,0.198336,0.028350,-0.025663,0.027444,0.173176,-0.098727,0.630173,-0.097626,0.496163,-4.609298,0.131178,-2.123196,0.017475,-0.002770,0.000000,-0.008978,-0.063726,0.000000
4.900000,2.990643,-0.828182,-1.309460,0.198642,0.030077,-0.026626,0.033515,0.172206,-0.093872,0.583087,-0.095832,0.474142,-4.807063,0.229556,-2.283447,0.017386,-0.003384,0.000000,-0.008845,-0.059027,-0.000000
4.910000,2.992631,-0.827873,-1.309731,0.199006,0.031794,-0.027541,0.039106,0.171259,-0.089244,0.534032,-0.093034,0.450494,-5.002698,0.332172,-2.448656,0.017298,-0.003950,0.000000,-0.008612,-0.054118,-0.000000
4.920000,2.994623,-0.827546,-1.310011,0.199424,0.033502,-0.028411,0.044196,0.170346,-0.084862,0.483033,-0.089188,0.425169,-5.195640,0.439467,-2.619148,0.017214,-0.004467,0.000000,-0.008275,-0.049000,-0.000000
4.930000,2.996620,-0.827203,-1.310299,0.199890,0.035201,-0.029238,0.048766,0.169476,-0.080741,0.430119,-0.084245,0.398111,-5.385360,0.551884,-2.795294,0.017133,-0.004930,0.000000,-0.007829,-0.043678,0.000000
4.940000,2.998621,-0.826842,-1.310595,0.200399,0.036891,-0.030026,0.052798,0.168661,-0.076900,0.375326,-0.078151,0.369263,-5.571287,0.669863,-2.977417,0.017057,-0.005340,0.000000,-0.007269,-0.038155,-0.000000
4.950000,3.000628,-0.826465,-1.310900,0.200946,0.038574,-0.030776,0.056273,0.167913,-0.073356,0.318693,-0.070848,0.338563,-5.752839,0.793840,-3.165829,0.016988,-0.005694,0.000000,-0.006588,-0.032435,0.000000
4.960000,3.002640,-0.826071,-1.311211,0.201525,0.040250,-0.031493,0.059172,0.167244,-0.070128,0.260269,-0.062274,0.305947,-5.929475,0.924261,-3.360886,0.016925,-0.005989,0.000000,-0.005780,-0.026523,0.000000
4.970000,3.004658,-0.825660,-1.311529,0.202130,0.041919,-0.032179,0.061478,0.166667,-0.067237,0.200104,-0.052363,0.271345,-46.622191,-102.434527,34.360969,0.016872,-0.006224,0.000000,-0.004838,-0.020426,-0.000000
4.980000,3.006683,-0.825232,-1.311855,0.202754,0.043583,-0.032837,0.063174,0.166196,-0.064701,-0.672175,-2.110964,0.993166,-87.435614,-205.607461,70.132080,0.016829,-0.006397,0.000000,-0.212011,0.067415,-0.000000
4.990000,3.008713,-0.824788,-1.312186,0.203393,0.045243,-0.033473,0.048035,0.124448,-0.047374,-1.548608,-4.164512,1.673987,-45.554938,-102.159698,31.100794,0.012624,-0.004873,0.000000,-0.420251,0.156258,0.000000
5.000000,3.010751,-0.824328,-1.312524,0.203715,0.046072,-0.033785,0.032202,0.082906,-0.031222,-1.583274,-4.154158,1.615182,-3.466534,1.035333,-5.880512,0.008424,-0.003272,0.000000,-0.420699,0.160337,0.000000
