time,x,y,z,vx,vy,vz,ax,ay,az,jx,jy,jz,sx,sy,sz,roll,pitch,yaw,p,q,r
0.000000,-2.992302,-0.698954,-1.385388,-0.021473,-0.005236,0.012031,1.030779,-0.275481,-0.245714,-16.463292,4.520151,7.350797,298.467346,-55.806091,-173.279420,-0.027246,-0.102150,0.000000,0.422613,1.545456,-0.000000
0.010000,-2.992467,-0.699020,-1.385279,-0.011940,-0.007774,0.009913,0.880486,-0.232966,-0.180421,-13.652431,3.992992,5.751495,264.180180,-49.709668,-147.043457,-0.023225,-0.087906,0.000000,0.381887,1.305320,0.000000
0.020000,-2.992545,-0.699108,-1.385188,-0.003775,-0.009912,0.008373,0.756634,-0.195426,-0.129855,-11.170386,3.524318,4.400916,232.683779,-44.105360,-123.511175,-0.019602,-0.075975,0.000000,0.343112,1.083606,-0.000000
0.030000,-2.992547,-0.699217,-1.385110,0.003270,-0.011697,0.007275,0.656073,-0.162301,-0.091662,-8.989862,3.109315,3.272731,203.855519,-38.971850,-102.541008,-0.016354,-0.066162,0.000000,0.306889,0.882024,-0.000000
0.040000,-2.992482,-0.699341,-1.385041,0.009414,-0.013171,0.006506,0.575919,-0.133076,-0.063743,-7.084790,2.743382,2.342027,177.572851,-34.287826,-83.991396,-0.013454,-0.058262,0.000000,0.273583,0.701254,-0.000000
0.050000,-2.992361,-0.699479,-1.384979,0.014848,-0.014370,0.005972,0.513542,-0.107284,-0.044241,-5.430336,2.422131,1.585307,153.712329,-30.032020,-67.720729,-0.010872,-0.052067,0.000000,0.243378,0.541180,0.000000
0.060000,-2.992187,-0.699628,-1.384921,0.019736,-0.015327,0.005598,0.466556,-0.084499,-0.031530,-4.002879,2.141385,0.980488,132.152189,-26.183065,-53.587482,-0.008576,-0.047371,0.000000,0.216309,0.401094,0.000000
0.070000,-2.991967,-0.699785,-1.384867,0.024223,-0.016069,0.005324,0.432803,-0.064335,-0.024194,-2.780034,1.897184,0.506904,112.769421,-22.719668,-41.450071,-0.006536,-0.043982,0.000000,0.192305,0.279874,0.000000
0.080000,-2.991704,-0.699949,-1.384815,0.028430,-0.016621,0.005100,0.410344,-0.046446,-0.021019,-1.740642,1.685778,0.145305,95.441325,-19.620505,-31.166931,-0.004720,-0.041715,0.000000,0.171218,0.176130,0.000000
0.090000,-2.991399,-0.700117,-1.384765,0.032462,-0.017004,0.004893,0.397445,-0.030522,-0.020975,-0.864768,1.503631,-0.122144,80.045142,-16.864234,-22.596501,-0.003102,-0.040406,0.000000,0.152849,0.088321,-0.000000
0.100000,-2.991055,-0.700288,-1.384717,0.036406,-0.017237,0.004673,0.392566,-0.016287,-0.023203,-0.133704,1.347419,-0.311861,66.458641,-14.429752,-15.597146,-0.001655,-0.039901,0.000000,0.136970,0.014840,0.000000
0.110000,-2.990671,-0.700461,-1.384672,0.040335,-0.017335,0.004423,0.394347,-0.003497,-0.027003,0.470028,1.214034,-0.438851,54.558628,-12.295498,-10.027378,-0.000355,-0.040067,0.000000,0.123333,-0.045919,0.000000
0.120000,-2.990248,-0.700635,-1.384629,0.044311,-0.017311,0.004130,0.401596,0.008060,-0.031816,0.962682,1.100579,-0.516702,44.222606,-10.440252,-5.745594,0.000818,-0.040782,0.000000,0.111688,-0.095514,-0.000000
0.130000,-2.989785,-0.700807,-1.384589,0.048382,-0.017177,0.003785,0.413280,0.018572,-0.037214,1.359285,1.004370,-0.557585,35.327877,-8.842720,-2.610221,0.001884,-0.041945,0.000000,0.101788,-0.135422,0.000000
0.140000,-2.989280,-0.700978,-1.384553,0.052588,-0.016943,0.003385,0.428508,0.028197,-0.042881,1.673635,0.922937,-0.572256,27.751727,-7.481633,-0.479698,0.002859,-0.043463,0.000000,0.093396,-0.167020,-0.000000
0.150000,-2.988732,-0.701146,-1.384522,0.056961,-0.016616,0.002927,0.446521,0.037072,-0.048603,1.918305,0.854020,-0.570056,21.371445,-6.335780,0.787527,0.003757,-0.045262,0.000000,0.086287,-0.191569,0.000000
0.160000,-2.988140,-0.701310,-1.384495,0.061526,-0.016203,0.002413,0.466680,0.045312,-0.054252,2.104650,0.795582,-0.558912,16.065019,-5.383131,1.333024,0.004588,-0.047275,0.000000,0.080256,-0.210208,-0.000000
0.170000,-2.987501,-0.701469,-1.384474,0.066300,-0.015711,0.001843,0.488453,0.053013,-0.059773,2.242778,0.745785,-0.545330,11.708860,-4.603265,1.298406,0.005365,-0.049449,0.000000,0.075112,-0.223951,-0.000000
0.180000,-2.986813,-0.701624,-1.384458,0.071299,-0.015145,0.001218,0.511404,0.060251,-0.065168,2.341587,0.703013,-0.534406,8.180653,-3.974542,0.825226,0.006093,-0.051741,0.000000,0.070689,-0.233685,0.000000
0.190000,-2.986074,-0.701772,-1.384449,0.076531,-0.014508,0.000540,0.535180,0.067092,-0.070483,2.408742,0.665862,-0.529816,5.357751,-3.475654,0.055054,0.006780,-0.054112,0.000000,0.066838,-0.240173,-0.000000
0.200000,-2.985282,-0.701914,-1.384448,0.082004,-0.013804,-0.000192,0.559495,0.073583,-0.075793,2.450682,0.633138,-0.533823,3.117322,-3.085288,-0.870609,0.007431,-0.056536,0.000000,0.063436,-0.244055,-0.000000
0.210000,-2.984433,-0.702048,-1.384453,0.087721,-0.013037,-0.000975,0.583781,0.079823,-0.080544,2.393465,0.616930,-0.399377,-0.227847,-2.523869,1.113469,0.008056,-0.058956,0.000000,0.061825,-0.238772,-0.000000
0.220000,-2.983527,-0.702174,-1.384467,0.093680,-0.012208,-0.001804,0.608419,0.085748,-0.085880,2.578665,0.560751,-0.756669,23.493579,-6.440176,-46.716583,0.008648,-0.061405,0.000000,0.055757,-0.254905,-0.000000
0.230000,-2.982559,-0.702292,-1.384490,0.099896,-0.011324,-0.002705,0.634619,0.091159,-0.094409,2.573967,0.535858,-0.790809,-24.812339,1.522833,40.701290,0.009185,-0.063987,0.000000,0.053105,-0.253713,-0.000000
0.240000,-2.981528,-0.702401,-1.384522,0.106366,-0.010385,-0.003681,0.659103,0.096596,-0.100294,2.363334,0.544813,-0.465572,-3.299196,-2.046306,-1.750141,0.009725,-0.066409,0.000000,0.054240,-0.234301,0.000000
0.250000,-2.980431,-0.702499,-1.384563,0.113076,-0.009392,-0.004710,0.682921,0.101884,-0.105722,2.390206,0.514349,-0.604101,-5.212617,-1.755737,0.064365,0.010250,-0.068764,0.000000,0.050953,-0.235726,0.000000
0.260000,-2.979266,-0.702588,-1.384616,0.120023,-0.008348,-0.005797,0.706438,0.106963,-0.111756,2.308841,0.502351,-0.602381,-6.512685,-1.554944,0.221105,0.010753,-0.071081,0.000000,0.049671,-0.227217,0.000000
0.270000,-2.978030,-0.702666,-1.384680,0.127203,-0.007254,-0.006945,0.729424,0.111863,-0.117769,2.302125,0.474804,-0.600238,0.822073,-3.083168,0.260510,0.011237,-0.073341,0.000000,0.046825,-0.226210,-0.000000
0.280000,-2.976721,-0.702733,-1.384755,0.134612,-0.006112,-0.008153,0.752244,0.116505,-0.123753,2.233925,0.458997,-0.596053,-14.572455,-0.055890,0.576468,0.011694,-0.075582,0.000000,0.045172,-0.219067,-0.000000
0.290000,-2.975337,-0.702788,-1.384843,0.142243,-0.004924,-0.009420,0.773848,0.121092,-0.129683,2.099744,0.455838,-0.589858,-7.820782,-1.466375,0.605029,0.012145,-0.077698,0.000000,0.044800,-0.205368,-0.000000
0.300000,-2.973875,-0.702831,-1.384944,0.150086,-0.003690,-0.010746,0.794565,0.125554,-0.135551,2.040393,0.437106,-0.583517,-8.436305,-1.400932,0.716767,0.012583,-0.079722,0.000000,0.042865,-0.199182,-0.000000
0.310000,-2.972334,-0.702862,-1.385058,0.158132,-0.002413,-0.012131,0.814489,0.129865,-0.141350,1.942461,0.425201,-0.576077,-8.909094,-1.371801,0.810293,0.013006,-0.081665,0.000000,0.041624,-0.189174,0.000000
0.320000,-2.970712,-0.702880,-1.385186,0.166373,-0.001093,-0.013573,0.833581,0.134027,-0.147066,1.882968,0.406029,-0.566957,-5.131194,-2.088999,0.971389,0.013413,-0.083523,0.000000,0.039659,-0.183042,0.000000
0.330000,-2.969006,-0.702884,-1.385330,0.174801,0.000267,-0.015072,0.852037,0.138003,-0.152688,1.794836,0.391271,-0.557536,-12.550024,-0.853789,0.909928,0.013801,-0.085315,0.000000,0.038146,-0.174080,-0.000000
0.340000,-2.967215,-0.702874,-1.385488,0.183409,0.001666,-0.016626,0.869358,0.141872,-0.158217,1.675824,0.381278,-0.547969,-9.064591,-1.527573,1.042968,0.014178,-0.086993,0.000000,0.037117,-0.162073,0.000000
0.350000,-2.965337,-0.702850,-1.385662,0.192186,0.003104,-0.018236,0.885720,0.145597,-0.163642,1.595254,0.363900,-0.537053,-9.210380,-1.570951,1.097436,0.014540,-0.088574,0.000000,0.035354,-0.153935,0.000000
0.360000,-2.963371,-0.702812,-1.385853,0.201121,0.004578,-0.019899,0.901185,0.149160,-0.168958,1.497145,0.348719,-0.525977,-9.290097,-1.632863,1.142720,0.014886,-0.090064,0.000000,0.033818,-0.144079,0.000000
0.370000,-2.961315,-0.702759,-1.386060,0.210206,0.006086,-0.021614,0.915751,0.152556,-0.174158,1.419842,0.329682,-0.513984,-7.243957,-2.015736,1.228914,0.015215,-0.091464,0.000000,0.031901,-0.136325,-0.000000
0.380000,-2.959166,-0.702690,-1.386285,0.219433,0.007628,-0.023381,0.929531,0.155759,-0.179237,1.329708,0.311742,-0.501960,-10.810932,-1.568700,1.173821,0.015524,-0.092786,0.000000,0.030102,-0.127320,0.000000
0.390000,-2.956925,-0.702606,-1.386528,0.228793,0.009201,-0.025199,0.942290,0.158796,-0.184198,1.225586,0.295028,-0.490016,-8.917906,-1.937675,1.239653,0.015817,-0.094006,0.000000,0.028432,-0.116953,-0.000000
0.400000,-2.954590,-0.702506,-1.386790,0.238276,0.010803,-0.027065,0.954131,0.161643,-0.189035,1.142181,0.274336,-0.477406,-8.846805,-2.040013,1.255308,0.016091,-0.095134,0.000000,0.026370,-0.108670,-0.000000
0.410000,-2.952160,-0.702390,-1.387070,0.247873,0.012433,-0.028979,0.965100,0.164284,-0.193746,1.051440,0.253730,-0.464851,-8.745105,-2.151916,1.265181,0.016345,-0.096176,0.000000,0.024323,-0.099681,0.000000
0.420000,-2.949632,-0.702257,-1.387369,0.257575,0.014088,-0.030939,0.975208,0.166708,-0.198331,0.972431,0.230637,-0.452025,-7.590240,-2.400156,1.288925,0.016577,-0.097133,0.000000,0.022033,-0.091876,0.000000
0.430000,-2.947008,-0.702108,-1.387689,0.267375,0.015767,-0.032945,0.984528,0.168896,-0.202787,0.888425,0.207125,-0.439301,-9.225124,-2.300850,1.254825,0.016786,-0.098012,0.000000,0.019707,-0.083595,-0.000000
0.440000,-2.944285,-0.701942,-1.388028,0.277263,0.017466,-0.034995,0.992954,0.170850,-0.207118,0.798826,0.183239,-0.426740,-8.150989,-2.545394,1.266968,0.016971,-0.098803,0.000000,0.017349,-0.074778,0.000000
0.450000,-2.941462,-0.701759,-1.388389,0.287231,0.019183,-0.037087,1.000552,0.172551,-0.211321,0.720848,0.156784,-0.414058,-7.983561,-2.678288,1.258246,0.017132,-0.099513,0.000000,0.014741,-0.067127,-0.000000
0.460000,-2.938540,-0.701558,-1.388770,0.297271,0.020916,-0.039221,1.007359,0.173983,-0.215399,0.640527,0.129461,-0.401475,-7.803222,-2.815699,1.247865,0.017266,-0.100145,0.000000,0.012051,-0.059259,-0.000000
0.470000,-2.935517,-0.701340,-1.389173,0.307376,0.022662,-0.041395,1.013392,0.175133,-0.219352,0.567347,0.100197,-0.389201,-7.099389,-3.009595,1.216135,0.017372,-0.100701,0.000000,0.009171,-0.052108,-0.000000
0.480000,-2.932392,-0.701105,-1.389598,0.317537,0.024417,-0.043607,1.018699,0.175984,-0.223183,0.492941,0.069848,-0.376956,-7.789320,-3.059488,1.232803,0.017449,-0.101186,0.000000,0.006189,-0.044847,0.000000
0.490000,-2.929166,-0.700852,-1.390046,0.327747,0.026180,-0.045858,1.023243,0.176527,-0.226891,0.416992,0.038437,-0.364746,-7.129365,-3.251142,1.199191,0.017495,-0.101597,0.000000,0.003106,-0.037446,-0.000000
0.500000,-2.925837,-0.700581,-1.390516,0.337999,0.027947,-0.048145,1.027067,0.176746,-0.230479,0.348076,0.005063,-0.352892,-6.923257,-3.395815,1.181128,0.017510,-0.101938,0.000000,-0.000169,-0.030745,0.000000
0.510000,-2.922406,-0.700293,-1.391009,0.348286,0.029714,-0.050467,1.030203,0.176624,-0.233949,0.279263,-0.029534,-0.341110,-6.711149,-3.540686,1.163096,0.017492,-0.102212,0.000000,-0.003561,-0.024064,-0.000000
0.520000,-2.918871,-0.699987,-1.391525,0.358601,0.031478,-0.052823,1.032670,0.176149,-0.237303,0.215035,-0.065909,-0.329741,-6.257959,-3.717518,1.122438,0.017438,-0.102421,0.000000,-0.007128,-0.017838,0.000000
0.530000,-2.915233,-0.699663,-1.392065,0.368937,0.033236,-0.055213,1.034505,0.175302,-0.240544,0.151510,-0.103531,-0.318416,-6.450609,-3.806197,1.143155,0.017349,-0.102569,0.000000,-0.010814,-0.011688,-0.000000
0.540000,-2.911492,-0.699322,-1.392629,0.379289,0.034983,-0.057634,1.035701,0.174074,-0.243671,0.088532,-0.142367,-0.307112,-6.019752,-3.977610,1.106026,0.017222,-0.102655,0.000000,-0.014618,-0.005599,-0.000000
0.550000,-2.907648,-0.698964,-1.393218,0.389649,0.036716,-0.060086,1.036293,0.172449,-0.246688,0.030055,-0.182932,-0.296190,-5.800094,-4.118461,1.090211,0.017056,-0.102683,0.000000,-0.018591,0.000046,0.000000
0.560000,-2.903699,-0.698588,-1.393831,0.400013,0.038431,-0.062567,1.036305,0.170411,-0.249595,-0.027167,-0.224780,-0.285280,-5.579190,-4.257466,1.076978,0.016849,-0.102654,0.000000,-0.022689,0.005562,-0.000000
0.570000,-2.899647,-0.698195,-1.394469,0.410374,0.040123,-0.065077,1.035762,0.167948,-0.252395,-0.080929,-0.268133,-0.274782,-5.236343,-4.406229,1.037633,0.016601,-0.102573,0.000000,-0.026935,0.010738,0.000000
0.580000,-2.895492,-0.697786,-1.395133,0.420726,0.041788,-0.067615,1.034691,0.165045,-0.255090,-0.133221,-0.312757,-0.264211,-5.224043,-4.517795,1.077399,0.016310,-0.102440,0.000000,-0.031304,0.015766,0.000000
0.590000,-2.891233,-0.697360,-1.395822,0.431066,0.043422,-0.070179,1.033102,0.161689,-0.257679,-0.184132,-0.358608,-0.253521,-4.894608,-4.658318,1.046492,0.015975,-0.102258,0.000000,-0.035793,0.020653,-0.000000
0.600000,-2.886871,-0.696917,-1.396536,0.441387,0.045020,-0.072768,1.031021,0.157868,-0.260162,-0.231656,-0.405854,-0.243145,-4.673856,-4.783607,1.043969,0.015594,-0.102028,0.000000,-0.040420,0.025209,0.000000
0.610000,-2.882405,-0.696459,-1.397277,0.451685,0.046578,-0.075382,1.028474,0.153568,-0.262541,-0.277356,-0.454259,-0.232607,-4.450526,-4.903577,1.046036,0.015166,-0.101754,0.000000,-0.045160,0.029582,-0.000000
0.620000,-2.877837,-0.695986,-1.398044,0.461955,0.048090,-0.078019,1.025483,0.148778,-0.264816,-0.320501,-0.503966,-0.222380,-4.195593,-5.030648,1.017795,0.014690,-0.101437,0.000000,-0.050028,0.033706,-0.000000
0.630000,-2.873166,-0.695498,-1.398838,0.472193,0.049552,-0.080678,1.022071,0.143485,-0.266987,-0.361628,-0.554723,-0.211863,-4.030442,-5.119641,1.086936,0.014165,-0.101081,0.000000,-0.055000,0.037628,0.000000
0.640000,-2.868393,-0.694995,-1.399658,0.482395,0.050958,-0.083358,1.018257,0.137680,-0.269052,-0.400768,-0.606464,-0.200987,-3.780657,-5.233869,1.071155,0.013590,-0.100685,0.000000,-0.060069,0.041351,-0.000000
0.650000,-2.863519,-0.694479,-1.400505,0.492557,0.052304,-0.086058,1.014064,0.131352,-0.271008,-0.437384,-0.659325,-0.190271,-3.560449,-5.331021,1.090633,0.012964,-0.100254,0.000000,-0.065250,0.044828,-0.000000
0.660000,-2.858542,-0.693949,-1.401379,0.502675,0.053583,-0.088778,1.009516,0.124492,-0.272855,-0.471846,-0.712942,-0.179103,-3.339522,-5.418673,1.117017,0.012285,-0.099789,0.000000,-0.070505,0.048090,0.000000
0.670000,-2.853465,-0.693407,-1.402280,0.512746,0.054792,-0.091515,1.004634,0.117088,-0.274591,-0.504247,-0.767928,-0.168161,-3.133533,-5.550572,1.098315,0.011553,-0.099293,0.000000,-0.075897,0.051152,-0.000000
0.680000,-2.848288,-0.692854,-1.403209,0.522766,0.055923,-0.094269,0.999439,0.109132,-0.276216,-0.534369,-0.823368,-0.156570,-2.890901,-5.535356,1.221634,0.010767,-0.098767,0.000000,-0.081335,0.053985,-0.000000
0.690000,-2.843010,-0.692289,-1.404166,0.532734,0.056972,-0.097039,0.993954,0.100620,-0.277720,-0.562214,-0.879149,-0.144238,-2.685582,-5.646488,1.219291,0.009926,-0.098214,0.000000,-0.086808,0.056589,-0.000000
0.700000,-2.837633,-0.691714,-1.405150,0.542645,0.057934,-0.099823,0.988201,0.091545,-0.279101,-0.588036,-0.936041,-0.131942,-2.470286,-5.703724,1.267281,0.009030,-0.097636,0.000000,-0.092394,0.058997,-0.000000
0.710000,-2.832157,-0.691131,-1.406162,0.552497,0.058801,-0.102621,0.982201,0.081898,-0.280356,-0.611685,-0.993324,-0.118962,-2.256828,-5.754090,1.320459,0.008078,-0.097035,0.000000,-0.098021,0.061187,0.000000
0.720000,-2.826583,-0.690539,-1.407203,0.562288,0.059570,-0.105430,0.975975,0.071676,-0.281480,-0.633150,-1.051117,-0.105599,-2.039500,-5.800569,1.362161,0.007070,-0.096413,0.000000,-0.103701,0.063161,-0.000000
0.730000,-2.820912,-0.689940,-1.408271,0.572016,0.060233,-0.108250,0.969545,0.060875,-0.282466,-0.652542,-1.109254,-0.091509,-1.839149,-5.825195,1.457065,0.006004,-0.095772,0.000000,-0.109418,0.064927,-0.000000
0.740000,-2.815143,-0.689334,-1.409368,0.581678,0.060785,-0.111079,0.962931,0.049490,-0.283307,-0.669881,-1.167640,-0.076620,-1.626238,-5.853002,1.512765,0.004881,-0.095115,0.000000,-0.115165,0.066487,-0.000000
0.750000,-2.809278,-0.688724,-1.410493,0.591274,0.061221,-0.113915,0.956154,0.037521,-0.283997,-0.685096,-1.226262,-0.061157,-1.420189,-5.867117,1.590009,0.003701,-0.094443,0.000000,-0.120940,0.067836,-0.000000
0.760000,-2.803318,-0.688110,-1.411646,0.600801,0.061534,-0.116758,0.949235,0.024965,-0.284527,-0.698442,-1.284935,-0.044762,-1.219475,-5.871039,1.674703,0.002462,-0.093759,0.000000,-0.126725,0.068997,-0.000000
0.770000,-2.797263,-0.687494,-1.412828,0.610258,0.061718,-0.119605,0.942194,0.011822,-0.284890,-0.709218,-1.343695,-0.027784,-0.965057,-5.874375,1.736924,0.001166,-0.093064,0.000000,-0.132526,0.069903,0.000000
0.780000,-2.791113,-0.686877,-1.414038,0.619644,0.061768,-0.122455,0.935056,-0.001908,-0.285079,-0.718359,-1.402285,-0.009689,-0.864423,-5.841753,1.883606,-0.000188,-0.092361,0.000000,-0.138317,0.070642,-0.000000
0.790000,-2.784870,-0.686259,-1.415277,0.628959,0.061678,-0.125306,0.927832,-0.016223,-0.285080,-0.725927,-1.460595,0.009608,-0.620305,-5.823241,1.961641,-0.001600,-0.091652,0.000000,-0.144088,0.071220,0.000000
0.800000,-2.778534,-0.685643,-1.416544,0.638201,0.061442,-0.128156,0.920546,-0.031119,-0.284884,-0.731015,-1.518672,0.029692,-0.427425,-5.785485,2.071444,-0.003070,-0.090938,0.000000,-0.149846,0.071551,0.000000
0.810000,-2.772106,-0.685031,-1.417840,0.647370,0.061054,-0.131003,0.913218,-0.046594,-0.284481,-0.734310,-1.576173,0.051140,-0.234583,-5.734611,2.189940,-0.004597,-0.090221,0.000000,-0.155557,0.071698,0.000000
0.820000,-2.765587,-0.684423,-1.419164,0.656465,0.060508,-0.133845,0.905866,-0.062643,-0.283860,-0.735738,-1.633527,0.073242,-0.048587,-5.713208,2.259928,-0.006181,-0.089504,0.000000,-0.161264,0.071660,-0.000000
0.830000,-2.758977,-0.683821,-1.420517,0.665487,0.059799,-0.136680,0.898510,-0.079261,-0.283011,-0.735234,-1.689956,0.096955,0.148990,-5.570007,2.484613,-0.007822,-0.088789,0.000000,-0.166893,0.071422,-0.000000
0.840000,-2.752278,-0.683227,-1.421898,0.674435,0.058921,-0.139505,0.891168,-0.096438,-0.281915,-0.732815,-1.745316,0.122379,0.331928,-5.521393,2.572528,-0.009519,-0.088077,0.000000,-0.172431,0.070987,0.000000
0.850000,-2.745489,-0.682643,-1.423307,0.683310,0.057868,-0.142317,0.883859,-0.114166,-0.280561,-0.728579,-1.800164,0.148668,0.517650,-5.425014,2.714836,-0.011271,-0.087370,0.000000,-0.177933,0.070369,0.000000
0.860000,-2.738612,-0.682071,-1.424744,0.692113,0.056636,-0.145115,0.876603,-0.132437,-0.278935,-0.722379,-1.853860,0.176643,0.702765,-5.317489,2.863041,-0.013077,-0.086670,0.000000,-0.183339,0.069549,0.000000
0.870000,-2.731647,-0.681511,-1.426209,0.700843,0.055218,-0.147895,0.869416,-0.151240,-0.277024,-0.714728,-1.906518,0.205782,0.847485,-5.207384,2.983100,-0.014937,-0.085979,0.000000,-0.188660,0.068581,-0.000000
0.880000,-2.724595,-0.680967,-1.427702,0.709501,0.053609,-0.150654,0.862315,-0.170563,-0.274814,-0.705009,-1.957867,0.236688,1.096565,-5.060352,3.199338,-0.016850,-0.085299,0.000000,-0.193872,0.067399,0.000000
0.890000,-2.717457,-0.680440,-1.429222,0.718089,0.051805,-0.153390,0.855323,-0.190393,-0.272284,-0.693214,-2.007781,0.269434,1.241794,-4.925193,3.333124,-0.018814,-0.084632,0.000000,-0.198965,0.066002,0.000000
0.900000,-2.710233,-0.679932,-1.430770,0.726608,0.049800,-0.156099,0.848455,-0.210714,-0.269421,-0.680015,-2.056288,0.303516,1.419030,-4.769508,3.501457,-0.020829,-0.083979,0.000000,-0.203941,0.064460,-0.000000
0.910000,-2.702925,-0.679444,-1.432344,0.735059,0.047589,-0.158777,0.841729,-0.231513,-0.266207,-0.665027,-2.103059,0.339543,1.591664,-4.599951,3.676252,-0.022892,-0.083343,0.000000,-0.208773,0.062730,-0.000000
0.920000,-2.695532,-0.678980,-1.433945,0.743443,0.045168,-0.161422,0.835162,-0.252771,-0.262627,-0.648064,-2.148405,0.376791,1.787406,-4.450401,3.801695,-0.025004,-0.082725,0.000000,-0.213490,0.060800,-0.000000
0.930000,-2.688056,-0.678542,-1.435572,0.751763,0.042532,-0.164029,0.828772,-0.274474,-0.258664,-0.629563,-2.191673,0.416172,1.912060,-4.200536,4.075908,-0.027162,-0.082127,0.000000,-0.218032,0.058705,-0.000000
0.940000,-2.680497,-0.678131,-1.437226,0.760019,0.039677,-0.166594,0.822575,-0.296597,-0.254296,-0.609565,-2.232714,0.457759,2.100321,-4.022713,4.214018,-0.029364,-0.081551,0.000000,-0.222387,0.056448,-0.000000
0.950000,-2.672856,-0.677749,-1.438904,0.768215,0.036599,-0.169113,0.816588,-0.319122,-0.249505,-0.587668,-2.271940,0.500704,2.264527,-3.803531,4.402860,-0.031609,-0.080998,0.000000,-0.226596,0.053996,-0.000000
0.960000,-2.665133,-0.677399,-1.440608,0.776352,0.033293,-0.171582,0.810827,-0.342028,-0.244274,-0.564226,-2.308838,0.545818,2.426587,-3.573124,4.595066,-0.033895,-0.080471,0.000000,-0.230611,0.051376,0.000000
0.970000,-2.657329,-0.677084,-1.442336,0.784432,0.029757,-0.173997,0.805309,-0.365291,-0.238584,-0.539115,-2.343353,0.592378,2.592272,-3.328665,4.741855,-0.036220,-0.079971,0.000000,-0.234427,0.048582,-0.000000
0.980000,-2.649445,-0.676805,-1.444087,0.792459,0.025986,-0.176353,0.800050,-0.388887,-0.232419,-0.512452,-2.375386,0.641178,2.739941,-3.075950,5.018955,-0.038583,-0.079499,0.000000,-0.238039,0.045618,-0.000000
0.990000,-2.641480,-0.676565,-1.445862,0.800434,0.021978,-0.178644,0.795065,-0.412790,-0.225753,-0.484262,-2.404814,0.692263,2.900813,-2.806684,5.173410,-0.040981,-0.079058,0.000000,-0.241437,0.042486,-0.000000
1.000000,-2.633436,-0.676366,-1.447660,0.808361,0.017730,-0.180866,0.790370,-0.436974,-0.218569,-0.454478,-2.431482,0.744857,3.053549,-2.525994,5.370331,-0.043411,-0.078649,0.000000,-0.244605,0.039184,0.000000
1.010000,-2.625313,-0.676211,-1.449480,0.816243,0.013238,-0.183013,0.785981,-0.461409,-0.210848,-0.423025,-2.455042,0.799757,3.207856,-2.227949,5.570026,-0.045872,-0.078274,0.000000,-0.247514,0.035697,0.000000
1.020000,-2.617112,-0.676102,-1.451320,0.824082,0.008501,-0.185081,0.781912,-0.486068,-0.202570,-0.390594,-2.476405,0.855890,3.306021,-1.999755,5.694877,-0.048361,-0.077935,0.000000,-0.250251,0.032101,0.000000
1.030000,-2.608832,-0.676042,-1.453181,0.831882,0.003516,-0.187063,0.778175,-0.510925,-0.193721,-0.356327,-2.494100,0.914456,3.547797,-1.535969,6.019235,-0.050876,-0.077632,0.000000,-0.252678,0.028301,-0.000000
1.040000,-2.600474,-0.676033,-1.455061,0.839647,-0.001718,-0.188953,0.774792,-0.535937,-0.184273,-0.320211,-2.507948,0.975490,3.646749,-1.274686,6.148180,-0.053413,-0.077369,0.000000,-0.254779,0.024292,-0.000000
1.050000,-2.592039,-0.676077,-1.456960,0.847379,-0.007203,-0.190746,0.771774,-0.561076,-0.174208,-0.283164,-2.519188,1.037743,3.790525,-0.928427,6.340238,-0.055971,-0.077146,0.000000,-0.256672,0.020174,0.000000
1.060000,-2.583527,-0.676178,-1.458876,0.855083,-0.012940,-0.192435,0.769132,-0.586309,-0.163509,-0.245045,-2.526900,1.102373,3.920111,-0.577190,6.531783,-0.058546,-0.076965,0.000000,-0.258274,0.015924,-0.000000
1.070000,-2.574937,-0.676337,-1.460808,0.862763,-0.018930,-0.194014,0.766884,-0.611599,-0.152159,-0.203967,-2.530371,1.167873,4.210390,-0.148916,6.619077,-0.061135,-0.076828,0.000000,-0.259506,0.011361,0.000000
1.080000,-2.566271,-0.676557,-1.462755,0.870422,-0.025172,-0.195476,0.765053,-0.636906,-0.140143,-0.162626,-2.530554,1.235820,4.054816,0.113083,6.970849,-0.063735,-0.076738,0.000000,-0.260474,0.006741,0.000000
1.090000,-2.557529,-0.676841,-1.464717,0.878065,-0.031668,-0.196815,0.763631,-0.662199,-0.127434,-0.121162,-2.527383,1.306223,4.323122,0.557335,7.056338,-0.066343,-0.076693,0.000000,-0.261173,0.002075,0.000000
1.100000,-2.548710,-0.677191,-1.466691,0.885696,-0.038416,-0.198023,0.762640,-0.687438,-0.114017,-0.076897,-2.519661,1.377366,4.444498,0.954838,7.222661,-0.068957,-0.076697,0.000000,-0.261472,-0.002893,-0.000000
1.110000,-2.539815,-0.677610,-1.468677,0.893320,-0.045416,-0.199093,0.762097,-0.712578,-0.099879,-0.031432,-2.507726,1.450473,4.577710,1.372747,7.378813,-0.071572,-0.076752,0.000000,-0.261414,-0.008016,0.000000
1.120000,-2.530844,-0.678100,-1.470673,0.900940,-0.052667,-0.200018,0.762010,-0.737583,-0.085004,0.014005,-2.492732,1.524740,4.577883,1.687314,7.490704,-0.074184,-0.076858,0.000000,-0.261109,-0.013167,-0.000000
1.130000,-2.521796,-0.678664,-1.472677,0.908561,-0.060167,-0.200790,0.762385,-0.762415,-0.069379,0.061555,-2.472696,1.600625,4.934056,2.323621,7.684875,-0.076792,-0.077017,0.000000,-0.260361,-0.018568,0.000000
1.140000,-2.512672,-0.679305,-1.474688,0.916189,-0.067915,-0.201403,0.763249,-0.787019,-0.052987,0.111299,-2.447427,1.678036,4.945398,2.671859,7.777353,-0.079390,-0.077231,0.000000,-0.259149,-0.024228,0.000000
1.150000,-2.503472,-0.680024,-1.476704,0.923828,-0.075907,-0.201848,0.764610,-0.811354,-0.035816,0.161049,-2.418715,1.756280,5.072577,3.132005,7.887092,-0.081974,-0.077503,0.000000,-0.257646,-0.029928,-0.000000
1.160000,-2.494196,-0.680824,-1.478724,0.931483,-0.084141,-0.202117,0.766478,-0.835375,-0.017857,0.212829,-2.384654,1.835690,5.202397,3.606385,7.982452,-0.084541,-0.077833,0.000000,-0.255663,-0.035875,-0.000000
1.170000,-2.484843,-0.681707,-1.480746,0.939159,-0.092613,-0.202202,0.768864,-0.859037,0.000900,0.264348,-2.347251,1.915786,5.179345,3.948886,8.043666,-0.087087,-0.078223,0.000000,-0.253394,-0.041841,-0.000000
1.180000,-2.475413,-0.682677,-1.482768,0.946862,-0.101320,-0.202096,0.771773,-0.882300,0.020462,0.318051,-2.304113,1.996711,5.563260,4.682340,8.138854,-0.089607,-0.078674,0.000000,-0.250598,-0.048075,-0.000000
1.190000,-2.465905,-0.683734,-1.484787,0.954597,-0.110257,-0.201790,0.775233,-0.905099,0.040837,0.374020,-2.255058,2.078308,5.551025,5.055895,8.167744,-0.092097,-0.079189,0.000000,-0.247249,-0.054590,0.000000
1.200000,-2.456321,-0.684883,-1.486803,0.962369,-0.119420,-0.201276,0.779251,-0.927390,0.062028,0.429731,-2.202345,2.160087,5.669437,5.561432,8.194543,-0.094551,-0.079770,0.000000,-0.243569,-0.061132,0.000000
1.210000,-2.446658,-0.686123,-1.488812,0.970184,-0.128803,-0.200547,0.783833,-0.949127,0.084039,0.486782,-2.144152,2.242168,5.774443,6.069597,8.201332,-0.096967,-0.080418,0.000000,-0.239369,-0.067866,-0.000000
1.220000,-2.436917,-0.687459,-1.490813,0.978047,-0.138401,-0.199593,0.788993,-0.970257,0.106870,0.545505,-2.081007,2.323861,5.937354,6.567918,8.151937,-0.099337,-0.081135,0.000000,-0.234691,-0.074826,-0.000000
1.230000,-2.427097,-0.688892,-1.492803,0.985965,-0.148206,-0.198407,0.794745,-0.990730,0.130517,0.604839,-2.012616,2.405519,5.927719,7.111147,8.176343,-0.101659,-0.081922,0.000000,-0.229502,-0.081911,-0.000000
1.240000,-2.417197,-0.690424,-1.494780,0.993944,-0.158213,-0.196980,0.801091,-1.010491,0.154980,0.664691,-1.938928,2.486935,6.074110,7.619288,8.084234,-0.103926,-0.082782,0.000000,-0.223789,-0.089116,-0.000000
1.250000,-2.407218,-0.692057,-1.496742,1.001989,-0.168414,-0.195304,0.808044,-1.029491,0.180251,0.726035,-1.860155,2.567275,6.160810,8.143506,7.998266,-0.106133,-0.083715,0.000000,-0.217556,-0.096536,-0.000000
1.260000,-2.397157,-0.693793,-1.498686,1.010107,-0.178800,-0.193372,0.815615,-1.047675,0.206322,0.788314,-1.775604,2.646545,6.248664,8.679035,7.881426,-0.108275,-0.084724,0.000000,-0.210723,-0.104120,0.000000
1.270000,-2.387015,-0.695634,-1.500609,1.018304,-0.189364,-0.191175,0.823809,-1.064993,0.233180,0.850571,-1.687380,2.725090,6.245609,9.051216,7.793529,-0.110346,-0.085810,0.000000,-0.203503,-0.111777,0.000000
1.280000,-2.376791,-0.697581,-1.502508,1.026585,-0.200097,-0.188706,0.832631,-1.081400,0.260817,0.914129,-1.592791,2.801703,6.466121,9.869063,7.523327,-0.112342,-0.086974,0.000000,-0.195595,-0.119637,0.000000
1.290000,-2.366483,-0.699636,-1.504382,1.034958,-0.210989,-0.185957,0.842097,-1.096826,0.289207,0.978979,-1.491728,2.876051,6.458268,10.257053,7.370759,-0.114255,-0.088219,0.000000,-0.186970,-0.127700,-0.000000
1.300000,-2.356091,-0.701801,-1.506226,1.043429,-0.222030,-0.182919,0.852209,-1.111224,0.318333,1.043649,-1.386928,2.948765,6.518312,10.788205,7.137131,-0.116080,-0.089545,0.000000,-0.177910,-0.135825,0.000000
1.310000,-2.345614,-0.704077,-1.508039,1.052005,-0.233210,-0.179587,0.862973,-1.124544,0.348170,1.109284,-1.276164,3.018258,6.571041,11.315099,6.861691,-0.117811,-0.090954,0.000000,-0.168151,-0.144119,-0.000000
1.320000,-2.335051,-0.706466,-1.509817,1.060691,-0.244517,-0.175954,0.874393,-1.136734,0.378697,1.174707,-1.161091,3.086863,6.547077,11.745583,6.751225,-0.119442,-0.092448,0.000000,-0.157882,-0.152484,0.000000
1.330000,-2.324400,-0.708968,-1.511557,1.069495,-0.255941,-0.172011,0.886470,-1.147746,0.409892,1.240931,-1.040287,3.151019,6.697103,12.415525,6.071175,-0.120966,-0.094026,0.000000,-0.146897,-0.160997,-0.000000
1.340000,-2.313661,-0.711585,-1.513256,1.078423,-0.267468,-0.167754,0.899215,-1.157520,0.441700,1.307904,-0.913763,3.210248,6.660297,12.840155,5.872507,-0.122377,-0.095692,0.000000,-0.135175,-0.169648,0.000000
1.350000,-2.302831,-0.714318,-1.514911,1.087481,-0.279087,-0.163175,0.912626,-1.166009,0.474092,1.374395,-0.783116,3.267475,6.672004,13.335123,5.464059,-0.123668,-0.097445,0.000000,-0.122906,-0.178339,-0.000000
1.360000,-2.291910,-0.717167,-1.516519,1.096677,-0.290784,-0.158270,0.926703,-1.173162,0.507031,1.440968,-0.646727,3.319498,6.666778,13.827914,5.018244,-0.124833,-0.099286,0.000000,-0.109865,-0.187099,-0.000000
1.370000,-2.280897,-0.720133,-1.518076,1.106018,-0.302545,-0.153033,0.941447,-1.178936,0.540474,1.507932,-0.507640,3.368494,6.698299,14.096233,4.693959,-0.125864,-0.101217,0.000000,-0.096384,-0.195984,-0.000000
1.380000,-2.269790,-0.723218,-1.519578,1.115509,-0.314358,-0.147459,0.956860,-1.183294,0.574380,1.574352,-0.362558,3.411555,6.582617,14.920960,3.909963,-0.126757,-0.103237,0.000000,-0.082063,-0.204862,0.000000
1.390000,-2.258586,-0.726421,-1.521024,1.125157,-0.326206,-0.141544,0.972932,-1.186167,0.608683,1.640057,-0.211494,3.448217,6.581867,15.178284,3.498495,-0.127503,-0.105347,0.000000,-0.066880,-0.213709,-0.000000
1.400000,-2.247286,-0.729742,-1.522408,1.134969,-0.338076,-0.135284,0.989661,-1.187519,0.643332,1.705718,-0.058121,3.480719,6.522558,15.602878,2.913454,-0.128094,-0.107546,0.000000,-0.051239,-0.222618,0.000000
1.410000,-2.235886,-0.733182,-1.523728,1.144952,-0.349951,-0.128677,1.007048,-1.187316,0.678270,1.771610,0.099153,3.505590,6.470142,15.983423,2.273985,-0.128525,-0.109836,0.000000,-0.034909,-0.231576,-0.000000
1.420000,-2.224386,-0.736741,-1.524980,1.155113,-0.361817,-0.121718,1.025076,-1.185512,0.713440,1.833381,0.262715,3.528100,6.058849,16.593573,2.009834,-0.128789,-0.112215,0.000000,-0.017699,-0.240172,-0.000000
1.430000,-2.212784,-0.740419,-1.526161,1.165456,-0.373656,-0.114407,1.043721,-1.182056,0.748799,1.896458,0.428181,3.541211,6.559065,16.491133,0.600342,-0.128877,-0.114680,0.000000,0.000042,-0.248899,-0.000000
1.440000,-2.201076,-0.744214,-1.527267,1.175989,-0.385453,-0.106742,1.063012,-1.176945,0.784229,1.960902,0.595109,3.544299,6.146875,17.022572,0.226497,-0.128786,-0.117235,0.000000,0.018285,-0.257747,-0.000000
1.450000,-2.189263,-0.748127,-1.528295,1.186718,-0.397189,-0.098722,1.082921,-1.170134,0.819677,2.020848,0.767413,3.543814,6.017416,17.301338,-0.542637,-0.128509,-0.119877,0.000000,0.037364,-0.266154,-0.000000
1.460000,-2.177341,-0.752158,-1.529241,1.197650,-0.408849,-0.090349,1.103433,-1.161570,0.855067,2.081344,0.946388,3.532720,5.876820,17.650801,-1.362516,-0.128035,-0.122603,0.000000,0.057540,-0.274566,0.000000
1.470000,-2.165309,-0.756304,-1.530101,1.208789,-0.420415,-0.081622,1.124527,-1.151263,0.890329,2.136474,1.112599,3.519413,5.337977,16.398644,-1.613084,-0.127363,-0.125411,0.000000,0.076570,-0.282436,-0.000000
1.480000,-2.153165,-0.760566,-1.530872,1.220142,-0.431869,-0.072543,1.146165,-1.139271,0.925412,2.192066,1.291309,3.493869,5.781468,19.361733,-3.509308,-0.126497,-0.128297,0.000000,0.097362,-0.290251,0.000000
1.490000,-2.140906,-0.764941,-1.531550,1.231714,-0.443194,-0.063114,1.168371,-1.125387,0.960161,2.248095,1.483225,3.455421,5.224058,18.192191,-3.870991,-0.125409,-0.131263,0.000000,0.120024,-0.297981,0.000000
1.500000,-2.128530,-0.769429,-1.532133,1.243511,-0.454371,-0.053341,1.191103,-1.109664,0.994515,2.298095,1.661957,3.413735,4.964345,18.363536,-4.781776,-0.124102,-0.134302,0.000000,0.141503,-0.305035,0.000000
1.510000,-2.116035,-0.774028,-1.532616,1.255538,-0.465381,-0.043226,1.214262,-1.092164,1.028402,2.331181,1.837091,3.362104,4.358703,18.249490,-5.675185,-0.122580,-0.137402,0.000000,0.162909,-0.310083,-0.000000
1.520000,-2.103418,-0.778736,-1.532996,1.267798,-0.476208,-0.032775,1.237927,-1.072798,1.061717,2.410124,2.041437,3.299005,8.795875,21.062161,-6.822342,-0.120828,-0.140572,0.000000,0.188031,-0.320052,-0.000000
1.530000,-2.090678,-0.783551,-1.533271,1.280299,-0.486830,-0.021994,1.262321,-1.051414,1.094357,2.451814,2.225643,3.228229,-0.541776,15.721617,-7.330772,-0.118827,-0.143834,0.000000,0.211167,-0.325762,-0.000000
1.540000,-2.077812,-0.788472,-1.533435,1.293044,-0.497231,-0.010890,1.286806,-1.028373,1.126257,2.452487,2.387015,3.149840,3.332260,18.107245,-8.474117,-0.116614,-0.147115,0.000000,0.231949,-0.326716,-0.000000
1.550000,-2.064816,-0.793495,-1.533487,1.306036,-0.507392,0.000529,1.311559,-1.003560,1.157313,2.495933,2.574350,3.059792,2.712151,17.793520,-9.411906,-0.114174,-0.150433,0.000000,0.256054,-0.332200,-0.000000
1.560000,-2.051690,-0.798619,-1.533424,1.319277,-0.517296,0.012253,1.336719,-0.976921,1.187420,2.537410,2.753138,2.960026,2.609522,17.575421,-10.381364,-0.111496,-0.153801,0.000000,0.279477,-0.337231,0.000000
1.570000,-2.038430,-0.803840,-1.533241,1.332771,-0.526925,0.024274,1.362063,-0.948536,1.216494,2.520804,2.922203,2.853634,-3.038809,16.600204,-11.053169,-0.108589,-0.157191,0.000000,0.301898,-0.335505,0.000000
1.580000,-2.025034,-0.809156,-1.532937,1.346517,-0.536261,0.036579,1.387267,-0.918470,1.244453,2.537347,3.092764,2.735685,6.440501,17.516467,-12.541288,-0.105456,-0.160565,0.000000,0.324793,-0.337177,0.000000
1.590000,-2.011499,-0.814564,-1.532509,1.360518,-0.545288,0.049159,1.412957,-0.886672,1.271167,2.591225,3.264906,2.605974,1.421123,16.531396,-13.242733,-0.102091,-0.163988,0.000000,0.348151,-0.342737,-0.000000
1.600000,-1.997823,-0.820061,-1.531953,1.374777,-0.553989,0.061998,1.438859,-0.853213,1.296553,2.590570,3.426420,2.469511,1.355789,16.136932,-14.205620,-0.098498,-0.167428,0.000000,0.370300,-0.341840,0.000000
1.610000,-1.984002,-0.825643,-1.531268,1.389296,-0.562347,0.075085,1.464843,-0.818130,1.320517,2.606225,3.590009,2.321541,1.174183,15.765491,-15.173141,-0.094683,-0.170866,0.000000,0.392843,-0.342399,0.000000
1.620000,-1.970036,-0.831307,-1.530451,1.404074,-0.570346,0.088404,1.490929,-0.781492,1.342969,2.608511,3.734144,2.168055,-0.135333,13.837817,-15.728694,-0.090651,-0.174300,0.000000,0.413133,-0.341139,-0.000000
1.630000,-1.955920,-0.837049,-1.529499,1.419114,-0.577972,0.101939,1.517034,-0.743426,1.363837,2.615725,3.883068,2.002672,1.593927,15.963053,-17.351361,-0.086417,-0.177717,0.000000,0.434014,-0.339999,0.000000
1.640000,-1.941653,-0.842865,-1.528411,1.434416,-0.585210,0.115675,1.543266,-0.703807,1.382981,2.628532,4.037369,1.825289,0.375106,14.096634,-17.912209,-0.081968,-0.181126,0.000000,0.455510,-0.339033,-0.000000
1.650000,-1.927231,-0.848752,-1.527185,1.449980,-0.592043,0.129593,1.569550,-0.662759,1.400329,2.628145,4.171537,1.642728,0.129027,13.516357,-18.803363,-0.077317,-0.184514,0.000000,0.474515,-0.336218,-0.000000
1.660000,-1.912652,-0.854704,-1.525819,1.465806,-0.598460,0.143675,1.595778,-0.620461,1.415805,2.615278,4.284677,1.451221,-0.437231,12.457328,-19.636254,-0.072488,-0.187863,0.000000,0.490899,-0.331538,0.000000
1.670000,-1.897914,-0.860719,-1.524311,1.481895,-0.604448,0.157902,1.622021,-0.576829,1.429315,2.640189,4.451386,1.248793,3.211631,17.622228,-20.704592,-0.067472,-0.191179,0.000000,0.513393,-0.330702,0.000000
1.680000,-1.883013,-0.866792,-1.522660,1.498248,-0.609992,0.172254,1.648459,-0.531622,1.440762,2.633163,4.568652,1.040167,-4.689925,5.724268,-21.009990,-0.062243,-0.194477,0.000000,0.529799,-0.325807,-0.000000
1.690000,-1.867948,-0.872918,-1.520866,1.514863,-0.615079,0.186710,1.674549,-0.485663,1.450100,2.590885,4.631646,0.825911,-1.544659,10.158143,-21.974791,-0.056901,-0.197691,0.000000,0.539479,-0.316476,0.000000
1.700000,-1.852715,-0.879092,-1.518926,1.531738,-0.619702,0.201249,1.700431,-0.438767,1.457245,2.583325,4.743881,0.602004,-2.186971,9.012858,-22.659437,-0.051428,-0.200833,0.000000,0.554607,-0.310648,0.000000
1.710000,-1.837312,-0.885310,-1.516840,1.548871,-0.623850,0.215848,1.726114,-0.390705,1.462128,2.551490,4.872371,0.373577,-2.844385,8.936023,-23.278356,-0.045801,-0.203899,0.000000,0.571186,-0.301671,-0.000000
1.720000,-1.821737,-0.891567,-1.514609,1.566259,-0.627513,0.230484,1.751548,-0.341952,1.464676,2.538739,4.851281,0.134217,-1.001520,-5.639835,-24.334222,-0.040080,-0.206881,0.000000,0.569840,-0.294372,0.000000
1.730000,-1.805986,-0.897859,-1.512231,1.583902,-0.630690,0.245133,1.776807,-0.293334,1.464806,2.504273,4.917313,-0.107666,-5.929122,19.073670,-24.026116,-0.034366,-0.209781,0.000000,0.578163,-0.284276,-0.000000
1.740000,-1.790058,-0.904179,-1.509706,1.601794,-0.633374,0.259772,1.801545,-0.243223,1.462519,2.446472,5.080465,-0.351216,-4.316913,5.954448,-24.928655,-0.028474,-0.212559,0.000000,0.597307,-0.271249,0.000000
1.750000,-1.773950,-0.910524,-1.507035,1.619931,-0.635552,0.274375,1.825820,-0.192334,1.457746,2.406939,5.100561,-0.603911,-4.887583,5.613282,-25.347981,-0.022493,-0.215217,0.000000,0.599194,-0.259884,0.000000
1.760000,-1.757659,-0.916889,-1.504219,1.638309,-0.637220,0.288918,1.849793,-0.141352,1.450432,2.391268,5.085855,-0.859661,-4.624891,3.357782,-25.734419,-0.016508,-0.217769,0.000000,0.596470,-0.250972,-0.000000
1.770000,-1.741183,-0.923267,-1.501257,1.656925,-0.638378,0.303375,1.873136,-0.089724,1.440546,2.255809,5.277152,-1.117873,-16.267894,23.312061,-25.954670,-0.010461,-0.220178,0.000000,0.617168,-0.228193,0.000000
1.780000,-1.724519,-0.929655,-1.498152,1.675767,-0.639009,0.317721,1.895207,-0.036427,1.428062,2.196035,5.308819,-1.379742,4.507625,-17.349113,-26.410859,-0.004239,-0.222367,0.000000,0.618661,-0.213843,-0.000000
1.790000,-1.707667,-0.936046,-1.494903,1.694830,-0.639111,0.331928,1.917387,0.015773,1.412940,2.220610,5.164239,-1.644741,-5.850206,0.117056,-26.521514,0.001831,-0.224491,0.000000,0.599125,-0.208837,0.000000
1.800000,-1.690622,-0.942435,-1.491514,1.714113,-0.638694,0.345971,1.939133,0.067703,1.395166,2.132044,5.211942,-1.910442,-5.635429,-2.221759,-26.664729,0.007840,-0.226488,0.000000,0.601395,-0.190906,0.000000
1.810000,-1.673384,-0.948818,-1.487985,1.733610,-0.637756,0.359822,1.960055,0.119824,1.374731,2.048696,5.213830,-2.176387,-6.387322,-3.134236,-26.715841,0.013836,-0.228313,0.000000,0.597817,-0.173533,0.000000
1.820000,-1.655949,-0.955188,-1.484318,1.753312,-0.636299,0.373456,1.980459,0.171483,1.351621,2.046940,5.096638,-2.446399,1.507675,-14.719507,-27.078477,0.019737,-0.229998,0.000000,0.579989,-0.165191,-0.000000
1.830000,-1.638317,-0.961542,-1.480516,1.773219,-0.634331,0.386846,2.000756,0.221989,1.325814,1.983777,5.036703,-2.713596,-14.291510,2.920083,-26.343120,0.025461,-0.231591,0.000000,0.568394,-0.150002,0.000000
1.840000,-1.620484,-0.967873,-1.476582,1.793323,-0.631858,0.399964,2.019871,0.272481,1.297363,1.852325,5.042572,-2.977008,-7.446659,-7.358406,-26.526179,0.031134,-0.232971,0.000000,0.563980,-0.127380,-0.000000
1.850000,-1.602450,-0.974178,-1.472518,1.813614,-0.628883,0.412784,2.038132,0.322373,1.266265,1.795923,4.937604,-3.242197,-8.389276,-8.012469,-26.301473,0.036686,-0.234176,0.000000,0.546492,-0.113157,0.000000
1.860000,-1.584211,-0.980449,-1.468327,1.834083,-0.625414,0.425280,2.055559,0.371493,1.232542,1.685520,4.889546,-3.501632,-9.544634,-8.210559,-25.973306,0.042093,-0.235211,0.000000,0.535264,-0.093231,-0.000000
1.870000,-1.565767,-0.986684,-1.464014,1.854722,-0.621456,0.437426,2.072141,0.419620,1.196212,1.643152,4.712661,-3.765102,-2.960201,-20.731849,-26.321123,0.047328,-0.236075,0.000000,0.509165,-0.080835,0.000000
1.880000,-1.547116,-0.992877,-1.459580,1.875524,-0.617027,0.449196,2.088196,0.466041,1.157272,1.541714,4.609963,-4.019675,-17.451763,0.397072,-24.569578,0.052310,-0.236806,0.000000,0.491448,-0.062342,-0.000000
1.890000,-1.528256,-0.999023,-1.455031,1.896481,-0.612136,0.460563,2.102728,0.512148,1.115855,1.375698,4.590615,-4.264108,-11.677963,-10.756084,-24.696996,0.057194,-0.237299,0.000000,0.483032,-0.037363,0.000000
1.900000,-1.509186,-1.005118,-1.450370,1.917575,-0.606788,0.471505,2.115994,0.557336,1.071978,1.273774,4.449859,-4.510058,-12.751508,-10.934138,-24.091705,0.061912,-0.237586,0.000000,0.460885,-0.019596,0.000000
1.910000,-1.489905,-1.011157,-1.445602,1.938797,-0.600994,0.481995,2.128264,0.600997,1.025688,1.184126,4.273195,-4.746813,-12.667002,-12.851522,-23.424640,0.066396,-0.237700,0.000000,0.434866,-0.003655,0.000000
1.920000,-1.470410,-1.017137,-1.440732,1.960136,-0.594771,0.492011,2.139071,0.643674,0.977051,0.951655,4.299011,-4.979957,-26.539002,6.799025,-23.022041,0.070707,-0.237595,0.000000,0.431401,0.027131,0.000000
1.930000,-1.450701,-1.023051,-1.435764,1.981570,-0.588120,0.501528,2.147641,0.686391,0.926122,0.806345,4.173732,-5.203446,-2.286859,-32.204966,-21.659923,0.074959,-0.237195,0.000000,0.411221,0.047889,-0.000000
1.940000,-1.430778,-1.028898,-1.430703,2.003087,-0.581053,0.510526,2.155582,0.726505,0.873018,0.758831,3.881785,-5.416413,-14.557401,-14.859802,-21.096329,0.078862,-0.236677,0.000000,0.373121,0.057724,-0.000000
1.950000,-1.410639,-1.034671,-1.425555,2.024678,-0.573595,0.518982,2.162244,0.764860,0.817810,0.577679,3.780595,-5.623704,-14.345997,-16.649285,-20.179662,0.082513,-0.235978,0.000000,0.356241,0.081154,-0.000000
1.960000,-1.390285,-1.040368,-1.420325,2.046326,-0.565760,0.526875,2.167206,0.801981,0.760590,0.411609,3.646909,-5.818280,-15.019007,-16.876469,-19.167885,0.085973,-0.235059,0.000000,0.336126,0.102228,-0.000000
1.970000,-1.369713,-1.045985,-1.415020,2.068017,-0.557562,0.534187,2.170767,0.837239,0.701443,0.312729,3.380797,-6.010955,-8.490337,-29.727015,-18.929263,0.089177,-0.233957,0.000000,0.302113,0.115871,0.000000
1.980000,-1.348924,-1.051518,-1.409644,2.089738,-0.549024,0.540898,2.173265,0.869902,0.640427,0.163416,3.191328,-6.187684,-21.487255,-7.943930,-16.395106,0.092050,-0.232714,0.000000,0.276945,0.133985,0.000000
1.990000,-1.327918,-1.056965,-1.404204,2.111475,-0.540167,0.546990,2.173821,0.901407,0.577749,-0.041421,3.088673,-6.347389,-15.707142,-19.236934,-15.972063,0.094753,-0.231247,0.000000,0.261472,0.156924,0.000000
2.000000,-1.306695,-1.062321,-1.398706,2.133209,-0.531002,0.552448,2.172714,0.931150,0.513485,-0.182675,2.863494,-6.503313,-16.298625,-19.139853,-14.773325,0.097225,-0.229592,0.000000,0.233445,0.172836,-0.000000
2.010000,-1.285254,-1.067584,-1.393157,2.154925,-0.521551,0.557255,2.170086,0.958804,0.447734,-0.342932,2.666233,-6.644789,-16.535577,-19.476505,-13.560274,0.099437,-0.227768,0.000000,0.208956,0.189942,0.000000
2.020000,-1.263596,-1.072751,-1.387563,2.176605,-0.511833,0.561398,2.165784,0.984532,0.380626,-0.520530,2.481793,-6.774816,-18.214171,-18.196800,-12.397322,0.101412,-0.225769,0.000000,0.186365,0.208116,0.000000
2.030000,-1.241722,-1.077820,-1.381931,2.198234,-0.501866,0.564863,2.159705,1.008395,0.312282,-0.691056,2.285796,-6.891746,-15.861563,-21.014414,-10.983177,0.103162,-0.223590,0.000000,0.163128,0.224869,0.000000
2.040000,-1.219632,-1.082787,-1.376268,2.219794,-0.491672,0.567640,2.151997,1.030202,0.242836,-0.853110,2.077913,-6.995266,-17.315144,-19.743284,-9.760351,0.104672,-0.221253,0.000000,0.139252,0.240102,0.000000
2.050000,-1.197326,-1.087652,-1.370581,2.241268,-0.481269,0.569717,2.142577,1.050016,0.172416,-1.030688,1.884350,-7.086524,-17.425109,-19.759611,-8.445602,0.105955,-0.218757,0.000000,0.117424,0.256232,-0.000000
2.060000,-1.174807,-1.092412,-1.364876,2.262640,-0.470678,0.571085,2.131413,1.067891,0.101149,-1.202025,1.691528,-7.164854,-17.477975,-19.561243,-7.129018,0.107023,-0.216105,0.000000,0.096211,0.271115,-0.000000
2.070000,-1.152074,-1.097065,-1.359161,2.283891,-0.459918,0.571737,2.118484,1.083791,0.029171,-1.386037,1.486291,-7.228247,-18.696460,-20.726334,-5.634974,0.107876,-0.213301,0.000000,0.074372,0.286580,-0.000000
2.080000,-1.129129,-1.101610,-1.353444,2.305003,-0.449009,0.571667,2.103721,1.097662,-0.043376,-1.562776,1.292938,-7.279355,-16.626758,-17.908942,-4.588749,0.108516,-0.210344,0.000000,0.054234,0.300761,0.000000
2.090000,-1.105974,-1.106045,-1.347730,2.325960,-0.437971,0.570868,2.087261,1.109701,-0.116376,-1.731066,1.113223,-7.318259,-17.654854,-18.777359,-3.104257,0.108967,-0.207255,0.000000,0.035919,0.313596,0.000000
2.100000,-1.082611,-1.110369,-1.342029,2.346743,-0.426821,0.569338,2.069052,1.119882,-0.189690,-1.910441,0.924015,-7.342189,-17.589571,-18.301374,-1.769997,0.109232,-0.204032,0.000000,0.017220,0.326932,0.000000
2.110000,-1.059040,-1.114581,-1.336346,2.367335,-0.415579,0.567074,2.049056,1.128207,-0.263180,-2.089020,0.741595,-7.353751,-17.597095,-17.848059,-0.446556,0.109316,-0.200679,0.000000,-0.000346,0.339705,-0.000000
2.120000,-1.035265,-1.118680,-1.330690,2.387718,-0.404263,0.564074,2.027314,1.134756,-0.336713,-2.257470,0.570234,-7.350260,-16.598058,-16.729525,1.048876,0.109231,-0.197203,0.000000,-0.016398,0.351017,0.000000
2.130000,-1.011287,-1.122666,-1.325067,2.407875,-0.392890,0.560340,2.003884,1.139615,-0.410146,-2.431592,0.400578,-7.334790,-18.238139,-17.202323,2.039637,0.108990,-0.193616,0.000000,-0.031864,0.362457,-0.000000
2.140000,-0.987108,-1.126538,-1.319485,2.427790,-0.381476,0.555872,1.978658,1.142771,-0.483370,-2.611842,0.232739,-7.307619,-17.293166,-16.038829,3.486635,0.108595,-0.189910,0.000000,-0.046754,0.374087,0.000000
2.150000,-0.962732,-1.130296,-1.313952,2.447443,-0.370040,0.550674,1.951690,1.144317,-0.556248,-2.781733,0.077275,-7.265928,-17.193325,-15.362496,4.753038,0.108060,-0.186095,0.000000,-0.060109,0.384351,0.000000
2.160000,-0.938160,-1.133939,-1.308474,2.466818,-0.358595,0.544749,1.923021,1.144337,-0.628654,-2.951624,-0.071743,-7.213304,-17.008252,-14.597812,5.979131,0.107396,-0.182179,0.000000,-0.072538,0.394315,0.000000
2.170000,-0.913396,-1.137468,-1.303060,2.485898,-0.347158,0.538103,1.892646,1.142895,-0.700457,-3.123904,-0.216041,-7.144487,-17.222157,-14.094163,7.574723,0.106612,-0.178163,0.000000,-0.084178,0.404136,-0.000000
2.180000,-0.888443,-1.140882,-1.297715,2.504665,-0.335742,0.530742,1.860561,1.140052,-0.771514,-3.291333,-0.350119,-7.066208,-16.252269,-12.709254,8.069814,0.105717,-0.174052,0.000000,-0.094628,0.413294,-0.000000
2.190000,-0.863304,-1.144183,-1.292447,2.523103,-0.324361,0.522675,1.826839,1.135930,-0.841753,-3.453337,-0.473324,-6.979045,-16.367635,-12.086785,9.564580,0.104723,-0.169853,0.000000,-0.103871,0.421777,0.000000
2.200000,-0.837982,-1.147369,-1.287264,2.541196,-0.313027,0.513910,1.791486,1.130603,-0.911041,-3.616701,-0.590354,-6.876784,-16.078609,-11.152019,10.675604,0.103642,-0.165570,0.000000,-0.112298,0.430133,0.000000
2.210000,-0.812481,-1.150443,-1.282171,2.558928,-0.301753,0.504458,1.754524,1.124168,-0.979263,-3.775073,-0.694729,-6.766050,-15.760625,-10.145302,11.735232,0.102482,-0.161206,0.000000,-0.119424,0.437919,0.000000
2.220000,-0.786805,-1.153405,-1.277177,2.576282,-0.290547,0.494329,1.715982,1.116708,-1.046305,-3.933391,-0.797095,-6.639715,-15.735332,-9.908090,13.263711,0.101254,-0.156766,0.000000,-0.126167,0.445504,0.000000
2.230000,-0.760957,-1.156254,-1.272287,2.593242,-0.279422,0.483536,1.675875,1.108281,-1.112036,-4.086263,-0.884092,-6.506401,-14.830461,-7.474546,13.384633,0.099964,-0.152252,0.000000,-0.131436,0.452557,0.000000
2.240000,-0.734942,-1.158993,-1.267508,2.609794,-0.268384,0.472093,1.634277,1.099083,-1.176414,-4.233250,-0.954915,-6.366849,-14.729166,-7.106279,14.783825,0.098630,-0.147672,0.000000,-0.135202,0.459073,-0.000000
2.250000,-0.708763,-1.161622,-1.262847,2.625923,-0.257442,0.460013,1.591210,1.089185,-1.239321,-4.379375,-1.022609,-6.213099,-14.328101,-6.012802,15.695780,0.097260,-0.143026,0.000000,-0.138578,0.465417,-0.000000
2.260000,-0.682425,-1.164143,-1.258310,2.641614,-0.246603,0.447312,1.546705,1.078675,-1.300658,-4.521013,-1.077768,-6.052895,-13.928021,-4.944825,16.560466,0.095863,-0.138320,0.000000,-0.140820,0.471395,-0.000000
2.270000,-0.655932,-1.166555,-1.253903,2.656852,-0.235870,0.434005,1.500809,1.067672,-1.360333,-4.657251,-1.120820,-5.879978,-13.383570,-3.736201,17.800904,0.094448,-0.133557,0.000000,-0.141940,0.476873,-0.000000
2.280000,-0.629289,-1.168860,-1.249632,2.671625,-0.225250,0.420111,1.453571,1.056291,-1.418240,-4.790034,-1.153981,-5.701533,-13.172840,-2.898761,17.874857,0.093027,-0.128741,0.000000,-0.142212,0.482133,0.000000
2.290000,-0.602501,-1.171060,-1.245502,2.685919,-0.214746,0.405646,1.405020,1.044624,-1.474349,-4.919314,-1.177381,-5.518253,-12.613720,-1.711008,18.992258,0.091606,-0.123873,0.000000,-0.141669,0.487193,0.000000
2.300000,-0.575572,-1.173156,-1.241521,2.699721,-0.204358,0.390630,1.355205,1.032784,-1.528564,-5.042838,-1.188846,-5.323663,-12.156062,-0.655127,19.702155,0.090197,-0.118957,0.000000,-0.140089,0.491807,-0.000000
2.310000,-0.548508,-1.175148,-1.237692,2.713019,-0.194090,0.375082,1.304176,1.020879,-1.580807,-5.162191,-1.190613,-5.123985,-11.685688,0.381173,20.371546,0.088807,-0.113997,0.000000,-0.137729,0.496199,-0.000000
2.320000,-0.521314,-1.177038,-1.234021,2.725801,-0.183941,0.359021,1.251980,1.009013,-1.631010,-5.276267,-1.180532,-4.915029,-11.154062,1.551584,21.273366,0.087446,-0.108995,0.000000,-0.134384,0.500250,-0.000000
2.330000,-0.493994,-1.178827,-1.230513,2.738055,-0.173909,0.342469,1.198666,0.997298,-1.679094,-5.385795,-1.161337,-4.701580,-10.750892,2.280391,21.406106,0.086122,-0.103955,0.000000,-0.130337,0.504086,0.000000
2.340000,-0.466554,-1.180516,-1.227173,2.749771,-0.163994,0.325446,1.144279,0.985815,-1.725030,-5.490723,-1.133404,-4.484192,-10.206837,3.381634,22.206953,0.084841,-0.098877,0.000000,-0.125631,0.507721,0.000000
2.350000,-0.439000,-1.182107,-1.224005,2.760937,-0.154192,0.307975,1.088871,0.974668,-1.768749,-5.590133,-1.094499,-4.258756,-9.700503,4.313275,22.733622,0.083612,-0.093765,0.000000,-0.120051,0.511054,0.000000
2.360000,-0.411337,-1.183601,-1.221015,2.771545,-0.144499,0.290079,1.032491,0.963948,-1.810192,-5.684878,-1.047993,-4.029013,-9.192049,5.189853,23.233308,0.082442,-0.088620,0.000000,-0.113917,0.514206,-0.000000
2.370000,-0.383571,-1.184998,-1.218205,2.781584,-0.134911,0.271779,0.975194,0.953753,-1.849311,-5.773446,-0.988919,-3.793979,-8.574268,6.415538,23.745182,0.081337,-0.083447,0.000000,-0.106802,0.517052,-0.000000
2.380000,-0.355708,-1.186299,-1.215581,2.791046,-0.125422,0.253100,0.917037,0.944188,-1.886057,-5.857476,-0.924078,-3.554697,-8.232663,6.538763,24.105448,0.080307,-0.078246,0.000000,-0.099292,0.519751,0.000000
2.390000,-0.327752,-1.187506,-1.213144,2.799922,-0.116025,0.234066,0.858060,0.935287,-1.920392,-5.936997,-0.854210,-3.311504,-7.616685,7.630914,24.551493,0.079353,-0.073018,0.000000,-0.091449,0.522318,0.000000
2.400000,-0.299711,-1.188620,-1.210900,2.808205,-0.106714,0.214701,0.798319,0.927144,-1.952272,-6.010258,-0.773364,-3.063961,-7.089112,8.325886,24.929240,0.078481,-0.067767,0.000000,-0.082764,0.524614,-0.000000
2.410000,-0.271590,-1.189641,-1.208851,2.815886,-0.097480,0.195029,0.737869,0.919834,-1.981658,-6.078972,-0.687661,-2.812445,-6.564838,8.963062,25.289684,0.077698,-0.062494,0.000000,-0.073752,0.526793,0.000000
2.420000,-0.243396,-1.190570,-1.207001,2.822960,-0.088314,0.175076,0.676764,0.913424,-2.008516,-6.140736,-0.592830,-2.558986,-5.873076,9.839798,25.474735,0.077009,-0.057201,0.000000,-0.064062,0.528675,-0.000000
2.430000,-0.215133,-1.191407,-1.205351,2.829419,-0.079208,0.154867,0.615068,0.907988,-2.032823,-6.198221,-0.494291,-2.301421,-5.626255,9.853153,26.036437,0.076418,-0.051889,0.000000,-0.054128,0.530479,-0.000000
2.440000,-0.186809,-1.192154,-1.203904,2.835259,-0.070151,0.134428,0.552813,0.903546,-2.054531,-6.251524,-0.392861,-2.039900,-4.947625,10.577644,26.185852,0.075926,-0.046560,0.000000,-0.044009,0.532223,0.000000
2.450000,-0.158430,-1.192811,-1.202663,2.840474,-0.061133,0.113785,0.490062,0.900158,-2.073618,-6.297901,-0.284270,-1.777126,-4.413501,10.974973,26.442287,0.075539,-0.041215,0.000000,-0.033357,0.533695,0.000000
2.460000,-0.130002,-1.193377,-1.201629,2.845059,-0.052144,0.092965,0.426871,0.897865,-2.090061,-6.339362,-0.173952,-1.510882,-3.872717,11.292328,26.682869,0.075260,-0.035856,0.000000,-0.022602,0.535062,0.000000
2.470000,-0.101531,-1.193853,-1.200804,2.849010,-0.043172,0.071993,0.363293,0.896706,-2.103838,-6.375298,-0.056672,-1.244651,-3.319767,11.943664,26.675554,0.075089,-0.030484,0.000000,-0.011316,0.536287,0.000000
2.480000,-0.073024,-1.194240,-1.200190,2.852324,-0.034206,0.050897,0.299383,0.896729,-2.114941,-6.405868,0.060314,-0.975010,-2.794220,11.435419,27.252355,0.075033,-0.025100,0.000000,-0.000073,0.537379,-0.000000
2.490000,-0.044487,-1.194538,-1.199786,2.854997,-0.025234,0.029703,0.235194,0.897906,-2.123326,-6.431068,0.176018,-0.702034,-2.239906,11.903975,27.221500,0.075088,-0.019706,0.000000,0.011059,0.538345,-0.000000
2.500000,-0.015926,-1.194745,-1.199596,2.857027,-0.016244,0.008439,0.170780,0.900268,-2.128986,-6.450711,0.296368,-0.429662,-1.694080,11.944023,27.365946,0.075256,-0.014303,0.000000,0.022562,0.539180,0.000000
2.510000,0.012652,-1.194862,-1.199618,2.858412,-0.007225,-0.012867,0.106198,0.903822,-2.131909,-6.464821,0.414072,-0.154708,-1.145229,11.890819,27.493240,0.075538,-0.008893,0.000000,0.033862,0.539884,0.000000
2.520000,0.041240,-1.194889,-1.199853,2.859151,0.001836,-0.034190,0.041501,0.908571,-2.132087,-6.473774,0.536758,0.118948,-0.628415,12.337137,27.357683,0.075935,-0.003475,0.000000,0.045584,0.540494,0.000000
2.530000,0.069833,-1.194825,-1.200302,2.859242,0.010951,-0.055500,-0.023259,0.914537,-2.129522,-6.477035,0.654336,0.394964,-0.023221,11.157082,27.845124,0.076448,0.001948,0.000000,0.056923,0.540965,0.000000
2.540000,0.098423,-1.194670,-1.200963,2.858685,0.020131,-0.076771,-0.088021,0.921635,-2.124179,-6.474580,0.765667,0.673261,0.497106,11.396907,27.685087,0.077071,0.007375,0.000000,0.067799,0.541299,0.000000
2.550000,0.127004,-1.194423,-1.201837,2.857482,0.029387,-0.097974,-0.152733,0.929864,-2.116065,-6.466950,0.879487,0.949640,1.045842,11.056201,27.710943,0.077805,0.012806,0.000000,0.078925,0.541541,-0.000000
2.560000,0.155570,-1.194082,-1.202922,2.855631,0.038732,-0.119083,-0.217342,0.939199,-2.105180,-6.453938,0.986670,1.227441,1.589185,10.633886,27.716325,0.078648,0.018239,0.000000,0.089575,0.541675,0.000000
2.570000,0.184115,-1.193648,-1.204218,2.853135,0.048175,-0.140069,-0.281791,0.949604,-2.091527,-6.434869,1.094372,1.502692,2.192775,10.637555,27.453736,0.079598,0.023672,0.000000,0.100333,0.541640,-0.000000
2.580000,0.212631,-1.193118,-1.205723,2.849996,0.057727,-0.160904,-0.346023,0.961057,-2.075122,-6.410752,1.193788,1.779034,2.629371,9.226434,27.813675,0.080653,0.029106,0.000000,0.110500,0.541524,0.000000
2.590000,0.241112,-1.192493,-1.207436,2.846216,0.067399,-0.181562,-0.409990,0.973447,-2.055942,-6.381643,1.283884,2.056344,3.224208,9.041608,27.517257,0.081805,0.034538,0.000000,0.119998,0.541335,0.000000
2.600000,0.269553,-1.191770,-1.209354,2.841797,0.077199,-0.202014,-0.473635,0.986734,-2.034008,-6.346545,1.372201,2.330345,3.763401,8.351563,27.402631,0.083053,0.039968,0.000000,0.129438,0.540973,0.000000
2.610000,0.297946,-1.190948,-1.211475,2.836744,0.087137,-0.222233,-0.536903,1.000855,-2.009334,-6.306032,1.450784,2.604158,4.306817,7.588991,27.257443,0.084391,0.045395,0.000000,0.138185,0.540494,-0.000000
2.620000,0.326286,-1.190027,-1.213797,2.831061,0.097219,-0.242192,-0.599740,1.015742,-1.981938,-6.260711,1.525937,2.874487,4.788408,7.204400,26.896321,0.085816,0.050816,0.000000,0.146752,0.539933,0.000000
2.630000,0.354565,-1.189003,-1.216318,2.824751,0.107454,-0.261863,-0.662098,1.031335,-1.951847,-6.209615,1.589905,3.143936,5.431399,5.572688,26.990282,0.087324,0.056233,0.000000,0.154510,0.539215,0.000000
2.640000,0.382779,-1.187877,-1.219034,2.817820,0.117848,-0.281220,-0.723913,1.047498,-1.919062,-6.152722,1.641810,3.412263,5.915245,5.029095,26.573736,0.088903,0.061641,0.000000,0.161389,0.538333,0.000000
2.650000,0.410920,-1.186646,-1.221941,2.810275,0.128405,-0.300235,-0.785137,1.064158,-1.883618,-6.091051,1.688365,3.676083,6.449941,4.044688,26.278093,0.090551,0.067042,0.000000,0.167929,0.537351,-0.000000
2.660000,0.438982,-1.185308,-1.225037,2.802120,0.139132,-0.318883,-0.845715,1.081218,-1.845549,-6.023650,1.721662,3.937127,6.984912,2.984910,25.932916,0.092258,0.072432,0.000000,0.173477,0.536190,-0.000000
2.670000,0.466960,-1.183863,-1.228317,2.793363,0.150031,-0.337137,-0.905595,1.098585,-1.804887,-5.951774,1.751392,4.194674,7.432974,2.587663,25.560538,0.094020,0.077811,0.000000,0.178847,0.534945,-0.000000
2.680000,0.494848,-1.182307,-1.231778,2.784010,0.161105,-0.354972,-0.964730,1.116191,-1.761670,-5.874094,1.765590,4.448009,8.103631,0.234360,25.098425,0.095831,0.083178,0.000000,0.183014,0.533489,-0.000000
2.690000,0.522638,-1.180640,-1.235415,2.774071,0.172355,-0.372362,-1.023058,1.133840,-1.715943,-5.790591,1.763380,4.696656,8.552382,-0.311710,24.631604,0.097676,0.088529,0.000000,0.185889,0.531808,0.000000
2.700000,0.550327,-1.178859,-1.239224,2.763552,0.183781,-0.389283,-1.080528,1.151448,-1.667753,-5.702693,1.756119,4.940401,9.070221,-1.513982,24.100955,0.099548,0.093864,0.000000,0.188431,0.530011,0.000000
2.710000,0.577908,-1.176964,-1.243199,2.752463,0.195383,-0.405710,-1.137092,1.168911,-1.617157,-5.609048,1.734394,5.177719,9.587532,-2.728331,23.503838,0.101440,0.099181,0.000000,0.189812,0.527957,0.000000
2.720000,0.605374,-1.174951,-1.247337,2.740814,0.207159,-0.421618,-1.192698,1.186104,-1.564207,-5.511609,1.702468,5.411683,9.967173,-3.762522,23.134833,0.103342,0.104478,0.000000,0.190409,0.525828,-0.000000
2.730000,0.632722,-1.172820,-1.251630,2.728613,0.219104,-0.436986,-1.247304,1.202914,-1.508953,-5.408298,1.656938,5.637189,10.695972,-5.348383,21.953056,0.105245,0.109753,0.000000,0.189870,0.523387,0.000000
2.740000,0.659945,-1.170569,-1.256074,2.715871,0.231215,-0.451790,-1.300844,1.219196,-1.451495,-5.299096,1.597560,5.853503,11.074288,-6.424132,21.447239,0.107135,0.115003,0.000000,0.188143,0.520602,0.000000
2.750000,0.687038,-1.168195,-1.260664,2.702599,0.243486,-0.466009,-1.353275,1.234832,-1.391897,-5.186259,1.527566,6.064711,11.560151,-7.678064,20.638449,0.109005,0.120225,0.000000,0.185525,0.517694,0.000000
2.760000,0.713995,-1.165698,-1.265393,2.688809,0.255909,-0.479621,-1.404550,1.249704,-1.330239,-5.067980,1.444728,6.265397,12.037779,-8.918415,19.754141,0.110842,0.125417,0.000000,0.181748,0.514430,-0.000000
2.770000,0.740812,-1.163077,-1.270254,2.674512,0.268477,-0.492607,-1.454623,1.263683,-1.266598,-4.946055,1.348953,6.462045,12.399578,-10.205725,19.309437,0.112636,0.130577,0.000000,0.176836,0.511018,-0.000000
2.780000,0.767484,-1.160328,-1.275243,2.659721,0.281179,-0.504947,-1.503453,1.276643,-1.201042,-4.818890,1.241273,6.646011,13.033045,-11.326533,17.466559,0.114375,0.135701,0.000000,0.170769,0.507201,-0.000000
2.790000,0.794005,-1.157452,-1.280351,2.644448,0.294006,-0.516622,-1.550983,1.288470,-1.133725,-4.686538,1.121900,6.816389,13.380177,-12.573693,16.859401,0.116047,0.140786,0.000000,0.163521,0.502938,-0.000000
2.800000,0.820371,-1.154448,-1.285573,2.628706,0.306945,-0.527616,-1.597174,1.299039,-1.064729,-4.550873,0.990132,6.980816,13.805270,-13.745927,15.758631,0.117641,0.145828,0.000000,0.155072,0.498465,0.000000
2.810000,0.846578,-1.151313,-1.290901,2.612509,0.319982,-0.537911,-1.641986,1.308232,-0.994160,-4.410858,0.846453,7.130943,14.209394,-14.899046,14.585157,0.119144,0.150823,0.000000,0.145341,0.493558,-0.000000
2.820000,0.872620,-1.148048,-1.296329,2.595871,0.333104,-0.547494,-1.685377,1.315938,-0.922124,-4.266610,0.693058,7.275357,14.623236,-15.856310,13.971850,0.120545,0.155768,0.000000,0.134580,0.488313,-0.000000
2.830000,0.898494,-1.144651,-1.301848,2.578806,0.346296,-0.556349,-1.727306,1.322053,-0.848709,-4.118747,0.527726,7.403553,14.945758,-17.205283,11.649465,0.121831,0.160659,0.000000,0.122436,0.482612,0.000000
2.840000,0.924195,-1.141122,-1.307453,2.561330,0.359540,-0.564464,-1.767740,1.326453,-0.774112,-3.967477,0.350788,7.514609,15.318921,-18.090115,10.874309,0.122989,0.165491,0.000000,0.108879,0.476417,0.000000
2.850000,0.949719,-1.137460,-1.313135,2.543456,0.372819,-0.571828,-1.806643,1.329042,-0.698436,-3.812556,0.165389,7.618166,15.647752,-19.063508,9.510847,0.124006,0.170259,0.000000,0.094263,0.469816,-0.000000
2.860000,0.975062,-1.133665,-1.318887,2.525202,0.386114,-0.578430,-1.843982,1.329733,-0.621810,-3.654593,-0.028569,7.704594,15.954309,-19.947060,8.090133,0.124870,0.174958,0.000000,0.078428,0.462683,-0.000000
2.870000,1.000222,-1.129738,-1.324701,2.506582,0.399407,-0.584261,-1.879724,1.328424,-0.544366,-3.493424,-0.235447,7.782802,16.262838,-21.195043,7.232755,0.125569,0.179584,0.000000,0.061024,0.455110,-0.000000
2.880000,1.025193,-1.125677,-1.330570,2.487613,0.412676,-0.589315,-1.913842,1.325008,-0.466218,-3.329685,-0.447572,7.842573,16.480522,-21.211250,4.706173,0.126087,0.184130,0.000000,0.042602,0.446949,0.000000
2.890000,1.049973,-1.121484,-1.336485,2.468311,0.425900,-0.593584,-1.946310,1.319460,-0.387581,-3.163637,-0.663926,7.883141,16.737728,-22.271354,3.718067,0.126418,0.188592,0.000000,0.023209,0.438162,0.000000
2.900000,1.074558,-1.117160,-1.342439,2.448692,0.439057,-0.597065,-1.977106,1.311690,-0.308581,-2.995127,-0.890834,7.914164,16.947050,-22.873215,2.167881,0.126546,0.192962,0.000000,0.002319,0.428866,0.000000
2.910000,1.098946,-1.112704,-1.348424,2.428774,0.452126,-0.599755,-2.006208,1.301638,-0.229363,-2.824929,-1.120260,7.926687,17.126247,-23.366086,0.587493,0.126461,0.197236,0.000000,-0.019454,0.418930,-0.000000
2.920000,1.123133,-1.108117,-1.354431,2.408574,0.465082,-0.601652,-2.033596,1.289240,-0.150080,-2.652338,-1.361242,7.928210,17.349784,-24.460070,-0.533429,0.126151,0.201406,0.000000,-0.042924,0.408387,-0.000000
2.930000,1.147116,-1.103402,-1.360454,2.388108,0.477903,-0.602757,-2.059251,1.274418,-0.070864,-2.478816,-1.601697,7.910770,17.348418,-23.604849,-2.964138,0.125601,0.205467,0.000000,-0.067067,0.397183,0.000000
2.940000,1.170894,-1.098560,-1.366484,2.367395,0.490563,-0.603070,-2.083170,1.257216,0.008069,-2.304709,-1.840236,7.873918,17.505981,-24.446940,-4.156615,0.124808,0.209411,0.000000,-0.091768,0.385292,0.000000
2.950000,1.194463,-1.093592,-1.372513,2.346451,0.503039,-0.602597,-2.105340,1.237578,0.086580,-2.129120,-2.087274,7.825506,17.568972,-24.586826,-5.775595,0.123760,0.213231,0.000000,-0.117980,0.372745,0.000000
2.960000,1.217822,-1.088500,-1.378533,2.325294,0.515306,-0.601341,-2.125759,1.215488,0.164517,-1.954864,-2.330487,7.759033,17.570931,-24.593400,-7.389610,0.122447,0.216921,0.000000,-0.144595,0.359644,-0.000000
2.970000,1.240969,-1.083286,-1.384537,2.303941,0.527340,-0.599309,-2.144414,1.190925,0.241718,-1.775100,-2.583917,7.678923,18.091728,-25.539522,-8.754787,0.120861,0.220474,0.000000,-0.172961,0.345369,-0.000000
2.980000,1.263900,-1.077954,-1.390517,2.282411,0.539116,-0.596509,-2.161276,1.163839,0.318036,-1.599118,-2.829682,7.581375,17.090778,-23.580944,-10.755720,0.118988,0.223878,0.000000,-0.201373,0.330711,-0.000000
2.990000,1.286616,-1.072505,-1.396465,2.260722,0.550609,-0.592952,-2.176413,1.134367,0.393286,-1.427614,-3.066084,7.466395,17.493048,-24.225704,-12.110734,0.116835,0.227134,0.000000,-0.229636,0.315711,0.000000
3.000000,1.309114,-1.066943,-1.402373,2.238889,0.561796,-0.588648,-2.189809,1.102486,0.467322,-1.251795,-3.309273,7.338182,17.378740,-23.856252,-13.651969,0.114390,0.230232,0.000000,-0.259319,0.299551,0.000000
3.010000,1.331394,-1.061270,-1.408235,2.216931,0.572651,-0.583610,-2.201466,1.068214,0.539997,-1.079988,-3.544236,7.194421,17.227559,-23.397098,-15.146591,0.111649,0.233163,0.000000,-0.288926,0.282981,0.000000
3.020000,1.353453,-1.055491,-1.414043,2.194865,0.583152,-0.577853,-2.211394,1.031595,0.611157,-0.905036,-3.779449,7.034898,17.516849,-23.362230,-16.700356,0.108608,0.235922,0.000000,-0.319290,0.265242,0.000000
3.030000,1.375291,-1.049608,-1.419790,2.172709,0.593275,-0.571392,-2.219584,0.992657,0.680650,-0.734812,-4.005550,6.861625,16.516620,-21.834610,-17.944787,0.105264,0.238499,0.000000,-0.349409,0.247156,0.000000
3.040000,1.396907,-1.043627,-1.425469,2.150479,0.602998,-0.564246,-2.226110,0.951521,0.748346,-0.569882,-4.221268,6.675143,16.710157,-21.564929,-19.394131,0.101622,0.240892,0.000000,-0.379090,0.228788,-0.000000
3.050000,1.418300,-1.037550,-1.431072,2.128192,0.612298,-0.556432,-2.230970,0.908236,0.814104,-0.402749,-4.434258,6.474366,16.469755,-20.749166,-20.700924,0.097681,0.243094,0.000000,-0.409085,0.209318,0.000000
3.060000,1.439470,-1.031382,-1.436595,2.105865,0.621156,-0.547970,-2.234161,0.862880,0.877800,-0.235425,-4.635222,6.262843,16.302930,-19.822538,-21.914752,0.093443,0.245096,0.000000,-0.438316,0.189026,-0.000000
3.070000,1.460417,-1.025128,-1.442030,2.083515,0.629549,-0.538883,-2.235740,0.815532,0.939296,-0.083093,-4.834050,6.033329,14.828889,-19.548634,-23.664819,0.088913,0.246894,0.000000,-0.467889,0.169318,-0.000000
3.080000,1.481141,-1.018793,-1.447371,2.061156,0.637460,-0.529192,-2.235799,0.766251,0.998444,0.075127,-5.017936,5.796332,16.832574,-17.204077,-23.712865,0.084090,0.248491,0.000000,-0.496192,0.148277,0.000000
3.090000,1.501640,-1.012381,-1.452612,2.038804,0.644869,-0.518922,-2.234211,0.715230,1.055204,0.239959,-5.185592,5.553002,15.455119,-16.699690,-25.255708,0.078994,0.249865,0.000000,-0.522985,0.125844,0.000000
3.100000,1.521917,-1.005897,-1.457747,2.016477,0.651759,-0.508097,-2.231061,0.662549,1.109446,0.389885,-5.348430,5.294148,15.198986,-15.473155,-26.187405,0.073630,0.251019,0.000000,-0.549557,0.104076,-0.000000
3.110000,1.541970,-0.999347,-1.462772,1.994188,0.658114,-0.496742,-2.226410,0.608334,1.161072,0.539683,-5.491841,5.029679,14.862764,-14.105641,-27.022019,0.068011,0.251950,0.000000,-0.574086,0.081686,0.000000
3.120000,1.561801,-0.992737,-1.467680,1.971953,0.663921,-0.484884,-2.220270,0.552685,1.209987,0.688031,-5.638694,4.750957,14.698937,-14.376038,-28.388842,0.062145,0.252654,0.000000,-0.599093,0.058593,-0.000000
3.130000,1.581409,-0.986071,-1.472468,1.949787,0.669163,-0.472552,-2.212667,0.495649,1.256082,0.831399,-5.760719,4.468893,13.966630,-9.993988,-27.999613,0.056039,0.253125,0.000000,-0.621253,0.035510,-0.000000
3.140000,1.600797,-0.979355,-1.477130,1.927705,0.673830,-0.459772,-2.203661,0.437566,1.299360,0.969358,-5.856238,4.184797,13.724539,-9.991981,-29.127085,0.049732,0.253366,0.000000,-0.640242,0.012561,0.000000
3.150000,1.619964,-0.972596,-1.481662,1.905719,0.677911,-0.446574,-2.193286,0.378505,1.339735,1.104903,-5.952907,3.889389,13.275379,-8.451531,-29.617971,0.043233,0.253374,0.000000,-0.659143,-0.010809,0.000000
3.160000,1.638912,-0.965799,-1.486060,1.883843,0.681398,-0.432987,-2.181605,0.318570,1.377148,1.229768,-6.031796,3.592934,12.692856,-6.982521,-30.000219,0.036557,0.253153,0.000000,-0.675674,-0.033351,0.000000
3.170000,1.657641,-0.958970,-1.490321,1.862091,0.684281,-0.419041,-2.168629,0.257946,1.411554,1.367886,-6.089383,3.286532,13.954901,-4.862541,-30.931784,0.029729,0.252698,0.000000,-0.689342,-0.057936,-0.000000
3.180000,1.676154,-0.952116,-1.494440,1.840475,0.686555,-0.404766,-2.154313,0.196817,1.442886,1.488385,-6.135939,2.981603,10.110768,-4.458180,-30.027952,0.022776,0.252000,0.000000,-0.701223,-0.080759,0.000000
3.190000,1.694451,-0.945241,-1.498415,1.819008,0.688215,-0.390193,-2.138933,0.135260,1.471198,1.589693,-6.171874,2.679545,11.128925,-2.396216,-30.704375,0.015711,0.251090,0.000000,-0.711296,-0.101522,-0.000000
3.200000,1.712534,-0.938353,-1.502243,1.797700,0.689259,-0.375353,-2.122464,0.073456,1.496449,1.702587,-6.186706,2.370681,10.469399,-0.903461,-30.717270,0.008561,0.249962,0.000000,-0.718279,-0.123914,-0.000000
3.210000,1.730406,-0.931458,-1.505921,1.776563,0.689684,-0.360275,-2.104917,0.011560,1.518633,1.806024,-6.190251,2.066695,9.897122,0.558445,-30.599010,0.001351,0.248616,0.000000,-0.723247,-0.145184,-0.000000
3.220000,1.748066,-0.924562,-1.509448,1.755605,0.689491,-0.344990,-2.086388,-0.050271,1.537745,1.897567,-6.172222,1.754088,8.720434,2.688610,-31.388672,-0.005892,0.247062,0.000000,-0.724949,-0.165385,-0.000000
3.230000,1.765518,-0.917670,-1.512820,1.734838,0.688680,-0.329530,-2.066970,-0.111854,1.553748,1.986929,-6.144016,1.450110,9.161329,2.937359,-29.375973,-0.013141,0.245310,0.000000,-0.724679,-0.185070,0.000000
3.240000,1.782764,-0.910790,-1.516038,1.714269,0.687255,-0.313925,-2.046653,-0.173123,1.566785,2.074515,-6.106372,1.156366,8.042705,4.945498,-29.882121,-0.020380,0.243362,0.000000,-0.722540,-0.204201,-0.000000
3.250000,1.799804,-0.903927,-1.519099,1.693907,0.685219,-0.298204,-2.025524,-0.233907,1.576848,2.150449,-6.048263,0.857195,7.455963,6.313200,-29.416261,-0.027581,0.241230,0.000000,-0.717186,-0.222050,-0.000000
3.260000,1.816643,-0.897088,-1.522002,1.673761,0.682579,-0.282398,-2.003648,-0.294050,1.583966,2.224041,-5.978138,0.567643,6.892900,7.671340,-28.860464,-0.034717,0.238922,0.000000,-0.709656,-0.239213,-0.000000
3.270000,1.833280,-0.890278,-1.524746,1.653837,0.679340,-0.266535,-1.981092,-0.353427,1.588190,2.284915,-5.895287,0.276751,5.641765,8.924637,-28.937166,-0.041766,0.236448,0.000000,-0.699832,-0.254771,0.000000
3.280000,1.849720,-0.883503,-1.527332,1.634141,0.675513,-0.250644,-1.957952,-0.411911,1.589541,2.344431,-5.799107,-0.003125,6.273587,10.304261,-27.014563,-0.048706,0.233824,0.000000,-0.687733,-0.269650,0.000000
3.290000,1.865964,-0.876769,-1.529759,1.614680,0.671106,-0.234753,-1.934203,-0.469366,1.588171,2.403139,-5.690041,-0.270762,5.106363,11.466687,-26.873744,-0.055514,0.231051,0.000000,-0.673481,-0.283863,0.000000
3.300000,1.882014,-0.870083,-1.532027,1.595459,0.666129,-0.218889,-1.909936,-0.525675,1.584123,2.449665,-5.569679,-0.537232,4.560248,12.629029,-26.038908,-0.062169,0.228144,0.000000,-0.657227,-0.296381,0.000000
3.310000,1.897874,-0.863449,-1.534137,1.576482,0.660596,-0.203079,-1.885222,-0.580737,1.577467,2.492200,-5.441345,-0.792364,3.992010,13.658466,-25.149573,-0.068654,0.225115,0.000000,-0.639497,-0.307857,0.000000
3.320000,1.913545,-0.856873,-1.536089,1.557756,0.654519,-0.187348,-1.860107,-0.634417,1.568292,2.529934,-5.290918,-1.041623,3.513185,15.803816,-24.527172,-0.074947,0.221975,0.000000,-0.618650,-0.318334,-0.000000
3.330000,1.929030,-0.850360,-1.537884,1.539281,0.647913,-0.171722,-1.834643,-0.686553,1.556675,2.561589,-5.138342,-1.279251,2.817889,14.681149,-22.985655,-0.081025,0.218735,0.000000,-0.597151,-0.327511,0.000000
3.340000,1.944331,-0.843916,-1.539524,1.521064,0.640793,-0.156223,-1.808896,-0.737187,1.542750,2.587187,-4.985136,-1.504559,2.346405,16.566662,-22.237298,-0.086889,0.215408,0.000000,-0.575261,-0.335377,0.000000
3.350000,1.959452,-0.837546,-1.541009,1.503104,0.633175,-0.140874,-1.782914,-0.786180,1.526605,2.608178,-4.812491,-1.722441,1.810668,17.334856,-21.166045,-0.092520,0.212005,0.000000,-0.550801,-0.342232,-0.000000
3.360000,1.974394,-0.831254,-1.542342,1.485406,0.625075,-0.125697,-1.756757,-0.833437,1.508342,2.622144,-4.638162,-1.928459,1.257942,18.017338,-20.069353,-0.097905,0.208539,0.000000,-0.525970,-0.347697,0.000000
3.370000,1.989161,-0.825046,-1.543524,1.467970,0.616512,-0.110714,-1.730467,-0.878881,1.488070,2.635895,-4.447796,-2.124076,1.229129,19.561124,-19.014430,-0.103032,0.205019,0.000000,-0.499167,-0.352608,0.000000
3.380000,2.003755,-0.818925,-1.544557,1.450797,0.607504,-0.095942,-1.704070,-0.922396,1.465900,2.641199,-4.257315,-2.307932,-0.174131,18.508421,-17.752615,-0.107889,0.201454,0.000000,-0.472322,-0.356005,0.000000
3.390000,2.018178,-0.812897,-1.545444,1.433888,0.598071,-0.081402,-1.677674,-0.964035,1.441952,2.637840,-4.068080,-2.479794,-0.226750,19.815067,-16.653614,-0.112480,0.197863,0.000000,-0.445656,-0.357887,-0.000000
3.400000,2.032433,-0.806965,-1.546186,1.417243,0.588230,-0.067109,-1.651308,-1.003705,1.416340,2.634451,-3.865380,-2.640666,-0.714858,20.227573,-15.483690,-0.116796,0.194252,0.000000,-0.417541,-0.359289,-0.000000
3.410000,2.046524,-0.801134,-1.546787,1.400862,0.578003,-0.053080,-1.624997,-1.041342,1.389175,2.627279,-3.661503,-2.790426,-1.119972,20.597897,-14.327524,-0.120831,0.190630,0.000000,-0.389453,-0.359804,0.000000
3.420000,2.060451,-0.795407,-1.547248,1.384743,0.567410,-0.039330,-1.598809,-1.076919,1.360581,2.608412,-3.453091,-2.925935,-2.257986,21.015750,-12.910322,-0.124584,0.187010,0.000000,-0.361084,-0.358498,0.000000
3.430000,2.074219,-0.789787,-1.547574,1.368885,0.556472,-0.025873,-1.572823,-1.110397,1.330688,2.590417,-3.242618,-3.051497,-1.324958,21.066420,-12.207761,-0.128053,0.183405,0.000000,-0.332743,-0.356923,0.000000
3.440000,2.087830,-0.784278,-1.547767,1.353286,0.545209,-0.012720,-1.546992,-1.141767,1.299582,2.574064,-3.030796,-3.167382,-2.337333,21.346413,-10.834292,-0.131239,0.179813,0.000000,-0.304549,-0.355194,0.000000
3.450000,2.101286,-0.778884,-1.547830,1.337944,0.533644,0.000115,-1.521384,-1.171004,1.267389,2.547104,-2.816392,-3.269395,-2.656760,21.465914,-9.707893,-0.134144,0.176246,0.000000,-0.276430,-0.351872,0.000000
3.460000,2.114590,-0.773606,-1.547766,1.322857,0.521796,0.012624,-1.496038,-1.198098,1.234219,2.521986,-2.602517,-3.363011,-2.918114,21.506569,-8.634754,-0.136769,0.172711,0.000000,-0.248722,-0.348502,0.000000
3.470000,2.127744,-0.768449,-1.547578,1.308023,0.509689,0.024797,-1.470998,-1.223037,1.200196,2.483704,-2.384546,-3.438633,-4.196792,21.877048,-6.866302,-0.139118,0.169218,0.000000,-0.221036,-0.343244,0.000000
3.480000,2.140751,-0.763413,-1.547271,1.293436,0.497343,0.036626,-1.446347,-1.245800,1.165464,2.449408,-2.169383,-3.508248,-2.642929,21.140240,-7.072865,-0.141193,0.165778,0.000000,-0.194035,-0.338284,-0.000000
3.490000,2.153613,-0.758502,-1.546847,1.279095,0.484780,0.048104,-1.421989,-1.266438,1.130045,2.420006,-1.957851,-3.572647,-3.778750,21.360565,-5.435701,-0.143002,0.162382,0.000000,-0.167804,-0.333742,0.000000
3.500000,2.166334,-0.753718,-1.546310,1.264995,0.472021,0.059225,-1.397996,-1.284946,1.094074,2.378490,-1.744066,-3.620263,-3.981437,21.185827,-4.467850,-0.144549,0.159041,0.000000,-0.141836,-0.327545,0.000000
3.510000,2.178914,-0.749063,-1.545664,1.251133,0.459088,0.069984,-1.374438,-1.301335,1.057655,2.332236,-1.534302,-3.662152,-4.314972,20.954257,-3.549905,-0.145841,0.155764,0.000000,-0.116681,-0.320741,-0.000000
3.520000,2.191357,-0.744537,-1.544912,1.237505,0.446001,0.080377,-1.351285,-1.315625,1.020890,2.300989,-1.323336,-3.688014,-2.857201,21.042456,-1.983176,-0.146884,0.152551,0.000000,-0.091973,-0.315346,-0.000000
3.530000,2.203665,-0.740143,-1.544057,1.224107,0.432783,0.090401,-1.328471,-1.327821,0.983907,2.255719,-1.117569,-3.709383,-6.223481,20.098409,-2.307833,-0.147684,0.149395,0.000000,-0.068160,-0.308375,0.000000
3.540000,2.215840,-0.735882,-1.543105,1.210934,0.419452,0.100054,-1.306229,-1.337997,0.946712,2.195267,-0.917666,-3.727116,-4.931271,20.067146,-0.886835,-0.148251,0.146322,0.000000,-0.045288,-0.299747,0.000000
3.550000,2.227884,-0.731754,-1.542058,1.197980,0.406029,0.109335,-1.284502,-1.346171,0.909419,2.149224,-0.717967,-3.730289,-5.205008,19.676576,-0.110759,-0.148591,0.143327,0.000000,-0.022975,-0.292534,0.000000
3.560000,2.239800,-0.727761,-1.540919,1.185242,0.392535,0.118242,-1.263267,-1.352370,0.872121,2.097661,-0.522265,-3.728097,-5.371001,19.285552,0.639516,-0.148713,0.140408,0.000000,-0.001431,-0.284719,0.000000
3.570000,2.251590,-0.723904,-1.539694,1.172713,0.378988,0.126777,-1.242575,-1.356644,0.834890,2.039419,-0.333946,-3.716736,-6.015127,18.541622,1.532391,-0.148624,0.137572,0.000000,0.018936,-0.276134,0.000000
3.580000,2.263255,-0.720182,-1.538385,1.160388,0.365408,0.134941,-1.222471,-1.359055,0.797805,1.982863,-0.147993,-3.699551,-5.284297,18.650188,1.895150,-0.148336,0.134823,0.000000,0.038719,-0.267749,0.000000
3.590000,2.274798,-0.716596,-1.536996,1.148262,0.351813,0.142734,-1.202908,-1.359611,0.760916,1.928572,0.035577,-3.677064,-5.831244,17.890319,2.690533,-0.147851,0.132157,0.000000,0.057936,-0.259637,0.000000
3.600000,2.286221,-0.713145,-1.535532,1.136328,0.338222,0.150160,-1.183923,-1.358373,0.724292,1.868534,0.211181,-3.646672,-5.912128,17.396272,3.286133,-0.147181,0.129576,0.000000,0.075982,-0.250907,0.000000
3.610000,2.297526,-0.709831,-1.533994,1.124582,0.324652,0.157221,-1.165520,-1.355398,0.687996,1.812363,0.383105,-3.611786,-5.919916,16.883256,3.831646,-0.146334,0.127082,0.000000,0.093369,-0.242645,-0.000000
3.620000,2.308713,-0.706652,-1.532388,1.113016,0.311120,0.163921,-1.147724,-1.350737,0.652086,1.744673,0.547847,-3.568816,-7.030937,16.161588,4.613073,-0.145317,0.124676,0.000000,0.109718,-0.233164,0.000000
3.630000,2.319787,-0.703609,-1.530717,1.101625,0.297642,0.170264,-1.130599,-1.344454,0.616629,1.684068,0.708367,-3.522654,-5.068741,15.943085,4.608291,-0.144142,0.122365,0.000000,0.125401,-0.224521,0.000000
3.640000,2.330747,-0.700699,-1.528984,1.090402,0.284236,0.176255,-1.114012,-1.336583,0.581640,1.631546,0.864657,-3.473889,-6.022242,15.212606,5.282609,-0.142812,0.120135,0.000000,0.140442,-0.216817,0.000000
3.650000,2.341595,-0.697924,-1.527193,1.079343,0.270916,0.181899,-1.098012,-1.327188,0.547176,1.568677,1.013430,-3.418354,-5.961789,14.640044,5.674243,-0.141336,0.117989,0.000000,0.154485,-0.208050,0.000000
3.660000,2.352334,-0.695281,-1.525347,1.068440,0.257697,0.187201,-1.082632,-1.316330,0.513279,1.507217,1.157231,-3.360582,-5.966175,14.057579,6.021581,-0.139724,0.115931,0.000000,0.167860,-0.199523,-0.000000
3.670000,2.362964,-0.692769,-1.523450,1.057688,0.244594,0.192166,-1.067839,-1.304068,0.479988,1.452729,1.293987,-3.296680,-5.281544,13.351989,6.609195,-0.137982,0.113956,0.000000,0.180304,-0.191769,-0.000000
3.680000,2.373488,-0.690388,-1.521505,1.047081,0.231620,0.196803,-1.053593,-1.290467,0.447349,1.394233,1.425498,-3.231532,-6.426765,12.951062,6.410088,-0.136120,0.112060,0.000000,0.192111,-0.183692,0.000000
3.690000,2.383906,-0.688136,-1.519515,1.036614,0.218789,0.201116,-1.039971,-1.275575,0.415358,1.331345,1.551786,-3.165685,-5.794134,12.245546,6.898796,-0.134142,0.110249,0.000000,0.203305,-0.175259,0.000000
3.700000,2.394221,-0.686012,-1.517484,1.026280,0.206113,0.205112,-1.026937,-1.259456,0.384054,1.275369,1.670906,-3.094899,-5.753759,11.638123,7.108700,-0.132057,0.108520,0.000000,0.213621,-0.167597,-0.000000
3.710000,2.404433,-0.684014,-1.515414,1.016073,0.193604,0.208799,-1.014470,-1.242175,0.353463,1.218266,1.784303,-3.022995,-5.679686,11.026225,7.293549,-0.129872,0.106868,0.000000,0.223291,-0.159907,0.000000
3.720000,2.414543,-0.682139,-1.513309,1.005989,0.181273,0.212184,-1.002570,-1.223792,0.323602,1.161673,1.891294,-2.948884,-5.623355,10.386215,7.497969,-0.127593,0.105294,0.000000,0.232240,-0.152345,0.000000
3.730000,2.424553,-0.680387,-1.511171,0.996020,0.169131,0.215274,-0.991233,-1.204369,0.294489,1.106122,1.992326,-2.873672,-5.485052,9.820953,7.538994,-0.125229,0.103796,0.000000,0.240540,-0.144974,-0.000000
3.740000,2.434463,-0.678756,-1.509004,0.986162,0.157189,0.218076,-0.980444,-1.183965,0.266131,1.051717,2.087434,-2.797674,-5.408840,9.186638,7.682168,-0.122785,0.102371,0.000000,0.248209,-0.137802,0.000000
3.750000,2.444276,-0.677243,-1.506811,0.976409,0.145455,0.220599,-0.970196,-1.162642,0.238540,0.998090,2.176194,-2.720340,-5.301038,8.580290,7.754977,-0.120267,0.101018,0.000000,0.255210,-0.130782,0.000000
3.760000,2.453992,-0.675846,-1.504593,0.966757,0.133939,0.222849,-0.960479,-1.140458,0.211725,0.945442,2.259593,-2.642642,-5.190879,7.990182,7.802586,-0.117682,0.099736,0.000000,0.261664,-0.123940,-0.000000
3.770000,2.463612,-0.674563,-1.502355,0.957198,0.122648,0.224836,-0.951280,-1.117479,0.185690,0.894630,2.335002,-2.564162,-5.005785,7.199758,7.868317,-0.115037,0.098521,0.000000,0.267305,-0.117354,0.000000
3.780000,2.473136,-0.673392,-1.500098,0.947729,0.111592,0.226566,-0.942584,-1.093773,0.160441,0.844607,2.405861,-2.485797,-4.998977,6.976500,7.800484,-0.112338,0.097373,0.000000,0.272505,-0.110923,0.000000
3.790000,2.482567,-0.672331,-1.497824,0.938345,0.100775,0.228047,-0.934386,-1.069375,0.135973,0.795386,2.472392,-2.407786,-4.808518,6.223050,7.820140,-0.109588,0.096288,0.000000,0.277296,-0.104645,-0.000000
3.800000,2.491903,-0.671376,-1.495537,0.929040,0.090206,0.229288,-0.926669,-1.044352,0.112286,0.748154,2.531271,-2.329646,-4.672541,5.661828,7.783988,-0.106794,0.095266,0.000000,0.281337,-0.098631,-0.000000
3.810000,2.501148,-0.670526,-1.493239,0.919810,0.079890,0.230296,-0.919419,-1.018764,0.089379,0.702092,2.585396,-2.251916,-4.529745,5.109335,7.734939,-0.103963,0.094304,0.000000,0.284937,-0.092800,0.000000
3.820000,2.510300,-0.669777,-1.490932,0.910650,0.069833,0.231078,-0.912622,-0.992667,0.067244,0.657661,2.632980,-2.175223,-4.364419,4.463114,7.624673,-0.101098,0.093399,0.000000,0.287925,-0.087200,0.000000
3.830000,2.519361,-0.669128,-1.488618,0.901556,0.060038,0.231643,-0.906261,-0.966120,0.045873,0.614633,2.675827,-2.098977,-4.240688,4.109829,7.623133,-0.098205,0.092550,0.000000,0.290482,-0.081796,-0.000000
3.840000,2.528331,-0.668576,-1.486300,0.892523,0.050512,0.231998,-0.900324,-0.939165,0.025263,0.573044,2.714124,-2.023281,-4.067304,3.497026,7.490117,-0.095289,0.091755,0.000000,0.292630,-0.076591,-0.000000
3.850000,2.537212,-0.668117,-1.483979,0.883548,0.041256,0.232151,-0.894794,-0.911859,0.005402,0.533225,2.746269,-1.949011,-3.904682,2.988485,7.385669,-0.092355,0.091011,0.000000,0.294220,-0.071621,0.000000
3.860000,2.546002,-0.667750,-1.481658,0.874626,0.032275,0.232109,-0.889652,-0.884254,-0.013719,0.495493,2.773906,-1.875408,-3.727698,2.494231,7.275583,-0.089406,0.090315,0.000000,0.295412,-0.066908,-0.000000
3.870000,2.554704,-0.667471,-1.479338,0.865754,0.023572,0.231879,-0.884886,-0.856401,-0.032115,0.457887,2.795766,-1.804062,-3.708956,1.925413,7.048288,-0.086448,0.089667,0.000000,0.296095,-0.062265,0.000000
3.880000,2.563318,-0.667277,-1.477021,0.856927,0.015148,0.231469,-0.880485,-0.828353,-0.049802,0.423087,2.813412,-1.733295,-3.247916,1.607465,7.105398,-0.083486,0.089064,0.000000,0.296411,-0.057943,-0.000000
3.890000,2.571843,-0.667167,-1.474709,0.848143,0.007005,0.230885,-0.876413,-0.800146,-0.066782,0.391237,2.827043,-1.663110,-3.206704,1.075048,6.874027,-0.080521,0.088503,0.000000,0.296381,-0.053952,-0.000000
3.900000,2.580281,-0.667136,-1.472404,0.839398,-0.000855,0.230135,-0.872660,-0.771830,-0.083073,0.359678,2.835350,-1.595356,-3.020332,0.634402,6.732061,-0.077560,0.087982,0.000000,0.295892,-0.050040,-0.000000
3.910000,2.588631,-0.667183,-1.470107,0.830689,-0.008431,0.229226,-0.869215,-0.743452,-0.098692,0.329640,2.839727,-1.528626,-2.853191,0.208852,6.584938,-0.074604,0.087498,0.000000,0.295071,-0.046314,0.000000
3.920000,2.596894,-0.667304,-1.467820,0.822013,-0.015724,0.228164,-0.866051,-0.715053,-0.113653,0.303851,2.839251,-1.463918,-2.434658,-0.267640,6.382371,-0.071660,0.087051,0.000000,0.293831,-0.043053,-0.000000
3.930000,2.605071,-0.667497,-1.465544,0.813367,-0.022732,0.226955,-0.863138,-0.686678,-0.127974,0.278213,2.835138,-1.400437,-2.696936,-0.551445,6.314143,-0.068729,0.086635,0.000000,0.292290,-0.039839,0.000000
3.940000,2.613162,-0.667758,-1.463281,0.804749,-0.029457,0.225606,-0.860488,-0.658361,-0.141666,0.252548,2.827584,-1.338176,-2.304582,-0.991284,6.111117,-0.065815,0.086252,0.000000,0.290467,-0.036650,-0.000000
3.950000,2.621166,-0.668085,-1.461032,0.796156,-0.035900,0.224124,-0.858071,-0.630142,-0.154745,0.231013,2.815652,-1.277995,-2.134163,-1.358032,5.951570,-0.062921,0.085899,0.000000,0.288271,-0.033908,-0.000000
3.960000,2.629085,-0.668475,-1.458799,0.787587,-0.042061,0.222513,-0.855866,-0.602059,-0.167229,0.210420,2.800451,-1.219007,-1.958023,-1.708531,5.795189,-0.060050,0.085572,0.000000,0.285808,-0.031284,0.000000
3.970000,2.636918,-0.668925,-1.456582,0.779038,-0.047941,0.220781,-0.853855,-0.574147,-0.179135,0.192097,2.781266,-1.162558,-1.732043,-2.097953,5.543874,-0.057206,0.085271,0.000000,0.283012,-0.028920,0.000000
3.980000,2.644666,-0.669433,-1.454384,0.770509,-0.053544,0.218933,-0.852019,-0.546443,-0.190483,0.175246,2.759133,-1.107094,-1.638754,-2.325285,5.550701,-0.054391,0.084993,0.000000,0.279977,-0.026722,-0.000000
3.990000,2.652328,-0.669995,-1.452204,0.761998,-0.058871,0.216973,-0.850345,-0.518973,-0.201279,0.159840,2.734243,-1.052536,-1.416526,-2.678449,5.311358,-0.051607,0.084735,0.000000,0.276720,-0.024685,0.000000
4.000000,2.659906,-0.670609,-1.450045,0.753502,-0.063925,0.214909,-0.848814,-0.491770,-0.211543,0.146707,2.705855,-1.000437,-1.236374,-2.968358,5.158213,-0.048857,0.084497,0.000000,0.273174,-0.022903,-0.000000
4.010000,2.667399,-0.671273,-1.447906,0.745021,-0.068707,0.212744,-0.847403,-0.464864,-0.221290,0.135984,2.674989,-0.949238,-1.039291,-3.240613,5.012013,-0.046144,0.084276,0.000000,0.269430,-0.021374,0.000000
4.020000,2.674806,-0.671982,-1.445790,0.736553,-0.073223,0.210485,-0.846098,-0.438282,-0.230538,0.124717,2.640740,-0.900833,-1.086742,-3.569549,4.737576,-0.043470,0.084070,0.000000,0.265407,-0.019822,0.000000
4.030000,2.682130,-0.672736,-1.443697,0.728099,-0.077474,0.208135,-0.844896,-0.412056,-0.239308,0.116922,2.604429,-0.853050,-0.468159,-3.688887,4.821673,-0.040837,0.083878,0.000000,0.261222,-0.018624,0.000000
4.040000,2.689368,-0.673531,-1.441628,0.719655,-0.081465,0.205700,-0.843747,-0.386200,-0.247600,0.112778,2.566258,-0.805763,-0.489274,-3.980539,4.567552,-0.038246,0.083695,0.000000,0.256895,-0.017796,0.000000
4.050000,2.696523,-0.674365,-1.439583,0.711223,-0.085200,0.203184,-0.842644,-0.360741,-0.255434,0.108220,2.525186,-0.761101,-0.293861,-4.194002,4.433538,-0.035699,0.083522,0.000000,0.252330,-0.016952,-0.000000
4.060000,2.703593,-0.675234,-1.437564,0.702802,-0.088681,0.200593,-0.841574,-0.335703,-0.262825,0.105923,2.482029,-0.717306,-0.113718,-4.399467,4.301497,-0.033200,0.083355,0.000000,0.247599,-0.016342,0.000000
4.070000,2.710579,-0.676137,-1.435571,0.694392,-0.091915,0.197929,-0.840515,-0.311104,-0.269786,0.106419,2.437571,-0.675285,0.161989,-4.524221,4.127249,-0.030748,0.083194,0.000000,0.242781,-0.016025,0.000000
4.080000,2.717481,-0.677072,-1.433606,0.685992,-0.094905,0.195198,-0.839443,-0.286959,-0.276333,0.108092,2.390868,-0.634245,0.170673,-4.815174,4.082176,-0.028345,0.083034,0.000000,0.237778,-0.015834,-0.000000
4.090000,2.724299,-0.678035,-1.431668,0.677603,-0.097656,0.192404,-0.838350,-0.263294,-0.282474,0.110848,2.342013,-0.594111,0.431033,-4.918590,3.921083,-0.025993,0.082877,0.000000,0.232598,-0.015759,0.000000
4.100000,2.731033,-0.679024,-1.429758,0.669225,-0.100173,0.189550,-0.837216,-0.240121,-0.288222,0.116269,2.292248,-0.555604,0.601771,-5.066789,3.805247,-0.023693,0.082718,0.000000,0.227364,-0.015961,0.000000
4.110000,2.737683,-0.680037,-1.427877,0.660859,-0.102460,0.186641,-0.836020,-0.217453,-0.293588,0.123242,2.241343,-0.517921,0.774833,-5.190044,3.696155,-0.021446,0.082557,0.000000,0.222049,-0.016324,0.000000
4.120000,2.744250,-0.681072,-1.426025,0.652505,-0.104523,0.183680,-0.834747,-0.195305,-0.298586,0.131596,2.187770,-0.481999,0.912086,-5.446086,3.523876,-0.019253,0.082391,0.000000,0.216504,-0.016838,0.000000
4.130000,2.750733,-0.682127,-1.424203,0.644164,-0.106368,0.180670,-0.833381,-0.173697,-0.303230,0.141821,2.134066,-0.446692,1.132739,-5.290222,3.539404,-0.017116,0.082219,0.000000,0.210974,-0.017541,-0.000000
4.140000,2.757133,-0.683199,-1.422412,0.635838,-0.107999,0.177616,-0.831904,-0.152623,-0.307522,0.153899,2.080469,-0.411907,1.265139,-5.503869,3.382951,-0.015033,0.082040,0.000000,0.205482,-0.018432,-0.000000
4.150000,2.763450,-0.684286,-1.420651,0.627527,-0.109422,0.174521,-0.830299,-0.132096,-0.311474,0.167258,2.024682,-0.378718,1.421969,-5.574594,3.290758,-0.013007,0.081850,0.000000,0.199801,-0.019462,-0.000000
4.160000,2.769684,-0.685387,-1.418922,0.619232,-0.110643,0.171388,-0.828554,-0.112129,-0.315098,0.182059,1.968689,-0.346194,1.568964,-5.636388,3.201804,-0.011037,0.081650,0.000000,0.194124,-0.020639,0.000000
4.170000,2.775835,-0.686499,-1.417224,0.610956,-0.111667,0.168220,-0.826651,-0.092726,-0.318402,0.198910,1.911862,-0.314786,1.769730,-5.713160,3.092833,-0.009124,0.081437,0.000000,0.188388,-0.022028,-0.000000
4.180000,2.781903,-0.687620,-1.415557,0.602700,-0.112499,0.165021,-0.824573,-0.073893,-0.321396,0.216792,1.854753,-0.284063,1.804735,-5.706337,3.052867,-0.007269,0.081209,0.000000,0.182647,-0.023524,0.000000
4.190000,2.787889,-0.688748,-1.413923,0.594465,-0.113146,0.161793,-0.822312,-0.055631,-0.324085,0.235605,1.797491,-0.253969,1.987866,-5.758327,2.954105,-0.005471,0.080966,0.000000,0.176910,-0.025117,0.000000
4.200000,2.793793,-0.689882,-1.412322,0.586254,-0.113614,0.158540,-0.819854,-0.037945,-0.326479,0.256268,1.739739,-0.224865,2.112798,-5.776443,2.880069,-0.003731,0.080706,0.000000,0.171145,-0.026900,0.000000
4.210000,2.799614,-0.691020,-1.410753,0.578069,-0.113907,0.155265,-0.817184,-0.020838,-0.328585,0.277880,1.681588,-0.196400,2.231026,-5.792283,2.809253,-0.002049,0.080428,0.000000,0.165358,-0.028783,0.000000
4.220000,2.805354,-0.692160,-1.409216,0.569911,-0.114033,0.151969,-0.814291,-0.004308,-0.330409,0.301074,1.624476,-0.168707,2.384982,-5.686774,2.733901,-0.000424,0.080130,0.000000,0.159690,-0.030828,0.000000
4.230000,2.811013,-0.693300,-1.407713,0.561784,-0.113995,0.148657,-0.811160,0.011649,-0.331961,0.325102,1.566665,-0.141626,2.418859,-5.875617,2.682971,0.001145,0.079811,0.000000,0.153969,-0.032961,0.000000
4.240000,2.816590,-0.694439,-1.406243,0.553689,-0.113802,0.145331,-0.807786,0.027022,-0.333244,0.349871,1.508168,-0.115120,2.555878,-5.763738,2.614632,0.002656,0.079470,0.000000,0.148194,-0.035174,0.000000
4.250000,2.822086,-0.695575,-1.404807,0.545629,-0.113457,0.141993,-0.804158,0.041818,-0.334265,0.376001,1.450923,-0.089289,2.648256,-5.742209,2.556066,0.004109,0.079107,0.000000,0.142555,-0.037527,-0.000000
4.260000,2.827503,-0.696708,-1.403403,0.537607,-0.112967,0.138647,-0.800263,0.056041,-0.335031,0.403013,1.393962,-0.063946,2.737613,-5.702284,2.501254,0.005507,0.078719,0.000000,0.136956,-0.039973,-0.000000
4.270000,2.832839,-0.697834,-1.402034,0.529625,-0.112338,0.135294,-0.796096,0.069694,-0.335547,0.430588,1.336411,-0.039365,2.791243,-5.754404,2.426748,0.006848,0.078307,0.000000,0.131310,-0.042483,-0.000000
4.280000,2.838095,-0.698954,-1.400698,0.521686,-0.111575,0.131937,-0.791648,0.082774,-0.335820,0.459130,1.279995,-0.015161,2.916444,-5.525891,2.414719,0.008134,0.077869,0.000000,0.125786,-0.045094,0.000000
4.290000,2.843273,-0.700065,-1.399395,0.513793,-0.110684,0.128578,-0.786910,0.095298,-0.335851,0.488589,1.224864,0.008703,2.959094,-5.551736,2.346896,0.009364,0.077405,0.000000,0.120396,-0.047800,-0.000000
4.300000,2.848371,-0.701167,-1.398126,0.505949,-0.109671,0.125220,-0.781875,0.107269,-0.335648,0.518418,1.169430,0.031882,3.020200,-5.481383,2.300719,0.010541,0.076913,0.000000,0.114985,-0.050552,-0.000000
4.310000,2.853392,-0.702258,-1.396891,0.498156,-0.108541,0.121866,-0.776540,0.118690,-0.335215,0.548817,1.114901,0.054674,3.071349,-5.409347,2.255625,0.011664,0.076393,0.000000,0.109669,-0.053367,0.000000
4.320000,2.858335,-0.703338,-1.395689,0.490419,-0.107299,0.118517,-0.770896,0.129571,-0.334556,0.579939,1.061393,0.076979,3.139186,-5.304910,2.207777,0.012735,0.075845,0.000000,0.104460,-0.056261,0.000000
4.330000,2.863200,-0.704404,-1.394520,0.482739,-0.105951,0.115175,-0.764940,0.139920,-0.333677,0.611309,1.008536,0.098879,3.133199,-5.266042,2.172484,0.013754,0.075268,0.000000,0.099320,-0.059188,0.000000
4.340000,2.867990,-0.705456,-1.393385,0.475121,-0.104502,0.111844,-0.758670,0.149744,-0.332580,0.642832,0.956366,0.120389,3.182640,-5.153312,2.127446,0.014722,0.074661,0.000000,0.094252,-0.062137,0.000000
4.350000,2.872703,-0.706494,-1.392283,0.467567,-0.102958,0.108525,-0.752082,0.159052,-0.331271,0.674832,0.905368,0.141442,3.202917,-5.059022,2.086236,0.015639,0.074025,0.000000,0.089303,-0.065143,-0.000000
4.360000,2.877341,-0.707515,-1.391215,0.460080,-0.101323,0.105219,-0.745173,0.167854,-0.329753,0.706966,0.855252,0.162050,3.216363,-4.959645,2.044728,0.016508,0.073358,0.000000,0.084443,-0.068170,-0.000000
4.370000,2.881905,-0.708520,-1.390179,0.452665,-0.099602,0.101930,-0.737943,0.176160,-0.328030,0.739076,0.806224,0.182421,3.210257,-4.848942,2.020665,0.017329,0.072661,0.000000,0.079693,-0.071204,0.000000
4.380000,2.886395,-0.709507,-1.389176,0.445323,-0.097801,0.098659,-0.730391,0.183982,-0.326106,0.771267,0.758209,0.202278,3.226607,-4.753657,1.950303,0.018102,0.071934,0.000000,0.075043,-0.074255,0.000000
4.390000,2.890811,-0.710476,-1.388206,0.438058,-0.095924,0.095409,-0.722517,0.191328,-0.323986,0.803461,0.711237,0.221608,3.204944,-4.636351,1.924699,0.018830,0.071176,0.000000,0.070496,-0.077318,0.000000
4.400000,2.895156,-0.711425,-1.387268,0.430873,-0.093976,0.092180,-0.714323,0.198211,-0.321675,0.835385,0.665460,0.240688,3.184557,-4.522273,1.883156,0.019513,0.070387,0.000000,0.066068,-0.080363,-0.000000
4.410000,2.899429,-0.712355,-1.386362,0.423773,-0.091962,0.088976,-0.705812,0.204641,-0.319175,0.866780,0.620784,0.259226,3.148940,-4.405903,1.840330,0.020152,0.069569,0.000000,0.061746,-0.083368,0.000000
4.420000,2.903632,-0.713264,-1.385488,0.416758,-0.089885,0.085797,-0.696984,0.210631,-0.316490,0.898851,0.577411,0.277640,3.209517,-4.274692,1.826844,0.020748,0.068719,0.000000,0.057553,-0.086447,-0.000000
4.430000,2.907765,-0.714152,-1.384646,0.409834,-0.087751,0.082647,-0.687839,0.216193,-0.313624,0.929799,0.535162,0.295436,2.976890,-4.175112,1.731721,0.021303,0.067840,0.000000,0.053468,-0.089428,-0.000000
4.440000,2.911829,-0.715019,-1.383835,0.403002,-0.085563,0.079525,-0.678393,0.221338,-0.310584,0.959462,0.494045,0.312585,3.009286,-4.041454,1.713568,0.021818,0.066931,0.000000,0.049492,-0.092296,0.000000
4.450000,2.915825,-0.715864,-1.383055,0.396267,-0.083325,0.076436,-0.668647,0.226078,-0.307373,0.989490,0.454284,0.329578,2.940290,-3.917217,1.668587,0.022293,0.065993,0.000000,0.045648,-0.095209,0.000000
4.460000,2.919754,-0.716685,-1.382306,0.389631,-0.081042,0.073379,-0.658607,0.230427,-0.303994,1.018504,0.415678,0.346045,2.866190,-3.792784,1.623604,0.022731,0.065027,0.000000,0.041914,-0.098033,0.000000
4.470000,2.923618,-0.717484,-1.381588,0.383096,-0.078718,0.070356,-0.648279,0.234397,-0.300453,1.046836,0.378534,0.362036,2.793899,-3.646676,1.575642,0.023132,0.064032,0.000000,0.038321,-0.100802,0.000000
4.480000,2.927417,-0.718260,-1.380899,0.376666,-0.076356,0.067370,-0.637673,0.238002,-0.296755,1.074251,0.342519,0.377576,2.687720,-3.556615,1.532063,0.023498,0.063010,0.000000,0.034835,-0.103493,0.000000
4.490000,2.931152,-0.719011,-1.380240,0.370343,-0.073959,0.064422,-0.626798,0.241251,-0.292903,1.100666,0.307621,0.392652,2.599131,-3.411930,1.481921,0.023829,0.061962,0.000000,0.031456,-0.106096,-0.000000
4.500000,2.934824,-0.719739,-1.379610,0.364131,-0.071532,0.061512,-0.615663,0.244159,-0.288903,1.126169,0.274188,0.407225,2.494889,-3.285717,1.432829,0.024127,0.060888,0.000000,0.028216,-0.108620,-0.000000
4.510000,2.938435,-0.720442,-1.379010,0.358031,-0.069077,0.058644,-0.604278,0.246738,-0.284761,1.150674,0.241912,0.421266,2.385836,-3.160109,1.381352,0.024394,0.059789,0.000000,0.025087,-0.111058,0.000000
4.520000,2.941985,-0.721120,-1.378437,0.352046,-0.066598,0.055818,-0.592654,0.249002,-0.280479,1.173685,0.211070,0.434905,2.233824,-3.017581,1.340193,0.024630,0.058667,0.000000,0.022094,-0.113359,-0.000000
4.530000,2.945476,-0.721774,-1.377893,0.346179,-0.064098,0.053035,-0.580807,0.250964,-0.276064,1.195719,0.181369,0.447937,2.172353,-2.923009,1.265712,0.024836,0.057522,0.000000,0.019209,-0.115575,-0.000000
4.540000,2.948909,-0.722402,-1.377377,0.340431,-0.061580,0.050297,-0.568743,0.252633,-0.271523,1.216732,0.152789,0.460338,2.010279,-2.783976,1.220278,0.025014,0.056355,0.000000,0.016430,-0.117702,0.000000
4.550000,2.952285,-0.723005,-1.376887,0.334804,-0.059046,0.047605,-0.556478,0.254024,-0.266859,1.236065,0.125608,0.472285,1.873616,-2.661559,1.162781,0.025165,0.055167,0.000000,0.013783,-0.119673,0.000000
4.560000,2.955605,-0.723583,-1.376424,0.329302,-0.056500,0.044960,-0.544027,0.255149,-0.262079,1.253961,0.099544,0.483576,1.726461,-2.541070,1.103146,0.025290,0.053961,0.000000,0.011242,-0.121512,0.000000
4.570000,2.958871,-0.724135,-1.375988,0.323924,-0.053944,0.042364,-0.531402,0.256020,-0.257189,1.270775,0.074877,0.494415,1.613834,-2.402756,1.056761,0.025390,0.052737,0.000000,0.008834,-0.123254,-0.000000
4.580000,2.962084,-0.724662,-1.375577,0.318674,-0.051380,0.039817,-0.518618,0.256650,-0.252193,1.285769,0.051273,0.504542,1.383412,-2.318713,0.968101,0.025467,0.051496,0.000000,0.006526,-0.124826,-0.000000
4.590000,2.965245,-0.725163,-1.375191,0.313552,-0.048812,0.037320,-0.505693,0.257049,-0.247101,1.298854,0.028700,0.513929,1.253949,-2.186034,0.916761,0.025521,0.050240,0.000000,0.004314,-0.126218,-0.000000
4.600000,2.968356,-0.725638,-1.374830,0.308561,-0.046240,0.034875,-0.492644,0.257229,-0.241916,1.310642,0.007458,0.522802,1.081784,-2.072683,0.850111,0.025554,0.048971,0.000000,0.002229,-0.127490,-0.000000
4.610000,2.971417,-0.726088,-1.374494,0.303700,-0.043668,0.032482,-0.479487,0.257201,-0.236647,1.320544,-0.012763,0.530953,0.904616,-1.961951,0.782062,0.025566,0.047690,0.000000,0.000239,-0.128584,-0.000000
4.620000,2.974430,-0.726511,-1.374180,0.298971,-0.041097,0.030142,-0.466239,0.256978,-0.231300,1.328781,-0.031696,0.538459,0.735114,-1.834790,0.716594,0.025559,0.046399,0.000000,-0.001627,-0.129520,0.000000
4.630000,2.977397,-0.726909,-1.373891,0.294375,-0.038529,0.027856,-0.452918,0.256570,-0.225880,1.335085,-0.049672,0.545231,0.524651,-1.760995,0.637469,0.025534,0.045099,0.000000,-0.003404,-0.130271,0.000000
4.640000,2.980318,-0.727282,-1.373623,0.289913,-0.035966,0.025625,-0.439544,0.255987,-0.220397,1.339396,-0.066728,0.551248,0.343655,-1.640870,0.567964,0.025491,0.043793,0.000000,-0.005095,-0.130832,-0.000000
4.650000,2.983196,-0.727629,-1.373378,0.285585,-0.033410,0.023448,-0.426136,0.255240,-0.214858,1.341875,-0.082581,0.556563,0.145429,-1.540022,0.492598,0.025432,0.042482,0.000000,-0.006672,-0.131215,-0.000000
4.660000,2.986030,-0.727950,-1.373154,0.281390,-0.030862,0.021328,-0.412714,0.254339,-0.209269,1.342279,-0.097534,0.561092,-0.057395,-1.442333,0.415367,0.025358,0.041169,0.000000,-0.008163,-0.131398,0.000000
4.670000,2.988824,-0.728246,-1.372951,0.277330,-0.028323,0.019263,-0.399297,0.253293,-0.203638,1.340784,-0.111356,0.564886,-0.249894,-1.330972,0.340768,0.025269,0.039854,0.000000,-0.009547,-0.131395,0.000000
4.680000,2.991577,-0.728517,-1.372769,0.273404,-0.025796,0.017255,-0.385905,0.252114,-0.197974,1.337108,-0.124344,0.567853,-0.486167,-1.267388,0.252160,0.025167,0.038541,0.000000,-0.010853,-0.131180,-0.000000
4.690000,2.994292,-0.728762,-1.372606,0.269612,-0.023282,0.015304,-0.372562,0.250809,-0.192284,1.331203,-0.136540,0.569970,-0.687905,-1.163691,0.173266,0.025053,0.037230,0.000000,-0.012084,-0.130745,-0.000000
4.700000,2.996970,-0.728982,-1.372462,0.265953,-0.020781,0.013410,-0.359288,0.249387,-0.186577,1.323270,-0.147701,0.571296,-0.906481,-1.077772,0.088934,0.024926,0.035926,0.000000,-0.013216,-0.130110,-0.000000
4.710000,2.999612,-0.729178,-1.372337,0.262426,-0.018294,0.011572,-0.346104,0.247857,-0.180861,1.313018,-0.158100,0.571719,-1.129269,-0.995194,0.001992,0.024788,0.034628,0.000000,-0.014276,-0.129245,-0.000000
4.720000,3.002219,-0.729348,-1.372231,0.259030,-0.015824,0.009792,-0.333034,0.246228,-0.175145,1.300814,-0.167549,0.571391,-1.326747,-0.902245,-0.074331,0.024641,0.033341,0.000000,-0.015246,-0.128185,-0.000000
4.730000,3.004793,-0.729494,-1.372141,0.255765,-0.013370,0.008069,-0.320096,0.244509,-0.169437,1.286167,-0.176303,0.570092,-1.603393,-0.849227,-0.186078,0.024484,0.032065,0.000000,-0.016149,-0.126881,0.000000
4.740000,3.007335,-0.729616,-1.372069,0.252628,-0.010934,0.006404,-0.307319,0.242704,-0.163747,1.269034,-0.184403,0.567794,-1.808885,-0.764207,-0.267115,0.024318,0.030803,0.000000,-0.016991,-0.125327,-0.000000
4.750000,3.009846,-0.729713,-1.372013,0.249618,-0.008516,0.004794,-0.294722,0.240824,-0.158083,1.249868,-0.191655,0.564686,-2.040506,-0.694233,-0.361065,0.024144,0.029558,0.000000,-0.017752,-0.123568,-0.000000
4.760000,3.012328,-0.729786,-1.371973,0.246733,-0.006118,0.003242,-0.282330,0.238873,-0.152456,1.228210,-0.198292,0.560602,-2.274861,-0.627834,-0.456126,0.023963,0.028332,0.000000,-0.018454,-0.121557,-0.000000
4.770000,3.014781,-0.729835,-1.371948,0.243971,-0.003739,0.001745,-0.270164,0.236860,-0.146875,1.204517,-0.204170,0.555558,-2.479770,-0.553898,-0.552764,0.023775,0.027127,0.000000,-0.019083,-0.119338,-0.000000
4.780000,3.017207,-0.729861,-1.371938,0.241329,-0.001381,0.000304,-0.258248,0.234792,-0.141348,1.178280,-0.209498,0.549541,-2.768097,-0.512573,-0.651018,0.023582,0.025945,0.000000,-0.019660,-0.116860,-0.000000
4.790000,3.019608,-0.729863,-1.371942,0.238805,0.000957,-0.001082,-0.246608,0.232672,-0.135887,1.149473,-0.214319,0.542533,-2.977443,-0.446388,-0.750778,0.023382,0.024790,0.000000,-0.020189,-0.114119,0.000000
4.800000,3.021984,-0.729842,-1.371959,0.236396,0.003273,-0.002414,-0.235265,0.230508,-0.130501,1.118594,-0.218486,0.534520,-3.214453,-0.393192,-0.852178,0.023178,0.023663,0.000000,-0.020655,-0.111164,-0.000000
4.810000,3.024336,-0.729798,-1.371990,0.234098,0.005567,-0.003692,-0.224244,0.228304,-0.125200,1.085152,-0.222176,0.525482,-3.449643,-0.342815,-0.954804,0.022969,0.022567,0.000000,-0.021075,-0.107946,-0.000000
4.820000,3.026666,-0.729731,-1.372033,0.231910,0.007839,-0.004918,-0.213568,0.226066,-0.119995,1.049886,-0.225320,0.515431,-3.631333,-0.289765,-1.056814,0.022757,0.021504,0.000000,-0.021442,-0.104537,-0.000000
4.830000,3.028975,-0.729641,-1.372088,0.229826,0.010088,-0.006093,-0.203256,0.223799,-0.114895,1.011943,-0.228049,0.504317,-3.957828,-0.256703,-1.166213,0.022541,0.020477,0.000000,-0.021770,-0.100852,0.000000
4.840000,3.031263,-0.729529,-1.372155,0.227843,0.012315,-0.007217,-0.193338,0.221506,-0.109912,0.971306,-0.230400,0.492125,-4.140806,-0.210751,-1.271220,0.022322,0.019487,0.000000,-0.022061,-0.096887,0.000000
4.850000,3.033532,-0.729395,-1.372232,0.225958,0.014518,-0.008291,-0.183835,0.219192,-0.105056,0.928893,-0.232302,0.478881,-4.369003,-0.173460,-1.379287,0.022100,0.018539,0.000000,-0.022309,-0.092735,0.000000
4.860000,3.035782,-0.729239,-1.372320,0.224165,0.016698,-0.009318,-0.174768,0.216861,-0.100338,0.884087,-0.233863,0.464542,-4.591513,-0.139137,-1.488614,0.021875,0.017633,0.000000,-0.022524,-0.088333,-0.000000
4.870000,3.038016,-0.729061,-1.372419,0.222461,0.018855,-0.010299,-0.166161,0.214516,-0.095769,0.837077,-0.235096,0.449104,-4.809714,-0.107959,-1.599129,0.021649,0.016773,0.000000,-0.022707,-0.083700,-0.000000
4.880000,3.040232,-0.728862,-1.372526,0.220840,0.020989,-0.011234,-0.158034,0.212160,-0.091360,0.787909,-0.236032,0.432556,-5.023015,-0.079903,-1.710781,0.021421,0.015959,0.000000,-0.022862,-0.078840,0.000000
4.890000,3.042433,-0.728641,-1.372643,0.219298,0.023098,-0.012126,-0.150409,0.209796,-0.087121,0.736635,-0.236704,0.414885,-5.230848,-0.054932,-1.823510,0.021192,0.015196,0.000000,-0.022991,-0.073759,0.000000
4.900000,3.044618,-0.728400,-1.372769,0.217830,0.025185,-0.012977,-0.143308,0.207427,-0.083066,0.683313,-0.237142,0.396081,-5.432504,-0.033126,-1.937357,0.020962,0.014485,0.000000,-0.023098,-0.068461,-0.000000
4.910000,3.046789,-0.728138,-1.372902,0.216430,0.027247,-0.013788,-0.136750,0.205054,-0.079204,0.628007,-0.237377,0.376134,-5.627526,-0.014351,-2.052183,0.020730,0.013827,0.000000,-0.023185,-0.062953,-0.000000
4.920000,3.048947,-0.727855,-1.373044,0.215093,0.029286,-0.014562,-0.130754,0.202680,-0.075547,0.570787,-0.237439,0.355034,-5.815281,0.001368,-2.167979,0.020498,0.013226,0.000000,-0.023255,-0.057242,-0.000000
4.930000,3.051092,-0.727552,-1.373194,0.213813,0.031301,-0.015300,-0.125340,0.200306,-0.072107,0.511728,-0.237360,0.332772,-5.995205,0.014048,-2.284700,0.020265,0.012683,0.000000,-0.023312,-0.051337,-0.000000
4.940000,3.053223,-0.727229,-1.373350,0.212585,0.033292,-0.016005,-0.120526,0.197933,-0.068895,0.450911,-0.237169,0.309338,-6.166782,0.023700,-2.402284,0.020032,0.012200,0.000000,-0.023358,-0.045246,-0.000000
4.950000,3.055343,-0.726886,-1.373514,0.211401,0.035259,-0.016679,-0.116327,0.195563,-0.065924,0.388428,-0.236895,0.284723,-6.328900,0.030395,-2.520734,0.019798,0.011778,0.000000,-0.023396,-0.038978,0.000000
4.960000,3.057452,-0.726524,-1.373684,0.210256,0.037203,-0.017324,-0.112762,0.193196,-0.063205,0.324367,-0.236570,0.258920,-6.481600,0.034086,-2.639964,0.019564,0.011421,0.000000,-0.023430,-0.032543,-0.000000
4.970000,3.059549,-0.726142,-1.373860,0.209143,0.039123,-0.017944,-0.109845,0.190832,-0.060750,0.258830,-0.236223,0.231921,-6.624050,0.034818,-2.759937,0.019329,0.011128,0.000000,-0.023462,-0.025952,-0.000000
4.980000,3.061635,-0.725741,-1.374042,0.208057,0.041020,-0.018540,-0.107590,0.188471,-0.058570,0.191922,-0.235884,0.203719,-6.755653,0.032614,-2.880596,0.019095,0.010902,0.000000,-0.023494,-0.019217,-0.000000
4.990000,3.063710,-0.725322,-1.374231,0.206989,0.042893,-0.019116,-0.106011,0.186114,-0.056679,0.123755,-0.235581,0.174307,-6.875806,0.027503,-3.001887,0.018860,0.010744,0.000000,-0.023531,-0.012349,0.000000
5.000000,3.065774,-0.724884,-1.374425,0.205934,0.044742,-0.019675,-0.105119,0.183759,-0.055088,0.054446,-0.235343,0.143680,-6.983908,0.019527,-3.123762,0.018624,0.010655,0.000000,-0.023574,-0.005362,-0.000000
