time,x,y,z,vx,vy,vz,ax,ay,az,jx,jy,jz,sx,sy,sz,roll,pitch,yaw,p,q,r
0.000000,-3.254249,0.289626,-1.496540,-0.019056,-0.003829,0.005713,0.956180,-0.320710,0.027670,-14.221827,5.936280,-1.071849,238.553398,-97.868317,20.564038,-0.032618,-0.097436,0.000000,0.602266,1.449907,-0.000000
0.010000,-3.254394,0.289573,-1.496482,-0.010167,-0.006755,0.005940,0.825470,-0.266044,0.017915,-11.961249,5.016178,-0.885627,213.870626,-86.323343,16.753613,-0.027067,-0.084101,0.000000,0.509748,1.220026,-0.000000
0.020000,-3.254456,0.289493,-1.496422,-0.002476,-0.009178,0.006077,0.716163,-0.220019,0.009838,-9.938370,4.206463,-0.735349,191.001302,-75.783187,13.371452,-0.022387,-0.072947,0.000000,0.427888,1.013916,-0.000000
0.030000,-3.254447,0.289391,-1.496361,0.004220,-0.011180,0.006141,0.625970,-0.181580,0.003102,-8.135420,3.497322,-0.616847,169.872839,-66.200666,10.394552,-0.018476,-0.063743,0.000000,0.355956,0.830052,0.000000
0.040000,-3.254374,0.289270,-1.496299,0.010100,-0.012832,0.006143,0.552778,-0.149768,-0.002592,-6.535353,2.879415,-0.526183,150.412565,-57.528596,7.799954,-0.015238,-0.056274,0.000000,0.293153,0.666844,-0.000000
0.050000,-3.254247,0.289135,-1.496238,0.015326,-0.014195,0.006092,0.494641,-0.123717,-0.007502,-5.121840,2.343873,-0.459651,132.548873,-49.719801,5.564520,-0.012585,-0.050341,0.000000,0.238662,0.522696,0.000000
0.060000,-3.254069,0.288987,-1.496178,0.020037,-0.015323,0.005995,0.449772,-0.102644,-0.011854,-3.879295,1.882299,-0.413772,116.208125,-42.727088,3.665355,-0.010439,-0.045761,0.000000,0.191673,0.396043,-0.000000
0.070000,-3.253847,0.288829,-1.496118,0.024360,-0.016262,0.005856,0.416535,-0.085851,-0.015836,-2.792842,1.486768,-0.385300,101.318226,-36.503278,2.079415,-0.008729,-0.042366,0.000000,0.151402,0.285373,-0.000000
0.080000,-3.253583,0.288662,-1.496061,0.028402,-0.017052,0.005679,0.393442,-0.072714,-0.019607,-1.848335,1.149827,-0.371216,87.806742,-31.001190,0.783705,-0.007391,-0.040005,0.000000,0.117099,0.189241,0.000000
0.090000,-3.253280,0.288488,-1.496005,0.032258,-0.017727,0.005464,0.379140,-0.062682,-0.023299,-1.032353,0.864496,-0.368735,75.601349,-26.173650,-0.244743,-0.006370,-0.038538,0.000000,0.088059,0.106271,-0.000000
0.100000,-3.252938,0.288308,-1.495951,0.036010,-0.018314,0.005212,0.372409,-0.055273,-0.027012,-0.332213,0.624264,-0.375299,64.627990,-21.973425,-1.029121,-0.005615,-0.037840,0.000000,0.063620,0.035165,0.000000
0.110000,-3.252560,0.288122,-1.495901,0.039728,-0.018839,0.004923,0.372150,-0.050067,-0.030827,0.264070,0.423093,-0.388580,54.816030,-18.353389,-1.592236,-0.005084,-0.037799,0.000000,0.043167,-0.025304,-0.000000
0.120000,-3.252144,0.287932,-1.495853,0.043471,-0.019322,0.004595,0.377381,-0.046700,-0.034799,0.767735,0.255419,-0.406483,46.092243,-15.266339,-1.957167,-0.004740,-0.038314,0.000000,0.026135,-0.076288,0.000000
0.130000,-3.251690,0.287736,-1.495809,0.047291,-0.019779,0.004227,0.387231,-0.044864,-0.038966,1.189301,0.116147,-0.427140,38.384120,-12.665092,-2.146932,-0.004552,-0.039297,0.000000,0.012002,-0.118864,-0.000000
0.140000,-3.251198,0.287536,-1.495769,0.051229,-0.020223,0.003815,0.400926,-0.044298,-0.043346,1.538562,0.000655,-0.448914,31.619216,-10.502474,-2.184584,-0.004492,-0.040667,0.000000,0.000299,-0.154036,-0.000000
0.150000,-3.250665,0.287332,-1.495733,0.055320,-0.020668,0.003359,0.417791,-0.044785,-0.047943,1.824588,-0.095207,-0.470401,25.725201,-8.731316,-2.093247,-0.004539,-0.042356,0.000000,-0.009397,-0.182736,-0.000000
0.160000,-3.250091,0.287123,-1.495702,0.059593,-0.021122,0.002856,0.437235,-0.046149,-0.052749,2.055713,-0.175117,-0.490419,20.628205,-7.304326,-1.895216,-0.004674,-0.044303,0.000000,-0.017463,-0.205821,0.000000
0.170000,-3.249472,0.286909,-1.495676,0.064071,-0.021593,0.002304,0.458748,-0.048245,-0.057743,2.239566,-0.242283,-0.508027,16.257337,-6.174452,-1.614349,-0.004884,-0.046456,0.000000,-0.024224,-0.224078,0.000000
0.180000,-3.248808,0.286691,-1.495656,0.068773,-0.022089,0.001700,0.481892,-0.050961,-0.062899,2.383036,-0.299439,-0.522506,12.539472,-5.294459,-1.273351,-0.005156,-0.048771,0.000000,-0.029960,-0.238218,0.000000
0.190000,-3.248096,0.286467,-1.495642,0.073713,-0.022614,0.001045,0.506295,-0.054208,-0.068181,2.492290,-0.348848,-0.533370,9.402063,-4.617153,-0.895237,-0.005480,-0.051209,0.000000,-0.034902,-0.248878,-0.000000
0.200000,-3.247333,0.286238,-1.495635,0.078902,-0.023175,0.000337,0.531642,-0.057918,-0.073553,2.572770,-0.392301,-0.540363,6.772564,-4.095413,-0.502991,-0.005852,-0.053739,0.000000,-0.039233,-0.256620,-0.000000
0.210000,-3.246517,0.286004,-1.495635,0.084348,-0.023774,-0.000426,0.557540,-0.061875,-0.079080,2.599473,-0.393737,-0.567398,3.991020,-2.943055,-0.592852,-0.006247,-0.056320,0.000000,-0.039301,-0.258800,-0.000000
0.220000,-3.245645,0.285763,-1.495644,0.090055,-0.024414,-0.001245,0.583980,-0.066303,-0.084554,2.703140,-0.513426,-0.512583,11.607933,-14.474554,7.368973,-0.006689,-0.058952,0.000000,-0.051345,-0.269193,0.000000
0.230000,-3.244715,0.285515,-1.495660,0.096031,-0.025104,-0.002116,0.611288,-0.071806,-0.089530,2.723687,-0.546285,-0.507930,-7.608101,8.095588,-6.571766,-0.007240,-0.061671,0.000000,-0.054583,-0.270925,0.000000
0.240000,-3.243724,0.285260,-1.495686,0.102279,-0.025848,-0.003037,0.638123,-0.076860,-0.094933,2.657060,-0.483919,-0.559416,-0.427042,-2.229105,0.496678,-0.007744,-0.064336,0.000000,-0.048184,-0.263516,0.000000
0.250000,-3.242669,0.284998,-1.495721,0.108793,-0.026641,-0.004014,0.664790,-0.081978,-0.100388,2.671446,-0.535028,-0.533920,-1.884986,-1.424944,0.388851,-0.008253,-0.066980,0.000000,-0.053271,-0.264746,-0.000000
0.260000,-3.241547,0.284727,-1.495767,0.115574,-0.027488,-0.005045,0.691294,-0.087366,-0.105706,2.624985,-0.541282,-0.529414,-3.248756,-0.965037,0.535910,-0.008789,-0.069604,0.000000,-0.053824,-0.259735,-0.000000
0.270000,-3.240356,0.284448,-1.495822,0.122618,-0.028389,-0.006128,0.717583,-0.092881,-0.110970,2.645048,-0.564882,-0.523002,3.288676,-2.664363,0.720437,-0.009337,-0.072204,0.000000,-0.056116,-0.261420,-0.000000
0.280000,-3.239094,0.284159,-1.495889,0.129926,-0.029346,-0.007264,0.743973,-0.098600,-0.116163,2.607279,-0.571654,-0.515553,-10.942031,1.338411,0.766904,-0.009905,-0.074811,0.000000,-0.056718,-0.257316,0.000000
0.290000,-3.237757,0.283861,-1.495968,0.137494,-0.030361,-0.008451,0.769491,-0.104245,-0.121278,2.507640,-0.560424,-0.507200,-4.923764,-0.205341,0.926762,-0.010465,-0.077327,0.000000,-0.055521,-0.247045,-0.000000
0.300000,-3.236343,0.283552,-1.496059,0.145314,-0.031431,-0.009689,0.794419,-0.109885,-0.126301,2.474896,-0.566443,-0.497260,-5.634286,0.101861,1.034887,-0.011023,-0.079782,0.000000,-0.056053,-0.243504,0.000000
0.310000,-3.234850,0.283232,-1.496162,0.153381,-0.032558,-0.010977,0.818829,-0.115528,-0.131221,2.404914,-0.561358,-0.486559,-6.219510,0.374748,1.131106,-0.011581,-0.082182,0.000000,-0.055477,-0.236263,-0.000000
0.320000,-3.233275,0.282901,-1.496278,0.161689,-0.033742,-0.012313,0.842673,-0.121147,-0.136027,2.370373,-0.563954,-0.474435,-2.738006,-0.376186,1.266713,-0.012136,-0.084523,0.000000,-0.055673,-0.232595,-0.000000
0.330000,-3.231615,0.282557,-1.496408,0.170233,-0.034982,-0.013697,0.866125,-0.126774,-0.140708,2.307087,-0.558001,-0.461789,-9.971841,1.580476,1.260133,-0.012692,-0.086823,0.000000,-0.055018,-0.226081,0.000000
0.340000,-3.229869,0.282201,-1.496552,0.179008,-0.036277,-0.015127,0.888695,-0.132273,-0.145262,2.212905,-0.542930,-0.448753,-6.771026,0.905690,1.371115,-0.013233,-0.089033,0.000000,-0.053459,-0.216516,-0.000000
0.350000,-3.228034,0.281831,-1.496711,0.188005,-0.037627,-0.016602,0.910538,-0.137667,-0.149679,2.154155,-0.535461,-0.434615,-7.046364,1.110670,1.429291,-0.013764,-0.091169,0.000000,-0.052664,-0.210518,0.000000
0.360000,-3.226109,0.281448,-1.496885,0.197217,-0.039030,-0.018120,0.931699,-0.142957,-0.153953,2.077219,-0.522021,-0.420160,-7.259741,1.302680,1.477709,-0.014284,-0.093236,0.000000,-0.051280,-0.202737,-0.000000
0.370000,-3.224089,0.281051,-1.497074,0.206636,-0.040485,-0.019680,0.952163,-0.148124,-0.158079,2.018975,-0.511947,-0.404929,-5.424403,0.975835,1.549839,-0.014791,-0.095232,0.000000,-0.050236,-0.196846,0.000000
0.380000,-3.221975,0.280638,-1.497278,0.216258,-0.041992,-0.021281,0.972025,-0.153178,-0.162051,1.946977,-0.496963,-0.389552,-9.002411,2.028183,1.523520,-0.015287,-0.097168,0.000000,-0.048709,-0.189612,-0.000000
0.390000,-3.219764,0.280211,-1.497499,0.226074,-0.043548,-0.022921,0.991045,-0.158044,-0.165870,1.860099,-0.476763,-0.374142,-7.316980,1.743607,1.574199,-0.015764,-0.099019,0.000000,-0.046671,-0.180926,-0.000000
0.400000,-3.217453,0.279767,-1.497737,0.236076,-0.045152,-0.024598,1.009307,-0.162729,-0.169532,1.791799,-0.459834,-0.358241,-7.388865,1.908191,1.587138,-0.016222,-0.100795,0.000000,-0.044964,-0.174113,-0.000000
0.410000,-3.215042,0.279307,-1.497991,0.246258,-0.046802,-0.026311,1.026843,-0.167226,-0.173036,1.714981,-0.439249,-0.342412,-7.433101,2.067772,1.591148,-0.016662,-0.102498,0.000000,-0.042900,-0.166477,-0.000000
0.420000,-3.212527,0.278831,-1.498263,0.256611,-0.048496,-0.028058,1.043650,-0.171520,-0.176379,1.648149,-0.419779,-0.326319,-6.452977,1.962031,1.612723,-0.017081,-0.104129,0.000000,-0.040952,-0.159855,0.000000
0.430000,-3.209909,0.278337,-1.498553,0.267129,-0.050232,-0.029838,1.059781,-0.175610,-0.179563,1.575002,-0.397157,-0.310464,-8.190481,2.566422,1.556579,-0.017479,-0.105693,0.000000,-0.038697,-0.152626,-0.000000
0.440000,-3.207184,0.277826,-1.498860,0.277804,-0.052007,-0.031649,1.075122,-0.179451,-0.182590,1.494948,-0.371212,-0.294943,-7.291181,2.484732,1.559860,-0.017853,-0.107180,0.000000,-0.036119,-0.144731,-0.000000
0.450000,-3.204352,0.277297,-1.499186,0.288629,-0.053820,-0.033489,1.089722,-0.183040,-0.185461,1.424736,-0.346299,-0.279406,-7.275756,2.634830,1.532920,-0.018202,-0.108593,0.000000,-0.033648,-0.137830,0.000000
0.460000,-3.201411,0.276750,-1.499530,0.299596,-0.055667,-0.035358,1.103600,-0.186367,-0.188180,1.350737,-0.318845,-0.264276,-7.249221,2.783224,1.498998,-0.018525,-0.109935,0.000000,-0.030930,-0.130567,-0.000000
0.470000,-3.198360,0.276184,-1.499893,0.310698,-0.057547,-0.037252,1.116760,-0.189418,-0.190748,1.282292,-0.291305,-0.249384,-6.704432,2.795102,1.471426,-0.018821,-0.111207,0.000000,-0.028209,-0.123868,-0.000000
0.480000,-3.195197,0.275599,-1.500275,0.321929,-0.059455,-0.039172,1.129235,-0.192185,-0.193169,1.211092,-0.261466,-0.235012,-7.542895,3.174686,1.401758,-0.019089,-0.112412,0.000000,-0.025264,-0.116907,-0.000000
0.490000,-3.191921,0.274994,-1.500676,0.333280,-0.061389,-0.041115,1.140970,-0.194639,-0.195450,1.136819,-0.229237,-0.221232,-7.043127,3.199897,1.360164,-0.019326,-0.113544,0.000000,-0.022086,-0.109652,-0.000000
0.500000,-3.188531,0.274371,-1.501097,0.344746,-0.063346,-0.043081,1.151994,-0.196770,-0.197595,1.067965,-0.196866,-0.207887,-6.994469,3.345230,1.300988,-0.019531,-0.114608,0.000000,-0.018898,-0.102940,0.000000
0.510000,-3.185026,0.273727,-1.501538,0.356318,-0.065323,-0.045067,1.162322,-0.198569,-0.199610,0.997616,-0.162489,-0.195233,-6.941025,3.490025,1.235969,-0.019703,-0.115603,0.000000,-0.015515,-0.096086,-0.000000
0.520000,-3.181404,0.273064,-1.501999,0.367990,-0.067317,-0.047072,1.171959,-0.200019,-0.201501,0.930383,-0.127435,-0.183121,-6.635183,3.559586,1.178826,-0.019841,-0.116531,0.000000,-0.012067,-0.089545,0.000000
0.530000,-3.177665,0.272381,-1.502480,0.379755,-0.069323,-0.049096,1.180925,-0.201111,-0.203275,0.862190,-0.090485,-0.171815,-7.007240,3.831509,1.081336,-0.019944,-0.117394,0.000000,-0.008434,-0.082911,0.000000
0.540000,-3.173809,0.271678,-1.502981,0.391606,-0.071338,-0.051138,1.189198,-0.201822,-0.204941,0.792871,-0.051591,-0.161372,-6.725322,3.907871,1.013452,-0.020009,-0.118189,0.000000,-0.004610,-0.076166,-0.000000
0.550000,-3.169833,0.270954,-1.503502,0.403537,-0.073358,-0.053195,1.196795,-0.202141,-0.206505,0.726570,-0.011997,-0.151621,-6.665110,4.049868,0.929598,-0.020036,-0.118919,0.000000,-0.000719,-0.069719,-0.000000
0.560000,-3.165738,0.270211,-1.504045,0.415540,-0.075379,-0.055267,1.203727,-0.202056,-0.207976,0.659888,0.029296,-0.142818,-6.603279,4.190477,0.841244,-0.020023,-0.119583,0.000000,0.003340,-0.063232,0.000000
0.570000,-3.161522,0.269447,-1.504608,0.427609,-0.077397,-0.057354,1.210000,-0.201552,-0.209363,0.595131,0.071642,-0.134706,-6.413807,4.296035,0.770024,-0.019968,-0.120184,0.000000,0.007502,-0.056933,0.000000
0.580000,-3.157185,0.268663,-1.505192,0.439738,-0.079409,-0.059454,1.215628,-0.200617,-0.210674,0.530229,0.115583,-0.127652,-6.568731,4.492525,0.639900,-0.019872,-0.120722,0.000000,0.011821,-0.050613,-0.000000
0.590000,-3.152727,0.267859,-1.505797,0.451919,-0.081408,-0.061567,1.220603,-0.199235,-0.211920,0.465092,0.161131,-0.121701,-6.391839,4.598996,0.560727,-0.019731,-0.121196,0.000000,0.016300,-0.044263,0.000000
0.600000,-3.148147,0.267035,-1.506423,0.464148,-0.083392,-0.063693,1.224938,-0.197392,-0.213110,0.401828,0.207708,-0.116537,-6.327225,4.733990,0.460930,-0.019546,-0.121608,0.000000,0.020880,-0.038093,0.000000
0.610000,-3.143444,0.266191,-1.507071,0.476416,-0.085355,-0.065829,1.228640,-0.195075,-0.214254,0.338793,0.255748,-0.112413,-6.260116,4.866686,0.360675,-0.019313,-0.121958,0.000000,0.025606,-0.031937,0.000000
0.620000,-3.138618,0.265328,-1.507740,0.488718,-0.087292,-0.067978,1.231717,-0.192273,-0.215362,0.276808,0.304969,-0.109347,-6.155801,4.984004,0.254533,-0.019033,-0.122247,0.000000,0.030450,-0.025875,0.000000
0.630000,-3.133670,0.264445,-1.508430,0.501048,-0.089198,-0.070137,1.234178,-0.188971,-0.216445,0.215282,0.355566,-0.107280,-6.149721,5.135128,0.158693,-0.018704,-0.122476,0.000000,0.035431,-0.019850,0.000000
0.640000,-3.128597,0.263544,-1.509143,0.513400,-0.091069,-0.072306,1.236024,-0.185157,-0.217511,0.154200,0.407523,-0.106219,-6.047455,5.248967,0.051210,-0.018324,-0.122645,0.000000,0.040547,-0.013859,-0.000000
0.650000,-3.123402,0.262624,-1.509877,0.525767,-0.092900,-0.074487,1.237266,-0.180817,-0.218573,0.094163,0.460595,-0.106236,-5.977562,5.371827,-0.052600,-0.017893,-0.122754,0.000000,0.045775,-0.007960,0.000000
0.660000,-3.118082,0.261686,-1.510632,0.538143,-0.094684,-0.076678,1.237910,-0.175940,-0.219640,0.034805,0.515029,-0.107383,-5.903859,5.493501,-0.158557,-0.017408,-0.122804,0.000000,0.051139,-0.002116,0.000000
0.670000,-3.112639,0.260730,-1.511410,0.550523,-0.096417,-0.078880,1.237963,-0.170514,-0.220722,-0.024002,0.570261,-0.109237,-5.847845,5.572618,-0.229707,-0.016870,-0.122796,0.000000,0.056583,0.003680,-0.000000
0.680000,-3.107072,0.259758,-1.512210,0.562900,-0.098092,-0.081092,1.237433,-0.164530,-0.221829,-0.081944,0.626896,-0.112346,-5.739960,5.754382,-0.392585,-0.016276,-0.122731,0.000000,0.062168,0.009405,-0.000000
0.690000,-3.101381,0.258769,-1.513032,0.575270,-0.099705,-0.083316,1.236328,-0.157972,-0.222974,-0.138995,0.684924,-0.116724,-5.679942,5.829927,-0.464606,-0.015626,-0.122608,0.000000,0.067891,0.015057,0.000000
0.700000,-3.095566,0.257764,-1.513876,0.587625,-0.101250,-0.085552,1.234655,-0.150830,-0.224165,-0.195450,0.743655,-0.121789,-5.601652,5.935906,-0.565358,-0.014918,-0.122430,0.000000,0.073684,0.020657,-0.000000
0.710000,-3.089628,0.256744,-1.514743,0.599961,-0.102720,-0.087800,1.232421,-0.143095,-0.225413,-0.251094,0.803440,-0.127992,-5.523455,6.034278,-0.663444,-0.014152,-0.122195,0.000000,0.079583,0.026189,-0.000000
0.720000,-3.083567,0.255710,-1.515632,0.612272,-0.104110,-0.090061,1.229636,-0.134757,-0.226727,-0.305883,0.864451,-0.134943,-5.437560,6.153601,-0.737128,-0.013326,-0.121906,0.000000,0.085602,0.031646,-0.000000
0.730000,-3.077383,0.254662,-1.516544,0.624552,-0.105413,-0.092335,1.226306,-0.125804,-0.228116,-0.359912,0.926211,-0.142955,-5.368089,6.197043,-0.864967,-0.012439,-0.121563,0.000000,0.091695,0.037039,-0.000000
0.740000,-3.071076,0.253602,-1.517479,0.636796,-0.106624,-0.094623,1.222440,-0.116230,-0.229590,-0.413174,0.988646,-0.152004,-5.280759,6.302675,-0.932973,-0.011492,-0.121165,0.000000,0.097855,0.042367,-0.000000
0.750000,-3.064647,0.252530,-1.518437,0.648999,-0.107736,-0.096927,1.218046,-0.106027,-0.231158,-0.465538,1.052129,-0.161697,-5.196658,6.379332,-1.015526,-0.010482,-0.120716,0.000000,0.104116,0.047613,-0.000000
0.760000,-3.058096,0.251447,-1.519418,0.661155,-0.108742,-0.099247,1.213132,-0.095186,-0.232827,-0.517182,1.116226,-0.172274,-5.113544,6.449591,-1.092566,-0.009409,-0.120213,0.000000,0.110436,0.052797,0.000000
0.770000,-3.051424,0.250355,-1.520422,0.673260,-0.109637,-0.101584,1.207706,-0.083699,-0.234605,-0.567635,1.181197,-0.183472,-4.994608,6.533233,-1.152111,-0.008273,-0.119660,0.000000,0.116840,0.057869,-0.000000
0.780000,-3.044631,0.249255,-1.521450,0.685308,-0.110414,-0.103939,1.201781,-0.071560,-0.236499,-0.617441,1.246654,-0.195421,-4.966970,6.556787,-1.236747,-0.007072,-0.119056,0.000000,0.123288,0.062884,0.000000
0.790000,-3.037718,0.248148,-1.522501,0.697294,-0.111066,-0.106314,1.195360,-0.058765,-0.238516,-0.666609,1.312517,-0.208061,-4.848465,6.624990,-1.283950,-0.005807,-0.118402,0.000000,0.129772,0.067841,0.000000
0.800000,-3.030686,0.247034,-1.523576,0.709213,-0.111587,-0.108710,1.188453,-0.045308,-0.240662,-0.714547,1.379043,-0.221130,-4.757537,6.668674,-1.334194,-0.004477,-0.117700,0.000000,0.136317,0.072679,-0.000000
0.810000,-3.023534,0.245916,-1.524675,0.721061,-0.111970,-0.111128,1.181072,-0.031183,-0.242941,-0.761531,1.445963,-0.234755,-4.661266,6.706663,-1.377036,-0.003081,-0.116949,0.000000,0.142895,0.077426,0.000000
0.820000,-3.016265,0.244795,-1.525799,0.732833,-0.112209,-0.113569,1.173224,-0.016388,-0.245357,-0.807971,1.513081,-0.248528,-4.604582,6.723055,-1.388119,-0.001619,-0.116151,0.000000,0.149485,0.082118,0.000000
0.830000,-3.008878,0.243673,-1.526947,0.744524,-0.112296,-0.116035,1.164917,-0.000920,-0.247913,-0.853160,1.580553,-0.262736,-4.432144,6.770181,-1.452035,-0.000091,-0.115307,0.000000,0.156103,0.086687,0.000000
0.840000,-3.001374,0.242550,-1.528119,0.756130,-0.112225,-0.118528,1.156165,0.015224,-0.250613,-0.897045,1.648310,-0.277295,-4.366529,6.772440,-1.446095,0.001503,-0.114418,0.000000,0.162741,0.091128,-0.000000
0.850000,-2.993756,0.241429,-1.529317,0.767646,-0.111989,-0.121048,1.146978,0.032046,-0.253458,-0.940297,1.716037,-0.291724,-4.261601,6.779039,-1.449926,0.003164,-0.113485,0.000000,0.169366,0.095500,0.000000
0.860000,-2.986022,0.240311,-1.530540,0.779068,-0.111582,-0.123598,1.137364,0.049545,-0.256448,-0.982225,1.783731,-0.306163,-4.151842,6.774971,-1.440589,0.004891,-0.112509,0.000000,0.175977,0.099736,0.000000
0.870000,-2.978174,0.239198,-1.531789,0.790392,-0.110996,-0.126178,1.127335,0.067722,-0.259581,-1.023562,1.851665,-0.320528,-4.089682,6.793899,-1.426691,0.006684,-0.111490,0.000000,0.182602,0.103908,0.000000
0.880000,-2.970214,0.238091,-1.533064,0.801613,-0.110225,-0.128790,1.116898,0.086577,-0.262857,-1.063475,1.919234,-0.334577,-3.891604,6.717953,-1.380855,0.008543,-0.110431,0.000000,0.189179,0.107930,-0.000000
0.890000,-2.962143,0.236994,-1.534365,0.812729,-0.109262,-0.131435,1.106070,0.106105,-0.266271,-1.101904,1.986327,-0.348176,-3.819791,6.715718,-1.340418,0.010467,-0.109332,0.000000,0.195697,0.111796,-0.000000
0.900000,-2.953960,0.235907,-1.535693,0.823734,-0.108101,-0.134115,1.094862,0.126304,-0.269819,-1.139649,2.053376,-0.361302,-3.702580,6.676113,-1.279324,0.012456,-0.108195,0.000000,0.202199,0.115583,0.000000
0.910000,-2.945668,0.234832,-1.537048,0.834625,-0.106734,-0.136832,1.083282,0.147170,-0.273494,-1.176139,2.119904,-0.373657,-3.586006,6.628275,-1.202691,0.014511,-0.107021,0.000000,0.208636,0.119232,0.000000
0.920000,-2.937268,0.233773,-1.538430,0.845398,-0.105155,-0.139586,1.071343,0.168700,-0.277290,-1.211279,2.185913,-0.385430,-3.450600,6.571610,-1.136305,0.016629,-0.105811,0.000000,0.215010,0.122736,-0.000000
0.930000,-2.928761,0.232730,-1.539839,0.856050,-0.103358,-0.142378,1.059060,0.190887,-0.281199,-1.245331,2.251297,-0.396055,-3.359825,6.503642,-0.985497,0.018811,-0.104566,0.000000,0.221309,0.126115,-0.000000
0.940000,-2.920147,0.231706,-1.541277,0.866578,-0.101335,-0.145210,1.046440,0.213723,-0.285207,-1.278290,2.315960,-0.405352,-3.222839,6.427530,-0.884629,0.021055,-0.103288,0.000000,0.227525,0.129367,0.000000
0.950000,-2.911430,0.230704,-1.542744,0.876978,-0.099081,-0.148083,1.033499,0.237203,-0.289303,-1.309861,2.379812,-0.413576,-3.099657,6.340902,-0.744303,0.023361,-0.101979,0.000000,0.233649,0.132465,0.000000
0.960000,-2.902608,0.229726,-1.544239,0.887247,-0.096589,-0.150996,1.020247,0.261317,-0.293473,-1.340166,2.442727,-0.420114,-2.972949,6.243830,-0.584917,0.025727,-0.100639,0.000000,0.239671,0.135417,0.000000
0.970000,-2.893685,0.228773,-1.545764,0.897382,-0.093852,-0.153952,1.006699,0.286054,-0.297702,-1.369425,2.504686,-0.425443,-2.867142,6.142899,-0.453960,0.028154,-0.099270,0.000000,0.245588,0.138249,-0.000000
0.980000,-2.884661,0.227849,-1.547318,0.907380,-0.090866,-0.156951,0.992864,0.311406,-0.301974,-1.397261,2.565480,-0.428629,-2.699429,6.014224,-0.179516,0.030639,-0.097873,0.000000,0.251382,0.140915,0.000000
0.990000,-2.875538,0.226957,-1.548903,0.917238,-0.087622,-0.159992,0.978758,0.337360,-0.306266,-1.423644,2.625002,-0.429456,-2.588667,5.891667,-0.006821,0.033181,-0.096451,0.000000,0.257046,0.143413,0.000000
1.000000,-2.866317,0.226098,-1.550518,0.926954,-0.084117,-0.163076,0.964394,0.363902,-0.310558,-1.448935,2.683250,-0.428498,-2.457293,5.752756,0.225802,0.035779,-0.095004,0.000000,0.262579,0.145784,0.000000
1.010000,-2.856999,0.225275,-1.552165,0.936525,-0.080342,-0.166203,0.949784,0.391020,-0.314826,-1.473011,2.740098,-0.424657,-2.328780,5.604397,0.483204,0.038432,-0.093534,0.000000,0.267974,0.148007,-0.000000
1.020000,-2.847587,0.224492,-1.553842,0.945949,-0.076294,-0.169372,0.934941,0.418698,-0.319047,-1.495240,2.795203,-0.419344,-2.144992,5.425034,0.643297,0.041138,-0.092042,0.000000,0.273195,0.150034,0.000000
1.030000,-2.838081,0.223750,-1.555552,0.955224,-0.071967,-0.172584,0.919882,0.446919,-0.323200,-1.516500,2.848779,-0.410452,-2.107789,5.288695,1.140240,0.043896,-0.090531,0.000000,0.278272,0.151934,0.000000
1.040000,-2.828483,0.223054,-1.557294,0.964346,-0.067354,-0.175836,0.904614,0.475668,-0.327243,-1.536822,2.900729,-0.397700,-1.927902,5.088839,1.352269,0.046703,-0.089001,0.000000,0.283203,0.153709,0.000000
1.050000,-2.818794,0.222404,-1.559069,0.973315,-0.062452,-0.179128,0.889152,0.504927,-0.331148,-1.555297,2.950606,-0.382821,-1.795307,4.895109,1.687902,0.049559,-0.087454,0.000000,0.287937,0.155289,0.000000
1.060000,-2.809017,0.221805,-1.560877,0.982129,-0.057254,-0.182458,0.873510,0.534674,-0.334885,-1.572942,2.998470,-0.363872,-1.667096,4.687582,2.046031,0.052461,-0.085892,0.000000,0.292495,0.156756,0.000000
1.070000,-2.799152,0.221260,-1.562718,0.990785,-0.051757,-0.185825,0.857703,0.564890,-0.338418,-1.588024,3.044427,-0.342380,-1.413511,4.490203,2.313118,0.055408,-0.084316,0.000000,0.296882,0.157959,-0.000000
1.080000,-2.789202,0.220771,-1.564594,0.999282,-0.045955,-0.189226,0.841751,0.595554,-0.341717,-1.602556,3.087993,-0.316338,-1.494606,4.220630,2.900235,0.058398,-0.082728,0.000000,0.301066,0.159077,-0.000000
1.090000,-2.779167,0.220342,-1.566503,1.007619,-0.039844,-0.192658,0.825653,0.626641,-0.344729,-1.616608,3.129031,-0.285473,-1.250304,3.996496,3.218003,0.061429,-0.081129,0.000000,0.305041,0.160120,-0.000000
1.100000,-2.769050,0.219976,-1.568447,1.015795,-0.033420,-0.196119,0.809428,0.658127,-0.347417,-1.628109,3.167783,-0.251423,-1.113862,3.740279,3.653006,0.064498,-0.079520,0.000000,0.308826,0.160901,-0.000000
1.110000,-2.758852,0.219675,-1.570425,1.023808,-0.026680,-0.199605,0.793094,0.689989,-0.349738,-1.638565,3.204042,-0.212085,-0.970807,3.475957,4.114488,0.067605,-0.077904,0.000000,0.312420,0.161553,-0.000000
1.120000,-2.748574,0.219443,-1.572439,1.031656,-0.019620,-0.203113,0.776662,0.722197,-0.351651,-1.647459,3.236951,-0.170024,-0.813165,3.136162,4.400889,0.070746,-0.076282,0.000000,0.315728,0.162049,-0.000000
1.130000,-2.738219,0.219283,-1.574488,1.039340,-0.012235,-0.206637,0.760149,0.754720,-0.353118,-1.654938,3.267404,-0.121905,-0.682205,2.953312,5.228855,0.073919,-0.074656,0.000000,0.318866,0.162379,0.000000
1.140000,-2.727788,0.219199,-1.576572,1.046859,-0.004524,-0.210173,0.743568,0.787536,-0.354067,-1.660972,3.295315,-0.067419,-0.518050,2.593702,5.569886,0.077123,-0.073026,0.000000,0.321835,0.162544,-0.000000
1.150000,-2.717283,0.219194,-1.578691,1.054212,0.003516,-0.213716,0.726935,0.820613,-0.354457,-1.665325,3.319510,-0.009596,-0.358471,2.275909,6.098149,0.080355,-0.071396,0.000000,0.324507,0.162545,-0.000000
1.160000,-2.706705,0.219271,-1.580846,1.061398,0.011889,-0.217260,0.710267,0.853917,-0.354236,-1.668130,3.340803,0.054720,-0.194640,1.945755,6.648056,0.083612,-0.069766,0.000000,0.326991,0.162376,-0.000000
1.170000,-2.696055,0.219433,-1.583036,1.068417,0.020595,-0.220799,0.693579,0.887415,-0.353354,-1.669136,3.358059,0.122311,-0.012342,1.536451,6.988177,0.086893,-0.068137,0.000000,0.329159,0.162038,-0.000000
1.180000,-2.685337,0.219684,-1.585262,1.075269,0.029638,-0.224325,0.676890,0.921068,-0.351766,-1.668498,3.372185,0.196958,0.140761,1.287333,7.946818,0.090195,-0.066513,0.000000,0.331138,0.161524,-0.000000
1.190000,-2.674550,0.220027,-1.587523,1.081955,0.039017,-0.227832,0.660215,0.954848,-0.349389,-1.666163,3.383076,0.278939,0.334146,0.854315,8.333938,0.093515,-0.064894,0.000000,0.332930,0.160830,0.000000
1.200000,-2.663698,0.220465,-1.589819,1.088474,0.048735,-0.231310,0.643573,0.988714,-0.346177,-1.661849,3.389505,0.364662,0.523105,0.462575,8.928872,0.096852,-0.063283,0.000000,0.334392,0.159956,-0.000000
1.210000,-2.652782,0.221003,-1.592149,1.094826,0.058792,-0.234752,0.626983,1.022626,-0.342071,-1.655876,3.392026,0.457555,0.714477,0.050750,9.536819,0.100202,-0.061681,0.000000,0.335617,0.158913,0.000000
1.220000,-2.641802,0.221642,-1.594513,1.101014,0.069187,-0.238148,0.610465,1.056542,-0.337014,-1.647167,3.390575,0.554372,0.989659,-0.355539,9.937906,0.103564,-0.060090,0.000000,0.336575,0.157621,0.000000
1.230000,-2.630762,0.222388,-1.596912,1.107036,0.079922,-0.241489,0.594044,1.090422,-0.330958,-1.636875,3.384610,0.658645,1.068953,-0.840616,10.920548,0.106933,-0.058512,0.000000,0.337259,0.156172,-0.000000
1.240000,-2.619662,0.223242,-1.599343,1.112895,0.090996,-0.244764,0.577733,1.124218,-0.323815,-1.624966,3.373940,0.770556,1.353866,-1.284750,11.350402,0.110308,-0.056949,0.000000,0.337661,0.154565,0.000000
1.250000,-2.608504,0.224209,-1.601807,1.118591,0.102406,-0.247962,0.561556,1.157886,-0.315535,-1.610098,3.358754,0.886601,1.581940,-1.767287,11.969388,0.113685,-0.055403,0.000000,0.337770,0.152693,-0.000000
1.260000,-2.597291,0.225291,-1.604302,1.124126,0.114153,-0.251071,0.545537,1.191376,-0.306056,-1.593361,3.338408,1.010284,1.817548,-2.271553,12.597626,0.117062,-0.053876,0.000000,0.337570,0.150643,-0.000000
1.270000,-2.586022,0.226493,-1.606828,1.129503,0.126233,-0.254079,0.529701,1.224640,-0.295322,-1.573246,3.313568,1.136983,2.158623,-2.732072,12.905024,0.120436,-0.052370,0.000000,0.337081,0.148295,-0.000000
1.280000,-2.574701,0.227817,-1.609383,1.134721,0.138645,-0.256973,0.514078,1.257628,-0.283288,-1.551171,3.283017,1.271801,2.257111,-3.382420,14.062199,0.123803,-0.050889,0.000000,0.336250,0.145760,-0.000000
1.290000,-2.563329,0.229267,-1.611967,1.139785,0.151384,-0.259740,0.498684,1.290280,-0.269857,-1.527074,3.246514,1.414875,2.613802,-3.888592,14.384999,0.127160,-0.049433,0.000000,0.335067,0.143036,-0.000000
1.300000,-2.551906,0.230846,-1.614578,1.144696,0.164449,-0.262365,0.483550,1.322542,-0.254984,-1.499262,3.204899,1.560864,2.901623,-4.470435,14.975047,0.130503,-0.048006,0.000000,0.333552,0.139981,-0.000000
1.310000,-2.540435,0.232557,-1.617214,1.149457,0.177834,-0.264834,0.468708,1.354355,-0.238614,-1.468497,3.156700,1.714051,3.212279,-5.080381,15.549873,0.133829,-0.046610,0.000000,0.331622,0.136650,0.000000
1.320000,-2.528917,0.234403,-1.619874,1.154071,0.191534,-0.267132,0.454187,1.385663,-0.220693,-1.435347,3.104075,1.870788,3.460917,-5.537527,15.900058,0.137135,-0.045249,0.000000,0.329445,0.133113,-0.000000
1.330000,-2.517354,0.236388,-1.622556,1.158542,0.205545,-0.269243,0.440014,1.416411,-0.201175,-1.398372,3.044002,2.034203,3.938178,-6.483183,16.782151,0.140416,-0.043924,0.000000,0.326770,0.129214,0.000000
1.340000,-2.505747,0.238515,-1.625258,1.162873,0.219860,-0.271150,0.426233,1.446516,-0.179986,-1.357344,2.976160,2.204193,4.229446,-6.998073,17.103847,0.143668,-0.042640,0.000000,0.323570,0.124926,0.000000
1.350000,-2.494097,0.240787,-1.627978,1.167068,0.234473,-0.272837,0.412876,1.475919,-0.157084,-1.313377,2.903209,2.377089,4.608072,-7.685531,17.576859,0.146887,-0.041400,0.000000,0.320056,0.120373,0.000000
1.360000,-2.482406,0.243206,-1.630714,1.171132,0.249376,-0.274286,0.399982,1.504554,-0.132425,-1.264700,2.822571,2.555488,5.015627,-8.392037,18.017714,0.150068,-0.040208,0.000000,0.316011,0.115362,0.000000
1.370000,-2.470675,0.245775,-1.633463,1.175069,0.264561,-0.275479,0.387587,1.532351,-0.105966,-1.214058,2.735795,2.736590,5.227506,-9.017695,18.272884,0.153206,-0.039067,0.000000,0.311547,0.110171,-0.000000
1.380000,-2.458905,0.248498,-1.636222,1.178885,0.280020,-0.276399,0.375721,1.559243,-0.077677,-1.157747,2.641076,2.922417,6.041377,-9.930786,18.887544,0.156297,-0.037981,0.000000,0.306512,0.104418,0.000000
1.390000,-2.447098,0.251376,-1.638990,1.182585,0.295743,-0.277027,0.364453,1.585145,-0.047503,-1.095419,2.538164,3.112637,6.314867,-10.602450,19.071198,0.159334,-0.036955,0.000000,0.300872,0.098057,0.000000
1.400000,-2.435254,0.254414,-1.641762,1.186176,0.311720,-0.277343,0.353819,1.609985,-0.015420,-1.030434,2.428528,3.304333,6.798032,-11.379267,19.336573,0.162312,-0.035995,0.000000,0.294722,0.091426,-0.000000
1.410000,-2.423375,0.257612,-1.644536,1.189664,0.327939,-0.277329,0.343874,1.633679,0.018594,-0.957480,2.308871,3.498858,7.343297,-12.207217,19.545098,0.165225,-0.035106,0.000000,0.287744,0.083974,-0.000000
1.420000,-2.411461,0.260973,-1.647307,1.193056,0.344389,-0.276965,0.334651,1.656162,0.054562,-0.887674,2.187532,3.694913,7.059730,-12.399938,19.669621,0.168068,-0.034291,0.000000,0.280740,0.076811,-0.000000
1.430000,-2.399514,0.264500,-1.650074,1.196360,0.361058,-0.276231,0.326160,1.677386,0.092497,-0.807015,2.053756,3.892335,9.088260,-14.367614,19.804708,0.170836,-0.033552,0.000000,0.272618,0.068513,0.000000
1.440000,-2.387534,0.268195,-1.652831,1.199582,0.377932,-0.275108,0.318553,1.697192,0.132411,-0.714749,1.906965,4.090510,8.923434,-14.651712,19.805263,0.173516,-0.032905,0.000000,0.263286,0.058979,0.000000
1.450000,-2.375522,0.272059,-1.655574,1.202734,0.394997,-0.273576,0.311850,1.715523,0.174306,-0.624747,1.757808,4.288327,9.520332,-15.519963,19.760052,0.176102,-0.032353,0.000000,0.253779,0.049601,0.000000
1.460000,-2.363479,0.276095,-1.658301,1.205823,0.412237,-0.271615,0.306095,1.732321,0.218176,-0.525113,1.600604,4.485495,10.129113,-16.326797,19.642317,0.178589,-0.031901,0.000000,0.243496,0.039149,0.000000
1.470000,-2.351406,0.280305,-1.661005,1.208859,0.429638,-0.269206,0.301346,1.747476,0.264009,-0.424676,1.427528,4.680733,10.226060,-17.895821,19.410906,0.180966,-0.031557,0.000000,0.231597,0.028506,-0.000000
1.480000,-2.339302,0.284689,-1.663683,1.211853,0.447181,-0.266329,0.297634,1.760863,0.311783,-0.314978,1.250936,4.873839,11.721719,-17.410733,19.196916,0.183220,-0.031326,0.000000,0.219290,0.016780,-0.000000
1.490000,-2.327169,0.289249,-1.666330,1.214815,0.464849,-0.262964,0.295080,1.772487,0.361476,-0.195658,1.071343,5.064003,11.871577,-18.905700,18.802050,0.185351,-0.031220,0.000000,0.206586,0.003898,0.000000
1.500000,-2.315006,0.293986,-1.668941,1.217758,0.482624,-0.259093,0.293720,1.782231,0.413048,-0.075280,0.876185,5.249751,12.471825,-19.730557,18.350506,0.187345,-0.031247,0.000000,0.192140,-0.009277,0.000000
1.510000,-2.302814,0.298901,-1.671510,1.220694,0.500487,-0.254697,0.293561,1.789958,0.466444,0.043467,0.666853,5.428077,12.869393,-20.737595,17.753747,0.189187,-0.031408,0.000000,0.175983,-0.022474,-0.000000
1.520000,-2.290592,0.303996,-1.674033,1.223634,0.518417,-0.249758,0.294732,1.795648,0.521625,0.196740,0.474308,5.608690,16.238453,-19.127030,17.911586,0.190873,-0.031721,0.000000,0.161441,-0.039569,-0.000000
1.530000,-2.278341,0.309270,-1.676504,1.226594,0.536394,-0.244258,0.297437,1.799348,0.578572,0.335767,0.255857,5.776718,11.518316,-24.603317,15.663657,0.192404,-0.032209,0.000000,0.143798,-0.055434,0.000000
1.540000,-2.266060,0.314724,-1.678916,1.229587,0.554396,-0.238181,0.301380,1.800662,0.637109,0.458381,0.009747,5.930560,14.565640,-23.245425,15.533577,0.193736,-0.032844,0.000000,0.122727,-0.069806,0.000000
1.550000,-2.253749,0.320358,-1.681265,1.232626,0.572399,-0.231511,0.306742,1.799619,0.697187,0.613852,-0.220599,6.083264,14.973785,-24.184343,14.546829,0.194866,-0.033648,0.000000,0.102954,-0.088032,0.000000
1.560000,-2.241408,0.326172,-1.683544,1.235727,0.590380,-0.224233,0.313713,1.796198,0.758718,0.783485,-0.464843,6.220826,15.835178,-24.968063,13.433266,0.195787,-0.034646,0.000000,0.081037,-0.108143,-0.000000
1.570000,-2.229034,0.332165,-1.685748,1.238906,0.608315,-0.216332,0.322187,1.790272,0.821605,0.901873,-0.722675,6.356049,10.868004,-26.290369,13.124331,0.196480,-0.035829,0.000000,0.057242,-0.123108,-0.000000
1.580000,-2.216629,0.338338,-1.687869,1.242175,0.626177,-0.207796,0.331920,1.781734,0.885775,1.064360,-0.984183,6.473103,21.722067,-25.993517,10.254850,0.196928,-0.037176,0.000000,0.032146,-0.143219,0.000000
1.590000,-2.204191,0.344689,-1.689902,1.245551,0.643941,-0.198613,0.343659,1.770581,0.950997,1.275032,-1.248450,6.570326,17.353098,-27.154166,9.648028,0.197119,-0.038773,0.000000,0.005734,-0.169097,-0.000000
1.600000,-2.191718,0.351216,-1.691839,1.249054,0.661579,-0.188773,0.357206,1.756721,1.017171,1.437268,-1.524493,6.661697,18.132548,-27.741575,8.136996,0.197035,-0.040602,0.000000,-0.022664,-0.190165,-0.000000
1.610000,-2.179209,0.357920,-1.693675,1.252701,0.679066,-0.178267,0.372493,1.740099,1.084154,1.620967,-1.800265,6.731980,18.664433,-28.196670,6.493825,0.196662,-0.042663,0.000000,-0.052200,-0.214095,0.000000
1.620000,-2.166663,0.364797,-1.695402,1.256510,0.696372,-0.167088,0.389648,1.720637,1.151802,1.810968,-2.095515,6.796691,19.261241,-30.071024,5.860334,0.195980,-0.044973,0.000000,-0.084776,-0.239325,-0.000000
1.630000,-2.154078,0.371846,-1.697014,1.260500,0.713469,-0.155229,0.408724,1.698212,1.220002,2.004618,-2.385265,6.836860,19.454107,-27.843190,2.140763,0.194965,-0.047546,0.000000,-0.118131,-0.265497,-0.000000
1.640000,-2.141452,0.379066,-1.698504,1.264691,0.730327,-0.142687,0.429749,1.672962,1.288447,2.201072,-2.667743,6.850805,19.886692,-29.418854,1.212514,0.193616,-0.050388,0.000000,-0.152130,-0.292510,-0.000000
1.650000,-2.128784,0.386452,-1.699866,1.269102,0.746918,-0.129460,0.452760,1.644789,1.356999,2.401499,-2.966791,6.855924,20.117573,-29.602534,-0.778304,0.191911,-0.053511,0.000000,-0.189140,-0.320609,-0.000000
1.660000,-2.116070,0.394003,-1.701091,1.273753,0.763213,-0.115547,0.477732,1.613581,1.425462,2.591781,-3.276727,6.832672,20.018200,-30.020281,-2.916167,0.189822,-0.056916,0.000000,-0.229024,-0.348030,0.000000
1.670000,-2.103308,0.401715,-1.702174,1.278663,0.779180,-0.100952,0.504761,1.579433,1.493658,2.820801,-3.545282,6.806278,23.733460,-25.956505,-3.312784,0.187347,-0.060621,0.000000,-0.265295,-0.380655,-0.000000
1.680000,-2.090495,0.409585,-1.703108,1.283856,0.794792,-0.085675,0.534045,1.542560,1.561469,3.023374,-3.843425,6.746490,16.699474,-33.725878,-8.683515,0.184497,-0.064654,0.000000,-0.306708,-0.410649,0.000000
1.690000,-2.077630,0.417610,-1.703886,1.289350,0.810020,-0.069725,0.565111,1.502440,1.628463,3.195588,-4.173277,6.651441,19.779415,-29.921568,-9.385761,0.181192,-0.068962,0.000000,-0.353688,-0.437339,-0.000000
1.700000,-2.064707,0.425784,-1.704500,1.295164,0.824831,-0.053109,0.598104,1.459275,1.694495,3.401160,-4.460989,6.550581,19.269332,-29.894100,-11.737871,0.177441,-0.073566,0.000000,-0.396978,-0.468522,-0.000000
1.710000,-2.051725,0.434105,-1.704946,1.301318,0.839196,-0.035839,0.632986,1.413361,1.759368,3.571868,-4.715972,6.419846,18.394858,-28.736616,-14.096229,0.173264,-0.078464,0.000000,-0.437932,-0.495728,-0.000000
1.720000,-2.038680,0.442567,-1.705215,1.307830,0.853088,-0.017927,0.669798,1.364374,1.822839,3.801306,-5.105747,6.271512,24.046027,-41.770971,-15.881521,0.168607,-0.083664,0.000000,-0.496638,-0.530361,-0.000000
1.730000,-2.025567,0.451165,-1.705302,1.314722,0.866471,0.000612,0.708819,1.311635,1.884704,3.980459,-5.395078,6.095704,11.666411,-15.847931,-19.290596,0.163373,-0.089200,0.000000,-0.544796,-0.558963,0.000000
1.740000,-2.012384,0.459894,-1.705201,1.322011,0.879315,0.019761,0.749195,1.256903,1.944658,4.103900,-5.572735,5.891942,16.479836,-27.172789,-21.149524,0.157761,-0.094966,0.000000,-0.580375,-0.580491,-0.000000
1.750000,-1.999126,0.468749,-1.704905,1.329711,0.891600,0.039499,0.791134,1.199635,2.002488,4.280499,-5.874685,5.670104,15.380819,-25.735864,-23.525378,0.151694,-0.100985,0.000000,-0.632345,-0.608455,0.000000
1.760000,-1.985788,0.477724,-1.704409,1.337839,0.903298,0.059803,0.834880,1.139370,2.057972,4.472547,-6.184020,5.422591,15.331262,-25.885027,-25.870142,0.145105,-0.107285,0.000000,-0.686413,-0.638032,-0.000000
1.770000,-1.972368,0.486813,-1.703707,1.346413,0.914379,0.080649,0.879958,1.076783,2.110871,4.516241,-6.298050,5.153754,0.865761,-6.851165,-27.989916,0.138069,-0.113799,0.000000,-0.716281,-0.648319,0.000000
1.780000,-1.958859,0.496010,-1.702794,1.355440,0.924830,0.102011,0.925548,1.012944,2.160966,4.646433,-6.529513,4.860859,25.396216,-39.741013,-30.583673,0.130719,-0.120417,0.000000,-0.761479,-0.668719,-0.000000
1.790000,-1.945257,0.505308,-1.701665,1.364932,0.934626,0.123859,0.973267,0.945679,2.208008,4.872917,-6.891560,4.544277,12.350670,-22.619786,-32.622317,0.122771,-0.127335,0.000000,-0.824053,-0.700652,-0.000000
1.800000,-1.931558,0.514700,-1.700316,1.374910,0.943735,0.146160,1.022401,0.875910,2.251787,4.957130,-7.066732,4.207786,11.986239,-22.394058,-34.763195,0.114342,-0.134454,0.000000,-0.862381,-0.713340,0.000000
1.810000,-1.917757,0.524180,-1.698741,1.385383,0.952138,0.168883,1.072428,0.804283,2.292095,5.042832,-7.252922,3.850584,10.436599,-20.732277,-36.802915,0.105517,-0.141694,0.000000,-0.901738,-0.724951,0.000000
1.820000,-1.903849,0.533740,-1.696937,1.396362,0.959814,0.191990,1.123635,0.730429,2.328720,5.214238,-7.535272,3.470740,18.678560,-29.974439,-39.014245,0.096253,-0.149079,0.000000,-0.953239,-0.746267,-0.000000
1.830000,-1.889828,0.543374,-1.694900,1.407861,0.966737,0.215444,1.176415,0.653907,2.361453,5.307957,-7.731428,3.073486,-0.115662,-9.052057,-40.414557,0.086499,-0.156645,0.000000,-0.992419,-0.756020,0.000000
1.840000,-1.875690,0.553073,-1.692627,1.419891,0.972888,0.239205,1.229467,0.576165,2.390137,5.315633,-7.831888,2.660073,6.826982,-16.807821,-42.385755,0.076458,-0.164207,0.000000,-1.017481,-0.752873,-0.000000
1.850000,-1.861429,0.562829,-1.690115,1.432453,0.978255,0.263233,1.283074,0.496883,2.414588,5.400015,-8.017908,2.227345,4.853419,-14.598235,-44.002269,0.066103,-0.171786,0.000000,-1.052390,-0.757915,0.000000
1.860000,-1.847039,0.572635,-1.687361,1.445554,0.982821,0.287483,1.337165,0.416168,2.434653,5.411689,-8.117115,1.783675,2.553189,-11.889063,-45.417385,0.055465,-0.179354,0.000000,-1.073761,-0.751696,-0.000000
1.870000,-1.832516,0.582483,-1.684364,1.459197,0.986574,0.311911,1.391643,0.334091,2.450159,5.497635,-8.316673,1.312948,9.692767,-21.541402,-48.016787,0.044574,-0.186880,0.000000,-1.106531,-0.753011,0.000000
1.880000,-1.817853,0.592364,-1.681123,1.473389,0.989497,0.336470,1.446809,0.250230,2.460903,5.501813,-8.411933,0.838258,-9.015448,2.699784,-46.874741,0.033395,-0.194383,0.000000,-1.122883,-0.741909,0.000000
1.890000,-1.803046,0.602270,-1.677635,1.488131,0.991579,0.361113,1.501344,0.166283,2.466924,5.417124,-8.393417,0.362066,-2.939293,-5.524246,-49.031075,0.022182,-0.201678,0.000000,-1.121481,-0.717617,-0.000000
1.900000,-1.788089,0.612193,-1.673900,1.503415,0.992821,0.385792,1.555466,0.081941,2.468060,5.400811,-8.467013,-0.135935,-5.281187,-2.691876,-49.850416,0.010918,-0.208773,0.000000,-1.129885,-0.700216,0.000000
1.910000,-1.772976,0.622123,-1.669919,1.519239,0.993216,0.410458,1.609390,-0.003076,2.464216,5.386763,-8.539753,-0.633507,-6.280643,-1.471753,-50.456705,-0.000409,-0.215682,0.000000,-1.135506,-0.681697,-0.000000
1.920000,-1.757702,0.632054,-1.665691,1.535600,0.992759,0.435060,1.662457,-0.087969,2.455306,5.194779,-8.400996,-1.152054,-23.605379,19.131470,-52.427700,-0.011666,-0.222304,0.000000,-1.110492,-0.638257,0.000000
1.930000,-1.742262,0.641976,-1.661218,1.552482,0.991462,0.459546,1.713650,-0.171526,2.441200,5.093330,-8.368990,-1.664761,3.588611,-13.051155,-50.059681,-0.022668,-0.228493,0.000000,-1.097333,-0.605740,0.000000
1.940000,-1.726651,0.651880,-1.656501,1.569873,0.989326,0.483867,1.764733,-0.255833,2.422046,5.094680,-8.458094,-2.168774,-11.896686,5.408683,-51.517403,-0.033668,-0.234473,0.000000,-1.097676,-0.585703,-0.000000
1.950000,-1.710863,0.661760,-1.651542,1.587773,0.986346,0.507970,1.814835,-0.339844,2.397761,4.928354,-8.347290,-2.687687,-12.810512,6.604251,-51.433647,-0.044504,-0.240119,0.000000,-1.069644,-0.542992,0.000000
1.960000,-1.694894,0.671605,-1.646342,1.606165,0.982532,0.531805,1.863331,-0.422811,2.368341,4.764958,-8.238825,-3.195067,-14.825137,9.122518,-51.102745,-0.055060,-0.245347,0.000000,-1.040224,-0.500609,0.000000
1.970000,-1.678738,0.681407,-1.640907,1.625035,0.977893,0.555320,1.910476,-0.505022,2.333785,4.678250,-8.219710,-3.719209,-7.406521,0.492854,-52.636427,-0.065354,-0.250186,0.000000,-1.020461,-0.467063,0.000000
1.980000,-1.662392,0.691160,-1.635237,1.644372,0.972432,0.578463,1.956602,-0.586852,2.294026,4.514169,-8.107371,-4.224958,-25.558902,22.154991,-48.451208,-0.075419,-0.254673,0.000000,-0.987411,-0.424232,-0.000000
1.990000,-1.645849,0.700853,-1.629339,1.664159,0.966162,0.601184,2.000441,-0.666786,2.249366,4.266129,-7.893815,-4.709106,-19.104688,14.705731,-49.420271,-0.085052,-0.258659,0.000000,-0.940972,-0.371975,0.000000
2.000000,-1.629107,0.710480,-1.623215,1.684374,0.959102,0.623434,2.042251,-0.745108,2.199791,4.090272,-7.763710,-5.203716,-20.980654,17.136891,-48.407335,-0.094283,-0.262180,0.000000,-0.904183,-0.328729,-0.000000
2.010000,-1.612161,0.720033,-1.616872,1.704997,0.951266,0.645164,2.082112,-0.821884,2.145370,3.880422,-7.588882,-5.677994,-22.333726,19.013609,-47.211980,-0.103114,-0.265251,0.000000,-0.861619,-0.282563,-0.000000
2.020000,-1.595006,0.729503,-1.610314,1.726008,0.942671,0.666326,2.119706,-0.896727,2.086209,3.631359,-7.372659,-6.154707,-26.152264,23.060703,-47.338153,-0.111495,-0.267844,0.000000,-0.813901,-0.232401,-0.000000
2.030000,-1.577639,0.738884,-1.603547,1.747383,0.933339,0.686872,2.154759,-0.969332,2.022359,3.385229,-7.152246,-6.608154,-23.019631,20.972772,-43.302897,-0.119393,-0.269936,0.000000,-0.766169,-0.184371,-0.000000
2.040000,-1.560057,0.748168,-1.596579,1.769096,0.923291,0.706758,2.187439,-1.039775,1.954138,3.144638,-6.930029,-7.035808,-26.412043,24.626300,-42.979207,-0.126822,-0.271568,0.000000,-0.718961,-0.138928,0.000000
2.050000,-1.542256,0.757347,-1.589414,1.791123,0.912551,0.725941,2.217510,-1.107786,1.881639,2.868546,-6.669958,-7.460714,-27.468470,26.205772,-41.208402,-0.133757,-0.272724,0.000000,-0.668024,-0.090641,-0.000000
2.060000,-1.524234,0.766416,-1.582062,1.813437,0.901144,0.744377,2.244825,-1.173153,1.805012,2.593318,-6.401079,-7.861178,-28.424243,27.740573,-39.310807,-0.140184,-0.273406,0.000000,-0.617288,-0.044589,0.000000
2.070000,-1.505987,0.775368,-1.574530,1.836010,0.889097,0.762028,2.269276,-1.235742,1.724444,2.292439,-6.113779,-8.250638,-30.899725,29.519442,-38.130198,-0.146099,-0.273619,0.000000,-0.565715,0.002628,-0.000000
2.080000,-1.487513,0.784196,-1.566824,1.858812,0.876439,0.778854,2.290686,-1.295391,1.640089,1.993194,-5.814885,-8.614344,-28.907544,30.233823,-34.580440,-0.151499,-0.273362,0.000000,-0.514403,0.047351,-0.000000
2.090000,-1.468810,0.792895,-1.558955,1.881814,0.863200,0.794818,2.309159,-1.352008,1.552252,1.697687,-5.505834,-8.950671,-31.022192,31.738824,-33.106051,-0.156390,-0.272671,0.000000,-0.463667,0.089337,-0.000000
2.100000,-1.449876,0.801458,-1.550931,1.904985,0.849410,0.809888,2.324552,-1.405456,1.461116,1.380238,-5.182100,-9.272463,-31.609795,32.802797,-30.803719,-0.160772,-0.271549,0.000000,-0.413006,0.131831,-0.000000
2.110000,-1.430710,0.809881,-1.542761,1.928294,0.835101,0.824030,2.336762,-1.455652,1.366899,1.060940,-4.856505,-9.566748,-32.162668,33.597416,-28.411295,-0.164656,-0.270007,0.000000,-0.364066,0.172209,-0.000000
2.120000,-1.411310,0.818159,-1.534454,1.951710,0.820308,0.837216,2.345760,-1.502456,1.269832,0.737965,-4.498618,-9.843874,-32.484943,36.691078,-26.644977,-0.168045,-0.268063,0.000000,-0.313360,0.211029,0.000000
2.130000,-1.391675,0.826286,-1.526020,1.975199,0.805064,0.849418,2.351505,-1.545664,1.170121,0.410121,-4.149729,-10.091928,-33.069464,33.023262,-22.946487,-0.170935,-0.265732,0.000000,-0.265722,0.248121,0.000000
2.140000,-1.371806,0.834259,-1.517469,1.998729,0.789406,0.860611,2.353948,-1.585501,1.068096,0.078308,-3.813025,-10.309926,-33.206417,35.571456,-21.009470,-0.173372,-0.263033,0.000000,-0.221412,0.283435,-0.000000
2.150000,-1.351701,0.842073,-1.508811,2.022267,0.773366,0.870773,2.353070,-1.621813,0.963980,-0.254259,-3.449631,-10.508934,-33.359360,35.809934,-18.427010,-0.175357,-0.259983,0.000000,-0.176024,0.317031,-0.000000
2.160000,-1.331360,0.849725,-1.500057,2.045779,0.756981,0.879884,2.348873,-1.654534,0.858007,-0.584650,-3.094778,-10.681393,-33.334648,35.902273,-15.870275,-0.176903,-0.256601,0.000000,-0.133423,0.348487,-0.000000
2.170000,-1.310785,0.857211,-1.491217,2.069233,0.740287,0.887928,2.341328,-1.683646,0.750453,-0.926434,-2.725013,-10.824543,-34.391043,37.284970,-12.946079,-0.178026,-0.252904,0.000000,-0.091201,0.379223,0.000000
2.180000,-1.289976,0.864530,-1.482302,2.092594,0.723321,0.894889,2.330379,-1.709073,0.641593,-1.259238,-2.365131,-10.944246,-32.133757,34.645372,-11.001824,-0.178736,-0.248904,0.000000,-0.051683,0.407409,-0.000000
2.190000,-1.268934,0.871677,-1.473323,2.115830,0.706118,0.900756,2.316184,-1.730995,0.531643,-1.581203,-2.017533,-11.040849,-32.863047,35.601668,-8.133385,-0.179069,-0.244633,0.000000,-0.014972,0.433012,0.000000
2.200000,-1.247660,0.878651,-1.464290,2.138907,0.688713,0.905519,2.298719,-1.749377,0.420876,-1.910910,-1.659906,-11.108595,-32.443900,35.154919,-5.609060,-0.179037,-0.240105,0.000000,0.021092,0.457860,-0.000000
2.210000,-1.226156,0.885451,-1.455216,2.161793,0.671142,0.909172,2.278007,-1.764233,0.309539,-2.230274,-1.312410,-11.154872,-31.914121,34.597490,-3.161913,-0.178656,-0.235336,0.000000,0.054768,0.480448,-0.000000
2.220000,-1.204425,0.892074,-1.446111,2.184456,0.653440,0.911709,2.254092,-1.775623,0.197899,-2.553496,-0.965845,-11.167463,-32.229651,34.429161,0.159528,-0.177947,-0.230343,0.000000,0.086803,0.502002,0.000000
2.230000,-1.182468,0.898519,-1.436985,2.206864,0.635641,0.913130,2.226982,-1.783587,0.086247,-2.864379,-0.629815,-11.161857,-29.917698,32.748978,0.937285,-0.176927,-0.225142,0.000000,0.116683,0.521420,-0.000000
2.240000,-1.160288,0.904786,-1.427852,2.228986,0.617779,0.913434,2.196854,-1.788262,-0.025285,-3.161403,-0.305864,-11.139281,-29.964193,32.291106,4.048129,-0.175620,-0.219757,0.000000,0.144392,0.538702,-0.000000
2.250000,-1.137889,0.910875,-1.418720,2.250791,0.599886,0.912625,2.163742,-1.789715,-0.136425,-3.459239,0.013355,-11.085206,-29.101540,31.266921,6.275466,-0.174044,-0.214202,0.000000,0.170441,0.555049,-0.000000
2.260000,-1.115274,0.916784,-1.409603,2.272251,0.581995,0.910708,2.127713,-1.788048,-0.246943,-3.744966,0.318005,-11.015124,-28.180972,30.103751,8.385261,-0.172219,-0.208492,0.000000,0.194293,0.569665,-0.000000
2.270000,-1.092445,0.922515,-1.400510,2.293336,0.564135,0.907689,2.088863,-1.783359,-0.356605,-4.024002,0.619310,-10.911723,-27.471076,29.697174,11.643193,-0.170162,-0.202643,0.000000,0.216809,0.582822,0.000000
2.280000,-1.069408,0.928067,-1.391453,2.314019,0.546338,0.903579,2.047274,-1.775726,-0.465141,-4.291148,0.902314,-10.795938,-25.943611,26.874790,11.478969,-0.167891,-0.196670,0.000000,0.237026,0.594550,0.000000
2.290000,-1.046167,0.933442,-1.382442,2.334273,0.528630,0.898390,2.003083,-1.765382,-0.572494,-4.545604,1.165505,-10.669543,-25.084413,26.198137,14.428611,-0.165430,-0.190587,0.000000,0.254936,0.604879,0.000000
2.300000,-1.022724,0.938640,-1.373489,2.354073,0.511039,0.892134,1.956388,-1.752430,-0.678420,-4.791424,1.422204,-10.513151,-23.926030,24.682304,16.191465,-0.162796,-0.184409,0.000000,0.271548,0.613926,0.000000
2.310000,-0.999087,0.943663,-1.364603,2.373393,0.493590,0.884827,1.907298,-1.737003,-0.782730,-5.024538,1.660457,-10.346534,-22.726376,23.107028,17.818796,-0.160006,-0.178148,0.000000,0.286154,0.621748,0.000000
2.320000,-0.975258,0.948512,-1.355795,2.392211,0.476306,0.876486,1.855935,-1.719262,-0.885241,-5.246153,1.885512,-10.150640,-21.554506,21.748438,20.660599,-0.157078,-0.171818,0.000000,0.299034,0.628222,-0.000000
2.330000,-0.951244,0.953190,-1.347077,2.410504,0.459212,0.867129,1.802419,-1.699355,-0.985726,-5.454758,2.092181,-9.947989,-20.159837,19.571927,19.831171,-0.154031,-0.165431,0.000000,0.310122,0.633650,0.000000
2.340000,-0.927050,0.957697,-1.338456,2.428253,0.442326,0.856778,1.746885,-1.677483,-1.084190,-5.649972,2.279734,-9.740555,-18.914578,18.078280,22.327392,-0.150882,-0.158997,0.000000,0.319441,0.638065,-0.000000
2.350000,-0.902681,0.962037,-1.329944,2.445436,0.425668,0.845453,1.689461,-1.653807,-1.180440,-5.832659,2.452363,-9.507635,-17.583156,16.294630,23.552270,-0.147648,-0.152527,0.000000,0.327149,0.641309,0.000000
2.360000,-0.878143,0.966211,-1.321550,2.462036,0.409255,0.833177,1.630274,-1.628499,-1.274333,-6.002386,2.606296,-9.269418,-16.246957,14.487103,24.653350,-0.144344,-0.146032,0.000000,0.333239,0.643682,-0.000000
2.370000,-0.853442,0.970223,-1.313284,2.478036,0.393103,0.819974,1.569467,-1.601742,-1.365746,-6.156517,2.742020,-9.009579,-14.686221,12.654141,26.735491,-0.140989,-0.139523,0.000000,0.337609,0.644791,0.000000
2.380000,-0.828585,0.974074,-1.305154,2.493420,0.377224,0.805871,1.507184,-1.573720,-1.454519,-6.298366,2.859320,-8.746843,-13.685940,10.803421,25.777585,-0.137597,-0.133009,0.000000,0.340518,0.645210,0.000000
2.390000,-0.803576,0.977768,-1.297169,2.508175,0.361632,0.790893,1.443539,-1.544618,-1.540684,-6.428015,2.958055,-8.482984,-12.133282,8.942588,27.545379,-0.134183,-0.126497,0.000000,0.342006,0.644980,-0.000000
2.400000,-0.778423,0.981308,-1.289339,2.522287,0.346335,0.775066,1.378678,-1.514621,-1.624108,-6.541966,3.038163,-8.201074,-10.767157,7.079289,28.255233,-0.130762,-0.119997,0.000000,0.341919,0.643647,-0.000000
2.410000,-0.753132,0.984696,-1.281671,2.535745,0.331342,0.758420,1.312737,-1.483911,-1.704704,-6.644143,3.100941,-7.917265,-9.425580,5.246754,28.867163,-0.127349,-0.113515,0.000000,0.340580,0.641753,0.000000
2.420000,-0.727710,0.987936,-1.274173,2.548539,0.316659,0.740982,1.245860,-1.452682,-1.782404,-6.728267,3.141017,-7.620562,-7.637191,2.994681,30.093665,-0.123957,-0.107061,0.000000,0.337453,0.638680,-0.000000
2.430000,-0.702164,0.991030,-1.266854,2.560660,0.302289,0.722782,1.178205,-1.421140,-1.857116,-6.801887,3.165596,-7.323347,-7.096418,1.931771,29.323935,-0.120603,-0.100644,0.000000,0.333298,0.635211,0.000000
2.440000,-0.676500,0.993983,-1.259720,2.572100,0.288236,0.703849,1.109854,-1.389418,-1.928877,-6.865469,3.175208,-7.026962,-5.384506,-0.230605,30.308766,-0.117294,-0.094265,0.000000,0.328183,0.631393,0.000000
2.450000,-0.650724,0.996796,-1.252779,2.582855,0.274501,0.684214,1.040958,-1.357713,-1.997616,-6.911668,3.163003,-6.720565,-4.096137,-1.978964,30.591024,-0.114045,-0.087933,0.000000,0.321452,0.626537,-0.000000
2.460000,-0.624845,0.999474,-1.246038,2.592918,0.261082,0.663907,0.971653,-1.326204,-2.063293,-6.947301,3.136118,-6.414554,-2.836709,-3.673007,30.802216,-0.110868,-0.081653,0.000000,0.313811,0.621307,-0.000000
2.470000,-0.598868,1.002019,-1.239503,2.602287,0.247976,0.642959,0.902069,-1.295069,-2.125885,-6.966665,3.087093,-6.102881,-1.232483,-5.851156,31.324878,-0.107774,-0.075433,0.000000,0.304599,0.615192,-0.000000
2.480000,-0.572801,1.004434,-1.233181,2.610959,0.235178,0.621400,0.832351,-1.264504,-2.185356,-6.976073,3.024994,-5.792391,-0.659785,-6.551708,30.757177,-0.104778,-0.069278,0.000000,0.294632,0.608767,-0.000000
2.490000,-0.546651,1.006723,-1.227077,2.618934,0.222683,0.599262,0.762578,-1.234608,-2.241741,-6.976079,2.950705,-5.483951,0.847001,-8.572955,31.120049,-0.101884,-0.063191,0.000000,0.283986,0.602075,0.000000
2.500000,-0.520425,1.008889,-1.221197,2.626211,0.210483,0.576576,0.692884,-1.205562,-2.295019,-6.960886,2.856072,-5.171849,1.992775,-10.068594,31.094617,-0.099103,-0.057177,0.000000,0.271947,0.594607,-0.000000
2.510000,-0.494129,1.010934,-1.215547,2.632792,0.198569,0.553372,0.623389,-1.177524,-2.345184,-6.936342,2.749351,-4.861256,3.095580,-11.494301,31.033605,-0.096447,-0.051241,0.000000,0.259231,0.586869,-0.000000
2.520000,-0.467771,1.012861,-1.210131,2.638680,0.186929,0.529682,0.554208,-1.150640,-2.392246,-6.897391,2.624297,-4.551158,4.508459,-13.282571,30.963076,-0.093923,-0.045387,0.000000,0.245317,0.578437,-0.000000
2.530000,-0.441358,1.014674,-1.204955,2.643878,0.175551,0.505537,0.485468,-1.125072,-2.436212,-6.850076,2.488605,-4.242457,4.942462,-13.836948,30.771061,-0.091542,-0.039622,0.000000,0.230829,0.569801,-0.000000
2.540000,-0.414896,1.016373,-1.200022,2.648391,0.164423,0.480968,0.417231,-1.100898,-2.477101,-6.795036,2.343303,-3.935508,6.240415,-15.435387,30.630742,-0.089308,-0.033944,0.000000,0.215840,0.561004,-0.000000
2.550000,-0.388393,1.017963,-1.195337,2.652225,0.153528,0.456006,0.349614,-1.078263,-2.514927,-6.726946,2.182063,-3.630062,7.189512,-16.575506,30.437572,-0.087229,-0.028359,0.000000,0.199829,0.551604,0.000000
2.560000,-0.361854,1.019444,-1.190903,2.655386,0.142852,0.430680,0.282714,-1.057283,-2.549704,-6.651645,2.012341,-3.325602,8.083512,-17.619784,30.247736,-0.085313,-0.022870,0.000000,0.183377,0.542063,-0.000000
2.570000,-0.335287,1.020820,-1.186724,2.657882,0.132377,0.405022,0.216628,-1.038071,-2.581462,-6.563395,1.827511,-3.027035,9.345939,-19.075243,29.661149,-0.083565,-0.017480,0.000000,0.165974,0.531916,-0.000000
2.580000,-0.308698,1.022093,-1.182804,2.659721,0.122084,0.379061,0.151464,-1.020751,-2.610243,-6.469353,1.636513,-2.728262,9.448478,-19.101815,30.098207,-0.081994,-0.012194,0.000000,0.148277,0.521714,0.000000
2.590000,-0.282095,1.023263,-1.179144,2.660914,0.111955,0.352827,0.087256,-1.005355,-2.636025,-6.370253,1.440576,-2.429096,10.579764,-20.329890,29.534335,-0.080600,-0.007011,0.000000,0.130367,0.511507,0.000000
2.600000,-0.255482,1.024332,-1.175748,2.661470,0.101970,0.326350,0.024100,-0.991985,-2.658848,-6.259736,1.232419,-2.135890,11.301567,-21.027847,29.306199,-0.079390,-0.001933,0.000000,0.111683,0.500777,0.000000
2.610000,-0.228867,1.025303,-1.172618,2.661400,0.092109,0.299659,-0.037923,-0.980716,-2.678737,-6.143785,1.020496,-1.842108,11.981903,-21.619016,29.104625,-0.078367,0.003037,0.000000,0.092841,0.489985,0.000000
2.620000,-0.202256,1.026175,-1.169755,2.660715,0.082349,0.272785,-0.098745,-0.971616,-2.695725,-6.019319,0.797795,-1.556966,12.806353,-22.635894,28.260275,-0.077535,0.007896,0.000000,0.073317,0.478869,-0.000000
2.630000,-0.175655,1.026950,-1.167163,2.659429,0.072669,0.245754,-0.158293,-0.964763,-2.709867,-5.889854,0.573755,-1.269836,13.076260,-22.147862,29.177422,-0.076900,0.012643,0.000000,0.053777,0.467697,0.000000
2.640000,-0.149070,1.027628,-1.164841,2.657554,0.063046,0.218597,-0.216528,-0.960138,-2.721111,-5.755965,0.349703,-0.980176,13.792956,-22.918642,28.417406,-0.076460,0.017278,0.000000,0.034300,0.456508,0.000000
2.650000,-0.122506,1.028211,-1.162791,2.655103,0.053459,0.191342,-0.273387,-0.957799,-2.729504,-5.614977,0.118014,-0.698575,14.299043,-23.131630,28.242520,-0.076216,0.021799,0.000000,0.014323,0.445060,0.000000
2.660000,-0.095970,1.028698,-1.161014,2.652091,0.043883,0.164016,-0.328815,-0.957776,-2.735070,-5.469952,-0.113581,-0.414748,14.761369,-23.255157,28.106174,-0.076173,0.026205,0.000000,-0.005625,0.433598,-0.000000
2.670000,-0.069466,1.029088,-1.159511,2.648532,0.034295,0.136650,-0.382766,-0.960080,-2.737837,-5.319318,-0.347527,-0.140243,15.297668,-23.436941,27.202190,-0.076329,0.030495,0.000000,-0.025691,0.421956,-0.000000
2.680000,-0.043001,1.029383,-1.158281,2.644441,0.024673,0.109269,-0.435191,-0.964722,-2.737860,-5.165411,-0.580298,0.137848,15.474948,-23.098488,28.431084,-0.076686,0.034669,0.000000,-0.045697,0.410333,0.000000
2.690000,-0.016579,1.029582,-1.157325,2.639833,0.014993,0.081902,-0.486066,-0.971677,-2.735062,-5.008733,-0.810801,0.420231,15.914785,-23.067119,27.638907,-0.077243,0.038726,0.000000,-0.065583,0.398764,-0.000000
2.700000,0.009794,1.029683,-1.156643,2.634725,0.005232,0.054577,-0.535350,-0.980937,-2.729491,-4.847772,-1.040618,0.694147,16.209754,-22.798602,27.554328,-0.077998,0.042667,0.000000,-0.085421,0.387076,-0.000000
2.710000,0.036114,1.029686,-1.156234,2.629132,-0.004633,0.027321,-0.583013,-0.992470,-2.721164,-4.684342,-1.265211,0.971265,16.468171,-22.403200,27.498751,-0.078950,0.046492,0.000000,-0.104945,0.375433,-0.000000
2.720000,0.062375,1.029590,-1.156096,2.623070,-0.014625,0.000163,-0.629029,-1.006251,-2.710098,-4.518555,-1.491110,1.240735,16.683858,-22.469619,26.758807,-0.080098,0.050199,0.000000,-0.124627,0.363792,0.000000
2.730000,0.088574,1.029393,-1.156230,2.616556,-0.024766,-0.026872,-0.673378,-1.022261,-2.696334,-4.350768,-1.708176,1.514070,16.867145,-20.918427,27.921154,-0.081441,0.053791,0.000000,-0.143758,0.352208,0.000000
2.740000,0.114705,1.029094,-1.156633,2.609608,-0.035077,-0.053755,-0.716039,-1.040378,-2.679798,-4.181370,-1.915038,1.791873,17.004465,-20.731436,27.275805,-0.082971,0.057267,0.000000,-0.162256,0.340708,0.000000
2.750000,0.140765,1.028691,-1.157304,2.602241,-0.045580,-0.080459,-0.757001,-1.060560,-2.660526,-4.010796,-2.119995,2.062710,17.105566,-19.951920,27.256525,-0.084686,0.060629,0.000000,-0.180724,0.329261,0.000000
2.760000,0.166749,1.028182,-1.158242,2.594474,-0.056295,-0.106956,-0.796252,-1.082735,-2.638530,-3.839271,-2.313295,2.336673,17.170978,-19.057568,27.250550,-0.086583,0.063877,0.000000,-0.198476,0.317917,-0.000000
2.770000,0.192653,1.027564,-1.159443,2.586322,-0.067241,-0.133220,-0.833787,-1.106824,-2.613816,-3.667705,-2.504200,2.605094,17.157425,-18.754616,26.711372,-0.088656,0.067011,0.000000,-0.216206,0.306692,0.000000
2.780000,0.218474,1.026836,-1.160905,2.577804,-0.078438,-0.159224,-0.869605,-1.132768,-2.586415,-3.495796,-2.680664,2.876727,17.218841,-16.512678,27.623349,-0.090903,0.070035,0.000000,-0.233034,0.295593,-0.000000
2.790000,0.244208,1.025994,-1.162626,2.568936,-0.089902,-0.184939,-0.903703,-1.160382,-2.556267,-3.323885,-2.841331,3.151929,17.135641,-15.964276,27.135687,-0.093313,0.072948,0.000000,-0.248872,0.284642,0.000000
2.800000,0.269851,1.025037,-1.164603,2.559735,-0.101651,-0.210340,-0.936086,-1.189583,-2.523399,-3.153021,-2.996643,3.421793,17.052712,-14.728593,27.115157,-0.095881,0.075753,0.000000,-0.264501,0.273858,-0.000000
2.810000,0.295401,1.023960,-1.166832,2.550220,-0.113699,-0.235398,-0.966767,-1.220262,-2.487822,-2.983303,-3.136778,3.693763,16.927671,-13.422510,27.086286,-0.098600,0.078452,0.000000,-0.279205,0.263280,0.000000
2.820000,0.320855,1.022762,-1.169310,2.540406,-0.126060,-0.260087,-0.995754,-1.252285,-2.449541,-2.814194,-3.266104,3.961714,16.846876,-12.297950,26.685630,-0.101463,0.081045,0.000000,-0.293298,0.252815,-0.000000
2.830000,0.346209,1.021438,-1.172032,2.530310,-0.138749,-0.284380,-1.023059,-1.285530,-2.408581,-2.647350,-3.379714,4.231288,16.514792,-10.408440,27.231340,-0.104463,0.083535,0.000000,-0.306437,0.242621,-0.000000
2.840000,0.371460,1.019986,-1.174996,2.519950,-0.151774,-0.308250,-1.048710,-1.319823,-2.364908,-2.483175,-3.476736,4.502522,16.356277,-9.119195,26.824553,-0.107588,0.085925,0.000000,-0.318561,0.232723,-0.000000
2.850000,0.396607,1.018402,-1.178196,2.509341,-0.165148,-0.331669,-1.072727,-1.355024,-2.318549,-2.320691,-3.560749,4.769267,16.093349,-7.539716,26.705194,-0.110831,0.088217,0.000000,-0.329909,0.222989,0.000000
2.860000,0.421646,1.016682,-1.181628,2.498501,-0.178877,-0.354612,-1.095135,-1.390974,-2.269523,-2.161348,-3.626319,5.035590,15.797094,-5.875704,26.542142,-0.114182,0.090413,0.000000,-0.340077,0.213554,0.000000
2.870000,0.446576,1.014823,-1.185286,2.487444,-0.192969,-0.377051,-1.115962,-1.427519,-2.217844,-2.004606,-3.680945,5.299878,15.519564,-4.739344,26.320051,-0.117631,0.092517,0.000000,-0.349660,0.204353,-0.000000
2.880000,0.471394,1.012821,-1.189167,2.476187,-0.207429,-0.398960,-1.135240,-1.464521,-2.163532,-1.851617,-3.714609,5.562085,15.072271,-1.976509,26.114241,-0.121171,0.094530,0.000000,-0.357836,0.195472,0.000000
2.890000,0.496099,1.010673,-1.193264,2.464744,-0.222261,-0.420313,-1.153008,-1.501736,-2.106610,-1.702728,-3.726435,5.821784,14.727090,-0.686462,25.806167,-0.124783,0.096456,0.000000,-0.364514,0.186928,-0.000000
2.900000,0.520689,1.008375,-1.197571,2.453131,-0.237464,-0.441084,-1.169306,-1.539013,-2.047108,-1.557402,-3.725627,6.078135,14.306706,1.157385,25.466511,-0.128459,0.098299,0.000000,-0.370433,0.178664,-0.000000
2.910000,0.545161,1.005922,-1.202083,2.441363,-0.253040,-0.461247,-1.184173,-1.576174,-1.985064,-1.416806,-3.703285,6.329795,13.853824,3.043523,25.049565,-0.132186,0.100060,0.000000,-0.374826,0.170757,0.000000
2.920000,0.569515,1.003313,-1.206794,2.429453,-0.268987,-0.480777,-1.197654,-1.613037,-1.920511,-1.279997,-3.667178,6.580709,13.458751,4.445533,24.935607,-0.135953,0.101745,0.000000,-0.378363,0.163156,0.000000
2.930000,0.593750,1.000541,-1.211697,2.417414,-0.285300,-0.499648,-1.209791,-1.649441,-1.853476,-1.148658,-3.608767,6.824362,12.803138,7.247524,23.778417,-0.139748,0.103355,0.000000,-0.380239,0.155944,0.000000
2.940000,0.617863,0.997605,-1.216785,2.405261,-0.301973,-0.517838,-1.220646,-1.685134,-1.784053,-1.023119,-3.527534,7.059854,12.345504,8.733586,23.498339,-0.143552,0.104896,0.000000,-0.380358,0.149133,-0.000000
2.950000,0.641855,0.994501,-1.222051,2.393005,-0.318999,-0.535322,-1.230268,-1.719948,-1.712285,-0.902216,-3.431816,7.292486,11.786263,10.676144,22.828035,-0.147352,0.106370,0.000000,-0.379453,0.142671,-0.000000
2.960000,0.665723,0.991224,-1.227489,2.380660,-0.336369,-0.552076,-1.238718,-1.753694,-1.638239,-0.788974,-3.314035,7.515270,11.171454,12.626649,22.060302,-0.151134,0.107782,0.000000,-0.376758,0.136750,-0.000000
2.970000,0.689468,0.987772,-1.233090,2.368235,-0.354069,-0.568079,-1.246043,-1.786184,-1.561978,-0.675977,-3.181639,7.736608,11.120609,14.094705,21.861377,-0.154884,0.109136,0.000000,-0.372979,0.130812,0.000000
2.980000,0.713088,0.984142,-1.238848,2.355742,-0.372088,-0.583309,-1.252273,-1.817251,-1.483551,-0.573007,-3.027066,7.945245,9.461018,16.823723,19.842947,-0.158587,0.110433,0.000000,-0.367267,0.125587,-0.000000
2.990000,0.736582,0.980330,-1.244754,2.343193,-0.390409,-0.597743,-1.257541,-1.846649,-1.403123,-0.480664,-2.850206,8.139955,9.311790,18.296053,19.422716,-0.162222,0.111682,0.000000,-0.359525,0.121124,-0.000000
3.000000,0.759951,0.976333,-1.250800,2.330595,-0.409014,-0.611365,-1.261885,-1.874212,-1.320760,-0.389423,-2.659165,8.330581,8.628554,20.151726,18.353432,-0.165774,0.112887,0.000000,-0.350544,0.116692,-0.000000
3.010000,0.783194,0.972148,-1.256978,2.317958,-0.427886,-0.624153,-1.265364,-1.899771,-1.236568,-0.307727,-2.449719,8.505477,7.929819,21.926162,17.165141,-0.169227,0.114051,0.000000,-0.339720,0.112916,0.000000
3.020000,0.806310,0.967774,-1.263280,2.305290,-0.447003,-0.636090,-1.268045,-1.923133,-1.150647,-0.228821,-2.219005,8.678704,7.636443,24.016696,16.931131,-0.172562,0.115179,0.000000,-0.326948,0.109347,-0.000000
3.030000,0.829300,0.963208,-1.269697,2.292599,-0.466341,-0.647160,-1.269974,-1.944104,-1.063063,-0.159504,-1.973584,8.832587,6.220151,25.051164,13.815821,-0.175760,0.116273,0.000000,-0.312454,0.106411,-0.000000
3.040000,0.852162,0.958447,-1.276220,2.279893,-0.485876,-0.657347,-1.271270,-1.962560,-0.974069,-0.100087,-1.714344,8.965610,5.879669,26.977798,13.317393,-0.178805,0.117343,0.000000,-0.296206,0.104129,-0.000000
3.050000,0.874898,0.953490,-1.282841,2.267176,-0.505583,-0.666637,-1.271983,-1.978323,-0.883756,-0.043732,-1.435905,9.094091,5.177125,28.505117,11.826894,-0.181677,0.118390,0.000000,-0.277912,0.102067,0.000000
3.060000,0.897506,0.948335,-1.289550,2.254455,-0.525433,-0.675018,-1.272154,-1.991238,-0.792261,0.008753,-1.144798,9.202177,4.578224,29.938664,10.246553,-0.184358,0.119418,0.000000,-0.257814,0.100126,-0.000000
3.070000,0.919987,0.942980,-1.296338,2.241734,-0.545398,-0.682479,-1.271888,-2.001154,-0.699729,0.041026,-0.835246,9.303096,2.598899,31.727777,9.471950,-0.186826,0.120434,0.000000,-0.235484,0.099962,-0.000000
3.080000,0.942341,0.937426,-1.303197,2.229018,-0.565446,-0.689009,-1.271320,-2.007910,-0.606276,0.075898,-0.515363,9.381865,4.399576,32.225812,6.256904,-0.189061,0.121451,0.000000,-0.211356,0.099335,0.000000
3.090000,0.964567,0.931671,-1.310115,2.216309,-0.585545,-0.694602,-1.270352,-2.011432,-0.512173,0.114464,-0.186420,9.437213,2.587160,33.777233,5.261211,-0.191047,0.122454,0.000000,-0.185435,0.098099,-0.000000
3.100000,0.986667,0.925715,-1.317085,2.203612,-0.605663,-0.699251,-1.269107,-2.011583,-0.417556,0.133854,0.157872,9.483005,2.017644,34.832507,3.430796,-0.192762,0.123456,0.000000,-0.157236,0.098560,-0.000000
3.110000,1.008639,0.919558,-1.324097,2.190928,-0.625765,-0.702952,-1.267680,-2.008243,-0.322598,0.150497,0.511913,9.504971,1.400203,35.808840,1.514422,-0.194185,0.124462,0.000000,-0.126957,0.099030,-0.000000
3.120000,1.030485,0.913200,-1.331141,2.178259,-0.645816,-0.705703,-1.266111,-2.001326,-0.227475,0.162694,0.872300,9.518293,0.955307,36.392129,0.598888,-0.195297,0.125476,0.000000,-0.095103,0.099851,-0.000000
3.130000,1.052205,0.906642,-1.338208,2.165606,-0.665780,-0.707501,-1.264450,-1.990764,-0.132324,0.167841,1.242361,9.505397,0.072816,37.603505,-3.201209,-0.196079,0.126499,0.000000,-0.060937,0.101067,0.000000
3.140000,1.073798,0.899885,-1.345288,2.152970,-0.685619,-0.708350,-1.262778,-1.976449,-0.037463,0.165905,1.621033,9.465157,-0.372387,37.963796,-4.302998,-0.196507,0.127538,0.000000,-0.024430,0.102672,0.000000
3.150000,1.095264,0.892930,-1.352372,2.140350,-0.705296,-0.708252,-1.261145,-1.958336,0.056955,0.159692,2.002413,9.414587,-0.954478,38.433500,-6.361982,-0.196563,0.128594,0.000000,0.013600,0.104609,-0.000000
3.160000,1.116605,0.885780,-1.359450,2.127746,-0.724773,-0.707213,-1.259626,-1.936410,0.150737,0.142641,2.382724,9.338257,-1.613044,38.637003,-8.455377,-0.196231,0.129674,0.000000,0.053161,0.107343,0.000000
3.170000,1.137819,0.878436,-1.366513,2.115157,-0.744011,-0.705240,-1.258246,-1.910594,0.243686,0.135227,2.784158,9.249588,-0.683941,40.624420,-9.716523,-0.195487,0.130778,0.000000,0.096214,0.109000,0.000000
3.180000,1.158908,0.870900,-1.373552,2.102581,-0.762971,-0.702343,-1.256980,-1.880774,0.335639,0.111871,3.173704,9.134744,-4.009259,37.228717,-13.265407,-0.194305,0.131901,0.000000,0.139896,0.111953,0.000000
3.190000,1.179871,0.863177,-1.380557,2.090016,-0.781614,-0.698532,-1.256071,-1.847177,0.426289,0.071644,3.548488,8.993149,-3.207293,38.713937,-14.610213,-0.192688,0.133066,0.000000,0.183917,0.116333,-0.000000
3.200000,1.200708,0.855269,-1.387519,2.077459,-0.799902,-0.693822,-1.255502,-1.809734,0.515467,0.040814,3.938899,8.838845,-3.775452,38.336111,-16.686354,-0.190614,0.134267,0.000000,0.231049,0.119636,0.000000
3.210000,1.221420,0.847181,-1.394430,2.064905,-0.817796,-0.688228,-1.255278,-1.768458,0.602988,0.003460,4.314824,8.662022,-4.201333,37.769017,-18.704161,-0.188068,0.135504,0.000000,0.278470,0.123345,-0.000000
3.220000,1.242006,0.838915,-1.401281,2.052352,-0.835259,-0.681768,-1.255488,-1.723382,0.688638,-0.047800,4.702484,8.464597,-5.547756,38.822028,-20.744013,-0.185033,0.136783,0.000000,0.328874,0.128272,0.000000
3.230000,1.262467,0.830477,-1.408063,2.039794,-0.852251,-0.674462,-1.256223,-1.674478,0.772216,-0.096941,5.071536,8.247923,-4.258218,34.936157,-22.581649,-0.181492,0.138112,0.000000,0.379011,0.132751,0.000000
3.240000,1.282802,0.821872,-1.414768,2.027226,-0.868736,-0.666331,-1.257412,-1.622030,0.853534,-0.142873,5.419288,8.012536,-5.422640,35.516818,-24.516332,-0.177456,0.139480,0.000000,0.428466,0.136632,0.000000
3.250000,1.303011,0.813104,-1.421387,2.014644,-0.884680,-0.657400,-1.259130,-1.566054,0.932402,-0.200992,5.773561,7.758065,-5.694214,34.392649,-26.336390,-0.172913,0.140893,0.000000,0.480187,0.141553,-0.000000
3.260000,1.323095,0.804180,-1.427913,2.002041,-0.900046,-0.647692,-1.261417,-1.506627,1.008643,-0.256371,6.109496,7.487233,-5.895916,33.154214,-28.059754,-0.167855,0.142351,0.000000,0.531322,0.145930,0.000000
3.270000,1.343052,0.795105,-1.434338,1.989413,-0.914801,-0.637236,-1.264306,-1.443876,1.082071,-0.323564,6.439734,7.194907,-7.029135,32.502935,-30.156324,-0.162283,0.143857,0.000000,0.583245,0.151256,-0.000000
3.280000,1.362883,0.785886,-1.440655,1.976753,-0.928913,-0.626061,-1.267869,-1.377897,1.152498,-0.386177,6.751390,6.889338,-5.470335,29.797320,-30.934807,-0.156194,0.145414,0.000000,0.634197,0.155840,0.000000
3.290000,1.382587,0.776529,-1.446857,1.964054,-0.942349,-0.614196,-1.272007,-1.308919,1.219820,-0.443069,7.042781,6.571772,-6.412198,28.835576,-32.799366,-0.149604,0.147009,0.000000,0.683773,0.159523,-0.000000
3.300000,1.402164,0.767041,-1.452937,1.951311,-0.955081,-0.601675,-1.276773,-1.237067,1.283868,-0.509937,7.324569,6.235717,-6.444995,27.132442,-34.157556,-0.142518,0.148644,0.000000,0.733119,0.163936,0.000000
3.310000,1.421613,0.757430,-1.458889,1.938516,-0.967081,-0.588530,-1.282193,-1.162511,1.344510,-0.574116,7.583251,5.890965,-6.460641,25.275313,-35.356205,-0.134950,0.150319,0.000000,0.780297,0.167793,0.000000
3.320000,1.440934,0.747702,-1.464706,1.925665,-0.978323,-0.574797,-1.288261,-1.085410,1.401602,-0.639721,7.836092,5.523623,-6.579328,24.610747,-37.527394,-0.126912,0.152029,0.000000,0.827273,0.171286,-0.000000
3.330000,1.460126,0.737866,-1.470383,1.912749,-0.988782,-0.560511,-1.294982,-1.005886,1.454975,-0.704012,8.061175,5.152681,-6.270164,20.371687,-36.622873,-0.118416,0.153771,0.000000,0.870983,0.174401,-0.000000
3.340000,1.479189,0.727929,-1.475914,1.899763,-0.998434,-0.545710,-1.302335,-0.924290,1.504655,-0.766501,8.256775,4.780157,-6.296315,19.410279,-38.430836,-0.109505,0.155540,0.000000,0.910932,0.177093,-0.000000
3.350000,1.498121,0.717900,-1.481295,1.886700,-1.007261,-0.530431,-1.310314,-0.840769,1.550507,-0.829176,8.443441,4.389346,-6.158102,17.241381,-39.141339,-0.100200,0.157332,0.000000,0.949493,0.179261,-0.000000
3.360000,1.516923,0.707787,-1.486521,1.873555,-1.015244,-0.514713,-1.318918,-0.755516,1.592448,-0.891522,8.603394,3.998344,-6.020078,15.028433,-39.682870,-0.090529,0.159143,0.000000,0.984096,0.181153,-0.000000
3.370000,1.535592,0.697598,-1.491588,1.860320,-1.022366,-0.498595,-1.328116,-0.668752,1.630405,-0.946837,8.746505,3.590196,-5.313252,13.308362,-41.296729,-0.080527,0.160965,0.000000,1.015835,0.181629,0.000000
3.380000,1.554129,0.687343,-1.496492,1.846990,-1.028614,-0.482118,-1.337861,-0.580674,1.664270,-1.003469,8.863594,3.186035,-6.015800,10.096008,-39.492881,-0.070228,0.162787,0.000000,1.043175,0.182056,-0.000000
3.390000,1.572531,0.677029,-1.501230,1.833561,-1.033976,-0.465323,-1.348192,-0.491572,1.694152,-1.061438,8.953990,2.788116,-5.292730,8.261883,-40.700588,-0.059680,0.164615,0.000000,1.065840,0.182484,-0.000000
3.400000,1.590799,0.666666,-1.505798,1.820025,-1.038443,-0.448249,-1.359059,-0.401650,1.719980,-1.111569,9.026402,2.377867,-5.005434,5.938683,-40.694749,-0.048922,0.166438,0.000000,1.084829,0.181434,-0.000000
3.410000,1.608932,0.656263,-1.510194,1.806378,-1.042007,-0.430937,-1.370402,-0.311119,1.741748,-1.156001,9.076022,1.976519,-4.584267,3.667550,-40.486206,-0.037998,0.168246,0.000000,1.099281,0.179573,-0.000000
3.420000,1.626927,0.645829,-1.514416,1.792615,-1.044664,-0.413427,-1.382222,-0.220231,1.759444,-1.209659,9.096847,1.559995,-5.453622,0.809099,-41.888575,-0.026955,0.170035,0.000000,1.108465,0.178208,-0.000000
3.430000,1.644783,0.635373,-1.518462,1.778732,-1.046412,-0.395762,-1.394548,-0.129243,1.773004,-1.250520,9.098762,1.158251,-2.691910,-0.412593,-38.409562,-0.015843,0.171805,0.000000,1.113362,0.175301,0.000000
3.440000,1.662501,0.624904,-1.522331,1.764723,-1.047249,-0.377980,-1.407180,-0.038314,1.782674,-1.277317,9.082427,0.773880,-3.357504,-3.161433,-39.359327,-0.004701,0.173536,0.000000,1.114108,0.170771,0.000000
3.450000,1.680078,0.614431,-1.526021,1.750587,-1.047179,-0.360121,-1.420132,0.052307,1.788431,-1.311691,9.038311,0.379268,-2.820239,-5.343858,-38.628939,0.006421,0.175224,0.000000,1.109566,0.166664,0.000000
3.460000,1.697512,0.603963,-1.529533,1.736320,-1.046205,-0.342224,-1.433366,0.142392,1.790318,-1.334004,8.975147,-0.000301,-2.239228,-7.478809,-37.778032,0.017477,0.176864,0.000000,1.100841,0.161161,0.000000
3.470000,1.714803,0.593510,-1.532866,1.721919,-1.044334,-0.324327,-1.446841,0.231724,1.788414,-1.361943,8.887090,-0.380625,-2.764394,-9.930645,-37.770263,0.028421,0.178450,0.000000,1.087275,0.156083,-0.000000
3.480000,1.731950,0.583079,-1.536020,1.707382,-1.041574,-0.306469,-1.460558,0.320074,1.782763,-1.377038,8.780782,-0.744887,-0.235201,-11.313893,-35.048583,0.039209,0.179981,0.000000,1.069849,0.149590,-0.000000
3.490000,1.748951,0.572681,-1.538995,1.692708,-1.037936,-0.288684,-1.474331,0.407283,1.773580,-1.378414,8.657154,-1.091322,-0.627701,-13.593480,-34.724346,0.049807,0.181439,0.000000,1.048885,0.141659,0.000000
3.500000,1.765804,0.562324,-1.541794,1.677895,-1.033433,-0.271008,-1.488153,0.493138,1.760937,-1.384615,8.510824,-1.434782,-0.027632,-15.465161,-33.450980,0.060173,0.182821,0.000000,1.023794,0.134225,0.000000
3.510000,1.782508,0.552015,-1.544416,1.662944,-1.028078,-0.253476,-1.502020,0.577456,1.744945,-1.388815,8.350013,-1.761210,0.392213,-17.205318,-32.089682,0.070273,0.184129,0.000000,0.995859,0.126809,-0.000000
3.520000,1.799062,0.541765,-1.546864,1.647855,-1.021889,-0.236120,-1.515817,0.660039,1.725738,-1.365710,8.162214,-2.078779,3.056150,-19.831075,-31.149612,0.080075,0.185350,0.000000,0.963754,0.116247,-0.000000
3.530000,1.815465,0.531580,-1.549139,1.632629,-1.014884,-0.218972,-1.529375,0.740670,1.703431,-1.352312,7.964372,-2.378464,-0.415317,-19.704613,-28.767371,0.089543,0.186467,0.000000,0.929768,0.107202,-0.000000
3.540000,1.831714,0.521470,-1.551244,1.617267,-1.007082,-0.202061,-1.542911,0.819303,1.678234,-1.350378,7.758201,-2.659192,1.981876,-22.024282,-27.631563,0.098666,0.187510,0.000000,0.894319,0.099912,0.000000
3.550000,1.847810,0.511441,-1.553181,1.601771,-0.998505,-0.185416,-1.556277,0.895747,1.650280,-1.322749,7.528600,-2.928654,2.363393,-23.366676,-25.989007,0.107418,0.188463,0.000000,0.855804,0.089844,-0.000000
3.560000,1.863749,0.501502,-1.554953,1.586143,-0.989175,-0.169064,-1.569376,0.969868,1.619731,-1.296352,7.294239,-3.178194,2.818868,-24.515145,-24.272626,0.115781,0.189320,0.000000,0.816704,0.080410,-0.000000
3.570000,1.879532,0.491660,-1.556563,1.570385,-0.979116,-0.153030,-1.582197,1.041512,1.586745,-1.267289,7.029217,-3.417293,3.084219,-27.472283,-23.190391,0.123738,0.190082,0.000000,0.774032,0.070960,-0.000000
3.580000,1.895157,0.481922,-1.558015,1.554500,-0.968354,-0.137337,-1.594703,1.110466,1.551460,-1.232764,6.766127,-3.634533,3.821618,-25.095232,-20.242196,0.131265,0.190750,0.000000,0.731987,0.061446,-0.000000
3.590000,1.910622,0.472295,-1.559311,1.538492,-0.956915,-0.122008,-1.606833,1.176857,1.514133,-1.192772,6.507508,-3.829156,4.081050,-27.616914,-19.033265,0.138382,0.191322,0.000000,0.691013,0.051909,0.000000
3.600000,1.925926,0.462786,-1.560456,1.522365,-0.944826,-0.107061,-1.618552,1.240512,1.474910,-1.150397,6.222728,-4.012156,4.485269,-28.316017,-17.212189,0.145075,0.191798,0.000000,0.647514,0.042476,-0.000000
3.610000,1.941069,0.453401,-1.561454,1.506122,-0.932114,-0.092515,-1.629818,1.301326,1.433949,-1.101836,5.939529,-4.177324,4.904632,-28.900309,-15.451664,0.151337,0.192179,0.000000,0.604942,0.032865,0.000000
3.620000,1.956048,0.444146,-1.562308,1.489770,-0.918809,-0.078387,-1.640601,1.359236,1.391452,-1.055301,5.639616,-4.317804,4.709779,-30.486703,-13.005011,0.157169,0.192467,0.000000,0.561398,0.024171,0.000000
3.630000,1.970864,0.435027,-1.563023,1.473312,-0.904940,-0.064690,-1.650896,1.414132,1.347634,-1.001185,5.342278,-4.445009,6.119767,-28.945044,-12.450271,0.162569,0.192667,0.000000,0.519015,0.015056,0.000000
3.640000,1.985514,0.426049,-1.563603,1.456754,-0.890536,-0.051438,-1.660597,1.466101,1.302591,-0.939252,5.049382,-4.559617,5.950061,-30.199915,-10.113093,0.167554,0.192770,0.000000,0.478022,0.005498,0.000000
3.650000,1.999998,0.417217,-1.564053,1.440102,-0.875628,-0.038642,-1.669694,1.515066,1.256528,-0.879600,4.743568,-4.650447,6.288593,-30.365228,-8.419652,0.172127,0.192782,0.000000,0.436695,-0.003129,-0.000000
3.660000,2.014316,0.408538,-1.564378,1.423362,-0.860245,-0.026311,-1.678182,1.560989,1.209617,-0.817751,4.441150,-4.729328,6.531537,-30.433562,-6.801745,0.176293,0.192707,0.000000,0.396691,-0.011587,-0.000000
3.670000,2.028465,0.400014,-1.564581,1.406541,-0.844418,-0.014452,-1.686005,1.603861,1.162040,-0.744880,4.132163,-4.781457,7.597745,-31.027842,-4.176161,0.180062,0.192545,0.000000,0.357246,-0.020529,-0.000000
3.680000,2.042446,0.391651,-1.564668,1.389644,-0.828178,-0.003071,-1.693093,1.643650,1.114014,-0.675132,3.827627,-4.824443,6.333918,-29.854959,-4.446245,0.183443,0.192293,0.000000,0.319189,-0.028779,-0.000000
3.690000,2.056258,0.383452,-1.564644,1.372681,-0.811555,0.007827,-1.699524,1.680436,1.065573,-0.609377,3.528846,-4.859538,7.257387,-30.211874,-2.031932,0.186451,0.191962,0.000000,0.282604,-0.036287,-0.000000
3.700000,2.069900,0.375421,-1.564513,1.355656,-0.794579,0.018239,-1.705241,1.714209,1.016915,-0.533846,3.226402,-4.869940,7.401289,-29.941334,-0.606338,0.189097,0.191552,0.000000,0.246847,-0.044199,0.000000
3.710000,2.083371,0.367561,-1.564281,1.338579,-0.777281,0.028165,-1.710208,1.744981,0.968197,-0.459416,2.928629,-4.871642,7.541645,-29.616814,0.740138,0.191393,0.191064,0.000000,0.212435,-0.051682,-0.000000
3.720000,2.096671,0.359876,-1.563952,1.321455,-0.759690,0.037604,-1.714420,1.772792,0.919566,-0.382535,2.634150,-4.850889,7.771304,-29.253340,2.929429,0.193351,0.190500,0.000000,0.179481,-0.058844,0.000000
3.730000,2.109800,0.352368,-1.563531,1.304293,-0.741835,0.046557,-1.717858,1.797679,0.871199,-0.305311,2.344086,-4.823147,7.667582,-28.748913,2.593205,0.194986,0.189865,0.000000,0.147744,-0.065792,-0.000000
3.740000,2.122757,0.345040,-1.563022,1.287100,-0.723746,0.055029,-1.720526,1.819691,0.823118,-0.228066,2.059061,-4.789739,7.837229,-28.261864,4.551470,0.196310,0.189160,0.000000,0.117219,-0.072528,-0.000000
3.750000,2.135542,0.337894,-1.562432,1.269885,-0.705451,0.063021,-1.722413,1.838877,0.775479,-0.149159,1.779153,-4.736385,7.881795,-27.696494,5.634496,0.197336,0.188387,0.000000,0.088170,-0.078949,-0.000000
3.760000,2.148155,0.330932,-1.561763,1.252655,-0.686977,0.070540,-1.723512,1.855292,0.728404,-0.070766,1.504798,-4.677242,7.896311,-27.092558,6.626825,0.198077,0.187550,0.000000,0.060300,-0.085125,0.000000
3.770000,2.160595,0.324155,-1.561022,1.235417,-0.668354,0.077591,-1.723819,1.869000,0.682002,0.009644,1.238128,-4.599997,8.081892,-26.306813,8.378560,0.198548,0.186651,0.000000,0.034044,-0.091087,0.000000
3.780000,2.172863,0.317565,-1.560213,1.218181,-0.649606,0.084183,-1.723324,1.880073,0.636413,0.088699,0.977277,-4.518973,7.722650,-25.859509,7.800672,0.198761,0.185693,0.000000,0.008855,-0.096781,-0.000000
3.790000,2.184959,0.311163,-1.559340,1.200953,-0.630761,0.090322,-1.722052,1.888565,0.591628,0.166056,0.722507,-4.435494,7.846624,-25.016592,9.318842,0.198728,0.184678,0.000000,-0.015311,-0.102207,-0.000000
3.800000,2.196882,0.304950,-1.558408,1.183742,-0.611843,0.096018,-1.719997,1.894554,0.547763,0.244708,0.476425,-4.336541,7.780016,-24.267841,10.025973,0.198461,0.183608,0.000000,-0.037957,-0.107434,0.000000
3.810000,2.208633,0.298927,-1.557421,1.166556,-0.592878,0.101281,-1.717163,1.898113,0.504903,0.322053,0.236554,-4.234588,7.700417,-23.510974,10.656109,0.197972,0.182487,0.000000,-0.059644,-0.112446,0.000000
3.820000,2.220213,0.293093,-1.556384,1.149402,-0.573889,0.106120,-1.713558,1.899326,0.463115,0.398792,0.008038,-4.120860,7.630688,-22.375045,11.783534,0.197274,0.181316,0.000000,-0.079712,-0.117159,-0.000000
3.830000,2.231622,0.287449,-1.555300,1.132287,-0.554899,0.110547,-1.709191,1.898291,0.422489,0.474323,-0.214793,-4.005327,7.472518,-22.194461,11.302734,0.196380,0.180098,0.000000,-0.098981,-0.121711,0.000000
3.840000,2.242859,0.281995,-1.554174,1.115220,-0.535930,0.114574,-1.704076,1.895047,0.383009,0.548473,-0.432045,-3.889073,7.369169,-21.066345,12.234200,0.195296,0.178834,0.000000,-0.117513,-0.126111,0.000000
3.850000,2.253926,0.276730,-1.553010,1.098208,-0.517005,0.118211,-1.698225,1.889692,0.344744,0.621547,-0.637681,-3.763382,7.228868,-20.246502,12.596934,0.194035,0.177528,0.000000,-0.134567,-0.130239,0.000000
3.860000,2.264824,0.271654,-1.551811,1.081258,-0.498143,0.121473,-1.691648,1.882312,0.307743,0.693592,-0.837164,-3.636541,7.086595,-19.432124,12.900239,0.192607,0.176180,0.000000,-0.150886,-0.134259,0.000000
3.870000,2.275552,0.266767,-1.550582,1.064378,-0.479365,0.124371,-1.684365,1.872994,0.272034,0.762399,-1.024312,-3.504298,6.761552,-18.207762,13.403386,0.191022,0.174794,0.000000,-0.165809,-0.137881,-0.000000
3.880000,2.286111,0.262067,-1.549325,1.047573,-0.460689,0.126918,-1.676402,1.861843,0.237658,0.830646,-1.205740,-3.371505,6.888827,-18.084390,13.141473,0.189293,0.173372,0.000000,-0.180108,-0.141468,-0.000000
3.890000,2.296503,0.257553,-1.548045,1.030852,-0.442134,0.129128,-1.667754,1.848896,0.204602,0.898347,-1.381740,-3.238921,6.560060,-16.903385,13.502681,0.187422,0.171913,0.000000,-0.193846,-0.145036,0.000000
3.900000,2.306729,0.253224,-1.546744,1.014220,-0.423717,0.131014,-1.658448,1.834252,0.172893,0.962574,-1.545626,-3.102788,6.372916,-16.086656,13.579066,0.185420,0.170421,0.000000,-0.206324,-0.148237,-0.000000
3.910000,2.316788,0.249078,-1.545425,0.997685,-0.405455,0.132590,-1.648509,1.818001,0.142542,1.024663,-1.703432,-2.967421,6.157450,-15.283347,13.601504,0.183297,0.168897,0.000000,-0.218234,-0.151281,0.000000
3.920000,2.326683,0.245114,-1.544093,0.981252,-0.387362,0.133870,-1.637953,1.800226,0.113554,1.086729,-1.849547,-2.829841,6.144840,-14.127673,13.793670,0.181060,0.167343,0.000000,-0.228981,-0.154332,-0.000000
3.930000,2.336414,0.241330,-1.542749,0.964928,-0.369455,0.134866,-1.626788,1.781028,0.085939,1.145235,-1.989936,-2.694071,5.551614,-13.957451,13.349642,0.178719,0.165760,0.000000,-0.239251,-0.157111,-0.000000
3.940000,2.345982,0.237724,-1.541396,0.948718,-0.351746,0.135593,-1.615061,1.760444,0.059664,1.199957,-2.124954,-2.560700,5.502579,-12.859617,13.432046,0.176276,0.164151,0.000000,-0.249100,-0.159610,0.000000
3.950000,2.355388,0.234294,-1.540038,0.932629,-0.334250,0.136064,-1.602788,1.738569,0.034729,1.254328,-2.248768,-2.426525,5.260711,-12.093086,13.282659,0.173741,0.162517,0.000000,-0.257901,-0.162114,-0.000000
3.960000,2.364635,0.231038,-1.538676,0.916664,-0.316979,0.136292,-1.589985,1.715486,0.011126,1.305771,-2.366649,-2.294405,5.022614,-11.343237,13.108057,0.171120,0.160860,0.000000,-0.266238,-0.164421,-0.000000
3.970000,2.373722,0.227954,-1.537313,0.900831,-0.299944,0.136291,-1.576681,1.691273,-0.011167,1.354727,-2.474371,-2.164727,4.772863,-10.341441,12.849245,0.168419,0.159181,0.000000,-0.273709,-0.166579,-0.000000
3.980000,2.382652,0.225039,-1.535951,0.885132,-0.283157,0.136073,-1.562899,1.666017,-0.032175,1.401321,-2.576422,-2.036953,4.545997,-10.075545,12.701593,0.165647,0.157481,0.000000,-0.280749,-0.168594,-0.000000
3.990000,2.391425,0.222290,-1.534592,0.869574,-0.266627,0.135652,-1.548662,1.639761,-0.051913,1.445552,-2.673143,-1.911327,4.295516,-9.132038,12.392306,0.162805,0.155763,0.000000,-0.287400,-0.170469,-0.000000
4.000000,2.400044,0.219705,-1.533238,0.854161,-0.250365,0.135039,-1.533996,1.612588,-0.070412,1.487266,-2.760298,-1.788954,4.053103,-8.440489,12.105549,0.159902,0.154027,0.000000,-0.293269,-0.172208,0.000000
4.010000,2.408509,0.217282,-1.531892,0.838896,-0.234378,0.134247,-1.518921,1.584573,-0.087699,1.527378,-2.841770,-1.668787,3.828198,-7.766475,11.808947,0.156941,0.152274,0.000000,-0.298717,-0.173881,0.000000
4.020000,2.416822,0.215017,-1.530554,0.823783,-0.218676,0.133289,-1.503467,1.555782,-0.103808,1.562536,-2.914854,-1.553899,3.341138,-6.940578,11.277880,0.153929,0.150507,0.000000,-0.303536,-0.175208,0.000000
4.030000,2.424985,0.212907,-1.529227,0.808827,-0.203265,0.132175,-1.487672,1.526293,-0.118782,1.597092,-2.982475,-1.440927,3.574995,-6.589354,11.317526,0.150872,0.148728,0.000000,-0.307948,-0.176562,0.000000
4.040000,2.432999,0.210950,-1.527911,0.794031,-0.188152,0.130917,-1.471526,1.496149,-0.132632,1.631269,-3.044928,-1.329863,3.122401,-5.815722,10.780101,0.147772,0.146935,0.000000,-0.311983,-0.177962,-0.000000
4.050000,2.440866,0.209143,-1.526609,0.779398,-0.173344,0.129526,-1.455064,1.465422,-0.145400,1.660731,-3.099598,-1.224405,2.908512,-5.209226,10.423018,0.144634,0.145131,0.000000,-0.315445,-0.179039,0.000000
4.060000,2.448588,0.207483,-1.525321,0.764931,-0.158846,0.128012,-1.438314,1.434174,-0.157127,1.688893,-3.149121,-1.121545,2.693123,-4.622934,10.059389,0.141464,0.143316,0.000000,-0.318538,-0.180079,0.000000
4.070000,2.456165,0.205965,-1.524049,0.750633,-0.144662,0.126387,-1.421296,1.402465,-0.167851,1.714319,-3.191421,-1.024051,2.423301,-3.913092,9.523785,0.138265,0.141493,0.000000,-0.321096,-0.180981,-0.000000
4.080000,2.463601,0.204588,-1.522794,0.736506,-0.130798,0.124659,-1.404034,1.370361,-0.177617,1.738012,-3.228975,-0.929293,2.316964,-3.602997,9.429766,0.135043,0.139662,0.000000,-0.323319,-0.181800,0.000000
4.090000,2.470896,0.203348,-1.521556,0.722553,-0.117256,0.122838,-1.386541,1.337900,-0.186445,1.760059,-3.262058,-0.837197,2.062551,-2.942508,8.902666,0.131800,0.137824,0.000000,-0.325228,-0.182545,-0.000000
4.100000,2.478053,0.202242,-1.520337,0.708776,-0.104041,0.120933,-1.368842,1.305143,-0.194380,1.779540,-3.288509,-0.750514,1.865138,-2.424005,8.519687,0.128540,0.135980,0.000000,-0.326646,-0.183159,0.000000
4.110000,2.485072,0.201266,-1.519138,0.695176,-0.091154,0.118953,-1.350956,1.272145,-0.201463,1.797248,-3.310102,-0.666646,1.671128,-1.915514,8.144575,0.125268,0.134131,0.000000,-0.327704,-0.183683,-0.000000
4.120000,2.491957,0.200418,-1.517958,0.681757,-0.078598,0.116906,-1.332904,1.238956,-0.207734,1.812909,-3.327043,-0.588597,1.469037,-1.457559,7.569611,0.121987,0.132277,0.000000,-0.328455,-0.184125,0.000000
4.130000,2.498708,0.199693,-1.516800,0.668519,-0.066375,0.114801,-1.314704,1.205622,-0.213243,1.826797,-3.338936,-0.513062,1.309629,-0.923308,7.541108,0.118700,0.130421,0.000000,-0.328812,-0.184467,0.000000
4.140000,2.505328,0.199089,-1.515662,0.655463,-0.054486,0.112644,-1.296373,1.172194,-0.218003,1.838977,-3.345921,-0.439864,1.120287,-0.494340,6.994322,0.115412,0.128562,0.000000,-0.328784,-0.184710,0.000000
4.150000,2.511818,0.198602,-1.514547,0.642592,-0.042932,0.110443,-1.277931,1.138717,-0.222061,1.849278,-3.348725,-0.372268,0.948586,-0.051234,6.630640,0.112126,0.126702,0.000000,-0.328472,-0.184877,-0.000000
4.160000,2.518180,0.198229,-1.513454,0.629905,-0.031712,0.108205,-1.259393,1.105234,-0.225456,1.857940,-3.347095,-0.307275,0.782897,0.374619,6.276870,0.108844,0.124842,0.000000,-0.327811,-0.184949,0.000000
4.170000,2.524417,0.197967,-1.512383,0.617404,-0.020827,0.105936,-1.240777,1.071789,-0.228225,1.864940,-3.341286,-0.247555,0.620011,0.784443,5.757868,0.105570,0.122981,0.000000,-0.326849,-0.184955,-0.000000
4.180000,2.530529,0.197812,-1.511335,0.605090,-0.010276,0.103642,-1.222099,1.038422,-0.230414,1.870398,-3.331459,-0.190211,0.472816,1.178338,5.715105,0.102308,0.121122,0.000000,-0.325565,-0.184868,-0.000000
4.190000,2.536519,0.197760,-1.510310,0.592962,-0.000058,0.101329,-1.203374,1.005172,-0.232036,1.874382,-3.317772,-0.135034,0.323235,1.556378,5.231511,0.099060,0.119265,0.000000,-0.323967,-0.184690,-0.000000
4.200000,2.542389,0.197810,-1.509308,0.581022,0.009828,0.099003,-1.184617,0.972079,-0.233133,1.876903,-3.300383,-0.084780,0.183690,1.918683,4.910850,0.095830,0.117410,0.000000,-0.322093,-0.184452,-0.000000
4.210000,2.548140,0.197956,-1.508330,0.569270,0.019384,0.096668,-1.165839,0.939176,-0.233738,1.878398,-3.279645,-0.036725,0.057366,2.261478,4.605338,0.092619,0.115559,0.000000,-0.319944,-0.184162,-0.000000
4.220000,2.553775,0.198196,-1.507375,0.557706,0.028612,0.094330,-1.147058,0.906500,-0.233885,1.877531,-3.254883,0.006473,-0.172470,2.654294,4.129871,0.089432,0.113712,0.000000,-0.317474,-0.183716,-0.000000
4.230000,2.559295,0.198527,-1.506443,0.546329,0.037515,0.091992,-1.128290,0.874087,-0.233614,1.876174,-3.227322,0.047877,-0.095865,2.854357,4.155672,0.086270,0.111870,0.000000,-0.314768,-0.183262,0.000000
4.240000,2.564702,0.198945,-1.505535,0.535140,0.046095,0.089659,-1.109535,0.841962,-0.232932,1.874476,-3.197159,0.087728,-0.300501,3.210145,3.721768,0.083137,0.110033,0.000000,-0.311842,-0.182809,-0.000000
4.250000,2.569998,0.199448,-1.504650,0.524138,0.054355,0.087335,-1.090808,0.810156,-0.231875,1.870679,-3.163459,0.123156,-0.400369,3.493205,3.459979,0.080035,0.108202,0.000000,-0.308623,-0.182214,0.000000
4.260000,2.575185,0.200031,-1.503789,0.513323,0.062299,0.085023,-1.072123,0.778702,-0.230474,1.866176,-3.127011,0.156799,-0.497817,3.767129,3.210407,0.076966,0.106377,0.000000,-0.305161,-0.181582,0.000000
4.270000,2.580265,0.200693,-1.502950,0.502695,0.069931,0.082726,-1.053488,0.747623,-0.228752,1.860757,-3.088412,0.186851,-0.586365,3.976443,2.860249,0.073932,0.104559,0.000000,-0.301526,-0.180911,0.000000
4.280000,2.585240,0.201429,-1.502134,0.492253,0.077253,0.080449,-1.034911,0.716943,-0.226742,1.854439,-3.046979,0.215266,-0.676162,4.308802,2.826621,0.070936,0.102749,0.000000,-0.297631,-0.180179,-0.000000
4.290000,2.590111,0.202237,-1.501341,0.481997,0.084271,0.078192,-1.016402,0.686693,-0.224451,1.847281,-3.002812,0.242244,-0.753152,4.495679,2.511934,0.067980,0.100947,0.000000,-0.293483,-0.179389,0.000000
4.300000,2.594880,0.203113,-1.500570,0.471925,0.090989,0.075960,-0.997968,0.656892,-0.221909,1.839390,-2.956885,0.266040,-0.826140,4.713729,2.308321,0.065067,0.099153,0.000000,-0.289185,-0.178566,0.000000
4.310000,2.599550,0.204056,-1.499821,0.462037,0.097410,0.073755,-0.979616,0.627562,-0.219135,1.830985,-2.908724,0.288387,-0.889684,4.916441,2.117592,0.062197,0.097368,0.000000,-0.284676,-0.177715,-0.000000
4.320000,2.604122,0.205061,-1.499095,0.452333,0.103541,0.071578,-0.961353,0.598724,-0.216151,1.821287,-2.858600,0.308013,-1.014427,5.106080,1.853421,0.059374,0.095592,0.000000,-0.279988,-0.176768,0.000000
4.330000,2.608597,0.206126,-1.498390,0.442810,0.109387,0.069433,-0.943190,0.570397,-0.212978,1.811439,-2.806652,0.326415,-0.953116,5.281281,1.830160,0.056598,0.093826,0.000000,-0.275123,-0.175823,-0.000000
4.340000,2.612979,0.207247,-1.497706,0.433468,0.114951,0.067320,-0.925124,0.542597,-0.209626,1.801541,-2.753014,0.343763,-1.060757,5.444328,1.596973,0.053872,0.092070,0.000000,-0.270091,-0.174886,-0.000000
4.350000,2.617267,0.208424,-1.497043,0.424307,0.120240,0.065241,-0.907164,0.515342,-0.206112,1.790539,-2.697811,0.358758,-1.104457,5.593937,1.448814,0.051197,0.090324,0.000000,-0.264910,-0.173866,0.000000
4.360000,2.621465,0.209651,-1.496401,0.415325,0.125260,0.063198,-0.889314,0.488645,-0.202453,1.779394,-2.641220,0.372714,-1.144065,5.729775,1.311790,0.048574,0.088588,0.000000,-0.259589,-0.172842,0.000000
4.370000,2.625574,0.210928,-1.495779,0.406520,0.130015,0.061192,-0.871579,0.462522,-0.198665,1.767484,-2.583186,0.384730,-1.217737,5.867320,1.124164,0.046005,0.086863,0.000000,-0.254124,-0.171762,-0.000000
4.380000,2.629596,0.212251,-1.495177,0.397893,0.134512,0.059225,-0.853964,0.436985,-0.194761,1.755463,-2.524073,0.395885,-1.185234,5.952986,1.109337,0.043492,0.085149,0.000000,-0.248546,-0.170679,0.000000
4.390000,2.633533,0.213617,-1.494595,0.389441,0.138757,0.057297,-0.836469,0.412044,-0.190749,1.743391,-2.464016,0.406314,-1.248454,6.063979,0.946340,0.041035,0.083446,0.000000,-0.242865,-0.169598,-0.000000
4.400000,2.637386,0.215025,-1.494031,0.381163,0.142755,0.055410,-0.819099,0.387708,-0.186641,1.730670,-2.402900,0.415101,-1.275538,6.149825,0.844601,0.038635,0.081755,0.000000,-0.237075,-0.168465,0.000000
4.410000,2.641157,0.216472,-1.493486,0.373058,0.146513,0.053565,-0.801857,0.363988,-0.182450,1.717549,-2.341064,0.423053,-1.306331,6.223242,0.748794,0.036294,0.080075,0.000000,-0.231203,-0.167299,0.000000
4.420000,2.644847,0.217955,-1.492960,0.365125,0.150037,0.051761,-0.784745,0.340890,-0.178183,1.704936,-2.278401,0.430116,-1.256685,6.299746,0.663367,0.034011,0.078406,0.000000,-0.225238,-0.166189,0.000000
4.430000,2.648460,0.219472,-1.492451,0.357363,0.153333,0.050001,-0.767762,0.318421,-0.173850,1.691566,-2.215271,0.436310,-1.418470,6.324079,0.576544,0.031789,0.076749,0.000000,-0.219217,-0.165010,0.000000
4.440000,2.651995,0.221021,-1.491959,0.349770,0.156407,0.048285,-0.750917,0.296586,-0.169460,1.677397,-2.151800,0.441700,-1.373959,6.375928,0.503942,0.029627,0.075105,0.000000,-0.213151,-0.163755,0.000000
4.450000,2.655456,0.222599,-1.491485,0.342344,0.159267,0.046612,-0.734211,0.275387,-0.165018,1.663738,-2.087856,0.446402,-1.398177,6.403318,0.435202,0.027526,0.073473,0.000000,-0.207025,-0.162554,0.000000
4.460000,2.658843,0.224205,-1.491027,0.335085,0.161917,0.044984,-0.717644,0.254829,-0.160534,1.649691,-2.023787,0.450415,-1.417711,6.419099,0.371455,0.025487,0.071853,0.000000,-0.200875,-0.161317,-0.000000
4.470000,2.662158,0.225837,-1.490585,0.327991,0.164365,0.043402,-0.701219,0.234913,-0.156012,1.635324,-1.959415,0.453880,-1.449066,6.443472,0.319107,0.023509,0.070245,0.000000,-0.194681,-0.160049,0.000000
4.480000,2.665403,0.227492,-1.490159,0.321060,0.166618,0.041864,-0.684938,0.215640,-0.151458,1.620851,-1.895162,0.456744,-1.445087,6.405027,0.254490,0.021593,0.068651,0.000000,-0.188487,-0.158772,0.000000
4.490000,2.668580,0.229168,-1.489748,0.314292,0.168680,0.040373,-0.668802,0.197009,-0.146879,1.606290,-1.831146,0.459049,-1.473858,6.406729,0.210493,0.019739,0.067069,0.000000,-0.182304,-0.157486,0.000000
4.500000,2.671689,0.230865,-1.489351,0.307684,0.170560,0.038927,-0.652813,0.179017,-0.142279,1.591431,-1.767146,0.460939,-1.491114,6.381396,0.164755,0.017947,0.065500,0.000000,-0.176109,-0.156171,-0.000000
4.510000,2.674734,0.232579,-1.488969,0.301235,0.172263,0.037527,-0.636973,0.161664,-0.137662,1.576544,-1.703557,0.462374,-1.506522,6.345896,0.122701,0.016217,0.063945,0.000000,-0.169943,-0.154852,0.000000
4.520000,2.677715,0.234310,-1.488601,0.294944,0.173795,0.036174,-0.621284,0.144946,-0.133032,1.561113,-1.640159,0.463401,-1.560107,6.321579,0.083302,0.014548,0.062403,0.000000,-0.163782,-0.153478,0.000000
4.530000,2.680633,0.236054,-1.488245,0.288809,0.175164,0.034866,-0.605750,0.128859,-0.128395,1.545753,-1.577378,0.464053,-1.511418,6.232742,0.047434,0.012941,0.060875,0.000000,-0.157671,-0.152110,-0.000000
4.540000,2.683491,0.237812,-1.487903,0.282828,0.176375,0.033606,-0.590369,0.113396,-0.123753,1.530485,-1.515318,0.464353,-1.562304,6.188641,0.012771,0.011395,0.059361,0.000000,-0.151619,-0.150749,0.000000
4.550000,2.686290,0.239581,-1.487573,0.277001,0.177434,0.032391,-0.575143,0.098551,-0.119109,1.514663,-1.453724,0.464316,-1.581504,6.118061,-0.019805,0.009909,0.057860,0.000000,-0.145602,-0.149331,-0.000000
4.560000,2.689032,0.241360,-1.487255,0.271325,0.178348,0.031223,-0.560076,0.084318,-0.114468,1.498627,-1.392971,0.463820,-1.605501,6.039321,-0.053894,0.008482,0.056374,0.000000,-0.139657,-0.147889,-0.000000
4.570000,2.691717,0.243148,-1.486949,0.265799,0.179122,0.030102,-0.545170,0.070690,-0.109832,1.482736,-1.332889,0.463473,-1.592973,5.968050,-0.039852,0.007115,0.054902,0.000000,-0.133767,-0.146458,0.000000
4.580000,2.694348,0.244942,-1.486653,0.260421,0.179764,0.029027,-0.530423,0.057657,-0.105201,1.466341,-1.273798,0.462512,-1.686922,5.848685,-0.153098,0.005807,0.053445,0.000000,-0.127966,-0.144975,0.000000
4.590000,2.696926,0.246743,-1.486368,0.255190,0.180277,0.027998,-0.515845,0.045210,-0.100584,1.449393,-1.215780,0.460908,-1.683084,5.761721,-0.142970,0.004556,0.052003,0.000000,-0.122261,-0.143436,0.000000
4.600000,2.699453,0.248548,-1.486093,0.250103,0.180670,0.027015,-0.501435,0.033339,-0.095982,1.432501,-1.158652,0.459440,-1.715905,5.654949,-0.174861,0.003361,0.050576,0.000000,-0.116634,-0.141898,-0.000000
4.610000,2.701929,0.250356,-1.485827,0.245160,0.180946,0.026078,-0.487197,0.022033,-0.091397,1.415117,-1.102698,0.457484,-1.751394,5.541798,-0.206360,0.002223,0.049165,0.000000,-0.111115,-0.140307,-0.000000
4.620000,2.704356,0.252166,-1.485571,0.240359,0.181112,0.025187,-0.473133,0.011281,-0.086832,1.397555,-1.047770,0.455405,-1.771175,5.436036,-0.219257,0.001139,0.047770,0.000000,-0.105688,-0.138695,0.000000
4.630000,2.706736,0.253978,-1.485323,0.235697,0.181173,0.024342,-0.459247,0.001073,-0.082290,1.379479,-0.994137,0.452889,-1.844896,5.289517,-0.284454,0.000108,0.046391,0.000000,-0.100382,-0.137029,0.000000
4.640000,2.709071,0.255789,-1.485084,0.231173,0.181135,0.023541,-0.445545,-0.008606,-0.077776,1.360842,-0.941859,0.449913,-1.873293,5.172228,-0.300880,-0.000869,0.045030,0.000000,-0.095203,-0.135304,-0.000000
4.650000,2.711360,0.257600,-1.484853,0.226786,0.181003,0.022786,-0.432031,-0.017768,-0.073292,1.341920,-0.890766,0.446779,-1.921596,5.038825,-0.335641,-0.001796,0.043685,0.000000,-0.090134,-0.133545,0.000000
4.660000,2.713607,0.259409,-1.484628,0.222532,0.180782,0.022075,-0.418709,-0.026426,-0.068842,1.322383,-0.841083,0.443183,-1.974412,4.901388,-0.372285,-0.002673,0.042359,0.000000,-0.085198,-0.131722,0.000000
4.670000,2.715811,0.261215,-1.484411,0.218411,0.180476,0.021409,-0.405584,-0.034594,-0.064429,1.302531,-0.792713,0.439436,-2.008270,4.768107,-0.388633,-0.003500,0.041051,0.000000,-0.080385,-0.129862,-0.000000
4.680000,2.717975,0.263018,-1.484200,0.214420,0.180091,0.020787,-0.392661,-0.042285,-0.060055,1.281956,-0.745816,0.435166,-2.107738,4.610567,-0.466084,-0.004281,0.039762,0.000000,-0.075713,-0.127926,-0.000000
4.690000,2.720100,0.264817,-1.483995,0.210557,0.179632,0.020208,-0.379948,-0.049515,-0.055728,1.260602,-0.700429,0.430338,-2.151827,4.470517,-0.488376,-0.005015,0.038493,0.000000,-0.071185,-0.125908,0.000000
4.700000,2.722187,0.266611,-1.483796,0.206820,0.179103,0.019672,-0.367450,-0.056298,-0.051449,1.238800,-0.656448,0.425291,-2.220644,4.321278,-0.532464,-0.005705,0.037244,0.000000,-0.066791,-0.123840,0.000000
4.710000,2.724237,0.268399,-1.483601,0.203207,0.178508,0.019179,-0.355175,-0.062649,-0.047224,1.216126,-0.613996,0.419582,-2.294904,4.170251,-0.581103,-0.006351,0.036016,0.000000,-0.062544,-0.121680,0.000000
4.720000,2.726252,0.270181,-1.483412,0.199716,0.177851,0.018727,-0.343129,-0.068583,-0.043057,1.193072,-0.573034,0.413924,-2.335962,4.020458,-0.578708,-0.006956,0.034811,0.000000,-0.058441,-0.119476,0.000000
4.730000,2.728232,0.271956,-1.483227,0.196344,0.177137,0.018317,-0.331317,-0.074115,-0.038949,1.168984,-0.533619,0.407418,-2.482909,3.862421,-0.723631,-0.007521,0.033627,0.000000,-0.054487,-0.117164,0.000000
4.740000,2.730179,0.273723,-1.483045,0.193089,0.176370,0.017948,-0.319753,-0.079261,-0.034912,1.143793,-0.495760,0.400003,-2.536427,3.710809,-0.731927,-0.008047,0.032468,0.000000,-0.050684,-0.114737,0.000000
4.750000,2.732094,0.275483,-1.482868,0.189948,0.175553,0.017619,-0.308443,-0.084035,-0.030948,1.118072,-0.459416,0.392540,-2.627690,3.556635,-0.789596,-0.008535,0.031333,0.000000,-0.047028,-0.112250,-0.000000
4.760000,2.733978,0.277234,-1.482693,0.186919,0.174690,0.017329,-0.297395,-0.088454,-0.027064,1.091225,-0.424608,0.384303,-2.723880,3.403134,-0.849187,-0.008988,0.030223,0.000000,-0.043522,-0.109644,-0.000000
4.770000,2.735833,0.278977,-1.482521,0.183999,0.173785,0.017077,-0.286620,-0.092533,-0.023264,1.063752,-0.391370,0.375632,-2.789445,3.246585,-0.894190,-0.009406,0.029140,0.000000,-0.040169,-0.106970,-0.000000
4.780000,2.737658,0.280710,-1.482351,0.181186,0.172841,0.016863,-0.276125,-0.096287,-0.019553,1.035043,-0.359630,0.366226,-2.953545,3.101533,-0.987674,-0.009791,0.028084,0.000000,-0.036962,-0.104165,0.000000
4.790000,2.739457,0.282433,-1.482184,0.178476,0.171861,0.016686,-0.265924,-0.099730,-0.015942,1.005033,-0.329374,0.356049,-3.030975,2.948175,-1.039127,-0.010146,0.027057,0.000000,-0.033900,-0.101224,0.000000
4.800000,2.741228,0.284147,-1.482017,0.175866,0.170847,0.016544,-0.256026,-0.102879,-0.012434,0.974255,-0.300643,0.345361,-3.143372,2.800214,-1.107813,-0.010470,0.026060,0.000000,-0.030989,-0.098198,0.000000
4.810000,2.742974,0.285850,-1.481853,0.173354,0.169804,0.016437,-0.246443,-0.105748,-0.009038,0.942106,-0.273327,0.333636,-3.260833,2.655517,-1.184823,-0.010766,0.025093,0.000000,-0.028216,-0.095029,-0.000000
4.820000,2.744696,0.287543,-1.481689,0.170936,0.168733,0.016363,-0.237186,-0.108351,-0.005760,0.909275,-0.247596,0.322121,-3.332047,2.498944,-1.167861,-0.011035,0.024159,0.000000,-0.025600,-0.091782,-0.000000
4.830000,2.746393,0.289225,-1.481525,0.168609,0.167638,0.016321,-0.228263,-0.110704,-0.002601,0.874908,-0.223177,0.309232,-3.542645,2.385530,-1.411788,-0.011278,0.023258,0.000000,-0.023113,-0.088375,-0.000000
4.840000,2.748068,0.290895,-1.481362,0.166370,0.166520,0.016310,-0.219693,-0.112819,0.000420,0.838937,-0.200027,0.294883,-3.625821,2.237433,-1.408312,-0.011497,0.022392,0.000000,-0.020751,-0.084801,-0.000000
4.850000,2.749721,0.292555,-1.481199,0.164214,0.165382,0.016329,-0.211487,-0.114710,0.003298,0.802165,-0.178350,0.280635,-3.755954,2.106388,-1.491001,-0.011694,0.021562,0.000000,-0.018535,-0.081137,0.000000
4.860000,2.751353,0.294203,-1.481035,0.162139,0.164226,0.016376,-0.203655,-0.116390,0.006028,0.763951,-0.157926,0.265324,-3.887267,1.979276,-1.571306,-0.011869,0.020770,0.000000,-0.016443,-0.077322,0.000000
4.870000,2.752964,0.295839,-1.480871,0.160140,0.163055,0.016449,-0.196212,-0.117872,0.008602,0.724411,-0.138749,0.249207,-4.020931,1.856954,-1.652196,-0.012023,0.020016,0.000000,-0.014474,-0.073365,0.000000
4.880000,2.754556,0.297464,-1.480706,0.158213,0.161870,0.016547,-0.189171,-0.119169,0.011010,0.683525,-0.120769,0.232280,-4.156664,1.739811,-1.733384,-0.012158,0.019303,0.000000,-0.012625,-0.069266,0.000000
4.890000,2.756129,0.299077,-1.480540,0.156355,0.160672,0.016669,-0.182546,-0.120292,0.013245,0.641272,-0.103934,0.214540,-4.294115,1.628237,-1.814567,-0.012276,0.018631,0.000000,-0.010889,-0.065022,0.000000
4.900000,2.757683,0.300678,-1.480373,0.154561,0.159464,0.016812,-0.176350,-0.121251,0.015298,0.597630,-0.088185,0.195989,-4.433778,1.522606,-1.895462,-0.012377,0.018003,0.000000,-0.009262,-0.060631,-0.000000
4.910000,2.759220,0.302266,-1.480204,0.152826,0.158248,0.016974,-0.170598,-0.122059,0.017162,0.552590,-0.073461,0.176632,-4.574540,1.423320,-1.975783,-0.012462,0.017419,0.000000,-0.007736,-0.056092,0.000000
4.920000,2.760740,0.303842,-1.480033,0.151147,0.157024,0.017154,-0.165303,-0.122724,0.018828,0.506136,-0.059696,0.156477,-4.716496,1.330761,-2.055230,-0.012532,0.016881,0.000000,-0.006306,-0.051405,0.000000
4.930000,2.762243,0.305407,-1.479861,0.149519,0.155794,0.017350,-0.160480,-0.123256,0.020289,0.458257,-0.046822,0.135532,-4.859420,1.245317,-2.133493,-0.012588,0.016391,0.000000,-0.004965,-0.046567,0.000000
4.940000,2.763730,0.306958,-1.479686,0.147936,0.154559,0.017559,-0.156143,-0.123663,0.021536,0.408945,-0.034765,0.113812,-5.003067,1.167374,-2.210218,-0.012631,0.015950,0.000000,-0.003706,-0.041579,0.000000
4.950000,2.765202,0.308498,-1.479510,0.146394,0.153321,0.017780,-0.152306,-0.123953,0.022562,0.358196,-0.023448,0.091330,-5.147024,1.097323,-2.285485,-0.012662,0.015560,0.000000,-0.002520,-0.036441,-0.000000
4.960000,2.766658,0.310025,-1.479331,0.144888,0.152080,0.018010,-0.148984,-0.124134,0.023360,0.306005,-0.012791,0.068108,-5.291323,1.035548,-2.358563,-0.012682,0.015222,0.000000,-0.001401,-0.031152,0.000000
4.970000,2.768100,0.311539,-1.479149,0.143413,0.150838,0.018246,-0.146191,-0.124211,0.023922,0.252370,-0.002708,0.044166,-5.435617,0.982437,-2.429320,-0.012691,0.014938,0.000000,-0.000339,-0.025713,0.000000
4.980000,2.769527,0.313041,-1.478966,0.141963,0.149596,0.018487,-0.143941,-0.124190,0.024241,0.197293,0.006888,0.019530,-5.579663,0.938376,-2.497456,-0.012689,0.014708,0.000000,0.000675,-0.020126,-0.000000
4.990000,2.770939,0.314531,-1.478780,0.140532,0.148355,0.018730,-0.142250,-0.124075,0.024310,0.140778,0.016091,-0.005773,-5.723227,0.903747,-2.562655,-0.012677,0.014535,0.000000,0.001649,-0.014391,-0.000000
5.000000,2.772337,0.316009,-1.478591,0.139116,0.147115,0.018973,-0.141131,-0.123869,0.024124,0.082831,0.024996,-0.031712,-5.866093,0.878930,-2.624571,-0.012656,0.014421,0.000000,0.002593,-0.008509,0.000000
