time,x,y,z,vx,vy,vz,ax,ay,az,jx,jy,jz,sx,sy,sz,roll,pitch,yaw,p,q,r
0.000000,-3.254249,0.289626,-1.496540,-0.014503,-0.005337,0.005835,0.413627,-0.133382,0.009027,17.943878,-5.516261,0.248738,-249.833880,105.790219,-18.582346,-0.013596,-0.042178,0.000000,-0.561519,-1.828471,0.000000
0.010000,-3.254394,0.289573,-1.496482,-0.010367,-0.006671,0.005925,0.593065,-0.188544,0.011515,15.445539,-4.458359,0.062915,-800.757598,287.698401,-32.598399,-0.019205,-0.060452,0.000000,-0.452304,-1.570663,-0.000000
0.020000,-3.254456,0.289493,-1.496422,-0.002642,-0.009108,0.006065,0.722537,-0.222549,0.010286,1.928726,0.237707,-0.403230,-1184.122348,400.066467,-34.684819,-0.022644,-0.073597,0.000000,0.025432,-0.192684,-0.000000
0.030000,-3.254447,0.289391,-1.496361,0.004084,-0.011122,0.006131,0.631640,-0.183790,0.003450,-8.236908,3.542971,-0.630781,-427.870190,134.146097,-6.751736,-0.018701,-0.064321,0.000000,0.360603,0.840448,-0.000000
0.040000,-3.254374,0.289270,-1.496299,0.009991,-0.012784,0.006134,0.557799,-0.151690,-0.002330,-6.628678,2.920629,-0.538264,151.476872,-58.104112,8.039410,-0.015433,-0.056786,0.000000,0.297351,0.676398,-0.000000
0.050000,-3.254247,0.289135,-1.496238,0.015240,-0.014156,0.006084,0.499066,-0.125378,-0.007315,-5.207371,2.380888,-0.469993,133.564444,-50.263859,5.788677,-0.012754,-0.050792,0.000000,0.242433,0.531444,0.000000
0.060000,-3.254069,0.288987,-1.496178,0.019973,-0.015291,0.005988,0.453652,-0.104072,-0.011730,-3.957389,1.915352,-0.422491,117.175341,-43.239690,3.874177,-0.010584,-0.046156,0.000000,0.195040,0.404024,0.000000
0.070000,-3.253847,0.288829,-1.496118,0.024313,-0.016237,0.005849,0.419919,-0.087071,-0.015765,-2.863864,1.516095,-0.392510,102.237021,-36.984423,2.272897,-0.008853,-0.042710,0.000000,0.154388,0.292626,0.000000
0.080000,-3.253583,0.288662,-1.496061,0.028371,-0.017033,0.005672,0.396375,-0.073750,-0.019580,-1.912649,1.175663,-0.377033,88.677046,-31.450876,0.961836,-0.007497,-0.040303,0.000000,0.119729,0.195804,0.000000
0.090000,-3.253280,0.288488,-1.496005,0.032241,-0.017712,0.005458,0.381666,-0.063557,-0.023306,-1.090323,0.887077,-0.373273,76.422840,-26.591864,-0.082013,-0.006459,-0.038794,0.000000,0.090357,0.112183,-0.000000
0.100000,-3.252938,0.288308,-1.495951,0.036004,-0.018304,0.005206,0.374568,-0.056008,-0.027046,-0.384192,0.643826,-0.378673,65.401788,-22.360204,-0.881658,-0.005689,-0.038059,0.000000,0.065610,0.040462,0.000000
0.110000,-3.252560,0.288122,-1.495901,0.039732,-0.018832,0.004917,0.373982,-0.050681,-0.030879,0.217713,0.439873,-0.390906,55.541457,-18.708712,-1.460114,-0.005146,-0.037985,0.000000,0.044874,-0.020584,-0.000000
0.120000,-3.252144,0.287932,-1.495853,0.043484,-0.019318,0.004589,0.378922,-0.047211,-0.034864,0.726637,0.269652,-0.407875,46.769332,-15.590207,-1.840384,-0.004792,-0.038470,0.000000,0.027581,-0.072106,0.000000
0.130000,-3.251690,0.287736,-1.495809,0.047310,-0.019777,0.004220,0.388514,-0.045288,-0.039037,1.153099,0.128069,-0.427714,39.012819,-12.957504,-2.045473,-0.004595,-0.039427,0.000000,0.013213,-0.115184,0.000000
0.140000,-3.251198,0.287536,-1.495769,0.051254,-0.020223,0.003808,0.401984,-0.044650,-0.043418,1.506893,0.010502,-0.448785,32.199448,-10.763419,-2.098404,-0.004528,-0.040774,0.000000,0.001299,-0.150820,0.000000
0.150000,-3.250665,0.287332,-1.495733,0.055350,-0.020670,0.003351,0.418652,-0.045078,-0.048012,1.797088,-0.087200,-0.469682,26.256670,-8.960770,-2.022179,-0.004569,-0.042443,0.000000,-0.008585,-0.179947,-0.000000
0.160000,-3.250091,0.287123,-1.495702,0.059627,-0.021125,0.002848,0.437926,-0.046394,-0.052812,2.032027,-0.168714,-0.489228,21.111884,-7.502373,-1.839789,-0.004699,-0.044373,0.000000,-0.016813,-0.203423,0.000000
0.170000,-3.249472,0.286909,-1.495676,0.064109,-0.021597,0.002295,0.459293,-0.048452,-0.057797,2.219326,-0.237247,-0.506478,16.688245,-6.335523,-1.577797,-0.004905,-0.046511,0.000000,-0.023714,-0.222033,0.000000
0.180000,-3.248808,0.286691,-1.495656,0.068813,-0.022094,0.001692,0.482313,-0.051138,-0.062941,2.365792,-0.295424,-0.520784,12.836565,-5.316568,-1.320990,-0.005173,-0.048813,0.000000,-0.029554,-0.236479,0.000000
0.190000,-3.248096,0.286467,-1.495642,0.073755,-0.022620,0.001036,0.506609,-0.054361,-0.068213,2.476057,-0.343578,-0.532897,9.510769,-4.431682,-1.071006,-0.005496,-0.051241,0.000000,-0.034369,-0.247238,-0.000000
0.200000,-3.247333,0.286238,-1.495635,0.078945,-0.023181,0.000327,0.531834,-0.058010,-0.073599,2.556007,-0.384058,-0.542204,7.204272,-4.345534,-0.394995,-0.005861,-0.053758,0.000000,-0.038399,-0.254917,-0.000000
0.210000,-3.246517,0.286004,-1.495635,0.084392,-0.023780,-0.000436,0.557729,-0.062042,-0.079057,2.620143,-0.430489,-0.540797,5.783936,-4.934667,0.635200,-0.006264,-0.056339,0.000000,-0.043026,-0.261034,0.000000
0.220000,-3.245645,0.285763,-1.495644,0.090100,-0.024422,-0.001254,0.584237,-0.066620,-0.084415,2.671686,-0.482751,-0.529500,3.551116,-4.109900,0.689449,-0.006721,-0.058979,0.000000,-0.048238,-0.265926,-0.000000
0.230000,-3.244715,0.285515,-1.495660,0.096076,-0.025113,-0.002124,0.611163,-0.071697,-0.089647,2.691165,-0.512687,-0.527008,0.345449,-1.771696,-0.278777,-0.007228,-0.061658,0.000000,-0.051183,-0.267531,-0.000000
0.240000,-3.243724,0.285260,-1.495686,0.102323,-0.025856,-0.003047,0.638060,-0.076874,-0.094955,2.678595,-0.518185,-0.535076,-1.632477,-0.711896,-0.477837,-0.007745,-0.064329,0.000000,-0.051653,-0.265839,0.000000
0.250000,-3.242669,0.284998,-1.495721,0.108838,-0.026650,-0.004023,0.664734,-0.082060,-0.100348,2.658516,-0.526925,-0.536565,-1.787379,-1.294483,0.258685,-0.008262,-0.066974,0.000000,-0.052453,-0.263431,0.000000
0.260000,-3.241547,0.284727,-1.495767,0.115618,-0.027497,-0.005054,0.691230,-0.087412,-0.105687,2.642847,-0.544075,-0.529902,-1.733731,-1.578761,0.703093,-0.008794,-0.069598,0.000000,-0.054103,-0.261525,-0.000000
0.270000,-3.240356,0.284448,-1.495822,0.122662,-0.028399,-0.006137,0.717591,-0.092942,-0.110946,2.623841,-0.558500,-0.522503,-2.897682,-1.046217,0.742643,-0.009344,-0.072205,0.000000,-0.055476,-0.259297,0.000000
0.280000,-3.239094,0.284159,-1.495889,0.129970,-0.029356,-0.007272,0.743707,-0.098582,-0.116137,2.584894,-0.564999,-0.515049,-4.850337,-0.332784,0.800107,-0.009903,-0.074784,0.000000,-0.056053,-0.255081,-0.000000
0.290000,-3.237757,0.283861,-1.495968,0.137536,-0.030370,-0.008460,0.769289,-0.104242,-0.121247,2.526834,-0.565156,-0.506501,-5.856452,0.052268,0.913225,-0.010465,-0.077307,0.000000,-0.055995,-0.248974,0.000000
0.300000,-3.236343,0.283552,-1.496059,0.145355,-0.031441,-0.009697,0.794244,-0.109885,-0.126267,2.467765,-0.563954,-0.496785,-5.628439,0.104901,1.027860,-0.011023,-0.079764,0.000000,-0.055805,-0.242797,-0.000000
0.310000,-3.234850,0.283232,-1.496162,0.153421,-0.032568,-0.010985,0.818645,-0.115521,-0.131183,2.414265,-0.563058,-0.485944,-5.390548,0.163869,1.133000,-0.011581,-0.082163,0.000000,-0.055648,-0.237205,-0.000000
0.320000,-3.233275,0.282901,-1.496278,0.161728,-0.033751,-0.012321,0.842529,-0.121146,-0.135986,2.359954,-0.560676,-0.474125,-5.910930,0.425132,1.220215,-0.012136,-0.084509,0.000000,-0.055346,-0.231560,-0.000000
0.330000,-3.231615,0.282557,-1.496408,0.170272,-0.034991,-0.013705,0.865844,-0.126735,-0.140666,2.296047,-0.554555,-0.461540,-6.833750,0.789958,1.291591,-0.012688,-0.086795,0.000000,-0.054675,-0.224985,0.000000
0.340000,-3.229869,0.282201,-1.496552,0.179045,-0.036286,-0.015134,0.888450,-0.132237,-0.145216,2.223279,-0.544877,-0.448293,-7.255314,1.029561,1.358217,-0.013230,-0.089009,0.000000,-0.053654,-0.217557,0.000000
0.350000,-3.228034,0.281831,-1.496711,0.188041,-0.037636,-0.016609,0.910309,-0.137632,-0.149631,2.150941,-0.533964,-0.434375,-7.047644,1.112497,1.422735,-0.013761,-0.091147,0.000000,-0.052516,-0.210204,0.000000
0.360000,-3.226109,0.281448,-1.496885,0.197251,-0.039039,-0.018127,0.931469,-0.142917,-0.153904,2.082326,-0.522627,-0.419838,-6.842358,1.198201,1.477623,-0.014280,-0.093213,0.000000,-0.051341,-0.203251,-0.000000
0.370000,-3.224089,0.281051,-1.497074,0.206670,-0.040494,-0.019687,0.951956,-0.148085,-0.158028,2.014093,-0.510000,-0.404823,-7.028047,1.385300,1.516984,-0.014788,-0.095212,0.000000,-0.050043,-0.196364,0.000000
0.380000,-3.221975,0.280638,-1.497278,0.216290,-0.042000,-0.021288,0.971751,-0.153117,-0.162000,1.941765,-0.494921,-0.389499,-7.420518,1.627246,1.543192,-0.015281,-0.097141,0.000000,-0.048507,-0.189097,0.000000
0.390000,-3.219764,0.280211,-1.497499,0.226105,-0.043556,-0.022927,0.990791,-0.157983,-0.165818,1.865683,-0.477455,-0.373959,-7.563095,1.807759,1.563997,-0.015758,-0.098995,0.000000,-0.046740,-0.181484,0.000000
0.400000,-3.217453,0.279767,-1.497737,0.236106,-0.045160,-0.024604,1.009064,-0.162666,-0.169479,1.790503,-0.458766,-0.358219,-7.391860,1.910054,1.581380,-0.016216,-0.100771,0.000000,-0.044858,-0.173987,0.000000
0.410000,-3.215042,0.279307,-1.497991,0.246286,-0.046810,-0.026317,1.026601,-0.167158,-0.172982,1.717846,-0.439254,-0.342331,-7.225537,2.015092,1.590333,-0.016655,-0.102475,0.000000,-0.042901,-0.166764,-0.000000
0.420000,-3.212527,0.278831,-1.498263,0.256638,-0.048503,-0.028064,1.043421,-0.171451,-0.176326,1.645992,-0.418464,-0.326412,-7.259038,2.173357,1.586444,-0.017074,-0.104107,0.000000,-0.040822,-0.159643,-0.000000
0.430000,-3.209909,0.278337,-1.498553,0.267155,-0.050239,-0.029843,1.059521,-0.175528,-0.179511,1.572665,-0.395787,-0.310602,-7.399098,2.361071,1.571481,-0.017471,-0.105668,0.000000,-0.038562,-0.152396,-0.000000
0.440000,-3.207184,0.277826,-1.498860,0.277829,-0.052014,-0.031654,1.074875,-0.179367,-0.182538,1.498010,-0.371243,-0.294982,-7.416495,2.518341,1.551567,-0.017845,-0.107156,0.000000,-0.036122,-0.145036,-0.000000
0.450000,-3.204352,0.277297,-1.499186,0.288652,-0.053826,-0.033494,1.089481,-0.182952,-0.185410,1.424335,-0.345420,-0.279571,-7.278762,2.636313,1.527991,-0.018194,-0.108570,0.000000,-0.033561,-0.137790,-0.000000
0.460000,-3.201411,0.276750,-1.499530,0.299618,-0.055673,-0.035362,1.103361,-0.186275,-0.188130,1.352435,-0.318516,-0.264423,-7.145575,2.756466,1.497022,-0.018516,-0.109912,0.000000,-0.030898,-0.130735,0.000000
0.470000,-3.198360,0.276184,-1.499893,0.310720,-0.057551,-0.037257,1.116530,-0.189323,-0.190699,1.281424,-0.290291,-0.249631,-7.115597,2.904739,1.456463,-0.018812,-0.111185,0.000000,-0.028108,-0.123782,0.000000
0.480000,-3.195197,0.275599,-1.500275,0.321949,-0.059459,-0.039176,1.128990,-0.192081,-0.193122,1.210123,-0.260422,-0.235293,-7.141897,3.068810,1.407792,-0.019079,-0.112388,0.000000,-0.025160,-0.116810,0.000000
0.490000,-3.191921,0.274994,-1.500676,0.333299,-0.061393,-0.041119,1.140732,-0.194531,-0.195405,1.138586,-0.228914,-0.221475,-7.107838,3.217558,1.354353,-0.019315,-0.113521,0.000000,-0.022054,-0.109825,-0.000000
0.500000,-3.188531,0.274371,-1.501097,0.344764,-0.063350,-0.043084,1.151761,-0.196659,-0.197552,1.067966,-0.196070,-0.208206,-6.997144,3.345995,1.297274,-0.019520,-0.114585,0.000000,-0.018819,-0.102938,0.000000
0.510000,-3.185026,0.273727,-1.501538,0.356335,-0.065326,-0.045070,1.162092,-0.198453,-0.199569,0.998643,-0.161995,-0.195529,-6.890721,3.475446,1.234770,-0.019691,-0.115581,0.000000,-0.015465,-0.096186,0.000000
0.520000,-3.181404,0.273064,-1.501999,0.368005,-0.067319,-0.047075,1.171734,-0.199899,-0.201462,0.930152,-0.126562,-0.183511,-6.836948,3.619922,1.164848,-0.019829,-0.116509,0.000000,-0.011980,-0.089519,0.000000
0.530000,-3.177665,0.272381,-1.502480,0.379769,-0.069324,-0.049099,1.180695,-0.200984,-0.203239,0.861904,-0.089596,-0.172232,-6.811709,3.772885,1.088323,-0.019931,-0.117371,0.000000,-0.008345,-0.082879,-0.000000
0.540000,-3.173809,0.271678,-1.502981,0.391619,-0.071338,-0.051140,1.188972,-0.201691,-0.204907,0.793918,-0.051104,-0.161744,-6.757715,3.917079,1.008531,-0.019996,-0.118167,0.000000,-0.004561,-0.076266,0.000000
0.550000,-3.169833,0.270954,-1.503502,0.403549,-0.073358,-0.053197,1.196573,-0.202006,-0.206474,0.726750,-0.011255,-0.152062,-6.666750,4.049939,0.927132,-0.020022,-0.118897,0.000000,-0.000645,-0.069733,0.000000
0.560000,-3.165738,0.270211,-1.504045,0.415551,-0.075379,-0.055270,1.203507,-0.201916,-0.207948,0.660583,0.029895,-0.143202,-6.578256,4.183005,0.842367,-0.020009,-0.119562,0.000000,0.003400,-0.063296,0.000000
0.570000,-3.161522,0.269447,-1.504608,0.427619,-0.077396,-0.057356,1.209785,-0.201408,-0.209338,0.595185,0.072406,-0.135214,-6.516465,4.322659,0.751094,-0.019954,-0.120163,0.000000,0.007578,-0.056933,-0.000000
0.580000,-3.157185,0.268663,-1.505192,0.439746,-0.079407,-0.059456,1.215411,-0.200468,-0.210652,0.530253,0.116348,-0.128180,-6.469264,4.465077,0.654297,-0.019857,-0.120701,0.000000,0.011898,-0.050610,0.000000
0.590000,-3.152727,0.267859,-1.505797,0.451927,-0.081406,-0.061569,1.220390,-0.199081,-0.211902,0.465799,0.161707,-0.122129,-6.407518,4.602238,0.556954,-0.019716,-0.121176,0.000000,0.016357,-0.044328,-0.000000
0.600000,-3.148147,0.267035,-1.506423,0.464154,-0.083388,-0.063695,1.224727,-0.197234,-0.213095,0.402103,0.208393,-0.117041,-6.328366,4.733033,0.459580,-0.019530,-0.121588,0.000000,0.020949,-0.038114,0.000000
0.610000,-3.143444,0.266191,-1.507071,0.476422,-0.085350,-0.065831,1.228432,-0.194913,-0.214242,0.339232,0.256368,-0.112937,-6.251478,4.862538,0.359504,-0.019297,-0.121938,0.000000,0.025668,-0.031974,0.000000
0.620000,-3.138618,0.265328,-1.507740,0.488723,-0.087287,-0.067979,1.231512,-0.192106,-0.215354,0.277073,0.305644,-0.109851,-6.184456,4.993188,0.257478,-0.019017,-0.122227,0.000000,0.030517,-0.025896,0.000000
0.630000,-3.133670,0.264445,-1.508430,0.501052,-0.089192,-0.070138,1.233973,-0.188800,-0.216439,0.215543,0.356232,-0.107787,-6.120574,5.123344,0.154712,-0.018687,-0.122456,0.000000,0.035497,-0.019870,0.000000
0.640000,-3.128597,0.263544,-1.509143,0.513402,-0.091063,-0.072308,1.235823,-0.184982,-0.217510,0.154662,0.408111,-0.106757,-6.051266,5.249589,0.050865,-0.018307,-0.122625,0.000000,0.040606,-0.013898,-0.000000
0.650000,-3.123402,0.262624,-1.509877,0.525768,-0.092892,-0.074489,1.237067,-0.180638,-0.218575,0.094518,0.461223,-0.106770,-5.977722,5.369449,-0.051969,-0.017875,-0.122734,0.000000,0.045838,-0.007989,-0.000000
0.660000,-3.118082,0.261686,-1.510632,0.538144,-0.094675,-0.076680,1.237713,-0.175757,-0.219645,0.035108,0.515500,-0.107796,-5.905297,5.484971,-0.153001,-0.017390,-0.122785,0.000000,0.051187,-0.002141,0.000000
0.670000,-3.112639,0.260730,-1.511410,0.550523,-0.096407,-0.078881,1.237769,-0.170328,-0.220730,-0.023588,0.570923,-0.109830,-5.831322,5.602433,-0.257341,-0.016851,-0.122777,0.000000,0.056650,0.003647,-0.000000
0.680000,-3.107072,0.259758,-1.512210,0.562899,-0.098082,-0.081094,1.237241,-0.164339,-0.221842,-0.081519,0.627548,-0.112943,-5.753834,5.720818,-0.365060,-0.016257,-0.122712,0.000000,0.062233,0.009371,0.000000
0.690000,-3.101381,0.258769,-1.513032,0.575267,-0.099694,-0.083318,1.236138,-0.157777,-0.222989,-0.138665,0.685339,-0.117131,-5.676814,5.831098,-0.468040,-0.015607,-0.122590,0.000000,0.067933,0.015029,-0.000000
0.700000,-3.095566,0.257764,-1.513876,0.587622,-0.101238,-0.085554,1.234468,-0.150632,-0.224184,-0.195055,0.744170,-0.122304,-5.600489,5.933701,-0.563881,-0.014898,-0.122411,0.000000,0.073736,0.020624,0.000000
0.710000,-3.089628,0.256744,-1.514743,0.599957,-0.102707,-0.087802,1.232237,-0.142894,-0.225435,-0.250675,0.804013,-0.128409,-5.522026,6.034091,-0.657416,-0.014132,-0.122177,0.000000,0.079640,0.026153,-0.000000
0.720000,-3.083567,0.255710,-1.515632,0.612267,-0.104095,-0.090063,1.229454,-0.134552,-0.226752,-0.305496,0.864852,-0.135452,-5.442214,6.128212,-0.752053,-0.013306,-0.121888,0.000000,0.085642,0.031614,-0.000000
0.730000,-3.077383,0.254662,-1.516544,0.624546,-0.105398,-0.092337,1.226127,-0.125597,-0.228144,-0.359519,0.926577,-0.143450,-5.362310,6.213437,-0.845664,-0.012419,-0.121545,0.000000,0.091732,0.037006,-0.000000
0.740000,-3.071076,0.253602,-1.517479,0.636789,-0.106607,-0.094626,1.222264,-0.116020,-0.229621,-0.412742,0.989121,-0.152365,-5.280773,6.295193,-0.932829,-0.011471,-0.121148,0.000000,0.097902,0.042329,0.000000
0.750000,-3.064647,0.252530,-1.518437,0.648991,-0.107718,-0.096929,1.217872,-0.105814,-0.231192,-0.465135,1.052481,-0.162107,-5.195311,6.375132,-1.012165,-0.010461,-0.120698,0.000000,0.104151,0.047578,0.000000
0.760000,-3.058096,0.251447,-1.519418,0.661147,-0.108724,-0.099249,1.212961,-0.094971,-0.232863,-0.516648,1.116623,-0.172608,-5.107095,6.448925,-1.086440,-0.009388,-0.120196,0.000000,0.110475,0.052748,-0.000000
0.770000,-3.051424,0.250355,-1.520422,0.673250,-0.109618,-0.101587,1.207539,-0.083482,-0.234644,-0.567277,1.181460,-0.183835,-5.021703,6.512773,-1.157275,-0.008251,-0.119643,0.000000,0.116866,0.057838,0.000000
0.780000,-3.044631,0.249255,-1.521450,0.685297,-0.110393,-0.103942,1.201616,-0.071341,-0.236540,-0.617082,1.246879,-0.195754,-4.938498,6.567823,-1.223217,-0.007051,-0.119039,0.000000,0.123310,0.062852,0.000000
0.790000,-3.037718,0.248148,-1.522501,0.697283,-0.111044,-0.106318,1.195198,-0.058544,-0.238559,-0.666046,1.312816,-0.208300,-4.849807,6.618291,-1.280974,-0.005785,-0.118386,0.000000,0.129802,0.067788,0.000000
0.800000,-3.030686,0.247034,-1.523576,0.709201,-0.111564,-0.108714,1.188295,-0.045085,-0.240706,-0.714078,1.379245,-0.221373,-4.757192,6.663377,-1.328593,-0.004455,-0.117684,0.000000,0.136337,0.072636,-0.000000
0.810000,-3.023534,0.245916,-1.524675,0.721049,-0.111946,-0.111132,1.180916,-0.030959,-0.242986,-0.761190,1.446084,-0.234872,-4.665481,6.699940,-1.367406,-0.003059,-0.116933,0.000000,0.142906,0.077394,-0.000000
0.820000,-3.016265,0.244795,-1.525799,0.732820,-0.112183,-0.113573,1.173071,-0.016163,-0.245404,-0.807388,1.513243,-0.248722,-4.568132,6.729793,-1.400680,-0.001597,-0.116136,0.000000,0.149501,0.082063,0.000000
0.830000,-3.008878,0.243673,-1.526947,0.744510,-0.112269,-0.116040,1.164769,-0.000695,-0.247961,-0.852553,1.580680,-0.262885,-4.462699,6.753553,-1.427247,-0.000069,-0.115292,0.000000,0.156115,0.086629,0.000000
0.840000,-3.001374,0.242550,-1.528119,0.756115,-0.112197,-0.118532,1.156020,0.015450,-0.250661,-0.896642,1.648314,-0.277266,-4.358590,6.767960,-1.441395,0.001526,-0.114403,0.000000,0.162740,0.091088,0.000000
0.850000,-2.993756,0.241429,-1.529317,0.767630,-0.111960,-0.121053,1.146836,0.032272,-0.253506,-0.939725,1.716039,-0.291713,-4.259548,6.774132,-1.442457,0.003186,-0.113470,0.000000,0.169365,0.095443,-0.000000
0.860000,-2.986022,0.240311,-1.530540,0.779052,-0.111552,-0.123603,1.137225,0.049771,-0.256496,-0.981833,1.783797,-0.306116,-4.158738,6.773781,-1.433178,0.004913,-0.112494,0.000000,0.175983,0.099697,-0.000000
0.870000,-2.978174,0.239198,-1.531789,0.790375,-0.110965,-0.126183,1.127199,0.067948,-0.259629,-1.022900,1.851514,-0.320377,-4.047805,6.761679,-1.412122,0.006706,-0.111476,0.000000,0.182586,0.103841,0.000000
0.880000,-2.970214,0.238091,-1.533064,0.801596,-0.110193,-0.128795,1.116767,0.086801,-0.262903,-1.062789,1.919031,-0.334358,-3.928944,6.736731,-1.377264,0.008565,-0.110418,0.000000,0.189158,0.107860,-0.000000
0.890000,-2.962143,0.236994,-1.534365,0.812710,-0.109229,-0.131441,1.105943,0.106328,-0.266316,-1.101478,1.986249,-0.347922,-3.813170,6.705781,-1.329484,0.010489,-0.109319,0.000000,0.195689,0.111751,-0.000000
0.900000,-2.953960,0.235907,-1.535693,0.823715,-0.108066,-0.134121,1.094738,0.126526,-0.269862,-1.139052,2.053146,-0.360948,-3.700365,6.669442,-1.269884,0.012478,-0.108182,0.000000,0.202175,0.115520,-0.000000
0.910000,-2.945668,0.234832,-1.537048,0.834605,-0.106698,-0.136838,1.083162,0.147391,-0.273535,-1.175486,2.119638,-0.373320,-3.583243,6.622724,-1.196654,0.014532,-0.107009,0.000000,0.208609,0.119164,-0.000000
0.920000,-2.937268,0.233773,-1.538430,0.845378,-0.105118,-0.139592,1.071228,0.168919,-0.277328,-1.210717,2.185601,-0.384881,-3.464009,6.564950,-1.104951,0.016650,-0.105799,0.000000,0.214978,0.122675,-0.000000
0.930000,-2.928761,0.232730,-1.539839,0.856030,-0.103320,-0.142385,1.058948,0.191103,-0.281232,-1.244766,2.250937,-0.395419,-3.345241,6.497565,-0.994079,0.018832,-0.104555,0.000000,0.221273,0.126052,0.000000
0.940000,-2.920147,0.231706,-1.541277,0.866557,-0.101296,-0.145217,1.046333,0.213938,-0.285236,-1.277622,2.315552,-0.404762,-3.223434,6.420670,-0.869264,0.021076,-0.103277,0.000000,0.227485,0.129295,-0.000000
0.950000,-2.911430,0.230704,-1.542744,0.876956,-0.099041,-0.148089,1.033395,0.237414,-0.289327,-1.309235,2.379350,-0.412804,-3.099218,6.334248,-0.733034,0.023382,-0.101968,0.000000,0.233604,0.132395,-0.000000
0.960000,-2.902608,0.229726,-1.544239,0.887225,-0.096548,-0.151003,1.020148,0.261525,-0.293492,-1.339606,2.442237,-0.419423,-2.975085,6.237990,-0.580695,0.025748,-0.100629,0.000000,0.239623,0.135355,0.000000
0.970000,-2.893685,0.228773,-1.545764,0.897359,-0.093811,-0.153959,1.006603,0.286259,-0.297716,-1.368736,2.504110,-0.424418,-2.847717,6.130697,-0.403829,0.028174,-0.099260,0.000000,0.245533,0.138171,-0.000000
0.980000,-2.884661,0.227849,-1.547318,0.907357,-0.090823,-0.156958,0.992773,0.311607,-0.301981,-1.396561,2.564851,-0.427500,-2.716621,6.012373,-0.202184,0.030659,-0.097864,0.000000,0.251322,0.140836,-0.000000
0.990000,-2.875538,0.226957,-1.548903,0.917215,-0.087579,-0.159999,0.978672,0.337556,-0.306266,-1.423069,2.624357,-0.428461,-2.586691,5.884242,0.014007,0.033200,-0.096442,0.000000,0.256985,0.143347,-0.000000
1.000000,-2.866317,0.226098,-1.550518,0.926930,-0.084072,-0.163083,0.964312,0.364094,-0.310550,-1.448295,2.682536,-0.427220,-2.455573,5.745157,0.237799,0.035798,-0.094996,0.000000,0.262512,0.145709,-0.000000
1.010000,-2.856999,0.225275,-1.552165,0.936501,-0.080297,-0.166210,0.949706,0.391207,-0.314810,-1.472180,2.739261,-0.423705,-2.320302,5.594119,0.477363,0.038451,-0.093526,0.000000,0.267895,0.147917,-0.000000
1.020000,-2.847587,0.224492,-1.553842,0.945924,-0.076248,-0.169379,0.934868,0.418879,-0.319024,-1.494701,2.794418,-0.417672,-2.189565,5.434130,0.752712,0.041156,-0.092035,0.000000,0.273124,0.149966,-0.000000
1.030000,-2.838081,0.223750,-1.555552,0.955198,-0.071919,-0.172590,0.919812,0.447095,-0.323164,-1.515971,2.847943,-0.408651,-2.065780,5.265267,1.063030,0.043913,-0.090524,0.000000,0.278198,0.151867,-0.000000
1.040000,-2.828483,0.223054,-1.557294,0.964321,-0.067306,-0.175842,0.904549,0.475838,-0.327197,-1.536016,2.899724,-0.396412,-1.936587,5.082971,1.381991,0.046720,-0.088995,0.000000,0.283110,0.153620,0.000000
1.050000,-2.818794,0.222404,-1.559069,0.973289,-0.062402,-0.179134,0.889092,0.505090,-0.331092,-1.554703,2.949603,-0.381011,-1.793678,4.887839,1.701378,0.049575,-0.087449,0.000000,0.287848,0.155216,-0.000000
1.060000,-2.809017,0.221805,-1.560877,0.982102,-0.057204,-0.182464,0.873455,0.534830,-0.334817,-1.571890,2.997480,-0.362384,-1.646038,4.682574,2.039764,0.052477,-0.085887,0.000000,0.292406,0.156642,-0.000000
1.070000,-2.799152,0.221260,-1.562718,0.990758,-0.051706,-0.185831,0.857654,0.565039,-0.338340,-1.587624,3.043254,-0.340216,-1.514438,4.463672,2.416793,0.055423,-0.084311,0.000000,0.296780,0.157903,-0.000000
1.080000,-2.789202,0.220771,-1.564594,0.999255,-0.045903,-0.189231,0.841702,0.595695,-0.341622,-1.602179,3.086754,-0.314048,-1.396418,4.230302,2.828209,0.058413,-0.082724,0.000000,0.300959,0.159023,0.000000
1.090000,-2.779167,0.220342,-1.566503,1.007592,-0.039792,-0.192663,0.825610,0.626774,-0.344621,-1.615552,3.127860,-0.283652,-1.263855,3.987007,3.248289,0.061443,-0.081125,0.000000,0.304940,0.160004,0.000000
1.100000,-2.769050,0.219976,-1.568447,1.015768,-0.033368,-0.196124,0.809391,0.658252,-0.347295,-1.627456,3.166494,-0.249082,-1.113628,3.730700,3.664482,0.064511,-0.079518,0.000000,0.308718,0.160821,0.000000
1.110000,-2.758852,0.219675,-1.570425,1.023780,-0.026627,-0.199609,0.793061,0.690104,-0.349602,-1.637825,3.202474,-0.210362,-0.964276,3.458261,4.094630,0.067617,-0.077902,0.000000,0.312282,0.161470,-0.000000
1.120000,-2.748574,0.219443,-1.572439,1.031629,-0.019566,-0.203116,0.776635,0.722302,-0.351502,-1.646741,3.235659,-0.167190,-0.818841,3.179448,4.571354,0.070757,-0.076281,0.000000,0.315625,0.161960,0.000000
1.130000,-2.738219,0.219283,-1.574488,1.039313,-0.012181,-0.206639,0.760127,0.754817,-0.352946,-1.654202,3.266063,-0.118935,-0.670601,2.895961,5.090885,0.073930,-0.074655,0.000000,0.318761,0.162288,-0.000000
1.140000,-2.727788,0.219199,-1.576572,1.046831,-0.004469,-0.210175,0.743551,0.787623,-0.353881,-1.660153,3.293578,-0.065372,-0.516189,2.593463,5.608579,0.077133,-0.073026,0.000000,0.321686,0.162453,-0.000000
1.150000,-2.717283,0.219194,-1.578691,1.054184,0.003572,-0.213717,0.726923,0.820689,-0.354254,-1.664525,3.317932,-0.006764,-0.355088,2.266555,6.107903,0.080364,-0.071396,0.000000,0.324381,0.162451,-0.000000
1.160000,-2.706705,0.219271,-1.580846,1.061370,0.011945,-0.217260,0.710260,0.853982,-0.354016,-1.667255,3.338910,0.056786,-0.188740,1.924840,6.618880,0.083620,-0.069766,0.000000,0.326830,0.162280,-0.000000
1.170000,-2.696055,0.219433,-1.583036,1.068389,0.020651,-0.220797,0.693578,0.887467,-0.353118,-1.668300,3.356429,0.125614,-0.019050,1.579272,7.179562,0.086900,-0.068139,0.000000,0.329035,0.161938,-0.000000
1.180000,-2.685337,0.219684,-1.585262,1.075241,0.029694,-0.224322,0.676894,0.921110,-0.351504,-1.667636,3.370495,0.200377,0.154399,1.226256,7.781303,0.090201,-0.066515,0.000000,0.331011,0.161421,-0.000000
1.190000,-2.674550,0.220027,-1.587523,1.081927,0.039074,-0.227827,0.660226,0.954877,-0.349110,-1.665212,3.380954,0.281240,0.335266,0.850799,8.371833,0.093521,-0.064897,0.000000,0.332753,0.160727,0.000000
1.200000,-2.663698,0.220465,-1.589819,1.088446,0.048791,-0.231304,0.643590,0.988729,-0.345879,-1.660931,3.387511,0.367814,0.528357,0.452812,8.934590,0.096856,-0.063287,0.000000,0.334236,0.159851,0.000000
1.210000,-2.652782,0.221003,-1.592149,1.094799,0.058848,-0.234745,0.627007,1.022627,-0.341754,-1.654645,3.390010,0.459932,0.731583,0.041511,9.503568,0.100206,-0.061685,0.000000,0.335453,0.158784,0.000000
1.220000,-2.641802,0.221642,-1.594513,1.100986,0.069244,-0.238139,0.610497,1.056530,-0.336680,-1.646299,3.388341,0.557885,0.933124,-0.386449,10.114856,0.103566,-0.060095,0.000000,0.336404,0.157520,-0.000000
1.230000,-2.630762,0.222388,-1.596912,1.107009,0.079979,-0.241478,0.594081,1.090394,-0.330596,-1.635983,3.382282,0.662229,1.133201,-0.835504,10.758333,0.106934,-0.058518,0.000000,0.337081,0.156069,-0.000000
1.240000,-2.619662,0.223242,-1.599343,1.112868,0.091052,-0.244751,0.577778,1.124175,-0.323436,-1.623635,3.371631,0.773052,1.349411,-1.301124,11.383170,0.110308,-0.056955,0.000000,0.337475,0.154426,0.000000
1.250000,-2.608504,0.224209,-1.601807,1.118564,0.102462,-0.247947,0.561608,1.157827,-0.315135,-1.608994,3.356259,0.889892,1.589195,-1.779270,11.966780,0.113684,-0.055410,0.000000,0.337576,0.152572,-0.000000
1.260000,-2.597291,0.225291,-1.604302,1.124100,0.114208,-0.251054,0.545598,1.191300,-0.305638,-1.591851,3.336046,1.012387,1.841192,-2.274168,12.541529,0.117060,-0.053884,0.000000,0.337377,0.150490,0.000000
1.270000,-2.586022,0.226493,-1.606828,1.129476,0.126288,-0.254060,0.529771,1.224548,-0.294888,-1.572171,3.310776,1.140723,2.089880,-2.796805,13.159481,0.120432,-0.052379,0.000000,0.336867,0.148175,-0.000000
1.280000,-2.574701,0.227817,-1.609383,1.134695,0.138699,-0.256952,0.514154,1.257516,-0.282823,-1.550053,3.280110,1.275577,2.340215,-3.347932,13.809933,0.123797,-0.050899,0.000000,0.336027,0.145637,0.000000
1.290000,-2.563329,0.229267,-1.611967,1.139759,0.151439,-0.259716,0.498770,1.290150,-0.269376,-1.525366,3.243817,1.416922,2.614047,-3.913318,14.418539,0.127153,-0.049444,0.000000,0.334844,0.142864,-0.000000
1.300000,-2.551906,0.230846,-1.614578,1.144671,0.164502,-0.262339,0.483647,1.322392,-0.254485,-1.497772,3.201843,1.563948,2.909264,-4.482344,14.965936,0.130495,-0.048018,0.000000,0.333308,0.139826,-0.000000
1.310000,-2.540435,0.232557,-1.617214,1.149432,0.177886,-0.264806,0.468815,1.354187,-0.238097,-1.467181,3.154170,1.716240,3.212935,-5.065880,15.498630,0.133819,-0.046623,0.000000,0.331419,0.136515,0.000000
1.320000,-2.528917,0.234403,-1.619874,1.154047,0.191586,-0.267101,0.454303,1.385476,-0.220160,-1.433514,3.100526,1.873920,3.537513,-5.693037,16.051058,0.137124,-0.045263,0.000000,0.329155,0.132923,0.000000
1.330000,-2.517354,0.236388,-1.622556,1.158518,0.205596,-0.269209,0.440145,1.416197,-0.200619,-1.396431,3.040309,2.037261,3.890751,-6.362033,16.605452,0.140403,-0.043939,0.000000,0.326466,0.129013,-0.000000
1.340000,-2.505747,0.238515,-1.625258,1.162850,0.219910,-0.271113,0.426375,1.446282,-0.179415,-1.355699,2.973285,2.206029,4.255750,-7.033790,17.111422,0.143653,-0.042657,0.000000,0.323330,0.124760,-0.000000
1.350000,-2.494097,0.240787,-1.627978,1.167046,0.234522,-0.272797,0.413031,1.475663,-0.156498,-1.311316,2.899634,2.379490,4.618799,-7.699399,17.555238,0.146870,-0.041418,0.000000,0.319755,0.120162,0.000000
1.360000,-2.482406,0.243206,-1.630714,1.171111,0.249423,-0.274243,0.400148,1.504275,-0.131825,-1.263323,2.819297,2.557134,4.993770,-8.385543,17.965582,0.150049,-0.040227,0.000000,0.315729,0.115221,-0.000000
1.370000,-2.470675,0.245775,-1.633463,1.175049,0.264607,-0.275434,0.387764,1.532049,-0.105355,-1.211440,2.731923,2.738802,5.417568,-9.110616,18.365609,0.153185,-0.039088,0.000000,0.311213,0.109904,0.000000
1.380000,-2.458905,0.248498,-1.636222,1.178866,0.280064,-0.276351,0.375920,1.558913,-0.077049,-1.154971,2.637085,2.924446,5.893908,-9.870572,18.741727,0.156274,-0.038003,0.000000,0.306163,0.104133,0.000000
1.390000,-2.447098,0.251376,-1.638990,1.182567,0.295785,-0.276975,0.364665,1.584791,-0.046866,-1.093562,2.534511,3.113636,6.372667,-10.640542,19.056436,0.159309,-0.036979,0.000000,0.300540,0.097867,-0.000000
1.400000,-2.435254,0.254414,-1.641762,1.186159,0.311760,-0.277288,0.354048,1.609603,-0.014776,-1.027518,2.424274,3.305575,6.802279,-11.382520,19.302797,0.162285,-0.036021,0.000000,0.294332,0.091127,-0.000000
1.410000,-2.423375,0.257612,-1.644536,1.189648,0.327977,-0.277270,0.344114,1.633276,0.019245,-0.957517,2.306861,3.499692,7.220704,-12.115102,19.499661,0.165196,-0.035132,0.000000,0.287569,0.083971,0.000000
1.420000,-2.411461,0.260973,-1.647307,1.193041,0.344426,-0.276903,0.334898,1.655740,0.055218,-0.883104,2.181972,3.695568,7.768278,-12.944013,19.649352,0.168037,-0.034318,0.000000,0.280204,0.076342,-0.000000
1.430000,-2.399514,0.264500,-1.650074,1.196346,0.361092,-0.276166,0.326452,1.676915,0.093156,-0.802151,2.047981,3.892679,8.440171,-13.859585,19.740566,0.170800,-0.033584,0.000000,0.272052,0.068011,0.000000
1.440000,-2.387534,0.268195,-1.652831,1.199570,0.377964,-0.275040,0.318855,1.696700,0.133071,-0.714301,1.904780,4.090380,9.043854,-14.716824,19.762906,0.173478,-0.032938,0.000000,0.263070,0.058924,0.000000
1.450000,-2.375522,0.272059,-1.655574,1.202723,0.395026,-0.273505,0.312166,1.715011,0.174964,-0.621274,1.753644,4.287937,9.532368,-15.543756,19.710805,0.176062,-0.032388,0.000000,0.253355,0.049236,-0.000000
1.460000,-2.363479,0.276095,-1.658301,1.205814,0.412264,-0.271541,0.306430,1.731773,0.218830,-0.523653,1.593905,4.484596,10.035569,-16.432334,19.584542,0.178545,-0.031938,0.000000,0.242803,0.038989,-0.000000
1.470000,-2.351406,0.280305,-1.661005,1.208852,0.429662,-0.269128,0.301693,1.746889,0.264656,-0.420563,1.424997,4.679628,10.644145,-17.266893,19.386121,0.180918,-0.031596,0.000000,0.231314,0.028070,0.000000
1.480000,-2.339302,0.284689,-1.663683,1.211848,0.447202,-0.266247,0.298018,1.760273,0.312422,-0.310770,1.248567,4.872318,11.289967,-18.028826,19.103776,0.183172,-0.031368,0.000000,0.219011,0.016330,-0.000000
1.490000,-2.327169,0.289249,-1.666330,1.214812,0.464867,-0.262880,0.295478,1.771860,0.362102,-0.194763,1.064421,5.061704,11.860043,-18.877280,18.727435,0.185298,-0.031264,0.000000,0.205823,0.003789,0.000000
1.500000,-2.315006,0.293986,-1.668941,1.217757,0.482639,-0.259005,0.294123,1.781561,0.413657,-0.073569,0.871021,5.246867,12.514580,-19.684301,18.300572,0.187288,-0.031292,0.000000,0.191537,-0.009471,-0.000000
1.510000,-2.302814,0.298901,-1.671510,1.220695,0.500498,-0.254606,0.294006,1.789281,0.467040,0.055528,0.670735,5.427715,13.310495,-20.350410,17.819513,0.189129,-0.031458,0.000000,0.176349,-0.023769,-0.000000
1.520000,-2.290592,0.303996,-1.674033,1.223637,0.518425,-0.249665,0.295234,1.794976,0.522211,0.192640,0.464013,5.603257,13.770449,-21.289095,17.142408,0.190814,-0.031777,0.000000,0.160245,-0.039154,-0.000000
1.530000,-2.278341,0.309270,-1.676504,1.226599,0.536398,-0.244162,0.297859,1.798561,0.579105,0.330937,0.244953,5.770563,13.899755,-22.543028,16.253914,0.192333,-0.032256,0.000000,0.142505,-0.054933,0.000000
1.540000,-2.266060,0.314724,-1.678916,1.229595,0.554396,-0.238082,0.301852,1.799875,0.637622,0.470636,0.013153,5.928335,14.347786,-23.527757,15.343566,0.193664,-0.032897,0.000000,0.122993,-0.071146,-0.000000
1.550000,-2.253749,0.320358,-1.681265,1.232636,0.572395,-0.231410,0.307272,1.798824,0.697671,0.617893,-0.225602,6.077434,14.853803,-24.209846,14.478448,0.194792,-0.033708,0.000000,0.102260,-0.088490,-0.000000
1.560000,-2.241408,0.326172,-1.683544,1.235740,0.590372,-0.224129,0.314210,1.795363,0.759171,0.767712,-0.471044,6.217904,15.004669,-24.975769,13.522021,0.195708,-0.034702,0.000000,0.080279,-0.106469,0.000000
1.570000,-2.229034,0.332165,-1.685748,1.238921,0.608303,-0.216226,0.322626,1.789403,0.822030,0.917986,-0.725117,6.347875,15.711522,-25.757367,12.314198,0.196396,-0.035880,0.000000,0.056739,-0.124875,-0.000000
1.580000,-2.216629,0.338338,-1.687869,1.242192,0.626160,-0.207688,0.332570,1.780861,0.886128,1.081942,-0.986192,6.464188,17.151258,-26.396687,10.886904,0.196841,-0.037250,0.000000,0.031662,-0.145173,0.000000
1.590000,-2.204191,0.344689,-1.689902,1.245572,0.643920,-0.198504,0.344265,1.769679,0.951313,1.261012,-1.253051,6.565613,18.026691,-27.011634,9.448148,0.197027,-0.038842,0.000000,0.005076,-0.167586,0.000000
1.600000,-2.191718,0.351216,-1.691839,1.249078,0.661554,-0.188662,0.357790,1.755800,1.017441,1.442476,-1.526424,6.653151,18.193101,-27.710740,8.073539,0.196940,-0.040670,0.000000,-0.023141,-0.190765,0.000000
1.610000,-2.179209,0.357920,-1.693675,1.252728,0.679036,-0.178155,0.373114,1.739151,1.084376,1.624874,-1.807266,6.727084,18.524142,-28.391969,6.619043,0.196562,-0.042735,0.000000,-0.053164,-0.214572,-0.000000
1.620000,-2.166663,0.364797,-1.695402,1.256540,0.696337,-0.166975,0.390288,1.719654,1.151982,1.812959,-2.094264,6.785532,19.062131,-28.802881,4.894084,0.195874,-0.045048,0.000000,-0.084975,-0.239559,0.000000
1.630000,-2.154078,0.371846,-1.697014,1.260534,0.713429,-0.155115,0.409374,1.697266,1.220087,2.006116,-2.383324,6.824965,19.458629,-28.997334,2.930092,0.194860,-0.047621,0.000000,-0.118269,-0.265669,0.000000
1.640000,-2.141452,0.379066,-1.698504,1.264728,0.730282,-0.142573,0.430410,1.671988,1.288482,2.202131,-2.674210,6.844134,19.720336,-29.294026,0.984156,0.193506,-0.050466,0.000000,-0.153106,-0.292660,0.000000
1.650000,-2.128784,0.386452,-1.699866,1.269142,0.746869,-0.129346,0.453416,1.643782,1.356970,2.400523,-2.969204,6.844649,20.101678,-29.468750,-0.821408,0.191795,-0.053588,0.000000,-0.189766,-0.320491,-0.000000
1.660000,-2.116070,0.394003,-1.701091,1.273796,0.763158,-0.115434,0.478420,1.612604,1.425374,2.604165,-3.263585,6.827706,20.551119,-29.319972,-2.661899,0.189707,-0.056997,0.000000,-0.227743,-0.349509,0.000000
1.670000,-2.103308,0.401715,-1.702174,1.278710,0.779121,-0.100838,0.505500,1.578510,1.493524,2.811545,-3.555604,6.791411,20.417134,-29.532876,-4.841328,0.187236,-0.060708,0.000000,-0.266904,-0.379528,-0.000000
1.680000,-2.090495,0.409585,-1.703108,1.283906,0.794728,-0.085563,0.534651,1.541492,1.561203,3.012507,-3.854243,6.730879,19.632790,-30.086683,-7.307469,0.184366,-0.064725,0.000000,-0.308410,-0.409289,0.000000
1.690000,-2.077630,0.417610,-1.703886,1.289403,0.809951,-0.069614,0.565750,1.501425,1.628141,3.204201,-4.157337,6.645261,19.086828,-30.033362,-9.643711,0.181064,-0.069037,0.000000,-0.352060,-0.438367,0.000000
1.700000,-2.064707,0.425784,-1.704500,1.295221,0.824757,-0.053000,0.598735,1.458345,1.694108,3.394244,-4.454910,6.538005,19.231598,-30.068004,-11.778371,0.177321,-0.073640,0.000000,-0.396606,-0.467618,-0.000000
1.710000,-2.051725,0.434105,-1.704946,1.301378,0.839117,-0.035732,0.633635,1.412327,1.758901,3.588833,-4.758697,6.409694,19.429825,-30.758108,-13.981823,0.173129,-0.078540,0.000000,-0.443407,-0.497730,0.000000
1.720000,-2.038680,0.442567,-1.705215,1.307894,0.853003,-0.017822,0.670512,1.363171,1.822302,3.782841,-5.070072,6.258369,18.564220,-29.834562,-16.364949,0.168449,-0.083747,0.000000,-0.492665,-0.527998,-0.000000
1.730000,-2.025567,0.451165,-1.705302,1.314788,0.866381,0.000714,0.709291,1.310925,1.884069,3.960117,-5.355389,6.082395,16.931535,-27.157922,-18.826719,0.163272,-0.089252,0.000000,-0.540220,-0.556302,-0.000000
1.740000,-2.012384,0.459894,-1.705201,1.322079,0.879222,0.019859,0.749714,1.256063,1.943950,4.121471,-5.613231,5.881834,15.994984,-25.869743,-21.217612,0.157642,-0.095023,0.000000,-0.585658,-0.582552,-0.000000
1.750000,-1.999126,0.468749,-1.704905,1.329782,0.891502,0.039593,0.791721,1.198661,2.001706,4.280017,-5.872783,5.658043,15.066111,-25.236218,-23.516877,0.151557,-0.101050,0.000000,-0.632392,-0.608231,-0.000000
1.760000,-1.985788,0.477724,-1.704409,1.337914,0.903195,0.059893,0.835315,1.138608,2.057111,4.422793,-6.117955,5.411497,13.241959,-23.222854,-25.806059,0.144993,-0.107328,0.000000,-0.678239,-0.631568,-0.000000
1.770000,-1.972368,0.486813,-1.703707,1.346489,0.914274,0.080735,0.880177,1.076302,2.109935,4.544856,-6.337241,5.141921,12.782210,-22.769075,-28.112930,0.137991,-0.113814,0.000000,-0.721480,-0.651716,-0.000000
1.780000,-1.958859,0.496010,-1.702794,1.355517,0.924721,0.102092,0.926212,1.011863,2.159949,4.678438,-6.573336,4.849238,14.017940,-24.623197,-30.393986,0.130563,-0.120486,0.000000,-0.767343,-0.672585,0.000000
1.790000,-1.945257,0.505308,-1.701665,1.365013,0.934512,0.123934,0.973745,0.944835,2.206920,4.825215,-6.829704,4.534042,13.779083,-24.579759,-32.594063,0.122645,-0.127379,0.000000,-0.816140,-0.694286,-0.000000
1.800000,-1.931558,0.514700,-1.700316,1.374992,0.943618,0.146230,1.022716,0.875269,2.250630,4.954019,-7.064932,4.197357,12.264058,-22.744180,-34.716954,0.114241,-0.134475,0.000000,-0.862229,-0.712663,-0.000000
1.810000,-1.917757,0.524180,-1.698741,1.385467,0.952017,0.168947,1.072826,0.803536,2.290867,5.070496,-7.284588,3.839703,11.576894,-21.930018,-36.779037,0.105402,-0.141723,0.000000,-0.905983,-0.728235,0.000000
1.820000,-1.903849,0.533740,-1.696937,1.396449,0.959688,0.192048,1.124126,0.729577,2.327424,5.185557,-7.503532,3.461776,10.270803,-20.560684,-38.728423,0.096124,-0.149117,0.000000,-0.949042,-0.742249,-0.000000
1.830000,-1.889828,0.543374,-1.694900,1.407950,0.966608,0.215495,1.176537,0.653466,2.360103,5.275912,-7.695802,3.065134,7.466727,-17.475464,-40.532815,0.086425,-0.156633,0.000000,-0.987623,-0.751533,0.000000
1.840000,-1.875690,0.553073,-1.692627,1.419980,0.972758,0.239250,1.229644,0.575661,2.388727,5.334892,-7.853041,2.651120,5.350457,-15.103232,-42.242576,0.076377,-0.164200,0.000000,-1.020236,-0.755058,0.000000
1.850000,-1.861429,0.562829,-1.690115,1.432543,0.978122,0.263270,1.283235,0.496405,2.413125,5.382921,-7.997866,2.220283,4.769768,-14.513806,-43.928601,0.066026,-0.171774,0.000000,-1.049584,-0.755370,-0.000000
1.860000,-1.847039,0.572635,-1.687361,1.445644,0.982686,0.287512,1.337303,0.415704,2.433132,5.430287,-8.143317,1.772548,4.169715,-13.960391,-45.532506,0.055392,-0.179336,0.000000,-1.077148,-0.753718,0.000000
1.870000,-1.832516,0.582483,-1.684364,1.459289,0.986436,0.311932,1.391841,0.333538,2.448576,5.466316,-8.277074,1.309633,1.892976,-11.291019,-46.824942,0.044491,-0.186866,0.000000,-1.101016,-0.748667,-0.000000
1.880000,-1.817853,0.592364,-1.681123,1.473481,0.989357,0.336484,1.446629,0.250162,2.459325,5.468147,-8.369138,0.836049,-1.435844,-7.202798,-47.793441,0.033380,-0.194319,0.000000,-1.116930,-0.737298,0.000000
1.890000,-1.803046,0.602270,-1.677635,1.488221,0.991439,0.361119,1.501204,0.166156,2.465297,5.437599,-8.421130,0.353764,-3.681598,-4.489092,-48.730282,0.022161,-0.201616,0.000000,-1.124976,-0.719928,-0.000000
1.900000,-1.788089,0.612193,-1.673900,1.503505,0.992680,0.385790,1.555381,0.081740,2.466400,5.394515,-8.458920,-0.138557,-5.615585,-2.264188,-49.740386,0.010889,-0.208716,0.000000,-1.128562,-0.699183,0.000000
1.910000,-1.772976,0.622123,-1.669919,1.519329,0.993074,0.410447,1.609094,-0.003023,2.462526,5.325287,-8.466414,-0.641044,-8.557177,1.216846,-50.605926,-0.000402,-0.215596,0.000000,-1.125518,-0.673375,-0.000000
1.920000,-1.757702,0.632054,-1.665691,1.535687,0.992619,0.435040,1.661887,-0.087589,2.453579,5.223371,-8.434583,-1.150675,-9.945907,2.932319,-51.053163,-0.011613,-0.222180,0.000000,-1.114726,-0.641901,0.000000
1.930000,-1.742262,0.641976,-1.661218,1.552567,0.991322,0.459519,1.713561,-0.171714,2.439513,5.126369,-8.407768,-1.662107,-9.275029,2.218793,-51.124682,-0.022688,-0.228432,0.000000,-1.102197,-0.609963,0.000000
1.940000,-1.726651,0.651880,-1.656501,1.569958,0.989185,0.483831,1.764414,-0.255744,2.420337,5.037871,-8.390207,-2.173169,-10.141516,3.338952,-51.168667,-0.033649,-0.234380,0.000000,-1.088571,-0.578218,0.000000
1.950000,-1.710863,0.661760,-1.651542,1.587855,0.986207,0.507925,1.814319,-0.339519,2.396049,4.923539,-8.340988,-2.685481,-12.427406,6.162456,-51.319883,-0.044453,-0.240000,0.000000,-1.068657,-0.542399,0.000000
1.960000,-1.694894,0.671605,-1.646342,1.606245,0.982395,0.531752,1.862885,-0.422564,2.366627,4.789322,-8.266958,-3.199567,-13.714282,7.820956,-51.329453,-0.055016,-0.245237,0.000000,-1.043628,-0.503504,-0.000000
1.970000,-1.678738,0.681407,-1.640907,1.625113,0.977756,0.555258,1.910105,-0.504858,2.332058,4.649253,-8.184569,-3.712070,-15.329618,9.886072,-50.842922,-0.065320,-0.250084,0.000000,-1.015866,-0.463627,0.000000
1.980000,-1.662392,0.691160,-1.635237,1.644447,0.972297,0.578393,1.955870,-0.586255,2.292386,4.482730,-8.069236,-4.216425,-18.155085,13.409511,-49.921088,-0.075329,-0.254529,0.000000,-0.982586,-0.420625,-0.000000
1.990000,-1.645849,0.700853,-1.629339,1.664230,0.966031,0.601106,1.999760,-0.666242,2.247729,4.286151,-7.916379,-4.710491,-20.145063,15.967494,-49.030270,-0.084968,-0.258522,0.000000,-0.943675,-0.374430,-0.000000
2.000000,-1.629107,0.710480,-1.623215,1.684442,0.958973,0.623347,2.041593,-0.744583,2.198176,4.079829,-7.749886,-5.197030,-21.120943,17.305010,-48.287789,-0.094200,-0.262046,0.000000,-0.902476,-0.327721,0.000000
2.010000,-1.612161,0.720033,-1.616872,1.705062,0.951139,0.645069,2.081356,-0.821240,2.143789,3.863732,-7.570279,-5.676247,-22.482177,19.083561,-47.376379,-0.103016,-0.265107,0.000000,-0.859337,-0.280677,-0.000000
2.020000,-1.595006,0.729503,-1.610314,1.726069,0.942548,0.666223,2.118868,-0.895988,2.084651,3.630185,-7.368215,-6.144558,-23.927046,21.070802,-46.032775,-0.111387,-0.267692,0.000000,-0.813479,-0.232690,-0.000000
2.030000,-1.577639,0.738884,-1.603547,1.747439,0.933219,0.686762,2.153960,-0.968604,2.020898,3.385192,-7.148863,-6.596903,-24.928023,22.656335,-44.356862,-0.119286,-0.269793,0.000000,-0.765919,-0.184839,0.000000
2.040000,-1.560057,0.748168,-1.596579,1.769148,0.923176,0.706641,2.186571,-1.038966,1.952713,3.131625,-6.915089,-7.031695,-26.014931,24.290974,-42.693575,-0.126706,-0.271418,0.000000,-0.717304,-0.137658,0.000000
2.050000,-1.542256,0.757347,-1.589414,1.791171,0.912440,0.725816,2.216592,-1.106906,1.880264,2.864893,-6.663043,-7.450774,-27.392092,26.110838,-41.112851,-0.133635,-0.272572,0.000000,-0.667423,-0.090675,-0.000000
2.060000,-1.524234,0.766416,-1.582062,1.813480,0.901038,0.744246,2.243869,-1.172227,1.803698,2.583783,-6.392872,-7.853952,-28.662343,27.769585,-39.391228,-0.140058,-0.273252,0.000000,-0.616552,-0.043875,0.000000
2.070000,-1.505987,0.775368,-1.574530,1.836048,0.888995,0.761890,2.268268,-1.234764,1.723185,2.291646,-6.107652,-8.238599,-29.525867,29.171451,-37.381581,-0.145969,-0.273463,0.000000,-0.565295,0.002177,-0.000000
2.080000,-1.487513,0.784196,-1.566824,1.858845,0.876342,0.778710,2.289702,-1.294380,1.638926,1.993266,-5.809443,-8.601584,-30.106345,30.405091,-35.161287,-0.151368,-0.273213,0.000000,-0.514096,0.046785,0.000000
2.090000,-1.468810,0.792895,-1.558955,1.881842,0.863108,0.794669,2.308133,-1.350952,1.551153,1.689519,-5.499550,-8.941824,-30.768775,31.554248,-32.932050,-0.156255,-0.272521,0.000000,-0.463261,0.089806,0.000000
2.100000,-1.449876,0.801458,-1.550931,1.905008,0.849323,0.809733,2.323493,-1.404371,1.460089,1.377890,-5.178358,-9.260225,-31.519074,32.739959,-30.749136,-0.160637,-0.271400,0.000000,-0.412937,0.131549,0.000000
2.110000,-1.430710,0.809881,-1.542761,1.928312,0.835020,0.823871,2.335691,-1.454520,1.365949,1.059138,-4.844751,-9.556807,-32.110537,33.885288,-28.490708,-0.164519,-0.269860,0.000000,-0.363081,0.171940,-0.000000
2.120000,-1.411310,0.818159,-1.534454,1.951722,0.820233,0.837052,2.344675,-1.501266,1.268953,0.735679,-4.500652,-9.830039,-32.542070,34.581765,-26.043731,-0.167904,-0.267919,0.000000,-0.313987,0.210703,-0.000000
2.130000,-1.391675,0.826286,-1.526020,1.975205,0.804995,0.849250,2.350405,-1.544533,1.169348,0.408296,-4.153115,-10.077682,-32.888420,34.821852,-23.462533,-0.170804,-0.265591,0.000000,-0.266492,0.247743,-0.000000
2.140000,-1.371806,0.834259,-1.517469,1.998730,0.789342,0.860439,2.352841,-1.584328,1.067400,0.077911,-3.804215,-10.299290,-33.127002,35.151342,-20.914432,-0.173239,-0.262895,0.000000,-0.220803,0.283021,-0.000000
2.150000,-1.351701,0.842073,-1.508811,2.022262,0.773309,0.870598,2.351963,-1.620617,0.963362,-0.254244,-3.450089,-10.495970,-33.308928,35.697139,-18.398925,-0.175225,-0.259849,0.000000,-0.176449,0.316522,-0.000000
2.160000,-1.331360,0.849725,-1.500057,2.045769,0.756930,0.879706,2.347756,-1.653330,0.857480,-0.588268,-3.090272,-10.667268,-33.445034,36.078210,-15.824309,-0.176772,-0.256470,0.000000,-0.133362,0.348336,-0.000000
2.170000,-1.310785,0.857211,-1.491217,2.069217,0.740242,0.887747,2.340198,-1.682422,0.750017,-0.923144,-2.728524,-10.812457,-33.343216,36.029608,-13.252072,-0.177896,-0.252775,0.000000,-0.091903,0.378434,0.000000
2.180000,-1.289976,0.864530,-1.482302,2.092573,0.723281,0.894707,2.329294,-1.707900,0.641231,-1.255132,-2.369680,-10.932310,-32.984346,35.670307,-10.738357,-0.178615,-0.248783,0.000000,-0.052469,0.406566,-0.000000
2.190000,-1.268934,0.871677,-1.473323,2.115803,0.706084,0.900572,2.315095,-1.729816,0.531370,-1.582831,-2.015118,-11.027224,-32.635238,35.330798,-8.213838,-0.178950,-0.244516,0.000000,-0.015098,0.432720,-0.000000
2.200000,-1.247660,0.878651,-1.464290,2.138875,0.688685,0.905334,2.297637,-1.748203,0.420687,-1.907837,-1.663064,-11.096586,-32.375630,35.054695,-5.625087,-0.178920,-0.239991,0.000000,0.020463,0.457160,0.000000
2.210000,-1.226156,0.885451,-1.455216,2.161756,0.671120,0.908986,2.276938,-1.763077,0.309439,-2.230344,-1.314024,-11.139726,-32.021540,34.623090,-3.042872,-0.178544,-0.235227,0.000000,0.054238,0.480003,0.000000
2.220000,-1.204425,0.892074,-1.446111,2.184414,0.653424,0.911523,2.253030,-1.774483,0.197892,-2.548268,-0.970602,-11.157444,-31.407496,33.936858,-0.631939,-0.177839,-0.230239,0.000000,0.086088,0.501181,0.000000
2.230000,-1.182468,0.898519,-1.436985,2.206817,0.635630,0.912944,2.225973,-1.782489,0.086290,-2.858494,-0.635287,-11.152364,-30.592630,33.066109,1.603821,-0.176825,-0.225044,0.000000,0.115926,0.520570,0.000000
2.240000,-1.160288,0.904786,-1.427852,2.228933,0.617774,0.913249,2.195860,-1.787189,-0.025155,-3.160120,-0.309280,-11.125367,-29.794086,32.136332,3.864696,-0.175523,-0.219664,0.000000,0.143757,0.538218,0.000000
2.250000,-1.137889,0.910875,-1.418720,2.250734,0.599887,0.912440,2.162771,-1.788675,-0.136218,-3.454376,0.007439,-11.075070,-29.042589,31.200541,6.228116,-0.173952,-0.214113,0.000000,0.169658,0.554326,-0.000000
2.260000,-1.115274,0.916784,-1.409603,2.272189,0.582000,0.910524,2.126773,-1.787040,-0.246657,-3.740972,0.314731,-11.000805,-28.197922,30.179343,8.538647,-0.172132,-0.208408,0.000000,0.193706,0.568961,-0.000000
2.270000,-1.092445,0.922515,-1.400510,2.293269,0.564146,0.907507,2.087951,-1.782380,-0.356234,-4.018334,0.611026,-10.904297,-27.207216,28.931667,10.576413,-0.170080,-0.202564,0.000000,0.215881,0.582118,-0.000000
2.280000,-1.069408,0.928067,-1.391453,2.313948,0.546353,0.903399,2.046406,-1.774819,-0.464743,-4.285116,0.893364,-10.789277,-26.122739,27.484296,12.367885,-0.167815,-0.196596,0.000000,0.236068,0.593842,0.000000
2.290000,-1.046167,0.933442,-1.382442,2.334197,0.528649,0.898212,2.002249,-1.764513,-0.572019,-4.540789,1.160712,-10.656940,-25.014869,26.036731,14.188057,-0.165360,-0.190518,0.000000,0.254283,0.604196,-0.000000
2.300000,-1.022724,0.938640,-1.373489,2.353993,0.511062,0.891959,1.955590,-1.751605,-0.677881,-4.785414,1.414099,-10.505516,-23.891693,24.625430,16.125021,-0.162731,-0.184345,0.000000,0.270684,0.613239,0.000000
2.310000,-0.999087,0.943663,-1.364603,2.373309,0.493617,0.884655,1.906541,-1.736231,-0.782130,-5.018623,1.653221,-10.334439,-22.715270,23.125108,17.978725,-0.159947,-0.178089,0.000000,0.285320,0.621014,0.000000
2.320000,-0.975258,0.948512,-1.355795,2.392124,0.476338,0.876317,1.855218,-1.718541,-0.884570,-5.239719,1.876601,-10.145941,-21.476123,21.486033,19.514908,-0.157025,-0.171764,0.000000,0.298170,0.627578,-0.000000
2.330000,-0.951244,0.953190,-1.347077,2.410414,0.459246,0.866963,1.801746,-1.698699,-0.985048,-5.448145,2.082942,-9.944141,-20.195504,19.759210,20.781376,-0.153983,-0.165380,0.000000,0.309253,0.633013,-0.000000
2.340000,-0.927050,0.957697,-1.338456,2.428158,0.442364,0.856616,1.746255,-1.676882,-1.083453,-5.643629,2.271785,-9.730314,-18.894534,18.017527,22.076374,-0.150840,-0.158951,0.000000,0.318613,0.637375,-0.000000
2.350000,-0.902681,0.962037,-1.329944,2.445339,0.425709,0.845294,1.688874,-1.653263,-1.179655,-5.826036,2.443292,-9.502614,-17.566180,16.268235,23.478131,-0.147611,-0.152486,0.000000,0.326304,0.640681,0.000000
2.360000,-0.878143,0.966211,-1.321550,2.461936,0.409299,0.833022,1.629734,-1.628016,-1.273505,-5.994953,2.597150,-9.260751,-16.206514,14.475940,24.778511,-0.144313,-0.145995,0.000000,0.332355,0.642948,0.000000
2.370000,-0.853442,0.970223,-1.313284,2.477933,0.393148,0.819824,1.568975,-1.601320,-1.364870,-6.150166,2.732811,-9.007043,-14.854314,12.644858,25.783618,-0.140964,-0.139490,0.000000,0.336804,0.644241,-0.000000
2.380000,-0.828585,0.974074,-1.305154,2.493315,0.377272,0.805725,1.506731,-1.573360,-1.453646,-6.292039,2.850047,-8.745079,-13.522716,10.800701,26.553073,-0.137577,-0.132980,0.000000,0.339724,0.644678,0.000000
2.390000,-0.803576,0.977768,-1.297169,2.508068,0.361681,0.790751,1.443134,-1.544319,-1.539771,-6.420620,2.948825,-8.475982,-12.168866,8.950919,27.335935,-0.134168,-0.126472,0.000000,0.341167,0.644307,0.000000
2.400000,-0.778423,0.981308,-1.289339,2.522178,0.346386,0.774930,1.378318,-1.514383,-1.623166,-6.535416,3.029065,-8.198360,-10.767135,7.076808,28.186743,-0.130753,-0.119975,0.000000,0.341146,0.643101,-0.000000
2.410000,-0.753132,0.984696,-1.281671,2.535634,0.331394,0.758288,1.312425,-1.483738,-1.703738,-6.635963,3.090361,-7.912247,-9.357099,5.188553,28.937988,-0.127345,-0.113498,0.000000,0.339666,0.641054,-0.000000
2.420000,-0.727710,0.987936,-1.274173,2.548427,0.316711,0.740855,1.245599,-1.452576,-1.781411,-6.722558,3.132836,-7.619600,-8.020187,3.363940,29.463436,-0.123959,-0.107048,0.000000,0.336789,0.638236,-0.000000
2.430000,-0.702164,0.991030,-1.266854,2.560546,0.302342,0.722660,1.177974,-1.421081,-1.856130,-6.796367,3.157640,-7.322978,-6.754302,1.615918,29.817189,-0.120608,-0.100633,0.000000,0.332663,0.634791,-0.000000
2.440000,-0.676500,0.993983,-1.259720,2.571986,0.288289,0.703732,1.109672,-1.389423,-1.927870,-6.857644,3.165155,-7.023256,-5.460231,-0.146275,30.164438,-0.117305,-0.094258,0.000000,0.327346,0.630757,0.000000
2.450000,-0.650724,0.996796,-1.252779,2.582740,0.274554,0.684102,1.040821,-1.357778,-1.996596,-6.905571,3.154714,-6.719690,-4.112873,-1.954752,30.537265,-0.114060,-0.087929,0.000000,0.320793,0.626073,0.000000
2.460000,-0.624845,0.999474,-1.246038,2.592803,0.261134,0.663800,0.971560,-1.326329,-2.062264,-6.939902,3.126060,-6.412511,-2.787328,-3.734223,30.829926,-0.110888,-0.081653,0.000000,0.312999,0.620730,-0.000000
2.470000,-0.598868,1.002019,-1.239503,2.602171,0.248027,0.642857,0.902023,-1.295257,-2.124846,-6.961318,3.080030,-6.103091,-1.553148,-5.387045,30.975997,-0.107799,-0.075436,0.000000,0.304057,0.614803,-0.000000
2.480000,-0.572801,1.004434,-1.233181,2.610843,0.235229,0.621303,0.832334,-1.264729,-2.184326,-6.970965,3.018319,-5.792991,-0.393698,-6.924633,31.015242,-0.104806,-0.069283,0.000000,0.294127,0.608402,-0.000000
2.490000,-0.546651,1.006723,-1.227077,2.618818,0.222732,0.599171,0.762604,-1.234891,-2.240706,-6.969192,2.941537,-5.482786,0.773142,-8.461652,31.039469,-0.101916,-0.063199,0.000000,0.283264,0.601555,-0.000000
2.500000,-0.520425,1.008889,-1.221197,2.626095,0.210531,0.576489,0.692950,-1.205898,-2.293982,-6.955502,2.849086,-5.172202,1.968723,-10.024998,31.058319,-0.099139,-0.057187,0.000000,0.271417,0.594220,-0.000000
2.510000,-0.494129,1.010934,-1.215547,2.632677,0.198614,0.553291,0.623494,-1.177909,-2.344150,-6.929818,2.741037,-4.861620,3.131993,-11.526766,31.018881,-0.096486,-0.051254,0.000000,0.258594,0.586390,0.000000
2.520000,-0.467771,1.012861,-1.210131,2.638565,0.186973,0.529606,0.554354,-1.151077,-2.391214,-6.892862,2.618550,-4.551824,4.199299,-12.885433,30.916491,-0.093966,-0.045403,0.000000,0.244890,0.578122,0.000000
2.530000,-0.441358,1.014674,-1.204955,2.643764,0.175593,0.505467,0.485637,-1.125538,-2.435186,-6.845832,2.483329,-4.243290,5.183422,-14.118677,30.779050,-0.091588,-0.039639,0.000000,0.230441,0.569510,0.000000
2.540000,-0.414896,1.016373,-1.200022,2.648278,0.164462,0.480903,0.417437,-1.101410,-2.476080,-6.789194,2.336177,-3.936243,6.162179,-15.321100,30.619138,-0.089357,-0.033963,0.000000,0.215302,0.560583,0.000000
2.550000,-0.388393,1.017963,-1.195337,2.652112,0.153565,0.455945,0.349853,-1.078814,-2.513911,-6.722588,2.176907,-3.630907,7.161702,-16.521873,30.418452,-0.087281,-0.028381,0.000000,0.199448,0.551303,-0.000000
2.560000,-0.361854,1.019444,-1.190903,2.655275,0.142886,0.430624,0.282985,-1.057872,-2.548698,-6.645960,2.005739,-3.327874,8.125101,-17.648778,30.179608,-0.085367,-0.022894,0.000000,0.182890,0.541657,0.000000
2.570000,-0.335287,1.020820,-1.186724,2.657772,0.132407,0.404971,0.216934,-1.038700,-2.580468,-6.560086,1.823931,-3.027315,8.979608,-18.612076,29.969564,-0.083622,-0.017506,0.000000,0.165713,0.531696,-0.000000
2.580000,-0.308698,1.022093,-1.182804,2.659613,0.122112,0.379015,0.151784,-1.021394,-2.609244,-6.466367,1.633498,-2.728483,9.739296,-19.425133,29.801348,-0.082052,-0.012221,0.000000,0.148060,0.521520,0.000000
2.590000,-0.282095,1.023263,-1.179144,2.660808,0.111979,0.352786,0.087606,-1.006030,-2.635038,-6.365300,1.435428,-2.431288,10.496861,-20.198349,29.592853,-0.080660,-0.007039,0.000000,0.129990,0.511155,-0.000000
2.600000,-0.255482,1.024332,-1.175748,2.661366,0.101991,0.326314,0.024478,-0.992685,-2.657870,-6.256430,1.229531,-2.136626,11.268457,-20.965740,29.303746,-0.079452,-0.001963,0.000000,0.111475,0.500555,0.000000
2.610000,-0.228867,1.025303,-1.172618,2.661297,0.092126,0.299629,-0.037522,-0.981439,-2.677771,-6.139931,1.016114,-1.845213,11.989880,-21.646340,29.000182,-0.078430,0.003005,0.000000,0.092526,0.489717,-0.000000
2.620000,-0.202256,1.026175,-1.169755,2.660615,0.082362,0.272759,-0.098321,-0.972363,-2.694774,-6.016633,0.796604,-1.556622,12.624883,-22.147085,28.796507,-0.077601,0.007863,0.000000,0.073232,0.478693,0.000000
2.630000,-0.175655,1.026950,-1.167163,2.659331,0.072678,0.245733,-0.157855,-0.965507,-2.708903,-5.887433,0.573172,-1.269283,13.193276,-22.488935,28.684745,-0.076965,0.012609,0.000000,0.053736,0.467542,-0.000000
2.640000,-0.149070,1.027628,-1.164841,2.657458,0.063052,0.218581,-0.216070,-0.960899,-2.720160,-5.752767,0.346825,-0.982927,13.738791,-22.788543,28.520217,-0.076526,0.017242,0.000000,0.034095,0.456286,-0.000000
2.650000,-0.122506,1.028211,-1.162791,2.655010,0.053460,0.191330,-0.272910,-0.958571,-2.728562,-5.612657,0.117401,-0.698879,14.269045,-23.060829,28.250798,-0.076283,0.021762,0.000000,0.014280,0.444909,-0.000000
2.660000,-0.095970,1.028698,-1.161014,2.652000,0.043881,0.164010,-0.328323,-0.958551,-2.734138,-5.467386,-0.114391,-0.417911,14.754650,-23.224675,27.982227,-0.076240,0.026167,0.000000,-0.005669,0.433419,0.000000
2.670000,-0.069466,1.029088,-1.159511,2.648443,0.034289,0.136647,-0.382258,-0.960858,-2.736920,-5.317564,-0.347093,-0.139234,15.174523,-23.247033,27.852073,-0.076397,0.030457,0.000000,-0.025664,0.421849,0.000000
2.680000,-0.043001,1.029383,-1.158281,2.644355,0.024664,0.109271,-0.434674,-0.965493,-2.736922,-5.163896,-0.579332,0.139130,15.538452,-23.149592,27.836322,-0.076753,0.034630,0.000000,-0.045632,0.410246,0.000000
2.690000,-0.016579,1.029582,-1.157325,2.639750,0.014980,0.081909,-0.485536,-0.972445,-2.734137,-5.006795,-0.810084,0.417492,15.873433,-22.969677,27.757735,-0.077309,0.038687,0.000000,-0.065517,0.398629,-0.000000
2.700000,0.009794,1.029683,-1.156643,2.634644,0.005215,0.054588,-0.534810,-0.981695,-2.728572,-4.846427,-1.038725,0.694285,16.180850,-22.737960,27.565850,-0.078064,0.042627,0.000000,-0.085282,0.386995,-0.000000
2.710000,0.036114,1.029686,-1.156234,2.629053,-0.004654,0.027337,-0.582464,-0.993220,-2.720252,-4.683178,-1.264844,0.968809,16.443437,-22.426741,27.384124,-0.079015,0.046451,0.000000,-0.104913,0.375355,0.000000
2.720000,0.062375,1.029590,-1.156096,2.622995,-0.014650,0.000183,-0.628474,-1.006992,-2.709196,-4.517558,-1.487260,1.241967,16.660645,-21.942477,27.336072,-0.080163,0.050159,0.000000,-0.124344,0.363739,-0.000000
2.730000,0.088574,1.029393,-1.156230,2.616484,-0.024794,-0.026846,-0.672816,-1.022965,-2.695412,-4.349965,-1.703693,1.515531,16.839442,-21.286074,27.386977,-0.081503,0.053750,0.000000,-0.143429,0.352171,0.000000
2.740000,0.114705,1.029094,-1.156633,2.609538,-0.035109,-0.053725,-0.715473,-1.041066,-2.678886,-4.180769,-1.912982,1.789707,16.980024,-20.585461,27.376174,-0.083032,0.057226,0.000000,-0.162098,0.340669,-0.000000
2.750000,0.140765,1.028691,-1.157304,2.602175,-0.045615,-0.080424,-0.756431,-1.061224,-2.659618,-4.010365,-2.115402,2.063054,17.079660,-19.890614,27.263041,-0.084745,0.060588,0.000000,-0.180383,0.329245,0.000000
2.760000,0.166749,1.028182,-1.158242,2.594410,-0.056334,-0.106917,-0.795680,-1.083374,-2.637625,-3.839176,-2.310794,2.334968,17.139486,-19.113260,27.155393,-0.086640,0.063835,0.000000,-0.198289,0.317916,0.000000
2.770000,0.192653,1.027564,-1.159443,2.586261,-0.067283,-0.133177,-0.833215,-1.107440,-2.612919,-3.667575,-2.497668,2.606162,17.166722,-18.136608,27.147384,-0.088712,0.066970,0.000000,-0.215719,0.306701,-0.000000
2.780000,0.218474,1.026836,-1.160905,2.577745,-0.078482,-0.159176,-0.869032,-1.133327,-2.585501,-3.495842,-2.673526,2.877915,17.161247,-16.987302,27.204895,-0.090955,0.069994,0.000000,-0.232501,0.295616,-0.000000
2.790000,0.244208,1.025994,-1.162626,2.568880,-0.089949,-0.184887,-0.903131,-1.160911,-2.555360,-3.324350,-2.837414,3.150260,17.114460,-15.822524,27.202432,-0.093362,0.072908,0.000000,-0.248575,0.284681,-0.000000
2.800000,0.269851,1.025037,-1.164603,2.559683,-0.101701,-0.210283,-0.935519,-1.190075,-2.522496,-3.153553,-2.989977,3.421964,17.030427,-14.669678,27.110656,-0.095927,0.075713,0.000000,-0.263999,0.273911,0.000000
2.810000,0.295401,1.023960,-1.166832,2.550170,-0.113751,-0.235337,-0.966202,-1.220710,-2.486921,-2.983742,-3.130807,3.692473,16.915373,-13.426269,27.010146,-0.098643,0.078412,0.000000,-0.278748,0.263315,-0.000000
2.820000,0.320855,1.022762,-1.169310,2.540359,-0.126115,-0.260021,-0.995193,-1.252691,-2.448647,-2.815245,-3.258502,3.962167,16.757292,-12.044793,26.962269,-0.101503,0.081005,0.000000,-0.292723,0.252909,-0.000000
2.830000,0.346209,1.021438,-1.172032,2.530266,-0.138805,-0.284310,-1.022507,-1.285880,-2.407678,-2.648596,-3.371703,4.231718,16.553786,-10.558964,26.936790,-0.104499,0.083496,0.000000,-0.305828,0.242730,0.000000
2.840000,0.371460,1.019986,-1.174996,2.519909,-0.151832,-0.308175,-1.048165,-1.320126,-2.364012,-2.484169,-3.469681,4.500903,16.323173,-9.033263,26.848430,-0.107621,0.085887,0.000000,-0.318010,0.232797,0.000000
2.850000,0.396607,1.018402,-1.178196,2.509303,-0.165207,-0.331590,-1.072191,-1.355274,-2.317660,-2.322132,-3.552368,4.768687,16.070858,-7.504680,26.688243,-0.110860,0.088179,0.000000,-0.329258,0.223104,-0.000000
2.860000,0.421646,1.016682,-1.181628,2.498465,-0.178938,-0.354528,-1.094608,-1.391173,-2.268639,-2.162752,-3.619775,5.034668,15.785061,-5.934291,26.506447,-0.114207,0.090377,0.000000,-0.339570,0.213663,-0.000000
2.870000,0.446576,1.014823,-1.185286,2.487411,-0.193031,-0.376963,-1.115446,-1.427669,-2.216966,-2.006431,-3.671054,5.298816,15.457060,-4.228122,26.306676,-0.117653,0.092481,0.000000,-0.348875,0.204495,0.000000
2.880000,0.471394,1.012821,-1.189167,2.476156,-0.207491,-0.398867,-1.134737,-1.464594,-2.162662,-1.853611,-3.704337,5.560801,15.090850,-2.397846,26.063193,-0.121186,0.094495,0.000000,-0.357013,0.195625,-0.000000
2.890000,0.496099,1.010673,-1.193264,2.464716,-0.222323,-0.420216,-1.152518,-1.501756,-2.105750,-1.704614,-3.719011,5.820080,14.699058,-0.580304,25.766593,-0.124794,0.096422,0.000000,-0.363917,0.187068,-0.000000
2.900000,0.520689,1.008375,-1.197571,2.453105,-0.237526,-0.440982,-1.168829,-1.538974,-2.046261,-1.559630,-3.715943,6.076133,14.287730,1.180281,25.435061,-0.128465,0.098266,0.000000,-0.369641,0.178829,-0.000000
2.910000,0.545161,1.005922,-1.202083,2.441339,-0.253102,-0.461141,-1.183711,-1.576075,-1.984228,-1.418860,-3.695405,6.328781,13.849262,2.970123,25.065453,-0.132188,0.100029,0.000000,-0.374189,0.170915,-0.000000
2.920000,0.569515,1.003313,-1.206794,2.429431,-0.269048,-0.480667,-1.197206,-1.612882,-1.919685,-1.282645,-3.656541,6.577442,13.369649,4.874045,24.594756,-0.135950,0.101714,0.000000,-0.377465,0.163345,0.000000
2.930000,0.593750,1.000541,-1.211697,2.417395,-0.285360,-0.499535,-1.209363,-1.649206,-1.852679,-1.151467,-3.597924,6.820676,12.847630,6.861131,24.011505,-0.139738,0.103326,0.000000,-0.379309,0.156142,0.000000
2.940000,0.617863,0.997605,-1.216785,2.405244,-0.302032,-0.517720,-1.220235,-1.684841,-1.783272,-1.025692,-3.519318,7.057672,12.304964,8.808175,23.394299,-0.143537,0.104868,0.000000,-0.379658,0.149326,0.000000
2.950000,0.641855,0.994501,-1.222051,2.392990,-0.319057,-0.535200,-1.229877,-1.719592,-1.711525,-0.905367,-3.421761,7.288562,11.777139,10.675439,22.783582,-0.147332,0.106343,0.000000,-0.378567,0.142897,-0.000000
2.960000,0.665723,0.991224,-1.227489,2.380646,-0.336424,-0.551951,-1.238343,-1.753276,-1.637500,-0.790149,-3.305810,7.513344,11.248548,12.536591,22.117111,-0.151109,0.107757,0.000000,-0.376046,0.136826,-0.000000
2.970000,0.689468,0.987772,-1.233090,2.368224,-0.354122,-0.567950,-1.245680,-1.785708,-1.561258,-0.680396,-3.171029,7.730904,10.623976,14.467625,21.282227,-0.154853,0.109111,0.000000,-0.372000,0.131131,0.000000
2.980000,0.713088,0.984142,-1.238848,2.355733,-0.372138,-0.583176,-1.251951,-1.816697,-1.482882,-0.577670,-3.016457,7.938988,9.904101,16.433451,20.284773,-0.158549,0.110411,0.000000,-0.366266,0.125924,-0.000000
2.990000,0.736582,0.980330,-1.244754,2.343185,-0.390456,-0.597608,-1.257234,-1.846038,-1.402479,-0.482314,-2.842360,8.136600,9.223079,18.320325,19.269925,-0.162179,0.111662,0.000000,-0.358794,0.121228,-0.000000
3.000000,0.759951,0.976333,-1.250800,2.330588,-0.409059,-0.611226,-1.261597,-1.873544,-1.320150,-0.393208,-2.650051,8.324387,8.618168,20.134841,18.305024,-0.165725,0.112868,0.000000,-0.349647,0.116956,-0.000000
3.010000,0.783194,0.972148,-1.256978,2.317953,-0.427927,-0.624011,-1.265098,-1.899039,-1.235991,-0.309951,-2.439663,8.502700,8.000392,21.938521,17.284321,-0.169172,0.114033,0.000000,-0.338779,0.113078,0.000000
3.020000,0.806310,0.967774,-1.263280,2.305286,-0.447040,-0.635945,-1.267796,-1.922337,-1.150096,-0.233200,-2.211280,8.670073,7.298562,23.669504,16.030098,-0.172501,0.115162,0.000000,-0.326106,0.109641,0.000000
3.030000,0.829300,0.963208,-1.269697,2.292597,-0.466374,-0.647013,-1.269762,-1.943264,-1.062590,-0.163980,-1.966273,8.823302,6.555557,25.290345,14.564885,-0.175694,0.116259,0.000000,-0.311622,0.106709,-0.000000
3.040000,0.852162,0.958447,-1.276220,2.279891,-0.485905,-0.657197,-1.271076,-1.961663,-0.973630,-0.102089,-1.705473,8.961371,5.865125,26.875087,13.124051,-0.178733,0.117329,0.000000,-0.295304,0.104260,-0.000000
3.050000,0.874898,0.953490,-1.282841,2.267175,-0.505607,-0.666485,-1.271804,-1.977374,-0.883362,-0.046677,-1.428771,9.085783,5.156736,28.452358,11.774849,-0.181599,0.118378,0.000000,-0.277083,0.102239,-0.000000
3.060000,0.897506,0.948335,-1.289550,2.254455,-0.525452,-0.674865,-1.272009,-1.990238,-0.791915,0.001046,-1.136426,9.196868,4.379648,29.956554,10.355877,-0.184273,0.119408,0.000000,-0.256897,0.100769,-0.000000
3.070000,0.919987,0.942980,-1.296338,2.241735,-0.545412,-0.682324,-1.271783,-2.000102,-0.699425,0.040916,-0.829640,9.292901,3.757459,31.304225,8.712801,-0.186735,0.120428,0.000000,-0.234734,0.099857,0.000000
3.080000,0.942341,0.937426,-1.303197,2.229019,-0.565454,-0.688853,-1.271191,-2.006831,-0.606056,0.076195,-0.510342,9.371124,3.318376,32.508317,6.890713,-0.188966,0.121441,0.000000,-0.210636,0.099182,-0.000000
3.090000,0.964567,0.931671,-1.310115,2.216311,-0.585548,-0.694445,-1.270259,-2.010309,-0.512002,0.107283,-0.179474,9.430715,2.755441,33.661531,5.094117,-0.190946,0.122448,0.000000,-0.184579,0.098694,0.000000
3.100000,0.986667,0.925715,-1.317085,2.203614,-0.605661,-0.699093,-1.269045,-2.010420,-0.417442,0.131304,0.162889,9.473006,2.046653,34.748641,3.396505,-0.192656,0.123451,0.000000,-0.156491,0.098683,0.000000
3.110000,1.008639,0.919558,-1.324097,2.190930,-0.625757,-0.702794,-1.267633,-2.007051,-0.322542,0.148216,0.515499,9.498645,1.402180,35.697986,1.661795,-0.194074,0.124458,0.000000,-0.126401,0.099171,-0.000000
3.120000,1.030485,0.913200,-1.331141,2.178261,-0.645802,-0.705544,-1.266081,-2.000110,-0.227469,0.159347,0.876849,9.506242,0.812665,36.541876,-0.287744,-0.195181,0.125473,0.000000,-0.094334,0.100026,-0.000000
3.130000,1.052205,0.906642,-1.338208,2.165609,-0.665759,-0.707343,-1.264446,-1.989514,-0.132417,0.164470,1.246336,9.492890,0.192526,37.283585,-2.411765,-0.195957,0.126498,0.000000,-0.060198,0.101240,0.000000
3.140000,1.073798,0.899885,-1.345288,2.152973,-0.685592,-0.708192,-1.262792,-1.975184,-0.037611,0.163198,1.622520,9.458007,-0.421871,37.861511,-4.465466,-0.196382,0.127537,0.000000,-0.024024,0.102848,0.000000
3.150000,1.095264,0.892930,-1.352372,2.140353,-0.705263,-0.708095,-1.261182,-1.957064,0.056743,0.156032,2.003567,9.403581,-0.927871,38.369180,-6.379351,-0.196434,0.128595,0.000000,0.014057,0.104832,0.000000
3.160000,1.116605,0.885780,-1.359450,2.127749,-0.724733,-0.707057,-1.259671,-1.935112,0.150460,0.144640,2.389904,9.330420,-1.359048,38.830092,-8.311524,-0.196097,0.129675,0.000000,0.054146,0.107042,0.000000
3.170000,1.137819,0.878436,-1.366513,2.115159,-0.743965,-0.705086,-1.258289,-1.909266,0.243351,0.128851,2.780168,9.237350,-1.971935,38.927674,-10.405310,-0.195348,0.130778,0.000000,0.096207,0.109479,-0.000000
3.180000,1.158908,0.870900,-1.373552,2.102583,-0.762918,-0.702190,-1.257094,-1.879509,0.335207,0.105202,3.168458,9.122314,-2.754727,38.621603,-12.600829,-0.194169,0.131907,0.000000,0.139760,0.112467,-0.000000
3.190000,1.179871,0.863177,-1.380557,2.090018,-0.781555,-0.698382,-1.256185,-1.845897,0.425798,0.073757,3.552600,8.985334,-3.354818,38.342957,-14.698336,-0.192548,0.133071,0.000000,0.184616,0.116010,0.000000
3.200000,1.200708,0.855269,-1.387519,2.077459,-0.799836,-0.693674,-1.255619,-1.808457,0.514914,0.038105,3.935317,8.828347,-3.790679,38.231537,-16.682278,-0.190472,0.134271,0.000000,0.231026,0.119770,-0.000000
3.210000,1.221420,0.847181,-1.394430,2.064905,-0.817724,-0.688084,-1.255423,-1.767190,0.602364,-0.002057,4.317231,8.651688,-4.291314,37.981923,-18.671720,-0.187923,0.135510,0.000000,0.279066,0.123776,-0.000000
3.220000,1.242006,0.838915,-1.401281,2.052351,-0.835180,-0.681627,-1.255660,-1.722112,0.687948,-0.047721,4.694955,8.454913,-4.716827,37.281075,-20.658809,-0.184886,0.136791,0.000000,0.328399,0.128124,-0.000000
3.230000,1.262467,0.830477,-1.408063,2.039792,-0.852166,-0.674325,-1.256377,-1.673291,0.771463,-0.096394,5.062853,8.238512,-4.969525,36.218482,-22.586472,-0.181351,0.138117,0.000000,0.378384,0.132550,-0.000000
3.240000,1.282802,0.821872,-1.414768,2.027223,-0.868646,-0.666198,-1.257588,-1.620855,0.852718,-0.147112,5.419325,8.003183,-5.257204,35.198796,-24.456897,-0.177314,0.139487,0.000000,0.428766,0.136944,0.000000
3.250000,1.303011,0.813104,-1.421387,2.014640,-0.884583,-0.657270,-1.259320,-1.564905,0.931526,-0.201538,5.766829,7.749374,-5.663632,34.288149,-26.293844,-0.172772,0.140900,0.000000,0.479719,0.141474,0.000000
3.260000,1.323095,0.804180,-1.427913,2.002037,-0.899944,-0.647567,-1.261618,-1.505519,1.007705,-0.260384,6.105088,7.477306,-6.035812,33.216268,-28.077069,-0.167716,0.142359,0.000000,0.531116,0.146208,0.000000
3.270000,1.343052,0.795105,-1.434338,1.989408,-0.914694,-0.637116,-1.264527,-1.442803,1.081072,-0.322254,6.431154,7.187833,-6.200970,31.847829,-29.722830,-0.162146,0.143865,0.000000,0.582489,0.150990,-0.000000
3.280000,1.362883,0.785886,-1.440655,1.976746,-0.928800,-0.625946,-1.268064,-1.376896,1.151462,-0.384404,6.742044,6.882850,-6.203340,30.267452,-31.215480,-0.156064,0.145419,0.000000,0.633314,0.155524,0.000000
3.290000,1.382587,0.776529,-1.446857,1.964047,-0.942232,-0.614087,-1.272215,-1.307962,1.218729,-0.446321,7.036503,6.563523,-6.263948,28.648575,-32.651018,-0.149478,0.147014,0.000000,0.683245,0.159738,-0.000000
3.300000,1.402164,0.767041,-1.452937,1.951302,-0.954959,-0.601571,-1.276990,-1.236165,1.282732,-0.509683,7.315016,6.229829,-6.404529,27.071487,-34.091996,-0.142397,0.148649,0.000000,0.732141,0.163792,-0.000000
3.310000,1.421613,0.757430,-1.458889,1.938507,-0.966955,-0.588432,-1.282409,-1.161662,1.343326,-0.574411,7.577933,5.881683,-6.475961,25.424950,-35.455072,-0.134834,0.150323,0.000000,0.779824,0.167648,0.000000
3.320000,1.440934,0.747702,-1.464706,1.925654,-0.978193,-0.574705,-1.288478,-1.084607,1.400366,-0.639202,7.823515,5.520728,-6.443224,23.496787,-36.549612,-0.126800,0.152032,0.000000,0.825831,0.171155,0.000000
3.330000,1.460126,0.737866,-1.470383,1.912737,-0.988647,-0.560425,-1.295193,-1.005191,1.453741,-0.703276,8.047868,5.150691,-6.361878,21.322369,-37.379260,-0.118317,0.153773,0.000000,0.869407,0.174257,0.000000
3.340000,1.479189,0.727929,-1.475914,1.899750,-0.998296,-0.545630,-1.302544,-0.923649,1.503380,-0.766439,8.249962,4.773143,-6.266661,19.200616,-38.185910,-0.109413,0.155541,0.000000,0.910149,0.176932,0.000000
3.350000,1.498121,0.717900,-1.481295,1.886686,-1.007120,-0.530357,-1.310522,-0.840192,1.549203,-0.828609,8.431881,4.386973,-6.124439,17.192345,-39.052058,-0.100116,0.157332,0.000000,0.948060,0.179123,0.000000
3.360000,1.516923,0.707787,-1.486521,1.873540,-1.015100,-0.514646,-1.319116,-0.755012,1.591119,-0.888928,8.593809,3.992102,-5.917286,15.107699,-39.799859,-0.090455,0.159141,0.000000,0.982904,0.180699,-0.000000
3.370000,1.535592,0.697598,-1.491588,1.860304,-1.022220,-0.498535,-1.328300,-0.668316,1.629046,-0.946955,8.734035,3.590976,-5.730160,12.852508,-40.213839,-0.080462,0.160960,0.000000,1.014202,0.181627,-0.000000
3.380000,1.554129,0.687343,-1.496492,1.846974,-1.028467,-0.482065,-1.338055,-0.580331,1.662939,-1.003531,8.850859,3.187825,-5.563007,10.506723,-40.329592,-0.070175,0.162784,0.000000,1.041482,0.182068,0.000000
3.390000,1.572531,0.677029,-1.501230,1.833543,-1.033827,-0.465276,-1.348371,-0.491299,1.692802,-1.058215,8.944169,2.784384,-5.300993,8.203410,-40.422631,-0.059637,0.164610,0.000000,1.064516,0.181993,-0.000000
3.400000,1.590799,0.666666,-1.505798,1.820006,-1.038293,-0.448209,-1.359219,-0.401448,1.718627,-1.109551,9.014928,2.379372,-5.006786,5.921486,-40.607331,-0.048890,0.166430,0.000000,1.083255,0.181190,0.000000
3.410000,1.608932,0.656263,-1.510194,1.806359,-1.041856,-0.430904,-1.370562,-0.311000,1.740389,-1.158350,9.062599,1.972237,-4.752938,3.593149,-40.687476,-0.037977,0.168237,0.000000,1.097487,0.179737,-0.000000
3.420000,1.626927,0.645829,-1.514416,1.792595,-1.044513,-0.413401,-1.382386,-0.220196,1.758071,-1.204610,9.086790,1.565623,-4.330491,1.319167,-40.362188,-0.026946,0.170026,0.000000,1.107028,0.177684,0.000000
3.430000,1.644783,0.635373,-1.518462,1.778711,-1.046260,-0.395742,-1.394654,-0.129264,1.771702,-1.244960,9.088982,1.164993,-3.698579,-0.856774,-39.681293,-0.015843,0.171791,0.000000,1.111971,0.174741,-0.000000
3.440000,1.662501,0.624904,-1.522331,1.764702,-1.047098,-0.377967,-1.407285,-0.038416,1.781371,-1.278582,9.069655,0.771997,-3.156312,-3.057110,-39.043644,-0.004713,0.173521,0.000000,1.112363,0.170856,-0.000000
3.450000,1.680078,0.614431,-1.526021,1.750565,-1.047028,-0.360115,-1.420226,0.052129,1.787142,-1.308087,9.027840,0.384121,-2.801209,-5.309522,-38.534052,0.006398,0.175207,0.000000,1.108110,0.166305,-0.000000
3.460000,1.697512,0.603963,-1.529533,1.736297,-1.046055,-0.342224,-1.433447,0.142141,1.789054,-1.334606,8.963465,0.001316,-2.428174,-7.512020,-37.883740,0.017443,0.176846,0.000000,1.099243,0.161244,0.000000
3.470000,1.714803,0.593510,-1.532866,1.721896,-1.044185,-0.324334,-1.446918,0.231398,1.787168,-1.356650,8.877600,-0.373554,-1.842405,-9.587094,-36.917940,0.028377,0.178432,0.000000,1.085980,0.155576,-0.000000
3.480000,1.731950,0.583079,-1.536020,1.707359,-1.041427,-0.306481,-1.460580,0.319693,1.781582,-1.371454,8.771723,-0.737043,-1.130912,-11.548265,-35.725564,0.039157,0.179958,0.000000,1.068640,0.149071,0.000000
3.490000,1.748951,0.572681,-1.538995,1.692685,-1.037792,-0.288702,-1.474347,0.406832,1.772427,-1.379268,8.646634,-1.088066,-0.547897,-13.474315,-34.533362,0.049745,0.181415,0.000000,1.047490,0.141818,-0.000000
3.500000,1.765804,0.562324,-1.541794,1.677872,-1.033291,-0.271032,-1.488166,0.492625,1.759821,-1.382412,8.502236,-1.427710,0.014376,-15.415603,-33.383191,0.060102,0.182798,0.000000,1.022689,0.134105,0.000000
3.510000,1.782508,0.552015,-1.544416,1.662921,-1.027939,-0.253506,-1.501995,0.576877,1.743873,-1.378981,8.338322,-1.755729,0.707057,-17.301356,-32.131683,0.070194,0.184102,0.000000,0.994406,0.125746,-0.000000
3.520000,1.799062,0.541765,-1.546864,1.647832,-1.021753,-0.236155,-1.515745,0.659392,1.724707,-1.368271,8.156209,-2.070344,1.172690,-18.959223,-30.690823,0.079987,0.185318,0.000000,0.963025,0.116735,-0.000000
3.530000,1.815465,0.531580,-1.549139,1.632606,-1.014751,-0.219012,-1.529361,0.740001,1.702466,-1.355527,7.959138,-2.369546,1.340774,-20.382950,-29.110774,0.089452,0.186444,0.000000,0.929164,0.107779,-0.000000
3.540000,1.831714,0.521470,-1.551244,1.617245,-1.006953,-0.202106,-1.542856,0.818575,1.677316,-1.341455,7.748550,-2.652559,1.708186,-21.790728,-27.516298,0.098568,0.187483,0.000000,0.893216,0.099007,0.000000
3.550000,1.847810,0.511441,-1.553181,1.601749,-0.998380,-0.185465,-1.556190,0.894972,1.649415,-1.321363,7.523323,-2.919872,2.318632,-23.303066,-25.956783,0.107315,0.188433,0.000000,0.855262,0.089881,-0.000000
3.560000,1.863749,0.501502,-1.554953,1.586121,-0.989054,-0.169117,-1.569283,0.969041,1.618918,-1.295083,7.282489,-3.171695,2.830267,-24.753933,-24.358924,0.115673,0.189291,0.000000,0.815394,0.080413,0.000000
3.570000,1.879532,0.491660,-1.556563,1.570364,-0.978999,-0.153087,-1.582091,1.040622,1.585981,-1.264758,7.028245,-3.407050,3.242851,-25.813022,-22.614793,0.123623,0.190053,0.000000,0.774076,0.070902,-0.000000
3.580000,1.895157,0.481922,-1.558015,1.554479,-0.968241,-0.137398,-1.594578,1.109606,1.550777,-1.230226,6.766229,-3.623991,3.679859,-26.512226,-20.762010,0.131154,0.190720,0.000000,0.732181,0.061398,-0.000000
3.590000,1.910622,0.472295,-1.559311,1.538472,-0.956807,-0.122071,-1.606696,1.175947,1.513501,-1.191161,6.498000,-3.822290,4.107020,-27.285049,-18.960316,0.138267,0.191292,0.000000,0.690052,0.051888,0.000000
3.600000,1.925926,0.462786,-1.560456,1.522345,-0.944722,-0.107128,-1.618401,1.239566,1.474331,-1.148085,6.220528,-4.003197,4.470130,-28.226498,-17.190491,0.144956,0.191768,0.000000,0.647455,0.042424,0.000000
3.610000,1.941069,0.453401,-1.561454,1.506104,-0.932016,-0.092585,-1.629658,1.300357,1.433437,-1.101758,5.933470,-4.166100,4.798458,-29.036827,-15.363413,0.151217,0.192149,0.000000,0.604489,0.033119,-0.000000
3.620000,1.956048,0.444146,-1.562308,1.489752,-0.918715,-0.078459,-1.640437,1.358235,1.391009,-1.052116,5.639791,-4.310466,5.190283,-29.510421,-13.592643,0.157048,0.192438,0.000000,0.561616,0.023987,0.000000
3.630000,1.970864,0.435027,-1.563023,1.473295,-0.904851,-0.064765,-1.650700,1.413153,1.347228,-0.997952,5.343262,-4.437953,5.630838,-29.740344,-11.933456,0.162452,0.192636,0.000000,0.519326,0.014863,0.000000
3.640000,1.985514,0.426049,-1.563603,1.456738,-0.890452,-0.051514,-1.660396,1.465101,1.302250,-0.939499,5.044984,-4.549135,5.986672,-29.985136,-10.239428,0.167437,0.192740,0.000000,0.477789,0.005769,0.000000
3.650000,1.999998,0.417217,-1.564053,1.440087,-0.875549,-0.038720,-1.669490,1.514053,1.256245,-0.878219,4.743559,-4.642742,6.292565,-30.291778,-8.440072,0.172010,0.192753,0.000000,0.436915,-0.003099,0.000000
3.660000,2.014316,0.408538,-1.564378,1.423348,-0.860171,-0.026389,-1.677960,1.559972,1.209396,-0.813648,4.439149,-4.717936,6.632101,-30.489522,-6.654511,0.176177,0.192678,0.000000,0.396777,-0.011779,0.000000
3.670000,2.028465,0.400014,-1.564581,1.406528,-0.844349,-0.014532,-1.685763,1.602836,1.161887,-0.745577,4.133769,-4.775832,6.873211,-30.466839,-5.070110,0.179948,0.192514,0.000000,0.357603,-0.020316,-0.000000
3.680000,2.042446,0.391651,-1.564668,1.389633,-0.828114,-0.003152,-1.692871,1.642647,1.113879,-0.676184,3.829812,-4.819338,6.978936,-30.283362,-3.668294,0.183332,0.192265,0.000000,0.319595,-0.028541,0.000000
3.690000,2.056258,0.383452,-1.564644,1.372671,-0.811496,0.007746,-1.699287,1.679432,1.065500,-0.605998,3.528101,-4.849198,7.136214,-30.085253,-2.215928,0.186342,0.191934,0.000000,0.282815,-0.036421,0.000000
3.700000,2.069900,0.375421,-1.564513,1.355647,-0.794526,0.018158,-1.704991,1.713209,1.016895,-0.533459,3.228107,-4.863657,7.373127,-29.883687,-0.650228,0.188990,0.191524,0.000000,0.247228,-0.044096,0.000000
3.710000,2.083371,0.367561,-1.564281,1.338571,-0.777232,0.028084,-1.709956,1.743994,0.968227,-0.458536,2.930428,-4.862202,7.560196,-29.588821,0.858475,0.191289,0.191037,0.000000,0.212890,-0.051568,0.000000
3.720000,2.096671,0.359876,-1.563952,1.321448,-0.759646,0.037523,-1.714162,1.771818,0.919651,-0.382255,2.636330,-4.846487,7.667950,-29.192938,2.144471,0.193250,0.190474,0.000000,0.179867,-0.058772,-0.000000
3.730000,2.109800,0.352368,-1.563531,1.304288,-0.741796,0.046477,-1.717601,1.796721,0.871297,-0.305177,2.346569,-4.819313,7.739295,-28.734442,3.249082,0.194888,0.189839,0.000000,0.148145,-0.065717,0.000000
3.740000,2.122757,0.345040,-1.563022,1.287096,-0.723711,0.054949,-1.720266,1.818749,0.823265,-0.227470,2.061641,-4.781506,7.803310,-28.226456,4.377125,0.196215,0.189135,0.000000,0.117717,-0.072415,-0.000000
3.750000,2.135542,0.337894,-1.562432,1.269882,-0.705421,0.062942,-1.722150,1.837953,0.775667,-0.149110,1.782040,-4.731770,7.867539,-27.662302,5.584266,0.197244,0.188363,0.000000,0.088619,-0.078854,0.000000
3.760000,2.148155,0.330932,-1.561763,1.252653,-0.686952,0.070462,-1.723248,1.854390,0.728629,-0.070119,1.508395,-4.669820,7.913613,-27.043202,6.724864,0.197989,0.187527,0.000000,0.060876,-0.085038,-0.000000
3.770000,2.160595,0.324155,-1.561022,1.235417,-0.668333,0.077515,-1.723553,1.868121,0.682270,0.009162,1.241176,-4.597273,7.909214,-26.396461,7.649837,0.198463,0.186629,0.000000,0.034456,-0.090978,-0.000000
3.780000,2.172863,0.317565,-1.560213,1.218182,-0.649590,0.084108,-1.723065,1.879213,0.636684,0.088065,0.980466,-4.516824,7.859963,-25.731752,8.397799,0.198679,0.185671,0.000000,0.009264,-0.096669,0.000000
3.790000,2.184959,0.311163,-1.559340,1.200956,-0.630749,0.090248,-1.721791,1.887731,0.591934,0.166361,0.726541,-4.429317,7.810181,-25.022002,9.158165,0.198650,0.184657,0.000000,-0.014737,-0.102115,0.000000
3.800000,2.196882,0.304950,-1.558408,1.183746,-0.611835,0.095946,-1.719737,1.893744,0.548097,0.244269,0.480026,-4.333660,7.765475,-24.248551,9.973508,0.198386,0.183588,0.000000,-0.037503,-0.107331,-0.000000
3.810000,2.208633,0.298927,-1.557421,1.166561,-0.592874,0.101210,-1.716906,1.897331,0.505261,0.321671,0.241570,-4.229847,7.697257,-23.439315,10.713575,0.197900,0.182467,0.000000,-0.059014,-0.112315,0.000000
3.820000,2.220213,0.293093,-1.556384,1.149408,-0.573889,0.106051,-1.713304,1.898576,0.463500,0.398214,0.011240,-4.119389,7.599745,-22.658977,11.275597,0.197206,0.181297,0.000000,-0.079339,-0.117072,0.000000
3.830000,2.231622,0.287449,-1.555300,1.132295,-0.554902,0.110480,-1.708942,1.897556,0.422873,0.473665,-0.211610,-4.004335,7.485270,-21.909012,11.699705,0.196314,0.180079,0.000000,-0.098623,-0.121626,0.000000
3.840000,2.242859,0.281995,-1.554174,1.115230,-0.535938,0.114509,-1.703831,1.894343,0.383414,0.547920,-0.426940,-3.885395,7.361039,-21.111885,12.117139,0.195234,0.178817,0.000000,-0.116915,-0.125989,-0.000000
3.850000,2.253926,0.276730,-1.553010,1.098219,-0.517016,0.118149,-1.697983,1.889017,0.345165,0.620886,-0.633848,-3.761992,7.217638,-20.241956,12.549920,0.193976,0.177511,0.000000,-0.134147,-0.130149,-0.000000
3.860000,2.264824,0.271654,-1.551811,1.081270,-0.498157,0.121412,-1.691413,1.881666,0.308174,0.692272,-0.831780,-3.634396,7.052996,-19.359884,12.911489,0.192552,0.176164,0.000000,-0.150303,-0.134091,0.000000
3.870000,2.275552,0.266767,-1.550582,1.064390,-0.479382,0.124312,-1.684138,1.872382,0.272477,0.761946,-1.021045,-3.503763,6.895386,-18.539925,13.153883,0.190971,0.174779,0.000000,-0.165469,-0.137830,-0.000000
3.880000,2.286111,0.262067,-1.549325,1.047587,-0.460710,0.126862,-1.676174,1.861246,0.238099,0.830180,-1.202578,-3.371319,6.746170,-17.770794,13.306192,0.189242,0.173356,0.000000,-0.179788,-0.141422,-0.000000
3.890000,2.296503,0.257553,-1.548045,1.030867,-0.442157,0.129074,-1.667534,1.848330,0.205051,0.896870,-1.376461,-3.237639,6.568709,-16.962575,13.431163,0.187375,0.171899,0.000000,-0.193303,-0.144872,0.000000
3.900000,2.306729,0.253224,-1.546744,1.014236,-0.423743,0.130963,-1.658237,1.833716,0.173346,0.961554,-1.541830,-3.102695,6.371769,-16.091694,13.544827,0.185376,0.170407,0.000000,-0.205951,-0.148139,0.000000
3.910000,2.316788,0.249078,-1.545425,0.997702,-0.405483,0.132541,-1.648303,1.817494,0.142997,1.024305,-1.698295,-2.966742,6.180528,-15.224733,13.608498,0.183256,0.168884,0.000000,-0.217719,-0.151239,0.000000
3.920000,2.326683,0.245114,-1.544093,0.981270,-0.387393,0.133823,-1.637751,1.799750,0.114011,1.085165,-1.846324,-2.830526,5.963703,-14.427884,13.585878,0.181022,0.167331,0.000000,-0.228685,-0.154195,0.000000
3.930000,2.336414,0.241330,-1.542749,0.964947,-0.369488,0.134821,-1.626600,1.780567,0.086386,1.143579,-1.986853,-2.695025,5.712413,-13.685356,13.492838,0.178682,0.165749,0.000000,-0.238976,-0.156970,0.000000
3.940000,2.345982,0.237724,-1.541396,0.948738,-0.351782,0.135550,-1.614879,1.760013,0.060111,1.199413,-2.120031,-2.560669,5.474039,-12.916575,13.381649,0.176242,0.164140,0.000000,-0.248626,-0.159562,-0.000000
3.950000,2.355388,0.234294,-1.540038,0.932650,-0.334288,0.136023,-1.602612,1.738166,0.035173,1.253060,-2.245184,-2.427392,5.254764,-12.103553,13.255012,0.173709,0.162507,0.000000,-0.257577,-0.162010,-0.000000
3.960000,2.364635,0.231038,-1.538676,0.916686,-0.317018,0.136254,-1.589818,1.715110,0.011563,1.304508,-2.362102,-2.295569,5.023789,-11.304272,13.083022,0.171090,0.160850,0.000000,-0.265826,-0.164322,-0.000000
3.970000,2.373722,0.227954,-1.537313,0.900853,-0.299986,0.136255,-1.576521,1.690924,-0.010738,1.353536,-2.471270,-2.165731,4.781113,-10.568002,12.874407,0.168392,0.159172,0.000000,-0.273436,-0.166485,-0.000000
3.980000,2.382652,0.225039,-1.535951,0.885156,-0.283200,0.136039,-1.562747,1.665684,-0.031752,1.400131,-2.573462,-2.038080,4.541072,-9.879347,12.645472,0.165621,0.157473,0.000000,-0.280492,-0.168502,0.000000
3.990000,2.391425,0.222290,-1.534592,0.869598,-0.266672,0.135620,-1.548519,1.639455,-0.051500,1.444357,-2.668857,-1.912822,4.302803,-9.178295,12.387794,0.162782,0.155755,0.000000,-0.287020,-0.170382,-0.000000
4.000000,2.400044,0.219705,-1.533238,0.854185,-0.250411,0.135009,-1.533860,1.612307,-0.070008,1.486187,-2.757028,-1.790325,4.050766,-8.453175,12.089478,0.159881,0.154019,0.000000,-0.292985,-0.172130,-0.000000
4.010000,2.408509,0.217282,-1.531892,0.838921,-0.234426,0.134220,-1.518795,1.584315,-0.087307,1.525372,-2.837920,-1.671032,3.789043,-7.746294,11.762527,0.156922,0.152268,0.000000,-0.298392,-0.173726,-0.000000
4.020000,2.416822,0.215017,-1.530554,0.823809,-0.218725,0.133263,-1.503353,1.555549,-0.103429,1.561968,-2.911954,-1.555074,3.561823,-7.089192,11.445634,0.153913,0.150501,0.000000,-0.303284,-0.175177,-0.000000
4.030000,2.424985,0.212907,-1.529227,0.808854,-0.203315,0.132151,-1.487556,1.526075,-0.118408,1.596609,-2.979704,-1.442119,3.370948,-6.470168,11.140903,0.150856,0.148722,0.000000,-0.307709,-0.176538,-0.000000
4.040000,2.432999,0.210950,-1.527911,0.794058,-0.188203,0.130895,-1.471420,1.495955,-0.132271,1.629387,-3.041358,-1.332256,3.157862,-5.850701,10.802003,0.147758,0.146930,0.000000,-0.311685,-0.177820,0.000000
4.050000,2.440866,0.209143,-1.526609,0.779426,-0.173396,0.129506,-1.454968,1.465248,-0.145053,1.659766,-3.096718,-1.226079,2.914363,-5.221509,10.417900,0.144622,0.145126,0.000000,-0.315202,-0.178975,-0.000000
4.060000,2.448588,0.207483,-1.525321,0.764959,-0.158898,0.127994,-1.438225,1.434020,-0.156793,1.687674,-3.145788,-1.123898,2.681460,-4.609433,10.024817,0.141454,0.143312,0.000000,-0.318259,-0.180000,0.000000
4.070000,2.456165,0.205965,-1.524049,0.750661,-0.144715,0.126370,-1.421215,1.402333,-0.167531,1.713395,-3.188907,-1.025583,2.472463,-4.039710,9.654689,0.138257,0.141490,0.000000,-0.320884,-0.180918,-0.000000
4.080000,2.463601,0.204588,-1.522794,0.736535,-0.130851,0.124643,-1.403957,1.370242,-0.177305,1.737123,-3.226582,-0.930804,2.274172,-3.503837,9.300473,0.135036,0.139659,0.000000,-0.323118,-0.181740,0.000000
4.090000,2.470896,0.203348,-1.521556,0.722582,-0.117310,0.122824,-1.386472,1.337801,-0.186147,1.758879,-3.258983,-0.839574,2.072975,-2.969826,8.926067,0.131794,0.137821,0.000000,-0.324971,-0.182468,0.000000
4.100000,2.478053,0.202242,-1.520337,0.708805,-0.104095,0.120920,-1.368780,1.305062,-0.194096,1.778583,-3.285978,-0.752283,1.868949,-2.437774,8.520263,0.128536,0.135978,0.000000,-0.326433,-0.183095,0.000000
4.110000,2.485072,0.201266,-1.519138,0.695206,-0.091209,0.118942,-1.350900,1.272081,-0.201193,1.796258,-3.307739,-0.669168,1.671321,-1.928818,8.111390,0.125265,0.134129,0.000000,-0.327515,-0.183624,0.000000
4.120000,2.491957,0.200418,-1.517958,0.681787,-0.078654,0.116896,-1.332854,1.238908,-0.207479,1.812009,-3.324555,-0.590055,1.483460,-1.439052,7.735834,0.121986,0.132276,0.000000,-0.328239,-0.184061,-0.000000
4.130000,2.498708,0.199693,-1.516800,0.668549,-0.066431,0.114792,-1.314660,1.205590,-0.212994,1.825927,-3.336520,-0.514452,1.302648,-0.960783,7.388644,0.118700,0.130420,0.000000,-0.328602,-0.184404,0.000000
4.140000,2.505328,0.199089,-1.515662,0.655494,-0.054542,0.112636,-1.296336,1.172177,-0.217768,1.838062,-3.343770,-0.442282,1.125709,-0.501047,7.025681,0.115413,0.128562,0.000000,-0.328610,-0.184656,0.000000
4.150000,2.511818,0.198602,-1.514547,0.642623,-0.042987,0.110437,-1.277899,1.138715,-0.221840,1.848441,-3.346541,-0.373938,0.952778,-0.061453,6.635558,0.112128,0.126702,0.000000,-0.328285,-0.184820,0.000000
4.160000,2.518180,0.198229,-1.513454,0.629936,-0.031768,0.108200,-1.259367,1.105246,-0.225247,1.857117,-3.345000,-0.309571,0.786236,0.363230,6.251129,0.108847,0.124842,0.000000,-0.327639,-0.184901,0.000000
4.170000,2.524417,0.197967,-1.512383,0.617435,-0.020883,0.105932,-1.240757,1.071815,-0.228031,1.864166,-3.339276,-0.248915,0.627061,0.773506,5.904323,0.105575,0.122982,0.000000,-0.326674,-0.184899,0.000000
4.180000,2.530529,0.197812,-1.511335,0.605121,-0.010331,0.103639,-1.222084,1.038461,-0.230226,1.869659,-3.329529,-0.191485,0.475559,1.167174,5.587760,0.102314,0.121123,0.000000,-0.325396,-0.184814,0.000000
4.190000,2.536519,0.197760,-1.510310,0.592994,-0.000113,0.101327,-1.203363,1.005224,-0.231861,1.873677,-3.315933,-0.137160,0.330820,1.544382,5.262762,0.099067,0.119266,0.000000,-0.323814,-0.184649,0.000000
4.200000,2.542389,0.197810,-1.509308,0.581054,0.009773,0.099002,-1.184610,0.972142,-0.232969,1.876275,-3.298642,-0.086229,0.186832,1.909166,4.917845,0.095837,0.117412,0.000000,-0.321941,-0.184410,0.000000
4.210000,2.548140,0.197956,-1.508330,0.569301,0.019330,0.096668,-1.165838,0.939251,-0.233585,1.877414,-3.277749,-0.038803,0.044965,2.261235,4.581209,0.092628,0.115561,0.000000,-0.319782,-0.184091,-0.000000
4.220000,2.553775,0.198196,-1.507375,0.557737,0.028558,0.094330,-1.147062,0.906587,-0.233745,1.877174,-3.253417,0.005395,-0.076659,2.590095,4.285206,0.089442,0.113714,0.000000,-0.317343,-0.183696,0.000000
4.230000,2.559295,0.198527,-1.506443,0.546360,0.037461,0.091993,-1.128294,0.874183,-0.233477,1.875880,-3.225948,0.046901,-0.177731,2.896038,4.022952,0.086281,0.111872,0.000000,-0.314645,-0.183246,-0.000000
4.240000,2.564702,0.198945,-1.505535,0.535171,0.046042,0.089661,-1.109544,0.842068,-0.232807,1.873620,-3.195496,0.085854,-0.282914,3.193743,3.753712,0.083149,0.110035,0.000000,-0.311697,-0.182747,0.000000
4.250000,2.569998,0.199448,-1.504650,0.524169,0.054303,0.087337,-1.090822,0.810273,-0.231760,1.870222,-3.162073,0.121975,-0.394405,3.481963,3.468982,0.080047,0.108204,0.000000,-0.308498,-0.182183,-0.000000
4.260000,2.575185,0.200031,-1.503789,0.513355,0.062247,0.085025,-1.072140,0.778827,-0.230367,1.865732,-3.125857,0.155234,-0.495539,3.751323,3.197267,0.076979,0.106380,0.000000,-0.305062,-0.181556,0.000000
4.270000,2.580265,0.200693,-1.502950,0.502726,0.069879,0.082729,-1.053507,0.747756,-0.228656,1.860311,-3.087046,0.185920,-0.585414,4.009431,2.959429,0.073946,0.104562,0.000000,-0.301400,-0.180878,-0.000000
4.280000,2.585240,0.201429,-1.502134,0.492284,0.077202,0.080452,-1.034934,0.717086,-0.226649,1.854023,-3.045668,0.214422,-0.669463,4.260140,2.747248,0.070951,0.102752,0.000000,-0.297510,-0.180148,-0.000000
4.290000,2.590111,0.202237,-1.501341,0.482028,0.084221,0.078196,-1.016427,0.686843,-0.224367,1.846922,-3.001843,0.240865,-0.747748,4.492589,2.534889,0.067996,0.100950,0.000000,-0.293398,-0.179368,0.000000
4.300000,2.594880,0.203113,-1.500570,0.471956,0.090939,0.075965,-0.997995,0.657049,-0.221832,1.839068,-2.955817,0.265120,-0.823297,4.705439,2.316515,0.065083,0.099157,0.000000,-0.289086,-0.178545,-0.000000
4.310000,2.599550,0.204056,-1.499821,0.462068,0.097362,0.073760,-0.979646,0.627726,-0.219065,1.830456,-2.907735,0.287196,-0.896201,4.906476,2.109774,0.062214,0.097372,0.000000,-0.284586,-0.177675,-0.000000
4.320000,2.604122,0.205061,-1.499095,0.452363,0.103494,0.071584,-0.961386,0.598894,-0.216088,1.821144,-2.857687,0.307315,-0.955800,5.096419,1.929845,0.059391,0.095596,0.000000,-0.279902,-0.176761,0.000000
4.330000,2.608597,0.206126,-1.498390,0.442840,0.109340,0.069438,-0.943223,0.570573,-0.212918,1.811340,-2.805806,0.325792,-1.001591,5.272639,1.771501,0.056616,0.093830,0.000000,-0.275043,-0.175819,-0.000000
4.340000,2.612979,0.207247,-1.497706,0.433498,0.114905,0.067325,-0.925159,0.542778,-0.209572,1.801113,-2.752234,0.342745,-1.048776,5.435229,1.615090,0.053890,0.092074,0.000000,-0.270019,-0.174854,-0.000000
4.350000,2.617267,0.208424,-1.497043,0.424337,0.120195,0.065247,-0.907200,0.515528,-0.206064,1.790365,-2.697102,0.358094,-1.101163,5.585509,1.455982,0.051215,0.090328,0.000000,-0.264843,-0.173855,-0.000000
4.360000,2.621465,0.209651,-1.496401,0.415354,0.125216,0.063204,-0.889352,0.488836,-0.202410,1.779089,-2.640524,0.371865,-1.148708,5.723489,1.307221,0.048593,0.088592,0.000000,-0.259523,-0.172820,-0.000000
4.370000,2.625574,0.210928,-1.495779,0.406550,0.129972,0.061198,-0.871619,0.462717,-0.198626,1.767390,-2.582632,0.384239,-1.184755,5.846944,1.179402,0.046025,0.086868,0.000000,-0.254071,-0.171757,-0.000000
4.380000,2.629596,0.212251,-1.495177,0.397922,0.134470,0.059231,-0.854004,0.437184,-0.194725,1.755394,-2.523585,0.395453,-1.213587,5.955876,1.067937,0.043512,0.085154,0.000000,-0.248498,-0.170676,-0.000000
4.390000,2.633533,0.213617,-1.494595,0.389470,0.138716,0.057304,-0.836511,0.412246,-0.190717,1.743119,-2.463514,0.405597,-1.244053,6.053717,0.958699,0.041055,0.083451,0.000000,-0.242818,-0.169577,0.000000
4.400000,2.637386,0.215025,-1.494031,0.381192,0.142715,0.055417,-0.819142,0.387913,-0.186613,1.730513,-2.402511,0.414627,-1.272427,6.141772,0.850770,0.038656,0.081759,0.000000,-0.237037,-0.168453,0.000000
4.410000,2.641157,0.216472,-1.493486,0.373087,0.146474,0.053572,-0.801901,0.364195,-0.182425,1.717670,-2.340679,0.422613,-1.293811,6.217930,0.752913,0.036314,0.080079,0.000000,-0.231165,-0.167315,0.000000
4.420000,2.644847,0.217955,-1.492960,0.365154,0.149999,0.051769,-0.784788,0.341100,-0.178161,1.704637,-2.278152,0.429685,-1.320847,6.279749,0.664971,0.034032,0.078411,0.000000,-0.225214,-0.166163,0.000000
4.430000,2.648460,0.219472,-1.492451,0.357391,0.153296,0.050008,-0.767808,0.318632,-0.173831,1.691253,-2.215084,0.435912,-1.356052,6.327972,0.583228,0.031810,0.076754,0.000000,-0.219199,-0.164982,0.000000
4.440000,2.651995,0.221021,-1.491959,0.349798,0.156372,0.048292,-0.750963,0.296798,-0.169443,1.677516,-2.151593,0.441350,-1.382346,6.366236,0.507746,0.029648,0.075109,0.000000,-0.213130,-0.163769,0.000000
4.450000,2.655456,0.222599,-1.491485,0.342372,0.159232,0.046620,-0.734257,0.275601,-0.165004,1.663606,-2.087759,0.446067,-1.398797,6.396046,0.438959,0.027548,0.073477,0.000000,-0.207015,-0.162543,0.000000
4.460000,2.658843,0.224205,-1.491027,0.335113,0.161884,0.044992,-0.717691,0.255043,-0.160521,1.649540,-2.023672,0.450129,-1.417430,6.415227,0.375914,0.025508,0.071857,0.000000,-0.200863,-0.161304,-0.000000
4.470000,2.662158,0.225837,-1.490585,0.328018,0.164333,0.043409,-0.701267,0.235127,-0.156001,1.635258,-1.959455,0.453585,-1.437365,6.420668,0.317101,0.023530,0.070250,0.000000,-0.194685,-0.160044,-0.000000
4.480000,2.665403,0.227492,-1.490159,0.321087,0.166586,0.041872,-0.684986,0.215854,-0.151450,1.620793,-1.895259,0.456471,-1.454367,6.413156,0.262240,0.021614,0.068656,0.000000,-0.188496,-0.158768,-0.000000
4.490000,2.668580,0.229168,-1.489748,0.314318,0.168650,0.040380,-0.668851,0.197222,-0.146872,1.606170,-1.831192,0.458830,-1.471331,6.397356,0.212304,0.019761,0.067074,0.000000,-0.182308,-0.157476,-0.000000
4.500000,2.671689,0.230865,-1.489351,0.307710,0.170531,0.038934,-0.652863,0.179230,-0.142273,1.591366,-1.767312,0.460717,-1.491441,6.374982,0.166943,0.017968,0.065505,0.000000,-0.176125,-0.156166,0.000000
4.510000,2.674734,0.232579,-1.488969,0.301261,0.172235,0.037535,-0.637024,0.161876,-0.137658,1.576342,-1.703692,0.462169,-1.512803,6.343241,0.124780,0.016238,0.063950,0.000000,-0.169955,-0.154833,0.000000
4.520000,2.677715,0.234310,-1.488601,0.294970,0.173768,0.036181,-0.621336,0.145156,-0.133030,1.561110,-1.640447,0.463213,-1.529356,6.298830,0.085342,0.014569,0.062408,0.000000,-0.163810,-0.153479,0.000000
4.530000,2.680633,0.236054,-1.488245,0.288834,0.175138,0.034874,-0.605801,0.129067,-0.128393,1.545754,-1.577715,0.463876,-1.542146,6.242861,0.048170,0.012962,0.060880,0.000000,-0.157704,-0.152111,0.000000
4.540000,2.683491,0.237812,-1.487903,0.282854,0.176349,0.033613,-0.590421,0.113602,-0.123752,1.530267,-1.515590,0.464176,-1.559895,6.180316,0.012905,0.011415,0.059366,0.000000,-0.151645,-0.150728,-0.000000
4.550000,2.686290,0.239581,-1.487573,0.277026,0.177410,0.032399,-0.575196,0.098755,-0.119110,1.514557,-1.454109,0.464134,-1.581492,6.112654,-0.018272,0.009929,0.057866,0.000000,-0.145640,-0.149321,-0.000000
4.560000,2.689032,0.241360,-1.487255,0.271350,0.178325,0.031231,-0.560130,0.084520,-0.114469,1.498637,-1.393336,0.463811,-1.601681,6.036993,-0.046023,0.008503,0.056379,0.000000,-0.139693,-0.147890,-0.000000
4.570000,2.691717,0.243148,-1.486949,0.265823,0.179100,0.030110,-0.545223,0.070888,-0.109834,1.482523,-1.333369,0.463214,-1.626528,5.950951,-0.078424,0.007135,0.054908,0.000000,-0.133814,-0.146438,-0.000000
4.580000,2.694348,0.244942,-1.486653,0.260445,0.179742,0.029035,-0.530479,0.057852,-0.105205,1.466107,-1.274317,0.462242,-1.658646,5.855788,-0.116194,0.005826,0.053451,0.000000,-0.128017,-0.144953,0.000000
4.590000,2.696926,0.246743,-1.486368,0.255214,0.180257,0.028006,-0.515901,0.045402,-0.100589,1.449350,-1.216253,0.460890,-1.689801,5.755327,-0.149110,0.004575,0.052009,0.000000,-0.122307,-0.143432,-0.000000
4.600000,2.699453,0.248548,-1.486093,0.250127,0.180650,0.027023,-0.501492,0.033527,-0.095987,1.432311,-1.159211,0.459260,-1.718105,5.650842,-0.175441,0.003380,0.050582,0.000000,-0.116689,-0.141879,-0.000000
4.610000,2.701929,0.250356,-1.485827,0.245184,0.180928,0.026086,-0.487255,0.022218,-0.091404,1.414988,-1.103237,0.457381,-1.749730,5.540323,-0.202763,0.002241,0.049171,0.000000,-0.111168,-0.140294,0.000000
4.620000,2.704356,0.252166,-1.485571,0.240382,0.181095,0.025195,-0.473192,0.011462,-0.086840,1.397316,-1.048404,0.455205,-1.788440,5.421826,-0.235073,0.001157,0.047776,0.000000,-0.105751,-0.138672,-0.000000
4.630000,2.706736,0.253978,-1.485323,0.235720,0.181157,0.024349,-0.459309,0.001250,-0.082299,1.379219,-0.994800,0.452679,-1.832679,5.296420,-0.270411,0.000126,0.046398,0.000000,-0.100448,-0.137003,0.000000
4.640000,2.709071,0.255789,-1.485084,0.231196,0.181120,0.023549,-0.445608,-0.008434,-0.077786,1.360663,-0.942476,0.449797,-1.878277,5.167491,-0.304581,-0.000852,0.045036,0.000000,-0.095264,-0.135286,0.000000
4.650000,2.711360,0.257600,-1.484853,0.226808,0.180988,0.022793,-0.432095,-0.017600,-0.073304,1.341654,-0.891450,0.446588,-1.924015,5.036040,-0.336552,-0.001779,0.043692,0.000000,-0.090202,-0.133519,-0.000000
4.660000,2.713607,0.259409,-1.484628,0.222554,0.180768,0.022083,-0.418775,-0.026263,-0.068854,1.322182,-0.841755,0.443066,-1.973074,4.900440,-0.369597,-0.002656,0.042366,0.000000,-0.085265,-0.131701,0.000000
4.670000,2.715811,0.261215,-1.484411,0.218432,0.180463,0.021416,-0.405652,-0.034435,-0.064442,1.302192,-0.793441,0.439196,-2.029574,4.759673,-0.407769,-0.003484,0.041058,0.000000,-0.080458,-0.129828,0.000000
4.680000,2.717975,0.263018,-1.484200,0.214441,0.180079,0.020794,-0.392731,-0.042131,-0.060071,1.281591,-0.746562,0.434910,-2.093040,4.614789,-0.450786,-0.004265,0.039769,0.000000,-0.075787,-0.127889,-0.000000
4.690000,2.720100,0.264817,-1.483995,0.210578,0.179620,0.020215,-0.380020,-0.049366,-0.055744,1.260331,-0.701146,0.430180,-2.158381,4.467997,-0.493767,-0.005000,0.038500,0.000000,-0.071257,-0.125880,0.000000
4.700000,2.722187,0.266611,-1.483796,0.206841,0.179092,0.019679,-0.367524,-0.056154,-0.051467,1.238423,-0.657202,0.425035,-2.223287,4.319945,-0.533573,-0.005690,0.037252,0.000000,-0.066867,-0.123802,0.000000
4.710000,2.724237,0.268399,-1.483601,0.203227,0.178497,0.019186,-0.355251,-0.062510,-0.047243,1.215866,-0.614747,0.419509,-2.291538,4.169861,-0.574027,-0.006337,0.036024,0.000000,-0.062620,-0.121653,-0.000000
4.720000,2.726252,0.270181,-1.483412,0.199736,0.177841,0.018734,-0.343207,-0.068449,-0.043077,1.192592,-0.573805,0.413554,-2.369613,4.017645,-0.624250,-0.006943,0.034818,0.000000,-0.058518,-0.119428,0.000000
4.730000,2.728232,0.271956,-1.483227,0.196363,0.177128,0.018324,-0.331400,-0.073986,-0.038972,1.168473,-0.534394,0.407024,-2.456816,3.864162,-0.683583,-0.007508,0.033635,0.000000,-0.054565,-0.117113,-0.000000
4.740000,2.730179,0.273723,-1.483045,0.193108,0.176362,0.017955,-0.319838,-0.079137,-0.034936,1.143456,-0.496521,0.399883,-2.544666,3.710459,-0.740060,-0.008034,0.032476,0.000000,-0.050761,-0.114702,-0.000000
4.750000,2.732094,0.275483,-1.482868,0.189966,0.175546,0.017625,-0.308530,-0.083917,-0.030975,1.117580,-0.460185,0.392223,-2.630611,3.556754,-0.791795,-0.008523,0.031341,0.000000,-0.047105,-0.112200,-0.000000
4.760000,2.733978,0.277234,-1.482693,0.186937,0.174683,0.017335,-0.297486,-0.088341,-0.027092,1.090844,-0.425386,0.384047,-2.720559,3.403106,-0.847073,-0.008976,0.030232,0.000000,-0.043600,-0.109606,0.000000
4.770000,2.735833,0.278977,-1.482521,0.184017,0.173779,0.017083,-0.286714,-0.092425,-0.023294,1.063169,-0.392123,0.375281,-2.820661,3.250544,-0.909453,-0.009395,0.029149,0.000000,-0.040244,-0.106911,-0.000000
4.780000,2.737658,0.280710,-1.482351,0.181203,0.172835,0.016869,-0.276223,-0.096183,-0.019586,1.034431,-0.360375,0.365858,-2.929447,3.099769,-0.976914,-0.009781,0.028094,0.000000,-0.037037,-0.104103,0.000000
4.790000,2.739457,0.282433,-1.482184,0.178492,0.171855,0.016692,-0.266025,-0.099632,-0.015976,1.004580,-0.330127,0.355743,-3.038823,2.950335,-1.045128,-0.010136,0.027067,0.000000,-0.033976,-0.101178,0.000000
4.800000,2.741228,0.284147,-1.482017,0.175882,0.170842,0.016550,-0.256131,-0.102786,-0.012471,0.973654,-0.301369,0.344955,-3.145437,2.801745,-1.108802,-0.010460,0.026070,0.000000,-0.031062,-0.098137,-0.000000
4.810000,2.742974,0.285850,-1.481853,0.173370,0.169799,0.016442,-0.246552,-0.105659,-0.009077,0.941671,-0.274092,0.333567,-3.254809,2.655090,-1.171228,-0.010757,0.025104,0.000000,-0.028293,-0.094984,-0.000000
4.820000,2.744696,0.287543,-1.481689,0.170951,0.168729,0.016368,-0.237298,-0.108268,-0.005800,0.908558,-0.248267,0.321531,-3.375401,2.513236,-1.247923,-0.011026,0.024170,0.000000,-0.025668,-0.091710,-0.000000
4.830000,2.746393,0.289225,-1.481525,0.168624,0.167634,0.016326,-0.228381,-0.110625,-0.002647,0.874163,-0.223828,0.308608,-3.505458,2.376457,-1.338198,-0.011270,0.023270,0.000000,-0.023179,-0.088300,0.000000
4.840000,2.748068,0.290895,-1.481362,0.166384,0.166517,0.016315,-0.219814,-0.112744,0.000372,0.838449,-0.200738,0.294767,-3.633490,2.241857,-1.420615,-0.011490,0.022404,0.000000,-0.020823,-0.084751,-0.000000
4.850000,2.749721,0.292555,-1.481199,0.164227,0.165379,0.016334,-0.211612,-0.114640,0.003249,0.801493,-0.178990,0.280196,-3.758456,2.109550,-1.493056,-0.011687,0.021575,0.000000,-0.018599,-0.081069,0.000000
4.860000,2.751353,0.294203,-1.481035,0.162151,0.164224,0.016380,-0.203785,-0.116324,0.005976,0.763280,-0.158547,0.264905,-3.887798,1.982165,-1.569727,-0.011862,0.020783,0.000000,-0.016505,-0.077253,-0.000000
4.870000,2.752964,0.295839,-1.480871,0.160152,0.163053,0.016453,-0.196346,-0.117810,0.008547,0.723737,-0.139347,0.248801,-4.021946,1.860282,-1.651586,-0.012017,0.020030,0.000000,-0.014535,-0.073297,0.000000
4.880000,2.754556,0.297464,-1.480706,0.158224,0.161868,0.016551,-0.189310,-0.119111,0.010952,0.682841,-0.121341,0.231874,-4.157984,1.743514,-1.733339,-0.012152,0.019317,0.000000,-0.012683,-0.069196,0.000000
4.890000,2.756129,0.299077,-1.480540,0.156366,0.160670,0.016672,-0.182689,-0.120237,0.013184,0.640578,-0.104477,0.214135,-4.295525,1.632200,-1.814373,-0.012270,0.018646,0.000000,-0.010944,-0.064951,0.000000
4.900000,2.757683,0.300678,-1.480373,0.154571,0.159463,0.016815,-0.176498,-0.121200,0.015235,0.596930,-0.088697,0.195586,-4.434725,1.526832,-1.895076,-0.012371,0.018018,0.000000,-0.009313,-0.060560,0.000000
4.910000,2.759220,0.302266,-1.480204,0.152836,0.158246,0.016977,-0.170751,-0.122011,0.017096,0.551883,-0.073940,0.176233,-4.575332,1.427804,-1.975205,-0.012457,0.017434,0.000000,-0.007784,-0.056020,0.000000
4.920000,2.760740,0.303842,-1.480033,0.151156,0.157023,0.017157,-0.165461,-0.122679,0.018759,0.505424,-0.060141,0.156082,-4.717100,1.335504,-2.054469,-0.012527,0.016897,0.000000,-0.006351,-0.051332,-0.000000
4.930000,2.762243,0.305407,-1.479861,0.149526,0.155793,0.017352,-0.160642,-0.123214,0.020218,0.457541,-0.047230,0.135144,-4.859837,1.250319,-2.132566,-0.012584,0.016408,0.000000,-0.005006,-0.046494,0.000000
4.940000,2.763730,0.306958,-1.479686,0.147943,0.154558,0.017561,-0.156310,-0.123624,0.021462,0.408227,-0.035135,0.113431,-5.003287,1.172635,-2.209212,-0.012627,0.015967,0.000000,-0.003743,-0.041506,-0.000000
4.950000,2.765202,0.308498,-1.479510,0.146400,0.153320,0.017781,-0.152478,-0.123917,0.022486,0.357475,-0.023777,0.090959,-5.147178,1.102841,-2.284133,-0.012658,0.015578,0.000000,-0.002553,-0.036367,-0.000000
4.960000,2.766658,0.310025,-1.479331,0.144893,0.152080,0.018011,-0.149160,-0.124099,0.023282,0.305283,-0.013078,0.067748,-5.291310,1.041323,-2.357019,-0.012678,0.015240,0.000000,-0.001430,-0.031078,-0.000000
4.970000,2.768100,0.311539,-1.479149,0.143417,0.150838,0.018247,-0.146372,-0.124178,0.023841,0.251649,-0.002951,0.043819,82.801669,78.401998,-17.491123,-0.012687,0.014956,0.000000,-0.000363,-0.025640,-0.000000
4.980000,2.769527,0.313041,-1.478966,0.141966,0.149596,0.018488,-0.144127,-0.124158,0.024158,1.961317,1.554962,-0.282074,169.863961,155.459888,-32.224319,-0.012686,0.014727,0.000000,0.159184,-0.200789,0.000000
4.990000,2.770939,0.314531,-1.478780,0.140534,0.148355,0.018730,-0.107146,-0.093079,0.018200,3.648928,3.106247,-0.600667,81.918914,77.479360,-16.171695,-0.009505,0.010942,0.000000,0.317726,-0.373261,0.000000
5.000000,2.772337,0.316009,-1.478591,0.139823,0.147735,0.018852,-0.071149,-0.062034,0.012145,3.599695,3.104549,-0.605508,-4.923342,-0.169745,-0.484084,-0.006331,0.007262,0.000000,0.317213,-0.367818,-0.000000
