time,x,y,z,vx,vy,vz,ax,ay,az,jx,jy,jz,sx,sy,sz,roll,pitch,yaw,p,q,r
0.000000,-3.016481,0.792894,-1.370317,-0.013650,-0.006617,0.003051,0.281417,-0.076074,0.082570,13.009956,-3.353039,2.983725,-94.589866,43.673610,-101.435529,-0.007817,-0.028922,0.000000,-0.346628,-1.345157,0.000000
0.010000,-3.016618,0.792828,-1.370287,-0.010836,-0.007377,0.003877,0.411516,-0.109605,0.112408,12.064057,-2.916303,1.969369,-456.201428,147.978488,-214.820303,-0.011292,-0.042409,0.000000,-0.302109,-1.250312,-0.000000
0.020000,-3.016698,0.792747,-1.370240,-0.005419,-0.008809,0.005299,0.522698,-0.134400,0.121958,3.885927,-0.393469,-1.312681,-749.747996,227.802415,-255.743191,-0.013852,-0.053901,0.000000,-0.038377,-0.392615,0.000000
0.030000,-3.016726,0.792652,-1.370181,-0.000382,-0.010065,0.006316,0.489235,-0.117474,0.086154,-2.930903,1.639746,-3.145494,-301.418742,96.511953,-52.120048,-0.012065,-0.050270,0.000000,0.172104,0.316864,-0.000000
0.040000,-3.016706,0.792545,-1.370113,0.004365,-0.011158,0.007023,0.464080,-0.101606,0.059048,-2.142448,1.536770,-2.355082,74.751348,-10.025953,71.588306,-0.010408,-0.047557,0.000000,0.159806,0.230677,-0.000000
0.050000,-3.016639,0.792429,-1.370040,0.008900,-0.012098,0.007497,0.446386,-0.086739,0.039052,-1.435876,1.439227,-1.713728,66.838852,-9.497332,57.617743,-0.008868,-0.045653,0.000000,0.148624,0.154637,-0.000000
0.060000,-3.016528,0.792303,-1.369963,0.013293,-0.012893,0.007804,0.435362,-0.072821,0.024773,-0.805670,1.346823,-1.202727,59.467546,-8.997388,45.458692,-0.007434,-0.044462,0.000000,0.138380,0.087628,0.000000
0.070000,-3.016373,0.792171,-1.369884,0.017607,-0.013554,0.007993,0.430272,-0.059802,0.014998,-0.246525,1.259279,-0.804554,52.616434,-8.525133,34.993229,-0.006099,-0.043900,0.000000,0.128928,0.028721,0.000000
0.080000,-3.016176,0.792032,-1.369803,0.021899,-0.014089,0.008104,0.430432,-0.047635,0.008682,0.246658,1.176321,-0.502863,46.264521,-8.079594,26.103451,-0.004855,-0.043887,0.000000,0.120152,-0.022868,0.000000
0.090000,-3.015935,0.791889,-1.369722,0.026216,-0.014507,0.008166,0.435206,-0.036276,0.004941,0.678766,1.097687,-0.282485,40.390826,-7.659779,18.671431,-0.003696,-0.044357,0.000000,0.111957,-0.067813,0.000000
0.100000,-3.015651,0.791742,-1.369640,0.030603,-0.014815,0.008202,0.444007,-0.025682,0.003033,1.054475,1.023125,-0.129434,34.974373,-7.264692,12.579241,-0.002616,-0.045244,0.000000,0.104266,-0.106706,-0.000000
0.110000,-3.015323,0.791593,-1.369558,0.035096,-0.015020,0.008227,0.456295,-0.015813,0.002352,1.378253,0.952393,-0.030901,29.994151,-6.893359,7.708970,-0.001611,-0.046491,0.000000,0.097018,-0.140078,-0.000000
0.120000,-3.014949,0.791442,-1.369476,0.039729,-0.015131,0.008249,0.471572,-0.006634,0.002415,1.654358,0.885258,0.024745,25.429164,-6.544799,3.942692,-0.000676,-0.048045,0.000000,0.090162,-0.168413,0.000000
0.130000,-3.014528,0.791290,-1.369393,0.044528,-0.015153,0.008275,0.489382,0.001892,0.002847,1.886836,0.821497,0.047953,21.258437,-6.218017,1.162482,0.000193,-0.049859,0.000000,0.083660,-0.192159,0.000000
0.140000,-3.014059,0.791139,-1.369310,0.049516,-0.015093,0.008306,0.509309,0.009796,0.003374,2.079526,0.760898,0.047995,17.460967,-5.912026,-0.749547,0.000998,-0.051889,0.000000,0.077480,-0.211736,-0.000000
0.150000,-3.013538,0.790988,-1.369227,0.054714,-0.014957,0.008343,0.530973,0.017110,0.003807,2.236056,0.703257,0.032962,14.015765,-5.625846,-1.911338,0.001742,-0.054094,0.000000,0.071595,-0.227539,-0.000000
0.160000,-3.012964,0.790840,-1.369143,0.060136,-0.014751,0.008382,0.554030,0.023861,0.004033,2.359842,0.648381,0.009768,10.901866,-5.358493,-2.440852,0.002429,-0.056439,0.000000,0.065985,-0.239943,-0.000000
0.170000,-3.012335,0.790693,-1.369059,0.065794,-0.014480,0.008423,0.578170,0.030077,0.004002,2.454093,0.596087,-0.015855,8.097468,-5.109094,-2.472797,0.003062,-0.058893,0.000000,0.060632,-0.249301,-0.000000
0.180000,-3.011649,0.790550,-1.368975,0.071699,-0.014149,0.008463,0.603112,0.035783,0.003716,2.521791,0.546199,-0.039688,5.567652,-4.878728,-2.419240,0.003642,-0.061425,0.000000,0.055521,-0.255942,0.000000
0.190000,-3.010901,0.790410,-1.368890,0.077857,-0.013764,0.008498,0.628605,0.041001,0.003208,2.565446,0.498512,-0.064240,3.296269,-4.665698,-2.296417,0.004172,-0.064011,0.000000,0.050631,-0.260108,-0.000000
0.200000,-3.010091,0.790275,-1.368805,0.084271,-0.013329,0.008527,0.654421,0.045753,0.002431,2.587717,0.452885,-0.085616,1.364808,-4.453800,-0.051612,0.004655,-0.066627,0.000000,0.045952,-0.262097,-0.000000
0.210000,-3.009216,0.790144,-1.368719,0.090945,-0.012849,0.008546,0.680360,0.050059,0.001496,2.592742,0.409436,-0.065272,-0.258752,-4.243683,3.964700,0.005091,-0.069253,0.000000,0.041515,-0.262608,0.000000
0.220000,-3.008273,0.790018,-1.368634,0.097878,-0.012328,0.008557,0.706276,0.053942,0.001126,2.582541,0.368011,-0.006322,-1.889872,-4.077887,3.409538,0.005485,-0.071880,0.000000,0.037313,-0.261878,0.000000
0.230000,-3.007258,0.789897,-1.368548,0.105070,-0.011770,0.008569,0.732011,0.057419,0.001370,2.554945,0.327878,0.002919,-3.567907,-3.954552,-1.966866,0.005838,-0.074491,0.000000,0.033223,-0.259054,0.000000
0.240000,-3.006171,0.789782,-1.368462,0.112519,-0.011180,0.008584,0.757374,0.060499,0.001184,2.511183,0.288920,-0.045660,-4.901565,-3.812711,-3.635023,0.006149,-0.077061,0.000000,0.029217,-0.254134,0.000000
0.250000,-3.005008,0.789674,-1.368377,0.120218,-0.010560,0.008592,0.782234,0.063198,0.000456,2.456913,0.251624,-0.069782,-5.772610,-3.657275,-0.664268,0.006422,-0.079574,0.000000,0.025396,-0.248310,0.000000
0.260000,-3.003767,0.789571,-1.368291,0.128163,-0.009916,0.008593,0.806513,0.065532,-0.000212,2.395731,0.215775,-0.058945,-6.483103,-3.526150,1.075583,0.006657,-0.082027,0.000000,0.021747,-0.242072,0.000000
0.270000,-3.002445,0.789475,-1.368205,0.136348,-0.009250,0.008588,0.830149,0.067513,-0.000723,2.327251,0.181101,-0.048270,-7.351902,-3.386218,0.618854,0.006857,-0.084415,0.000000,0.018223,-0.235110,0.000000
0.280000,-3.001040,0.789386,-1.368119,0.144766,-0.008565,0.008579,0.853058,0.069154,-0.001177,2.248693,0.148050,-0.046568,-8.314658,-3.219264,-0.038801,0.007022,-0.086729,0.000000,0.014861,-0.227062,0.000000
0.290000,-2.999550,0.789304,-1.368033,0.153409,-0.007867,0.008565,0.875123,0.070474,-0.001654,2.160958,0.116716,-0.049046,-8.990517,-3.071493,-0.142116,0.007154,-0.088957,0.000000,0.011673,-0.218058,-0.000000
0.300000,-2.997972,0.789229,-1.367948,0.162269,-0.007156,0.008546,0.896277,0.071488,-0.002158,2.068883,0.086621,-0.049410,-9.294574,-2.960749,0.114511,0.007255,-0.091091,0.000000,0.008616,-0.208643,-0.000000
0.310000,-2.996304,0.789161,-1.367862,0.171335,-0.006437,0.008522,0.916500,0.072207,-0.002642,1.975067,0.057501,-0.046756,-9.508421,-2.852010,0.282001,0.007327,-0.093130,0.000000,0.005663,-0.199091,-0.000000
0.320000,-2.994545,0.789100,-1.367777,0.180599,-0.005712,0.008493,0.935778,0.072638,-0.003093,1.878714,0.029580,-0.043770,-9.877817,-2.704884,0.252340,0.007369,-0.095073,0.000000,0.002835,-0.189298,0.000000
0.330000,-2.992692,0.789047,-1.367692,0.190050,-0.004984,0.008460,0.954075,0.072798,-0.003518,1.777510,0.003403,-0.041709,-10.334093,-2.527535,0.169733,0.007383,-0.096916,0.000000,0.000185,-0.179019,0.000000
0.340000,-2.990744,0.789000,-1.367608,0.199680,-0.004256,0.008422,0.971328,0.072706,-0.003927,1.672032,-0.020970,-0.040375,-10.585660,-2.370489,0.140334,0.007372,-0.098653,0.000000,-0.002279,-0.168313,0.000000
0.350000,-2.988699,0.788961,-1.367524,0.209477,-0.003530,0.008381,0.987515,0.072379,-0.004325,1.565797,-0.044006,-0.038902,-10.574022,-2.245988,0.163465,0.007338,-0.100282,0.000000,-0.004607,-0.157544,0.000000
0.360000,-2.986554,0.788930,-1.367440,0.219430,-0.002808,0.008336,1.002644,0.071826,-0.004705,1.460552,-0.065890,-0.037106,-10.511857,-2.118257,0.170932,0.007280,-0.101804,0.000000,-0.006815,-0.146890,0.000000
0.370000,-2.984310,0.788905,-1.367357,0.229530,-0.002093,0.008287,1.016726,0.071061,-0.005067,1.355560,-0.086372,-0.035484,-10.571351,-1.955922,0.126576,0.007201,-0.103220,0.000000,-0.008880,-0.136270,0.000000
0.380000,-2.981964,0.788888,-1.367275,0.239765,-0.001387,0.008235,1.029756,0.070099,-0.005415,1.249125,-0.105009,-0.034575,-10.698263,-1.768897,0.051991,0.007103,-0.104530,0.000000,-0.010758,-0.125507,0.000000
0.390000,-2.979515,0.788878,-1.367192,0.250125,-0.000691,0.008179,1.041709,0.068961,-0.005759,1.141595,-0.121750,-0.034444,-10.688983,-1.596468,-0.008741,0.006986,-0.105730,0.000000,-0.012443,-0.114636,0.000000
0.400000,-2.976961,0.788874,-1.367111,0.260599,-0.000008,0.008119,1.052588,0.067664,-0.006104,1.035345,-0.136938,-0.034749,-10.505089,-1.446887,-0.049398,0.006854,-0.106822,0.000000,-0.013971,-0.103897,0.000000
0.410000,-2.974303,0.788877,-1.367030,0.271177,0.000662,0.008057,1.062416,0.066222,-0.006454,0.931493,-0.150687,-0.035432,-10.294048,-1.293161,-0.098758,0.006707,-0.107808,0.000000,-0.015353,-0.093404,-0.000000
0.420000,-2.971538,0.788887,-1.366950,0.281847,0.001317,0.007990,1.071217,0.064650,-0.006813,0.829464,-0.162801,-0.036725,-10.170089,-1.114721,-0.172838,0.006547,-0.108691,0.000000,-0.016569,-0.083095,0.000000
0.430000,-2.968666,0.788904,-1.366870,0.292601,0.001955,0.007920,1.079005,0.062966,-0.007188,0.728091,-0.172982,-0.038888,-10.094966,-0.919823,-0.261461,0.006375,-0.109470,0.000000,-0.017590,-0.072848,-0.000000
0.440000,-2.965686,0.788926,-1.366791,0.303428,0.002576,0.007847,1.085779,0.061190,-0.007590,0.627565,-0.181198,-0.041954,-9.933882,-0.734574,-0.343777,0.006195,-0.110148,0.000000,-0.018413,-0.062682,0.000000
0.450000,-2.962597,0.788955,-1.366713,0.314317,0.003179,0.007769,1.091556,0.059342,-0.008027,0.529414,-0.187673,-0.045764,-9.660867,-0.563565,-0.418330,0.006007,-0.110724,0.000000,-0.019061,-0.052751,0.000000
0.460000,-2.959399,0.788990,-1.366636,0.325259,0.003763,0.007686,1.096367,0.057437,-0.008506,0.434348,-0.192469,-0.050320,-9.373303,-0.389508,-0.497677,0.005814,-0.111203,0.000000,-0.019539,-0.043127,-0.000000
0.470000,-2.956092,0.789031,-1.366560,0.336244,0.004327,0.007598,1.100243,0.055493,-0.009034,0.341948,-0.195463,-0.055717,-9.148900,-0.201975,-0.582716,0.005616,-0.111587,0.000000,-0.019835,-0.033765,-0.000000
0.480000,-2.952675,0.789077,-1.366484,0.347264,0.004873,0.007505,1.103206,0.053528,-0.009620,0.251370,-0.196508,-0.061975,-8.962163,-0.006893,-0.667762,0.005417,-0.111878,0.000000,-0.019935,-0.024579,0.000000
0.490000,-2.949147,0.789128,-1.366410,0.358308,0.005398,0.007406,1.105271,0.051562,-0.010273,0.162704,-0.195601,-0.069073,-8.720682,0.182163,-0.750964,0.005218,-0.112078,0.000000,-0.019838,-0.015579,0.000000
0.500000,-2.945508,0.789185,-1.366336,0.369369,0.005904,0.007300,1.106461,0.049616,-0.011001,0.076956,-0.192865,-0.076994,-8.408407,0.363374,-0.834227,0.005020,-0.112190,0.000000,-0.019557,-0.006865,0.000000
0.510000,-2.941759,0.789246,-1.366264,0.380437,0.006390,0.007186,1.106810,0.047705,-0.011813,-0.005464,-0.188334,-0.085757,-8.091643,0.545120,-0.917094,0.004826,-0.112216,0.000000,-0.019095,0.001521,0.000000
0.520000,-2.937900,0.789312,-1.366192,0.391505,0.006858,0.007064,1.106351,0.045849,-0.012717,-0.084877,-0.181963,-0.095336,-7.817172,0.730538,-0.992467,0.004638,-0.112159,0.000000,-0.018448,0.009612,-0.000000
0.530000,-2.933929,0.789383,-1.366122,0.402564,0.007307,0.006932,1.105112,0.044066,-0.013720,-0.161807,-0.173723,-0.105607,-7.566959,0.916134,-1.058689,0.004458,-0.112023,0.000000,-0.017612,0.017459,-0.000000
0.540000,-2.929848,0.789458,-1.366054,0.413607,0.007739,0.006789,1.103115,0.042375,-0.014829,-0.236216,-0.163640,-0.116510,-7.286220,1.097301,-1.123822,0.004286,-0.111810,0.000000,-0.016590,0.025058,0.000000
0.550000,-2.925657,0.789538,-1.365986,0.424627,0.008155,0.006635,1.100388,0.040793,-0.016050,-0.307532,-0.151777,-0.128083,-6.965875,1.274238,-1.191718,0.004126,-0.111522,0.000000,-0.015389,0.032351,-0.000000
0.560000,-2.921356,0.789622,-1.365921,0.435615,0.008555,0.006468,1.096964,0.039339,-0.017390,-0.375533,-0.138155,-0.140344,-6.645180,1.449088,-1.255341,0.003978,-0.111163,0.000000,-0.014011,0.039317,0.000000
0.570000,-2.916945,0.789709,-1.365857,0.446566,0.008942,0.006287,1.092877,0.038030,-0.018857,-0.440435,-0.122795,-0.153190,-6.352169,1.619615,-1.302680,0.003846,-0.110736,0.000000,-0.012457,0.045975,-0.000000
0.580000,-2.912424,0.789800,-1.365795,0.457473,0.009316,0.006091,1.088156,0.036883,-0.020454,-0.502577,-0.105763,-0.166398,-6.076539,1.784067,-1.334218,0.003729,-0.110244,0.000000,-0.010735,0.052356,-0.000000
0.590000,-2.907795,0.789895,-1.365735,0.468329,0.009679,0.005878,1.082826,0.035915,-0.022185,-0.561966,-0.087114,-0.179874,-5.785382,1.944650,-1.364491,0.003631,-0.109689,0.000000,-0.008850,0.058461,-0.000000
0.600000,-2.903058,0.789994,-1.365678,0.479129,0.010034,0.005647,1.076916,0.035141,-0.024052,-0.618284,-0.066870,-0.193688,-5.471522,2.103200,-1.398851,0.003552,-0.109074,0.000000,-0.006804,0.064258,0.000000
0.610000,-2.898213,0.790096,-1.365622,0.489867,0.010382,0.005397,1.070460,0.034577,-0.026058,-0.671396,-0.045050,-0.207851,-5.158791,2.257230,-1.426153,0.003495,-0.108404,0.000000,-0.004600,0.069732,-0.000000
0.620000,-2.893261,0.790202,-1.365570,0.500538,0.010726,0.005126,1.063488,0.034240,-0.028209,-0.721460,-0.021725,-0.222211,-4.868990,2.400522,-1.431159,0.003460,-0.107680,0.000000,-0.002246,0.074898,-0.000000
0.630000,-2.888202,0.790311,-1.365520,0.511137,0.011067,0.004833,1.056031,0.034143,-0.030503,-0.768776,0.002961,-0.236474,-4.596010,2.532786,-1.415998,0.003450,-0.106906,0.000000,0.000246,0.079783,-0.000000
0.640000,-2.883038,0.790423,-1.365473,0.521659,0.011408,0.004516,1.048113,0.034299,-0.032938,-0.813381,0.028930,-0.250531,-4.313288,2.661411,-1.399709,0.003465,-0.106084,0.000000,0.002866,0.084389,0.000000
0.650000,-2.877769,0.790539,-1.365430,0.532099,0.011753,0.004174,1.039763,0.034721,-0.035513,-0.855042,0.056189,-0.264469,-4.016048,2.789028,-1.387531,0.003507,-0.105218,0.000000,0.005614,0.088693,0.000000
0.660000,-2.872396,0.790658,-1.365390,0.542454,0.012103,0.003806,1.031012,0.035423,-0.038228,-0.893701,0.084711,-0.278281,-3.723165,2.909768,-1.365750,0.003577,-0.104310,0.000000,0.008488,0.092689,0.000000
0.670000,-2.866920,0.790781,-1.365353,0.552720,0.012461,0.003410,1.021889,0.036416,-0.041079,-0.929505,0.114384,-0.291784,-3.447480,3.015913,-1.320626,0.003677,-0.103364,0.000000,0.011477,0.096390,-0.000000
0.680000,-2.861341,0.790907,-1.365321,0.562892,0.012831,0.002984,1.012422,0.037711,-0.044063,-0.962651,0.145029,-0.304694,-3.183774,3.108421,-1.255562,0.003807,-0.102382,0.000000,0.014562,0.099813,0.000000
0.690000,-2.855662,0.791037,-1.365294,0.572968,0.013216,0.002528,1.002636,0.039316,-0.047173,-0.993181,0.176553,-0.316895,-2.916774,3.196668,-1.187839,0.003968,-0.101368,0.000000,0.017733,0.102961,0.000000
0.700000,-2.849882,0.791172,-1.365271,0.582945,0.013617,0.002041,0.992558,0.041242,-0.050401,-1.020987,0.208962,-0.328450,-2.643238,3.283595,-1.122260,0.004161,-0.100323,0.000000,0.020991,0.105824,0.000000
0.710000,-2.844003,0.791310,-1.365253,0.592819,0.014040,0.001520,0.982216,0.043496,-0.053742,-1.046046,0.242225,-0.339340,-2.373992,3.362211,-1.046715,0.004388,-0.099251,0.000000,0.024332,0.108399,-0.000000
0.720000,-2.838026,0.791452,-1.365240,0.602589,0.014487,0.000966,0.971637,0.046086,-0.057188,-1.068466,0.276207,-0.349385,-2.118415,3.424227,-0.948824,0.004648,-0.098155,0.000000,0.027743,0.110697,0.000000
0.730000,-2.831951,0.791600,-1.365234,0.612252,0.014962,0.000377,0.960847,0.049020,-0.060730,-1.088414,0.310709,-0.358317,-1.873583,3.471124,-0.831853,0.004943,-0.097037,0.000000,0.031204,0.112731,-0.000000
0.740000,-2.825781,0.791752,-1.365233,0.621806,0.015468,-0.000249,0.949869,0.052300,-0.064354,-1.105938,0.345629,-0.366022,-1.627902,3.513252,-0.711800,0.005272,-0.095900,0.000000,0.034704,0.114506,-0.000000
0.750000,-2.819515,0.791909,-1.365239,0.631249,0.016008,-0.000910,0.938728,0.055932,-0.068050,-1.120972,0.380974,-0.372553,-1.378595,3.553642,-0.593008,0.005637,-0.094747,0.000000,0.038243,0.116016,0.000000
0.760000,-2.813156,0.792072,-1.365251,0.640581,0.016586,-0.001610,0.927450,0.059920,-0.071805,-1.133510,0.416702,-0.377882,-1.133719,3.584873,-0.464611,0.006037,-0.093580,0.000000,0.041818,0.117261,0.000000
0.770000,-2.806703,0.792241,-1.365271,0.649798,0.017206,-0.002347,0.916058,0.064266,-0.075608,-1.143646,0.452672,-0.381845,-0.900624,3.598925,-0.316177,0.006473,-0.092402,0.000000,0.045415,0.118249,0.000000
0.780000,-2.800160,0.792416,-1.365298,0.658902,0.017872,-0.003122,0.904577,0.068973,-0.079442,-1.151522,0.488681,-0.384206,-0.677091,3.597643,-0.150921,0.006945,-0.091215,0.000000,0.049012,0.118995,0.000000
0.790000,-2.793525,0.792598,-1.365333,0.667890,0.018586,-0.003935,0.893028,0.074040,-0.083292,-1.157188,0.524624,-0.384863,-0.453704,3.591247,0.017305,0.007453,-0.090022,0.000000,0.052601,0.119501,0.000000
0.800000,-2.786802,0.792788,-1.365377,0.676762,0.019353,-0.004788,0.881433,0.079466,-0.087139,-1.160597,0.560505,-0.383859,-0.228071,3.582614,0.184667,0.007997,-0.088825,0.000000,0.056181,0.119766,0.000000
0.810000,-2.779990,0.792985,-1.365429,0.685519,0.020175,-0.005678,0.869816,0.085250,-0.090969,-1.161750,0.596277,-0.381170,-0.006594,3.564658,0.360248,0.008577,-0.087627,0.000000,0.059749,0.119790,0.000000
0.820000,-2.773092,0.793191,-1.365490,0.694159,0.021058,-0.006607,0.858198,0.091391,-0.094763,-1.160728,0.631799,-0.376654,0.204955,3.530147,0.552702,0.009192,-0.086429,0.000000,0.063290,0.119581,0.000000
0.830000,-2.766107,0.793406,-1.365561,0.702683,0.022003,-0.007573,0.846601,0.097886,-0.098502,-1.157650,0.666880,-0.370116,0.408528,3.481028,0.759090,0.009843,-0.085235,0.000000,0.066786,0.119150,0.000000
0.840000,-2.759038,0.793631,-1.365642,0.711091,0.023015,-0.008577,0.835045,0.104729,-0.102165,-1.152558,0.701419,-0.361473,0.611720,3.426727,0.967472,0.010528,-0.084046,0.000000,0.070227,0.118502,0.000000
0.850000,-2.751885,0.793867,-1.365733,0.719384,0.024098,-0.009617,0.823550,0.111914,-0.105731,-1.145416,0.735414,-0.350766,0.816366,3.369921,1.174435,0.011247,-0.082865,0.000000,0.073615,0.117634,0.000000
0.860000,-2.744650,0.794113,-1.365834,0.727562,0.025254,-0.010692,0.812137,0.119437,-0.109180,-1.136231,0.768818,-0.337984,1.017498,3.304287,1.387525,0.012000,-0.081693,0.000000,0.076944,0.116549,-0.000000
0.870000,-2.737334,0.794372,-1.365946,0.735626,0.026486,-0.011800,0.800825,0.127291,-0.112491,-1.125066,0.801500,-0.323016,1.211061,3.223515,1.613882,0.012786,-0.080534,0.000000,0.080204,0.115253,-0.000000
0.880000,-2.729938,0.794643,-1.366070,0.743578,0.027799,-0.012941,0.789635,0.135467,-0.115641,-1.112009,0.833288,-0.305706,1.398820,3.129521,1.850842,0.013604,-0.079388,0.000000,0.083377,0.113754,0.000000
0.890000,-2.722462,0.794928,-1.366205,0.751419,0.029196,-0.014113,0.778585,0.143956,-0.118605,-1.097090,0.864090,-0.285999,1.586304,3.030752,2.088067,0.014454,-0.078258,0.000000,0.086457,0.112056,0.000000
0.900000,-2.714909,0.795227,-1.366352,0.759150,0.030678,-0.015314,0.767694,0.152749,-0.121361,-1.080283,0.893903,-0.263945,1.774233,2.929575,2.322398,0.015334,-0.077147,0.000000,0.089442,0.110158,0.000000
0.910000,-2.707279,0.795541,-1.366512,0.766773,0.032251,-0.016540,0.756980,0.161835,-0.123884,-1.061605,0.922682,-0.239551,1.959240,2.820522,2.560097,0.016243,-0.076055,0.000000,0.092331,0.108063,-0.000000
0.920000,-2.699574,0.795872,-1.366683,0.774290,0.033915,-0.017791,0.746462,0.171203,-0.126152,-1.041098,0.950313,-0.212743,2.140489,2.698389,2.807092,0.017180,-0.074985,0.000000,0.095114,0.105775,-0.000000
0.930000,-2.691794,0.796220,-1.366867,0.781702,0.035675,-0.019063,0.736158,0.180841,-0.128139,-1.018795,0.976650,-0.183409,2.319496,2.564977,3.060857,0.018145,-0.073939,0.000000,0.097776,0.103297,0.000000
0.940000,-2.683940,0.796585,-1.367064,0.789013,0.037532,-0.020354,0.726086,0.190736,-0.129820,-0.994708,1.001613,-0.151526,2.497589,2.427552,3.312447,0.019136,-0.072919,0.000000,0.100312,0.100631,0.000000
0.950000,-2.676013,0.796970,-1.367274,0.796224,0.039489,-0.021660,0.716263,0.200873,-0.131170,-0.968843,1.025201,-0.117160,2.674163,2.288290,3.559244,0.020151,-0.071926,0.000000,0.102723,0.097779,0.000000
0.960000,-2.668015,0.797375,-1.367498,0.803338,0.041549,-0.022977,0.706709,0.211240,-0.132163,-0.941225,1.047379,-0.080341,2.848794,2.142666,3.806303,0.021190,-0.070963,0.000000,0.105006,0.094744,-0.000000
0.970000,-2.659947,0.797801,-1.367734,0.810358,0.043714,-0.024303,0.697439,0.221821,-0.132776,-0.911868,1.068054,-0.041034,3.023897,1.986242,4.057891,0.022251,-0.070031,0.000000,0.107155,0.091528,0.000000
0.980000,-2.651808,0.798249,-1.367984,0.817287,0.045986,-0.025633,0.688471,0.232601,-0.132984,-0.880747,1.087104,0.000817,3.199796,1.820654,4.311771,0.023333,-0.069132,0.000000,0.109157,0.088127,0.000000
0.990000,-2.643601,0.798721,-1.368247,0.824127,0.048366,-0.026963,0.679824,0.243563,-0.132760,-0.847872,1.104467,0.045201,3.373683,1.652376,4.560924,0.024435,-0.068268,0.000000,0.111010,0.084544,-0.000000
1.000000,-2.635326,0.799217,-1.368523,0.830883,0.050857,-0.028288,0.671514,0.254690,-0.132080,-0.813274,1.120151,0.092035,3.546808,1.483500,4.802487,0.025554,-0.067440,0.000000,0.112714,0.080781,0.000000
1.010000,-2.626983,0.799738,-1.368812,0.837558,0.053460,-0.029604,0.663559,0.265966,-0.130919,-0.776935,1.134137,0.141251,3.721289,1.310168,5.040092,0.026689,-0.066651,0.000000,0.114269,0.076837,-0.000000
1.020000,-2.618574,0.800286,-1.369115,0.844154,0.056176,-0.030906,0.655975,0.277373,-0.129255,-0.738848,1.146354,0.192837,3.893686,1.128415,5.278658,0.027839,-0.065903,0.000000,0.115670,0.072711,-0.000000
1.030000,-2.610100,0.800862,-1.369431,0.850677,0.059008,-0.032189,0.648782,0.288893,-0.127063,-0.699062,1.156705,0.246824,4.064031,0.939848,5.516126,0.029002,-0.065197,0.000000,0.116908,0.068407,-0.000000
1.040000,-2.601561,0.801466,-1.369759,0.857130,0.061954,-0.033448,0.641994,0.300507,-0.124318,-0.657567,1.165151,0.303160,4.237564,0.750497,5.744311,0.030177,-0.064534,0.000000,0.117980,0.063923,0.000000
1.050000,-2.592958,0.802101,-1.370099,0.863517,0.065018,-0.034676,0.635630,0.312196,-0.120999,-0.614310,1.171715,0.361710,4.410850,0.561877,5.961893,0.031362,-0.063917,0.000000,0.118889,0.059255,0.000000
1.060000,-2.584291,0.802766,-1.370452,0.869843,0.068198,-0.035868,0.629708,0.323941,-0.117084,-0.569350,1.176389,0.422398,4.581062,0.370602,6.173046,0.032555,-0.063348,0.000000,0.119637,0.054406,0.000000
1.070000,-2.575561,0.803465,-1.370817,0.876111,0.071496,-0.037017,0.624243,0.335724,-0.112551,-0.522689,1.179127,0.485171,4.760328,0.174591,6.377415,0.033755,-0.062829,0.000000,0.120218,0.049377,0.000000
1.080000,-2.566768,0.804196,-1.371193,0.882327,0.074913,-0.038119,0.619254,0.347524,-0.107381,-0.474144,1.179881,0.549946,4.951097,-0.024500,6.572261,0.034960,-0.062360,0.000000,0.120628,0.044148,-0.000000
1.090000,-2.557914,0.804963,-1.371579,0.888496,0.078447,-0.039165,0.614760,0.359321,-0.101552,-0.423667,1.178637,0.616616,5.136625,-0.223069,6.756641,0.036167,-0.061945,0.000000,0.120867,0.038712,0.000000
1.100000,-2.548998,0.805765,-1.371976,0.894623,0.082099,-0.040150,0.610781,0.371096,-0.095048,-0.371411,1.175419,0.685079,5.309609,-0.420292,6.931370,0.037377,-0.061586,0.000000,0.120937,0.033083,0.000000
1.110000,-2.540022,0.806605,-1.372382,0.900712,0.085869,-0.041066,0.607332,0.382830,-0.087851,-0.317475,1.170231,0.755244,5.482067,-0.617791,7.095530,0.038586,-0.061283,0.000000,0.120839,0.027270,0.000000
1.120000,-2.530984,0.807483,-1.372797,0.906769,0.089756,-0.041907,0.604431,0.394501,-0.079943,-0.261770,1.163064,0.826989,5.671311,-0.815955,7.244257,0.039794,-0.061040,0.000000,0.120572,0.021262,0.000000
1.130000,-2.521886,0.808400,-1.373220,0.912801,0.093759,-0.042665,0.602097,0.406091,-0.071311,-0.204049,1.153912,0.900129,5.874036,-1.013528,7.376370,0.040998,-0.060858,0.000000,0.120133,0.015031,-0.000000
1.140000,-2.512728,0.809358,-1.373651,0.918811,0.097878,-0.043333,0.600350,0.417579,-0.061941,-0.144289,1.142793,0.974517,6.067348,-1.209036,7.496718,0.042197,-0.060739,0.000000,0.119525,0.008573,0.000000
1.150000,-2.503510,0.810357,-1.374087,0.924808,0.102110,-0.043904,0.599211,0.428947,-0.051821,-0.082702,1.129732,1.050063,6.247404,-1.402565,7.607074,0.043388,-0.060686,0.000000,0.118749,0.001908,-0.000000
1.160000,-2.494232,0.811400,-1.374529,0.930795,0.106456,-0.044369,0.598696,0.440174,-0.040940,-0.019341,1.114742,1.126658,6.429511,-1.594228,7.702687,0.044572,-0.060701,0.000000,0.117806,-0.004964,-0.000000
1.170000,-2.484894,0.812487,-1.374974,0.936781,0.110914,-0.044723,0.598824,0.451242,-0.029288,0.045888,1.097847,1.204117,6.620759,-1.781917,7.776655,0.045745,-0.060786,0.000000,0.116696,-0.012054,-0.000000
1.180000,-2.475496,0.813618,-1.375423,0.942772,0.115481,-0.044955,0.599614,0.462131,-0.016857,0.113074,1.079103,1.282191,6.816503,-1.964529,7.828824,0.046906,-0.060942,0.000000,0.115423,-0.019375,-0.000000
1.190000,-2.466039,0.814796,-1.375873,0.948774,0.120157,-0.045060,0.601086,0.472824,-0.003644,0.182218,1.058557,1.360694,7.007744,-2.143963,7.866766,0.048053,-0.061174,0.000000,0.113989,-0.026928,-0.000000
1.200000,-2.456521,0.816021,-1.376324,0.954794,0.124938,-0.045028,0.603258,0.483302,0.010357,0.253229,1.036224,1.439527,7.188523,-2.322548,7.894830,0.049185,-0.061482,0.000000,0.112395,-0.034710,-0.000000
1.210000,-2.446943,0.817295,-1.376774,0.960839,0.129823,-0.044853,0.606150,0.493548,0.025147,0.325989,1.012106,1.518590,7.364522,-2.498007,7.906439,0.050301,-0.061869,0.000000,0.110637,-0.042712,-0.000000
1.220000,-2.437304,0.818618,-1.377221,0.966917,0.134809,-0.044525,0.609778,0.503544,0.040728,0.400519,0.986264,1.597655,7.551714,-2.662397,7.887644,0.051398,-0.062337,0.000000,0.108721,-0.050940,0.000000
1.230000,-2.427604,0.819991,-1.377665,0.973034,0.139893,-0.044038,0.614161,0.513273,0.057100,0.477023,0.958858,1.676343,7.749049,-2.814925,7.838665,0.052476,-0.062889,0.000000,0.106658,-0.059417,-0.000000
1.240000,-2.417843,0.821416,-1.378102,0.979200,0.145074,-0.043383,0.619319,0.522721,0.074255,0.555500,0.929965,1.754429,7.934067,-2.965536,7.776991,0.053531,-0.063527,0.000000,0.104451,-0.068147,-0.000000
1.250000,-2.408020,0.822893,-1.378532,0.985421,0.150348,-0.042553,0.625271,0.531873,0.092188,0.635704,0.899547,1.831883,8.098230,-3.120114,7.709237,0.054565,-0.064254,0.000000,0.102096,-0.077111,0.000000
1.260000,-2.398135,0.824423,-1.378953,0.991705,0.155712,-0.041539,0.632033,0.540712,0.110893,0.717465,0.867563,1.908613,8.256210,-3.270901,7.622327,0.055573,-0.065072,0.000000,0.099584,-0.086295,0.000000
1.270000,-2.388186,0.826007,-1.379363,0.998061,0.161162,-0.040335,0.639620,0.549224,0.130361,0.800829,0.834129,1.984329,8.426623,-3.401463,7.498457,0.056556,-0.065983,0.000000,0.096923,-0.095708,-0.000000
1.280000,-2.378174,0.827646,-1.379760,1.004498,0.166696,-0.038932,0.648049,0.557395,0.150579,0.885997,0.799534,2.058582,8.605221,-3.512231,7.340359,0.057512,-0.066989,0.000000,0.094137,-0.105372,0.000000
1.290000,-2.368096,0.829341,-1.380142,1.011022,0.172310,-0.037323,0.657340,0.565215,0.171532,0.972933,0.763884,2.131137,8.765798,-3.624910,7.170745,0.058439,-0.068094,0.000000,0.091233,-0.115288,-0.000000
1.300000,-2.357953,0.831092,-1.380506,1.017645,0.178000,-0.035502,0.667508,0.572672,0.193202,1.061313,0.727036,2.201997,8.898005,-3.750701,6.996094,0.059337,-0.069299,0.000000,0.088192,-0.125427,-0.000000
1.310000,-2.347744,0.832901,-1.380852,1.024373,0.183764,-0.033459,0.678566,0.579755,0.215572,1.150893,0.688870,2.271058,9.018669,-3.873976,6.800367,0.060203,-0.070607,0.000000,0.084999,-0.135769,0.000000
1.320000,-2.337466,0.834767,-1.381176,1.031216,0.189596,-0.031190,0.690526,0.586450,0.238623,1.241687,0.649556,2.338005,9.150854,-3.965646,6.567341,0.061036,-0.072020,0.000000,0.081665,-0.146316,-0.000000
1.330000,-2.327119,0.836693,-1.381475,1.038183,0.195493,-0.028687,0.703400,0.592746,0.262332,1.333910,0.609557,2.402405,9.289289,-4.027996,6.301698,0.061836,-0.073540,0.000000,0.078232,-0.157093,-0.000000
1.340000,-2.316702,0.838677,-1.381749,1.045284,0.201450,-0.025943,0.717204,0.598641,0.286671,1.427473,0.568996,2.464039,9.401106,-4.100416,6.024188,0.062601,-0.075168,0.000000,0.074709,-0.168093,-0.000000
1.350000,-2.306214,0.840722,-1.381994,1.052527,0.207465,-0.022953,0.731949,0.604126,0.311613,1.521932,0.527549,2.522889,9.474851,-4.202087,5.737448,0.063330,-0.076908,0.000000,0.071057,-0.179272,-0.000000
1.360000,-2.295652,0.842827,-1.382208,1.059923,0.213533,-0.019711,0.747643,0.609192,0.337129,1.616970,0.484955,2.578788,9.531206,-4.305705,5.427533,0.064022,-0.078761,0.000000,0.067245,-0.190599,-0.000000
1.370000,-2.285015,0.844992,-1.382389,1.067480,0.219649,-0.016211,0.764289,0.613825,0.363189,1.712556,0.441435,2.631440,9.593874,-4.363648,5.089427,0.064675,-0.080729,0.000000,0.063290,-0.202071,-0.000000
1.380000,-2.274302,0.847220,-1.382533,1.075209,0.225809,-0.012447,0.781894,0.618021,0.389758,1.808847,0.397682,2.680576,9.653093,-4.384509,4.728667,0.065288,-0.082812,0.000000,0.059260,-0.213704,0.000000
1.390000,-2.263511,0.849509,-1.382638,1.083118,0.232010,-0.008416,0.800466,0.621779,0.416800,1.905618,0.353745,2.726013,9.675256,-4.432869,4.350951,0.065860,-0.085012,0.000000,0.055155,-0.225472,0.000000
1.400000,-2.252640,0.851860,-1.382701,1.091218,0.238245,-0.004111,0.820006,0.625096,0.444278,2.002352,0.309024,2.767595,9.668513,-4.514281,3.951123,0.066391,-0.087331,0.000000,0.050907,-0.237321,-0.000000
1.410000,-2.241687,0.854273,-1.382720,1.099518,0.244511,0.000470,0.840513,0.627960,0.472152,2.098989,0.263459,2.805036,9.651839,-4.586898,3.526158,0.066878,-0.089769,0.000000,0.046506,-0.249240,0.000000
1.420000,-2.230649,0.856750,-1.382691,1.108028,0.250804,0.005332,0.861986,0.630365,0.500379,2.195389,0.217286,2.838118,9.590854,-4.648786,3.090729,0.067321,-0.092328,0.000000,0.041970,-0.261209,0.000000
1.430000,-2.219526,0.859290,-1.382613,1.116758,0.257119,0.010477,0.884420,0.632305,0.528915,2.290806,0.170483,2.866850,9.464673,-4.716240,2.646422,0.067717,-0.095006,0.000000,0.037295,-0.273147,0.000000
1.440000,-2.208314,0.861892,-1.382482,1.125717,0.263450,0.015910,0.907802,0.633774,0.557716,2.384682,0.122961,2.891047,9.321950,-4.790636,2.173015,0.068067,-0.097803,0.000000,0.032466,-0.284987,0.000000
1.450000,-2.197012,0.864559,-1.382295,1.134914,0.269794,0.021632,0.932114,0.634765,0.586736,2.477245,0.074671,2.910310,9.247997,-4.869389,1.669423,0.068367,-0.100719,0.000000,0.027474,-0.296743,0.000000
1.460000,-2.185616,0.867288,-1.382049,1.144359,0.276146,0.027645,0.957347,0.635268,0.615922,2.569642,0.025574,2.924435,9.201222,-4.954247,1.149313,0.068616,-0.103753,0.000000,0.022308,-0.308528,0.000000
1.470000,-2.174124,0.870081,-1.381742,1.154061,0.282500,0.033950,0.983507,0.635276,0.645224,2.661269,-0.024414,2.933297,8.945593,-5.051564,0.610675,0.068813,-0.106905,0.000000,0.016955,-0.320270,0.000000
1.480000,-2.162535,0.872938,-1.381370,1.164029,0.288851,0.040549,1.010572,0.634780,0.674588,2.748554,-0.075458,2.936649,8.496282,-5.166428,0.046360,0.068955,-0.110173,0.000000,0.011398,-0.331571,-0.000000
1.490000,-2.150844,0.875859,-1.380931,1.174272,0.295195,0.047442,1.038478,0.633767,0.703957,2.831195,-0.127743,2.934224,8.172650,-5.291900,-0.539022,0.069040,-0.113552,0.000000,0.005611,-0.342380,0.000000
1.500000,-2.139049,0.878842,-1.380421,1.184799,0.301527,0.054628,1.067196,0.632225,0.733273,2.912007,-0.181296,2.925868,7.935641,-5.399271,-1.128085,0.069067,-0.117038,0.000000,-0.000414,-0.352986,0.000000
1.510000,-2.127148,0.881889,-1.379838,1.195616,0.307840,0.062107,1.096718,0.630141,0.762475,2.989908,-0.235728,2.911662,7.577080,-5.497364,-1.725453,0.069032,-0.120629,0.000000,-0.006634,-0.363259,-0.000000
1.520000,-2.115137,0.884999,-1.379179,1.206733,0.314129,0.069878,1.126994,0.627510,0.791506,3.063549,-0.291243,2.891359,7.281136,-5.671836,-2.378376,0.068934,-0.124320,0.000000,-0.013073,-0.373033,-0.000000
1.530000,-2.103013,0.888172,-1.378441,1.218156,0.320390,0.077938,1.157989,0.624316,0.820302,3.135530,-0.349165,2.864095,7.132342,-5.928697,-3.088482,0.068770,-0.128107,0.000000,-0.019886,-0.382562,-0.000000
1.540000,-2.090774,0.891407,-1.377621,1.229893,0.326616,0.086284,1.189705,0.620527,0.848788,3.206196,-0.409817,2.829590,6.860239,-6.150823,-3.790049,0.068536,-0.131990,0.000000,-0.027111,-0.391862,0.000000
1.550000,-2.078415,0.894704,-1.376715,1.241950,0.332800,0.094913,1.222113,0.616120,0.876894,3.272735,-0.472181,2.788294,6.409100,-6.290907,-4.463493,0.068228,-0.135963,0.000000,-0.034633,-0.400612,0.000000
1.560000,-2.065935,0.898063,-1.375722,1.254335,0.338938,0.103822,1.255160,0.611083,0.904554,3.334378,-0.535635,2.740320,5.967421,-6.431294,-5.153449,0.067843,-0.140021,0.000000,-0.042377,-0.408710,-0.000000
1.570000,-2.053329,0.901483,-1.374639,1.267053,0.345022,0.113004,1.288801,0.605407,0.931700,3.392083,-0.600807,2.685225,5.607006,-6.683535,-5.900297,0.067380,-0.144156,0.000000,-0.050417,-0.416231,0.000000
1.580000,-2.040594,0.904963,-1.373462,1.280111,0.351046,0.122456,1.323001,0.599067,0.958258,3.446518,-0.669306,2.622314,5.253314,-7.023154,-6.689652,0.066835,-0.148364,0.000000,-0.058932,-0.423216,0.000000
1.590000,-2.027727,0.908504,-1.372190,1.293513,0.357003,0.132170,1.357731,0.592021,0.984146,3.497150,-0.741270,2.551432,4.826178,-7.301770,-7.467569,0.066201,-0.152639,0.000000,-0.067938,-0.429579,0.000000
1.600000,-2.014724,0.912103,-1.370819,1.307266,0.362887,0.142139,1.392944,0.584242,1.009287,3.543041,-0.815341,2.472962,4.401767,-7.499014,-8.223007,0.065476,-0.156974,0.000000,-0.077275,-0.435200,-0.000000
1.610000,-2.001581,0.915761,-1.369347,1.321372,0.368688,0.152355,1.428592,0.575714,1.033606,3.585185,-0.891251,2.386972,4.024375,-7.712534,-8.990465,0.064656,-0.161361,0.000000,-0.086907,-0.440166,0.000000
1.620000,-1.988296,0.919477,-1.367772,1.335837,0.374401,0.162811,1.464648,0.566417,1.057026,3.623529,-0.969592,2.293153,3.479238,-7.973632,-9.791578,0.063738,-0.165795,0.000000,-0.096894,-0.444441,-0.000000
1.630000,-1.974864,0.923249,-1.366091,1.350665,0.380017,0.173496,1.501062,0.556322,1.079469,3.654770,-1.050723,2.191140,2.747550,-8.247687,-10.614648,0.062718,-0.170268,0.000000,-0.107269,-0.447630,-0.000000
1.640000,-1.961283,0.927077,-1.364302,1.365859,0.385527,0.184400,1.537743,0.545402,1.100849,3.678480,-1.134545,2.080860,2.127576,-8.495262,-11.429170,0.061592,-0.174765,0.000000,-0.118008,-0.449657,-0.000000
1.650000,-1.947547,0.930960,-1.362403,1.381420,0.390925,0.195513,1.574632,0.533631,1.121086,3.697321,-1.220629,1.962557,1.613970,-8.706635,-12.221428,0.060357,-0.179277,0.000000,-0.129055,-0.450800,-0.000000
1.660000,-1.933654,0.934896,-1.360392,1.397351,0.396200,0.206822,1.611690,0.520990,1.140100,3.710759,-1.308678,1.836432,1.008388,-8.903841,-13.009687,0.059011,-0.183797,0.000000,-0.140360,-0.450982,-0.000000
1.670000,-1.919600,0.938884,-1.358266,1.413654,0.401344,0.218315,1.648847,0.507458,1.157814,3.717489,-1.398705,1.702363,0.402976,-9.110899,-13.825561,0.057550,-0.188312,0.000000,-0.151911,-0.450037,-0.000000
1.680000,-1.905381,0.942923,-1.356025,1.430328,0.406349,0.229978,1.686040,0.493015,1.174147,3.718819,-1.490896,1.559920,-0.128636,-9.316401,-14.662943,0.055973,-0.192812,0.000000,-0.163715,-0.448082,0.000000
1.690000,-1.890994,0.947011,-1.353667,1.447375,0.411205,0.241798,1.723224,0.477640,1.189013,3.714916,-1.585033,1.409104,-0.728405,-9.483331,-15.475039,0.054276,-0.197287,0.000000,-0.175733,-0.445120,-0.000000
1.700000,-1.876434,0.951147,-1.351189,1.464793,0.415902,0.253758,1.760338,0.461315,1.202329,3.704251,-1.680563,1.250420,-1.410280,-9.615027,-16.244503,0.052459,-0.201726,0.000000,-0.187877,-0.440975,0.000000
1.710000,-1.861698,0.955329,-1.348592,1.482581,0.420431,0.265844,1.797309,0.444029,1.214021,3.686711,-1.777334,1.084214,-2.074538,-9.730778,-17.000091,0.050519,-0.206118,0.000000,-0.200109,-0.435634,-0.000000
1.720000,-1.846782,0.959555,-1.345872,1.500739,0.424783,0.278039,1.834072,0.425768,1.224014,3.662760,-1.875178,0.910418,-2.737388,-9.805346,-17.776229,0.048457,-0.210449,0.000000,-0.212390,-0.429139,-0.000000
1.730000,-1.831683,0.963825,-1.343031,1.519263,0.428946,0.290325,1.870564,0.406525,1.232230,3.631963,-1.973441,0.728689,-3.433297,-9.824934,-18.562654,0.046272,-0.214710,0.000000,-0.224627,-0.421427,0.000000
1.740000,-1.816397,0.968134,-1.340066,1.538150,0.432913,0.302683,1.906711,0.386299,1.238588,3.594094,-2.071677,0.539165,-4.129161,-9.820176,-19.308363,0.043965,-0.218886,0.000000,-0.236744,-0.412475,0.000000
1.750000,-1.800920,0.972483,-1.336977,1.557397,0.436672,0.315096,1.942446,0.365092,1.243013,3.549380,-2.169844,0.342522,-4.819141,-9.809703,-19.994521,0.041537,-0.222966,0.000000,-0.248713,-0.402326,0.000000
1.760000,-1.785249,0.976868,-1.333764,1.576999,0.440215,0.327544,1.977699,0.342902,1.245438,3.497711,-2.267871,0.139274,-5.525577,-9.766514,-20.651701,0.038991,-0.226939,0.000000,-0.260502,-0.390987,0.000000
1.770000,-1.769380,0.981287,-1.330426,1.596951,0.443530,0.340005,2.012400,0.319734,1.245798,3.438868,-2.365175,-0.070512,-6.241569,-9.636419,-21.316939,0.036328,-0.230791,0.000000,-0.272021,-0.378446,0.000000
1.780000,-1.753310,0.985738,-1.326964,1.617247,0.446610,0.352460,2.046476,0.295599,1.244028,3.372880,-2.460599,-0.287064,-6.962005,-9.415121,-21.975775,0.033551,-0.234512,0.000000,-0.283122,-0.364713,-0.000000
1.790000,-1.737035,0.990219,-1.323377,1.637881,0.449442,0.364886,2.079857,0.270522,1.240057,3.299628,-2.553477,-0.510027,-7.695728,-9.171673,-22.573149,0.030666,-0.238089,0.000000,-0.293707,-0.349802,0.000000
1.800000,-1.720552,0.994727,-1.319666,1.658844,0.452020,0.377261,2.112469,0.244529,1.233827,3.218965,-2.644033,-0.738527,-8.414102,-8.972871,-23.110528,0.027678,-0.241511,0.000000,-0.303780,-0.333742,-0.000000
1.810000,-1.703858,0.999260,-1.315832,1.680130,0.454333,0.389562,2.144237,0.217641,1.225287,3.131346,-2.732935,-0.972238,-9.111869,-8.763949,-23.618551,0.024592,-0.244766,0.000000,-0.313402,-0.316616,0.000000
1.820000,-1.686950,1.003814,-1.311875,1.701729,0.456373,0.401766,2.175096,0.189871,1.214382,3.036728,-2.819312,-1.210898,-9.874517,-8.357081,-24.072796,0.021411,-0.247844,0.000000,-0.322458,-0.298456,-0.000000
1.830000,-1.669824,1.008387,-1.307796,1.723632,0.458130,0.413850,2.204971,0.161255,1.201069,2.933856,-2.900076,-1.453694,-10.712034,-7.760762,-24.453957,0.018143,-0.250736,0.000000,-0.330587,-0.279180,0.000000
1.840000,-1.652477,1.012977,-1.303598,1.745828,0.459598,0.425788,2.233773,0.131869,1.185309,2.822487,-2.974527,-1.699978,-11.501655,-7.227704,-24.791579,0.014800,-0.253429,0.000000,-0.337705,-0.258815,0.000000
1.850000,-1.634907,1.017579,-1.299281,1.768307,0.460768,0.437556,2.261421,0.101765,1.167069,2.703823,-3.044630,-1.949526,-12.182614,-6.797864,-25.110656,0.011390,-0.255913,0.000000,-0.344029,-0.237539,0.000000
1.860000,-1.617111,1.022192,-1.294847,1.791057,0.461633,0.449129,2.287849,0.070977,1.146318,2.578835,-3.110484,-2.202191,-12.838950,-6.299739,-25.383376,0.007921,-0.258180,0.000000,-0.349568,-0.215501,-0.000000
1.870000,-1.599086,1.026812,-1.290298,1.814064,0.462187,0.460482,2.312998,0.039555,1.123025,2.447044,-3.170625,-2.457193,-13.610503,-5.668549,-25.536873,0.004400,-0.260223,0.000000,-0.354161,-0.192713,-0.000000
1.880000,-1.580830,1.031436,-1.285637,1.837317,0.462424,0.471590,2.336790,0.007564,1.097174,2.306625,-3.223855,-2.712928,-14.456494,-4.958675,-25.570619,0.000839,-0.262034,0.000000,-0.357681,-0.169067,-0.000000
1.890000,-1.562340,1.036060,-1.280866,1.860800,0.462339,0.482426,2.359130,-0.024922,1.068767,2.157914,-3.269798,-2.968605,-15.188860,-4.248259,-25.577022,-0.002753,-0.263605,0.000000,-0.360100,-0.144672,0.000000
1.900000,-1.543614,1.040682,-1.275989,1.884499,0.461926,0.492965,2.379949,-0.057832,1.037802,2.002848,-3.308821,-3.224469,-15.885699,-3.575515,-25.589585,-0.006363,-0.264929,0.000000,-0.361474,-0.119773,0.000000
1.910000,-1.524650,1.045299,-1.271007,1.908399,0.461182,0.503182,2.399187,-0.091099,1.004277,1.840200,-3.341309,-3.480397,-16.659934,-2.890102,-25.539798,-0.009981,-0.266001,0.000000,-0.361865,-0.094287,-0.000000
1.920000,-1.505446,1.049906,-1.265925,1.932483,0.460104,0.513051,2.416753,-0.124658,0.968194,1.669649,-3.366623,-3.735265,-17.243064,-2.082311,-25.339407,-0.013599,-0.266815,0.000000,-0.361223,-0.068259,-0.000000
1.930000,-1.486000,1.054501,-1.260746,1.956734,0.458689,0.522546,2.432580,-0.158431,0.929572,1.495339,-3.382955,-3.987185,-17.582604,-1.163584,-25.001586,-0.017205,-0.267367,0.000000,-0.359379,-0.042222,-0.000000
1.940000,-1.466311,1.059080,-1.255474,1.981135,0.456935,0.531642,2.446659,-0.192317,0.888450,1.317997,-3.389894,-4.235296,-18.052462,-0.288568,-24.639342,-0.020786,-0.267661,0.000000,-0.356321,-0.016312,0.000000
1.950000,-1.446377,1.063640,-1.250113,2.005667,0.454842,0.540315,2.458940,-0.226229,0.844866,1.134289,-3.388726,-4.479972,-18.686352,0.486207,-24.298159,-0.024331,-0.267695,0.000000,-0.352223,0.009797,-0.000000
1.960000,-1.426198,1.068177,-1.244668,2.030314,0.452411,0.548539,2.469345,-0.260092,0.798851,0.944270,-3.380170,-4.721259,-19.227495,1.262107,-23.897474,-0.027830,-0.267466,0.000000,-0.347194,0.036063,0.000000
1.970000,-1.405771,1.072688,-1.239142,2.055054,0.449641,0.556292,2.477826,-0.293832,0.750441,0.749739,-3.363484,-4.957922,-19.674594,2.161188,-23.318256,-0.031274,-0.266975,0.000000,-0.341189,0.062233,0.000000
1.980000,-1.385097,1.077170,-1.233542,2.079870,0.446534,0.563548,2.484340,-0.327361,0.699693,0.550778,-3.336946,-5.187625,-20.125209,3.141513,-22.580102,-0.034653,-0.266222,0.000000,-0.334072,0.088206,-0.000000
1.990000,-1.364174,1.081618,-1.227871,2.104741,0.443093,0.570286,2.488841,-0.360571,0.646688,0.347235,-3.300654,-5.409524,-20.554709,4.034715,-21.840578,-0.037955,-0.265211,0.000000,-0.325898,0.113955,0.000000
2.000000,-1.343002,1.086031,-1.222136,2.129647,0.439323,0.576482,2.491285,-0.393374,0.591502,0.139684,-3.256252,-5.624436,-20.889959,4.861387,-21.140304,-0.041171,-0.263943,0.000000,-0.316879,0.139423,-0.000000
2.010000,-1.321581,1.090405,-1.216342,2.154567,0.435226,0.582116,2.491635,-0.425696,0.534200,-0.070564,-3.203426,-5.832330,-21.155195,5.722328,-20.372390,-0.044293,-0.262422,0.000000,-0.307018,0.164465,0.000000
2.020000,-1.299910,1.094736,-1.210494,2.179480,0.430809,0.587166,2.489873,-0.457443,0.474856,-0.283420,-3.141806,-6.031884,-21.517919,6.514810,-19.446575,-0.047312,-0.260653,0.000000,-0.296321,0.189027,-0.000000
2.030000,-1.277991,1.099021,-1.204598,2.204364,0.426077,0.591613,2.485966,-0.488532,0.413562,-0.500922,-3.073130,-6.221261,-21.950469,7.189520,-18.397483,-0.050220,-0.258639,0.000000,-0.285016,0.213260,-0.000000
2.040000,-1.255823,1.103257,-1.198662,2.229199,0.421038,0.595437,2.479855,-0.518906,0.350430,-0.722429,-2.998015,-6.399834,-22.228304,7.885663,-17.343888,-0.053012,-0.256384,0.000000,-0.273204,0.237079,-0.000000
2.050000,-1.233407,1.107442,-1.192690,2.253961,0.415699,0.598621,2.471518,-0.548493,0.285565,-0.945488,-2.915417,-6.568139,-22.505639,8.639323,-16.304949,-0.055684,-0.253892,0.000000,-0.260806,0.260262,-0.000000
2.060000,-1.210744,1.111571,-1.186689,2.278629,0.410068,0.601149,2.460945,-0.577214,0.219067,-1.172542,-2.825229,-6.725933,-22.917577,9.344702,-15.204511,-0.058229,-0.251172,0.000000,-0.247847,0.283050,0.000000
2.070000,-1.187835,1.115643,-1.180667,2.303180,0.404155,0.603003,2.448067,-0.604997,0.151047,-1.403840,-2.728523,-6.872229,-22.967891,9.925524,-14.007146,-0.060642,-0.248224,0.000000,-0.234474,0.305448,0.000000
2.080000,-1.164680,1.119655,-1.174629,2.327591,0.397968,0.604169,2.432868,-0.631784,0.081623,-1.631900,-2.626718,-7.006076,-22.624625,10.406045,-12.738117,-0.062919,-0.245054,0.000000,-0.220848,0.326724,-0.000000
2.090000,-1.141283,1.123603,-1.168583,2.351838,0.391519,0.604635,2.415429,-0.657532,0.010925,-1.856332,-2.520402,-7.126992,-22.575517,10.873285,-11.446763,-0.065059,-0.241678,0.000000,-0.207051,0.346863,0.000000
2.100000,-1.117644,1.127485,-1.162536,2.375899,0.384818,0.604388,2.395742,-0.682192,-0.060917,-2.083410,-2.409253,-7.235011,-22.644508,11.360480,-10.164118,-0.067061,-0.238103,0.000000,-0.193080,0.366497,0.000000
2.110000,-1.093765,1.131299,-1.156496,2.399752,0.377875,0.603417,2.373761,-0.705717,-0.133775,-2.309223,-2.293192,-7.330274,-22.387397,11.801191,-8.860931,-0.068922,-0.234333,0.000000,-0.178937,0.385280,-0.000000
2.120000,-1.069648,1.135042,-1.150468,2.423374,0.370703,0.601712,2.349557,-0.728056,-0.207522,-2.531158,-2.173229,-7.412229,-22.494712,12.091296,-7.459585,-0.070640,-0.230380,0.000000,-0.164735,0.402987,-0.000000
2.130000,-1.045297,1.138713,-1.144461,2.446744,0.363314,0.599266,2.323138,-0.749181,-0.282020,-2.759117,-2.051366,-7.479466,-23.145254,12.240665,-5.974622,-0.072217,-0.226254,0.000000,-0.150703,0.420557,-0.000000
2.140000,-1.020714,1.142309,-1.138483,2.469837,0.355720,0.596072,2.294375,-0.769084,-0.357112,-2.994063,-1.928415,-7.531722,-23.349532,12.381736,-4.518288,-0.073655,-0.221949,0.000000,-0.136926,0.438095,0.000000
2.150000,-0.995900,1.145827,-1.132540,2.492631,0.347932,0.592124,2.263256,-0.787750,-0.432654,-3.226107,-1.803732,-7.569831,-23.021898,12.563476,-3.085800,-0.074957,-0.217469,0.000000,-0.123323,0.454726,0.000000
2.160000,-0.970861,1.149267,-1.126640,2.515102,0.339965,0.587419,2.229853,-0.805158,-0.508508,-3.454501,-1.677146,-7.593438,-22.831903,12.690062,-1.609928,-0.076123,-0.212829,0.000000,-0.109880,0.470419,0.000000
2.170000,-0.945598,1.152627,-1.120792,2.537228,0.331829,0.581954,2.194166,-0.821292,-0.584523,-3.682746,-1.549930,-7.602030,-22.729433,12.632895,-0.140642,-0.077155,-0.208035,0.000000,-0.096725,0.485529,-0.000000
2.180000,-0.920116,1.155904,-1.115001,2.558986,0.323539,0.575729,2.156198,-0.836157,-0.660549,-3.909090,-1.424488,-7.596251,-22.433111,12.409873,1.290742,-0.078058,-0.203091,0.000000,-0.084069,0.499948,0.000000
2.190000,-0.894419,1.159097,-1.109277,2.580352,0.315106,0.568743,2.115984,-0.849782,-0.736448,-4.131408,-1.301733,-7.576215,-22.072039,12.189457,2.749509,-0.078837,-0.198006,0.000000,-0.071981,0.513528,-0.000000
2.200000,-0.868509,1.162206,-1.103626,2.601305,0.306543,0.561000,2.073570,-0.862191,-0.812073,-4.350531,-1.180699,-7.541261,-21.963638,12.051262,4.243488,-0.079498,-0.192789,0.000000,-0.060365,0.526378,0.000000
2.210000,-0.842393,1.165228,-1.098057,2.621823,0.297862,0.552502,2.028974,-0.873396,-0.887273,-4.570681,-1.060708,-7.491345,-21.981606,11.876630,5.720501,-0.080045,-0.187445,0.000000,-0.049154,0.538922,-0.000000
2.220000,-0.816073,1.168163,-1.092576,2.641885,0.289075,0.543254,1.982156,-0.883406,-0.961900,-4.790163,-0.943166,-7.426850,-21.316597,11.459797,7.167321,-0.080482,-0.181976,0.000000,-0.038458,0.551051,-0.000000
2.230000,-0.789555,1.171010,-1.087192,2.661467,0.280194,0.533264,1.933171,-0.892259,-1.035810,-4.997012,-0.831512,-7.347999,-19.994737,10.831034,8.590692,-0.080815,-0.176389,0.000000,-0.028554,0.561745,-0.000000
2.240000,-0.762844,1.173767,-1.081911,2.680548,0.271230,0.522538,1.882216,-0.900036,-1.108860,-5.190058,-0.726546,-7.255037,-19.114887,10.267670,9.996808,-0.081053,-0.170704,0.000000,-0.019492,0.570966,-0.000000
2.250000,-0.735944,1.176434,-1.076741,2.699111,0.262193,0.511086,1.829369,-0.906790,-1.180911,-5.379310,-0.626158,-7.148063,-18.684465,9.831115,11.424821,-0.081205,-0.164932,0.000000,-0.011073,0.579653,0.000000
2.260000,-0.708861,1.179011,-1.071689,2.717136,0.253094,0.498920,1.774630,-0.912559,-1.251821,-5.563747,-0.529923,-7.026540,-17.974091,9.336457,12.861456,-0.081275,-0.159073,0.000000,-0.003245,0.587750,-0.000000
2.270000,-0.681601,1.181496,-1.066763,2.734603,0.243942,0.486050,1.718094,-0.917389,-1.321442,-5.738792,-0.439429,-6.890834,-17.208092,8.662161,14.175835,-0.081270,-0.153138,0.000000,0.003877,0.594905,0.000000
2.280000,-0.654169,1.183890,-1.061968,2.751497,0.234746,0.472491,1.659854,-0.921348,-1.389638,-5.907909,-0.356680,-6.743024,-16.682210,7.868694,15.379975,-0.081198,-0.147135,0.000000,0.010146,0.601496,0.000000
2.290000,-0.626571,1.186191,-1.057313,2.767801,0.225515,0.458257,1.599936,-0.924522,-1.456302,-6.072436,-0.282055,-6.583234,-16.027529,7.117586,16.641833,-0.081068,-0.141068,0.000000,0.015551,0.607674,-0.000000
2.300000,-0.598813,1.188400,-1.052803,2.783496,0.216256,0.443365,1.538405,-0.926989,-1.521303,-6.228459,-0.214328,-6.410187,-15.002497,6.457310,17.854647,-0.080887,-0.134941,0.000000,0.020213,0.613122,0.000000
2.310000,-0.570901,1.190516,-1.048446,2.798569,0.206975,0.427831,1.475367,-0.928809,-1.584506,-6.372486,-0.152909,-6.226141,-13.888906,5.786430,18.909987,-0.080664,-0.128764,0.000000,0.024219,0.617607,-0.000000
2.320000,-0.542842,1.192540,-1.044247,2.813003,0.197680,0.411675,1.410955,-0.930047,-1.645826,-6.506238,-0.098600,-6.031987,-13.214260,4.995837,20.140611,-0.080403,-0.122548,0.000000,0.027520,0.621324,-0.000000
2.330000,-0.514641,1.194470,-1.040212,2.826788,0.188375,0.394915,1.345242,-0.930781,-1.705146,-6.636771,-0.052992,-5.823329,-12.868988,4.156340,21.547062,-0.080113,-0.116297,0.000000,0.029957,0.624864,-0.000000
2.340000,-0.486306,1.196307,-1.036348,2.839908,0.179064,0.377572,1.278220,-0.931107,-1.762292,-6.763617,-0.015473,-5.601046,-12.164143,3.414923,22.664356,-0.079804,-0.110009,0.000000,0.031609,0.628232,0.000000
2.350000,-0.457843,1.198051,-1.032661,2.852352,0.169752,0.359669,1.209970,-0.931090,-1.817166,-6.880054,0.015306,-5.370042,-11.282945,2.555573,23.771328,-0.079481,-0.103691,0.000000,0.032642,0.630932,-0.000000
2.360000,-0.429259,1.199702,-1.029155,2.864108,0.160442,0.341228,1.140619,-0.930801,-1.869693,-6.989276,0.035639,-5.125619,-10.668022,1.509252,25.150034,-0.079151,-0.097350,0.000000,0.032719,0.633223,0.000000
2.370000,-0.400561,1.201260,-1.025836,2.875165,0.151136,0.322275,1.070185,-0.930378,-1.919679,-7.093415,0.045491,-4.867041,-9.669119,0.939461,25.860832,-0.078827,-0.090985,0.000000,0.031846,0.635314,-0.000000
2.380000,-0.371756,1.202725,-1.022709,2.885511,0.141835,0.302835,0.998750,-0.929891,-1.967034,-7.182659,0.054428,-4.608403,-8.087982,0.868277,25.806090,-0.078514,-0.084602,0.000000,0.030940,0.636513,0.000000
2.390000,-0.342851,1.204097,-1.019779,2.895140,0.132539,0.282934,0.926531,-0.929289,-2.011847,-7.255174,0.062857,-4.350919,-6.866246,0.391785,26.293148,-0.078208,-0.078215,0.000000,0.030036,0.636679,0.000000
2.400000,-0.313853,1.205376,-1.017051,2.904042,0.123249,0.262598,0.853647,-0.928634,-2.054052,-7.319984,0.062263,-4.082540,-6.254570,-0.343453,27.176314,-0.077913,-0.071829,0.000000,0.028340,0.636506,-0.000000
2.410000,-0.284770,1.206562,-1.014527,2.912212,0.113966,0.241853,0.780132,-0.928044,-2.093498,-7.380266,0.055988,-3.807393,-5.604059,-0.741635,27.593486,-0.077641,-0.065444,0.000000,0.026165,0.636307,0.000000
2.420000,-0.255609,1.207655,-1.012214,2.919645,0.104688,0.220728,0.706042,-0.927514,-2.130200,-7.432065,0.047431,-3.530670,-4.481011,-1.439005,28.311604,-0.077390,-0.059063,0.000000,0.023828,0.635787,0.000000
2.430000,-0.226377,1.208656,-1.010113,2.926333,0.095416,0.199249,0.631490,-0.927095,-2.164111,-7.469886,0.027208,-3.241161,-3.147476,-2.682869,29.679021,-0.077164,-0.052689,0.000000,0.020480,0.634448,-0.000000
2.440000,-0.197082,1.209563,-1.008229,2.932274,0.086146,0.177446,0.556644,-0.926970,-2.195023,-7.495014,-0.006227,-2.937090,-2.149792,-3.534973,30.562570,-0.076980,-0.046334,0.000000,0.015989,0.632425,-0.000000
2.450000,-0.167732,1.210378,-1.006564,2.937466,0.076876,0.155349,0.481590,-0.927220,-2.222853,-7.512882,-0.043492,-2.629910,-1.225246,-3.758748,30.716719,-0.076844,-0.040002,0.000000,0.011202,0.630234,-0.000000
2.460000,-0.138333,1.211101,-1.005122,2.941906,0.067602,0.132989,0.406386,-0.927840,-2.247621,-7.519519,-0.081402,-2.322755,-0.053193,-3.999601,30.926801,-0.076756,-0.033691,0.000000,0.006399,0.627557,-0.000000
2.470000,-0.108893,1.211731,-1.003904,2.945594,0.058319,0.110396,0.331200,-0.928848,-2.269308,-7.513946,-0.123484,-2.011374,0.532740,-4.623160,31.516265,-0.076716,-0.027412,0.000000,0.001253,0.624304,0.000000
2.480000,-0.079421,1.212267,-1.002914,2.948530,0.049025,0.087603,0.256107,-0.930309,-2.287849,-7.508864,-0.173865,-1.692430,0.294108,-5.299376,32.125022,-0.076731,-0.021167,0.000000,-0.004600,0.621526,0.000000
2.490000,-0.049923,1.212711,-1.002152,2.950716,0.039713,0.064639,0.181022,-0.932325,-2.303157,-7.508063,-0.229471,-1.368873,0.412384,-5.591883,32.390741,-0.076808,-0.014943,0.000000,-0.010895,0.619545,0.000000
2.500000,-0.020407,1.213062,-1.001621,2.952151,0.030378,0.041539,0.105946,-0.934899,-2.315226,-7.500617,-0.285702,-1.044615,1.630040,-6.258341,32.965564,-0.076948,-0.008737,0.000000,-0.017234,0.617469,-0.000000
2.510000,0.009120,1.213319,-1.001321,2.952835,0.021015,0.018335,0.031010,-0.938039,-2.324049,-7.475463,-0.354638,-0.709562,3.088350,-7.507992,34.021738,-0.077153,-0.002556,0.000000,-0.024680,0.614386,-0.000000
2.520000,0.038650,1.213482,-1.001254,2.952771,0.011618,-0.004942,-0.043563,-0.941991,-2.329418,-7.438850,-0.435862,-0.364180,2.953543,-7.118381,33.688029,-0.077442,0.003589,0.000000,-0.033206,0.610833,-0.000000
2.530000,0.068176,1.213551,-1.001420,2.951964,0.002175,-0.028254,-0.117767,-0.946756,-2.331333,-7.416392,-0.497006,-0.035801,1.580428,-5.050193,31.942965,-0.077817,0.009699,0.000000,-0.039998,0.608904,-0.000000
2.540000,0.097689,1.213525,-1.001819,2.950416,-0.007317,-0.051568,-0.191891,-0.951932,-2.330134,-7.407241,-0.536866,0.274679,1.410336,-4.353656,31.355659,-0.078242,0.015805,0.000000,-0.044958,0.608483,0.000000
2.550000,0.127184,1.213405,-1.002452,2.948126,-0.016863,-0.074856,-0.265912,-0.957494,-2.325839,-7.388185,-0.584079,0.591312,1.838848,-4.469720,31.397417,-0.078716,0.021908,0.000000,-0.050592,0.607678,-0.000000
2.560000,0.156652,1.213188,-1.003316,2.945097,-0.026467,-0.098085,-0.339655,-0.963613,-2.318307,-7.370464,-0.626261,0.902627,1.318821,-3.414316,30.404229,-0.079254,0.027998,0.000000,-0.055819,0.607401,0.000000
2.570000,0.186086,1.212875,-1.004413,2.941333,-0.036135,-0.121222,-0.413321,-0.970019,-2.307786,-7.361809,-0.652365,1.199396,2.096862,-3.554686,30.540336,-0.079833,0.034095,0.000000,-0.059676,0.608244,-0.000000
2.580000,0.215479,1.212465,-1.005741,2.936831,-0.045868,-0.144241,-0.486891,-0.976660,-2.294319,-7.328527,-0.697354,1.513434,4.862333,-5.659838,32.444625,-0.080448,0.040203,0.000000,-0.065245,0.607519,0.000000
2.590000,0.244822,1.211958,-1.007298,2.931595,-0.055669,-0.167109,-0.559892,-0.983966,-2.277518,-7.264562,-0.765562,1.848289,6.400707,-6.308483,33.006148,-0.081138,0.046287,0.000000,-0.072933,0.604782,-0.000000
2.600000,0.274110,1.211352,-1.009083,2.925633,-0.065547,-0.189791,-0.632182,-0.991972,-2.257354,-7.200513,-0.823524,2.173557,6.023515,-5.268520,32.107298,-0.081907,0.052340,0.000000,-0.079799,0.602444,-0.000000
2.610000,0.303335,1.210647,-1.011094,2.918951,-0.075508,-0.212256,-0.703902,-1.000437,-2.234047,-7.144092,-0.870933,2.490435,5.960413,-4.862918,31.851751,-0.082734,0.058378,0.000000,-0.085822,0.601125,0.000000
2.620000,0.332489,1.209842,-1.013328,2.911555,-0.085556,-0.234472,-0.775064,-1.009390,-2.207545,-7.081304,-0.920782,2.810592,7.261146,-4.691077,31.627600,-0.083623,0.064405,0.000000,-0.092163,0.599724,0.000000
2.630000,0.361566,1.208936,-1.015783,2.903450,-0.095696,-0.256407,-0.845528,-1.018852,-2.177835,-6.998869,-0.964754,3.122987,9.065422,-3.810977,30.611469,-0.084578,0.070416,0.000000,-0.098076,0.597083,-0.000000
2.640000,0.390558,1.207928,-1.018456,2.894645,-0.105933,-0.278029,-0.915041,-1.028685,-2.145085,-6.899996,-0.997002,3.422821,10.134915,-2.988601,29.833144,-0.085585,0.076391,0.000000,-0.103047,0.593405,0.000000
2.650000,0.419459,1.206817,-1.021344,2.885149,-0.116270,-0.299308,-0.983528,-1.038792,-2.109378,-6.796170,-1.024526,3.719650,11.204260,-3.106308,29.850222,-0.086639,0.082329,0.000000,-0.107714,0.589678,0.000000
2.660000,0.448261,1.205603,-1.024443,2.874974,-0.126709,-0.320216,-1.050965,-1.049176,-2.070692,-6.675911,-1.059128,4.019826,12.995450,-3.542885,29.897622,-0.087740,0.088230,0.000000,-0.113118,0.584989,-0.000000
2.670000,0.476959,1.204283,-1.027748,2.864130,-0.137253,-0.340722,-1.117046,-1.059975,-2.028982,-6.536261,-1.095384,4.317602,13.362849,-2.221491,28.873752,-0.088902,0.094075,0.000000,-0.118789,0.579036,0.000000
2.680000,0.505544,1.202857,-1.031257,2.852633,-0.147908,-0.360796,-1.181690,-1.071084,-1.984340,-6.408654,-1.103558,4.597301,12.002839,0.634670,27.066062,-0.090116,0.099858,0.000000,-0.122105,0.574292,0.000000
2.690000,0.534011,1.201325,-1.034964,2.840496,-0.158675,-0.380409,-1.245219,-1.082046,-1.937036,-6.296205,-1.082690,4.858923,11.903081,2.236616,25.909520,-0.091344,0.105608,0.000000,-0.122943,0.570995,0.000000
2.700000,0.562354,1.199684,-1.038865,2.827729,-0.169549,-0.399537,-1.307614,-1.092737,-1.887162,-6.170592,-1.058825,5.115491,13.069086,2.919489,25.087033,-0.092575,0.111327,0.000000,-0.123588,0.566865,-0.000000
2.710000,0.590566,1.197934,-1.042955,2.814344,-0.180530,-0.418152,-1.368631,-1.103222,-1.834726,-6.034823,-1.024301,5.360664,13.491517,4.497223,23.681463,-0.093816,0.116996,0.000000,-0.123342,0.562070,-0.000000
2.720000,0.618641,1.196073,-1.047228,2.800356,-0.191614,-0.436231,-1.428310,-1.113223,-1.779948,-5.900762,-0.968881,5.589121,13.930977,5.413286,22.849053,-0.095042,0.122619,0.000000,-0.121259,0.557524,-0.000000
2.730000,0.646573,1.194102,-1.051680,2.785778,-0.202794,-0.453751,-1.486646,-1.122600,-1.722944,-5.756203,-0.916035,5.817645,15.121273,4.976471,22.937292,-0.096242,0.128197,0.000000,-0.119455,0.552345,0.000000
2.740000,0.674356,1.192018,-1.056303,2.770623,-0.214066,-0.470690,-1.543434,-1.131544,-1.663596,-5.598336,-0.869352,6.047866,15.842214,5.461071,22.288597,-0.097432,0.133718,0.000000,-0.118267,0.546303,0.000000
2.750000,0.701985,1.189820,-1.061093,2.754909,-0.225425,-0.487023,-1.598613,-1.139987,-1.601986,-5.439359,-0.806813,6.263417,15.930262,7.007824,20.884479,-0.098607,0.139176,0.000000,-0.115656,0.540229,-0.000000
2.760000,0.729455,1.187509,-1.066044,2.738651,-0.236865,-0.502730,-1.652222,-1.147680,-1.538327,-5.279731,-0.729195,6.465556,16.238703,8.052197,19.846814,-0.099745,0.144576,0.000000,-0.111663,0.534145,0.000000
2.770000,0.756758,1.185083,-1.071148,2.721865,-0.248378,-0.517790,-1.704208,-1.154571,-1.472675,-5.114585,-0.645770,6.660353,16.691448,8.930545,18.728115,-0.100840,0.149913,0.000000,-0.107121,0.527683,0.000000
2.780000,0.783892,1.182541,-1.076399,2.704567,-0.259957,-0.532183,-1.754513,-1.160596,-1.405120,-4.945902,-0.550584,6.840118,16.987138,10.200685,17.114464,-0.101887,0.155184,0.000000,-0.101425,0.520887,-0.000000
2.790000,0.810850,1.179884,-1.081792,2.686774,-0.271590,-0.545892,-1.803126,-1.165583,-1.335873,-4.774842,-0.441756,7.002643,17.308606,11.248957,15.722108,-0.102869,0.160386,0.000000,-0.094352,0.513786,-0.000000
2.800000,0.837627,1.177110,-1.087317,2.668504,-0.283268,-0.558901,-1.850010,-1.169431,-1.265067,-4.599730,-0.325605,7.154560,17.694831,11.949103,14.677321,-0.103774,0.165515,0.000000,-0.086485,0.506292,0.000000
2.810000,0.864220,1.174218,-1.092970,2.649774,-0.294979,-0.571194,-1.895120,-1.172095,-1.192782,-4.420946,-0.202774,7.296189,18.011722,12.730766,13.479550,-0.104598,0.170567,0.000000,-0.077857,0.498412,0.000000
2.820000,0.890623,1.171210,-1.098741,2.630602,-0.306710,-0.582756,-1.938429,-1.173486,-1.119144,-4.239496,-0.070990,7.424151,18.306358,13.588604,12.082640,-0.105331,0.175538,0.000000,-0.068208,0.490153,0.000000
2.830000,0.916832,1.168084,-1.104625,2.611005,-0.318449,-0.593576,-1.979910,-1.173515,-1.044298,-4.054819,0.068998,7.537842,18.627535,14.360296,10.660565,-0.105962,0.180424,0.000000,-0.057565,0.481419,-0.000000
2.840000,0.942843,1.164841,-1.110613,2.591004,-0.330181,-0.603642,-2.019526,-1.172106,-0.968387,-3.866945,0.216216,7.637363,18.896985,15.083657,9.235626,-0.106482,0.185220,0.000000,-0.045985,0.472173,0.000000
2.850000,0.968652,1.161481,-1.116698,2.570615,-0.341891,-0.612944,-2.057249,-1.169190,-0.891551,-3.676879,0.370671,7.722554,19.102264,15.808396,7.810966,-0.106881,0.189921,0.000000,-0.033431,0.462466,0.000000
2.860000,0.994255,1.158003,-1.122872,2.549859,-0.353564,-0.621473,-2.093063,-1.164693,-0.813936,-3.484900,0.532384,7.793582,19.297087,16.492714,6.380358,-0.107150,0.194523,0.000000,-0.019870,0.452285,0.000000
2.870000,1.019649,1.154409,-1.129127,2.528754,-0.365185,-0.629223,-2.126947,-1.158543,-0.735680,-3.290937,0.700526,7.850162,19.478576,17.044752,4.878382,-0.107277,0.199019,0.000000,-0.005340,0.441581,0.000000
2.880000,1.044830,1.150700,-1.135456,2.507320,-0.376735,-0.636187,-2.158882,-1.150683,-0.656932,-3.095328,0.873279,7.891150,19.625554,17.464532,3.305997,-0.107255,0.203405,0.000000,0.010035,0.430325,-0.000000
2.890000,1.069796,1.146875,-1.141851,2.485576,-0.388198,-0.642361,-2.188854,-1.141077,-0.577857,-2.898426,1.049816,7.916282,19.745658,17.865997,1.760613,-0.107076,0.207675,0.000000,0.026208,0.418500,-0.000000
2.900000,1.094542,1.142936,-1.148303,2.463543,-0.399557,-0.647744,-2.216850,-1.129686,-0.498607,-2.700415,1.230599,7.926362,19.850059,18.296453,0.271280,-0.106730,0.211823,0.000000,0.043243,0.406098,-0.000000
2.910000,1.119066,1.138884,-1.154806,2.441239,-0.410792,-0.652334,-2.242862,-1.116465,-0.419329,-2.501425,1.415745,7.921707,19.930915,18.669364,-1.223352,-0.106210,0.215842,0.000000,0.061174,0.393098,-0.000000
2.920000,1.143367,1.134720,-1.161350,2.418685,-0.421886,-0.656131,-2.266879,-1.101371,-0.340173,-2.301797,1.603986,7.901895,19.962506,18.854078,-2.773309,-0.105506,0.219728,0.000000,0.079913,0.379484,-0.000000
2.930000,1.167440,1.130446,-1.167928,2.395901,-0.432820,-0.659137,-2.288898,-1.084385,-0.261291,-2.102175,1.792827,7.866241,19.945048,18.865567,-4.354059,-0.104610,0.223474,0.000000,0.099251,0.365262,0.000000
2.940000,1.191285,1.126063,-1.174533,2.372907,-0.443574,-0.661356,-2.308922,-1.065515,-0.182848,-1.902896,1.981298,7.814814,19.912166,18.871136,-5.892899,-0.103519,0.227073,0.000000,0.119107,0.350427,-0.000000
2.950000,1.214898,1.121574,-1.181155,2.349723,-0.454130,-0.662794,-2.326956,-1.044759,-0.104995,-1.703931,2.170250,7.748383,19.872233,18.929230,-7.379185,-0.102227,0.230519,0.000000,0.139566,0.334956,0.000000
2.960000,1.238279,1.116981,-1.187789,2.326368,-0.464469,-0.663456,-2.343001,-1.022110,-0.027880,-1.505451,2.359882,7.667230,19.801286,18.920349,-8.854151,-0.100726,0.233806,0.000000,0.160655,0.318838,0.000000
2.970000,1.261426,1.112285,-1.194425,2.302863,-0.474572,-0.663352,-2.357065,-0.997562,0.048349,-1.307906,2.548657,7.571300,19.680038,18.694332,-10.324882,-0.099012,0.236927,0.000000,0.182231,0.302080,-0.000000
2.980000,1.284336,1.107489,-1.201056,2.279227,-0.484420,-0.662489,-2.369159,-0.971137,0.123546,-1.111850,2.733769,7.460732,19.514198,18.280252,-11.769324,-0.097080,0.239876,0.000000,0.204015,0.284710,0.000000
2.990000,1.307010,1.102597,-1.207674,2.255480,-0.493995,-0.660881,-2.379302,-0.942886,0.197564,-0.917622,2.914262,7.335913,19.327985,17.874097,-13.171174,-0.094931,0.242646,0.000000,0.225895,0.266741,-0.000000
3.000000,1.329446,1.097609,-1.214273,2.231641,-0.503278,-0.658538,-2.387512,-0.912851,0.270264,-0.725291,3.091251,7.197309,19.134467,17.533530,-14.539656,-0.092561,0.245233,0.000000,0.247965,0.248168,-0.000000
3.010000,1.351643,1.092531,-1.220845,2.207730,-0.512252,-0.655475,-2.393808,-0.881061,0.341510,-0.534932,3.264932,7.045120,18.916423,17.124190,-15.876178,-0.089970,0.247629,0.000000,0.270223,0.228983,-0.000000
3.020000,1.373601,1.087364,-1.227383,2.183765,-0.520899,-0.651708,-2.398210,-0.847553,0.411167,-0.346962,3.433735,6.879785,18.637405,16.508263,-17.139054,-0.087155,0.249830,0.000000,0.292485,0.209218,-0.000000
3.030000,1.395318,1.082113,-1.233879,2.159765,-0.529203,-0.647252,-2.400747,-0.812387,0.479106,-0.162184,3.595098,6.702339,18.294010,15.724511,-18.316005,-0.084119,0.251828,0.000000,0.314450,0.188968,-0.000000
3.040000,1.416796,1.076780,-1.240328,2.135750,-0.537147,-0.642126,-2.401454,-0.775651,0.545213,0.018918,3.748225,6.513465,17.937464,14.955597,-19.455073,-0.080865,0.253621,0.000000,0.335989,0.168291,-0.000000
3.050000,1.438033,1.071370,-1.246722,2.111736,-0.544716,-0.636348,-2.400368,-0.737422,0.609375,0.196565,3.894210,6.313238,17.632692,14.252040,-20.587511,-0.077398,0.255203,0.000000,0.357170,0.147164,-0.000000
3.060000,1.459031,1.065886,-1.253055,2.087743,-0.551895,-0.629938,-2.397523,-0.697767,0.671478,0.371572,4.033266,6.101715,17.341234,13.493120,-21.670903,-0.073721,0.256571,0.000000,0.377965,0.125507,-0.000000
3.070000,1.479788,1.060332,-1.259321,2.063786,-0.558671,-0.622918,-2.392937,-0.656757,0.731410,0.543390,4.164072,5.879820,16.887391,12.564597,-22.610422,-0.069838,0.257719,0.000000,0.398179,0.103402,0.000000
3.080000,1.500306,1.054713,-1.265513,2.039884,-0.565030,-0.615310,-2.386655,-0.614485,0.789074,0.709320,4.284558,5.649507,16.291207,11.505293,-23.407973,-0.065757,0.258643,0.000000,0.417526,0.081189,-0.000000
3.090000,1.520586,1.049032,-1.271627,2.016053,-0.570961,-0.607137,-2.378751,-0.571066,0.844400,0.869214,4.394178,5.411660,15.791838,10.471206,-24.182872,-0.061488,0.259344,0.000000,0.435876,0.058930,0.000000
3.100000,1.540627,1.043293,-1.277656,1.992309,-0.576452,-0.598422,-2.369270,-0.526602,0.897308,1.025156,4.493982,5.165849,15.329596,9.503927,-24.974051,-0.057039,0.259822,0.000000,0.453278,0.036418,-0.000000
3.110000,1.560432,1.037503,-1.283595,1.968667,-0.581493,-0.589191,-2.358247,-0.481186,0.947717,1.175806,4.584256,4.912179,14.753471,8.504662,-25.693246,-0.052422,0.260073,0.000000,0.469699,0.013819,-0.000000
3.120000,1.580001,1.031664,-1.289440,1.945144,-0.586075,-0.579468,-2.345754,-0.434916,0.995551,1.320226,4.664075,4.651984,14.293047,7.388416,-26.237549,-0.047646,0.260098,0.000000,0.484964,-0.008700,0.000000
3.130000,1.599335,1.025781,-1.295185,1.921752,-0.590191,-0.569280,-2.331843,-0.387904,1.040756,1.461667,4.732025,4.387428,14.015700,6.200093,-26.623121,-0.042723,0.259897,0.000000,0.498837,-0.031390,-0.000000
3.140000,1.618436,1.019860,-1.300825,1.898507,-0.593834,-0.558653,-2.316521,-0.340276,1.083300,1.600540,4.788077,4.119522,13.594858,5.058636,-26.980536,-0.037669,0.259468,0.000000,0.511244,-0.054235,-0.000000
3.150000,1.637305,1.013904,-1.306358,1.875422,-0.596997,-0.547614,-2.299832,-0.292143,1.123147,1.733564,4.833197,3.847818,12.969444,3.928592,-27.373835,-0.032499,0.258811,0.000000,0.522236,-0.076861,0.000000
3.160000,1.655944,1.007920,-1.311778,1.852510,-0.599676,-0.536190,-2.281850,-0.243612,1.160256,1.859929,4.866649,3.572045,12.365864,2.744455,-27.708439,-0.027226,0.257929,0.000000,0.531670,-0.099145,0.000000
3.170000,1.674355,1.001911,-1.317081,1.829785,-0.601869,-0.524408,-2.262634,-0.194810,1.194588,1.980881,4.888087,3.293649,11.866936,1.642997,-27.811125,-0.021867,0.256826,0.000000,0.539441,-0.121136,-0.000000
3.180000,1.692540,0.995882,-1.322266,1.807258,-0.603573,-0.512298,-2.242232,-0.145850,1.226129,2.097267,4.899509,3.015823,11.378616,0.663486,-27.703857,-0.016438,0.255505,0.000000,0.545714,-0.142789,-0.000000
3.190000,1.710500,0.989839,-1.327327,1.784940,-0.604786,-0.499886,-2.220688,-0.096820,1.254904,2.208453,4.901356,2.739572,10.811004,-0.376541,-27.617213,-0.010954,0.253970,0.000000,0.550499,-0.163964,-0.000000
3.200000,1.728239,0.983787,-1.332263,1.762844,-0.605509,-0.487200,-2.198063,-0.047823,1.280921,2.313488,4.891978,2.463478,10.290381,-1.520719,-27.599850,-0.005430,0.252226,0.000000,0.553574,-0.184551,0.000000
3.210000,1.745757,0.977729,-1.337071,1.740979,-0.605742,-0.474267,-2.174418,0.001020,1.304174,2.414261,4.870942,2.187575,9.863209,-2.633949,-27.495646,0.000116,0.250279,0.000000,0.554853,-0.204711,0.000000
3.220000,1.763058,0.971672,-1.341749,1.719356,-0.605489,-0.461116,-2.149778,0.049596,1.324672,2.510752,4.839299,1.913565,9.173514,-3.623137,-27.206103,0.005666,0.248131,0.000000,0.554429,-0.224354,0.000000
3.230000,1.780144,0.965619,-1.346294,1.697983,-0.604751,-0.447774,-2.124203,0.097806,1.342445,2.597731,4.798479,1.643453,8.198649,-4.524975,-26.783656,0.011203,0.245792,0.000000,0.552446,-0.242800,0.000000
3.240000,1.797018,0.959577,-1.350704,1.676871,-0.603532,-0.434267,-2.097823,0.145565,1.357541,2.674725,4.748799,1.377892,7.432880,-5.446717,-26.354701,0.016713,0.243275,0.000000,0.548931,-0.259934,-0.000000
3.250000,1.813682,0.953549,-1.354979,1.656027,-0.601839,-0.420623,-2.070709,0.192782,1.370003,2.746389,4.689545,1.116359,6.881264,-6.403357,-25.934176,0.022180,0.240592,0.000000,0.543800,-0.276249,-0.000000
3.260000,1.830138,0.947540,-1.359117,1.635457,-0.599677,-0.406867,-2.042895,0.239356,1.379868,2.812350,4.620732,0.859209,6.215813,-7.317108,-25.442392,0.027587,0.237749,0.000000,0.537057,-0.291663,-0.000000
3.270000,1.846391,0.941555,-1.363116,1.615169,-0.597052,-0.393026,-2.014462,0.285196,1.387187,2.870705,4.543203,0.607511,5.548846,-8.137885,-24.852711,0.032919,0.234758,0.000000,0.528810,-0.305901,-0.000000
3.280000,1.862442,0.935599,-1.366977,1.595168,-0.593973,-0.379124,-1.985481,0.330220,1.392019,2.923327,4.457974,0.362155,5.010254,-8.880167,-24.194583,0.038162,0.231629,0.000000,0.519196,-0.319126,-0.000000
3.290000,1.878294,0.929676,-1.370699,1.575459,-0.590448,-0.365185,-1.955995,0.374356,1.394430,2.970910,4.365599,0.123619,4.420781,-9.601456,-23.505439,0.043302,0.228371,0.000000,0.508307,-0.331382,-0.000000
3.300000,1.893951,0.923790,-1.374281,1.556048,-0.586486,-0.351235,-1.926063,0.417532,1.394491,3.011743,4.265945,-0.107954,3.703028,-10.353852,-22.800192,0.048326,0.224996,0.000000,0.496152,-0.342456,-0.000000
3.310000,1.909415,0.917946,-1.377724,1.536938,-0.582097,-0.337296,-1.895761,0.459675,1.392271,3.044971,4.158522,-0.332385,2.991184,-11.091265,-22.059538,0.053223,0.221515,0.000000,0.482707,-0.352236,0.000000
3.320000,1.924690,0.912148,-1.381027,1.518133,-0.577292,-0.323390,-1.865164,0.500703,1.387843,3.071566,4.044120,-0.549145,2.432023,-11.657273,-21.250573,0.057979,0.217942,0.000000,0.468102,-0.360808,0.000000
3.330000,1.939778,0.906400,-1.384191,1.499635,-0.572083,-0.309539,-1.834329,0.540557,1.381288,3.093611,3.925377,-0.757396,1.984661,-12.057695,-20.386176,0.062584,0.214287,0.000000,0.452688,-0.368384,-0.000000
3.340000,1.954683,0.900706,-1.387218,1.481446,-0.566481,-0.295764,-1.803291,0.579210,1.372695,3.111259,3.802966,-0.956869,1.463336,-12.501479,-19.518166,0.067032,0.210560,0.000000,0.436589,-0.374978,0.000000
3.350000,1.969407,0.895071,-1.390107,1.463569,-0.560499,-0.282085,-1.772104,0.616616,1.362151,3.122878,3.675347,-1.147759,0.867031,-13.024596,-18.636856,0.071315,0.206772,0.000000,0.419664,-0.380414,0.000000
3.360000,1.983954,0.889496,-1.392859,1.446004,-0.554149,-0.268521,-1.740834,0.652717,1.349740,3.128600,3.542474,-1.329606,0.320466,-13.483811,-17.715622,0.075424,0.202934,0.000000,0.401954,-0.384706,-0.000000
3.370000,1.998327,0.883988,-1.395477,1.428752,-0.547445,-0.255090,-1.709532,0.687466,1.335559,3.129287,3.405671,-1.502072,-0.193906,-13.814647,-16.805826,0.079353,0.199057,0.000000,0.383662,-0.387955,-0.000000
3.380000,2.012529,0.878548,-1.397961,1.411814,-0.540400,-0.241810,-1.678248,0.720831,1.319699,3.124722,3.266181,-1.665722,-0.717948,-14.063218,-15.925933,0.083097,0.195151,0.000000,0.364967,-0.390166,-0.000000
3.390000,2.026563,0.873180,-1.400313,1.395187,-0.533028,-0.228696,-1.647038,0.752790,1.302244,3.114928,3.124407,-1.820591,-1.216010,-14.307079,-15.011290,0.086652,0.191227,0.000000,0.345954,-0.391359,-0.000000
3.400000,2.040433,0.867887,-1.402535,1.378873,-0.525344,-0.215765,-1.615950,0.783319,1.283287,3.100402,2.980040,-1.965948,-1.693609,-14.564430,-14.042951,0.090016,0.187295,0.000000,0.326636,-0.391592,0.000000
3.410000,2.054141,0.862673,-1.404629,1.362868,-0.517362,-0.203030,-1.585030,0.812390,1.262925,3.081056,2.833118,-2.101450,-2.174948,-14.784980,-13.072518,0.093185,0.183364,0.000000,0.307060,-0.390872,-0.000000
3.420000,2.067690,0.857540,-1.406596,1.347172,-0.509096,-0.190506,-1.554328,0.839981,1.241258,3.056903,2.684340,-2.227398,-2.618400,-14.917821,-12.149537,0.096157,0.179444,0.000000,0.287337,-0.389230,0.000000
3.430000,2.081084,0.852491,-1.408439,1.331782,-0.500562,-0.178205,-1.523892,0.866077,1.218377,3.028688,2.534762,-2.344440,-3.021201,-14.985117,-11.265246,0.098932,0.175544,0.000000,0.267615,-0.386787,0.000000
3.440000,2.094326,0.847529,-1.410160,1.316694,-0.491774,-0.166139,-1.493755,0.890676,1.194369,2.996479,2.384638,-2.452703,-3.440789,-15.054853,-10.362776,0.101509,0.171671,0.000000,0.247951,-0.383578,0.000000
3.450000,2.107418,0.842655,-1.411761,1.301907,-0.482748,-0.154318,-1.463962,0.913770,1.169323,2.959872,2.233665,-2.551696,-3.828527,-15.099369,-9.418587,0.103891,0.167833,0.000000,0.228342,-0.379572,0.000000
3.460000,2.120364,0.837874,-1.413246,1.287415,-0.473499,-0.142752,-1.434557,0.935350,1.143335,2.919908,2.082650,-2.641075,-4.149602,-15.079001,-8.477383,0.106077,0.164039,0.000000,0.208909,-0.374906,-0.000000
3.470000,2.133166,0.833185,-1.414616,1.273216,-0.464041,-0.131451,-1.405564,0.955423,1.116502,2.876880,1.932085,-2.721244,-4.560409,-15.088474,-7.611770,0.108069,0.160293,0.000000,0.189724,-0.369644,-0.000000
3.480000,2.145828,0.828593,-1.415875,1.259304,-0.454391,-0.120422,-1.377020,0.973991,1.088910,2.828700,1.780881,-2.793310,-5.070333,-15.146629,-6.812582,0.109871,0.156602,0.000000,0.170666,-0.363599,0.000000
3.490000,2.158352,0.824098,-1.417025,1.245675,-0.444562,-0.109673,-1.348990,0.991041,1.060636,2.775474,1.629152,-2.857495,-5.461383,-15.123127,-5.989183,0.111483,0.152977,0.000000,0.151762,-0.356811,0.000000
3.500000,2.170742,0.819702,-1.418069,1.232324,-0.434570,-0.099210,-1.321510,1.006574,1.031760,2.719472,1.478418,-2.913094,-5.768765,-15.009845,-5.132774,0.112907,0.149422,0.000000,0.133206,-0.349543,0.000000
3.510000,2.182999,0.815406,-1.419009,1.219245,-0.424430,-0.089038,-1.294600,1.020609,1.002374,2.660098,1.328955,-2.960151,-6.133778,-14.897133,-4.307868,0.114148,0.145941,0.000000,0.115036,-0.341752,-0.000000
3.520000,2.195127,0.811213,-1.419849,1.206432,-0.414158,-0.079162,-1.268308,1.033153,0.972557,2.596797,1.180476,-2.999251,-6.395797,-14.777171,-3.532605,0.115208,0.142542,0.000000,0.097221,-0.333409,0.000000
3.530000,2.207127,0.807123,-1.420592,1.193879,-0.403767,-0.069587,-1.242664,1.044218,0.942389,2.532183,1.033412,-3.030803,-6.494572,-14.615810,-2.789884,0.116093,0.139229,0.000000,0.079811,-0.324827,0.000000
3.540000,2.219004,0.803138,-1.421241,1.181579,-0.393273,-0.060314,-1.217665,1.053822,0.911941,2.466905,0.888159,-3.055049,-6.662654,-14.434812,-2.063552,0.116805,0.136001,0.000000,0.062851,-0.316097,0.000000
3.550000,2.230759,0.799258,-1.421799,1.169526,-0.382691,-0.051348,-1.193326,1.061982,0.881288,2.398929,0.744715,-3.072074,-6.951306,-14.264743,-1.336691,0.117350,0.132863,0.000000,0.046336,-0.307012,0.000000
3.560000,2.242395,0.795484,-1.422268,1.157712,-0.372034,-0.042689,-1.169686,1.068716,0.850500,2.327879,0.602865,-3.081783,-7.198707,-14.089215,-0.623374,0.117732,0.129818,0.000000,0.030241,-0.297548,0.000000
3.570000,2.253913,0.791817,-1.422652,1.146132,-0.361316,-0.034338,-1.146769,1.074039,0.819652,2.254955,0.462931,-3.084541,-7.328661,-13.840775,0.017190,0.117955,0.126870,0.000000,0.014596,-0.287853,-0.000000
3.580000,2.265317,0.788257,-1.422955,1.134777,-0.350553,-0.026296,-1.124587,1.077975,0.788809,2.181306,0.326049,-3.081439,-7.405287,-13.530001,0.584501,0.118025,0.124021,0.000000,-0.000492,-0.278079,-0.000000
3.590000,2.276609,0.784806,-1.423178,1.123640,-0.339757,-0.018562,-1.103143,1.080560,0.758023,2.106850,0.192331,-3.072851,-7.517793,-13.249526,1.156958,0.117946,0.121270,0.000000,-0.015023,-0.268232,-0.000000
3.600000,2.287790,0.781462,-1.423326,1.112714,-0.328942,-0.011135,-1.082450,1.081821,0.727352,2.030950,0.061059,-3.058300,-7.599667,-12.966398,1.753481,0.117725,0.118618,0.000000,-0.029077,-0.258244,0.000000
3.610000,2.298863,0.778227,-1.423401,1.101991,-0.318120,-0.004015,-1.062524,1.081781,0.696857,1.954856,-0.066997,-3.037782,-7.599802,-12.623928,2.318917,0.117365,0.116068,0.000000,-0.042577,-0.248257,0.000000
3.620000,2.309830,0.775100,-1.423406,1.091464,-0.307306,0.002802,-1.043353,1.080481,0.666596,1.878954,-0.191420,-3.011922,-7.711158,-12.341109,2.812166,0.116874,0.113618,0.000000,-0.055496,-0.238326,0.000000
3.630000,2.320692,0.772081,-1.423345,1.081124,-0.296511,0.009317,-1.024945,1.077953,0.636619,1.800633,-0.313819,-2.981538,-7.952233,-12.143002,3.251584,0.116255,0.111269,0.000000,-0.068029,-0.228185,-0.000000
3.640000,2.331452,0.769170,-1.423220,1.070965,-0.285747,0.015534,-1.007340,1.074205,0.606966,1.719909,-0.434280,-2.946890,-8.055429,-11.863339,3.687871,0.115513,0.109023,0.000000,-0.080197,-0.217845,-0.000000
3.650000,2.342112,0.766366,-1.423034,1.060977,-0.275027,0.021457,-0.990546,1.069267,0.577681,1.639524,-0.551086,-2.907781,-8.045301,-11.490517,4.116438,0.114652,0.106882,0.000000,-0.091820,-0.207600,0.000000
3.660000,2.352672,0.763669,-1.422791,1.051154,-0.264362,0.027088,-0.974550,1.063183,0.548810,1.559003,-0.664090,-2.864561,-8.098867,-11.138473,4.504235,0.113677,0.104844,0.000000,-0.102898,-0.197403,0.000000
3.670000,2.363135,0.761079,-1.422493,1.041486,-0.253763,0.032433,-0.959366,1.055985,0.520390,1.477547,-0.773855,-2.817696,-8.075858,-10.797063,4.868326,0.112594,0.102908,0.000000,-0.113508,-0.187176,-0.000000
3.680000,2.373502,0.758594,-1.422142,1.031966,-0.243242,0.037496,-0.944999,1.047706,0.492456,1.397486,-0.880032,-2.767195,-7.907078,-10.423124,5.219130,0.111407,0.101076,0.000000,-0.123621,-0.177166,0.000000
3.690000,2.383774,0.756214,-1.421743,1.022586,-0.232809,0.042282,-0.931417,1.038385,0.465046,1.319406,-0.982318,-2.713314,-7.801274,-10.042304,5.530718,0.110122,0.099342,0.000000,-0.133218,-0.167435,0.000000
3.700000,2.393953,0.753938,-1.421297,1.013338,-0.222474,0.046797,-0.918611,1.028060,0.438190,1.241461,-1.080878,-2.656580,-7.794816,-9.684877,5.812834,0.108743,0.097706,0.000000,-0.142335,-0.157790,-0.000000
3.710000,2.404041,0.751764,-1.420807,1.004214,-0.212248,0.051046,-0.906587,1.016767,0.411914,1.163509,-1.176015,-2.597057,-7.743462,-9.330551,6.082503,0.107275,0.096168,0.000000,-0.151014,-0.148216,-0.000000
3.720000,2.414038,0.749693,-1.420276,0.995206,-0.202139,0.055035,-0.895340,1.004539,0.386249,1.086592,-1.267489,-2.534930,-7.614792,-8.914363,6.301250,0.105723,0.094725,0.000000,-0.159241,-0.138821,0.000000
3.730000,2.423945,0.747722,-1.419706,0.986307,-0.192157,0.058771,-0.884855,0.991417,0.361216,1.011213,-1.354303,-2.471032,-7.461090,-8.442692,6.461142,0.104091,0.093375,0.000000,-0.166930,-0.129662,-0.000000
3.740000,2.433764,0.745850,-1.419100,0.977509,-0.182310,0.062259,-0.875116,0.977453,0.336828,0.937370,-1.436343,-2.405707,-7.315184,-8.004193,6.617380,0.102384,0.092117,0.000000,-0.174081,-0.120738,-0.000000
3.750000,2.443495,0.744075,-1.418461,0.968805,-0.172608,0.065507,-0.866108,0.962690,0.313102,0.864910,-1.514386,-2.338684,-7.161804,-7.600372,6.781588,0.100609,0.090947,0.000000,-0.180783,-0.112025,-0.000000
3.760000,2.453140,0.742397,-1.417790,0.960187,-0.163057,0.068521,-0.857818,0.947166,0.290054,0.794134,-1.588350,-2.270076,-6.983429,-7.173478,6.916378,0.098769,0.089865,0.000000,-0.187034,-0.103552,0.000000
3.770000,2.462699,0.740814,-1.417090,0.951649,-0.153664,0.071308,-0.850225,0.930923,0.267700,0.725241,-1.657856,-2.200357,-6.815288,-6.739606,7.004418,0.096868,0.088866,0.000000,-0.192809,-0.095339,-0.000000
3.780000,2.472173,0.739324,-1.416364,0.943183,-0.144438,0.073875,-0.843313,0.914008,0.246047,0.657828,-1.723142,-2.129987,-6.666538,-6.321417,7.058440,0.094913,0.087949,0.000000,-0.198144,-0.087343,-0.000000
3.790000,2.481563,0.737925,-1.415613,0.934782,-0.135384,0.076229,-0.837069,0.896461,0.225100,0.591910,-1.784284,-2.059188,-6.489437,-5.893848,7.100500,0.092906,0.087111,0.000000,-0.203054,-0.079563,0.000000
3.800000,2.490869,0.736616,-1.414839,0.926441,-0.126509,0.078377,-0.831475,0.878323,0.204863,0.528039,-1.841019,-1.987977,-6.276406,-5.449896,7.135669,0.090852,0.086350,0.000000,-0.207519,-0.072051,0.000000
3.810000,2.500091,0.735395,-1.414045,0.918153,-0.117818,0.080327,-0.826508,0.859640,0.185341,0.466382,-1.893282,-1.916475,-6.061792,-5.009313,7.150460,0.088755,0.085664,0.000000,-0.211537,-0.064820,0.000000
3.820000,2.509232,0.734260,-1.413233,0.909911,-0.109316,0.082084,-0.822147,0.840457,0.166534,0.406803,-1.941205,-1.844968,-5.857488,-4.582346,7.132742,0.086621,0.085049,0.000000,-0.215131,-0.057855,0.000000
3.830000,2.518290,0.733209,-1.412404,0.901710,-0.101009,0.083657,-0.818372,0.820816,0.148441,0.349233,-1.984929,-1.773820,-5.653127,-4.164164,7.087855,0.084452,0.084502,0.000000,-0.218322,-0.051147,-0.000000
3.840000,2.527266,0.732240,-1.411560,0.893544,-0.092900,0.085053,-0.815163,0.800759,0.131058,0.293741,-2.024489,-1.703211,-5.437029,-3.744543,7.033405,0.082254,0.084022,0.000000,-0.221119,-0.044699,0.000000
3.850000,2.536160,0.731351,-1.410703,0.885407,-0.084994,0.086278,-0.812497,0.780326,0.114377,0.240492,-2.059820,-1.633152,-5.207968,-3.320512,6.971975,0.080030,0.083605,0.000000,-0.223518,-0.038525,0.000000
3.860000,2.544974,0.730540,-1.409834,0.877294,-0.077293,0.087341,-0.810353,0.759562,0.098394,0.189581,-2.090899,-1.563771,-4.974631,-2.900531,6.893447,0.077784,0.083249,0.000000,-0.225521,-0.032630,0.000000
3.870000,2.553706,0.729805,-1.408956,0.869200,-0.069802,0.088246,-0.808706,0.738508,0.083102,0.140999,-2.117831,-1.495283,-4.744929,-2.496817,6.796015,0.075519,0.082950,0.000000,-0.227141,-0.027012,0.000000
3.880000,2.562358,0.729144,-1.408069,0.861120,-0.062523,0.089003,-0.807533,0.717206,0.068489,0.094683,-2.140835,-1.427851,-4.516892,-2.108456,6.684808,0.073241,0.082707,0.000000,-0.228406,-0.021662,-0.000000
3.890000,2.570929,0.728555,-1.407176,0.853049,-0.055458,0.089616,-0.806812,0.695692,0.054545,0.050662,-2.160000,-1.361587,-4.281563,-1.721011,6.563742,0.070951,0.082516,0.000000,-0.229325,-0.016581,-0.000000
3.900000,2.579419,0.728035,-1.406277,0.844983,-0.048609,0.090094,-0.806519,0.674006,0.041257,0.009052,-2.175255,-1.296576,-4.038708,-1.330240,6.431684,0.068654,0.082374,0.000000,-0.229893,-0.011776,0.000000
3.910000,2.587828,0.727582,-1.405374,0.836919,-0.041978,0.090441,-0.806631,0.652187,0.028613,-0.030113,-2.186605,-1.232953,-3.795157,-0.947367,6.288135,0.066353,0.082280,0.000000,-0.230111,-0.007251,0.000000
3.920000,2.596157,0.727195,-1.404468,0.828851,-0.035566,0.090666,-0.807122,0.630273,0.016598,-0.066852,-2.194203,-1.170814,-3.552532,-0.585129,6.139767,0.064052,0.082229,0.000000,-0.229998,-0.003000,0.000000
3.930000,2.604405,0.726871,-1.403560,0.820776,-0.029373,0.090773,-0.807968,0.608303,0.005197,-0.101163,-2.198307,-1.110158,-3.309225,-0.241410,5.988919,0.061753,0.082220,0.000000,-0.229578,0.000979,-0.000000
3.940000,2.612573,0.726608,-1.402652,0.812691,-0.023400,0.090770,-0.809145,0.586307,-0.005605,-0.133036,-2.199031,-1.051035,-3.064558,0.099142,5.828624,0.059460,0.082249,0.000000,-0.228863,0.004686,0.000000
3.950000,2.620659,0.726403,-1.401745,0.804593,-0.017646,0.090661,-0.810629,0.564322,-0.015824,-0.162454,-2.196324,-0.993585,-2.818145,0.440889,5.655329,0.057176,0.082313,0.000000,-0.227849,0.008122,0.000000
3.960000,2.628665,0.726255,-1.400839,0.796479,-0.012113,0.090453,-0.812394,0.542381,-0.025477,-0.189399,-2.190213,-0.937929,-2.571198,0.772355,5.475839,0.054903,0.082411,0.000000,-0.226537,0.011286,0.000000
3.970000,2.636589,0.726161,-1.399936,0.788345,-0.006799,0.090152,-0.814417,0.520518,-0.034582,-0.213878,-2.180877,-0.884068,-2.327138,1.081057,5.302408,0.052645,0.082539,0.000000,-0.224946,0.014180,-0.000000
3.980000,2.644432,0.726119,-1.399036,0.780190,-0.001703,0.089762,-0.816672,0.498763,-0.043158,-0.235942,-2.168592,-0.831880,-2.086451,1.369523,5.134971,0.050404,0.082695,0.000000,-0.223101,0.016811,0.000000
3.990000,2.652193,0.726127,-1.398141,0.772012,0.003176,0.089288,-0.819135,0.477146,-0.051220,-0.255607,-2.153487,-0.781369,-1.845424,1.653087,4.959303,0.048183,0.082876,0.000000,-0.221014,0.019184,0.000000
4.000000,2.659872,0.726182,-1.397250,0.763808,0.007840,0.088737,-0.821784,0.455694,-0.058786,-0.272850,-2.135530,-0.732694,-1.602290,1.935909,4.770628,0.045984,0.083079,0.000000,-0.218681,0.021295,0.000000
4.010000,2.667469,0.726284,-1.396366,0.755576,0.012290,0.088113,-0.824592,0.434435,-0.065874,-0.287653,-2.114769,-0.685956,-1.360343,2.206909,4.580337,0.043809,0.083302,0.000000,-0.216107,0.023144,-0.000000
4.020000,2.674983,0.726428,-1.395488,0.747316,0.016529,0.087420,-0.827537,0.413398,-0.072505,-0.300057,-2.091392,-0.641088,-1.125424,2.454786,4.403117,0.041661,0.083543,0.000000,-0.213308,0.024735,0.000000
4.030000,2.682415,0.726614,-1.394618,0.739025,0.020558,0.086663,-0.830594,0.392607,-0.078696,-0.310162,-2.065673,-0.597894,-0.897037,2.682308,4.237142,0.039543,0.083798,0.000000,-0.210309,0.026082,-0.000000
4.040000,2.689764,0.726839,-1.393755,0.730704,0.024381,0.085846,-0.833740,0.372085,-0.084463,-0.317998,-2.037746,-0.556345,-0.668242,2.903630,4.064799,0.037455,0.084065,0.000000,-0.207123,0.027189,-0.000000
4.050000,2.697029,0.727102,-1.392901,0.722351,0.028000,0.084973,-0.836954,0.351852,-0.089823,-0.323527,-2.007600,-0.516598,-0.439036,3.122324,3.881139,0.035400,0.084342,0.000000,-0.203747,0.028050,-0.000000
4.060000,2.704211,0.727399,-1.392055,0.713965,0.031418,0.084049,-0.840211,0.331933,-0.094795,-0.326779,-1.975299,-0.478722,-0.214603,3.328473,3.699426,0.033380,0.084626,0.000000,-0.200187,0.028670,0.000000
4.070000,2.711308,0.727730,-1.391220,0.705546,0.034639,0.083078,-0.843489,0.312346,-0.099397,-0.327819,-1.941031,-0.442609,0.005065,3.512879,3.533941,0.031396,0.084915,0.000000,-0.196459,0.029055,-0.000000
4.080000,2.718322,0.728092,-1.390394,0.697095,0.037665,0.082061,-0.846767,0.293112,-0.103647,-0.326677,-1.905042,-0.408043,0.221315,3.678251,3.381874,0.029451,0.085207,0.000000,-0.192585,0.029211,-0.000000
4.090000,2.725250,0.728484,-1.389579,0.688611,0.040501,0.081005,-0.850023,0.274246,-0.107558,-0.323392,-1.867466,-0.374972,0.432919,3.836326,3.225866,0.027545,0.085500,0.000000,-0.188579,0.029142,0.000000
4.100000,2.732094,0.728902,-1.388774,0.680095,0.043150,0.079910,-0.853235,0.255763,-0.111146,-0.318019,-1.828315,-0.343526,0.639795,3.990200,3.061120,0.025679,0.085791,0.000000,-0.184438,0.028854,0.000000
4.110000,2.738852,0.729347,-1.387980,0.671546,0.045616,0.078782,-0.856383,0.237679,-0.114428,-0.310596,-1.787662,-0.313750,0.842386,4.131874,2.900298,0.023856,0.086077,0.000000,-0.180171,0.028349,0.000000
4.120000,2.745525,0.729815,-1.387198,0.662967,0.047904,0.077622,-0.859447,0.220010,-0.117421,-0.301171,-1.745678,-0.285520,1.039044,4.253732,2.756713,0.022076,0.086358,0.000000,-0.175791,0.027633,0.000000
4.130000,2.752112,0.730305,-1.386428,0.654357,0.050016,0.076433,-0.862406,0.202766,-0.120139,-0.289816,-1.702587,-0.258615,1.228988,4.358128,2.627339,0.020340,0.086630,0.000000,-0.171320,0.026717,0.000000
4.140000,2.758612,0.730815,-1.385670,0.645719,0.051959,0.075219,-0.865243,0.185958,-0.122593,-0.276591,-1.658515,-0.232973,1.413781,4.455091,2.495652,0.018649,0.086892,0.000000,-0.166768,0.025605,0.000000
4.150000,2.765026,0.731344,-1.384924,0.637053,0.053735,0.073981,-0.867938,0.169595,-0.124798,-0.261540,-1.613485,-0.208702,1.594508,4.547224,2.357490,0.017004,0.087142,0.000000,-0.162138,0.024301,-0.000000
4.160000,2.771353,0.731890,-1.384190,0.628360,0.055351,0.072723,-0.870474,0.153688,-0.126767,-0.244701,-1.567571,-0.185823,1.769572,4.627914,2.224554,0.015406,0.087378,0.000000,-0.157434,0.022810,0.000000
4.170000,2.777593,0.732451,-1.383469,0.619643,0.056809,0.071446,-0.872832,0.138244,-0.128515,-0.226148,-1.520927,-0.164211,1.935234,4.691310,2.107732,0.013856,0.087598,0.000000,-0.152672,0.021139,0.000000
4.180000,2.783746,0.733026,-1.382761,0.610904,0.058116,0.070153,-0.874997,0.123270,-0.130052,-0.205996,-1.473745,-0.143669,2.091420,4.739595,2.003829,0.012353,0.087801,0.000000,-0.147869,0.019301,0.000000
4.190000,2.789811,0.733613,-1.382066,0.602143,0.059275,0.068845,-0.876952,0.108769,-0.131388,-0.184320,-1.426135,-0.124135,2.242582,4.780738,1.899125,0.010898,0.087985,0.000000,-0.143035,0.017304,-0.000000
4.200000,2.795789,0.734211,-1.381384,0.593364,0.060291,0.067525,-0.878683,0.094747,-0.132534,-0.161145,-1.378130,-0.105686,2.390069,4.816636,1.790667,0.009492,0.088147,0.000000,-0.138173,0.015149,0.000000
4.210000,2.801679,0.734819,-1.380715,0.584570,0.061170,0.066194,-0.880175,0.081207,-0.133502,-0.136519,-1.329802,-0.088321,2.530399,4.842286,1.687885,0.008135,0.088288,0.000000,-0.133288,0.012842,0.000000
4.220000,2.807480,0.735435,-1.380060,0.575761,0.061915,0.064855,-0.881414,0.068151,-0.134301,-0.110537,-1.281284,-0.071929,2.659580,4.853955,1.598026,0.006826,0.088404,0.000000,-0.128393,0.010393,-0.000000
4.230000,2.813194,0.736057,-1.379418,0.566941,0.062533,0.063508,-0.882386,0.055581,-0.134940,-0.083327,-1.232723,-0.056361,2.778213,4.853535,1.518226,0.005567,0.088495,0.000000,-0.123501,0.007814,0.000000
4.240000,2.818819,0.736685,-1.378790,0.558113,0.063027,0.062156,-0.883080,0.043496,-0.135428,-0.054973,-1.184213,-0.041564,2.891084,4.846403,1.439258,0.004356,0.088560,0.000000,-0.118622,0.005116,0.000000
4.250000,2.824356,0.737318,-1.378175,0.549280,0.063402,0.060800,-0.883485,0.031897,-0.135772,-0.025505,-1.135795,-0.027576,2.999670,4.833754,1.359230,0.003194,0.088598,0.000000,-0.113759,0.002300,-0.000000
4.260000,2.829805,0.737953,-1.377574,0.540444,0.063665,0.059441,-0.883590,0.020780,-0.135980,0.005021,-1.087538,-0.014379,3.100361,4.812487,1.284253,0.002081,0.088606,0.000000,-0.108918,-0.000628,0.000000
4.270000,2.835165,0.738591,-1.376986,0.531608,0.063818,0.058080,-0.883385,0.010146,-0.136059,0.036502,-1.039545,-0.001891,3.188896,4.780805,1.218774,0.001016,0.088585,0.000000,-0.104108,-0.003658,-0.000000
4.280000,2.840437,0.739230,-1.376412,0.522776,0.063868,0.056719,-0.882860,-0.000010,-0.136017,0.068799,-0.991922,0.009996,3.265997,4.740172,1.160752,-0.000001,0.088533,0.000000,-0.099340,-0.006775,-0.000000
4.290000,2.845620,0.739868,-1.375852,0.513951,0.063818,0.055360,-0.882009,-0.009693,-0.135859,0.101822,-0.944742,0.021325,3.336939,4.693567,1.104294,-0.000971,0.088450,0.000000,-0.094620,-0.009969,0.000000
4.300000,2.850716,0.740506,-1.375305,0.505136,0.063674,0.054002,-0.880824,-0.018905,-0.135591,0.135538,-0.898051,0.032082,3.403350,4.641500,1.048382,-0.001893,0.088334,0.000000,-0.089952,-0.013238,-0.000000
4.310000,2.855723,0.741142,-1.374772,0.496334,0.063440,0.052648,-0.879298,-0.027654,-0.135218,0.169889,-0.851912,0.042292,3.461382,4.582605,0.996711,-0.002770,0.088185,0.000000,-0.085343,-0.016577,0.000000
4.320000,2.860643,0.741775,-1.374252,0.487550,0.063121,0.051298,-0.877426,-0.035944,-0.134745,0.204765,-0.806399,0.052016,3.506658,4.516883,0.951161,-0.003600,0.088002,0.000000,-0.080798,-0.019973,0.000000
4.330000,2.865474,0.742404,-1.373746,0.478786,0.062721,0.049953,-0.875203,-0.043782,-0.134177,0.240022,-0.761574,0.061315,3.540106,4.445349,0.910268,-0.004386,0.087785,0.000000,-0.076325,-0.023413,-0.000000
4.340000,2.870218,0.743029,-1.373253,0.470046,0.062245,0.048614,-0.872626,-0.051175,-0.133519,0.275567,-0.717492,0.070222,3.567262,4.368712,0.871342,-0.005127,0.087534,0.000000,-0.071927,-0.026886,0.000000
4.350000,2.874875,0.743649,-1.372774,0.461333,0.061697,0.047283,-0.869692,-0.058131,-0.132773,0.311367,-0.674200,0.078742,3.589775,4.286887,0.834163,-0.005824,0.087248,0.000000,-0.067609,-0.030390,0.000000
4.360000,2.879445,0.744263,-1.372308,0.452652,0.061082,0.045959,-0.866398,-0.064659,-0.131944,0.347363,-0.631754,0.086905,3.603788,4.200076,0.800168,-0.006479,0.086926,0.000000,-0.063378,-0.033919,0.000000
4.370000,2.883928,0.744871,-1.371855,0.444005,0.060404,0.044644,-0.862744,-0.070767,-0.131035,0.383443,-0.590199,0.094746,3.605001,4.109816,0.769152,-0.007092,0.086569,0.000000,-0.059235,-0.037461,-0.000000
4.380000,2.888325,0.745471,-1.371415,0.435397,0.059667,0.043338,-0.858729,-0.076463,-0.130049,0.419463,-0.549558,0.102288,3.594418,4.016676,0.740265,-0.007664,0.086177,0.000000,-0.055185,-0.041003,0.000000
4.390000,2.892636,0.746064,-1.370988,0.426831,0.058875,0.042043,-0.854355,-0.081758,-0.128989,0.455331,-0.509865,0.109551,3.577666,3.919377,0.713456,-0.008196,0.085749,0.000000,-0.051229,-0.044535,0.000000
4.400000,2.896862,0.746649,-1.370574,0.418310,0.058032,0.040758,-0.849623,-0.086660,-0.127858,0.491016,-0.471170,0.116557,3.556270,3.817349,0.689045,-0.008688,0.085286,0.000000,-0.047373,-0.048053,0.000000
4.410000,2.901002,0.747225,-1.370173,0.409838,0.057142,0.039486,-0.844535,-0.091181,-0.126658,0.526457,-0.433518,0.123332,3.526413,3.712119,0.666652,-0.009143,0.084788,0.000000,-0.043621,-0.051552,0.000000
4.420000,2.905058,0.747792,-1.369784,0.401419,0.056208,0.038225,-0.839094,-0.095331,-0.125391,0.561544,-0.396928,0.129890,3.484537,3.606374,0.644794,-0.009561,0.084255,0.000000,-0.039975,-0.055021,-0.000000
4.430000,2.909031,0.748349,-1.369408,0.393056,0.055235,0.036978,-0.833304,-0.099120,-0.124060,0.596147,-0.361391,0.136228,3.431834,3.500275,0.623195,-0.009943,0.083688,0.000000,-0.036433,-0.058446,-0.000000
4.440000,2.912919,0.748896,-1.369045,0.384753,0.054226,0.035744,-0.827171,-0.102558,-0.122667,0.630181,-0.326922,0.142354,3.373014,3.391008,0.603415,-0.010289,0.083086,0.000000,-0.032997,-0.061820,0.000000
4.450000,2.916726,0.749433,-1.368693,0.376513,0.053184,0.034525,-0.820700,-0.105658,-0.121213,0.663608,-0.293570,0.148296,3.309123,3.277641,0.586038,-0.010602,0.082451,0.000000,-0.029672,-0.065138,-0.000000
4.460000,2.920450,0.749960,-1.368354,0.368339,0.052113,0.033320,-0.813899,-0.108430,-0.119701,0.696364,-0.261370,0.154075,3.237123,3.162705,0.569634,-0.010883,0.081783,0.000000,-0.026461,-0.068394,0.000000
4.470000,2.924092,0.750476,-1.368027,0.360235,0.051015,0.032130,-0.806773,-0.110885,-0.118132,0.728350,-0.230316,0.159689,3.154777,3.049609,0.552094,-0.011132,0.081083,0.000000,-0.023363,-0.071578,-0.000000
4.480000,2.927654,0.750980,-1.367711,0.352204,0.049895,0.030957,-0.799332,-0.113036,-0.116507,0.759459,-0.200377,0.165117,3.063038,2.938144,0.533470,-0.011350,0.080352,0.000000,-0.020375,-0.074680,-0.000000
4.490000,2.931137,0.751474,-1.367408,0.344248,0.048755,0.029800,-0.791584,-0.114893,-0.114829,0.789611,-0.171553,0.170358,2.965021,2.824505,0.516155,-0.011539,0.079589,0.000000,-0.017498,-0.077691,-0.000000
4.500000,2.934539,0.751955,-1.367115,0.336372,0.047597,0.028661,-0.783539,-0.116467,-0.113100,0.818759,-0.143887,0.175440,2.862148,2.707531,0.501100,-0.011700,0.078798,0.000000,-0.014735,-0.080606,0.000000
4.510000,2.937864,0.752426,-1.366835,0.328577,0.046425,0.027538,-0.775209,-0.117771,-0.111320,0.846854,-0.117403,0.180380,2.752470,2.590329,0.486348,-0.011834,0.077977,0.000000,-0.012088,-0.083421,-0.000000
4.520000,2.941111,0.752884,-1.366565,0.320868,0.045242,0.026434,-0.766602,-0.118815,-0.109492,0.873809,-0.092081,0.185167,2.632650,2.476764,0.468878,-0.011942,0.077129,0.000000,-0.009556,-0.086127,-0.000000
4.530000,2.944281,0.753330,-1.366306,0.313245,0.044049,0.025349,-0.757732,-0.119612,-0.107617,0.899507,-0.067868,0.189758,2.503345,2.366397,0.448952,-0.012025,0.076255,0.000000,-0.007134,-0.088712,-0.000000
4.540000,2.947376,0.753765,-1.366058,0.305713,0.042849,0.024282,-0.748612,-0.120173,-0.105697,0.923876,-0.044753,0.194146,2.369356,2.254706,0.430250,-0.012084,0.075355,0.000000,-0.004820,-0.091168,-0.000000
4.550000,2.950396,0.754187,-1.365820,0.298273,0.041646,0.023235,-0.739255,-0.120507,-0.103734,0.946894,-0.022773,0.198363,2.232005,2.140430,0.413750,-0.012121,0.074431,0.000000,-0.002617,-0.093495,0.000000
4.560000,2.953341,0.754598,-1.365593,0.290928,0.040439,0.022207,-0.729674,-0.120628,-0.101730,0.968516,-0.001944,0.202421,2.088291,2.027079,0.396702,-0.012137,0.073485,0.000000,-0.000529,-0.095685,-0.000000
4.570000,2.956214,0.754996,-1.365376,0.283680,0.039233,0.021200,-0.719885,-0.120546,-0.099686,0.988660,0.017768,0.206297,1.935858,1.918470,0.376385,-0.012132,0.072517,0.000000,0.001449,-0.097732,-0.000000
4.580000,2.959015,0.755383,-1.365169,0.276530,0.038028,0.020213,-0.709901,-0.120273,-0.097604,1.007233,0.036425,0.209948,1.775930,1.813909,0.353438,-0.012108,0.071530,0.000000,0.003324,-0.099625,0.000000
4.590000,2.961745,0.755757,-1.364972,0.269482,0.036828,0.019248,-0.699740,-0.119818,-0.095487,1.024178,0.054046,0.213365,1.611939,1.708867,0.331144,-0.012065,0.070524,0.000000,0.005096,-0.101360,-0.000000
4.600000,2.964405,0.756119,-1.364784,0.262536,0.035632,0.018304,-0.689417,-0.119192,-0.093337,1.039472,0.070603,0.216571,1.444525,1.602194,0.310255,-0.012006,0.069503,0.000000,0.006762,-0.102933,0.000000
4.610000,2.966995,0.756469,-1.364606,0.255693,0.034444,0.017381,-0.678950,-0.118406,-0.091155,1.053069,0.086090,0.219571,1.271782,1.497279,0.288394,-0.011930,0.068466,0.000000,0.008323,-0.104339,0.000000
4.620000,2.969518,0.756808,-1.364436,0.248956,0.033264,0.016481,-0.668356,-0.117470,-0.088945,1.064907,0.100548,0.222339,1.092917,1.397518,0.263429,-0.011839,0.067416,0.000000,0.009783,-0.105573,0.000000
4.630000,2.971975,0.757135,-1.364276,0.242326,0.032094,0.015602,-0.657652,-0.116395,-0.086709,1.074927,0.114041,0.224839,0.908772,1.302156,0.235924,-0.011735,0.066354,0.000000,0.011146,-0.106627,-0.000000
4.640000,2.974365,0.757450,-1.364124,0.235803,0.030936,0.014746,-0.646858,-0.115189,-0.084448,1.083083,0.126591,0.227058,0.720855,1.207106,0.208486,-0.011616,0.065283,0.000000,0.012417,-0.107497,-0.000000
4.650000,2.976691,0.757753,-1.363981,0.229389,0.029791,0.013913,-0.635991,-0.113863,-0.082167,1.089344,0.138183,0.229009,0.530191,1.111337,0.181897,-0.011486,0.064204,0.000000,0.013592,-0.108179,0.000000
4.660000,2.978953,0.758046,-1.363846,0.223084,0.028659,0.013103,-0.625071,-0.112426,-0.079868,1.093687,0.148818,0.230696,0.336156,1.017844,0.154275,-0.011345,0.063119,0.000000,0.014673,-0.108671,-0.000000
4.670000,2.981152,0.758327,-1.363719,0.216888,0.027542,0.012316,-0.614117,-0.110887,-0.077554,1.096067,0.158540,0.232094,0.136711,0.929553,0.123470,-0.011193,0.062030,0.000000,0.015663,-0.108968,0.000000
4.680000,2.983290,0.758596,-1.363600,0.210801,0.026441,0.011552,-0.603149,-0.109255,-0.075226,1.096421,0.167409,0.233165,-0.067770,0.845733,0.089966,-0.011031,0.060940,0.000000,0.016568,-0.109063,-0.000000
4.690000,2.985368,0.758855,-1.363488,0.204825,0.025357,0.010811,-0.592188,-0.107538,-0.072890,1.094712,0.175454,0.233894,-0.273895,0.762804,0.056490,-0.010861,0.059849,0.000000,0.017392,-0.108953,0.000000
4.700000,2.987387,0.759104,-1.363384,0.198958,0.024290,0.010094,-0.581255,-0.105746,-0.070549,1.090943,0.182665,0.234295,-0.480250,0.679923,0.023676,-0.010684,0.058760,0.000000,0.018132,-0.108636,0.000000
4.710000,2.989347,0.759341,-1.363286,0.193200,0.023242,0.009400,-0.570370,-0.103885,-0.068204,1.085107,0.189053,0.234367,-0.688701,0.599642,-0.010359,-0.010499,0.057676,0.000000,0.018790,-0.108112,0.000000
4.720000,2.991251,0.759568,-1.363196,0.187550,0.022213,0.008730,-0.559553,-0.101965,-0.065861,1.077169,0.194658,0.234088,-0.901724,0.524254,-0.047177,-0.010308,0.056598,0.000000,0.019370,-0.107377,-0.000000
4.730000,2.993099,0.759785,-1.363112,0.182008,0.021203,0.008083,-0.548826,-0.099992,-0.063523,1.067073,0.199538,0.233424,-1.118526,0.453103,-0.086222,-0.010111,0.055529,0.000000,0.019877,-0.106426,-0.000000
4.740000,2.994891,0.759992,-1.363034,0.176574,0.020213,0.007460,-0.538211,-0.097974,-0.061193,1.054798,0.203720,0.232363,-1.335117,0.383334,-0.125501,-0.009910,0.054470,0.000000,0.020315,-0.105255,-0.000000
4.750000,2.996630,0.760190,-1.362962,0.171244,0.019243,0.006859,-0.527730,-0.095918,-0.058875,1.040370,0.207204,0.230914,-1.549758,0.314228,-0.164563,-0.009705,0.053423,0.000000,0.020683,-0.103866,0.000000
4.760000,2.998316,0.760377,-1.362897,0.166019,0.018294,0.006282,-0.517404,-0.093830,-0.056574,1.023803,0.210005,0.229072,-1.764667,0.247795,-0.204734,-0.009497,0.052392,0.000000,0.020982,-0.102261,0.000000
4.770000,2.999950,0.760556,-1.362837,0.160896,0.017367,0.005728,-0.507254,-0.091717,-0.054294,1.005077,0.212160,0.226819,-1.983093,0.185886,-0.247109,-0.009285,0.051378,0.000000,0.021216,-0.100438,-0.000000
4.780000,3.001534,0.760725,-1.362782,0.155874,0.016460,0.005196,-0.497303,-0.089587,-0.052038,0.984141,0.213722,0.224130,-2.204086,0.127981,-0.291338,-0.009072,0.050383,0.000000,0.021391,-0.098391,0.000000
4.790000,3.003068,0.760885,-1.362733,0.150950,0.015575,0.004687,-0.487571,-0.087443,-0.049811,0.960995,0.214720,0.220992,-2.422499,0.071694,-0.335940,-0.008858,0.049410,0.000000,0.021508,-0.096119,-0.000000
4.800000,3.004553,0.761036,-1.362688,0.146122,0.014711,0.004200,-0.478083,-0.085292,-0.047618,0.935691,0.215156,0.217411,-2.636460,0.016146,-0.380094,-0.008642,0.048461,0.000000,0.021569,-0.093627,-0.000000
4.810000,3.005990,0.761179,-1.362649,0.141388,0.013869,0.003735,-0.468858,-0.083140,-0.045463,0.908266,0.215043,0.213390,-2.848890,-0.036999,-0.424801,-0.008426,0.047538,0.000000,0.021575,-0.090920,-0.000000
4.820000,3.007381,0.761314,-1.362614,0.136745,0.013048,0.003291,-0.459917,-0.080991,-0.043350,0.878714,0.214416,0.208915,-3.063020,-0.085440,-0.472165,-0.008211,0.046642,0.000000,0.021528,-0.087995,0.000000
4.830000,3.008725,0.761440,-1.362583,0.132190,0.012249,0.002868,-0.451283,-0.078852,-0.041285,0.847006,0.213334,0.203947,-3.277424,-0.129705,-0.521842,-0.007996,0.045778,0.000000,0.021435,-0.084850,0.000000
4.840000,3.010025,0.761559,-1.362556,0.127720,0.011471,0.002465,-0.442977,-0.076725,-0.039271,0.813165,0.211822,0.198478,-3.486942,-0.172892,-0.570909,-0.007782,0.044945,0.000000,0.021298,-0.081487,-0.000000
4.850000,3.011280,0.761669,-1.362534,0.123331,0.010715,0.002082,-0.435020,-0.074615,-0.037315,0.777267,0.209876,0.192529,-3.690826,-0.215256,-0.619087,-0.007570,0.044148,0.000000,0.021117,-0.077914,0.000000
4.860000,3.012491,0.761773,-1.362515,0.119019,0.009979,0.001719,-0.427432,-0.072527,-0.035421,0.739349,0.207517,0.186096,-3.891822,-0.254770,-0.668242,-0.007360,0.043387,0.000000,0.020894,-0.074133,0.000000
4.870000,3.013660,0.761869,-1.362499,0.114782,0.009264,0.001374,-0.420233,-0.070465,-0.033593,0.699430,0.204781,0.179164,-4.089750,-0.291307,-0.718460,-0.007152,0.042665,0.000000,0.020632,-0.070148,-0.000000
4.880000,3.014787,0.761958,-1.362487,0.110615,0.008570,0.001047,-0.413443,-0.068432,-0.031838,0.657554,0.201691,0.171727,-4.283039,-0.325642,-0.768993,-0.006947,0.041984,0.000000,0.020334,-0.065961,0.000000
4.890000,3.015872,0.762040,-1.362478,0.106513,0.007896,0.000737,-0.407082,-0.066431,-0.030159,0.613770,0.198268,0.163784,-4.471167,-0.357867,-0.819734,-0.006745,0.041346,0.000000,0.020001,-0.061579,-0.000000
4.900000,3.016917,0.762116,-1.362473,0.102473,0.007241,0.000444,-0.401168,-0.064466,-0.028562,0.568130,0.194534,0.155332,-4.653839,-0.387922,-0.870710,-0.006547,0.040752,0.000000,0.019637,-0.057005,-0.000000
4.910000,3.017922,0.762185,-1.362470,0.098490,0.006606,0.000166,-0.395719,-0.062540,-0.027052,0.520693,0.190509,0.146370,-4.830600,-0.415868,-0.921838,-0.006352,0.040206,0.000000,0.019242,-0.052248,-0.000000
4.920000,3.018887,0.762248,-1.362469,0.094559,0.005990,-0.000097,-0.390754,-0.060656,-0.025635,0.471518,0.186216,0.136896,-5.000989,-0.441761,-0.973036,-0.006162,0.039708,0.000000,0.018820,-0.047311,0.000000
4.930000,3.019813,0.762305,-1.362471,0.090675,0.005393,-0.000347,-0.386289,-0.058816,-0.024314,0.420673,0.181674,0.126909,-5.164540,-0.465644,-1.024242,-0.005976,0.039260,0.000000,0.018372,-0.042203,-0.000000
4.940000,3.020700,0.762356,-1.362476,0.086833,0.004814,-0.000584,-0.382341,-0.057023,-0.023096,0.368228,0.176903,0.116411,-5.320807,-0.487568,-1.075382,-0.005795,0.038863,0.000000,0.017899,-0.036931,0.000000
4.950000,3.021550,0.762401,-1.362483,0.083028,0.004253,-0.000809,-0.378924,-0.055278,-0.021986,0.314257,0.171923,0.105402,-5.469353,-0.507582,-1.126380,-0.005618,0.038521,0.000000,0.017406,-0.031502,0.000000
4.960000,3.022361,0.762441,-1.362492,0.079254,0.003708,-0.001023,-0.376055,-0.053584,-0.020988,0.258840,0.166752,0.093883,-5.609697,-0.525740,-1.177161,-0.005446,0.038233,0.000000,0.016892,-0.025925,-0.000000
4.970000,3.023135,0.762475,-1.362504,0.075507,0.003181,-0.001228,-0.373748,-0.051943,-0.020108,0.202063,0.161408,0.081858,225.612579,29.042845,10.141515,-0.005280,0.038002,0.000000,0.016359,-0.020209,0.000000
4.980000,3.023871,0.762505,-1.362517,0.071779,0.002670,-0.001425,-0.372014,-0.050356,-0.019351,4.771092,0.747609,0.296714,456.534975,56.806383,20.924263,-0.005119,0.037829,0.000000,0.075754,-0.483551,-0.000000
4.990000,3.024570,0.762529,-1.362532,0.068066,0.002174,-0.001616,-0.278326,-0.036991,-0.014174,9.332762,1.297536,0.500344,226.279667,25.547056,9.313316,-0.003764,0.028323,0.000000,0.131728,-0.947769,-0.000000
5.000000,3.025232,0.762548,-1.362549,0.066213,0.001930,-0.001709,-0.185359,-0.024405,-0.009344,9.296685,1.258550,0.482980,-3.607701,-3.898604,-1.736377,-0.002485,0.018875,0.000000,0.127980,-0.945504,0.000000
