time,x,y,z,vx,vy,vz,ax,ay,az,jx,jy,jz,sx,sy,sz,roll,pitch,yaw,p,q,r
0.000000,-2.650176,-0.249083,-1.489925,-0.018929,-0.007121,0.008585,0.655570,-0.146330,-0.050911,-6.607034,1.401876,1.472756,114.431524,9.182289,-30.870978,-0.014806,-0.066384,0.000000,0.138963,0.657117,-0.000000
0.010000,-2.650334,-0.249161,-1.489842,-0.012685,-0.008512,0.008144,0.595030,-0.131874,-0.037651,-5.519722,1.487192,1.186686,103.162740,7.893779,-26.421427,-0.013366,-0.060350,0.000000,0.148662,0.551168,-0.000000
0.020000,-2.650432,-0.249253,-1.489762,-0.006994,-0.009756,0.007823,0.544813,-0.116628,-0.027037,-4.541192,1.560001,0.942801,92.670088,6.680268,-22.429816,-0.011837,-0.055327,0.000000,0.156887,0.454907,0.000000
0.030000,-2.650475,-0.249356,-1.489685,-0.001758,-0.010843,0.007596,0.503869,-0.100714,-0.018669,-3.663831,1.621038,0.736644,82.924149,5.538782,-18.871803,-0.010233,-0.051220,0.000000,0.163736,0.367941,0.000000
0.040000,-2.650468,-0.249469,-1.489610,0.003111,-0.011768,0.007443,0.471223,-0.084244,-0.012192,-2.880318,1.671007,0.564001,73.895576,4.466351,-15.723032,-0.008567,-0.047939,0.000000,0.169307,0.289813,0.000000
0.050000,-2.650414,-0.249591,-1.489536,0.007691,-0.012526,0.007347,0.445973,-0.067328,-0.007291,-2.183629,1.710585,0.420899,65.554556,3.459975,-12.959288,-0.006851,-0.045396,0.000000,0.173692,0.220020,0.000000
0.060000,-2.650315,-0.249719,-1.489463,0.012052,-0.013113,0.007293,0.427284,-0.050065,-0.003688,-1.567033,1.740417,0.303613,57.872058,2.516710,-10.556088,-0.005097,-0.043512,0.000000,0.176981,0.158030,0.000000
0.070000,-2.650173,-0.249853,-1.489390,0.016256,-0.013527,0.007270,0.414387,-0.032550,-0.001144,-1.024092,1.761119,0.208657,50.818510,1.633573,-8.489156,-0.003315,-0.042211,0.000000,0.179255,0.103297,-0.000000
0.080000,-2.649990,-0.249989,-1.489317,0.020357,-0.013764,0.007267,0.406577,-0.014871,0.000549,-0.548664,1.773279,0.132790,44.364503,0.807590,-6.734163,-0.001515,-0.041424,0.000000,0.180593,0.055276,0.000000
0.090000,-2.649766,-0.250127,-1.489244,0.024403,-0.013824,0.007278,0.403208,0.002889,0.001565,-0.134901,1.777452,0.073015,38.480676,0.035797,-5.266786,0.000294,-0.041085,0.000000,0.181066,0.013425,-0.000000
0.100000,-2.649502,-0.250265,-1.489172,0.028434,-0.013706,0.007297,0.403692,0.020653,0.002053,0.222747,1.774165,0.026578,33.137112,-0.684831,-4.062543,0.002104,-0.041136,0.000000,0.180740,-0.022784,-0.000000
0.110000,-2.649198,-0.250401,-1.489099,0.032487,-0.013411,0.007318,0.407493,0.038349,0.002133,0.529544,1.763916,-0.009032,28.304946,-1.357209,-3.097290,0.003907,-0.041524,0.000000,0.179677,-0.053860,-0.000000
0.120000,-2.648852,-0.250533,-1.489025,0.036593,-0.012940,0.007338,0.414130,0.055910,0.001901,0.790452,1.747171,-0.036083,23.954548,-1.984332,-2.346609,0.005695,-0.042198,0.000000,0.177931,-0.080292,-0.000000
0.130000,-2.648465,-0.250659,-1.488952,0.040778,-0.012293,0.007355,0.423165,0.073272,0.001433,1.010143,1.724370,-0.056598,20.056518,-2.569169,-1.786146,0.007463,-0.043116,0.000000,0.175553,-0.102543,-0.000000
0.140000,-2.648036,-0.250778,-1.488878,0.045063,-0.011475,0.007366,0.434210,0.090378,0.000785,1.192992,1.695919,-0.072359,16.581478,-3.114688,-1.391549,0.009204,-0.044237,0.000000,0.172589,-0.121051,0.000000
0.150000,-2.647564,-0.250888,-1.488804,0.049468,-0.010487,0.007370,0.446916,0.107173,-0.000003,1.343084,1.662197,-0.084901,13.500067,-3.623847,-1.138498,0.010913,-0.045526,0.000000,0.169081,-0.136225,-0.000000
0.160000,-2.647047,-0.250987,-1.488731,0.054006,-0.009333,0.007366,0.460975,0.123606,-0.000907,1.464192,1.623552,-0.095525,10.781628,-4.099775,-1.003034,0.012584,-0.046951,0.000000,0.165066,-0.148444,0.000000
0.170000,-2.646483,-0.251074,-1.488657,0.058691,-0.008016,0.007352,0.476115,0.139629,-0.001911,1.559825,1.580302,-0.105274,8.398395,-4.545243,-0.960233,0.014213,-0.048486,0.000000,0.160576,-0.158064,-0.000000
0.180000,-2.645872,-0.251147,-1.488584,0.063531,-0.006542,0.007327,0.492097,0.155197,-0.003012,1.633177,1.532738,-0.114959,6.320268,-4.963303,-0.985998,0.015794,-0.050105,0.000000,0.155644,-0.165406,-0.000000
0.190000,-2.645212,-0.251204,-1.488511,0.068535,-0.004914,0.007291,0.508714,0.170270,-0.004212,1.687149,1.481118,-0.125142,4.517765,-5.356929,-1.055967,0.017324,-0.051788,0.000000,0.150294,-0.170763,0.000000
0.200000,-2.644501,-0.251245,-1.488438,0.073707,-0.003138,0.007243,0.525784,0.184807,-0.005518,1.724355,1.425671,-0.136145,2.961699,-5.729101,-1.145869,0.018799,-0.053515,0.000000,0.144551,-0.174402,-0.000000
0.210000,-2.643737,-0.251267,-1.488366,0.079051,-0.001220,0.007181,0.543096,0.198763,-0.006821,1.734261,1.364782,-0.121255,1.368396,-6.118669,-0.701749,0.020214,-0.055267,0.000000,0.138310,-0.175406,-0.000000
0.220000,-2.642919,-0.251269,-1.488294,0.084570,0.000835,0.007106,0.560608,0.212116,-0.008320,1.773675,1.306363,-0.194560,4.300355,-5.879734,-9.275103,0.021566,-0.057036,0.000000,0.132128,-0.178893,0.000000
0.230000,-2.642045,-0.251249,-1.488224,0.090265,0.003021,0.007012,0.578422,0.224864,-0.010479,1.773717,1.240577,-0.208404,-4.333797,-7.285015,6.654138,0.022854,-0.058832,0.000000,0.125316,-0.178697,-0.000000
0.240000,-2.641113,-0.251208,-1.488154,0.096137,0.005330,0.006898,0.595928,0.236900,-0.012231,1.732967,1.167130,-0.156188,-1.523414,-7.081673,-0.937487,0.024070,-0.060597,0.000000,0.117901,-0.174774,0.000000
0.250000,-2.640122,-0.251142,-1.488086,0.102183,0.007756,0.006767,0.613229,0.248220,-0.013962,1.724477,1.096267,-0.186990,-2.411151,-7.408240,-0.509451,0.025212,-0.062341,0.000000,0.110551,-0.173618,-0.000000
0.260000,-2.639069,-0.251052,-1.488019,0.108401,0.010292,0.006618,0.630312,0.258804,-0.015856,1.690261,1.019923,-0.191614,-3.161430,-7.717725,-0.385595,0.026279,-0.064060,0.000000,0.102717,-0.170012,0.000000
0.270000,-2.637953,-0.250936,-1.487954,0.114788,0.012930,0.006450,0.647112,0.268620,-0.017788,1.673145,0.943246,-0.194435,-1.455484,-7.752341,-0.208240,0.027267,-0.065750,0.000000,0.094858,-0.168152,0.000000
0.280000,-2.636773,-0.250793,-1.487890,0.121342,0.015662,0.006263,0.663699,0.277653,-0.019742,1.636051,0.862046,-0.196405,-5.984202,-8.490246,-0.187488,0.028175,-0.067417,0.000000,0.086554,-0.164275,0.000000
0.290000,-2.635526,-0.250623,-1.487828,0.128060,0.018480,0.006055,0.679755,0.285845,-0.021714,1.578317,0.776240,-0.197611,-4.322889,-8.531330,-0.025111,0.028996,-0.069029,0.000000,0.077799,-0.158320,0.000000
0.300000,-2.634211,-0.250424,-1.487769,0.134936,0.021376,0.005828,0.695350,0.293180,-0.023688,1.539487,0.690282,-0.197179,-4.649987,-8.795994,0.080917,0.029731,-0.070593,0.000000,0.069039,-0.154294,0.000000
0.310000,-2.632827,-0.250195,-1.487712,0.141966,0.024341,0.005582,0.710491,0.299637,-0.025658,1.488017,0.600681,-0.196620,-4.900917,-9.050220,0.167946,0.030376,-0.072111,0.000000,0.059923,-0.148997,0.000000
0.320000,-2.631371,-0.249937,-1.487657,0.149144,0.027366,0.005315,0.725162,0.305191,-0.027606,1.448444,0.509972,-0.192543,-3.712822,-9.159992,0.509625,0.030929,-0.073580,0.000000,0.050714,-0.144935,-0.000000
0.330000,-2.629843,-0.249648,-1.487606,0.156468,0.030441,0.005030,0.739422,0.309825,-0.029512,1.399061,0.416045,-0.189319,-6.175945,-9.626007,0.129615,0.031389,-0.075007,0.000000,0.041189,-0.139883,-0.000000
0.340000,-2.628242,-0.249328,-1.487557,0.163931,0.033559,0.004725,0.753104,0.313501,-0.031398,1.339484,0.318898,-0.187218,-5.013412,-9.731382,0.426995,0.031752,-0.076375,0.000000,0.031348,-0.133800,0.000000
0.350000,-2.626564,-0.248976,-1.487511,0.171528,0.036708,0.004402,0.766268,0.316201,-0.033244,1.292865,0.220849,-0.181971,-5.016482,-9.947207,0.482846,0.032016,-0.077690,0.000000,0.021433,-0.129058,-0.000000
0.360000,-2.624811,-0.248593,-1.487469,0.179254,0.039880,0.004060,0.778936,0.317908,-0.035041,1.240611,0.120093,-0.177367,-4.978444,-10.154585,0.528487,0.032179,-0.078955,0.000000,0.011253,-0.123749,0.000000
0.370000,-2.622979,-0.248179,-1.487430,0.187105,0.043063,0.003701,0.791118,0.318600,-0.036782,1.197558,0.018228,-0.170585,-4.061334,-10.263203,0.737462,0.032241,-0.080171,0.000000,0.000976,-0.119394,0.000000
0.380000,-2.621068,-0.247732,-1.487395,0.195075,0.046248,0.003325,0.802870,0.318264,-0.038455,1.150361,-0.086115,-0.164518,-5.386208,-10.605183,0.471750,0.032198,-0.081343,0.000000,-0.009544,-0.114623,0.000000
0.390000,-2.619077,-0.247254,-1.487364,0.203161,0.049425,0.002932,0.814107,0.316869,-0.040076,1.098746,-0.192905,-0.159373,-4.492292,-10.704398,0.645854,0.032049,-0.082462,0.000000,-0.020305,-0.109406,0.000000
0.400000,-2.617004,-0.246744,-1.487336,0.211356,0.052582,0.002524,0.824885,0.314404,-0.041635,1.056868,-0.300568,-0.152395,-4.316911,-10.873332,0.659102,0.031792,-0.083536,0.000000,-0.031144,-0.105192,-0.000000
0.410000,-2.614849,-0.246202,-1.487313,0.219657,0.055709,0.002100,0.835235,0.310851,-0.043128,1.013277,-0.410276,-0.146195,-4.120867,-11.033086,0.661464,0.031425,-0.084566,0.000000,-0.042184,-0.100806,-0.000000
0.420000,-2.612611,-0.245630,-1.487294,0.228059,0.058795,0.001661,0.845180,0.306196,-0.044552,0.977066,-0.520887,-0.138436,-3.386914,-11.119943,0.809667,0.030948,-0.085556,0.000000,-0.053306,-0.097182,0.000000
0.430000,-2.610288,-0.245026,-1.487280,0.236559,0.061829,0.001209,0.854771,0.300427,-0.045901,0.939953,-0.633323,-0.131692,-4.041539,-11.366512,0.535768,0.030359,-0.086510,0.000000,-0.064610,-0.093464,-0.000000
0.440000,-2.607879,-0.244393,-1.487270,0.245153,0.064800,0.000743,0.863973,0.293523,-0.047191,0.901719,-0.747523,-0.126135,-3.331828,-11.438779,0.654703,0.029655,-0.087426,0.000000,-0.076091,-0.089628,0.000000
0.450000,-2.605385,-0.243731,-1.487265,0.253838,0.067696,0.000265,0.872835,0.285475,-0.048418,0.871051,-0.862341,-0.119292,-3.070597,-11.555645,0.632691,0.028837,-0.088307,0.000000,-0.087629,-0.086570,0.000000
0.460000,-2.602802,-0.243040,-1.487265,0.262609,0.070506,-0.000225,0.881393,0.276271,-0.049579,0.840751,-0.978540,-0.113062,-2.803579,-11.661238,0.610948,0.027902,-0.089158,0.000000,-0.099305,-0.083547,-0.000000
0.470000,-2.600132,-0.242321,-1.487270,0.271465,0.073218,-0.000726,0.889674,0.265902,-0.050680,0.816699,-1.095333,-0.107100,-2.184793,-11.715697,0.582287,0.026850,-0.089981,0.000000,-0.111040,-0.081154,-0.000000
0.480000,-2.597373,-0.241576,-1.487280,0.280402,0.075820,-0.001238,0.897728,0.254361,-0.051722,0.793314,-1.213241,-0.101399,-2.497261,-11.864368,0.557507,0.025681,-0.090781,0.000000,-0.122886,-0.078828,0.000000
0.490000,-2.594524,-0.240805,-1.487295,0.289418,0.078301,-0.001760,0.905541,0.241634,-0.052709,0.770385,-1.332166,-0.095989,-1.907469,-11.897993,0.522415,0.024392,-0.091558,0.000000,-0.134834,-0.076549,0.000000
0.500000,-2.591584,-0.240010,-1.487315,0.298512,0.080649,-0.002292,0.913159,0.227717,-0.053643,0.753633,-1.451331,-0.090939,-1.622818,-11.953318,0.487970,0.022984,-0.092315,0.000000,-0.146807,-0.074890,0.000000
0.510000,-2.588553,-0.239192,-1.487340,0.307681,0.082851,-0.002833,0.920617,0.212605,-0.054530,0.738291,-1.571115,-0.086509,-1.338911,-11.994462,0.446043,0.021456,-0.093056,0.000000,-0.158842,-0.073369,-0.000000
0.520000,-2.585430,-0.238354,-1.487371,0.316924,0.084897,-0.003383,0.927943,0.196294,-0.055371,0.727833,-1.691112,-0.081577,-0.856959,-12.008963,0.493377,0.019807,-0.093785,0.000000,-0.170897,-0.072344,0.000000
0.530000,-2.582215,-0.237495,-1.487408,0.326240,0.086773,-0.003940,0.935178,0.178782,-0.056165,0.718963,-1.811383,-0.077625,-0.920767,-12.043062,0.295665,0.018038,-0.094504,0.000000,-0.182981,-0.071472,-0.000000
0.540000,-2.578905,-0.236619,-1.487450,0.335627,0.088468,-0.004506,0.942326,0.160066,-0.056927,0.711501,-1.931791,-0.074715,-0.467977,-12.029380,0.333752,0.016148,-0.095215,0.000000,-0.195078,-0.070732,-0.000000
0.550000,-2.575502,-0.235726,-1.487498,0.345086,0.089970,-0.005079,0.949425,0.140147,-0.057657,0.708696,-2.051976,-0.071342,-0.198398,-12.011442,0.293637,0.014136,-0.095921,0.000000,-0.207150,-0.070465,0.000000
0.560000,-2.572003,-0.234820,-1.487552,0.354616,0.091267,-0.005659,0.956505,0.119027,-0.058357,0.707701,-2.171901,-0.068815,0.063596,-11.976523,0.254200,0.012005,-0.096625,0.000000,-0.219195,-0.070372,0.000000
0.570000,-2.568409,-0.233902,-1.487611,0.364216,0.092347,-0.006246,0.963593,0.096710,-0.059031,0.710545,-2.291504,-0.065861,0.440188,-11.935862,0.296597,0.009753,-0.097330,0.000000,-0.231203,-0.070669,0.000000
0.580000,-2.564719,-0.232974,-1.487677,0.373888,0.093197,-0.006839,0.970721,0.073200,-0.059677,0.715139,-2.410446,-0.063721,0.475126,-11.849582,0.130968,0.007381,-0.098039,0.000000,-0.243141,-0.071133,-0.000000
0.590000,-2.560931,-0.232039,-1.487748,0.383631,0.093807,-0.007439,0.977901,0.048504,-0.060308,0.721301,-2.528550,-0.062401,0.819699,-11.773759,0.175156,0.004890,-0.098753,0.000000,-0.254989,-0.071746,0.000000
0.600000,-2.557046,-0.231098,-1.487826,0.393446,0.094164,-0.008045,0.985160,0.022631,-0.060923,0.730952,-2.645815,-0.060544,1.044523,-11.670846,0.156456,0.002281,-0.099475,0.000000,-0.266745,-0.072714,0.000000
0.610000,-2.553062,-0.230156,-1.487909,0.403334,0.094256,-0.008658,0.992524,-0.004408,-0.061520,0.742163,-2.761859,-0.058825,1.255265,-11.548693,0.152291,-0.000444,-0.100207,0.000000,-0.278371,-0.073837,0.000000
0.620000,-2.548979,-0.229214,-1.487999,0.413297,0.094072,-0.009276,1.000015,-0.032603,-0.062102,0.756566,-2.876855,-0.057804,1.565234,-11.434021,0.088721,-0.003286,-0.100953,0.000000,-0.289882,-0.075271,-0.000000
0.630000,-2.544796,-0.228276,-1.488095,0.423335,0.093600,-0.009900,1.007659,-0.061940,-0.062674,0.772206,-2.990194,-0.056276,1.558734,-11.230102,0.219553,-0.006241,-0.101713,0.000000,-0.301214,-0.076833,-0.000000
0.640000,-2.540512,-0.227343,-1.488197,0.433450,0.092829,-0.010529,1.015462,-0.092400,-0.063225,0.788868,-3.101666,-0.054092,1.829785,-11.074645,0.183442,-0.009309,-0.102490,0.000000,-0.312347,-0.078502,-0.000000
0.650000,-2.536127,-0.226420,-1.488305,0.443645,0.091748,-0.011164,1.023447,-0.123968,-0.063758,0.808263,-3.211507,-0.052267,1.987638,-10.876630,0.219111,-0.012488,-0.103284,0.000000,-0.323303,-0.080440,-0.000000
0.660000,-2.531639,-0.225509,-1.488420,0.453920,0.090346,-0.011804,1.031630,-0.156623,-0.064269,0.828653,-3.319098,-0.049873,2.129460,-10.657487,0.264484,-0.015775,-0.104099,0.000000,-0.334018,-0.082482,0.000000
0.670000,-2.527048,-0.224614,-1.488541,0.464278,0.088612,-0.012449,1.040028,-0.190344,-0.064753,0.851183,-3.424765,-0.046910,2.333697,-10.453955,0.327850,-0.019167,-0.104935,0.000000,-0.344524,-0.084742,-0.000000
0.680000,-2.522353,-0.223738,-1.488669,0.474721,0.086536,-0.013099,1.048656,-0.225109,-0.065205,0.874426,-3.527720,-0.043322,2.310934,-10.132940,0.391999,-0.022664,-0.105794,0.000000,-0.354741,-0.087077,0.000000
0.690000,-2.517553,-0.222885,-1.488803,0.485252,0.084107,-0.013753,1.057517,-0.260888,-0.065617,0.898164,-3.627730,-0.038969,2.474659,-9.884494,0.483867,-0.026261,-0.106677,0.000000,-0.364647,-0.089468,-0.000000
0.700000,-2.512648,-0.222057,-1.488944,0.495873,0.081315,-0.014411,1.066625,-0.297655,-0.065981,0.923522,-3.725180,-0.033618,2.553022,-9.583339,0.586860,-0.029956,-0.107585,0.000000,-0.374279,-0.092029,0.000000
0.710000,-2.507636,-0.221260,-1.489092,0.506585,0.078150,-0.015073,1.075988,-0.335380,-0.066285,0.949155,-3.819324,-0.026897,2.612189,-9.260194,0.712143,-0.033746,-0.108519,0.000000,-0.383565,-0.094630,0.000000
0.720000,-2.502516,-0.220496,-1.489246,0.517393,0.074604,-0.015737,1.085613,-0.374032,-0.066518,0.976091,-3.910482,-0.019759,2.731793,-8.950127,0.764993,-0.037626,-0.109479,0.000000,-0.392532,-0.097363,-0.000000
0.730000,-2.497287,-0.219769,-1.489406,0.528299,0.070667,-0.016403,1.095509,-0.413577,-0.066673,1.002886,-3.997880,-0.010559,2.623051,-8.525140,1.079595,-0.041595,-0.110467,0.000000,-0.401111,-0.100103,-0.000000
0.740000,-2.491949,-0.219084,-1.489574,0.539304,0.066330,-0.017070,1.105670,-0.453976,-0.066721,1.029308,-4.081274,0.000953,2.699086,-8.168227,1.178845,-0.045647,-0.111483,0.000000,-0.409280,-0.102829,0.000000
0.750000,-2.486501,-0.218444,-1.489748,0.550413,0.061584,-0.017737,1.116099,-0.495191,-0.066651,1.056468,-4.161018,0.013478,2.688661,-7.758879,1.376835,-0.049779,-0.112526,0.000000,-0.417071,-0.105639,-0.000000
0.760000,-2.480941,-0.217853,-1.489928,0.561627,0.056423,-0.018403,1.126796,-0.537182,-0.066442,1.082989,-4.236401,0.028779,2.657662,-7.327286,1.601238,-0.053987,-0.113598,0.000000,-0.424424,-0.108415,0.000000
0.770000,-2.475268,-0.217317,-1.490116,0.572950,0.050838,-0.019065,1.137761,-0.579905,-0.066074,1.109975,-4.307611,0.044785,2.692898,-6.898251,1.686172,-0.058266,-0.114698,0.000000,-0.431348,-0.111245,0.000000
0.780000,-2.469481,-0.216838,-1.490310,0.584383,0.044823,-0.019723,1.148992,-0.623318,-0.065534,1.135870,-4.374024,0.064309,2.481641,-6.380228,2.224568,-0.062613,-0.115827,0.000000,-0.437802,-0.114006,0.000000
0.790000,-2.463580,-0.216422,-1.490510,0.595930,0.038370,-0.020375,1.160473,-0.667369,-0.064775,1.160433,-4.435400,0.087669,2.472148,-5.904168,2.367375,-0.067021,-0.116982,0.000000,-0.443769,-0.116681,0.000000
0.800000,-2.457562,-0.216072,-1.490717,0.607594,0.031473,-0.021018,1.172201,-0.712010,-0.063777,1.184873,-4.491923,0.112438,2.369557,-5.383829,2.672848,-0.071486,-0.118166,0.000000,-0.449257,-0.119362,0.000000
0.810000,-2.451428,-0.215794,-1.490931,0.619375,0.024128,-0.021650,1.184165,-0.757189,-0.062511,1.207721,-4.543031,0.141471,2.246774,-4.841150,3.007878,-0.076004,-0.119375,0.000000,-0.454235,-0.121938,-0.000000
0.820000,-2.445175,-0.215591,-1.491150,0.631278,0.016328,-0.022267,1.196355,-0.802853,-0.060947,1.230207,-4.588736,0.171474,2.199333,-4.289299,3.121488,-0.080569,-0.120611,0.000000,-0.458686,-0.124495,0.000000
0.830000,-2.438802,-0.215469,-1.491376,0.643303,0.008069,-0.022868,1.208762,-0.848944,-0.059063,1.250639,-4.628596,0.206602,1.882666,-3.678805,3.911448,-0.085176,-0.121873,0.000000,-0.462605,-0.126915,-0.000000
0.840000,-2.432308,-0.215431,-1.491607,0.655453,-0.000652,-0.023447,1.221360,-0.895404,-0.056795,1.268779,-4.662377,0.247229,1.791212,-3.080405,4.090440,-0.089820,-0.123158,0.000000,-0.465984,-0.129182,-0.000000
0.850000,-2.425692,-0.215483,-1.491845,0.667731,-0.009840,-0.024002,1.234135,-0.942172,-0.054115,1.285995,-4.690070,0.289550,1.600844,-2.447528,4.503145,-0.094494,-0.124467,0.000000,-0.468796,-0.131389,0.000000
0.860000,-2.418953,-0.215630,-1.492087,0.680137,-0.019496,-0.024528,1.247071,-0.989184,-0.050983,1.300691,-4.711252,0.337626,1.390683,-1.791752,4.944623,-0.099194,-0.125797,0.000000,-0.471046,-0.133429,-0.000000
0.870000,-2.412089,-0.215875,-1.492335,0.692673,-0.029624,-0.025020,1.260146,-1.036375,-0.047362,1.314246,-4.725892,0.386923,1.265653,-1.125926,5.083515,-0.103913,-0.127148,0.000000,-0.472695,-0.135386,0.000000
0.880000,-2.405099,-0.216224,-1.492588,0.705340,-0.040224,-0.025474,1.273345,-1.083678,-0.043222,1.324860,-4.733556,0.442833,0.852952,-0.402911,6.106132,-0.108646,-0.128519,0.000000,-0.473766,-0.137150,0.000000
0.890000,-2.397982,-0.216681,-1.492845,0.718140,-0.051298,-0.025883,1.286632,-1.131022,-0.038480,1.332311,-4.734008,0.505736,0.687437,0.309734,6.309290,-0.113386,-0.129907,0.000000,-0.474255,-0.138710,0.000000
0.900000,-2.390736,-0.217251,-1.493105,0.731073,-0.062845,-0.026241,1.299987,-1.178335,-0.033104,1.338116,-4.727229,0.570484,0.418825,1.056415,6.809331,-0.118129,-0.131311,0.000000,-0.474112,-0.140154,0.000000
0.910000,-2.383360,-0.217939,-1.493369,0.744140,-0.074864,-0.026542,1.313383,-1.225541,-0.027045,1.340631,-4.712721,0.642272,0.134467,1.827772,7.333750,-0.122866,-0.132729,0.000000,-0.473361,-0.141388,0.000000
0.920000,-2.375853,-0.218750,-1.493636,0.757341,-0.087355,-0.026780,1.326794,-1.272565,-0.020258,1.341245,-4.690794,0.715201,-0.064499,2.581987,7.463002,-0.127594,-0.134160,0.000000,-0.471970,-0.142476,-0.000000
0.930000,-2.368213,-0.219688,-1.493905,0.770676,-0.100314,-0.026945,1.340196,-1.319329,-0.012713,1.338236,-4.660572,0.795956,-0.540770,3.466888,8.695351,-0.132304,-0.135601,0.000000,-0.469949,-0.143339,-0.000000
0.940000,-2.360439,-0.220758,-1.494174,0.784144,-0.113740,-0.027031,1.353546,-1.365747,-0.004310,1.331421,-4.621799,0.884879,-0.772700,4.270466,8.878108,-0.136991,-0.137051,0.000000,-0.467295,-0.143970,0.000000
0.950000,-2.352529,-0.221964,-1.494445,0.797746,-0.127628,-0.027028,1.366817,-1.411738,0.004986,1.322314,-4.574910,0.975323,-1.101409,5.131822,9.421328,-0.141647,-0.138507,0.000000,-0.463970,-0.144431,0.000000
0.960000,-2.344483,-0.223312,-1.494715,0.811480,-0.141973,-0.026928,1.379979,-1.457215,0.015222,1.309355,-4.518879,1.072936,-1.441397,6.020469,9.964441,-0.146268,-0.139968,0.000000,-0.459964,-0.144649,0.000000
0.970000,-2.336299,-0.224805,-1.494983,0.825345,-0.156770,-0.026721,1.392997,-1.502091,0.026451,1.293923,-4.454959,1.173344,-1.695147,6.823056,10.248247,-0.150845,-0.141431,0.000000,-0.455347,-0.144702,-0.000000
0.980000,-2.327976,-0.226449,-1.495249,0.839340,-0.172013,-0.026396,1.405843,-1.546281,0.038713,1.274404,-4.381169,1.280649,-2.211188,7.940284,11.215395,-0.155372,-0.142894,0.000000,-0.449995,-0.144491,-0.000000
0.990000,-2.319512,-0.228247,-1.495511,0.853461,-0.187693,-0.025943,1.418471,-1.589680,0.052089,1.250668,-4.297217,1.394941,-2.487463,8.797124,11.507434,-0.159842,-0.144355,0.000000,-0.443893,-0.144009,-0.000000
1.000000,-2.310906,-0.230204,-1.495767,0.867708,-0.203803,-0.025350,1.430848,-1.632197,0.066618,1.224221,-4.204677,1.511886,-2.851810,9.770643,12.011453,-0.164248,-0.145811,0.000000,-0.437136,-0.143345,0.000000
1.010000,-2.302158,-0.232324,-1.496017,0.882077,-0.220334,-0.024606,1.442940,-1.673736,0.082352,1.193463,-4.101364,1.635822,-3.224683,10.774110,12.517094,-0.168582,-0.147260,0.000000,-0.429586,-0.142406,0.000000
1.020000,-2.293264,-0.234612,-1.496259,0.896566,-0.237275,-0.023699,1.454711,-1.714201,0.099331,1.160418,-3.990243,1.759804,-3.457946,11.570593,12.522966,-0.172838,-0.148700,0.000000,-0.421421,-0.141292,0.000000
1.030000,-2.284226,-0.237071,-1.496490,0.911171,-0.254614,-0.022615,1.466132,-1.753501,0.117575,1.122762,-3.867425,1.891395,-4.075482,12.999663,13.798158,-0.177008,-0.150128,0.000000,-0.412393,-0.139885,-0.000000
1.040000,-2.275041,-0.239706,-1.496710,0.925887,-0.272340,-0.021343,1.477150,-1.791508,0.137186,1.080397,-3.732568,2.030649,-4.323017,13.856014,13.797021,-0.181082,-0.151541,0.000000,-0.402477,-0.138181,0.000000
1.050000,-2.265708,-0.242519,-1.496917,0.940712,-0.290440,-0.019867,1.487734,-1.828126,0.158182,1.035679,-3.589244,2.169340,-4.693577,14.929608,14.184024,-0.185055,-0.152937,0.000000,-0.391873,-0.136287,-0.000000
1.060000,-2.256226,-0.245516,-1.497107,0.955640,-0.308898,-0.018174,1.497849,-1.863249,0.180592,0.986793,-3.433409,2.313181,-5.057765,16.033391,14.520381,-0.188917,-0.154313,0.000000,-0.380285,-0.134110,0.000000
1.070000,-2.246595,-0.248698,-1.497279,0.970667,-0.327699,-0.016250,1.507460,-1.896774,0.204452,0.934774,-3.270432,2.459077,-5.369266,16.764301,14.705514,-0.192659,-0.155667,0.000000,-0.368178,-0.131705,0.000000
1.080000,-2.236812,-0.252071,-1.497431,0.985788,-0.346828,-0.014080,1.516532,-1.928611,0.229785,0.878925,-3.093881,2.608270,-5.799869,18.553825,15.125976,-0.196276,-0.156996,0.000000,-0.354934,-0.129019,-0.000000
1.090000,-2.226879,-0.255636,-1.497560,1.000996,-0.366265,-0.011650,1.525025,-1.958604,0.256627,0.819298,-2.903377,2.760304,-6.099417,19.346029,15.215967,-0.199754,-0.158297,0.000000,-0.340495,-0.126049,0.000000
1.100000,-2.216792,-0.259397,-1.497663,1.016286,-0.385993,-0.008943,1.532909,-1.986657,0.284992,0.756765,-2.705220,2.912859,-6.429446,20.487768,15.339200,-0.203084,-0.159567,0.000000,-0.325422,-0.122840,0.000000
1.110000,-2.206553,-0.263357,-1.497738,1.031652,-0.405992,-0.005945,1.540149,-2.012659,0.314884,0.690867,-2.493086,3.065605,-6.745532,21.652549,15.374040,-0.206258,-0.160804,0.000000,-0.309063,-0.119338,-0.000000
1.120000,-2.196159,-0.267518,-1.497781,1.047087,-0.426239,-0.002640,1.546716,-2.036503,0.346318,0.621926,-2.274805,3.221720,-7.042594,22.281880,15.666840,-0.209265,-0.162005,0.000000,-0.292240,-0.115620,-0.000000
1.130000,-2.185611,-0.271882,-1.497790,1.062584,-0.446714,0.000987,1.552578,-2.058103,0.379308,0.550018,-2.041613,3.375127,-7.336256,24.364533,14.996646,-0.212097,-0.163167,0.000000,-0.273928,-0.111590,0.000000
1.140000,-2.174907,-0.276453,-1.497760,1.078136,-0.467393,0.004951,1.557707,-2.077282,0.413807,0.475309,-1.793166,3.524833,-7.600012,25.042504,15.103046,-0.214738,-0.164286,0.000000,-0.254035,-0.107238,-0.000000
1.150000,-2.164048,-0.281231,-1.497689,1.093736,-0.488252,0.009268,1.562076,-2.093950,0.449811,0.398058,-1.538409,3.675452,-7.848735,26.186990,14.836238,-0.217176,-0.165361,0.000000,-0.233518,-0.102660,0.000000
1.160000,-2.153032,-0.286218,-1.497574,1.109375,-0.509264,0.013952,1.565660,-2.107999,0.487297,0.318356,-1.269157,3.820979,-8.077280,27.335434,14.471290,-0.219402,-0.166388,0.000000,-0.211389,-0.097754,-0.000000
1.170000,-2.141860,-0.291416,-1.497409,1.125046,-0.530402,0.019019,1.568436,-2.119322,0.526234,0.236688,-0.994755,3.966575,-8.262942,27.856866,14.422828,-0.221403,-0.167364,0.000000,-0.188656,-0.092649,-0.000000
1.180000,-2.130531,-0.296827,-1.497192,1.140741,-0.551641,0.024482,1.570386,-2.127842,0.566602,0.152960,-0.705477,4.104717,-8.478556,30.004284,13.183526,-0.223169,-0.168286,0.000000,-0.164125,-0.087194,0.000000
1.190000,-2.119045,-0.302450,-1.496918,1.156451,-0.572949,0.030355,1.571489,-2.133379,0.608298,0.067415,-0.401151,4.234183,-8.615483,30.537000,12.905794,-0.224679,-0.169151,0.000000,-0.137686,-0.081379,0.000000
1.200000,-2.107402,-0.308286,-1.496583,1.172168,-0.594298,0.036652,1.571731,-2.135855,0.651279,-0.019345,-0.092148,4.360707,-8.742046,31.574686,12.171084,-0.225921,-0.169955,0.000000,-0.110466,-0.075354,-0.000000
1.210000,-2.095602,-0.314336,-1.496184,1.187883,-0.615656,0.043385,1.571100,-2.135174,0.695468,-0.106917,0.230037,4.475310,-8.831747,32.581326,11.289379,-0.226881,-0.170696,0.000000,-0.081329,-0.068988,0.000000
1.220000,-2.083645,-0.320599,-1.495714,1.203587,-0.636991,0.050565,1.569585,-2.131243,0.740800,-0.196483,0.556799,4.591290,-9.012565,33.028452,11.349191,-0.227545,-0.171370,0.000000,-0.051408,-0.062382,0.000000
1.230000,-2.071530,-0.327075,-1.495171,1.219272,-0.658270,0.058205,1.567172,-2.123995,0.787234,-0.285722,0.896006,4.690608,-8.827557,34.811729,8.480848,-0.227902,-0.171975,0.000000,-0.019397,-0.055440,0.000000
1.240000,-2.059259,-0.333764,-1.494549,1.234927,-0.679459,0.066313,1.563873,-2.113280,0.834546,-0.374210,1.247454,4.771510,-8.928531,35.198726,8.228668,-0.227926,-0.172507,0.000000,0.014811,-0.048157,-0.000000
1.250000,-2.046832,-0.340664,-1.493843,1.250546,-0.700524,0.074898,1.559684,-2.099040,0.882667,-0.463631,1.602033,4.850213,-8.885345,35.972789,6.951189,-0.227603,-0.172963,0.000000,0.049946,-0.040636,0.000000
1.260000,-2.034248,-0.347774,-1.493049,1.266118,-0.721428,0.083968,1.554608,-2.081207,0.931477,-0.551348,1.965712,4.909004,-8.793818,36.664346,5.528144,-0.226920,-0.173340,0.000000,0.087135,-0.032818,-0.000000
1.270000,-2.021510,-0.355092,-1.492162,1.281635,-0.742135,0.093530,1.548649,-2.059711,0.980858,-0.640690,2.334260,4.967240,-8.930478,37.113871,5.387918,-0.225857,-0.173636,0.000000,0.125527,-0.024692,0.000000
1.280000,-2.008616,-0.362616,-1.491177,1.297088,-0.762610,0.103587,1.541805,-2.034499,1.030736,-0.726936,2.709434,5.001435,-8.308054,37.908010,1.413641,-0.224402,-0.173846,0.000000,0.165961,-0.016311,-0.000000
1.290000,-1.995568,-0.370343,-1.490089,1.312469,-0.782813,0.114145,1.534123,-2.005502,1.080794,-0.809510,3.090419,5.009691,-8.339365,38.188642,0.945421,-0.222531,-0.173969,0.000000,0.208467,-0.007687,-0.000000
1.300000,-1.982367,-0.378271,-1.488892,1.327768,-0.802707,0.125203,1.525611,-1.972685,1.130929,-0.892410,3.473571,5.013931,-8.095344,38.507297,-0.831121,-0.220229,-0.174003,0.000000,0.252170,0.001206,-0.000000
1.310000,-1.969013,-0.386396,-1.487583,1.342978,-0.822254,0.136763,1.516293,-1.936027,1.180977,-0.970707,3.858338,4.992144,-7.794303,38.681423,-2.729932,-0.217482,-0.173944,0.000000,0.297606,0.010262,0.000000
1.320000,-1.955508,-0.394715,-1.486155,1.358091,-0.841415,0.148822,1.506189,-1.895494,1.230773,-1.050344,4.249148,4.966536,-7.896690,39.213768,-3.187841,-0.214271,-0.173791,0.000000,0.344750,0.019712,0.000000
1.330000,-1.941852,-0.403223,-1.484605,1.373099,-0.860151,0.161377,1.495308,-1.851055,1.280205,-1.123686,4.637019,4.911696,-6.758187,38.331479,-7.814502,-0.210582,-0.173541,0.000000,0.393288,0.029214,0.000000
1.340000,-1.928046,-0.411916,-1.482926,1.387995,-0.878423,0.174424,1.483740,-1.802771,1.328898,-1.190029,5.020340,4.825938,-6.736045,38.559892,-8.553458,-0.206401,-0.173194,0.000000,0.443071,0.038717,0.000000
1.350000,-1.914092,-0.420790,-1.481115,1.402772,-0.896193,0.187952,1.471504,-1.750637,1.376716,-1.256307,5.405650,4.733745,-6.282573,38.230536,-10.682359,-0.201716,-0.172749,0.000000,0.494227,0.048515,0.000000
1.360000,-1.899991,-0.429838,-1.479166,1.417423,-0.913423,0.201954,1.458643,-1.694693,1.423465,-1.314888,5.782052,4.611887,-5.769697,37.701803,-12.887498,-0.196515,-0.172204,0.000000,0.546070,0.058203,-0.000000
1.370000,-1.885744,-0.439056,-1.477074,1.431943,-0.930074,0.216418,1.445196,-1.634962,1.468945,-1.374732,6.165422,4.483333,-5.861686,38.292405,-13.609487,-0.190787,-0.171560,0.000000,0.599801,0.068334,0.000000
1.380000,-1.871353,-0.448438,-1.474836,1.446325,-0.946109,0.231329,1.431183,-1.571440,1.513020,-1.425046,6.533648,4.323211,-4.185572,35.307790,-18.440614,-0.184520,-0.170813,0.000000,0.653439,0.078160,-0.000000
1.390000,-1.856818,-0.457976,-1.472446,1.460565,-0.961491,0.246672,1.416732,-1.504352,1.555294,-1.465056,6.884342,4.130358,-4.146694,35.467601,-19.338663,-0.177721,-0.169971,0.000000,0.706561,0.087583,0.000000
1.400000,-1.842142,-0.467665,-1.469901,1.474658,-0.976185,0.262428,1.401876,-1.433735,1.595615,-1.505048,7.236877,3.929757,-3.512742,34.354352,-21.565778,-0.170384,-0.169033,0.000000,0.760718,0.097273,-0.000000
1.410000,-1.827325,-0.477498,-1.467196,1.488601,-0.990155,0.278577,1.386665,-1.359698,1.633789,-1.535843,7.567606,3.701094,-2.852179,32.995369,-23.761315,-0.162512,-0.167999,0.000000,0.813446,0.106544,0.000000
1.420000,-1.812370,-0.487466,-1.464328,1.502391,-1.003368,0.295096,1.371164,-1.282331,1.669597,-1.563949,7.907592,3.458343,-2.562373,33.784739,-25.169244,-0.154107,-0.166873,0.000000,0.867903,0.115847,0.000000
1.430000,-1.797278,-0.497562,-1.461293,1.516024,-1.015790,0.311961,1.355419,-1.201655,1.702867,-1.582760,8.217777,3.189738,-1.190783,28.190952,-28.553744,-0.145164,-0.165656,0.000000,0.919522,0.124606,0.000000
1.440000,-1.782050,-0.507779,-1.458088,1.529499,-1.027391,0.329144,1.339543,-1.118095,1.733303,-1.591832,8.495061,2.895351,-0.826893,28.446275,-29.919020,-0.135729,-0.164357,0.000000,0.967587,0.132718,0.000000
1.450000,-1.766689,-0.518107,-1.454709,1.542814,-1.038143,0.346617,1.323590,-1.031720,1.760738,-1.597518,8.776021,2.588308,-0.104013,26.523192,-31.865038,-0.125809,-0.162978,0.000000,1.015971,0.140638,-0.000000
1.460000,-1.751195,-0.528539,-1.451155,1.555970,-1.048017,0.364348,1.307613,-0.942690,1.785028,-1.596792,9.025966,2.267567,0.576686,24.435587,-33.548034,-0.115425,-0.161524,0.000000,1.060267,0.147989,0.000000
1.470000,-1.735570,-0.539065,-1.447422,1.568967,-1.056988,0.382306,1.291703,-0.851192,1.805931,-1.582966,9.273441,1.905888,1.872518,24.077952,-37.523428,-0.104603,-0.160001,0.000000,1.103994,0.154450,-0.000000
1.480000,-1.719816,-0.549675,-1.443508,1.581805,-1.065033,0.400454,1.275962,-0.757342,1.823153,-1.565980,9.486950,1.543639,1.515184,18.575336,-34.867327,-0.093364,-0.158419,0.000000,1.142424,0.160380,-0.000000
1.490000,-1.703934,-0.560362,-1.439412,1.594487,-1.072129,0.418757,1.260390,-0.661582,1.836821,-1.546255,9.664054,1.183755,2.749508,17.799664,-38.345843,-0.081775,-0.156781,0.000000,1.174989,0.165751,0.000000
1.500000,-1.687926,-0.571115,-1.435132,1.607014,-1.078258,0.437178,1.245085,-0.564066,1.846686,-1.513703,9.834379,0.787840,3.441545,15.282420,-39.560892,-0.069869,-0.155097,0.000000,1.205444,0.170033,0.000000
1.510000,-1.671794,-0.581924,-1.430668,1.619390,-1.083405,0.455678,1.230150,-0.465017,1.852582,-1.471674,9.970854,0.389727,4.231820,12.668247,-40.650440,-0.057688,-0.153377,0.000000,1.229840,0.172944,0.000000
1.520000,-1.655539,-0.592780,-1.426019,1.631618,-1.087555,0.474216,1.215619,-0.364683,1.854397,-1.435823,10.093656,-0.030322,3.646673,11.232186,-42.741271,-0.045283,-0.151628,0.000000,1.250571,0.176750,0.000000
1.530000,-1.639162,-0.603672,-1.421184,1.643703,-1.090695,0.492751,1.201493,-0.263264,1.851974,-1.383875,10.181671,-0.452137,6.762540,6.341503,-41.578032,-0.032699,-0.149847,0.000000,1.264708,0.178313,-0.000000
1.540000,-1.622666,-0.614590,-1.416164,1.655650,-1.092818,0.511242,1.188003,-0.161176,1.845361,-1.314995,10.233459,-0.873387,6.293258,4.664534,-43.245649,-0.020012,-0.148068,0.000000,1.271958,0.177476,-0.000000
1.550000,-1.606050,-0.625525,-1.410959,1.667465,-1.093917,0.529644,1.175160,-0.058637,1.834440,-1.252009,10.269283,-1.311433,7.014625,1.842709,-43.739579,-0.007273,-0.146293,0.000000,1.274779,0.177354,-0.000000
1.560000,-1.589317,-0.636465,-1.405571,1.679156,-1.093990,0.547916,1.163000,0.044096,1.819144,-1.179053,10.272509,-1.747927,7.651454,-0.981787,-44.053179,0.005461,-0.144527,0.000000,1.271037,0.175663,-0.000000
1.570000,-1.572467,-0.647401,-1.400001,1.690728,-1.093035,0.566013,1.151607,0.146737,1.799431,-1.098359,10.251632,-2.196745,8.402903,-3.405010,-45.177537,0.018129,-0.142783,0.000000,1.261804,0.172934,0.000000
1.580000,-1.555503,-0.658322,-1.394252,1.702191,-1.091056,0.583890,1.141049,0.249025,1.775230,-1.012772,10.199992,-2.640311,8.704689,-6.927009,-43.491919,0.030676,-0.141071,0.000000,1.246351,0.169222,0.000000
1.590000,-1.538424,-0.669219,-1.388325,1.713552,-1.088057,0.601503,1.131365,0.350632,1.746654,-0.922839,10.117443,-3.076252,9.352490,-9.364536,-44.178667,0.043036,-0.139400,0.000000,1.224869,0.164583,0.000000
1.600000,-1.521232,-0.680080,-1.382223,1.724821,-1.084047,0.618808,1.122614,0.451298,1.713674,-0.826568,10.011008,-3.518990,9.814612,-12.128199,-43.831230,0.055157,-0.137779,0.000000,1.198339,0.159053,0.000000
1.610000,-1.503928,-0.690896,-1.375950,1.736007,-1.079035,0.635761,1.114822,0.550767,1.676338,-0.731798,9.878753,-3.946337,10.116764,-14.777273,-43.173714,0.066987,-0.136214,0.000000,1.166912,0.153243,0.000000
1.620000,-1.486512,-0.701658,-1.369509,1.747121,-1.073036,0.652320,1.108068,0.648748,1.634645,-0.615346,9.711403,-4.396298,12.206404,-18.231317,-45.274343,0.078474,-0.134717,0.000000,1.129406,0.145034,-0.000000
1.630000,-1.468985,-0.712354,-1.362905,1.758173,-1.066066,0.668439,1.102478,0.744931,1.588512,-0.507967,9.523822,-4.819437,9.229676,-19.257588,-39.279970,0.089564,-0.133302,0.000000,1.088370,0.137360,0.000000
1.640000,-1.451349,-0.722976,-1.356142,1.769174,-1.058144,0.684077,1.097864,0.839165,1.538370,-0.411577,9.317434,-5.212077,11.005241,-22.459007,-40.754423,0.100232,-0.131955,0.000000,1.044456,0.130424,0.000000
1.650000,-1.433602,-0.733514,-1.349225,1.780134,-1.049290,0.699193,1.094327,0.931165,1.484190,-0.296266,9.078826,-5.621024,11.083937,-24.792802,-39.485114,0.110436,-0.130689,0.000000,0.995818,0.121466,-0.000000
1.660000,-1.415746,-0.743958,-1.342160,1.791064,-1.039529,0.713748,1.091920,1.020691,1.426041,-0.184947,8.823136,-6.006225,11.167151,-26.975803,-38.110946,0.120142,-0.129510,0.000000,0.945093,0.112620,0.000000
1.670000,-1.397781,-0.754301,-1.334952,1.801976,-1.028886,0.727701,1.090629,1.107504,1.364066,-0.073142,8.533727,-6.388131,11.187414,-30.255703,-37.688445,0.129323,-0.128420,0.000000,0.890409,0.103712,-0.000000
1.680000,-1.379707,-0.764533,-1.327608,1.812880,-1.017389,0.741017,1.090457,1.191328,1.298356,0.038674,8.231668,-6.747811,11.166442,-30.114848,-34.210589,0.137948,-0.127419,0.000000,0.834814,0.094548,0.000000
1.690000,-1.361523,-0.774646,-1.320134,1.823789,-1.005069,0.753657,1.091401,1.272107,1.229195,0.149935,7.919132,-7.083324,11.073017,-33.005305,-33.440823,0.146019,-0.126512,0.000000,0.778878,0.085211,0.000000
1.700000,-1.343231,-0.784632,-1.312537,1.834712,-0.991958,0.765589,1.093452,1.349602,1.156704,0.259970,7.577435,-7.411479,10.927640,-34.675777,-31.609276,0.153516,-0.125696,0.000000,0.720488,0.076052,-0.000000
1.710000,-1.324829,-0.794483,-1.304825,1.845661,-0.978089,0.776781,1.096587,1.423638,1.081047,0.366489,7.227708,-7.716714,10.689149,-36.138410,-29.692649,0.160431,-0.124972,0.000000,0.662535,0.067126,-0.000000
1.720000,-1.306317,-0.804191,-1.297004,1.856647,-0.963497,0.787200,1.100799,1.494038,1.002414,0.476528,6.846969,-8.007538,10.997087,-39.117253,-28.198509,0.166758,-0.124338,0.000000,0.602524,0.057797,0.000000
1.730000,-1.287696,-0.813751,-1.289083,1.867681,-0.948221,0.796820,1.106092,1.560577,0.920976,0.579689,6.464077,-8.274969,9.616265,-37.407507,-25.268819,0.172487,-0.123797,0.000000,0.544017,0.049112,-0.000000
1.740000,-1.268964,-0.823154,-1.281070,1.878772,-0.932298,0.805611,1.112364,1.623328,0.836998,0.674999,6.081831,-8.517999,9.752621,-39.889156,-23.591766,0.177646,-0.123339,0.000000,0.487428,0.041155,0.000000
1.750000,-1.250120,-0.832394,-1.272974,1.889931,-0.915768,0.813552,1.119603,1.682114,0.750667,0.771889,5.674272,-8.744407,9.302929,-40.723495,-21.419829,0.182231,-0.122962,0.000000,0.429913,0.033017,0.000000
1.760000,-1.231165,-0.841467,-1.264802,1.901167,-0.898669,0.820618,1.127776,1.736827,0.662188,0.861831,5.267782,-8.947673,8.809803,-41.357624,-19.227649,0.186252,-0.122665,0.000000,0.374517,0.025530,-0.000000
1.770000,-1.212096,-0.850366,-1.256564,1.912490,-0.881045,0.826789,1.136833,1.787385,0.571787,0.949146,4.840217,-9.128868,8.517132,-43.341053,-17.008317,0.189719,-0.122442,0.000000,0.318934,0.018245,-0.000000
1.780000,-1.192915,-0.859086,-1.248269,1.923907,-0.862936,0.832048,1.146734,1.833655,0.479685,1.029332,4.418031,-9.287801,7.508894,-41.043708,-14.776759,0.192640,-0.122291,0.000000,0.265972,0.011625,-0.000000
1.790000,-1.173618,-0.867623,-1.239927,1.935427,-0.844386,0.836378,1.157393,1.875779,0.386105,1.101778,4.003980,-9.424377,7.103053,-42.533227,-12.538057,0.195049,-0.122203,0.000000,0.215853,0.005710,0.000000
1.800000,-1.154206,-0.875973,-1.231545,1.947057,-0.825435,0.839766,1.168758,1.913670,0.291272,1.170162,3.574661,-9.538589,6.438000,-42.511797,-10.306870,0.196957,-0.122174,0.000000,0.166166,0.000105,-0.000000
1.810000,-1.134676,-0.884131,-1.223134,1.958804,-0.806126,0.842200,1.180765,1.947317,0.195398,1.229894,3.155666,-9.632685,5.719961,-42.267528,-8.134928,0.198383,-0.122198,0.000000,0.119419,-0.004712,-0.000000
1.820000,-1.115029,-0.892094,-1.214704,1.970674,-0.786502,0.843671,1.193349,1.976712,0.098721,1.286448,2.720572,-9.697869,5.374558,-43.748549,-5.276947,0.199345,-0.122270,0.000000,0.073083,-0.009421,0.000000
1.830000,-1.095263,-0.899860,-1.206264,1.982673,-0.766606,0.844172,1.206459,2.001790,0.001495,1.332854,2.301713,-9.746107,3.895169,-39.967887,-4.388938,0.199856,-0.122387,0.000000,0.030069,-0.013197,0.000000
1.840000,-1.075375,-0.907426,-1.197824,1.994805,-0.746480,0.843699,1.219969,2.022818,-0.096150,1.368530,1.901936,-9.778316,3.448764,-40.949942,-1.687549,0.199959,-0.122536,0.000000,-0.009513,-0.016013,0.000000
1.850000,-1.055366,-0.914789,-1.189394,2.007074,-0.726164,0.842249,1.233819,2.039776,-0.193974,1.399939,1.491553,-9.783204,2.617572,-40.120813,0.327807,0.199667,-0.122713,0.000000,-0.048415,-0.018659,0.000000
1.860000,-1.035233,-0.921948,-1.180982,2.019482,-0.705698,0.839820,1.247923,2.052703,-0.291774,1.419255,1.095472,-9.774072,1.727125,-39.207426,2.224145,0.199000,-0.122912,0.000000,-0.084576,-0.020245,0.000000
1.870000,-1.014976,-0.928903,-1.172600,2.032033,-0.685123,0.836414,1.262213,2.061707,-0.389333,1.438891,0.706593,-9.732172,1.728316,-38.418481,5.429902,0.197983,-0.123128,0.000000,-0.118463,-0.022202,-0.000000
1.880000,-0.994592,-0.935651,-1.164257,2.044727,-0.664477,0.832035,1.276649,2.066878,-0.486391,1.443926,0.330217,-9.680716,-0.736910,-36.833418,4.826374,0.196638,-0.123360,0.000000,-0.150092,-0.022853,-0.000000
1.890000,-0.974081,-0.942192,-1.155963,2.057565,-0.643797,0.826688,1.291037,2.068359,-0.582927,1.433653,-0.032324,-9.621451,-0.843079,-35.787662,7.734528,0.194989,-0.123590,0.000000,-0.179478,-0.022167,0.000000
1.900000,-0.953440,-0.948527,-1.147727,2.070547,-0.623121,0.820379,1.305329,2.066265,-0.678708,1.423049,-0.384078,-9.532426,-1.749589,-34.415593,9.337467,0.193056,-0.123814,0.000000,-0.206649,-0.021813,-0.000000
1.910000,-0.932669,-0.954655,-1.139558,2.083671,-0.602484,0.813117,1.319482,2.060731,-0.773556,1.406749,-0.720026,-9.435054,-2.505975,-32.934683,10.822740,0.190863,-0.124033,0.000000,-0.231627,-0.021052,0.000000
1.920000,-0.911767,-0.960577,-1.131468,2.096936,-0.581918,0.804912,1.333358,2.051901,-0.867304,1.363791,-1.044094,-9.309824,-5.115540,-31.693463,13.528959,0.188431,-0.124235,0.000000,-0.254490,-0.018226,0.000000
1.930000,-0.890730,-0.966293,-1.123463,2.110337,-0.561456,0.795775,1.346778,2.039911,-0.959739,1.324808,-1.350028,-9.179040,-2.648607,-29.474937,12.591465,0.185780,-0.124406,0.000000,-0.275230,-0.015899,-0.000000
1.940000,-0.869559,-0.971806,-1.115555,2.123871,-0.541129,0.785721,1.359880,2.024965,-1.050878,1.291285,-1.636805,-9.044554,-5.030671,-28.041518,14.976240,0.182933,-0.124561,0.000000,-0.293877,-0.014158,0.000000
1.950000,-0.848252,-0.977116,-1.107752,2.137533,-0.520966,0.774763,1.372503,2.007220,-1.140537,1.232543,-1.909169,-8.885648,-5.741166,-26.248520,16.105718,0.179909,-0.124686,0.000000,-0.310543,-0.010513,-0.000000
1.960000,-0.826808,-0.982226,-1.100063,2.151319,-0.500994,0.762916,1.384532,1.986853,-1.228583,1.172007,-2.161125,-8.722056,-6.485533,-24.380600,17.127892,0.176729,-0.124775,0.000000,-0.325156,-0.006851,0.000000
1.970000,-0.805226,-0.987137,-1.092497,2.165222,-0.481237,0.750197,1.395909,1.964041,-1.314902,1.101760,-2.398886,-8.538509,-7.443098,-22.924509,19.051071,0.173412,-0.124824,0.000000,-0.338085,-0.002648,-0.000000
1.980000,-0.783503,-0.991852,-1.085062,2.179234,-0.461721,0.736624,1.406548,1.938951,-1.399347,1.025679,-2.614449,-8.352154,-7.766897,-20.174543,18.188925,0.169974,-0.124828,0.000000,-0.348984,0.001935,-0.000000
1.990000,-0.761641,-0.996372,-1.077767,2.193350,-0.442465,0.722216,1.416405,1.911830,-1.481946,0.944079,-2.807117,-8.164604,-8.669913,-18.596351,19.826506,0.166439,-0.124783,0.000000,-0.357881,0.006883,0.000000
2.000000,-0.739636,-1.000702,-1.070620,2.207560,-0.423490,0.706992,1.425397,1.882856,-1.562574,0.853345,-2.984247,-7.960330,-9.355217,-16.585575,20.495202,0.162822,-0.124686,0.000000,-0.365242,0.012333,-0.000000
2.010000,-0.717489,-1.004843,-1.063630,2.221855,-0.404813,0.690971,1.433438,1.852205,-1.641139,0.753277,-3.142902,-7.751433,-10.094355,-14.632892,21.127397,0.159139,-0.124531,0.000000,-0.371046,0.018425,-0.000000
2.020000,-0.695199,-1.008799,-1.056803,2.236225,-0.386451,0.674176,1.440484,1.820105,-1.717595,0.656680,-3.272183,-7.539376,-9.766332,-11.718512,21.408579,0.155409,-0.124315,0.000000,-0.374465,0.024087,0.000000
2.030000,-0.672764,-1.012573,-1.050149,2.250661,-0.368415,0.656627,1.446522,1.786804,-1.791903,0.546588,-3.387681,-7.320631,-12.265339,-11.397049,22.330939,0.151653,-0.124040,0.000000,-0.376789,0.030719,-0.000000
2.040000,-0.650185,-1.016169,-1.043673,2.265151,-0.350719,0.638345,1.451365,1.752391,-1.863986,0.422467,-3.490119,-7.095834,-12.005052,-8.591768,22.475048,0.147876,-0.123690,0.000000,-0.378118,0.038357,-0.000000
2.050000,-0.627461,-1.019589,-1.037384,2.279684,-0.333370,0.619354,1.454993,1.717106,-1.933820,0.301910,-3.563809,-6.870215,-12.649568,-6.647795,22.774628,0.144098,-0.123266,0.000000,-0.377275,0.045587,-0.000000
2.060000,-0.604592,-1.022837,-1.031288,2.294247,-0.316379,0.599676,1.457411,1.681163,-2.001475,0.181860,-3.621725,-6.663179,-13.043091,-4.715240,22.552711,0.140333,-0.122769,0.000000,-0.375584,0.052873,-0.000000
2.070000,-0.581576,-1.025917,-1.025393,2.308828,-0.299749,0.579333,1.458481,1.644754,-2.066772,0.025613,-3.656131,-6.383196,-16.565263,-2.387859,29.620142,0.136596,-0.122189,0.000000,-0.371340,0.062309,-0.000000
2.080000,-0.558415,-1.028833,-1.019704,2.323412,-0.283484,0.558350,1.457988,1.608093,-2.129326,-0.115000,-3.674146,-6.151019,-11.503073,-1.227267,16.690662,0.132907,-0.121515,0.000000,-0.366624,0.070849,0.000000
2.090000,-0.535108,-1.031588,-1.014228,2.337984,-0.267587,0.536752,1.456254,1.571322,-2.190001,-0.237515,-3.676393,-5.972280,-14.650453,0.991183,22.906734,0.129265,-0.120764,0.000000,-0.361475,0.078367,0.000000
2.100000,-0.511655,-1.034186,-1.008971,2.352532,-0.252058,0.514558,1.453095,1.534644,-2.248478,-0.393943,-3.656318,-5.725587,-14.986548,2.797766,22.594687,0.125687,-0.119926,0.000000,-0.354031,0.087901,0.000000
2.110000,-0.488058,-1.036631,-1.003939,2.367040,-0.236893,0.491791,1.448342,1.498246,-2.304459,-0.559201,-3.620257,-5.466502,-15.686392,4.556959,23.213297,0.122188,-0.118990,0.000000,-0.345478,0.097961,0.000000
2.120000,-0.464315,-1.038925,-0.999137,2.381494,-0.222091,0.468476,1.442081,1.462309,-2.358276,-0.685772,-3.563959,-5.316568,-11.933436,6.548112,12.610557,0.118777,-0.117961,0.000000,-0.336692,0.105888,0.000000
2.130000,-0.440428,-1.041074,-0.994571,2.395878,-0.207645,0.444630,1.434496,1.427017,-2.410498,-0.846272,-3.492538,-5.091746,-20.236095,7.722209,32.538046,0.115460,-0.116850,0.000000,-0.326193,0.115777,0.000000
2.140000,-0.416398,-1.043079,-0.990246,2.410177,-0.193548,0.420276,1.425014,1.392504,-2.459787,-1.043758,-3.406757,-4.783816,-16.928076,9.571345,23.157981,0.112259,-0.115622,0.000000,-0.314078,0.127804,-0.000000
2.150000,-0.392225,-1.044946,-0.986167,2.424372,-0.179792,0.395442,1.413784,1.358945,-2.506619,-1.204528,-3.302571,-4.578593,-17.542728,11.108146,23.755960,0.109179,-0.114286,0.000000,-0.301768,0.137816,-0.000000
2.160000,-0.367911,-1.046676,-0.982339,2.438447,-0.166366,0.370151,1.400861,1.326496,-2.551238,-1.380556,-3.184872,-4.345536,-17.942863,12.570978,23.847773,0.106227,-0.112845,0.000000,-0.288409,0.148759,-0.000000
2.170000,-0.343456,-1.048274,-0.978765,2.452384,-0.153258,0.344426,1.386137,1.295308,-2.593446,-1.565883,-3.050001,-4.092565,-18.837496,14.244914,25.773732,0.103415,-0.111292,0.000000,-0.273805,0.160247,-0.000000
2.180000,-0.318863,-1.049743,-0.975451,2.466164,-0.140455,0.318291,1.369545,1.265535,-2.633133,-1.751315,-2.903289,-3.850486,-18.232023,15.080276,22.605657,0.100753,-0.109623,0.000000,-0.258642,0.171836,0.000000
2.190000,-0.294134,-1.051084,-0.972401,2.479768,-0.127942,0.291771,1.351115,1.237277,-2.670506,-1.935973,-2.745699,-3.621020,-18.971105,16.572063,24.256745,0.098244,-0.107838,0.000000,-0.242989,0.183479,-0.000000
2.200000,-0.269269,-1.052302,-0.969617,2.493180,-0.115704,0.264889,1.330796,1.210672,-2.705477,-2.128166,-2.573372,-3.373791,-19.177691,17.732278,24.207751,0.095897,-0.105934,0.000000,-0.226289,0.195582,-0.000000
2.210000,-0.244271,-1.053399,-0.967104,2.506378,-0.103723,0.237669,1.308606,1.185830,-2.738137,-2.308494,-2.393790,-3.162014,-19.096699,18.753047,23.575581,0.093717,-0.103911,0.000000,-0.209535,0.207076,-0.000000
2.220000,-0.219142,-1.054378,-0.964865,2.519345,-0.091981,0.210134,1.284449,1.162877,-2.768297,-2.530322,-2.193234,-2.852381,-23.107043,20.778150,33.075370,0.091715,-0.101764,0.000000,-0.190624,0.221074,0.000000
2.230000,-0.193885,-1.055240,-0.962902,2.532060,-0.080458,0.182313,1.258105,1.141968,-2.795451,-2.725264,-1.990394,-2.611242,-15.805910,19.757642,14.987894,0.089902,-0.099477,0.000000,-0.172282,0.233589,0.000000
2.240000,-0.168502,-1.055987,-0.961220,2.544502,-0.069135,0.154231,1.230062,1.123066,-2.820816,-2.889837,-1.786928,-2.445904,-19.275044,21.492102,23.407399,0.088266,-0.097080,0.000000,-0.154619,0.244369,0.000000
2.250000,-0.142996,-1.056623,-0.959819,2.556654,-0.057990,0.125904,1.200144,1.106299,-2.843969,-3.092182,-1.565691,-2.188165,-19.021516,22.170988,22.843117,0.086818,-0.094560,0.000000,-0.135072,0.257467,-0.000000
2.260000,-0.117369,-1.057148,-0.958702,2.568498,-0.047001,0.097360,1.168248,1.091758,-2.864561,-3.287562,-1.341685,-1.926253,-18.992195,22.780363,23.365075,0.085565,-0.091913,0.000000,-0.115453,0.270096,-0.000000
2.270000,-0.091627,-1.057563,-0.957872,2.580013,-0.036147,0.068621,1.134481,1.079498,-2.882978,-3.462204,-1.108859,-1.777549,-16.957837,23.610419,12.387840,0.084507,-0.089142,0.000000,-0.096044,0.282011,-0.000000
2.280000,-0.065770,-1.057871,-0.957330,2.591182,-0.025404,0.039705,1.098959,1.069589,-2.899812,-3.648176,-0.873121,-1.552282,-20.264285,23.517740,32.862892,0.083646,-0.086251,0.000000,-0.076005,0.294355,-0.000000
2.290000,-0.039804,-1.058072,-0.957079,2.601986,-0.014747,0.010635,1.061467,1.062040,-2.913691,-3.846648,-0.635561,-1.241529,-18.390133,24.141248,23.236600,0.082989,-0.083232,0.000000,-0.055372,0.307255,0.000000
2.300000,-0.013732,-1.058166,-0.957118,2.612405,-0.004155,-0.018561,1.022112,1.056901,-2.925099,-4.024694,-0.391955,-1.035956,-18.247551,24.404909,23.923904,0.082537,-0.080088,0.000000,-0.035041,0.319405,-0.000000
2.310000,0.012443,-1.058155,-0.957450,2.622422,0.006399,-0.047860,0.980929,1.054206,-2.934312,-4.212396,-0.146596,-0.807576,-18.140425,24.599004,24.006647,0.082290,-0.076818,0.000000,-0.014480,0.332305,-0.000000
2.320000,0.038715,-1.058038,-0.958076,2.632018,0.016938,-0.077239,0.937961,1.053969,-2.941065,-4.376843,0.099247,-0.535031,-15.857544,24.607308,28.323843,0.082249,-0.073427,0.000000,0.006349,0.343311,-0.000000
2.330000,0.065081,-1.057816,-0.958995,2.641176,0.027486,-0.106672,0.893345,1.056196,-2.945110,-4.552822,0.346356,-0.286842,-19.367099,24.801972,21.250613,0.082416,-0.069924,0.000000,0.027109,0.355555,0.000000
2.340000,0.091537,-1.057488,-0.960209,2.649878,0.038070,-0.136134,0.846854,1.060899,-2.946909,-4.741522,0.593950,-0.065746,-17.241320,24.650030,25.178348,0.082790,-0.066287,0.000000,0.047741,0.369124,-0.000000
2.350000,0.118077,-1.057055,-0.961718,2.658107,0.048713,-0.165602,0.798611,1.068067,-2.946244,-4.907051,0.839517,0.198124,-16.977640,24.501611,25.404812,0.083372,-0.062524,0.000000,0.068503,0.380880,-0.000000
2.360000,0.144698,-1.056514,-0.963521,2.665845,0.059439,-0.195050,0.748745,1.077729,-2.942955,-5.064197,1.093834,0.461134,-16.379484,24.470351,25.949402,0.084164,-0.058644,0.000000,0.089983,0.392227,-0.000000
2.370000,0.171393,-1.055865,-0.965619,2.673076,0.070275,-0.224452,0.697191,1.089789,-2.937104,-5.252296,1.311350,0.705701,-19.354120,20.836992,24.187056,0.085159,-0.054640,0.000000,0.108560,0.406313,0.000000
2.380000,0.198157,-1.055108,-0.968010,2.679783,0.081242,-0.253784,0.643809,1.104035,-2.928765,-5.411694,1.548455,0.970544,-12.459912,26.623170,28.825382,0.086342,-0.050496,0.000000,0.128866,0.418334,-0.000000
2.390000,0.224986,-1.054240,-0.970694,2.685948,0.092365,-0.283018,0.589078,1.120842,-2.917609,-5.539368,1.806610,1.257695,-14.965566,23.150180,27.381165,0.087744,-0.046250,0.000000,0.151066,0.428077,0.000000
2.400000,0.251874,-1.053260,-0.973670,2.691559,0.103667,-0.312127,0.532896,1.140008,-2.903686,-5.694791,2.026658,1.528694,-14.223413,22.670199,28.047800,0.089351,-0.041891,0.000000,0.170333,0.440346,0.000000
2.410000,0.278816,-1.052166,-0.976936,2.696601,0.115172,-0.341083,0.475262,1.161320,-2.886930,-5.830494,2.232421,1.825144,-13.510379,21.595174,28.914345,0.091147,-0.037414,0.000000,0.188812,0.451308,0.000000
2.420000,0.305805,-1.050956,-0.980491,2.701060,0.126901,-0.369856,0.416262,1.184873,-2.867343,-5.970433,2.486967,2.085556,-13.895866,26.251134,25.430331,0.093143,-0.032823,0.000000,0.211021,0.463034,-0.000000
2.430000,0.332835,-1.049627,-0.984332,2.704922,0.138878,-0.398421,0.355905,1.210876,-2.845085,-6.096216,2.693162,2.381230,-11.241695,14.872402,33.772949,0.095355,-0.028116,0.000000,0.229903,0.473890,0.000000
2.440000,0.359901,-1.048177,-0.988458,2.708174,0.151124,-0.426747,0.294392,1.238533,-2.819573,-6.206979,2.845550,2.715176,-11.496254,18.656691,30.727331,0.097727,-0.023306,0.000000,0.245080,0.483869,0.000000
2.450000,0.386996,-1.046604,-0.992866,2.710806,0.163654,-0.454802,0.231744,1.267980,-2.790935,-6.321198,3.039848,3.015042,-10.766248,17.123869,31.514846,0.100271,-0.018389,0.000000,0.263524,0.494580,-0.000000
2.460000,0.414115,-1.044903,-0.997554,2.712805,0.176489,-0.482555,0.167914,1.299152,-2.759302,-6.446172,3.190448,3.309521,-10.498344,15.417028,31.633051,0.102984,-0.013358,0.000000,0.278744,0.506544,0.000000
2.470000,0.441250,-1.043073,-1.002516,2.714161,0.189643,-0.509977,0.103132,1.331929,-2.724395,-6.496855,3.370323,3.686726,-3.259527,18.181950,39.664800,0.105861,-0.008228,0.000000,0.297226,0.512979,0.000000
2.480000,0.468396,-1.041109,-1.007752,2.714866,0.203133,-0.537031,0.037817,1.366388,-2.685758,-6.587382,3.504240,4.015842,-14.957806,8.518205,26.021345,0.108915,-0.003026,0.000000,0.312018,0.523074,-0.000000
2.490000,0.495545,-1.039009,-1.013256,2.714913,0.216974,-0.563683,-0.028793,1.401829,-2.644292,-6.722713,3.588354,4.290649,-8.449552,10.684992,33.107323,0.112086,0.002312,0.000000,0.322670,0.537192,-0.000000
2.500000,0.522692,-1.036769,-1.019024,2.714287,0.231173,-0.589906,-0.096337,1.438281,-2.599616,-6.787329,3.697588,4.642421,-8.112325,8.780773,33.081250,0.115382,0.007763,0.000000,0.336298,0.546156,-0.000000
2.510000,0.549829,-1.034384,-1.025052,2.712984,0.245743,-0.615664,-0.164551,1.475935,-2.551531,-6.852835,3.838029,4.975054,-7.252509,8.238829,33.309633,0.118824,0.013311,0.000000,0.352588,0.555680,0.000000
2.520000,0.576949,-1.031853,-1.031336,2.710994,0.260694,-0.640925,-0.233549,1.514123,-2.500118,-6.953126,3.760452,5.307337,-10.595242,-13.026362,33.272560,0.122362,0.018970,0.000000,0.351785,0.568521,-0.000000
2.530000,0.604047,-1.029169,-1.037869,2.708309,0.276023,-0.665655,-0.303481,1.551623,-2.445371,-7.018333,3.802706,5.643156,-2.369862,21.798837,33.893647,0.125899,0.024758,0.000000,0.360864,0.579099,-0.000000
2.540000,0.631113,-1.026331,-1.044647,2.704923,0.291733,-0.689821,-0.373770,1.590709,-2.387242,-7.044949,3.978884,5.982595,-5.170439,2.577051,33.864011,0.129623,0.030634,0.000000,0.381154,0.587093,0.000000
2.550000,0.658143,-1.023333,-1.051663,2.700832,0.307838,-0.713389,-0.444522,1.630314,-2.325723,-7.102714,3.945807,6.321533,-4.157785,1.584238,34.053106,0.133452,0.036613,0.000000,0.384947,0.598177,-0.000000
2.560000,0.685128,-1.020173,-1.058913,2.696031,0.324338,-0.736324,-0.515792,1.669455,-2.260532,-7.151254,3.868838,6.724679,-3.473340,-1.945351,35.458499,0.137313,0.042706,0.000000,0.386204,0.609349,0.000000
2.570000,0.712061,-1.016845,-1.066388,2.690515,0.341227,-0.758588,-0.587356,1.708794,-2.192086,-7.152980,4.044918,6.928319,1.129056,22.520978,16.042867,0.141257,0.048899,0.000000,0.406157,0.616534,0.000000
2.580000,0.738935,-1.013347,-1.074082,2.684284,0.358519,-0.780159,-0.658920,1.749549,-2.121421,-7.170640,4.011939,7.271674,-4.713542,-29.593448,52.946753,0.145378,0.055170,0.000000,0.411042,0.626041,-0.000000
2.590000,0.765744,-1.009674,-1.081988,2.677336,0.376210,-0.801000,-0.730845,1.788149,-2.046056,-7.206402,3.748391,7.768632,-0.399458,-8.373742,35.530377,0.149414,0.061565,0.000000,0.399160,0.638567,-0.000000
2.600000,0.792480,-1.005821,-1.090099,2.669667,0.394279,-0.821067,-0.802857,1.825554,-1.966876,-7.195581,3.718991,8.074089,0.557053,-12.219354,36.376462,0.153437,0.068067,0.000000,0.404507,0.646996,0.000000
2.610000,0.819135,-1.001787,-1.098407,2.661279,0.412718,-0.840327,-0.874665,1.862127,-1.884632,-7.161093,3.591933,8.365531,2.190724,-14.933275,34.849183,0.157471,0.074653,0.000000,0.401877,0.653945,0.000000
2.620000,0.845703,-0.997566,-1.106903,2.652174,0.431516,-0.858748,-0.946362,1.897161,-1.798566,-7.189801,3.404405,8.889642,-3.878636,-20.870226,57.337483,0.161469,0.081343,0.000000,0.397493,0.668471,0.000000
2.630000,0.872176,-0.993155,-1.115579,2.642351,0.450655,-0.876281,-1.018215,1.930206,-1.707488,-7.153581,3.210309,9.247032,11.260626,-17.881459,13.706968,0.165413,0.088177,0.000000,0.390658,0.677344,0.000000
2.640000,0.898548,-0.988552,-1.124426,2.631813,0.470114,-0.892891,-1.089164,1.961370,-1.614347,-7.046120,3.012875,9.417789,6.161838,-23.294456,33.121761,0.169273,0.095050,0.000000,0.381065,0.679244,0.000000
2.650000,0.924810,-0.983752,-1.133434,2.620570,0.489874,-0.908558,-1.159398,1.990246,-1.518203,-6.995534,2.759380,9.800790,8.028988,-25.676001,30.770476,0.173029,0.101991,0.000000,0.369737,0.688326,-0.000000
2.660000,0.950957,-0.978753,-1.142594,2.608628,0.509911,-0.923245,-1.228879,2.016793,-1.418760,-6.896704,2.554061,10.082763,9.875713,-26.751673,28.701946,0.176682,0.109007,0.000000,0.361159,0.693078,-0.000000
2.670000,0.976980,-0.973553,-1.151895,2.595996,0.530201,-0.936923,-1.297422,2.040369,-1.316367,-6.815156,2.120055,10.402888,8.245967,-48.977618,32.287856,0.180172,0.116084,0.000000,0.333383,0.700346,0.000000
2.680000,1.002874,-0.968149,-1.161329,2.582682,0.550704,-0.949562,-1.365036,2.059679,-1.210918,-6.693770,1.806921,10.664863,16.085034,-13.285501,19.995377,0.183387,0.123231,0.000000,0.314903,0.704229,-0.000000
2.690000,1.028632,-0.962538,-1.170883,2.568700,0.571389,-0.961134,-1.431142,2.077052,-1.103305,-6.530196,1.631119,10.863445,14.794534,-33.017418,22.750247,0.186514,0.130393,0.000000,0.307360,0.704157,-0.000000
2.700000,1.054246,-0.956720,-1.180548,2.554065,0.592234,-0.971620,-1.495725,2.091394,-0.993490,-6.382516,1.241513,11.093855,16.554544,-33.775731,20.293294,0.189456,0.137574,0.000000,0.281305,0.706299,-0.000000
2.710000,1.079711,-0.950693,-1.190312,2.538791,0.613204,-0.980997,-1.558821,2.101844,-0.881324,-6.237700,0.838786,11.342699,17.559026,-36.361431,19.141969,0.192137,0.144782,0.000000,0.253913,0.709457,0.000000
2.720000,1.105020,-0.944456,-1.200164,2.522894,0.634260,-0.989241,-1.620027,2.108930,-0.767514,-5.984081,0.610122,11.381553,28.144367,-19.456809,-1.356724,0.194587,0.151977,0.000000,0.238277,0.700321,-0.000000
2.730000,1.130167,-0.938008,-1.210093,2.506399,0.655375,-0.996346,-1.678706,2.113493,-0.653268,-5.780208,0.237911,11.525813,12.462560,-55.289216,30.511902,0.196858,0.159082,0.000000,0.211006,0.697132,-0.000000
2.740000,1.155146,-0.931348,-1.220087,2.489325,0.676512,-1.002297,-1.735862,2.113085,-0.536523,-5.633712,-0.291180,11.788808,21.883390,-40.322244,11.955298,0.198757,0.166224,0.000000,0.170637,0.701436,-0.000000
2.750000,1.179951,-0.924478,-1.230135,2.471689,0.697622,-1.007072,-1.790953,2.108399,-0.418339,-5.385668,-0.654694,11.850510,22.675902,-42.517144,10.452251,0.200321,0.173340,0.000000,0.141215,0.693561,-0.000000
2.760000,1.204578,-0.917396,-1.240224,2.453514,0.718667,-1.010662,-1.843605,2.099790,-0.299525,-5.141453,-1.066953,11.903410,23.983238,-43.518786,7.378268,0.201560,0.180381,0.000000,0.106244,0.685846,0.000000
2.770000,1.229020,-0.910105,-1.250344,2.434824,0.739604,-1.013060,-1.893916,2.086736,-0.179785,-4.926186,-1.557742,12.064565,21.173360,-51.108531,17.778147,0.202421,0.187362,0.000000,0.064801,0.682798,0.000000
2.780000,1.253273,-0.902605,-1.260482,2.415643,0.760385,-1.014252,-1.941990,2.068773,-0.058670,-4.673826,-2.015008,12.110470,29.355498,-40.205931,-8.835017,0.202857,0.194301,0.000000,0.023223,0.674313,-0.000000
2.790000,1.277331,-0.894898,-1.270625,2.395994,0.780965,-1.014235,-1.987245,2.046597,0.061949,-4.381986,-2.432126,12.030277,26.870529,-46.723495,-0.095255,0.202888,0.201105,0.000000,-0.018055,0.659331,0.000000
2.800000,1.301191,-0.886986,-1.280762,2.375907,0.801302,-1.013014,-2.029761,2.019837,0.182385,-4.118527,-2.918829,12.047824,27.935172,-47.061013,-3.507201,0.202471,0.207784,0.000000,-0.065655,0.648649,-0.000000
2.810000,1.324848,-0.878873,-1.290881,2.355408,0.821346,-1.010588,-2.069540,1.988308,0.302645,-3.835906,-3.386959,11.999264,28.771162,-47.345289,-6.490447,0.201573,0.214334,0.000000,-0.114219,0.634407,0.000000
2.820000,1.348298,-0.870560,-1.300970,2.334526,0.841052,-1.006963,-2.106437,1.952025,0.422248,-3.541571,-3.872568,11.915330,29.893710,-48.956361,-10.031592,0.200171,0.220726,0.000000,-0.166818,0.617729,-0.000000
2.830000,1.371537,-0.862053,-1.311017,2.313289,0.860370,-1.002147,-2.140356,1.910894,0.540863,-3.242267,-4.348892,11.804221,29.947098,-46.251041,-12.184452,0.198233,0.226935,0.000000,-0.220786,0.599294,-0.000000
2.840000,1.394563,-0.853354,-1.321009,2.291729,0.879254,-0.996150,-2.171271,1.865095,0.658244,-2.939100,-4.812869,11.666153,30.862156,-47.306649,-15.701763,0.195753,0.232945,0.000000,-0.275847,0.579082,-0.000000
2.850000,1.417371,-0.844469,-1.330936,2.269874,0.897657,-0.988987,-2.199105,1.814586,0.774063,-2.626944,-5.287599,11.492519,31.363290,-46.812827,-18.751343,0.192702,0.238732,0.000000,-0.334579,0.556205,0.000000
2.860000,1.439959,-0.835403,-1.340785,2.247757,0.915530,-0.980675,-2.223810,1.759407,0.887995,-2.313784,-5.746494,11.288762,31.728599,-46.044705,-21.817656,0.189059,0.244273,0.000000,-0.394230,0.531447,-0.000000
2.870000,1.462325,-0.826161,-1.350545,2.225409,0.932829,-0.971234,-2.245331,1.699595,0.999751,-1.988319,-6.218055,11.057920,32.885896,-47.155215,-24.516097,0.184803,0.249542,0.000000,-0.457699,0.503559,-0.000000
2.880000,1.484467,-0.816748,-1.360206,2.202861,0.949507,-0.960688,-2.263591,1.635131,1.109045,-1.666097,-6.666283,10.794987,31.527158,-42.423908,-28.066104,0.179905,0.254513,0.000000,-0.521376,0.473877,-0.000000
2.890000,1.506382,-0.807173,-1.369756,2.180147,0.965518,-0.949063,-2.278673,1.566367,1.215543,-1.348775,-7.087709,10.500309,32.386272,-42.918179,-30.682921,0.174377,0.259170,0.000000,-0.584747,0.442467,0.000000
2.900000,1.528069,-0.797440,-1.379184,2.157299,0.980820,-0.936387,-2.290529,1.493339,1.318969,-1.022680,-7.514755,10.180123,32.350365,-41.373503,-33.512949,0.168199,0.263487,0.000000,-0.651077,0.407916,-0.000000
2.910000,1.549528,-0.787559,-1.388480,2.134347,0.995371,-0.922694,-2.299154,1.416178,1.419056,-0.702968,-7.913961,9.832987,32.172457,-39.584489,-36.202126,0.161360,0.267440,0.000000,-0.716685,0.371705,0.000000
2.920000,1.570756,-0.777536,-1.397634,2.111326,1.009130,-0.908018,-2.304548,1.335030,1.515516,-0.374078,-8.316415,9.453615,33.007551,-39.762815,-39.354096,0.153854,0.271006,0.000000,-0.784893,0.331876,0.000000
2.930000,1.591754,-0.767379,-1.406637,2.088267,1.022058,-0.892397,-2.306674,1.249970,1.608059,-0.055354,-8.685248,9.052590,30.701783,-33.941157,-40.819488,0.145669,0.274154,0.000000,-0.851261,0.290793,0.000000
2.940000,1.612521,-0.757097,-1.415479,2.065203,1.034118,-0.875871,-2.305699,1.161456,1.696504,0.251354,-9.017240,8.631653,31.208661,-33.555911,-43.644946,0.136838,0.276881,0.000000,-0.915040,0.248726,0.000000
2.950000,1.633058,-0.746700,-1.424152,2.042164,1.045276,-0.858482,-2.301619,1.069615,1.780593,0.563501,-9.346304,8.182759,30.619574,-31.110584,-45.806541,0.127362,0.279163,0.000000,-0.979905,0.203431,0.000000
2.960000,1.653365,-0.736195,-1.432646,2.019181,1.055500,-0.840274,-2.294476,0.974660,1.860118,0.863496,-9.639858,7.719499,29.907089,-28.493239,-47.721272,0.117252,0.280982,0.000000,-1.041581,0.157350,0.000000
2.970000,1.673442,-0.725593,-1.440955,1.996284,1.064760,-0.821295,-2.284330,0.876833,1.934849,1.166325,-9.924163,7.220602,30.114821,-27.458681,-51.150490,0.106529,0.282320,0.000000,-1.103011,0.108094,-0.000000
2.980000,1.693291,-0.714903,-1.449070,1.973504,1.073028,-0.801594,-2.271203,0.776312,2.004516,1.454394,-10.169989,6.715532,27.467252,-21.660518,-49.804218,0.095208,0.283157,0.000000,-1.159944,0.058750,-0.000000
2.990000,1.712913,-0.704136,-1.456984,1.950869,1.080279,-0.781222,-2.255301,0.673577,2.069156,1.726052,-10.375007,6.207418,27.382732,-20.224325,-52.671324,0.083349,0.283503,0.000000,-1.211582,0.009788,0.000000
3.000000,1.732309,-0.693301,-1.464692,1.928407,1.086492,-0.760229,-2.236674,0.568841,2.128552,1.997237,-10.566565,5.670305,26.308926,-17.179391,-53.833013,0.070982,0.283344,0.000000,-1.261024,-0.041438,-0.000000
3.010000,1.751482,-0.682409,-1.472187,1.906145,1.091650,-0.738668,-2.215416,0.462379,2.182577,2.252140,-10.720501,5.133877,25.135463,-14.066455,-54.698131,0.058149,0.282676,0.000000,-1.304579,-0.091852,0.000000
3.020000,1.770433,-0.671472,-1.479464,1.884107,1.095735,-0.716595,-2.191633,0.354498,2.231101,2.504083,-10.852024,4.565274,24.778540,-11.774306,-57.743403,0.044903,0.281497,0.000000,-1.343863,-0.144012,0.000000
3.030000,1.789164,-0.660498,-1.486517,1.862320,1.098736,-0.694066,-2.165399,0.245466,2.273922,2.737768,-10.946284,4.005835,21.933014,-7.058097,-54.068882,0.031295,0.279800,0.000000,-1.376291,-0.194399,-0.000000
3.040000,1.807680,-0.649500,-1.493344,1.840807,1.100642,-0.671135,-2.136947,0.135703,2.311271,2.951894,-11.002320,3.459486,21.349482,-4.606189,-56.418884,0.017402,0.277616,0.000000,-1.401391,-0.242452,-0.000000
3.050000,1.825982,-0.638489,-1.499939,1.819588,1.101448,-0.647859,-2.106371,0.025491,2.343009,3.160607,-11.034476,2.888850,19.918534,-1.366439,-56.419460,0.003286,0.274947,0.000000,-1.420706,-0.290984,0.000000
3.060000,1.844073,-0.627475,-1.506300,1.798686,1.101152,-0.624294,-2.073811,-0.084873,2.369111,3.348457,-11.033068,2.332599,18.386847,1.816740,-56.129379,-0.010987,0.271807,0.000000,-1.432628,-0.336480,0.000000
3.070000,1.861956,-0.616470,-1.512424,1.778118,1.099752,-0.600495,-2.039393,-0.195051,2.389566,3.535045,-10.996646,1.754709,18.204650,5.296073,-58.116729,-0.025340,0.268213,0.000000,-1.436691,-0.382388,-0.000000
3.080000,1.879636,-0.605484,-1.518309,1.757904,1.097252,-0.576522,-2.003196,-0.304709,2.404286,3.697326,-10.930771,1.198188,14.224998,7.865701,-53.111296,-0.039697,0.264172,0.000000,-1.433513,-0.424101,-0.000000
3.090000,1.897116,-0.594528,-1.523954,1.738059,1.093660,-0.552428,-1.965538,-0.413572,2.413624,3.834058,-10.836152,0.666972,13.846595,11.215495,-54.405242,-0.053987,0.259740,0.000000,-1.423268,-0.461122,0.000000
3.100000,1.914399,-0.583614,-1.529358,1.718598,1.088985,-0.528267,-1.926512,-0.521318,2.417556,3.968057,-10.708124,0.121880,12.227279,14.209809,-53.275747,-0.068135,0.254935,0.000000,-1.405155,-0.497455,0.000000
3.110000,1.931489,-0.572752,-1.534519,1.699533,1.083238,-0.504094,-1.886220,-0.627658,2.416168,4.088461,-10.555587,-0.396242,10.775534,17.045010,-51.860440,-0.082070,0.249780,0.000000,-1.380731,-0.530214,-0.000000
3.120000,1.948391,-0.561953,-1.539440,1.680877,1.076437,-0.479961,-1.844878,-0.732274,2.409556,4.173669,-10.360533,-0.928909,7.314860,21.208395,-53.144611,-0.095718,0.244313,0.000000,-1.347356,-0.557872,0.000000
3.130000,1.965108,-0.551227,-1.544119,1.662638,1.068600,-0.455921,-1.802746,-0.834813,2.397716,4.256789,-10.147326,-1.427095,9.344586,21.390547,-46.417440,-0.109002,0.238578,0.000000,-1.309072,-0.582946,0.000000
3.140000,1.981645,-0.540584,-1.548558,1.644825,1.059748,-0.432022,-1.759736,-0.935174,2.381154,4.339442,-9.918154,-1.887023,6.132547,25.169842,-47.054790,-0.121887,0.232592,0.000000,-1.266716,-0.605546,0.000000
3.150000,1.998006,-0.530035,-1.552760,1.627446,1.049905,-0.408313,-1.716087,-1.033036,2.359923,4.388493,-9.650717,-2.354850,4.735465,27.549663,-44.979048,-0.134309,0.226396,0.000000,-1.216962,-0.622853,-0.000000
3.160000,2.014195,-0.519589,-1.556725,1.610505,1.039096,-0.384839,-1.671980,-1.128150,2.334165,4.430824,-9.369032,-2.793076,3.341873,29.727860,-42.842515,-0.146217,0.220030,0.000000,-1.163974,-0.637159,-0.000000
3.170000,2.030217,-0.509256,-1.560458,1.594007,1.027352,-0.361644,-1.627549,-1.220268,2.304119,4.451821,-9.047778,-3.213103,1.243629,33.560587,-40.953257,-0.157566,0.213531,0.000000,-1.104718,-0.647015,-0.000000
3.180000,2.046077,-0.499045,-1.563959,1.577954,1.014702,-0.338770,-1.582971,-1.309084,2.269989,4.463799,-8.718010,-3.607781,1.169457,32.336986,-37.959809,-0.168307,0.206937,0.000000,-1.043787,-0.653865,0.000000
3.190000,2.061778,-0.488965,-1.567234,1.562348,1.001181,-0.316257,-1.538297,-1.394617,2.232054,4.467624,-8.382635,-3.975849,-0.782888,35.655829,-35.831929,-0.178439,0.200275,0.000000,-0.981984,-0.657898,0.000000
3.200000,2.077325,-0.479025,-1.570286,1.547188,0.986822,-0.294141,-1.493691,-1.476608,2.190540,4.451531,-8.013491,-4.322522,-2.045996,37.201873,-33.298954,-0.187930,0.193582,0.000000,-0.916022,-0.657915,-0.000000
3.210000,2.092723,-0.469232,-1.573118,1.532473,0.971661,-0.272457,-1.449315,-1.554891,2.145695,4.421190,-7.641653,-4.642236,-3.365083,38.485006,-30.705998,-0.196762,0.186893,0.000000,-0.850315,-0.654642,-0.000000
3.220000,2.107976,-0.459594,-1.575737,1.518201,0.955737,-0.251238,-1.405258,-1.629292,2.097777,4.390360,-7.231968,-4.937134,-3.423589,42.114448,-28.196938,-0.204921,0.180234,0.000000,-0.780895,-0.649988,0.000000
3.230000,2.123089,-0.450119,-1.578145,1.504367,0.939089,-0.230511,-1.361579,-1.699557,2.047044,4.339646,-6.827419,-5.204597,-6.729929,38.725249,-25.288768,-0.212388,0.173628,0.000000,-0.713346,-0.641668,0.000000
3.240000,2.138065,-0.440814,-1.580349,1.490967,0.921759,-0.210305,-1.318538,-1.765879,1.993778,4.268709,-6.431575,-5.444244,-6.810734,41.735555,-22.708566,-0.219198,0.167119,0.000000,-0.648290,-0.629832,0.000000
3.250000,2.152910,-0.431686,-1.582353,1.477994,0.903785,-0.190643,-1.276192,-1.828062,1.938244,4.198236,-6.004503,-5.658146,-7.907705,42.333391,-20.002290,-0.225344,0.160724,0.000000,-0.581178,-0.617209,-0.000000
3.260000,2.167626,-0.422741,-1.584163,1.465441,0.885212,-0.171547,-1.234595,-1.886007,1.880705,4.120374,-5.584522,-5.845070,-8.771746,42.724526,-17.315803,-0.230832,0.154460,0.000000,-0.516781,-0.602969,0.000000
3.270000,2.182220,-0.413984,-1.585786,1.453299,0.866080,-0.153035,-1.193903,-1.939653,1.821437,4.012744,-5.140538,-6.003900,-11.656751,44.988075,-14.521900,-0.235674,0.148354,0.000000,-0.451483,-0.584586,-0.000000
3.280000,2.196694,-0.405421,-1.587226,1.441559,0.846433,-0.135123,-1.154315,-1.988862,1.760712,3.910269,-4.707489,-6.137033,-8.792359,41.562516,-12.114086,-0.239874,0.142435,0.000000,-0.389581,-0.566439,0.000000
3.290000,2.211052,-0.397057,-1.588490,1.430210,0.826316,-0.117825,-1.115665,-2.033858,1.698780,3.815177,-4.288407,-6.244991,-11.310011,43.296412,-9.419292,-0.243479,0.136688,0.000000,-0.331390,-0.548876,0.000000
3.300000,2.225299,-0.388896,-1.589585,1.419242,0.805771,-0.101151,-1.078118,-2.074551,1.635903,3.693614,-3.851110,-6.326215,-11.898193,43.075229,-6.903692,-0.246500,0.131138,0.000000,-0.273133,-0.528016,-0.000000
3.310000,2.239438,-0.380943,-1.590515,1.408643,0.784840,-0.085109,-1.041774,-2.110921,1.572304,3.574772,-3.423622,-6.390328,-12.423258,42.745810,-4.606625,-0.248953,0.125796,0.000000,-0.217862,-0.507537,-0.000000
3.320000,2.253473,-0.373200,-1.591289,1.398402,0.763566,-0.069706,-1.006685,-2.143009,1.508279,3.440181,-2.993446,-6.406437,-13.935865,42.933101,0.083629,-0.250865,0.120673,0.000000,-0.164927,-0.484941,-0.000000
3.330000,2.267408,-0.365672,-1.591912,1.388505,0.741994,-0.054943,-0.972959,-2.170823,1.444188,3.307775,-2.572408,-6.415977,-12.517681,41.244508,-2.048130,-0.252259,0.115782,0.000000,-0.114483,-0.462988,0.000000
3.340000,2.281244,-0.358361,-1.592390,1.378939,0.720164,-0.040823,-0.940513,-2.194495,1.379962,3.178955,-2.162147,-6.421711,-13.788990,41.128144,2.182766,-0.253163,0.111107,0.000000,-0.066541,-0.441858,0.000000
3.350000,2.294987,-0.351270,-1.592730,1.369690,0.698118,-0.027344,-0.909433,-2.214064,1.315922,3.036888,-1.753070,-6.383711,-14.063264,40.333086,4.104440,-0.253598,0.106660,0.000000,-0.021033,-0.419182,-0.000000
3.360000,2.308639,-0.344400,-1.592939,1.360746,0.675896,-0.014503,-0.879772,-2.229592,1.252300,2.894973,-1.354071,-6.338252,-14.315671,39.462557,5.894098,-0.253591,0.102445,0.000000,0.022142,-0.396981,0.000000
3.370000,2.322203,-0.337752,-1.593022,1.352090,0.653539,-0.002296,-0.851542,-2.241175,1.189290,2.750704,-0.964008,-6.257698,-14.524447,38.525489,9.298941,-0.253166,0.098459,0.000000,0.062447,-0.374671,-0.000000
3.380000,2.335682,-0.331329,-1.592987,1.343710,0.631085,0.009286,-0.824763,-2.248906,1.127158,2.604758,-0.584049,-6.171525,-14.656566,37.453374,7.887685,-0.252349,0.094704,0.000000,0.100691,-0.352682,-0.000000
3.390000,2.349078,-0.325131,-1.592839,1.335590,0.608573,0.020250,-0.799451,-2.252892,1.065863,2.457630,-0.214957,-6.082177,-14.766332,36.364986,10.868492,-0.251158,0.091174,0.000000,0.136953,-0.331074,-0.000000
3.400000,2.362395,-0.319158,-1.592584,1.327716,0.586040,0.030607,-0.775614,-2.253242,1.005632,2.309623,0.142952,-5.962264,-14.822684,35.196376,12.189549,-0.249619,0.087867,0.000000,0.170555,-0.309602,0.000000
3.410000,2.375633,-0.313410,-1.592229,1.320073,0.563520,0.040367,-0.753260,-2.250066,0.946622,2.161106,0.490507,-5.838193,-14.841711,34.007811,13.362307,-0.247752,0.084782,0.000000,0.202407,-0.288565,0.000000
3.420000,2.388797,-0.307887,-1.591778,1.312646,0.541050,0.049544,-0.732389,-2.243497,0.888967,2.013208,0.820206,-5.688432,-14.762277,32.214602,15.832803,-0.245582,0.081913,0.000000,0.231242,-0.267871,-0.000000
3.430000,2.401887,-0.302589,-1.591240,1.305420,0.518661,0.058152,-0.712996,-2.233690,0.832852,1.865336,1.140754,-5.537414,-14.807221,31.898051,14.327687,-0.243132,0.079257,0.000000,0.258728,-0.247664,-0.000000
3.440000,2.414906,-0.297513,-1.590617,1.298381,0.496386,0.066206,-0.695082,-2.220710,0.778210,1.717796,1.452197,-5.387363,-14.664495,30.093219,16.407036,-0.240411,0.076808,0.000000,0.284988,-0.227960,0.000000
3.450000,2.427855,-0.292660,-1.589917,1.291514,0.474257,0.073721,-0.678634,-2.204714,0.725189,1.571888,1.745018,-5.215982,-14.543327,28.758943,17.108333,-0.237442,0.074561,0.000000,0.308542,-0.208690,-0.000000
3.460000,2.440737,-0.288028,-1.589145,1.284803,0.452302,0.080715,-0.663648,-2.185841,0.673889,1.425441,2.027441,-5.043100,-14.426763,27.420492,17.713975,-0.234244,0.072513,0.000000,0.330832,-0.189762,0.000000
3.470000,2.453552,-0.283614,-1.588305,1.278236,0.430549,0.087205,-0.650095,-2.164234,0.624367,1.286338,2.290600,-4.859637,-13.694945,25.503032,18.703670,-0.230834,0.070655,0.000000,0.350771,-0.171912,0.000000
3.480000,2.466302,-0.279416,-1.587402,1.271797,0.409026,0.093209,-0.637930,-2.140060,0.576699,1.145215,2.543639,-4.674775,-14.534890,25.113069,18.243124,-0.227232,0.068980,0.000000,0.369609,-0.154187,-0.000000
3.490000,2.478988,-0.275432,-1.586442,1.265472,0.387756,0.098745,-0.627201,-2.113392,0.530869,1.001899,2.786914,-4.489928,-13.816253,23.245725,18.968201,-0.223445,0.067490,0.000000,0.387455,-0.136558,0.000000
3.500000,2.491612,-0.271660,-1.585429,1.259248,0.366765,0.103832,-0.617861,-2.084391,0.486929,0.866356,3.011078,-4.297947,-13.596283,21.883418,19.153137,-0.219490,0.066175,0.000000,0.403221,-0.119988,-0.000000
3.510000,2.504173,-0.268096,-1.584367,1.253111,0.346076,0.108490,-0.609868,-2.053200,0.444893,0.732605,3.225049,-4.109463,-13.316088,20.549753,19.185179,-0.215382,0.065030,0.000000,0.418114,-0.103894,0.000000
3.520000,2.516674,-0.264737,-1.583260,1.247046,0.325708,0.112737,-0.603212,-2.019964,0.404793,0.598579,3.418775,-3.908501,-13.325035,18.549443,20.354975,-0.211136,0.064048,0.000000,0.430796,-0.087929,0.000000
3.530000,2.529114,-0.261581,-1.582113,1.241042,0.305683,0.116592,-0.597879,-1.984852,0.366690,0.469547,3.603474,-3.716031,-12.473112,18.403973,18.105460,-0.206768,0.063228,0.000000,0.442897,-0.072755,0.000000
3.540000,2.541495,-0.258623,-1.580930,1.235085,0.286017,0.120077,-0.593802,-1.947919,0.330433,0.345918,3.779799,-3.533753,-12.412487,16.509308,18.981551,-0.202279,0.062558,0.000000,0.454519,-0.058392,-0.000000
3.550000,2.553816,-0.255859,-1.579713,1.229162,0.266730,0.123207,-0.590962,-1.909327,0.296058,0.222726,3.936747,-3.342100,-12.061392,15.238199,18.695848,-0.197685,0.062036,0.000000,0.464171,-0.044179,-0.000000
3.560000,2.566078,-0.253287,-1.578467,1.223261,0.247836,0.126004,-0.589334,-1.869207,0.263575,0.103497,4.085456,-3.154823,-11.714807,14.022377,18.423388,-0.192997,0.061655,0.000000,0.473276,-0.030546,0.000000
3.570000,2.578281,-0.250901,-1.577194,1.217371,0.229350,0.128485,-0.588875,-1.827697,0.232925,-0.010910,4.212814,-2.976826,-11.230373,11.924517,17.483219,-0.188226,0.061411,0.000000,0.480615,-0.017589,-0.000000
3.580000,2.590426,-0.248698,-1.575898,1.211480,0.211286,0.130668,-0.589543,-1.784968,0.204041,-0.122455,4.333926,-2.798690,-11.079139,12.317085,18.145598,-0.183386,0.061296,0.000000,0.487531,-0.005028,-0.000000
3.590000,2.602511,-0.246674,-1.574582,1.205577,0.193655,0.132572,-0.591315,-1.741033,0.176954,-0.231138,4.449719,-2.620475,-10.590055,10.370657,17.170417,-0.178476,0.061307,0.000000,0.494128,0.007153,0.000000
3.600000,2.614537,-0.244824,-1.573247,1.199650,0.176469,0.134213,-0.594148,-1.696049,0.151591,-0.334798,4.545471,-2.452707,-10.206725,9.258661,16.694534,-0.173510,0.061439,0.000000,0.499116,0.018686,0.000000
3.610000,2.626504,-0.243143,-1.571898,1.193690,0.159737,0.135609,-0.598008,-1.650149,0.127897,-0.436746,4.632634,-2.286785,-9.850296,8.148378,16.192428,-0.168496,0.061686,0.000000,0.503491,0.029974,0.000000
3.620000,2.638411,-0.241627,-1.570536,1.187687,0.143469,0.136777,-0.602844,-1.603435,0.105814,-0.528736,4.708257,-2.131655,-8.868686,7.010550,15.111015,-0.163442,0.062042,0.000000,0.507096,0.040140,0.000000
3.630000,2.650257,-0.240272,-1.569163,1.181630,0.127671,0.137731,-0.608585,-1.556018,0.085259,-0.620859,4.773563,-1.978725,-9.565018,6.056484,15.478965,-0.158357,0.062500,0.000000,0.509908,0.050273,0.000000
3.640000,2.662043,-0.239072,-1.567782,1.175512,0.112350,0.138487,-0.615265,-1.507997,0.066235,-0.713510,4.828893,-1.827889,-8.639551,4.985027,14.398578,-0.153247,0.063061,0.000000,0.511961,0.060421,0.000000
3.650000,2.673767,-0.238023,-1.566394,1.169322,0.097512,0.139060,-0.622817,-1.459476,0.048658,-0.796391,4.873619,-1.688406,-8.259627,3.995047,13.778971,-0.148120,0.063718,0.000000,0.513314,0.069495,-0.000000
3.660000,2.685429,-0.237120,-1.565001,1.163053,0.083162,0.139465,-0.631182,-1.410556,0.032444,-0.875796,4.908787,-1.555790,-7.829200,3.035801,13.083618,-0.142983,0.064465,0.000000,0.513992,0.078165,-0.000000
3.670000,2.697028,-0.236359,-1.563605,1.156696,0.069302,0.139713,-0.640335,-1.361333,0.017547,-0.954860,4.934370,-1.423632,-7.781637,2.093944,13.013531,-0.137843,0.065298,0.000000,0.513894,0.086797,-0.000000
3.680000,2.708563,-0.235733,-1.562208,1.150244,0.055936,0.139820,-0.650255,-1.311899,0.003932,-1.027192,4.950938,-1.302531,-6.677791,1.225524,11.194957,-0.132707,0.066215,0.000000,0.513210,0.094683,-0.000000
3.690000,2.720033,-0.235238,-1.560809,1.143689,0.043065,0.139796,-0.660854,-1.262343,-0.008545,-1.092472,4.958835,-1.193024,-6.580686,0.351718,11.041661,-0.127580,0.067205,0.000000,0.511956,0.101789,-0.000000
3.700000,2.731436,-0.234870,-1.559412,1.137024,0.030689,0.139653,-0.672106,-1.212751,-0.019926,-1.157072,4.958153,-1.084546,-6.136755,-0.474679,10.320184,-0.122470,0.068267,0.000000,0.509995,0.108831,0.000000
3.710000,2.742773,-0.234623,-1.558017,1.130244,0.018810,0.139401,-0.683977,-1.163201,-0.030254,-1.216412,4.950554,-0.981767,-5.706911,-1.244368,9.686817,-0.117382,0.069396,0.000000,0.507540,0.115321,-0.000000
3.720000,2.754041,-0.234492,-1.556624,1.123343,0.007425,0.139051,-0.696418,-1.113782,-0.039627,-1.270985,4.931494,-0.895839,-5.231179,-2.362959,8.034280,-0.112322,0.070588,0.000000,0.504248,0.121230,-0.000000
3.730000,2.765239,-0.234473,-1.555236,1.116314,-0.003467,0.138611,-0.709383,-1.064586,-0.048167,-1.321529,4.907584,-0.809836,-4.878359,-2.407172,9.185302,-0.107298,0.071835,0.000000,0.500564,0.126750,-0.000000
3.740000,2.776367,-0.234560,-1.553852,1.109154,-0.013868,0.138090,-0.722835,-1.015642,-0.055817,-1.368081,4.879439,-0.722882,-4.408433,-3.417174,7.669298,-0.102312,0.073136,0.000000,0.496544,0.131895,-0.000000
3.750000,2.787422,-0.234748,-1.552474,1.101856,-0.023781,0.137497,-0.736729,-0.967035,-0.062686,-1.409910,4.841056,-0.651815,-3.980819,-4.053716,7.083780,-0.097370,0.074485,0.000000,0.491745,0.136469,-0.000000
3.760000,2.798403,-0.235034,-1.551103,1.094418,-0.033210,0.136839,-0.751021,-0.918838,-0.068855,-1.447938,4.797341,-0.582679,-3.561058,-4.671996,6.508702,-0.092478,0.075877,0.000000,0.486502,0.140665,-0.000000
3.770000,2.809310,-0.235411,-1.549738,1.086835,-0.042159,0.136122,-0.765669,-0.871107,-0.074378,-1.480549,4.747833,-0.523762,-3.023997,-5.236078,5.508884,-0.087641,0.077308,0.000000,0.480832,0.144257,0.000000
3.780000,2.820140,-0.235875,-1.548380,1.079103,-0.050634,0.135353,-0.780622,-0.823901,-0.079337,-1.509741,4.692481,-0.467586,-2.817033,-5.829324,5.737288,-0.082864,0.078772,0.000000,0.474651,0.147501,-0.000000
3.790000,2.830891,-0.236422,-1.547031,1.071221,-0.058639,0.134537,-0.795853,-0.777276,-0.083735,-1.535640,4.631584,-0.413610,-2.300355,-6.333337,4.828671,-0.078150,0.080267,0.000000,0.467980,0.150414,0.000000
3.800000,2.841564,-0.237047,-1.545690,1.063186,-0.066181,0.133680,-0.811316,-0.731285,-0.087645,-1.556297,4.565817,-0.368953,-1.894823,-6.826577,4.338740,-0.073505,0.081788,0.000000,0.460931,0.152741,-0.000000
3.810000,2.852155,-0.237744,-1.544357,1.054994,-0.073267,0.132786,-0.826967,-0.685976,-0.091122,-1.573266,4.495261,-0.327087,-1.491111,-7.287977,3.876204,-0.068933,0.083329,0.000000,0.453453,0.154689,0.000000
3.820000,2.862663,-0.238510,-1.543034,1.046646,-0.079903,0.131859,-0.842767,-0.641396,-0.094215,-1.586055,4.420081,-0.292840,-1.076158,-7.735139,3.134888,-0.064437,0.084887,0.000000,0.445588,0.156166,0.000000
3.830000,2.873087,-0.239341,-1.541720,1.038139,-0.086098,0.130903,-0.858675,-0.597588,-0.096985,-1.594987,4.340825,-0.260997,-0.711418,-8.110974,3.243016,-0.060022,0.086458,0.000000,0.437346,0.157246,0.000000
3.840000,2.883425,-0.240231,-1.540416,1.029472,-0.091858,0.129920,-0.874654,-0.554592,-0.099440,-1.600131,4.257795,-0.231082,-0.309883,-8.498402,2.585038,-0.055692,0.088037,0.000000,0.428752,0.157940,0.000000
3.850000,2.893676,-0.241176,-1.539122,1.020645,-0.097192,0.128915,-0.890664,-0.512445,-0.101632,-1.601278,4.171020,-0.207858,0.070736,-8.843716,2.222637,-0.051448,0.089620,0.000000,0.419831,0.158182,0.000000
3.860000,2.903838,-0.242173,-1.537838,1.011659,-0.102110,0.127888,-0.906667,-0.471182,-0.103602,-1.598709,4.081031,-0.186537,0.444726,-9.160492,1.892906,-0.047296,0.091203,0.000000,0.410604,0.158043,0.000000
3.870000,2.913908,-0.243217,-1.536564,1.002512,-0.106619,0.126843,-0.922626,-0.430835,-0.105386,-1.592381,3.987801,-0.171323,0.816899,-9.470278,1.302654,-0.043237,0.092783,0.000000,0.401085,0.157477,-0.000000
3.880000,2.923887,-0.244304,-1.535301,0.993206,-0.110729,0.125781,-0.938503,-0.391434,-0.107031,-1.582455,3.891936,-0.157282,1.166853,-9.697972,1.514171,-0.039275,0.094354,0.000000,0.391306,0.156545,-0.000000
3.890000,2.933772,-0.245431,-1.534049,0.983743,-0.114451,0.124703,-0.954263,-0.353004,-0.108533,-1.569014,3.793716,-0.143960,1.522831,-9.952449,1.004507,-0.035412,0.095915,0.000000,0.381295,0.155258,0.000000
3.900000,2.943562,-0.246592,-1.532807,0.974122,-0.117793,0.123611,-0.969872,-0.315568,-0.109930,-1.552051,3.693064,-0.135838,1.865592,-10.163081,0.773331,-0.031650,0.097460,0.000000,0.371058,0.153573,-0.000000
3.910000,2.953254,-0.247785,-1.531577,0.964346,-0.120766,0.122505,-0.985293,-0.279149,-0.111253,-1.531704,3.590563,-0.129037,2.200165,-10.347452,0.558897,-0.027991,0.098987,0.000000,0.360638,0.151540,0.000000
3.920000,2.962848,-0.249006,-1.530357,0.954417,-0.123379,0.121386,-1.000495,-0.243764,-0.112520,-1.508095,3.486064,-0.124893,2.521963,-10.534261,0.305749,-0.024438,0.100491,0.000000,0.350022,0.149156,-0.000000
3.930000,2.972342,-0.250252,-1.529149,0.944337,-0.125644,0.120255,-1.015444,-0.209432,-0.113755,-1.481259,3.380253,-0.122172,2.843634,-10.623616,0.243070,-0.020991,0.101970,0.000000,0.339277,0.146438,0.000000
3.940000,2.981734,-0.251518,-1.527952,0.934109,-0.127571,0.119111,-1.030110,-0.176162,-0.114967,-1.451292,3.273387,-0.120611,3.146183,-10.760001,0.040119,-0.017653,0.103419,0.000000,0.328426,0.143398,0.000000
3.950000,2.991024,-0.252802,-1.526767,0.923736,-0.129171,0.117955,-1.044460,-0.143968,-0.116174,-1.418351,3.165250,-0.121023,3.441701,-10.849476,-0.086813,-0.014423,0.104837,0.000000,0.317451,0.140042,0.000000
3.960000,3.000208,-0.254100,-1.525593,0.913221,-0.130454,0.116787,-1.058467,-0.112859,-0.117389,-1.382607,3.056483,-0.122116,3.724116,-10.915900,-0.189181,-0.011304,0.106220,0.000000,0.306413,0.136401,0.000000
3.970000,3.009287,-0.255410,-1.524431,0.902567,-0.131432,0.115607,-1.072102,-0.082842,-0.118625,-1.343732,2.946860,-0.125300,4.030771,-10.989932,-0.385687,-0.008295,0.107564,0.000000,0.295292,0.132428,-0.000000
3.980000,3.018259,-0.256728,-1.523281,0.891780,-0.132115,0.114415,-1.085334,-0.053923,-0.119895,-1.302415,2.837072,-0.128535,4.230144,-10.963831,-0.256683,-0.005398,0.108867,0.000000,0.284156,0.128213,-0.000000
3.990000,3.027123,-0.258051,-1.522143,0.880862,-0.132514,0.113209,-1.098142,-0.026100,-0.121194,-1.258797,2.727345,-0.131565,4.509852,-10.993605,-0.405840,-0.002612,0.110128,0.000000,0.273029,0.123773,0.000000
4.000000,3.035876,-0.259377,-1.521017,0.869819,-0.132641,0.111991,-1.110500,0.000623,-0.122532,-1.212414,2.617395,-0.136093,4.746304,-10.977909,-0.438116,0.000062,0.111342,0.000000,0.261884,0.119045,0.000000
4.010000,3.044519,-0.260703,-1.519903,0.858654,-0.132505,0.110759,-1.122384,0.026249,-0.123914,-1.164018,2.507836,-0.140248,4.967572,-10.943003,-0.452385,0.002626,0.112508,0.000000,0.250783,0.114124,0.000000
4.020000,3.053049,-0.262027,-1.518802,0.847373,-0.132119,0.109512,-1.133771,0.050781,-0.125343,-1.112766,2.398483,-0.145664,5.245004,-10.912864,-0.568564,0.005078,0.113623,0.000000,0.239709,0.108908,0.000000
4.030000,3.061466,-0.263345,-1.517713,0.835980,-0.131493,0.108252,-1.144634,0.074221,-0.126824,-1.059906,2.289886,-0.150317,5.323809,-10.803291,-0.358271,0.007420,0.114686,0.000000,0.228717,0.103545,-0.000000
4.040000,3.069768,-0.264656,-1.516637,0.824482,-0.130638,0.106976,-1.154964,0.096582,-0.128345,-1.005612,2.182232,-0.154007,5.568797,-10.736720,-0.438515,0.009653,0.115694,0.000000,0.217829,0.098055,0.000000
4.050000,3.077955,-0.265957,-1.515573,0.812883,-0.129565,0.105685,-1.164738,0.117868,-0.129908,-0.948881,2.075306,-0.158536,5.739918,-10.633979,-0.405889,0.011777,0.116646,0.000000,0.207022,0.092319,0.000000
4.060000,3.086025,-0.267246,-1.514523,0.801189,-0.128285,0.104377,-1.173938,0.138092,-0.131516,-0.890790,1.969573,-0.162971,5.898203,-10.516232,-0.379796,0.013794,0.117540,0.000000,0.196345,0.086453,0.000000
4.070000,3.093978,-0.268522,-1.513486,0.789406,-0.126807,0.103054,-1.182547,0.157263,-0.133159,-0.830756,1.864974,-0.165188,6.085097,-10.395357,-0.159430,0.015704,0.118375,0.000000,0.185794,0.080427,0.000000
4.080000,3.101813,-0.269782,-1.512462,0.777540,-0.125143,0.101714,-1.190549,0.175396,-0.134823,-0.769582,1.761833,-0.168172,6.146829,-10.230515,-0.439215,0.017510,0.119148,0.000000,0.175399,0.074285,-0.000000
4.090000,3.109529,-0.271024,-1.511452,0.765597,-0.123302,0.100358,-1.197935,0.192505,-0.136526,-0.707426,1.660289,-0.171993,6.303981,-10.082108,-0.226368,0.019213,0.119860,0.000000,0.165173,0.068041,-0.000000
4.100000,3.117125,-0.272247,-1.510455,0.753583,-0.121296,0.098984,-1.204692,0.208607,-0.138253,-0.643727,1.560280,-0.173513,6.412199,-9.911764,-0.174442,0.020814,0.120509,0.000000,0.155116,0.061677,-0.000000
4.110000,3.124600,-0.273450,-1.509472,0.741505,-0.119134,0.097592,-1.210808,0.223717,-0.139997,-0.579270,1.462048,-0.175075,6.504080,-9.730805,-0.113727,0.022316,0.121094,0.000000,0.145248,0.055245,0.000000
4.120000,3.131955,-0.274630,-1.508503,0.729369,-0.116825,0.096184,-1.216273,0.237854,-0.141751,-0.513484,1.365719,-0.175539,6.628450,-9.535291,-0.002776,0.023720,0.121614,0.000000,0.135584,0.048700,0.000000
4.130000,3.139188,-0.275786,-1.507548,0.717182,-0.114380,0.094757,-1.221076,0.251038,-0.143507,-0.447220,1.271329,-0.175633,6.621553,-9.341288,-0.016386,0.025028,0.122068,0.000000,0.126126,0.042119,0.000000
4.140000,3.146298,-0.276917,-1.506608,0.704950,-0.111807,0.093314,-1.225216,0.263288,-0.145262,-0.380635,1.178967,-0.175364,6.716183,-9.127640,0.095118,0.026243,0.122456,0.000000,0.116882,0.035516,-0.000000
4.150000,3.153287,-0.278021,-1.505682,0.692680,-0.109117,0.091852,-1.228685,0.274624,-0.147010,-0.313127,1.088785,-0.173937,6.760094,-8.909496,0.166344,0.027367,0.122778,0.000000,0.107869,0.028842,0.000000
4.160000,3.160152,-0.279099,-1.504771,0.680378,-0.106318,0.090373,-1.231479,0.285070,-0.148740,-0.245478,1.000753,-0.171982,6.790645,-8.685034,0.238864,0.028401,0.123033,0.000000,0.099082,0.022166,0.000000
4.170000,3.166894,-0.280147,-1.503875,0.668053,-0.103418,0.088877,-1.233592,0.294648,-0.150446,-0.177143,0.915206,-0.169030,6.852138,-8.433715,0.337935,0.029349,0.123222,0.000000,0.090555,0.015439,-0.000000
4.180000,3.173513,-0.281167,-1.502994,0.655709,-0.100428,0.087365,-1.235022,0.303382,-0.152118,-0.108940,0.831878,-0.165507,6.785937,-8.231285,0.366201,0.030213,0.123343,0.000000,0.082260,0.008737,0.000000
4.190000,3.180008,-0.282156,-1.502128,0.643354,-0.097354,0.085835,-1.235772,0.311293,-0.153754,-0.041013,0.750810,-0.161435,6.820025,-7.970965,0.461612,0.030995,0.123397,0.000000,0.074199,0.002074,0.000000
4.200000,3.186380,-0.283114,-1.501277,0.630996,-0.094204,0.084290,-1.235841,0.318407,-0.155344,0.027229,0.672384,-0.156392,6.804673,-7.724036,0.532880,0.031698,0.123384,0.000000,0.066413,-0.004605,0.000000
4.210000,3.192628,-0.284040,-1.500442,0.618640,-0.090988,0.082729,-1.235229,0.324748,-0.156881,0.095085,0.596305,-0.151036,6.778616,-7.474465,0.596590,0.032324,0.123305,0.000000,0.058868,-0.011240,0.000000
4.220000,3.198753,-0.284933,-1.499622,0.606293,-0.087712,0.081152,-1.233939,0.330343,-0.158358,0.162894,0.523060,-0.143928,6.767996,-7.190369,0.767783,0.032876,0.123159,0.000000,0.051617,-0.017845,0.000000
4.230000,3.204754,-0.285794,-1.498819,0.593963,-0.084384,0.079562,-1.231973,0.335217,-0.159760,0.230129,0.452165,-0.136883,6.676843,-6.988743,0.638918,0.033357,0.122948,0.000000,0.044604,-0.024393,0.000000
4.240000,3.210632,-0.286621,-1.498031,0.581656,-0.081010,0.077957,-1.229339,0.339394,-0.161096,0.296670,0.383621,-0.130007,6.643437,-6.703475,0.793212,0.033769,0.122671,0.000000,0.037829,-0.030873,0.000000
4.250000,3.216387,-0.287414,-1.497260,0.569379,-0.077598,0.076340,-1.226041,0.342900,-0.162354,0.362850,0.317960,-0.121520,6.577460,-6.444772,0.846863,0.034115,0.122330,0.000000,0.031350,-0.037298,-0.000000
4.260000,3.222020,-0.288173,-1.496504,0.557138,-0.074154,0.074710,-1.222085,0.345761,-0.163527,0.428229,0.254699,-0.112952,6.502581,-6.186555,0.897595,0.034397,0.121925,0.000000,0.025113,-0.043643,0.000000
4.270000,3.227530,-0.288897,-1.495765,0.544939,-0.070685,0.073070,-1.217478,0.348004,-0.164609,0.492924,0.194421,-0.103290,6.429553,-5.889277,1.003638,0.034618,0.121457,0.000000,0.019177,-0.049908,-0.000000
4.280000,3.232919,-0.289586,-1.495043,0.532790,-0.067196,0.071419,-1.212229,0.349657,-0.165593,0.556676,0.136489,-0.093530,6.319204,-5.697816,0.946822,0.034781,0.120927,0.000000,0.013477,-0.056081,0.000000
4.290000,3.238186,-0.290241,-1.494337,0.520697,-0.063693,0.069758,-1.206348,0.350741,-0.166480,0.619393,0.080870,-0.083750,6.228610,-5.405847,1.039391,0.034888,0.120335,0.000000,0.008007,-0.062153,0.000000
4.300000,3.243333,-0.290860,-1.493648,0.508665,-0.060183,0.068089,-1.199845,0.351284,-0.167264,0.681170,0.028194,-0.073015,6.120470,-5.149796,1.076187,0.034942,0.119683,0.000000,0.002833,-0.068125,-0.000000
4.310000,3.248360,-0.291444,-1.492975,0.496702,-0.056670,0.066413,-1.192729,0.351313,-0.167940,0.741812,-0.022149,-0.062216,6.005649,-4.896721,1.108272,0.034946,0.118972,0.000000,-0.002110,-0.073988,-0.000000
4.320000,3.253267,-0.291993,-1.492320,0.484813,-0.053158,0.064731,-1.185012,0.350852,-0.168505,0.801249,-0.069542,-0.050629,5.881696,-4.603997,1.183854,0.034901,0.118203,0.000000,-0.006759,-0.079726,0.000000
4.330000,3.258056,-0.292507,-1.491681,0.473004,-0.049654,0.063044,-1.176708,0.349929,-0.168953,0.859447,-0.114694,-0.039067,5.756762,-4.427631,1.127241,0.034811,0.117377,0.000000,-0.011187,-0.085348,-0.000000
4.340000,3.262728,-0.292987,-1.491059,0.461280,-0.046161,0.061352,-1.167828,0.348565,-0.169287,0.916341,-0.157665,-0.027600,5.619830,-4.145087,1.190297,0.034678,0.116495,0.000000,-0.015400,-0.090848,0.000000
4.350000,3.267282,-0.293431,-1.490454,0.449649,-0.042684,0.059658,-1.158386,0.346786,-0.169502,0.971839,-0.197794,-0.015488,5.479343,-3.903174,1.207196,0.034504,0.115559,0.000000,-0.019333,-0.096209,-0.000000
4.360000,3.271721,-0.293840,-1.489866,0.438115,-0.039227,0.057963,-1.148396,0.344616,-0.169597,1.025938,-0.235747,-0.003396,5.333543,-3.666096,1.221009,0.034292,0.114570,0.000000,-0.023052,-0.101439,-0.000000
4.370000,3.276045,-0.294215,-1.489295,0.426683,-0.035793,0.056267,-1.137872,0.342080,-0.169569,1.078437,-0.270926,0.009015,5.171298,-3.391804,1.250549,0.034044,0.113530,0.000000,-0.026498,-0.106514,-0.000000
4.380000,3.280255,-0.294556,-1.488740,0.415359,-0.032386,0.054572,-1.126832,0.339204,-0.169417,1.129469,-0.304048,0.021392,5.034354,-3.233999,1.223880,0.033763,0.112439,0.000000,-0.029743,-0.111452,0.000000
4.390000,3.284352,-0.294863,-1.488203,0.404148,-0.029010,0.052879,-1.115288,0.336006,-0.169142,1.178992,-0.335188,0.033685,4.863611,-2.973169,1.244269,0.033450,0.111300,0.000000,-0.032796,-0.116250,0.000000
4.400000,3.288338,-0.295137,-1.487683,0.393055,-0.025667,0.051189,-1.103258,0.332510,-0.168742,1.226780,-0.363711,0.046179,4.698749,-2.753927,1.243956,0.033108,0.110114,0.000000,-0.035593,-0.120883,0.000000
4.410000,3.292214,-0.295377,-1.487179,0.382084,-0.022361,0.049504,-1.090758,0.328738,-0.168219,1.272984,-0.390283,0.058569,4.530553,-2.540747,1.240219,0.032739,0.108882,0.000000,-0.038200,-0.125369,-0.000000
4.420000,3.295980,-0.295584,-1.486693,0.371241,-0.019093,0.047825,-1.077805,0.324713,-0.167571,1.317278,-0.414356,0.071034,4.338162,-2.294628,1.245763,0.032345,0.107606,0.000000,-0.040562,-0.129673,0.000000
4.430000,3.299639,-0.295759,-1.486223,0.360530,-0.015867,0.046153,-1.064417,0.320457,-0.166798,1.359959,-0.436611,0.083338,4.197845,-2.157983,1.214270,0.031928,0.106287,0.000000,-0.042749,-0.133829,-0.000000
4.440000,3.303191,-0.295901,-1.485770,0.349954,-0.012685,0.044490,-1.050611,0.315986,-0.165905,1.401009,-0.457132,0.095442,4.000916,-1.927192,1.212585,0.031490,0.104928,0.000000,-0.044768,-0.137834,0.000000
4.450000,3.306639,-0.296012,-1.485333,0.339519,-0.009548,0.042836,-1.036404,0.311322,-0.164890,1.440061,-0.475345,0.107516,3.819427,-1.736310,1.196158,0.031033,0.103530,0.000000,-0.046562,-0.141651,0.000000
4.460000,3.309982,-0.296092,-1.484913,0.329227,-0.006459,0.041192,-1.021815,0.306484,-0.163755,1.477421,-0.491874,0.119294,3.636223,-1.552153,1.175895,0.030560,0.102094,0.000000,-0.048194,-0.145312,0.000000
4.470000,3.313224,-0.296142,-1.484509,0.319084,-0.003419,0.039561,-1.006863,0.301492,-0.162503,1.512630,-0.506240,0.131180,3.420646,-1.339927,1.184574,0.030070,0.100623,0.000000,-0.049614,-0.148768,-0.000000
4.480000,3.316364,-0.296161,-1.484122,0.309091,-0.000430,0.037943,-0.991568,0.296365,-0.161133,1.546152,-0.519065,0.142633,3.283901,-1.226603,1.105205,0.029568,0.099118,0.000000,-0.050886,-0.152069,0.000000
4.490000,3.319406,-0.296151,-1.483750,0.299253,0.002508,0.036339,-0.975945,0.291115,-0.159652,1.577988,-0.530435,0.153608,3.067206,-1.030454,1.105939,0.029053,0.097581,0.000000,-0.052018,-0.155217,0.000000
4.500000,3.322350,-0.296111,-1.483395,0.289573,0.005392,0.034750,-0.960016,0.285763,-0.158061,1.607620,-0.539847,0.164602,2.874875,-0.870956,1.076391,0.028528,0.096013,0.000000,-0.052959,-0.158155,-0.000000
4.510000,3.325198,-0.296043,-1.483055,0.280054,0.008223,0.033178,-0.943799,0.280323,-0.156361,1.635460,-0.547867,0.175349,2.681179,-0.718402,1.048827,0.027994,0.094417,0.000000,-0.053765,-0.160925,0.000000
4.520000,3.327952,-0.295947,-1.482731,0.270698,0.010999,0.031623,-0.927314,0.274812,-0.154557,1.661130,-0.554093,0.185354,2.463919,-0.542982,0.975048,0.027453,0.092794,0.000000,-0.054397,-0.163495,-0.000000
4.530000,3.330612,-0.295823,-1.482423,0.261509,0.013719,0.030087,-0.910582,0.269245,-0.152654,1.684972,-0.559066,0.195329,2.304582,-0.453247,1.020398,0.026907,0.091146,0.000000,-0.054908,-0.165890,0.000000
4.540000,3.333182,-0.295673,-1.482129,0.252487,0.016383,0.028570,-0.893621,0.263634,-0.150650,1.706988,-0.562872,0.205289,2.086816,-0.293664,0.948101,0.026356,0.089476,0.000000,-0.055304,-0.168112,-0.000000
4.550000,3.335663,-0.295496,-1.481851,0.243637,0.018991,0.027074,-0.876450,0.257993,-0.148551,1.726800,-0.565090,0.214486,1.886985,-0.166354,0.914029,0.025801,0.087784,0.000000,-0.055546,-0.170128,0.000000
4.560000,3.338056,-0.295293,-1.481588,0.234959,0.021543,0.025600,-0.859091,0.252336,-0.146361,1.744749,-0.566213,0.223485,1.687056,-0.045847,0.877774,0.025245,0.086072,0.000000,-0.055682,-0.171967,0.000000
4.570000,3.340363,-0.295065,-1.481339,0.226456,0.024038,0.024147,-0.841563,0.246674,-0.144083,1.760393,-0.565905,0.231966,1.456673,0.093453,0.825761,0.024688,0.084344,0.000000,-0.055678,-0.173587,0.000000
4.580000,3.342585,-0.294812,-1.481105,0.218128,0.026477,0.022718,-0.823889,0.241021,-0.141722,1.774198,-0.564637,0.240152,1.304713,0.158697,0.811310,0.024132,0.082600,0.000000,-0.055580,-0.175032,0.000000
4.590000,3.344726,-0.294536,-1.480885,0.209978,0.028859,0.021313,-0.806085,0.235384,-0.139281,1.786176,-0.562489,0.248037,1.075278,0.283097,0.758105,0.023577,0.080843,0.000000,-0.055395,-0.176302,-0.000000
4.600000,3.346785,-0.294235,-1.480678,0.202007,0.031184,0.019933,-0.788173,0.229775,-0.136764,1.795830,-0.559106,0.255375,0.870802,0.379311,0.716423,0.023024,0.079074,0.000000,-0.055090,-0.177349,0.000000
4.610000,3.348766,-0.293912,-1.480486,0.194215,0.033454,0.018578,-0.770174,0.224205,-0.134175,1.803631,-0.554918,0.262270,0.666785,0.469172,0.671895,0.022475,0.077296,0.000000,-0.054706,-0.178219,0.000000
4.620000,3.350670,-0.293566,-1.480307,0.186604,0.035669,0.017250,-0.752109,0.218681,-0.131519,1.808957,-0.549634,0.268895,0.419918,0.575320,0.643749,0.021931,0.075510,0.000000,-0.054213,-0.178847,-0.000000
4.630000,3.352499,-0.293199,-1.480141,0.179173,0.037828,0.015948,-0.734001,0.213214,-0.128799,1.812480,-0.543670,0.274950,0.285112,0.616054,0.566755,0.021391,0.073718,0.000000,-0.053653,-0.179302,-0.000000
4.640000,3.354254,-0.292810,-1.479988,0.171924,0.039933,0.014674,-0.715866,0.207809,-0.126022,1.814216,-0.537100,0.280411,0.040051,0.708750,0.534612,0.020858,0.071923,0.000000,-0.053034,-0.179585,0.000000
4.650000,3.355938,-0.292400,-1.479847,0.164856,0.041985,0.013428,-0.697725,0.202475,-0.123192,1.813469,-0.529610,0.285559,-0.168704,0.776637,0.485741,0.020331,0.070127,0.000000,-0.052323,-0.179624,-0.000000
4.660000,3.357552,-0.291971,-1.479719,0.157969,0.043983,0.012210,-0.679602,0.197219,-0.120312,1.810847,-0.521581,0.290275,-0.378190,0.838899,0.438700,0.019811,0.068331,0.000000,-0.051559,-0.179479,-0.000000
4.670000,3.359098,-0.291521,-1.479603,0.151264,0.045929,0.011022,-0.661517,0.192047,-0.117389,1.805695,-0.512751,0.294159,-0.630840,0.916001,0.356103,0.019300,0.066537,0.000000,-0.050715,-0.179087,-0.000000
4.680000,3.360578,-0.291052,-1.479498,0.144739,0.047824,0.009862,-0.643494,0.186965,-0.114430,1.798677,-0.503493,0.297771,-0.772547,0.934610,0.366744,0.018797,0.064749,0.000000,-0.049827,-0.178510,0.000000
4.690000,3.361994,-0.290565,-1.479406,0.138393,0.049669,0.008733,-0.625550,0.181978,-0.111435,1.789802,-0.493867,0.301127,-1.024478,1.000271,0.286018,0.018303,0.062967,0.000000,-0.048902,-0.177747,0.000000
4.700000,3.363347,-0.290059,-1.479324,0.132227,0.051464,0.007634,-0.607707,0.177090,-0.108410,1.778360,-0.483590,0.303645,-1.242088,1.043979,0.235346,0.017819,0.061194,0.000000,-0.047912,-0.176732,-0.000000
4.710000,3.364639,-0.289536,-1.479253,0.126239,0.053211,0.006565,-0.589989,0.172307,-0.105363,1.765010,-0.473005,0.305769,-1.459895,1.083047,0.183149,0.017345,0.059432,0.000000,-0.046890,-0.175525,-0.000000
4.720000,3.365872,-0.288995,-1.479192,0.120427,0.054911,0.005527,-0.572417,0.167632,-0.102297,1.748864,-0.461845,0.307249,-1.739284,1.138041,0.118568,0.016882,0.057684,0.000000,-0.045810,-0.174038,0.000000
4.730000,3.367048,-0.288437,-1.479142,0.114790,0.056564,0.004519,-0.555017,0.163071,-0.099219,1.730854,-0.450472,0.308261,-1.862299,1.135601,0.083886,0.016429,0.055952,0.000000,-0.044707,-0.172365,0.000000
4.740000,3.368168,-0.287864,-1.479102,0.109326,0.058172,0.003542,-0.537806,0.158623,-0.096134,1.710989,-0.438936,0.308803,-2.142211,1.181441,0.018409,0.015988,0.054237,0.000000,-0.043587,-0.170503,-0.000000
4.750000,3.369235,-0.287274,-1.479071,0.104033,0.059737,0.002596,-0.520808,0.154294,-0.093046,1.688260,-0.426942,0.308675,-2.373578,1.206569,-0.038137,0.015558,0.052542,0.000000,-0.042420,-0.168354,-0.000000
4.760000,3.370249,-0.286669,-1.479050,0.098909,0.061259,0.001681,-0.504046,0.150085,-0.089962,1.663627,-0.414832,0.308067,-2.605638,1.228055,-0.094980,0.015139,0.050870,0.000000,-0.041240,-0.166010,0.000000
4.770000,3.371214,-0.286049,-1.479037,0.093951,0.062739,0.000797,-0.487547,0.145999,-0.086887,1.635655,-0.402268,0.306668,-2.939362,1.271535,-0.174168,0.014733,0.049223,0.000000,-0.040013,-0.163329,-0.000000
4.780000,3.372129,-0.285415,-1.479034,0.089157,0.064179,-0.000056,-0.471339,0.142039,-0.083830,1.605875,-0.389676,0.304808,-3.015990,1.246223,-0.197605,0.014339,0.047604,0.000000,-0.038782,-0.160462,-0.000000
4.790000,3.372997,-0.284766,-1.479038,0.084523,0.065580,-0.000879,-0.455435,0.138205,-0.080792,1.574299,-0.377093,0.302489,-3.351107,1.282980,-0.277499,0.013957,0.046014,0.000000,-0.037550,-0.157411,0.000000
4.800000,3.373820,-0.284103,-1.479051,0.080047,0.066944,-0.001672,-0.439865,0.134499,-0.077783,1.539260,-0.364130,0.299346,-3.607272,1.296415,-0.340502,0.013588,0.044456,0.000000,-0.036279,-0.154007,0.000000
4.810000,3.374599,-0.283427,-1.479072,0.075725,0.068271,-0.002435,-0.424655,0.130922,-0.074806,1.502474,-0.351226,0.295837,-3.861625,1.306905,-0.401095,0.013232,0.042934,0.000000,-0.035012,-0.150422,0.000000
4.820000,3.375335,-0.282738,-1.479100,0.071553,0.069562,-0.003169,-0.409834,0.127477,-0.071871,1.460992,-0.337788,0.290963,-4.329877,1.358804,-0.536380,0.012888,0.041450,0.000000,-0.033690,-0.146361,0.000000
4.830000,3.376030,-0.282036,-1.479135,0.067527,0.070821,-0.003873,-0.395439,0.124166,-0.068988,1.418077,-0.324511,0.285890,-4.251627,1.295922,-0.477574,0.012558,0.040007,0.000000,-0.032382,-0.142147,-0.000000
4.840000,3.376686,-0.281321,-1.479177,0.063643,0.072046,-0.004549,-0.381476,0.120986,-0.066154,1.373771,-0.311427,0.280644,-4.718780,1.343030,-0.609933,0.012241,0.038607,0.000000,-0.031092,-0.137786,0.000000
4.850000,3.377304,-0.280595,-1.479226,0.059896,0.073241,-0.005196,-0.367982,0.117939,-0.063380,1.324571,-0.297835,0.274000,-5.016245,1.353292,-0.681221,0.011936,0.037253,0.000000,-0.029750,-0.132927,-0.000000
4.860000,3.377884,-0.279857,-1.479281,0.056281,0.074405,-0.005816,-0.354992,0.115029,-0.060675,1.272831,-0.284240,0.266807,-5.334102,1.365942,-0.758065,0.011646,0.035949,0.000000,-0.028406,-0.127805,0.000000
4.870000,3.378430,-0.279107,-1.479342,0.052794,0.075542,-0.006410,-0.342536,0.112255,-0.058047,1.217840,-0.270511,0.258827,-5.666823,1.380059,-0.838525,0.011368,0.034698,0.000000,-0.027046,-0.122347,-0.000000
4.880000,3.378941,-0.278346,-1.479409,0.049429,0.076651,-0.006978,-0.330647,0.109619,-0.055502,1.159441,-0.256633,0.250023,-6.015657,1.396088,-0.922946,0.011105,0.033503,0.000000,-0.025671,-0.116537,-0.000000
4.890000,3.379419,-0.277574,-1.479482,0.046179,0.077735,-0.007520,-0.319359,0.107123,-0.053049,1.097469,-0.242582,0.240353,-6.381858,1.414476,-1.011728,0.010855,0.032368,0.000000,-0.024276,-0.110359,-0.000000
4.900000,3.379865,-0.276791,-1.479559,0.043039,0.078794,-0.008039,-0.308710,0.104768,-0.050698,1.031746,-0.228334,0.229778,-6.766316,1.435661,-1.104655,0.010619,0.031297,0.000000,-0.022860,-0.103795,-0.000000
4.910000,3.380280,-0.275998,-1.479642,0.040003,0.079830,-0.008535,-0.298737,0.102557,-0.048457,0.962078,-0.213858,0.218246,-7.170680,1.460105,-1.202669,0.010398,0.030293,0.000000,-0.021420,-0.096824,-0.000000
4.920000,3.380665,-0.275195,-1.479730,0.037062,0.080846,-0.009008,-0.289482,0.100492,-0.046336,0.888262,-0.199119,0.205707,-7.596006,1.488247,-1.305869,0.010191,0.029362,0.000000,-0.019952,-0.089426,0.000000
4.930000,3.381021,-0.274381,-1.479822,0.034211,0.081841,-0.009462,-0.280987,0.098575,-0.044346,0.810084,-0.184079,0.192110,-8.043486,1.520531,-1.414605,0.009999,0.028506,0.000000,-0.018452,-0.081579,0.000000
4.940000,3.381350,-0.273558,-1.479919,0.031440,0.082818,-0.009896,-0.273296,0.096811,-0.042497,0.727315,-0.168693,0.177395,-8.514299,1.557400,-1.529287,0.009822,0.027732,0.000000,-0.016917,-0.073261,-0.000000
4.950000,3.381650,-0.272725,-1.480020,0.028742,0.083777,-0.010312,-0.266457,0.095203,-0.040802,0.639711,-0.152914,0.161510,-9.010075,1.599340,-1.649577,0.009661,0.027043,0.000000,-0.015341,-0.064446,0.000000
4.960000,3.381925,-0.271883,-1.480125,0.026108,0.084722,-0.010712,-0.260518,0.093755,-0.039271,0.547026,-0.136688,0.144385,-9.531523,1.646749,-1.776580,0.009515,0.026444,0.000000,-0.013719,-0.055111,-0.000000
4.970000,3.382173,-0.271031,-1.480235,0.023528,0.085653,-0.011098,-0.255534,0.092471,-0.037919,0.448991,-0.119959,0.125956,-10.080065,1.700092,-1.910322,0.009386,0.025942,0.000000,-0.012045,-0.045228,0.000000
4.980000,3.382395,-0.270170,-1.480347,0.020994,0.086572,-0.011471,-0.251557,0.091357,-0.036757,0.345330,-0.102665,0.106155,-10.656953,1.759820,-2.051131,0.009275,0.025542,0.000000,-0.010314,-0.034771,0.000000
4.990000,3.382593,-0.269299,-1.480464,0.018494,0.087481,-0.011834,-0.248647,0.090420,-0.035800,0.235753,-0.084740,0.084908,-11.263463,1.826388,-2.199372,0.009180,0.025249,0.000000,-0.008519,-0.023711,0.000000
5.000000,3.382765,-0.268420,-1.480584,0.016017,0.088381,-0.012188,-0.246863,0.089665,-0.035064,0.119957,-0.066113,0.062141,-11.900902,1.900260,-2.355477,0.009104,0.025070,0.000000,-0.006652,-0.012018,-0.000000
