time,x,y,z,vx,vy,vz,ax,ay,az,jx,jy,jz,sx,sy,sz,roll,pitch,yaw,p,q,r
0.000000,-3.388548,-0.245503,-1.483633,-0.015763,-0.005333,0.009791,0.298372,-0.087400,-0.069257,13.681042,-3.872400,-2.566488,-110.878130,45.493790,78.646573,-0.008843,-0.030193,0.000000,-0.389099,-1.375670,0.000000
0.010000,-3.388705,-0.245557,-1.483535,-0.012779,-0.006207,0.009098,0.435182,-0.126124,-0.094922,12.572260,-3.417462,-1.780022,-496.122766,161.049968,172.033671,-0.012721,-0.043908,0.000000,-0.341649,-1.258866,0.000000
0.020000,-3.388803,-0.245627,-1.483451,-0.007059,-0.007855,0.007892,0.549817,-0.155749,-0.104858,3.758586,-0.651401,0.874185,-802.755451,246.366423,207.586078,-0.015683,-0.055397,0.000000,-0.066632,-0.382751,-0.000000
0.030000,-3.388846,-0.245714,-1.483377,-0.001783,-0.009322,0.007001,0.510354,-0.139152,-0.077438,-3.482849,1.509866,2.371699,-318.171095,94.051902,41.033416,-0.014054,-0.051571,0.000000,0.148856,0.338932,-0.000000
0.040000,-3.388839,-0.245814,-1.483311,0.003148,-0.010638,0.006344,0.480160,-0.125552,-0.057424,-2.604835,1.229637,1.694854,83.089386,-26.158443,-61.692860,-0.012708,-0.048623,0.000000,0.122108,0.255001,-0.000000
0.050000,-3.388783,-0.245926,-1.483250,0.007821,-0.011833,0.005853,0.458257,-0.114559,-0.043541,-1.821061,0.986698,1.137842,74.014751,-22.593408,-50.426100,-0.011613,-0.046473,0.000000,0.098577,0.179043,-0.000000
0.060000,-3.388682,-0.246050,-1.483194,0.012313,-0.012929,0.005473,0.443739,-0.105818,-0.034667,-1.124540,0.777769,0.686332,65.623752,-19.347997,-40.548369,-0.010737,-0.045044,0.000000,0.078113,0.110854,0.000000
0.070000,-3.388537,-0.246185,-1.483141,0.016695,-0.013949,0.005159,0.435767,-0.099004,-0.029815,-0.508586,0.599738,0.326875,57.886889,-16.405984,-31.971179,-0.010051,-0.044257,0.000000,0.060528,0.050115,0.000000
0.080000,-3.388348,-0.246329,-1.483091,0.021028,-0.014910,0.004877,0.433567,-0.093823,-0.028129,0.033197,0.449650,0.046908,50.774719,-13.751139,-24.606030,-0.009527,-0.044042,0.000000,0.045612,-0.003577,-0.000000
0.090000,-3.388117,-0.246483,-1.483043,0.025367,-0.015826,0.004597,0.436431,-0.090011,-0.028876,0.506909,0.324715,-0.165246,44.257738,-11.367237,-18.364432,-0.009139,-0.044329,0.000000,0.033142,-0.050674,0.000000
0.100000,-3.387841,-0.246646,-1.482999,0.029757,-0.016710,0.004299,0.443705,-0.087329,-0.031434,0.918352,0.222305,-0.320381,38.306433,-9.238048,-13.157897,-0.008864,-0.045055,0.000000,0.022889,-0.091657,-0.000000
0.110000,-3.387521,-0.246817,-1.482957,0.034241,-0.017572,0.003968,0.454798,-0.085565,-0.035284,1.273037,0.139954,-0.428404,32.891339,-7.347345,-8.897936,-0.008681,-0.046162,0.000000,0.014628,-0.127018,-0.000000
0.120000,-3.387156,-0.246997,-1.482919,0.038853,-0.018421,0.003593,0.469166,-0.084530,-0.040002,1.576179,0.075358,-0.498339,27.982964,-5.678900,-5.496045,-0.008572,-0.047595,0.000000,0.008139,-0.157246,0.000000
0.130000,-3.386744,-0.247186,-1.482885,0.043624,-0.019263,0.003168,0.486321,-0.084058,-0.045251,1.832697,0.026376,-0.538325,23.551812,-4.216484,-2.863733,-0.008519,-0.049306,0.000000,0.003215,-0.182814,0.000000
0.140000,-3.386284,-0.247383,-1.482856,0.048579,-0.020102,0.002688,0.505820,-0.084002,-0.050769,2.047215,-0.008972,-0.555614,19.568431,-2.943873,-0.912550,-0.008507,-0.051251,0.000000,-0.000340,-0.204177,-0.000000
0.150000,-3.385773,-0.247588,-1.482832,0.053740,-0.020943,0.002153,0.527265,-0.084237,-0.056363,2.224065,-0.032502,-0.556576,16.003298,-1.844835,0.446025,-0.008525,-0.053390,0.000000,-0.002707,-0.221763,-0.000000
0.160000,-3.385209,-0.247801,-1.482813,0.059125,-0.021787,0.001561,0.550301,-0.084652,-0.061900,2.367281,-0.045868,-0.546694,12.826883,-0.903143,1.300529,-0.008562,-0.055687,0.000000,-0.004052,-0.235971,0.000000
0.170000,-3.384590,-0.248024,-1.482800,0.064746,-0.022636,0.000915,0.574611,-0.085154,-0.067297,2.480603,-0.050564,-0.530565,10.008182,-0.101076,1.751938,-0.008606,-0.058109,0.000000,-0.004524,-0.247171,0.000000
0.180000,-3.383914,-0.248254,-1.482795,0.070617,-0.023490,0.000215,0.599914,-0.085664,-0.072512,2.567445,-0.047890,-0.511655,7.490101,0.603691,2.107796,-0.008652,-0.060630,0.000000,-0.004254,-0.255702,-0.000000
0.190000,-3.383178,-0.248493,-1.482796,0.076745,-0.024349,-0.000536,0.625960,-0.086112,-0.077530,2.630405,-0.038491,-0.488409,5.252657,1.218363,2.380879,-0.008692,-0.063224,0.000000,-0.003311,-0.261846,0.000000
0.200000,-3.382379,-0.248741,-1.482805,0.083136,-0.025212,-0.001335,0.652522,-0.086433,-0.082280,2.672498,-0.023523,-0.464037,3.470148,1.566584,1.043140,-0.008718,-0.065867,0.000000,-0.001811,-0.265899,-0.000000
0.210000,-3.381515,-0.248998,-1.482823,0.089795,-0.026078,-0.002181,0.679410,-0.086583,-0.086811,2.699808,-0.007159,-0.467547,2.091260,1.685214,-1.643740,-0.008728,-0.068542,0.000000,-0.000149,-0.268278,-0.000000
0.220000,-3.380583,-0.249263,-1.482849,0.096724,-0.026944,-0.003072,0.706518,-0.086577,-0.091631,2.714323,0.010182,-0.496912,0.501122,2.143206,-0.955238,-0.008721,-0.071233,0.000000,0.001631,-0.269167,-0.000000
0.230000,-3.379581,-0.249537,-1.482884,0.103926,-0.027809,-0.004014,0.733696,-0.086379,-0.096749,2.709830,0.035705,-0.486651,-1.359186,2.975849,3.296020,-0.008695,-0.073925,0.000000,0.004194,-0.268413,-0.000000
0.240000,-3.378505,-0.249819,-1.482929,0.111398,-0.028672,-0.005007,0.760714,-0.085862,-0.101364,2.687139,0.069699,-0.430992,-2.701449,3.429599,4.758308,-0.008637,-0.076602,0.000000,0.007563,-0.266201,-0.000000
0.250000,-3.377353,-0.250110,-1.482984,0.119140,-0.029527,-0.006041,0.787439,-0.084985,-0.105369,2.655801,0.104297,-0.391485,-3.330821,3.373350,2.734004,-0.008544,-0.079250,0.000000,0.011001,-0.263043,0.000000
0.260000,-3.376122,-0.250409,-1.483050,0.127147,-0.030371,-0.007114,0.813830,-0.083777,-0.109193,2.620523,0.137166,-0.376311,-3.830264,3.339477,1.595752,-0.008417,-0.081863,0.000000,0.014279,-0.259320,0.000000
0.270000,-3.374810,-0.250717,-1.483127,0.135416,-0.031202,-0.008225,0.839850,-0.082242,-0.112895,2.579196,0.171087,-0.359570,-4.670474,3.575315,2.078243,-0.008258,-0.084436,0.000000,0.017657,-0.255021,0.000000
0.280000,-3.373414,-0.251033,-1.483214,0.143944,-0.032016,-0.009372,0.865414,-0.080355,-0.116385,2.527113,0.208672,-0.334747,-5.700927,3.915920,2.694696,-0.008064,-0.086963,0.000000,0.021389,-0.249739,0.000000
0.290000,-3.371931,-0.251358,-1.483314,0.152725,-0.032809,-0.010553,0.890392,-0.078068,-0.119590,2.465177,0.249405,-0.305676,-6.364068,4.082691,2.863104,-0.007831,-0.089431,0.000000,0.025428,-0.243540,-0.000000
0.300000,-3.370359,-0.251690,-1.483425,0.161752,-0.033577,-0.011764,0.914718,-0.075367,-0.122498,2.399832,0.290326,-0.277485,-6.556304,4.049849,2.737867,-0.007556,-0.091834,0.000000,0.029481,-0.237024,-0.000000
0.310000,-3.368696,-0.252029,-1.483549,0.171019,-0.034317,-0.013003,0.938389,-0.072262,-0.125140,2.334051,0.330402,-0.250919,-6.680060,4.009288,2.666665,-0.007241,-0.094172,0.000000,0.033447,-0.230481,0.000000
0.320000,-3.366939,-0.252376,-1.483686,0.180520,-0.035023,-0.014266,0.961399,-0.068759,-0.127517,2.266231,0.370511,-0.224151,-7.041090,4.062342,2.699663,-0.006887,-0.096444,0.000000,0.037414,-0.223766,-0.000000
0.330000,-3.365086,-0.252730,-1.483835,0.190247,-0.035692,-0.015553,0.983713,-0.064852,-0.129623,2.193230,0.411649,-0.196926,-7.533430,4.151891,2.723259,-0.006493,-0.098648,0.000000,0.041480,-0.216569,0.000000
0.340000,-3.363134,-0.253090,-1.483997,0.200194,-0.036320,-0.016859,1.005263,-0.060526,-0.131455,2.115562,0.453549,-0.169686,-7.796530,4.162091,2.703114,-0.006057,-0.100776,0.000000,0.045620,-0.208936,0.000000
0.350000,-3.361082,-0.253456,-1.484172,0.210352,-0.036902,-0.018182,1.026024,-0.055781,-0.133016,2.037299,0.494891,-0.142863,-7.764722,4.079433,2.654282,-0.005580,-0.102827,0.000000,0.049704,-0.201268,-0.000000
0.360000,-3.358927,-0.253828,-1.484360,0.220714,-0.037435,-0.019519,1.046009,-0.050628,-0.134312,1.960268,0.535138,-0.116600,-7.697525,3.984895,2.597683,-0.005063,-0.104801,0.000000,0.053679,-0.193745,0.000000
0.370000,-3.356667,-0.254205,-1.484562,0.231273,-0.037915,-0.020868,1.065230,-0.045078,-0.135348,1.883348,0.574589,-0.090910,-7.791634,3.925737,2.533104,-0.004507,-0.106702,0.000000,0.057576,-0.186252,-0.000000
0.380000,-3.354301,-0.254586,-1.484778,0.242019,-0.038337,-0.022226,1.083676,-0.039136,-0.136131,1.804435,0.613653,-0.065938,-7.978435,3.878629,2.455269,-0.003912,-0.108526,0.000000,0.061436,-0.178577,-0.000000
0.390000,-3.351827,-0.254972,-1.485007,0.252946,-0.038698,-0.023591,1.101319,-0.032805,-0.136667,1.723780,0.652161,-0.041804,-8.025427,3.789267,2.368443,-0.003278,-0.110273,0.000000,0.065243,-0.170743,0.000000
0.400000,-3.349242,-0.255360,-1.485249,0.264045,-0.038993,-0.024960,1.118152,-0.026093,-0.136967,1.643927,0.689438,-0.018569,-7.890243,3.650488,2.271601,-0.002607,-0.111941,0.000000,0.068930,-0.162999,-0.000000
0.410000,-3.346546,-0.255751,-1.485506,0.275309,-0.039219,-0.026330,1.134197,-0.019016,-0.137039,1.565975,0.725171,0.003628,-7.739940,3.500792,2.163502,-0.001899,-0.113533,0.000000,0.072467,-0.155451,-0.000000
0.420000,-3.343736,-0.256145,-1.485776,0.286729,-0.039373,-0.027700,1.149472,-0.011589,-0.136894,1.489128,0.759454,0.024701,-7.700580,3.364316,2.054221,-0.001157,-0.115051,0.000000,0.075863,-0.148018,-0.000000
0.430000,-3.340811,-0.256539,-1.486060,0.298299,-0.039451,-0.029068,1.163980,-0.003827,-0.136545,1.411963,0.792457,0.044712,-7.727881,3.230320,1.945725,-0.000382,-0.116494,0.000000,0.079136,-0.140556,-0.000000
0.440000,-3.337770,-0.256934,-1.486357,0.310009,-0.039450,-0.030431,1.177711,0.004260,-0.136000,1.334570,0.824060,0.063615,-7.672470,3.071169,1.826159,0.000425,-0.117862,0.000000,0.082275,-0.133073,-0.000000
0.450000,-3.334611,-0.257328,-1.486668,0.321853,-0.039366,-0.031788,1.190671,0.012654,-0.135272,1.258514,0.853881,0.081235,-7.505542,2.883245,1.695718,0.001263,-0.119155,0.000000,0.085240,-0.125720,-0.000000
0.460000,-3.331333,-0.257721,-1.486993,0.333822,-0.039197,-0.033137,1.202881,0.021337,-0.134375,1.184459,0.881725,0.097529,-7.334197,2.686442,1.563898,0.002130,-0.120376,0.000000,0.088014,-0.118560,0.000000
0.470000,-3.327935,-0.258112,-1.487331,0.345910,-0.038939,-0.034476,1.214360,0.030289,-0.133322,1.111830,0.907610,0.112513,-7.243429,2.493150,1.430404,0.003024,-0.121526,0.000000,0.090597,-0.111535,0.000000
0.480000,-3.324415,-0.258500,-1.487683,0.358110,-0.038591,-0.035803,1.225118,0.039490,-0.132125,1.039591,0.931588,0.126137,-7.204643,2.298045,1.293904,0.003942,-0.122607,0.000000,0.092996,-0.104539,-0.000000
0.490000,-3.320773,-0.258884,-1.488047,0.370413,-0.038149,-0.037118,1.235152,0.048921,-0.130799,0.967737,0.953570,0.138391,-7.115871,2.087293,1.157385,0.004884,-0.123617,0.000000,0.095199,-0.097572,0.000000
0.500000,-3.317007,-0.259263,-1.488425,0.382813,-0.037613,-0.038419,1.244472,0.058561,-0.129357,0.897273,0.973334,0.149285,-6.958619,1.858987,1.015717,0.005846,-0.124558,0.000000,0.097187,-0.090731,0.000000
0.510000,-3.313116,-0.259636,-1.488816,0.395302,-0.036978,-0.039705,1.253097,0.068387,-0.127813,0.828565,0.990750,0.158706,-6.805303,1.623380,0.868698,0.006827,-0.125432,0.000000,0.098944,-0.084050,0.000000
0.520000,-3.309101,-0.260002,-1.489219,0.407875,-0.036245,-0.040975,1.261044,0.078376,-0.126183,0.761167,1.005802,0.166659,-6.708274,1.387616,0.736106,0.007825,-0.126239,0.000000,0.100469,-0.077484,-0.000000
0.530000,-3.304959,-0.260361,-1.489635,0.420523,-0.035411,-0.042229,1.268321,0.088503,-0.124480,0.694399,1.018502,0.173428,-6.647497,1.149180,0.620712,0.008837,-0.126982,0.000000,0.101763,-0.070967,-0.000000
0.540000,-3.300690,-0.260710,-1.490064,0.433241,-0.034475,-0.043465,1.274932,0.098746,-0.122714,0.628217,1.028785,0.179073,-6.560344,0.900245,0.496684,0.009860,-0.127659,0.000000,0.102819,-0.064496,0.000000
0.550000,-3.296294,-0.261050,-1.490504,0.446022,-0.033436,-0.044683,1.280885,0.109079,-0.120899,0.563192,1.036507,0.183362,-6.435287,0.639848,0.354949,0.010893,-0.128272,0.000000,0.103622,-0.058122,-0.000000
0.560000,-3.291770,-0.261379,-1.490957,0.458859,-0.032293,-0.045883,1.286196,0.119476,-0.119047,0.499512,1.041582,0.186172,-6.316472,0.373996,0.214642,0.011933,-0.128821,0.000000,0.104162,-0.051863,-0.000000
0.570000,-3.287117,-0.261696,-1.491422,0.471746,-0.031046,-0.047064,1.290875,0.129911,-0.117175,0.436863,1.043987,0.187654,-6.236809,0.106685,0.098252,0.012976,-0.129309,0.000000,0.104437,-0.045688,0.000000
0.580000,-3.282335,-0.262000,-1.491899,0.484676,-0.029695,-0.048226,1.294933,0.140356,-0.115294,0.374775,1.043716,0.188137,-6.184149,-0.163473,0.000521,0.014021,-0.129735,0.000000,0.104446,-0.039555,-0.000000
0.590000,-3.277423,-0.262290,-1.492387,0.497644,-0.028239,-0.049370,1.298371,0.150785,-0.113412,0.313180,1.040718,0.187665,-6.118465,-0.440553,-0.106731,0.015065,-0.130100,0.000000,0.104184,-0.033457,0.000000
0.600000,-3.272382,-0.262565,-1.492886,0.510644,-0.026679,-0.050495,1.301196,0.161170,-0.111541,0.252406,1.034905,0.186003,-6.030390,-0.724562,-0.225159,0.016105,-0.130404,0.000000,0.103640,-0.027424,-0.000000
0.610000,-3.267211,-0.262824,-1.493397,0.523668,-0.025016,-0.051601,1.303419,0.171483,-0.109692,0.192572,1.026227,0.183162,-5.947955,-1.012159,-0.335461,0.017138,-0.130649,0.000000,0.102810,-0.021465,-0.000000
0.620000,-3.261909,-0.263065,-1.493918,0.536712,-0.023250,-0.052689,1.305048,0.181695,-0.107878,0.133447,1.014662,0.179294,-5.897000,-1.302088,-0.435620,0.018161,-0.130834,0.000000,0.101690,-0.015562,-0.000000
0.630000,-3.256476,-0.263289,-1.494450,0.549769,-0.021382,-0.053758,1.306088,0.191776,-0.106106,0.074632,1.000185,0.174449,-5.869658,-1.595009,-0.531457,0.019172,-0.130960,0.000000,0.100277,-0.009674,-0.000000
0.640000,-3.250913,-0.263493,-1.494993,0.562834,-0.019414,-0.054811,1.306540,0.201698,-0.104389,0.016054,0.982762,0.168664,-5.833115,-1.891560,-0.623560,0.020167,-0.131027,0.000000,0.098568,-0.003794,-0.000000
0.650000,-3.245220,-0.263677,-1.495547,0.575900,-0.017348,-0.055846,1.306409,0.211432,-0.102733,-0.042030,0.962354,0.161978,-5.780795,-2.191304,-0.715213,0.021143,-0.131036,0.000000,0.096558,0.002050,-0.000000
0.660000,-3.239395,-0.263840,-1.496110,0.588962,-0.015185,-0.056865,1.305700,0.220946,-0.101149,-0.099562,0.938935,0.154360,-5.735045,-2.493261,-0.805690,0.022098,-0.130986,0.000000,0.094245,0.007855,-0.000000
0.670000,-3.233440,-0.263981,-1.496684,0.602014,-0.012929,-0.057869,1.304418,0.230210,-0.099646,-0.156731,0.912488,0.145864,-5.711381,-2.797187,-0.882299,0.023028,-0.130879,0.000000,0.091625,0.013638,0.000000
0.680000,-3.227355,-0.264098,-1.497268,0.615050,-0.010581,-0.058858,1.302565,0.239195,-0.098232,-0.213790,0.882992,0.136714,-5.702817,-3.103029,-0.944607,0.023931,-0.130713,0.000000,0.088697,0.019422,0.000000
0.690000,-3.221139,-0.264192,-1.497861,0.628065,-0.008145,-0.059834,1.300142,0.247870,-0.096912,-0.270787,0.850428,0.126972,-5.689561,-3.410237,-1.009854,0.024802,-0.130490,0.000000,0.085460,0.025209,-0.000000
0.700000,-3.214794,-0.264261,-1.498464,0.641053,-0.005624,-0.060796,1.297149,0.256204,-0.095692,-0.327581,0.814787,0.116517,-5.667321,-3.717954,-1.080093,0.025640,-0.130209,0.000000,0.081910,0.030988,-0.000000
0.710000,-3.208318,-0.264305,-1.499077,0.654008,-0.003021,-0.061748,1.293590,0.264166,-0.094581,-0.384134,0.776069,0.105370,-5.649028,-4.026026,-1.143578,0.026440,-0.129870,0.000000,0.078048,0.036754,0.000000
0.720000,-3.201714,-0.264322,-1.499699,0.666925,-0.000341,-0.062688,1.289467,0.271725,-0.093585,-0.440561,0.734266,0.093646,-5.644793,-4.335460,-1.198092,0.027201,-0.129474,0.000000,0.073874,0.042517,-0.000000
0.730000,-3.194980,-0.264311,-1.500331,0.679798,0.002413,-0.063619,1.284779,0.278851,-0.092708,-0.497030,0.689360,0.081408,-5.650256,-4.645993,-1.247883,0.027918,-0.129019,0.000000,0.069385,0.048293,0.000000
0.740000,-3.188118,-0.264273,-1.500972,0.692621,0.005237,-0.064542,1.279526,0.285512,-0.091957,-0.553567,0.641347,0.068688,-5.651710,-4.955399,-1.294979,0.028588,-0.128507,0.000000,0.064581,0.054083,0.000000
0.750000,-3.181127,-0.264207,-1.501622,0.705388,0.008124,-0.065458,1.273708,0.291678,-0.091335,-0.610064,0.590252,0.055509,-5.646172,-5.262377,-1.337838,0.029209,-0.127937,0.000000,0.059464,0.059876,-0.000000
0.760000,-3.174010,-0.264111,-1.502281,0.718095,0.011070,-0.066369,1.267325,0.297317,-0.090847,-0.666490,0.536099,0.041931,-5.642147,-5.567893,-1.375446,0.029778,-0.127309,0.000000,0.054037,0.065669,0.000000
0.770000,-3.166766,-0.263985,-1.502949,0.730735,0.014070,-0.067275,1.260378,0.302400,-0.090496,-0.722907,0.478894,0.028000,-5.645321,-5.873921,-1.411277,0.030290,-0.126623,0.000000,0.048301,0.071466,-0.000000
0.780000,-3.159395,-0.263830,-1.503626,0.743302,0.017118,-0.068179,1.252867,0.306895,-0.090287,-0.779396,0.418621,0.013706,-5.652335,-6.179839,-1.446242,0.030744,-0.125879,0.000000,0.042253,0.077275,0.000000
0.790000,-3.151899,-0.263643,-1.504313,0.755792,0.020208,-0.069081,1.244790,0.310772,-0.090222,-0.835954,0.355297,-0.000925,-5.654892,-6.482119,-1.475493,0.031135,-0.125077,0.000000,0.035895,0.083095,0.000000
0.800000,-3.144279,-0.263425,-1.505008,0.768198,0.023334,-0.069983,1.236148,0.314001,-0.090305,-0.892494,0.288978,-0.015804,-5.651507,-6.779150,-1.495765,0.031462,-0.124217,0.000000,0.029234,0.088917,0.000000
0.810000,-3.136536,-0.263176,-1.505712,0.780515,0.026488,-0.070887,1.226940,0.316552,-0.090538,-0.948984,0.219714,-0.030840,-5.646797,-7.072724,-1.510624,0.031720,-0.123298,0.000000,0.022275,0.094734,-0.000000
0.820000,-3.128669,-0.262896,-1.506426,0.792737,0.029665,-0.071794,1.217168,0.318396,-0.090922,-1.005430,0.147524,-0.046017,-5.642241,-7.365458,-1.528396,0.031907,-0.122321,0.000000,0.015020,0.100549,0.000000
0.830000,-3.120681,-0.262583,-1.507148,0.804858,0.032856,-0.072706,1.206832,0.319503,-0.091458,-1.061829,0.072405,-0.061408,-5.635399,-7.656427,-1.548642,0.032020,-0.121286,0.000000,0.007468,0.106360,0.000000
0.840000,-3.112572,-0.262238,-1.507880,0.816873,0.036055,-0.073623,1.195931,0.319844,-0.092150,-1.118138,-0.005605,-0.076990,-5.623380,-7.941203,-1.560030,0.032056,-0.120193,0.000000,-0.000376,0.112163,-0.000000
0.850000,-3.104343,-0.261862,-1.508621,0.828777,0.039253,-0.074549,1.184469,0.319390,-0.092998,-1.174296,-0.086419,-0.092609,-5.606119,-8.217984,-1.557680,0.032013,-0.119042,0.000000,-0.008504,0.117950,0.000000
0.860000,-3.095996,-0.261453,-1.509371,0.840563,0.042442,-0.075483,1.172446,0.318115,-0.094002,-1.230261,-0.169964,-0.108143,-5.584326,-8.489087,-1.549373,0.031886,-0.117833,0.000000,-0.016906,0.123714,-0.000000
0.870000,-3.087532,-0.261013,-1.510130,0.852226,0.045615,-0.076429,1.159864,0.315991,-0.095161,-1.285983,-0.256201,-0.123596,-5.555821,-8.757407,-1.546821,0.031675,-0.116566,0.000000,-0.025579,0.129450,-0.000000
0.880000,-3.078952,-0.260541,-1.510899,0.863760,0.048762,-0.077386,1.146726,0.312991,-0.096474,-1.341377,-0.345113,-0.139080,-5.519170,-9.021768,-1.548330,0.031375,-0.115242,0.000000,-0.034521,0.135151,-0.000000
0.890000,-3.070257,-0.260038,-1.511678,0.875160,0.051875,-0.078358,1.133036,0.309089,-0.097943,-1.396366,-0.436636,-0.154563,-5.476244,-9.277303,-1.537876,0.030984,-0.113862,0.000000,-0.043726,0.140808,0.000000
0.900000,-3.061449,-0.259504,-1.512466,0.886421,0.054944,-0.079345,1.118799,0.304258,-0.099565,-1.450902,-0.530659,-0.169837,-5.428881,-9.522239,-1.508160,0.030500,-0.112425,0.000000,-0.053181,0.146414,0.000000
0.910000,-3.052528,-0.258939,-1.513265,0.897536,0.057960,-0.080349,1.104018,0.298476,-0.101339,-1.504944,-0.627081,-0.184726,-5.374537,-9.759091,-1.469969,0.029921,-0.110932,0.000000,-0.062875,0.151962,-0.000000
0.920000,-3.043498,-0.258344,-1.514073,0.908501,0.060914,-0.081372,1.088700,0.291717,-0.103260,-1.558393,-0.725840,-0.199236,-5.306356,-9.990487,-1.440840,0.029243,-0.109384,0.000000,-0.072801,0.157443,0.000000
0.930000,-3.034358,-0.257721,-1.514892,0.919310,0.063794,-0.082415,1.072850,0.283959,-0.105324,-1.611071,-0.826891,-0.213543,-5.223780,-10.215082,-1.416703,0.028465,-0.107782,0.000000,-0.082955,0.162840,-0.000000
0.940000,-3.025112,-0.257069,-1.515722,0.929958,0.066593,-0.083479,1.056478,0.275179,-0.107531,-1.662868,-0.930142,-0.227571,-5.134824,-10.428267,-1.373572,0.027584,-0.106126,0.000000,-0.093328,0.168141,-0.000000
0.950000,-3.015759,-0.256389,-1.516562,0.940440,0.069298,-0.084565,1.039593,0.265356,-0.109876,-1.713767,-1.035456,-0.241014,-5.042836,-10.628398,-1.312493,0.026598,-0.104418,0.000000,-0.103903,0.173341,0.000000
0.960000,-3.006303,-0.255683,-1.517413,0.950750,0.071900,-0.085676,1.022203,0.254470,-0.112351,-1.763725,-1.142710,-0.253820,-4.941247,-10.817718,-1.248486,0.025506,-0.102658,0.000000,-0.114668,0.178436,-0.000000
0.970000,-2.996744,-0.254951,-1.518275,0.960884,0.074387,-0.086812,1.004318,0.242502,-0.114952,-1.812592,-1.251811,-0.265984,-4.820062,-10.998388,-1.172892,0.024305,-0.100848,0.000000,-0.125613,0.183409,-0.000000
0.980000,-2.987085,-0.254195,-1.519149,0.970836,0.076750,-0.087975,0.985951,0.229434,-0.117671,-1.860126,-1.362678,-0.277278,-4.680576,-11.169089,-1.080816,0.022993,-0.098989,0.000000,-0.136729,0.188235,-0.000000
0.990000,-2.977328,-0.253416,-1.520035,0.980603,0.078976,-0.089166,0.967116,0.215248,-0.120497,-1.906204,-1.475192,-0.287600,-4.534916,-11.325717,-0.983979,0.021570,-0.097082,0.000000,-0.148003,0.192900,0.000000
1.000000,-2.967473,-0.252615,-1.520933,0.990179,0.081055,-0.090385,0.947827,0.199930,-0.123423,-1.950824,-1.589192,-0.296958,-4.383798,-11.466553,-0.873500,0.020033,-0.095130,0.000000,-0.159418,0.197405,-0.000000
1.010000,-2.957524,-0.251795,-1.521843,0.999559,0.082975,-0.091634,0.928099,0.183464,-0.126437,-1.993880,-1.704523,-0.305070,-4.218381,-11.593435,-0.741165,0.018382,-0.093133,0.000000,-0.170959,0.201737,-0.000000
1.020000,-2.947482,-0.250956,-1.522765,1.008741,0.084724,-0.092914,0.907949,0.165839,-0.129524,-2.035192,-1.821061,-0.311781,-4.037013,-11.708630,-0.615499,0.016614,-0.091095,0.000000,-0.182613,0.205876,-0.000000
1.030000,-2.937349,-0.250100,-1.523701,1.017718,0.086291,-0.094225,0.887396,0.147043,-0.132672,-2.074620,-1.938696,-0.317380,-3.841680,-11.810849,-0.499299,0.014729,-0.089015,0.000000,-0.194368,0.209813,-0.000000
1.040000,-2.927128,-0.249230,-1.524650,1.026489,0.087665,-0.095567,0.866457,0.127065,-0.135872,-2.112026,-2.057278,-0.321767,-3.633188,-11.895713,-0.351121,0.012727,-0.086898,0.000000,-0.206208,0.213532,0.000000
1.050000,-2.916819,-0.248347,-1.525612,1.035048,0.088833,-0.096942,0.845155,0.105898,-0.139108,-2.147284,-2.176610,-0.324403,-3.415242,-11.961855,-0.168483,0.010605,-0.084744,0.000000,-0.218115,0.217018,-0.000000
1.060000,-2.906427,-0.247453,-1.526589,1.043392,0.089783,-0.098349,0.823511,0.083533,-0.142360,-2.180330,-2.296515,-0.325137,-3.186522,-12.011190,0.021947,0.008365,-0.082557,0.000000,-0.230070,0.220264,-0.000000
1.070000,-2.895952,-0.246551,-1.527579,1.051518,0.090503,-0.099789,0.801548,0.059967,-0.145610,-2.211014,-2.416834,-0.323964,-2.934053,-12.044709,0.226452,0.006004,-0.080339,0.000000,-0.242057,0.223256,0.000000
1.080000,-2.885396,-0.245643,-1.528584,1.059423,0.090982,-0.101262,0.779291,0.035197,-0.148839,-2.239012,-2.537409,-0.320608,-2.656851,-12.061010,0.457754,0.003523,-0.078092,0.000000,-0.254061,0.225961,0.000000
1.090000,-2.874763,-0.244732,-1.529604,1.067104,0.091207,-0.102766,0.756768,0.009219,-0.152023,-2.264151,-2.658054,-0.314809,-2.372261,-12.057393,0.706225,0.000923,-0.075820,0.000000,-0.266065,0.228361,-0.000000
1.100000,-2.864054,-0.243819,-1.530640,1.074558,0.091167,-0.104302,0.734008,-0.017964,-0.155135,-2.286457,-2.778557,-0.306483,-2.085941,-12.032480,0.955905,-0.001798,-0.073525,0.000000,-0.278049,0.230460,-0.000000
1.110000,-2.853272,-0.242908,-1.531690,1.081784,0.090848,-0.105869,0.711039,-0.046352,-0.158152,-2.305870,-2.898704,-0.295691,-1.785479,-11.987005,1.216238,-0.004638,-0.071210,0.000000,-0.289993,0.232255,0.000000
1.120000,-2.842419,-0.242002,-1.532757,1.088779,0.090240,-0.107465,0.687891,-0.075939,-0.161049,-2.322166,-3.018297,-0.282159,-1.457773,-11.922270,1.530351,-0.007598,-0.068880,0.000000,-0.301878,0.233724,-0.000000
1.130000,-2.831496,-0.241104,-1.533840,1.095542,0.089329,-0.109090,0.664596,-0.106718,-0.163795,-2.335025,-3.137149,-0.265084,-1.106718,-11.837338,1.897754,-0.010676,-0.066536,0.000000,-0.313691,0.234831,-0.000000
1.140000,-2.820508,-0.240216,-1.534939,1.102071,0.088105,-0.110741,0.641190,-0.138682,-0.166351,-2.344301,-3.255044,-0.244203,-0.749039,-11.728878,2.261165,-0.013872,-0.064183,0.000000,-0.325412,0.235563,0.000000
1.150000,-2.809455,-0.239341,-1.536055,1.108365,0.086556,-0.112417,0.617710,-0.171819,-0.168679,-2.350006,-3.371727,-0.219860,-0.384894,-11.594834,2.612951,-0.017184,-0.061824,0.000000,-0.337020,0.235928,-0.000000
1.160000,-2.798340,-0.238484,-1.537187,1.114425,0.084669,-0.114115,0.594190,-0.206116,-0.170748,-2.351999,-3.486940,-0.191944,-0.003198,-11.436368,2.992684,-0.020612,-0.059463,0.000000,-0.348494,0.235912,-0.000000
1.170000,-2.787166,-0.237648,-1.538337,1.120249,0.082433,-0.115832,0.570670,-0.241558,-0.172518,-2.350070,-3.600454,-0.160007,0.394420,-11.256327,3.412064,-0.024154,-0.057105,0.000000,-0.359816,0.235496,0.000000
1.180000,-2.775935,-0.236836,-1.539504,1.125838,0.079838,-0.117565,0.547189,-0.278125,-0.173948,-2.344110,-3.712067,-0.123703,0.804248,-11.053593,3.860243,-0.027808,-0.054752,0.000000,-0.370973,0.234671,-0.000000
1.190000,-2.764650,-0.236051,-1.540688,1.131193,0.076871,-0.119311,0.523787,-0.315799,-0.174992,-2.333985,-3.821526,-0.082802,1.229310,-10.822663,4.324467,-0.031573,-0.052409,0.000000,-0.381945,0.233425,-0.000000
1.200000,-2.753312,-0.235298,-1.541890,1.136314,0.073522,-0.121065,0.500509,-0.354556,-0.175604,-2.319524,-3.928520,-0.037214,1.668104,-10.561495,4.787743,-0.035447,-0.050081,0.000000,-0.392711,0.231745,0.000000
1.210000,-2.741923,-0.234581,-1.543109,1.141203,0.069780,-0.122823,0.477397,-0.394369,-0.175737,-2.300623,-4.032756,0.012953,2.118533,-10.272620,5.259529,-0.039428,-0.047772,0.000000,-0.403248,0.229625,-0.000000
1.220000,-2.730487,-0.233903,-1.544346,1.145862,0.065634,-0.124580,0.454496,-0.435211,-0.175345,-2.277153,-4.133973,0.067977,2.586984,-9.958234,5.791483,-0.043512,-0.045485,0.000000,-0.413539,0.227054,0.000000
1.230000,-2.719006,-0.233268,-1.545601,1.150293,0.061076,-0.126330,0.431854,-0.477049,-0.174377,-2.248883,-4.231921,0.128783,3.075097,-9.616539,6.384403,-0.047699,-0.043226,0.000000,-0.423572,0.224008,0.000000
1.240000,-2.707482,-0.232681,-1.546873,1.154499,0.056093,-0.128067,0.409519,-0.519849,-0.172769,-2.215651,-4.326303,0.195665,3.573426,-9.242960,6.966714,-0.051984,-0.041000,0.000000,-0.433331,0.220474,-0.000000
1.250000,-2.695916,-0.232146,-1.548162,1.158483,0.050679,-0.129785,0.387541,-0.563575,-0.170464,-2.177415,-4.416780,0.268117,4.075057,-8.836352,7.512890,-0.056366,-0.038810,0.000000,-0.442790,0.216453,0.000000
1.260000,-2.684312,-0.231668,-1.549469,1.162250,0.044822,-0.131476,0.365970,-0.608185,-0.167407,-2.134150,-4.503030,0.345923,4.586649,-8.398456,8.071646,-0.060840,-0.036663,0.000000,-0.451929,0.211948,-0.000000
1.270000,-2.672671,-0.231250,-1.550792,1.165803,0.038515,-0.133133,0.344858,-0.653635,-0.163545,-2.085682,-4.584749,0.429550,5.125352,-7.929071,8.699736,-0.065404,-0.034563,0.000000,-0.460731,0.206941,-0.000000
1.280000,-2.660996,-0.230897,-1.552131,1.169147,0.031749,-0.134747,0.324257,-0.699880,-0.158816,-2.031643,-4.661612,0.519917,5.691066,-7.426190,9.383304,-0.070055,-0.032516,0.000000,-0.469183,0.201395,0.000000
1.290000,-2.649288,-0.230615,-1.553487,1.172288,0.024517,-0.136310,0.304225,-0.746868,-0.153147,-1.971861,-4.733273,0.617216,6.259675,-6.888489,10.045280,-0.074788,-0.030526,0.000000,-0.477267,0.195294,-0.000000
1.300000,-2.637550,-0.230407,-1.554858,1.175232,0.016812,-0.137810,0.284820,-0.794545,-0.146472,-1.906450,-4.799382,0.720823,6.814757,-6.317653,10.660607,-0.079601,-0.028599,0.000000,-0.484960,0.188653,0.000000
1.310000,-2.625784,-0.230279,-1.556243,1.177984,0.008626,-0.139239,0.266096,-0.842855,-0.138731,-1.835565,-4.859626,0.830428,7.373025,-5.712997,11.279760,-0.084488,-0.026740,0.000000,-0.492243,0.181490,-0.000000
1.320000,-2.613990,-0.230235,-1.557642,1.180554,-0.000045,-0.140585,0.248108,-0.891738,-0.129863,-1.758989,-4.913642,0.946418,7.976220,-5.066676,11.959239,-0.089446,-0.024956,0.000000,-0.499098,0.173780,-0.000000
1.330000,-2.602172,-0.230280,-1.559055,1.182947,-0.009208,-0.141836,0.230916,-0.941128,-0.119802,-1.676041,-4.960959,1.069613,8.622891,-4.376432,12.685624,-0.094470,-0.023251,0.000000,-0.505502,0.165453,-0.000000
1.340000,-2.590331,-0.230419,-1.560479,1.185172,-0.018868,-0.142981,0.214588,-0.990957,-0.108471,-1.586531,-5.001170,1.200131,9.254512,-3.651557,13.379626,-0.099557,-0.021632,0.000000,-0.511433,0.156487,0.000000
1.350000,-2.578469,-0.230657,-1.561914,1.187238,-0.029028,-0.144006,0.199186,-1.041152,-0.095800,-1.490951,-5.033991,1.337205,9.838547,-2.900953,13.998673,-0.104700,-0.020105,0.000000,-0.516874,0.146930,-0.000000
1.360000,-2.566587,-0.230999,-1.563359,1.189156,-0.039691,-0.144897,0.184768,-1.091637,-0.081727,-1.389760,-5.059189,1.480104,10.414965,-2.116424,14.594389,-0.109895,-0.018677,0.000000,-0.521808,0.136824,-0.000000
1.370000,-2.554686,-0.231451,-1.564812,1.190934,-0.050860,-0.145640,0.171390,-1.142335,-0.066197,-1.282652,-5.076319,1.629093,11.063237,-1.271675,15.270170,-0.115137,-0.017352,0.000000,-0.526211,0.126132,0.000000
1.380000,-2.542768,-0.232016,-1.566272,1.192583,-0.062538,-0.146221,0.159115,-1.193163,-0.049145,-1.168496,-5.084623,1.785508,11.770826,-0.366356,16.013298,-0.120420,-0.016137,0.000000,-0.530038,0.114729,0.000000
1.390000,-2.530834,-0.232701,-1.567737,1.194116,-0.074724,-0.146623,0.148021,-1.244028,-0.030487,-1.047235,-5.083646,1.949359,12.428194,0.564934,16.676921,-0.125738,-0.015041,0.000000,-0.533263,0.102601,-0.000000
1.400000,-2.518886,-0.233511,-1.569205,1.195544,-0.087418,-0.146831,0.138171,-1.294836,-0.010158,-0.919932,-5.073324,2.119046,13.021622,1.508723,17.204170,-0.131086,-0.014069,0.000000,-0.535875,0.089846,-0.000000
1.410000,-2.506923,-0.234450,-1.570673,1.196879,-0.100620,-0.146826,0.129622,-1.345494,0.011894,-0.786803,-5.053472,2.293443,13.621679,2.489889,17.690459,-0.136457,-0.013229,0.000000,-0.537855,0.076474,0.000000
1.420000,-2.494948,-0.235523,-1.572141,1.198136,-0.114328,-0.146593,0.122435,-1.395906,0.035711,-0.647498,-5.023526,2.472855,14.240999,3.542230,18.259086,-0.141844,-0.012526,0.000000,-0.539159,0.062433,-0.000000
1.430000,-2.482961,-0.236736,-1.573605,1.199328,-0.128538,-0.146112,0.116672,-1.445965,0.061351,-0.501983,-4.982627,2.658624,14.843669,4.662895,18.865381,-0.147241,-0.011967,0.000000,-0.539734,0.047700,-0.000000
1.440000,-2.470962,-0.238094,-1.575063,1.200470,-0.143247,-0.145366,0.112395,-1.495558,0.088884,-0.350625,-4.930269,2.850163,15.415399,5.806667,19.339023,-0.152639,-0.011561,0.000000,-0.539531,0.032294,0.000000
1.450000,-2.458951,-0.239601,-1.576513,1.201576,-0.158450,-0.144334,0.109659,-1.544570,0.118354,-0.193675,-4.866494,3.045405,16.018411,6.937861,19.731674,-0.158032,-0.011314,0.000000,-0.538530,0.016221,0.000000
1.460000,-2.446930,-0.241263,-1.577950,1.202663,-0.174139,-0.142999,0.108522,-1.592888,0.149792,-0.030257,-4.791511,3.244796,16.652393,8.089119,20.142358,-0.163411,-0.011233,0.000000,-0.536763,-0.000633,0.000000
1.470000,-2.434898,-0.243084,-1.579372,1.203746,-0.190307,-0.141339,0.109054,-1.640400,0.183250,0.139373,-4.704711,3.448252,17.136320,9.356359,20.376425,-0.168768,-0.011328,0.000000,-0.534169,-0.018270,-0.000000
1.480000,-2.422855,-0.245069,-1.580777,1.204844,-0.206947,-0.139334,0.111309,-1.686982,0.218757,0.312470,-4.604384,3.652325,17.471469,10.735681,20.386265,-0.174095,-0.011605,0.000000,-0.530516,-0.036434,-0.000000
1.490000,-2.410801,-0.247223,-1.582159,1.205973,-0.224047,-0.136963,0.115304,-1.732488,0.256296,0.488803,-4.489998,3.855977,17.900851,12.094791,20.436773,-0.179380,-0.012068,0.000000,-0.525718,-0.055128,0.000000
1.500000,-2.398736,-0.249550,-1.583516,1.207150,-0.241596,-0.134208,0.121085,-1.776782,0.295876,0.670487,-4.362488,4.061060,18.372358,13.385510,20.543889,-0.184611,-0.012726,0.000000,-0.519889,-0.074603,0.000000
1.510000,-2.386658,-0.252055,-1.584843,1.208394,-0.259583,-0.131046,0.128713,-1.819738,0.337518,0.856250,-4.222287,4.266855,18.725849,14.697555,20.520142,-0.189778,-0.013587,0.000000,-0.513045,-0.094764,-0.000000
1.520000,-2.374568,-0.254742,-1.586137,1.209724,-0.277991,-0.127457,0.138210,-1.861228,0.381213,1.045004,-4.068537,4.471463,19.164127,16.139804,20.378081,-0.194872,-0.014657,0.000000,-0.505043,-0.115529,0.000000
1.530000,-2.362464,-0.257615,-1.587392,1.211159,-0.296807,-0.123422,0.149613,-1.901109,0.426947,1.239532,-3.899491,4.674417,19.753095,17.686823,20.181269,-0.199880,-0.015944,0.000000,-0.495664,-0.137224,-0.000000
1.540000,-2.350345,-0.260678,-1.588605,1.212717,-0.316013,-0.118918,0.163001,-1.939218,0.474702,1.440066,-3.714801,4.875088,20.195099,19.190047,19.886100,-0.204786,-0.017459,0.000000,-0.484827,-0.159916,0.000000
1.550000,-2.338209,-0.263935,-1.589771,1.214419,-0.335591,-0.113928,0.178415,-1.975405,0.524449,1.643434,-3.515690,5.072139,20.426662,20.600633,19.460495,-0.209577,-0.019212,0.000000,-0.472588,-0.183314,0.000000
1.560000,-2.326056,-0.267390,-1.590884,1.216285,-0.355521,-0.108429,0.195869,-2.009531,0.576144,1.848599,-3.302788,5.264298,20.650014,22.015720,18.931449,-0.214239,-0.021209,0.000000,-0.458939,-0.207345,0.000000
1.570000,-2.313884,-0.271045,-1.591939,1.218336,-0.375782,-0.102405,0.215387,-2.041460,0.629735,2.056435,-3.075376,5.450768,20.950556,23.544394,18.341717,-0.218756,-0.023458,0.000000,-0.443734,-0.232138,0.000000
1.580000,-2.301690,-0.274905,-1.592932,1.220593,-0.396351,-0.095835,0.236998,-2.071039,0.685160,2.267610,-2.831900,5.631133,21.247845,25.157678,17.663791,-0.223113,-0.025967,0.000000,-0.426739,-0.257807,-0.000000
1.590000,-2.289472,-0.278973,-1.593856,1.223076,-0.417203,-0.088701,0.260739,-2.098098,0.742357,2.481391,-2.572222,5.804043,21.437199,26.702930,16.836010,-0.227291,-0.028747,0.000000,-0.407839,-0.284312,-0.000000
1.600000,-2.277228,-0.283249,-1.594706,1.225807,-0.438313,-0.080988,0.286626,-2.122483,0.801241,2.696354,-2.297842,5.967853,21.575300,28.119819,15.955330,-0.231270,-0.031806,0.000000,-0.387072,-0.311535,-0.000000
1.610000,-2.264956,-0.287739,-1.595476,1.228808,-0.459653,-0.072677,0.314666,-2.144055,0.861714,2.912897,-2.009826,6.123150,21.719053,29.505842,15.048023,-0.235032,-0.035150,0.000000,-0.364483,-0.339557,-0.000000
1.620000,-2.252652,-0.292443,-1.596160,1.232101,-0.481194,-0.063753,0.344884,-2.162680,0.923704,3.130735,-1.707725,6.268813,21.695822,30.996724,13.809504,-0.238558,-0.038791,0.000000,-0.339907,-0.368382,0.000000
1.630000,-2.240314,-0.297363,-1.596751,1.235706,-0.502906,-0.054203,0.377281,-2.178210,0.987091,3.346814,-1.389892,6.399340,21.478967,32.559034,12.206639,-0.241829,-0.042735,0.000000,-0.312931,-0.397680,-0.000000
1.640000,-2.227938,-0.302501,-1.597244,1.239646,-0.524758,-0.044011,0.411820,-2.190478,1.051690,3.560314,-1.056544,6.512946,21.302552,33.999640,10.657774,-0.244816,-0.046986,0.000000,-0.283416,-0.427364,0.000000
1.650000,-2.215521,-0.307858,-1.597631,1.243942,-0.546716,-0.033169,0.448487,-2.199341,1.117349,3.772865,-0.709899,6.612496,21.158412,35.272787,9.267994,-0.247495,-0.051548,0.000000,-0.251554,-0.457637,-0.000000
1.660000,-2.203059,-0.313435,-1.597907,1.248616,-0.568745,-0.021664,0.487277,-2.204676,1.183940,3.983483,-0.351088,6.698306,20.885174,36.498253,7.746676,-0.249845,-0.056429,0.000000,-0.217366,-0.488402,-0.000000
1.670000,-2.190548,-0.319233,-1.598064,1.253688,-0.590809,-0.009490,0.528157,-2.206362,1.251316,4.190568,0.020066,6.767429,20.557682,37.752943,5.885038,-0.251840,-0.061632,0.000000,-0.180636,-0.519460,0.000000
1.680000,-2.177985,-0.325251,-1.598097,1.259179,-0.612872,0.003362,0.571089,-2.204274,1.319289,4.394636,0.403971,6.816007,20.228081,38.986657,3.766651,-0.253454,-0.067159,0.000000,-0.141085,-0.550823,-0.000000
1.690000,-2.165365,-0.331490,-1.597997,1.265110,-0.634895,0.016896,0.616049,-2.198283,1.387636,4.595130,0.799799,6.842762,19.774229,40.086060,1.658892,-0.254658,-0.073014,0.000000,-0.098639,-0.582385,0.000000
1.700000,-2.152683,-0.337949,-1.597759,1.271500,-0.656838,0.031115,0.662991,-2.188278,1.456144,4.790121,1.205692,6.849185,19.205578,41.043473,-0.335220,-0.255424,-0.079198,0.000000,-0.053427,-0.613890,0.000000
1.710000,-2.139935,-0.344627,-1.597375,1.278370,-0.678660,0.046019,0.711852,-2.174169,1.524619,4.979242,1.620669,6.836058,18.600099,41.919219,-2.395320,-0.255723,-0.085706,0.000000,-0.005471,-0.645244,-0.000000
1.720000,-2.127116,-0.351522,-1.596838,1.285737,-0.700321,0.061607,0.762576,-2.155865,1.592865,5.162123,2.044076,6.801278,17.870755,42.695593,-4.789004,-0.255529,-0.092538,0.000000,0.045321,-0.676310,-0.000000
1.730000,-2.114220,-0.358633,-1.596143,1.293621,-0.721778,0.077876,0.815094,-2.133288,1.660645,5.336657,2.474581,6.740278,16.977071,43.331367,-7.470215,-0.254812,-0.099688,0.000000,0.099017,-0.706696,0.000000
1.740000,-2.101243,-0.365958,-1.595281,1.302039,-0.742987,0.094820,0.869309,-2.106373,1.727671,5.501664,2.910703,6.651874,16.042460,43.838024,-10.071202,-0.253544,-0.107145,0.000000,0.155556,-0.736116,0.000000
1.750000,-2.088179,-0.373493,-1.594246,1.311007,-0.763905,0.112429,0.925128,-2.075074,1.793682,5.657506,3.351341,6.538854,15.128209,44.269159,-12.462409,-0.251696,-0.114897,0.000000,0.214777,-0.764499,-0.000000
1.760000,-2.075023,-0.381236,-1.593032,1.320542,-0.784488,0.130693,0.982460,-2.039347,1.858448,5.804228,3.796087,6.402626,14.142514,44.596737,-14.886652,-0.249243,-0.122933,0.000000,0.276617,-0.791720,-0.000000
1.770000,-2.061768,-0.389183,-1.591633,1.330657,-0.804692,0.149598,1.041212,-1.999152,1.921735,5.940356,4.243276,6.241121,12.940022,44.645252,-17.635056,-0.246159,-0.131236,0.000000,0.340935,-0.817406,-0.000000
1.780000,-2.048410,-0.397330,-1.590040,1.341366,-0.824471,0.169128,1.101267,-1.954481,1.983270,6.063029,4.688992,6.049925,11.534850,44.395469,-20.629503,-0.242420,-0.139788,0.000000,0.407343,-0.840940,0.000000
1.790000,-2.034941,-0.405672,-1.588250,1.352682,-0.843782,0.189264,1.162473,-1.905372,2.042733,6.171053,5.131185,5.828531,10.119868,44.071667,-23.466665,-0.238007,-0.148560,0.000000,0.475506,-0.861932,0.000000
1.800000,-2.021356,-0.414205,-1.586255,1.364615,-0.862579,0.209983,1.224688,-1.851857,2.099841,6.265426,5.570425,5.580591,8.793356,43.775984,-26.048068,-0.232906,-0.157525,0.000000,0.545251,-0.880332,-0.000000
1.810000,-2.007649,-0.422924,-1.584050,1.377176,-0.880819,0.231261,1.287781,-1.793963,2.154345,6.346920,6.006705,5.307569,7.419348,43.338186,-28.629190,-0.227099,-0.166653,0.000000,0.616365,-0.896035,-0.000000
1.820000,-1.993813,-0.431822,-1.581630,1.390371,-0.898458,0.253070,1.351626,-1.731723,2.205992,6.413813,6.437189,5.008007,5.744720,42.485082,-31.395165,-0.220575,-0.175914,0.000000,0.688318,-0.908566,0.000000
1.830000,-1.979841,-0.440893,-1.578989,1.404208,-0.915453,0.275380,1.416058,-1.665220,2.254505,6.461815,6.856407,4.679666,3.794128,41.237219,-34.239561,-0.213330,-0.185272,0.000000,0.760194,-0.917097,0.000000
1.840000,-1.965729,-0.450131,-1.576122,1.418692,-0.931762,0.298160,1.480862,-1.594595,2.299586,6.489696,7.261933,4.323216,1.912870,39.950445,-36.900424,-0.205370,-0.194677,0.000000,0.831320,-0.921233,0.000000
1.850000,-1.951468,-0.459528,-1.573026,1.433825,-0.947345,0.321372,1.545851,-1.519981,2.340970,6.500072,7.655416,3.941657,0.247652,38.812360,-39.395781,-0.196704,-0.204087,0.000000,0.901456,-0.921147,0.000000
1.860000,-1.937052,-0.469078,-1.569695,1.449609,-0.962162,0.344979,1.610864,-1.441487,2.378419,6.494649,8.038180,3.535301,-1.436727,37.566034,-41.870870,-0.187343,-0.213457,0.000000,0.970372,-0.916867,0.000000
1.870000,-1.922475,-0.478771,-1.566126,1.466043,-0.976175,0.368941,1.675744,-1.359217,2.411676,6.471338,8.406736,3.104240,-3.490434,35.716044,-44.196000,-0.177299,-0.222745,0.000000,1.037185,-0.907957,-0.000000
1.880000,-1.907731,-0.488601,-1.562316,1.483124,-0.989346,0.393213,1.740291,-1.273352,2.440504,6.424840,8.752501,2.651381,-5.827796,33.316804,-46.284801,-0.166603,-0.231899,0.000000,1.100248,-0.893691,-0.000000
1.890000,-1.892813,-0.498558,-1.558262,1.500848,-1.001642,0.417751,1.804241,-1.184167,2.464703,6.354782,9.073072,2.178544,-7.974726,31.033942,-48.296954,-0.155300,-0.240864,0.000000,1.158747,-0.873981,0.000000
1.900000,-1.877714,-0.508634,-1.553961,1.519209,-1.013030,0.442507,1.867386,-1.091891,2.484075,6.265346,9.373180,1.685442,-9.948691,29.050999,-50.319927,-0.143435,-0.249586,0.000000,1.212873,-0.849305,0.000000
1.910000,-1.862429,-0.518819,-1.549412,1.538196,-1.023480,0.467432,1.929548,-0.996704,2.498412,6.155808,9.654092,1.172145,-12.048667,26.916488,-52.212542,-0.131050,-0.258020,0.000000,1.262367,-0.819571,0.000000
1.920000,-1.846950,-0.529104,-1.544612,1.557800,-1.032964,0.492475,1.990502,-0.898809,2.507517,6.024372,9.911510,0.641191,-14.119041,24.229421,-53.725991,-0.118197,-0.266114,0.000000,1.306234,-0.784685,0.000000
1.930000,-1.831273,-0.539478,-1.539562,1.578006,-1.041456,0.517582,2.050036,-0.798474,2.511236,5.873427,10.138681,0.097626,-16.036827,21.135640,-54.866556,-0.104936,-0.273819,0.000000,1.343204,-0.745233,0.000000
1.940000,-1.815390,-0.549933,-1.534261,1.598800,-1.048933,0.542700,2.107971,-0.696035,2.509470,5.703636,10.334223,-0.456140,-18.022403,18.166759,-55.938705,-0.091344,-0.281097,0.000000,1.372824,-0.701551,0.000000
1.950000,-1.799297,-0.560457,-1.528708,1.620166,-1.055377,0.567772,2.164108,-0.591789,2.502113,5.512979,10.502016,-1.021148,-20.104806,15.415517,-57.077569,-0.077491,-0.287906,0.000000,1.395440,-0.653555,-0.000000
1.960000,-1.782987,-0.571040,-1.522905,1.642083,-1.060769,0.592742,2.218231,-0.485995,2.489047,5.301540,10.642533,-1.597692,-22.115761,12.541254,-58.049506,-0.063447,-0.294205,0.000000,1.411019,-0.601490,0.000000
1.970000,-1.766455,-0.581672,-1.516853,1.664530,-1.065097,0.617553,2.270139,-0.378938,2.470159,5.070664,10.752841,-2.182139,-24.032121,9.371785,-58.472790,-0.049282,-0.299958,0.000000,1.419133,-0.545937,0.000000
1.980000,-1.749696,-0.592342,-1.510554,1.687485,-1.068348,0.642145,2.319644,-0.270938,2.445404,4.820897,10.829969,-2.767148,-25.906351,6.033124,-58.388024,-0.035075,-0.305136,0.000000,1.419444,-0.487559,0.000000
1.990000,-1.732705,-0.603039,-1.504010,1.710923,-1.070515,0.666461,2.366557,-0.162339,2.414816,4.552537,10.873503,-3.349899,-27.734742,2.763132,-58.284389,-0.020904,-0.309715,0.000000,1.412101,-0.426833,0.000000
2.000000,-1.715478,-0.613753,-1.497225,1.734817,-1.071595,0.690442,2.410695,-0.053468,2.378406,4.266202,10.885231,-3.932835,-29.466291,-0.389991,-58.304890,-0.006844,-0.313675,0.000000,1.397618,-0.364077,0.000000
2.010000,-1.698009,-0.624471,-1.490202,1.759137,-1.071585,0.714029,2.451881,0.055366,2.336160,3.963211,10.865704,-4.515997,-31.094876,-3.560440,-58.101642,0.007039,-0.316999,0.000000,1.376381,-0.299778,-0.000000
2.020000,-1.680295,-0.635184,-1.482944,1.783854,-1.070487,0.737165,2.489959,0.163846,2.288086,3.644305,10.814022,-5.094868,-32.713047,-6.828136,-57.315079,0.020676,-0.319674,0.000000,1.348645,-0.234521,-0.000000
2.030000,-1.662332,-0.645881,-1.475458,1.808936,-1.068308,0.759791,2.524767,0.271646,2.234262,3.308950,10.729141,-5.662298,-34.283341,-10.119561,-55.983019,0.034005,-0.321694,0.000000,1.314736,-0.168828,0.000000
2.040000,-1.644116,-0.656550,-1.467749,1.834350,-1.065054,0.781850,2.556138,0.378429,2.174840,2.958638,10.611631,-6.214529,-35.666683,-13.302467,-54.580495,0.046965,-0.323057,0.000000,1.275241,-0.103303,-0.000000
2.050000,-1.625645,-0.667182,-1.459821,1.860059,-1.060739,0.803288,2.583940,0.483879,2.109972,2.595616,10.463092,-6.753908,-37.075890,-16.421228,-53.625286,0.059506,-0.323767,0.000000,1.230845,-0.038355,-0.000000
2.060000,-1.606915,-0.677765,-1.451683,1.886028,-1.055377,0.824049,2.608050,0.587691,2.039762,2.217120,10.283207,-7.287034,-38.572271,-19.530607,-52.761860,0.071580,-0.323831,0.000000,1.181940,0.026390,0.000000
2.070000,-1.587924,-0.688290,-1.443340,1.912220,-1.048985,0.844083,2.628282,0.689543,1.964231,1.824171,10.072479,-7.809146,-39.480752,-22.431989,-50.561075,0.083143,-0.323244,0.000000,1.129067,0.090429,-0.000000
2.080000,-1.568671,-0.698745,-1.434801,1.938594,-1.041586,0.863334,2.644533,0.789140,1.883579,1.427505,9.834567,-8.298256,-39.770901,-25.062989,-47.170848,0.094161,-0.322022,0.000000,1.073309,0.151571,-0.000000
2.090000,-1.549152,-0.709121,-1.426074,1.965111,-1.033203,0.881754,2.656832,0.886234,1.798266,1.028753,9.571220,-8.752563,-40.359375,-27.669595,-44.531646,0.104611,-0.320206,0.000000,1.015367,0.209553,-0.000000
2.100000,-1.529368,-0.719409,-1.417166,1.991731,-1.023861,0.899299,2.665109,0.980565,1.708528,0.620318,9.281175,-9.188889,-41.157134,-30.373226,-42.340373,0.114471,-0.317815,0.000000,0.955330,0.265843,0.000000
2.110000,-1.509318,-0.729598,-1.408088,2.018413,-1.013591,0.915925,2.669239,1.071858,1.614488,0.205610,8.963755,-9.599370,-41.552194,-32.972700,-39.352591,0.123721,-0.314861,0.000000,0.893545,0.319754,0.000000
2.120000,-1.489000,-0.739681,-1.398848,2.045115,-1.002424,0.931589,2.669221,1.159840,1.516541,-0.210726,8.621721,-9.975941,-42.008559,-35.127636,-36.889892,0.132347,-0.311377,0.000000,0.830752,0.370556,0.000000
2.130000,-1.468416,-0.749647,-1.389456,2.071797,-0.990394,0.946256,2.665024,1.244292,1.414969,-0.634561,8.261202,-10.337168,-42.741756,-36.861858,-35.441666,0.140341,-0.307390,0.000000,0.767664,0.419608,-0.000000
2.140000,-1.447564,-0.759489,-1.379923,2.098416,-0.977538,0.959889,2.656530,1.325064,1.309797,-1.065561,7.884484,-10.684774,-43.055273,-38.602082,-33.112800,0.147706,-0.302908,0.000000,0.704659,0.466952,0.000000
2.150000,-1.426447,-0.769198,-1.370258,2.124928,-0.963893,0.972452,2.643713,1.401982,1.201274,-1.495666,7.489161,-10.999424,-42.953411,-40.498258,-29.798578,0.154441,-0.297955,0.000000,0.641881,0.511172,-0.000000
2.160000,-1.405066,-0.778766,-1.360474,2.151290,-0.949499,0.983914,2.626616,1.474847,1.089809,-1.924630,7.074519,-11.280745,-42.901439,-42.236213,-26.805996,0.160549,-0.292567,0.000000,0.579412,0.552399,0.000000
2.170000,-1.383421,-0.788188,-1.350580,2.177460,-0.934396,0.994248,2.605220,1.543472,0.975659,-2.353695,6.644436,-11.535544,-42.628002,-43.414956,-23.865390,0.166035,-0.286769,0.000000,0.517666,0.591125,-0.000000
2.180000,-1.361517,-0.797454,-1.340589,2.203395,-0.918629,1.003427,2.579542,1.607736,0.859098,-2.777190,6.206220,-11.758053,-41.913057,-44.104921,-20.450122,0.170909,-0.280585,0.000000,0.457532,0.626749,0.000000
2.190000,-1.339354,-0.806560,-1.330511,2.229051,-0.902241,1.011430,2.549677,1.667596,0.740498,-3.191956,5.762338,-11.944546,-41.174319,-44.818134,-17.083220,0.175192,-0.274053,0.000000,0.399318,0.659047,-0.000000
2.200000,-1.316936,-0.815499,-1.320360,2.254388,-0.885277,1.018237,2.515703,1.722983,0.620207,-3.600676,5.309857,-12.099718,-40.768162,-45.695716,-14.361038,0.178902,-0.267203,0.000000,0.342637,0.688633,0.000000
2.210000,-1.294266,-0.824266,-1.310147,2.279365,-0.867782,1.023834,2.477663,1.773794,0.498504,-4.007320,4.848424,-12.231767,-40.377404,-46.378559,-11.886839,0.182051,-0.260061,0.000000,0.287300,0.716296,0.000000
2.220000,-1.271348,-0.832855,-1.299883,2.303941,-0.849801,1.028207,2.435557,1.819951,0.375572,-4.408224,4.382286,-12.337454,-39.124814,-46.516040,-8.271891,0.184654,-0.252640,0.000000,0.233728,0.741727,0.000000
2.230000,-1.248187,-0.841262,-1.289582,2.328076,-0.831383,1.031345,2.389499,1.861439,0.251755,-4.789816,3.918103,-12.397205,-37.102704,-46.207561,-3.706287,0.186732,-0.244972,0.000000,0.182797,0.763312,0.000000
2.240000,-1.224787,-0.849483,-1.279256,2.351731,-0.812573,1.033242,2.339760,1.898313,0.127628,-5.150278,3.458134,-12.411580,-35.494566,-45.904506,-0.080770,0.188315,-0.237106,0.000000,0.134609,0.781192,-0.000000
2.250000,-1.201152,-0.857513,-1.268918,2.374871,-0.793417,1.033898,2.286493,1.930602,0.003523,-5.499707,3.000013,-12.398820,-34.328130,-45.719285,3.029340,0.189429,-0.229069,0.000000,0.088542,0.796989,0.000000
2.260000,-1.177289,-0.865351,-1.258578,2.397461,-0.773961,1.033313,2.229766,1.958313,-0.120349,-5.836841,2.543749,-12.350993,-32.824487,-45.346280,6.814684,0.190091,-0.220877,0.000000,0.044629,0.810567,0.000000
2.270000,-1.153203,-0.872993,-1.248251,2.419467,-0.754250,1.031491,2.169756,1.981477,-0.243497,-6.156197,2.093087,-12.262527,-31.155773,-44.518814,9.598896,0.190326,-0.212561,0.000000,0.003188,0.821511,0.000000
2.280000,-1.128900,-0.880436,-1.237949,2.440856,-0.734331,1.028443,2.106642,2.000175,-0.365599,-6.459956,1.653373,-12.159015,-29.630676,-43.339708,10.880309,0.190158,-0.204145,0.000000,-0.035853,0.830722,-0.000000
2.290000,-1.104386,-0.887679,-1.227682,2.461600,-0.714247,1.024179,2.040557,2.014544,-0.486677,-6.748810,1.226293,-12.044920,-27.960504,-42.158229,13.032146,0.189612,-0.195641,0.000000,-0.072537,0.838429,0.000000
2.300000,-1.079668,-0.894721,-1.217465,2.481667,-0.694040,1.018709,1.971666,2.024701,-0.606498,-7.019166,0.810208,-11.898373,-25.974457,-40.994030,16.291439,0.188711,-0.187070,0.000000,-0.106772,0.844021,0.000000
2.310000,-1.054753,-0.901560,-1.207308,2.501033,-0.673753,1.012049,1.900174,2.030749,-0.724645,-7.268300,0.406412,-11.719092,-23.904364,-39.624826,19.017420,0.187479,-0.178455,0.000000,-0.138569,0.847420,-0.000000
2.320000,-1.029647,-0.908196,-1.197224,2.519671,-0.653425,1.004216,1.826300,2.032829,-0.840880,-7.497254,0.017711,-11.518024,-22.103351,-38.049840,21.190027,0.185942,-0.169818,0.000000,-0.167980,0.849046,0.000000
2.330000,-1.004359,-0.914628,-1.187224,2.537559,-0.633096,0.995231,1.750229,2.031103,-0.955005,-7.710367,-0.354584,-11.295291,-20.488412,-36.320377,23.404534,0.184122,-0.161175,0.000000,-0.194993,0.849395,0.000000
2.340000,-0.978896,-0.920858,-1.177319,2.554676,-0.612803,0.985116,1.672093,2.025737,-1.066785,-7.907022,-0.708696,-11.049933,-18.618655,-34.443183,25.519234,0.182044,-0.152536,0.000000,-0.219557,0.848495,-0.000000
2.350000,-0.953266,-0.926884,-1.167522,2.571001,-0.592581,0.973896,1.592088,2.016929,-1.176004,-8.082740,-1.043448,-10.784906,-16.649252,-32.677553,27.244526,0.179732,-0.143918,0.000000,-0.241741,0.846085,-0.000000
2.360000,-0.927476,-0.932709,-1.157841,2.586517,-0.572465,0.961596,1.510438,2.004869,-1.282484,-8.240007,-1.362247,-10.505043,-14.871875,-31.014391,28.706315,0.177210,-0.135335,0.000000,-0.262013,0.842528,-0.000000
2.370000,-0.901535,-0.938334,-1.148290,2.601210,-0.552484,0.948246,1.427288,1.989684,-1.386105,-8.380177,-1.663736,-10.210780,-12.792684,-28.706134,30.459960,0.174493,-0.126797,0.000000,-0.280343,0.838002,0.000000
2.380000,-0.875452,-0.943759,-1.138877,2.615063,-0.532671,0.933874,1.342835,1.971594,-1.486699,-8.495861,-1.936370,-9.895844,-10.297881,-25.774672,32.381182,0.171604,-0.118314,0.000000,-0.295753,0.831865,0.000000
2.390000,-0.849234,-0.948987,-1.129612,2.628066,-0.513052,0.918512,1.257371,1.950957,-1.584022,-8.586135,-2.179229,-9.563156,-8.111737,-23.268145,33.725806,0.168578,-0.109909,0.000000,-0.308320,0.824154,0.000000
2.400000,-0.822891,-0.954020,-1.120506,2.640210,-0.493652,0.902194,1.171112,1.928009,-1.677962,-8.658095,-2.401733,-9.221328,-6.342966,-21.065478,35.091074,0.165437,-0.101592,0.000000,-0.319040,0.815612,0.000000
2.410000,-0.796430,-0.958860,-1.111568,2.651488,-0.474492,0.884953,1.084209,1.902922,-1.768448,-8.712994,-2.600539,-8.861335,-4.511958,-18.501242,36.912335,0.162197,-0.093368,0.000000,-0.327568,0.806296,-0.000000
2.420000,-0.769861,-0.963510,-1.102807,2.661895,-0.455593,0.866825,0.996852,1.875998,-1.855189,-8.748334,-2.771758,-8.483081,-2.547432,-16.216916,37.287286,0.158886,-0.085248,0.000000,-0.333666,0.796054,-0.000000
2.430000,-0.743192,-0.967972,-1.094232,2.671425,-0.436972,0.847849,0.909242,1.847487,-1.938110,-8.763943,-2.924877,-8.115589,-0.692048,-14.507665,36.007169,0.155523,-0.077241,0.000000,-0.338567,0.785100,0.000000
2.440000,-0.716432,-0.972249,-1.085850,2.680079,-0.418644,0.828063,0.821573,1.817501,-2.017501,-8.762175,-3.061911,-7.762938,0.988686,-12.459113,35.726489,0.152114,-0.069352,0.000000,-0.342492,0.773609,-0.000000
2.450000,-0.689590,-0.976345,-1.077671,2.687857,-0.400622,0.807499,0.733999,1.786249,-2.093369,-8.744169,-3.174059,-7.401059,2.950065,-9.836400,36.597237,0.148673,-0.061585,0.000000,-0.344434,0.761514,0.000000
2.460000,-0.662675,-0.980262,-1.069700,2.694759,-0.382919,0.786195,0.646690,1.754020,-2.165522,-8.703174,-3.258639,-7.030993,5.174223,-7.298801,36.839534,0.145224,-0.053949,0.000000,-0.344244,0.748286,0.000000
2.470000,-0.635695,-0.984003,-1.061947,2.700791,-0.365542,0.764189,0.559935,1.721076,-2.233988,-8.640685,-3.320035,-6.664269,6.358457,-5.265907,36.714873,0.141787,-0.046457,0.000000,-0.342447,0.734108,0.000000
2.480000,-0.608659,-0.987573,-1.054417,2.705958,-0.348497,0.741515,0.473876,1.687619,-2.298807,-8.576005,-3.363957,-6.296695,6.476166,-3.503583,37.004010,0.138375,-0.039115,0.000000,-0.339468,0.720528,-0.000000
2.490000,-0.581576,-0.990973,-1.047116,2.710268,-0.331789,0.718212,0.388415,1.653797,-2.359922,-8.511161,-3.390107,-5.924189,7.301056,-1.519705,37.183869,0.134997,-0.031905,0.000000,-0.335259,0.707672,-0.000000
2.500000,-0.554454,-0.994208,-1.040052,2.713726,-0.315421,0.694317,0.303653,1.619817,-2.417291,-8.429984,-3.394351,-5.553018,8.825382,0.485877,36.199689,0.131668,-0.024829,0.000000,-0.329580,0.694225,-0.000000
2.510000,-0.527302,-0.997282,-1.033230,2.716341,-0.299393,0.669867,0.219816,1.585910,-2.470983,-8.334654,-3.380390,-5.200195,9.862622,2.195621,34.525452,0.128404,-0.017897,0.000000,-0.322913,0.680375,0.000000
2.520000,-0.500127,-1.000196,-1.026655,2.718123,-0.283703,0.644897,0.136960,1.552209,-2.521295,-8.232731,-3.350439,-4.862509,10.835232,4.183719,34.870548,0.125209,-0.011106,0.000000,-0.315382,0.666666,0.000000
2.530000,-0.472939,-1.002956,-1.020332,2.719081,-0.268349,0.619441,0.055161,1.518901,-2.568233,-8.117949,-3.296715,-4.502784,12.142798,6.525592,36.917993,0.122096,-0.004456,0.000000,-0.305999,0.652538,0.000000
2.540000,-0.445746,-1.005563,-1.014266,2.719226,-0.253325,0.593533,-0.025399,1.486275,-2.611351,-7.989875,-3.219927,-4.124149,13.113357,8.398638,37.041866,0.119088,0.002045,0.000000,-0.294888,0.638005,-0.000000
2.550000,-0.418555,-1.008022,-1.008461,2.718573,-0.238623,0.567214,-0.104637,1.454502,-2.650716,-7.855682,-3.128742,-3.761946,13.904918,10.057338,36.751346,0.116197,0.008397,0.000000,-0.283078,0.623623,0.000000
2.560000,-0.391374,-1.010336,-1.002922,2.717133,-0.224235,0.540518,-0.182513,1.423700,-2.686590,-7.711777,-3.018780,-3.389122,14.971770,12.020131,38.330200,0.113426,0.014604,0.000000,-0.269954,0.609080,-0.000000
2.570000,-0.364212,-1.012507,-0.997651,2.714922,-0.210149,0.513482,-0.258872,1.394127,-2.718498,-7.556246,-2.888340,-2.995342,15.555041,13.291773,36.633921,0.110797,0.020660,0.000000,-0.255305,0.594263,0.000000
2.580000,-0.337076,-1.014539,-0.992652,2.711956,-0.196352,0.486148,-0.333638,1.365933,-2.746496,-7.400676,-2.752945,-2.656444,15.527006,13.653044,30.835298,0.108319,0.026565,0.000000,-0.241009,0.579938,0.000000
2.590000,-0.309973,-1.016434,-0.987928,2.708250,-0.182831,0.458552,-0.406886,1.339068,-2.771627,-7.245706,-2.615279,-2.378637,15.973704,14.506807,28.195106,0.105976,0.032328,0.000000,-0.227254,0.565993,0.000000
2.600000,-0.282911,-1.018195,-0.983481,2.703818,-0.169571,0.430716,-0.478552,1.313628,-2.794069,-7.081202,-2.462809,-2.092542,16.629014,15.945947,28.319794,0.103773,0.037950,0.000000,-0.212437,0.551731,-0.000000
2.610000,-0.255896,-1.019825,-0.979314,2.698678,-0.156558,0.402671,-0.548510,1.289812,-2.813478,-6.913126,-2.296360,-1.812241,16.797051,17.015814,26.399468,0.101727,0.043424,0.000000,-0.196742,0.537589,-0.000000
2.620000,-0.228937,-1.021327,-0.975428,2.692848,-0.143775,0.374446,-0.616814,1.267700,-2.830314,-6.745261,-2.122492,-1.564552,17.586824,17.834901,25.630587,0.099838,0.048759,0.000000,-0.180871,0.523717,-0.000000
2.630000,-0.202039,-1.022701,-0.971825,2.686342,-0.131204,0.346064,-0.683415,1.247362,-2.844769,-6.561390,-1.939662,-1.299629,19.316902,18.760838,27.961629,0.098109,0.053952,0.000000,-0.164287,0.508994,0.000000
2.640000,-0.175210,-1.023951,-0.968506,2.679180,-0.118828,0.317551,-0.748042,1.228907,-2.856307,-6.358923,-1.747275,-1.005320,20.402237,19.543197,28.589426,0.096552,0.058989,0.000000,-0.146851,0.493310,-0.000000
2.650000,-0.148456,-1.025077,-0.965474,2.671381,-0.106626,0.288938,-0.810593,1.212416,-2.864875,-6.153345,-1.548798,-0.727840,20.481435,20.001375,26.116841,0.095172,0.063866,0.000000,-0.129179,0.477669,-0.000000
2.660000,-0.121783,-1.026083,-0.962728,2.662968,-0.094579,0.260253,-0.871109,1.197931,-2.870863,-5.949294,-1.347248,-0.482983,20.652179,20.329695,23.945837,0.093968,0.068587,0.000000,-0.111597,0.462299,0.000000
2.670000,-0.095197,-1.026969,-0.960269,2.653959,-0.082667,0.231521,-0.929579,1.185471,-2.874535,-5.740301,-1.142204,-0.248924,21.497178,20.865410,24.393620,0.092940,0.073154,0.000000,-0.093885,0.446759,-0.000000
2.680000,-0.068703,-1.027736,-0.958097,2.644376,-0.070870,0.202763,-0.985915,1.175087,-2.875842,-5.519351,-0.929940,0.004890,22.568685,21.535925,26.148864,0.092090,0.077562,0.000000,-0.075510,0.430665,-0.000000
2.690000,-0.042309,-1.028386,-0.956214,2.634241,-0.059166,0.174004,-1.039966,1.166872,-2.874437,-5.288928,-0.711486,0.274054,23.168181,21.898634,26.364064,0.091429,0.081805,0.000000,-0.056574,0.414200,-0.000000
2.700000,-0.016019,-1.028920,-0.954617,2.623577,-0.047532,0.145274,-1.091694,1.160857,-2.870361,-5.055987,-0.491967,0.532171,23.824936,22.038761,26.323820,0.090959,0.085882,0.000000,-0.037650,0.397728,-0.000000
2.710000,0.010163,-1.029337,-0.953308,2.612407,-0.035948,0.116597,-1.141086,1.157033,-2.863794,-4.812429,-0.270710,0.800530,24.937145,22.241114,27.767047,0.090676,0.089793,0.000000,-0.018507,0.380732,0.000000
2.720000,0.036230,-1.029639,-0.952285,2.600755,-0.024392,0.087998,-1.187942,1.155443,-2.854350,-4.557244,-0.047145,1.087512,24.938483,22.180209,26.750644,0.090589,0.093528,0.000000,0.000978,0.363199,-0.000000
2.730000,0.062178,-1.029825,-0.951548,2.588648,-0.012840,0.059510,-1.232231,1.156090,-2.842044,-4.313659,0.172894,1.335543,23.657775,21.739678,22.615583,0.090696,0.097088,0.000000,0.019954,0.346496,0.000000
2.740000,0.088002,-1.029896,-0.951095,2.576111,-0.001270,0.031157,-1.274215,1.158901,-2.827639,-4.084089,0.387649,1.539823,23.270085,21.391076,20.900786,0.090988,0.100487,0.000000,0.038263,0.330704,0.000000
2.750000,0.113700,-1.029850,-0.950925,2.563164,0.010339,0.002957,-1.313913,1.163843,-2.811247,-3.848257,0.600715,1.753559,23.759419,21.209207,21.405337,0.091461,0.103730,0.000000,0.056590,0.314622,0.000000
2.760000,0.139266,-1.029689,-0.951036,2.549832,0.022007,-0.025068,-1.351181,1.170915,-2.792568,-3.608901,0.811833,1.967930,23.670766,20.869412,20.430713,0.092120,0.106807,0.000000,0.074870,0.298389,-0.000000
2.770000,0.164697,-1.029410,-0.951426,2.536140,0.033757,-0.052894,-1.386091,1.180080,-2.771889,-3.374842,1.018104,2.162173,23.608568,20.302114,20.079291,0.092959,0.109723,0.000000,0.092733,0.282494,-0.000000
2.780000,0.189989,-1.029014,-0.952094,2.522110,0.045609,-0.080505,-1.418677,1.191277,-2.749325,-3.136729,1.217875,2.369516,24.117081,19.620365,21.735862,0.093975,0.112481,0.000000,0.110310,0.266468,-0.000000
2.790000,0.215139,-1.028498,-0.953036,2.507767,0.057582,-0.107881,-1.448825,1.204437,-2.724498,-2.892501,1.410511,2.596890,24.242995,18.893958,22.195377,0.095166,0.115076,0.000000,0.127626,0.250215,-0.000000
2.800000,0.240144,-1.027862,-0.954251,2.493134,0.069697,-0.134995,-1.476527,1.219488,-2.697387,-2.651869,1.595754,2.813424,23.808627,18.119221,21.053918,0.096528,0.117509,0.000000,0.144442,0.234204,-0.000000
2.810000,0.265001,-1.027104,-0.955736,2.478236,0.081972,-0.161829,-1.501863,1.236352,-2.668230,-2.416328,1.772895,3.017968,23.487376,17.256591,20.533546,0.098055,0.119782,0.000000,0.160698,0.218518,0.000000
2.820000,0.289709,-1.026223,-0.957488,2.463097,0.094424,-0.188360,-1.524854,1.254945,-2.637028,-2.182122,1.940886,3.224094,23.387396,16.295030,20.574388,0.099743,0.121900,0.000000,0.176429,0.202970,-0.000000
2.830000,0.314263,-1.025216,-0.959503,2.447739,0.107071,-0.214569,-1.545505,1.275170,-2.603748,-1.948580,2.098796,3.429456,23.277356,15.249269,20.388548,0.101585,0.123862,0.000000,0.191554,0.187472,-0.000000
2.840000,0.338663,-1.024081,-0.961779,2.432187,0.119928,-0.240435,-1.563826,1.296921,-2.568438,-1.716575,2.245872,3.631865,23.073100,14.137540,20.256084,0.103574,0.125669,0.000000,0.206004,0.172054,-0.000000
2.850000,0.362907,-1.022817,-0.964312,2.416463,0.133009,-0.265938,-1.579837,1.320088,-2.531111,-1.487118,2.381547,3.834578,22.796620,12.975925,20.300591,0.105705,0.127322,0.000000,0.219766,0.156813,-0.000000
2.860000,0.386993,-1.021421,-0.967098,2.400590,0.146330,-0.291057,-1.593568,1.344552,-2.491747,-1.260642,2.505390,4.037877,22.496619,11.756184,20.296145,0.107970,0.128823,0.000000,0.232814,0.141773,-0.000000
2.870000,0.410919,-1.019890,-0.970133,2.384591,0.159900,-0.315773,-1.605049,1.370195,-2.450353,-1.037186,2.616670,4.240501,22.185081,10.440328,20.244102,0.110362,0.130174,0.000000,0.245085,0.126911,-0.000000
2.880000,0.434684,-1.018223,-0.973414,2.368489,0.173733,-0.340064,-1.614312,1.396886,-2.406937,-0.816941,2.714197,4.442759,21.844633,9.030973,20.220413,0.112873,0.131376,0.000000,0.256487,0.112231,-0.000000
2.890000,0.458289,-1.016416,-0.976935,2.352305,0.187838,-0.363912,-1.621388,1.424479,-2.361498,-0.600293,2.797290,4.644909,21.462229,7.587423,20.191032,0.115493,0.132432,0.000000,0.266969,0.097754,-0.000000
2.900000,0.481731,-1.014466,-0.980692,2.336061,0.202223,-0.387294,-1.626318,1.452832,-2.314039,-0.387696,2.865945,4.846580,21.044169,6.138368,20.132711,0.118213,0.133344,0.000000,0.276524,0.083500,0.000000
2.910000,0.505010,-1.012371,-0.984681,2.319779,0.216895,-0.410192,-1.629142,1.481798,-2.264566,-0.179410,2.920057,5.047563,20.597224,4.647754,20.064262,0.121024,0.134114,0.000000,0.285138,0.069475,0.000000
2.920000,0.528126,-1.010128,-0.988896,2.303478,0.231859,-0.432586,-1.629906,1.511233,-2.213087,0.024248,2.958900,5.247865,20.104618,3.056733,19.996729,0.123917,0.134743,0.000000,0.292748,0.055693,0.000000
2.930000,0.551079,-1.007734,-0.993332,2.287180,0.247119,-0.454454,-1.628657,1.540976,-2.159609,0.222683,2.981192,5.447498,19.561382,1.377563,19.915951,0.126880,0.135236,0.000000,0.299238,0.042192,0.000000
2.940000,0.573870,-1.005186,-0.997985,2.270905,0.262679,-0.475778,-1.625452,1.570857,-2.104137,0.415476,2.986451,5.646184,18.990429,-0.302465,19.798392,0.129902,0.135593,0.000000,0.304555,0.028992,0.000000
2.950000,0.596498,-1.002481,-1.002848,2.254671,0.278537,-0.496537,-1.620348,1.600705,-2.046685,0.602491,2.975143,5.843466,18.403413,-1.950097,19.651412,0.132972,0.135820,0.000000,0.308717,0.016091,-0.000000
2.960000,0.618963,-0.999615,-1.007915,2.238498,0.294693,-0.516711,-1.613402,1.630359,-1.987268,0.783544,2.947449,6.039212,17.783190,-3.618663,19.481796,0.136077,0.135917,0.000000,0.311721,0.003494,-0.000000
2.970000,0.641267,-0.996587,-1.013182,2.222403,0.311144,-0.536282,-1.604677,1.659654,-1.925901,0.958155,2.902769,6.233102,17.100549,-5.374618,19.248930,0.139207,0.135890,0.000000,0.313492,-0.008771,-0.000000
2.980000,0.663411,-0.993392,-1.018641,2.206405,0.327886,-0.555229,-1.594239,1.688415,-1.862606,1.125555,2.839957,6.424191,16.356862,-7.197769,18.939100,0.142348,0.135740,0.000000,0.313901,-0.020658,-0.000000
2.990000,0.685396,-0.990029,-1.024287,2.190519,0.344912,-0.573534,-1.582166,1.716453,-1.797417,1.285292,2.758814,6.611884,15.591144,-8.989681,18.599470,0.145485,0.135472,0.000000,0.312893,-0.032140,-0.000000
3.000000,0.707222,-0.986494,-1.030112,2.174761,0.362215,-0.591178,-1.568533,1.743591,-1.730368,1.437378,2.660164,6.796180,14.830097,-10.722119,18.259106,0.148606,0.135089,0.000000,0.310504,-0.043221,0.000000
3.010000,0.728891,-0.982785,-1.036110,2.159148,0.379784,-0.608142,-1.553418,1.769657,-1.661494,1.581894,2.544372,6.977066,14.045603,-12.453449,17.876417,0.151696,0.134597,0.000000,0.306731,-0.053911,0.000000
3.020000,0.750405,-0.978898,-1.042275,2.143693,0.397608,-0.624408,-1.536895,1.794478,-1.590827,1.718290,2.411095,7.153709,13.166398,-14.231532,17.363585,0.154741,0.133998,0.000000,0.301496,-0.064173,-0.000000
3.030000,0.771765,-0.974833,-1.048598,2.128410,0.415673,-0.639958,-1.519052,1.817879,-1.518419,1.845222,2.259741,7.324338,12.189357,-16.031310,16.720697,0.157726,0.133297,0.000000,0.294679,-0.073913,-0.000000
3.040000,0.792973,-0.970585,-1.055074,2.113312,0.433965,-0.654776,-1.499991,1.839673,-1.444340,1.962077,2.090468,7.488123,11.214111,-17.778346,16.058034,0.160635,0.132500,0.000000,0.286230,-0.083082,0.000000
3.050000,0.814031,-0.966153,-1.061694,2.098410,0.452467,-0.668845,-1.479811,1.859688,-1.368657,2.069504,1.904174,7.645498,10.329569,-19.453714,15.427159,0.163451,0.131613,0.000000,0.276181,-0.091723,0.000000
3.060000,0.834941,-0.961536,-1.068451,2.083716,0.471159,-0.682149,-1.458601,1.877757,-1.291430,2.168669,1.701394,7.796666,9.464010,-21.097263,14.744868,0.166158,0.130640,0.000000,0.264527,-0.099930,-0.000000
3.070000,0.855705,-0.956730,-1.075337,2.069238,0.490022,-0.694674,-1.436437,1.893716,-1.212724,2.258785,1.482229,7.940396,8.383920,-22.732934,13.869840,0.168741,0.129586,0.000000,0.251198,-0.107640,-0.000000
3.080000,0.876326,-0.951735,-1.082344,2.054987,0.509034,-0.706404,-1.413425,1.907401,-1.132622,2.336347,1.246735,8.074063,7.120255,-24.341287,12.813175,0.171181,0.128456,0.000000,0.236091,-0.114563,0.000000
3.090000,0.896805,-0.946549,-1.089465,2.040970,0.528170,-0.717326,-1.389710,1.918651,-1.051242,2.401190,0.995403,8.196659,5.991037,-25.877176,11.759798,0.173462,0.127260,0.000000,0.219159,-0.120673,0.000000
3.100000,0.917145,-0.941172,-1.096691,2.027193,0.547407,-0.727429,-1.365401,1.927309,-0.968689,2.456168,0.729192,8.309259,4.942537,-27.315627,10.794677,0.175564,0.126005,0.000000,0.200437,-0.126192,-0.000000
3.110000,0.937349,-0.935601,-1.104013,2.013662,0.566716,-0.736700,-1.340587,1.933234,-0.885057,2.500040,0.449090,8.412553,3.773080,-28.676419,9.785851,0.177469,0.124696,0.000000,0.179946,-0.130980,-0.000000
3.120000,0.957418,-0.929837,-1.111425,2.000381,0.586071,-0.745130,-1.315401,1.936291,-0.800438,2.531630,0.155663,8.504976,2.712812,-30.002087,8.514332,0.179161,0.123343,0.000000,0.157634,-0.134924,-0.000000
3.130000,0.977356,-0.923880,-1.118916,1.987354,0.605442,-0.752709,-1.289955,1.936348,-0.714958,2.554297,-0.150951,8.582839,1.844717,-31.267461,7.015962,0.180620,0.121953,0.000000,0.133378,-0.138343,-0.000000
3.140000,0.997165,-0.917729,-1.126479,1.974582,0.624798,-0.759429,-1.264315,1.933272,-0.628781,2.568524,-0.469686,8.645295,0.841525,-32.401892,5.582408,0.181827,0.120530,0.000000,0.107177,-0.141273,0.000000
3.150000,1.016848,-0.911384,-1.134105,1.962067,0.644108,-0.765284,-1.238584,1.926954,-0.542052,2.571127,-0.798989,8.694487,-0.327813,-33.469469,4.256505,0.182762,0.119080,0.000000,0.079116,-0.143365,0.000000
3.160000,1.036407,-0.904846,-1.141785,1.949810,0.663337,-0.770270,-1.212892,1.917292,-0.454892,2.561968,-1.139075,8.730425,-1.435300,-34.499243,2.843868,0.183407,0.117614,0.000000,0.049095,-0.144570,0.000000
3.170000,1.055844,-0.898117,-1.149510,1.937809,0.682453,-0.774382,-1.187345,1.904172,-0.367443,2.542421,-1.488974,8.751365,-2.485842,-35.266594,1.274834,0.183741,0.116139,0.000000,0.017089,-0.145002,-0.000000
3.180000,1.075163,-0.891197,-1.157272,1.926063,0.701421,-0.777619,-1.162044,1.887513,-0.279864,2.512251,-1.844407,8.755922,-3.574601,-35.737920,-0.389257,0.183746,0.114664,0.000000,-0.016604,-0.144617,-0.000000
3.190000,1.094366,-0.884089,-1.165062,1.914569,0.720204,-0.779979,-1.137100,1.867284,-0.192325,2.470929,-2.203732,8.743580,-4.665558,-36.212298,-2.060799,0.183406,0.113198,0.000000,-0.051905,-0.143330,-0.000000
3.200000,1.113454,-0.876793,-1.172872,1.903321,0.738766,-0.781465,-1.112625,1.843438,-0.104993,2.418940,-2.568653,8.714706,-5.617928,-36.761797,-3.677567,0.182704,0.111749,0.000000,-0.089039,-0.141140,0.000000
3.210000,1.132432,-0.869313,-1.180692,1.892316,0.757072,-0.782079,-1.088721,1.815911,-0.018031,2.358571,-2.938968,8.670028,-6.466083,-37.170748,-5.294712,0.181621,0.110327,0.000000,-0.128037,-0.138223,-0.000000
3.220000,1.151301,-0.861652,-1.188513,1.881547,0.775085,-0.781826,-1.065454,1.784659,0.068408,2.289618,-3.312068,8.608812,-7.569563,-37.284316,-7.085841,0.180140,0.108939,0.000000,-0.168720,-0.134533,0.000000
3.230000,1.170063,-0.853812,-1.196328,1.871007,0.792766,-0.780711,-1.042929,1.749670,0.154146,2.207179,-3.684655,8.528311,-8.914668,-37.162860,-9.039537,0.178243,0.107593,0.000000,-0.210868,-0.129566,0.000000
3.240000,1.188721,-0.845796,-1.204128,1.860688,0.810078,-0.778743,-1.021310,1.710966,0.238974,2.111325,-4.055325,8.428021,-10.003734,-36.992984,-10.907908,0.175918,0.106306,0.000000,-0.254376,-0.123272,-0.000000
3.250000,1.207277,-0.837610,-1.211903,1.850581,0.826985,-0.775932,-1.000702,1.668563,0.322706,2.007105,-4.424514,8.310153,-10.863069,-36.814053,-12.607753,0.173152,0.105090,0.000000,-0.299258,-0.116093,-0.000000
3.260000,1.225732,-0.829257,-1.219646,1.840674,0.843449,-0.772289,-0.981168,1.622476,0.405177,1.894063,-4.791606,8.175866,-11.814261,-36.495378,-14.300430,0.169929,0.103950,0.000000,-0.345441,-0.107930,0.000000
3.270000,1.244090,-0.820741,-1.227349,1.830957,0.859434,-0.767828,-0.962821,1.572731,0.486223,1.770819,-5.154422,8.024145,-12.654008,-35.925939,-16.155266,0.166239,0.102900,0.000000,-0.392713,-0.098609,0.000000
3.280000,1.262352,-0.812068,-1.235003,1.821418,0.874904,-0.762564,-0.945752,1.519387,0.565660,1.640983,-5.510125,7.852760,-13.246985,-35.131014,-18.106684,0.162071,0.101951,0.000000,-0.440783,-0.088493,0.000000
3.290000,1.280519,-0.803243,-1.242600,1.812042,0.889822,-0.756515,-0.930001,1.462529,0.643278,1.505880,-5.857042,7.662011,-13.891282,-34.252438,-19.919609,0.157419,0.101108,0.000000,-0.489408,-0.077694,0.000000
3.300000,1.298592,-0.794272,-1.250133,1.802818,0.904155,-0.749699,-0.915634,1.402246,0.718900,1.363157,-6.195174,7.454368,-14.679002,-33.402460,-21.610424,0.152279,0.100379,0.000000,-0.538474,-0.065911,-0.000000
3.310000,1.316575,-0.785160,-1.257594,1.793730,0.917867,-0.742137,-0.902738,1.338625,0.792366,1.212300,-6.525091,7.229803,-15.391339,-32.477549,-23.318350,0.146647,0.099776,0.000000,-0.587950,-0.053063,0.000000
3.320000,1.334467,-0.775914,-1.264976,1.784763,0.930927,-0.733851,-0.891388,1.271744,0.863496,1.055331,-6.844725,6.988001,-15.857139,-31.165920,-24.933777,0.140517,0.099308,0.000000,-0.637503,-0.039350,-0.000000
3.330000,1.352270,-0.766541,-1.272271,1.775902,0.943302,-0.724867,-0.881631,1.201731,0.932126,0.895157,-7.148410,6.731127,-16.139151,-29.485431,-26.386502,0.133894,0.098982,0.000000,-0.686333,-0.025061,-0.000000
3.340000,1.369985,-0.757048,-1.279473,1.767130,0.954962,-0.715209,-0.873485,1.128776,0.998119,0.732548,-7.434433,6.460271,-16.446263,-27.862326,-27.821008,0.126789,0.098803,0.000000,-0.734055,-0.010275,0.000000
3.350000,1.387613,-0.747442,-1.286575,1.758432,0.965878,-0.704905,-0.866980,1.053042,1.061331,0.566232,-7.705656,6.174707,-16.810206,-26.398122,-29.290510,0.119211,0.098776,0.000000,-0.780807,0.005133,-0.000000
3.360000,1.405154,-0.737731,-1.293571,1.749791,0.976022,-0.693982,-0.862160,0.974663,1.121613,0.396344,-7.962396,5.874461,-17.086512,-24.806246,-30.677593,0.111171,0.098908,0.000000,-0.826422,0.021135,0.000000
3.370000,1.422609,-0.727922,-1.300455,1.741189,0.985371,-0.682472,-0.859054,0.893794,1.178821,0.224501,-8.201781,5.561155,-17.192262,-22.888152,-31.850090,0.102683,0.099202,0.000000,-0.870331,0.037544,-0.000000
3.380000,1.439978,-0.718023,-1.307221,1.732610,0.993898,-0.670406,-0.857670,0.810627,1.232836,0.052498,-8.420159,5.237459,-17.167877,-20.736515,-32.824923,0.093765,0.099663,0.000000,-0.911847,0.054156,0.000000
3.390000,1.457261,-0.708044,-1.313863,1.724036,1.001583,-0.657816,-0.858004,0.725391,1.283570,-0.118856,-8.616512,4.904657,-17.113330,-18.614178,-33.758665,0.084447,0.100291,0.000000,-0.950589,0.070851,0.000000
3.400000,1.474458,-0.697992,-1.320377,1.715450,1.008406,-0.644734,-0.860047,0.638297,1.330929,-0.289768,-8.792442,4.562286,-17.070439,-16.596116,-34.724143,0.074755,0.101086,0.000000,-0.986500,0.087602,-0.000000
3.410000,1.491570,-0.687876,-1.326758,1.706835,1.014349,-0.631197,-0.863799,0.549542,1.374815,-0.460265,-8.948434,4.210174,-16.969352,-14.515752,-35.600032,0.064719,0.102049,0.000000,-1.019392,0.104361,-0.000000
3.420000,1.508595,-0.677705,-1.333001,1.698174,1.019397,-0.617238,-0.869253,0.459329,1.415133,-0.629155,-9.082757,3.850285,-16.690276,-12.202699,-36.171419,0.054371,0.103178,0.000000,-1.048802,0.120958,0.000000
3.430000,1.525533,-0.667488,-1.339103,1.689450,1.023536,-0.602894,-0.876382,0.367887,1.451821,-0.794070,-9.192488,3.486745,-16.251838,-9.726109,-36.457041,0.043747,0.104471,0.000000,-1.074133,0.137106,0.000000
3.440000,1.542384,-0.657234,-1.345059,1.680646,1.026755,-0.588202,-0.885134,0.275479,1.484867,-0.954192,-9.277280,3.121144,-15.814386,-7.324906,-36.732760,0.032893,0.105923,0.000000,-1.095137,0.152667,-0.000000
3.450000,1.559146,-0.646953,-1.350867,1.671747,1.029045,-0.573197,-0.895466,0.182341,1.514244,-1.110358,-9.338986,2.752090,-15.403959,-4.981514,-37.080829,0.021850,0.107526,0.000000,-1.111868,0.167662,0.000000
3.460000,1.575819,-0.636653,-1.356523,1.662737,1.030402,-0.557917,-0.907341,0.088699,1.539909,-1.262271,-9.376910,2.379528,-14.913777,-2.556559,-37.304424,0.010661,0.109277,0.000000,-1.124089,0.181997,-0.000000
3.470000,1.592401,-0.626345,-1.362025,1.653600,1.030819,-0.542399,-0.920711,-0.005197,1.561835,-1.408634,-9.390117,2.006002,-14.299328,-0.167513,-37.198041,-0.000626,0.111166,0.000000,-1.131560,0.195494,0.000000
3.480000,1.608891,-0.616037,-1.367371,1.644323,1.030298,-0.526680,-0.935514,-0.099103,1.580029,-1.548258,-9.380260,1.635567,-13.590654,2.120337,-36.804301,-0.011964,0.113186,0.000000,-1.134408,0.208012,0.000000
3.490000,1.625287,-0.605739,-1.372559,1.634890,1.028837,-0.510798,-0.951676,-0.192802,1.594546,-1.680447,-9.347710,1.269916,-12.845969,4.457561,-36.388572,-0.023308,0.115326,0.000000,-1.132657,0.219448,-0.000000
3.500000,1.641589,-0.595460,-1.377587,1.625289,1.026442,-0.494789,-0.969123,-0.286057,1.605428,-1.805177,-9.291109,0.907796,-12.128129,6.845876,-36.084585,-0.034611,0.117575,0.000000,-1.126153,0.229745,0.000000
3.510000,1.657793,-0.585210,-1.382454,1.615507,1.023116,-0.478690,-0.987780,-0.378624,1.612702,-1.923009,-9.210793,0.548224,-11.398369,9.165528,-35.705152,-0.045825,0.119922,0.000000,-1.114968,0.238926,-0.000000
3.520000,1.673899,-0.574998,-1.387161,1.605533,1.018869,-0.462535,-1.007583,-0.470273,1.616392,-2.033145,-9.107798,0.193693,-10.482031,11.429978,-34.896048,-0.056905,0.122358,0.000000,-1.099310,0.246905,0.000000
3.530000,1.689904,-0.564832,-1.391705,1.595356,1.013711,-0.446362,-1.028443,-0.560780,1.616576,-2.132650,-8.982193,-0.149697,-9.387898,13.666979,-33.709370,-0.067806,0.124867,0.000000,-1.079350,0.253409,0.000000
3.540000,1.705806,-0.554723,-1.396088,1.584965,1.007654,-0.430204,-1.050236,-0.649917,1.613398,-2.220903,-8.834459,-0.480495,-8.361949,15.825559,-32.622393,-0.078487,0.127436,0.000000,-1.055330,0.258390,-0.000000
3.550000,1.721603,-0.544679,-1.400309,1.574351,1.000712,-0.414094,-1.072861,-0.737469,1.606966,-2.299889,-8.665682,-0.802145,-7.449172,17.903473,-31.697052,-0.088908,0.130050,0.000000,-1.027529,0.262042,-0.000000
3.560000,1.737293,-0.534709,-1.404370,1.563507,0.992904,-0.398064,-1.096234,-0.823231,1.597355,-2.369886,-8.476389,-1.114436,-6.489509,19.919241,-30.618185,-0.099033,0.132697,0.000000,-0.996200,0.264416,0.000000
3.570000,1.752873,-0.524821,-1.408270,1.552426,0.984248,-0.382147,-1.120259,-0.906997,1.584677,-2.429679,-8.267297,-1.414509,-5.420095,21.815898,-29.305105,-0.108828,0.135363,0.000000,-0.961666,0.265436,0.000000
3.580000,1.768341,-0.515024,-1.412013,1.541102,0.974764,-0.366371,-1.144827,-0.988577,1.569065,-2.478288,-8.040071,-1.700538,-4.308475,23.549726,-27.871852,-0.118264,0.138036,0.000000,-0.924372,0.265047,-0.000000
3.590000,1.783695,-0.505326,-1.415598,1.529530,0.964476,-0.350765,-1.169824,-1.067798,1.550666,-2.515849,-7.796303,-1.971946,-3.237796,25.185338,-26.415878,-0.127314,0.140701,0.000000,-0.884739,0.263316,-0.000000
3.600000,1.798932,-0.495735,-1.419028,1.517706,0.953408,-0.335358,-1.195144,-1.144503,1.529626,-2.543044,-7.536365,-2.228856,-2.166047,26.887748,-24.949288,-0.135957,0.143345,0.000000,-0.843024,0.260366,0.000000
3.610000,1.814049,-0.486258,-1.422305,1.505627,0.941586,-0.320173,-1.220685,-1.218526,1.506089,-2.559169,-7.258548,-2.470931,-1.052950,28.584748,-23.421301,-0.144174,0.145956,0.000000,-0.799247,0.256167,0.000000
3.620000,1.829045,-0.476903,-1.425431,1.493292,0.929038,-0.305236,-1.246328,-1.289674,1.480208,-2.564103,-6.964670,-2.697282,-0.037755,29.785581,-21.800286,-0.151942,0.148521,0.000000,-0.753841,0.250771,-0.000000
3.630000,1.843915,-0.467677,-1.428410,1.480700,0.915793,-0.290569,-1.271967,-1.357819,1.452144,-2.559925,-6.662836,-2.906937,0.850613,30.477827,-20.106884,-0.159251,0.151029,0.000000,-0.707943,0.244489,0.000000
3.640000,1.858659,-0.458587,-1.431243,1.467853,0.901881,-0.276193,-1.297526,-1.422931,1.422069,-2.547091,-6.355113,-3.099419,1.795267,31.319842,-18.399399,-0.166102,0.153473,0.000000,-0.661950,0.237428,0.000000
3.650000,1.873272,-0.449639,-1.433934,1.454750,0.887334,-0.262127,-1.322909,-1.484921,1.390155,-2.524019,-6.036439,-3.274925,2.827538,32.447729,-16.730949,-0.172491,0.155844,0.000000,-0.615421,0.229453,-0.000000
3.660000,1.887754,-0.440840,-1.436485,1.441394,0.872183,-0.248390,-1.348007,-1.543659,1.356570,-2.490540,-5.706158,-3.434038,3.813180,33.404124,-15.073048,-0.178412,0.158131,0.000000,-0.568405,0.220583,0.000000
3.670000,1.902100,-0.432196,-1.438901,1.427790,0.856461,-0.234996,-1.372720,-1.599045,1.321474,-2.447756,-5.368357,-3.576386,4.691140,33.923330,-13.308061,-0.183861,0.160327,0.000000,-0.521478,0.210997,0.000000
3.680000,1.916309,-0.423711,-1.441185,1.413940,0.840202,-0.221960,-1.396962,-1.651026,1.285043,-2.396717,-5.027692,-3.700199,5.495185,34.151025,-11.464354,-0.188843,0.162424,0.000000,-0.475279,0.200888,-0.000000
3.690000,1.930379,-0.415392,-1.443341,1.399851,0.823440,-0.209295,-1.420654,-1.699598,1.247470,-2.337852,-4.685336,-3.805673,6.289082,34.412475,-9.718794,-0.193369,0.164417,0.000000,-0.429991,0.190337,-0.000000
3.700000,1.944306,-0.407242,-1.445371,1.385527,0.806210,-0.197011,-1.443719,-1.744733,1.208929,-2.270935,-4.339442,-3.894575,7.110312,34.750251,-8.012726,-0.197446,0.166303,0.000000,-0.385414,0.179320,0.000000
3.710000,1.958089,-0.399268,-1.447281,1.370976,0.788546,-0.185117,-1.466073,-1.786387,1.169579,-2.195646,-3.990331,-3.965928,7.908028,34.950326,-6.249250,-0.201080,0.168075,0.000000,-0.341635,0.167849,0.000000
3.720000,1.971726,-0.391471,-1.449073,1.356206,0.770482,-0.173619,-1.487632,-1.824540,1.129611,-2.112775,-3.640436,-4.019560,8.556696,34.906201,-4.667666,-0.204281,0.169730,0.000000,-0.298939,0.156044,-0.000000
3.730000,1.985214,-0.383858,-1.450753,1.341223,0.752055,-0.162524,-1.508328,-1.859196,1.089188,-2.024512,-3.292207,-4.059281,9.060290,34.689581,-3.332590,-0.207061,0.171263,0.000000,-0.257494,0.144091,0.000000
3.740000,1.998550,-0.376430,-1.452324,1.326039,0.733298,-0.151836,-1.528122,-1.890384,1.048425,-1.931569,-2.946644,-4.086212,9.582289,34.436660,-1.922898,-0.209433,0.172675,0.000000,-0.217360,0.132060,-0.000000
3.750000,2.011734,-0.369192,-1.453790,1.310661,0.714247,-0.141556,-1.546960,-1.918129,1.007463,-1.832866,-2.603474,-4.097739,10.173045,34.179043,-0.336532,-0.211410,0.173964,0.000000,-0.178543,0.119893,-0.000000
3.760000,2.024764,-0.362145,-1.455155,1.295100,0.694936,-0.131686,-1.564779,-1.942453,0.966470,-1.728108,-2.263063,-4.092943,10.715960,33.832510,1.189069,-0.213006,0.175128,0.000000,-0.141073,0.107584,0.000000
3.770000,2.037636,-0.355293,-1.456424,1.279365,0.675398,-0.122226,-1.581522,-1.963390,0.925605,-1.618547,-1.926824,-4.073958,11.088676,33.322479,2.418787,-0.214234,0.176166,0.000000,-0.105007,0.095235,-0.000000
3.780000,2.050351,-0.348637,-1.457600,1.263469,0.655668,-0.113174,-1.597150,-1.980990,0.884991,-1.506335,-1.596614,-4.044567,11.323194,32.683795,3.411870,-0.215108,0.177078,0.000000,-0.070399,0.083002,0.000000
3.790000,2.062906,-0.342180,-1.458687,1.247422,0.635778,-0.104527,-1.611649,-1.995322,0.844713,-1.392083,-1.273148,-4.005720,11.576292,32.023088,4.460248,-0.215644,0.177866,0.000000,-0.037250,0.070927,-0.000000
3.800000,2.075299,-0.335922,-1.459690,1.231236,0.615762,-0.096280,-1.624992,-2.006453,0.804877,-1.274809,-0.956152,-3.955362,11.879645,31.340143,5.635699,-0.215855,0.178531,0.000000,-0.005526,0.058939,-0.000000
3.810000,2.087530,-0.329865,-1.460613,1.214923,0.595649,-0.088429,-1.637145,-2.014445,0.765606,-1.154490,-0.646345,-3.893006,12.126636,30.574302,6.732217,-0.215756,0.179073,0.000000,0.024738,0.047039,0.000000
3.820000,2.099598,-0.324009,-1.461459,1.198493,0.575473,-0.080968,-1.648082,-2.019380,0.727016,-1.032276,-0.344666,-3.820718,12.244870,29.758958,7.561809,-0.215361,0.179494,0.000000,0.053553,0.035300,0.000000
3.830000,2.111500,-0.318355,-1.462232,1.181961,0.555262,-0.073889,-1.657790,-2.021339,0.689192,-0.909593,-0.051166,-3.741770,12.268506,28.927686,8.180579,-0.214686,0.179796,0.000000,0.081045,0.023798,-0.000000
3.840000,2.123237,-0.312904,-1.462936,1.165338,0.535046,-0.067184,-1.666274,-2.020403,0.652181,-0.786906,0.233888,-3.657106,12.289831,28.041494,8.825908,-0.213741,0.179982,0.000000,0.107261,0.012549,-0.000000
3.850000,2.134807,-0.307654,-1.463576,1.148636,0.514854,-0.060845,-1.673529,-2.016661,0.616050,-0.663796,0.509664,-3.565252,12.323979,27.073802,9.554957,-0.212541,0.180054,0.000000,0.132130,0.001526,-0.000000
3.860000,2.146210,-0.302607,-1.464153,1.131867,0.494713,-0.054863,-1.679549,-2.010210,0.580876,-0.540426,0.775364,-3.466007,12.311195,26.063518,10.204731,-0.211099,0.180014,0.000000,0.155617,-0.009263,0.000000
3.870000,2.157444,-0.297760,-1.464673,1.115045,0.474649,-0.049228,-1.684337,-2.001154,0.546729,-0.417572,1.030934,-3.361157,12.218628,25.090531,10.632933,-0.209429,0.179865,0.000000,0.177805,-0.019787,0.000000
3.880000,2.168511,-0.293114,-1.465138,1.098180,0.454690,-0.043928,-1.687901,-1.989591,0.513653,-0.296054,1.277174,-3.253348,12.068251,24.154886,10.889834,-0.207544,0.179609,0.000000,0.198876,-0.030025,0.000000
3.890000,2.179408,-0.288666,-1.465551,1.081287,0.434858,-0.038955,-1.690258,-1.975610,0.481662,-0.176207,1.514032,-3.143361,11.904076,23.161106,11.159133,-0.205452,0.179251,0.000000,0.218879,-0.039969,0.000000
3.900000,2.190136,-0.284416,-1.465917,1.064375,0.415177,-0.034295,-1.691425,-1.959311,0.450786,-0.057972,1.740396,-3.030166,11.729211,22.078206,11.468888,-0.203166,0.178793,0.000000,0.237714,-0.049621,0.000000
3.910000,2.200696,-0.280363,-1.466237,1.047458,0.395671,-0.029939,-1.691418,-1.940802,0.421059,0.058377,1.955596,-2.913983,11.518013,20.980680,11.698278,-0.200698,0.178238,0.000000,0.255353,-0.058969,-0.000000
3.920000,2.211086,-0.276503,-1.466516,1.030547,0.376361,-0.025874,-1.690257,-1.920199,0.392506,0.172388,2.160010,-2.796200,11.270370,19.958716,11.791451,-0.198059,0.177590,0.000000,0.271893,-0.068005,0.000000
3.930000,2.221306,-0.272835,-1.466755,1.013653,0.357267,-0.022089,-1.687970,-1.897602,0.365135,0.283785,2.354770,-2.678154,10.998718,18.998193,11.790989,-0.195260,0.176851,0.000000,0.287500,-0.076738,-0.000000
3.940000,2.231359,-0.269358,-1.466958,0.996787,0.338409,-0.018571,-1.684582,-1.873103,0.338943,0.392362,2.539974,-2.560380,10.705868,17.990004,11.769183,-0.192309,0.176025,0.000000,0.302214,-0.085167,-0.000000
3.950000,2.241242,-0.266067,-1.467126,0.979961,0.319805,-0.015310,-1.680123,-1.846803,0.313928,0.497902,2.714570,-2.442770,10.388333,16.906612,11.736983,-0.189215,0.175116,0.000000,0.315948,-0.093277,-0.000000
3.960000,2.250958,-0.262962,-1.467264,0.963185,0.301473,-0.012293,-1.674624,-1.818812,0.290088,0.600129,2.878106,-2.325641,10.048640,15.828737,11.651597,-0.185990,0.174126,0.000000,0.328679,-0.101057,-0.000000
3.970000,2.260506,-0.260038,-1.467372,0.946469,0.283429,-0.009508,-1.668120,-1.789241,0.267415,0.698875,3.031145,-2.209738,9.701937,14.833745,11.491875,-0.182642,0.173059,0.000000,0.340491,-0.108510,-0.000000
3.980000,2.269887,-0.257293,-1.467454,0.929823,0.265688,-0.006944,-1.660646,-1.758189,0.245893,0.794168,3.174781,-2.095803,9.351644,13.902229,11.276632,-0.179180,0.171919,0.000000,0.351516,-0.115659,0.000000
3.990000,2.279102,-0.254724,-1.467511,0.913256,0.248265,-0.004590,-1.652237,-1.725745,0.225499,0.885908,3.309190,-1.984206,8.981874,12.940561,11.038991,-0.175611,0.170709,0.000000,0.361784,-0.122508,-0.000000
4.000000,2.288152,-0.252328,-1.467546,0.896778,0.231174,-0.002434,-1.642928,-1.692005,0.206209,0.973805,3.433592,-1.875023,8.586640,11.928708,10.781692,-0.171943,0.169431,0.000000,0.371224,-0.129034,-0.000000
4.010000,2.297038,-0.250101,-1.467560,0.880397,0.214425,-0.000466,-1.632761,-1.657073,0.187998,1.057640,3.547764,-1.768572,8.180751,10.934180,10.489094,-0.168186,0.168089,0.000000,0.379824,-0.135224,-0.000000
4.020000,2.305760,-0.248039,-1.467555,0.864123,0.198032,0.001326,-1.621775,-1.621050,0.170837,1.137420,3.652276,-1.665241,7.785701,10.012647,10.167861,-0.164347,0.166687,0.000000,0.387646,-0.141091,-0.000000
4.030000,2.314320,-0.246140,-1.467533,0.847962,0.182004,0.002951,-1.610012,-1.584028,0.154693,1.213354,3.748017,-1.565215,7.400937,9.146229,9.831773,-0.160433,0.165229,0.000000,0.394781,-0.146660,-0.000000
4.040000,2.322720,-0.244399,-1.467496,0.831922,0.166352,0.004419,-1.597508,-1.546089,0.139533,1.285439,3.835200,-1.468606,7.002332,8.267722,9.477883,-0.156451,0.163716,0.000000,0.401249,-0.151935,-0.000000
4.050000,2.330959,-0.242813,-1.467445,0.816012,0.151082,0.005741,-1.584303,-1.507324,0.125321,1.353401,3.913371,-1.375657,6.580533,7.364401,9.084760,-0.152407,0.162152,0.000000,0.407005,-0.156896,-0.000000
4.060000,2.339040,-0.241377,-1.467381,0.800236,0.136205,0.006926,-1.570440,-1.467822,0.112020,1.417050,3.982489,-1.286911,6.155509,6.483924,8.662697,-0.148310,0.160541,0.000000,0.412047,-0.161531,0.000000
4.070000,2.346964,-0.240089,-1.467306,0.784603,0.121726,0.007982,-1.555962,-1.427674,0.099583,1.476511,4.043050,-1.202403,5.757318,5.661621,8.283715,-0.144166,0.158886,0.000000,0.416419,-0.165854,-0.000000
4.080000,2.354732,-0.238943,-1.467222,0.769117,0.107652,0.008917,-1.540910,-1.386961,0.087972,1.532196,4.095721,-1.121237,5.383419,4.884095,7.953592,-0.139981,0.157189,0.000000,0.420165,-0.169892,-0.000000
4.090000,2.362346,-0.237936,-1.467128,0.753785,0.093987,0.009741,-1.525318,-1.345759,0.077158,1.584180,4.140732,-1.043331,4.997534,4.108767,7.581060,-0.135762,0.155454,0.000000,0.423301,-0.173649,0.000000
4.100000,2.369807,-0.237063,-1.467027,0.738611,0.080736,0.010461,-1.509226,-1.304146,0.067105,1.632147,4.177896,-0.969615,4.589505,3.328727,7.143407,-0.131515,0.153684,0.000000,0.425814,-0.177108,0.000000
4.110000,2.377118,-0.236321,-1.466919,0.723600,0.067904,0.011083,-1.492675,-1.262201,0.057766,1.675970,4.207306,-0.900463,4.186727,2.573725,6.708553,-0.127246,0.151881,0.000000,0.427707,-0.180261,0.000000
4.120000,2.384279,-0.235705,-1.466805,0.708757,0.055492,0.011616,-1.475707,-1.220000,0.049096,1.715881,4.229371,-0.835444,3.818034,1.862881,6.332972,-0.122961,0.150049,0.000000,0.429006,-0.183121,0.000000
4.130000,2.391293,-0.235211,-1.466686,0.694086,0.043504,0.012065,-1.458358,-1.177614,0.041057,1.752330,4.244564,-0.773804,3.477462,1.187438,6.000059,-0.118665,0.148191,0.000000,0.429740,-0.185719,0.000000
4.140000,2.398161,-0.234835,-1.466564,0.679590,0.031940,0.012437,-1.440660,-1.135109,0.033620,1.785430,4.253120,-0.715443,3.130142,0.524524,5.643190,-0.114366,0.146308,0.000000,0.429922,-0.188064,-0.000000
4.150000,2.404885,-0.234572,-1.466438,0.665273,0.020802,0.012738,-1.422649,-1.092552,0.026748,1.814933,4.255054,-0.660940,2.767426,-0.129337,5.246499,-0.110067,0.144405,0.000000,0.429551,-0.190136,0.000000
4.160000,2.411467,-0.234419,-1.466309,0.651137,0.010089,0.012972,-1.404362,-1.050008,0.020401,1.840779,4.250533,-0.610513,2.414807,-0.758364,4.858688,-0.105774,0.142482,0.000000,0.428639,-0.191930,0.000000
4.170000,2.417908,-0.234371,-1.466178,0.637185,-0.000198,0.013146,-1.385834,-1.007541,0.014538,1.863229,4.239887,-0.563766,2.096569,-1.352710,4.527061,-0.101494,0.140544,0.000000,0.427203,-0.193463,-0.000000
4.180000,2.424210,-0.234423,-1.466046,0.623420,-0.010062,0.013263,-1.367097,-0.965210,0.009126,1.882710,4.223479,-0.519972,1.806518,-1.917083,4.240604,-0.097230,0.138593,0.000000,0.425263,-0.194765,-0.000000
4.190000,2.430376,-0.234572,-1.465913,0.609844,-0.019503,0.013328,-1.348179,-0.923071,0.004139,1.899360,4.201545,-0.478954,1.514961,-2.463405,3.941422,-0.092988,0.136631,0.000000,0.422835,-0.195844,0.000000
4.200000,2.436407,-0.234813,-1.465780,0.596457,-0.028523,0.013346,-1.329110,-0.881179,-0.000453,1.913010,4.174210,-0.441143,1.214387,-2.993963,3.611281,-0.088773,0.134659,0.000000,0.419929,-0.196687,-0.000000
4.210000,2.442305,-0.235142,-1.465646,0.583261,-0.037126,0.013319,-1.309919,-0.839587,-0.004684,1.923647,4.141666,-0.406728,0.926009,-3.500637,3.292083,-0.084590,0.132681,0.000000,0.416556,-0.197293,-0.000000
4.220000,2.448072,-0.235555,-1.465513,0.570258,-0.045315,0.013252,-1.290637,-0.798346,-0.008588,1.931530,4.104198,-0.375302,0.670439,-3.977156,3.034330,-0.080442,0.130699,0.000000,0.412735,-0.197678,-0.000000
4.230000,2.453711,-0.236049,-1.465381,0.557449,-0.053093,0.013147,-1.271289,-0.757503,-0.012190,1.937056,4.062123,-0.346042,0.442261,-4.425888,2.827636,-0.076335,0.128715,0.000000,0.408485,-0.197870,0.000000
4.240000,2.459221,-0.236617,-1.465250,0.544833,-0.060465,0.013008,-1.251896,-0.717103,-0.015509,1.940375,4.015680,-0.318749,0.215603,-4.854855,2.607582,-0.072272,0.126730,0.000000,0.403824,-0.197878,-0.000000
4.250000,2.464607,-0.237258,-1.465121,0.532411,-0.067435,0.012837,-1.232481,-0.677190,-0.018565,1.941368,3.965026,-0.293890,-0.015930,-5.266347,2.360510,-0.068259,0.124747,0.000000,0.398765,-0.197695,-0.000000
4.260000,2.469870,-0.237966,-1.464993,0.520183,-0.074009,0.012637,-1.213068,-0.637803,-0.021387,1.940056,3.910353,-0.271539,-0.234277,-5.654996,2.131051,-0.064297,0.122767,0.000000,0.393325,-0.197322,-0.000000
4.270000,2.475011,-0.238738,-1.464868,0.508149,-0.080191,0.012409,-1.193680,-0.598983,-0.023996,1.936683,3.851926,-0.251269,-0.423175,-6.015113,1.951339,-0.060392,0.120792,0.000000,0.387522,-0.196775,-0.000000
4.280000,2.480033,-0.239570,-1.464745,0.496309,-0.085988,0.012157,-1.174335,-0.560764,-0.026412,1.931593,3.790051,-0.232512,-0.587750,-6.348239,1.807847,-0.056547,0.118824,0.000000,0.381380,-0.196081,0.000000
4.290000,2.484937,-0.240458,-1.464625,0.484663,-0.091407,0.011881,-1.155048,-0.523182,-0.028646,1.924928,3.724961,-0.215112,-0.748756,-6.662076,1.660297,-0.052764,0.116864,0.000000,0.374919,-0.195250,-0.000000
4.300000,2.489726,-0.241398,-1.464508,0.473208,-0.096452,0.011584,-1.135836,-0.486265,-0.030714,1.916618,3.656809,-0.199306,-0.911069,-6.959313,1.501010,-0.049048,0.114914,0.000000,0.368154,-0.194277,-0.000000
4.310000,2.494401,-0.242387,-1.464393,0.461946,-0.101132,0.011267,-1.116716,-0.450045,-0.032632,1.906706,3.585775,-0.185092,-1.060646,-7.234914,1.356880,-0.045401,0.112974,0.000000,0.361100,-0.193164,-0.000000
4.320000,2.498965,-0.243421,-1.464282,0.450874,-0.105453,0.010931,-1.097702,-0.414550,-0.034416,1.895405,3.512111,-0.172169,-1.185787,-7.482670,1.246576,-0.041826,0.111046,0.000000,0.353780,-0.191930,0.000000
4.330000,2.503419,-0.244496,-1.464175,0.439992,-0.109423,0.010579,-1.078808,-0.379803,-0.036076,1.882991,3.436122,-0.160160,-1.290881,-7.704095,1.161103,-0.038326,0.109132,0.000000,0.346221,-0.190595,0.000000
4.340000,2.507765,-0.245609,-1.464071,0.429298,-0.113049,0.010210,-1.060042,-0.345827,-0.037619,1.869587,3.358029,-0.148946,-1.391268,-7.907869,1.076213,-0.034902,0.107232,0.000000,0.338445,-0.189171,-0.000000
4.350000,2.512005,-0.246757,-1.463971,0.418791,-0.116339,0.009826,-1.041416,-0.312643,-0.039055,1.855165,3.277964,-0.138636,-1.490326,-8.096993,0.988955,-0.031557,0.105346,0.000000,0.330463,-0.187656,-0.000000
4.360000,2.516140,-0.247936,-1.463874,0.408470,-0.119302,0.009429,-1.022939,-0.280268,-0.040392,1.839781,3.196089,-0.129167,-1.578111,-8.265922,0.914639,-0.028293,0.103477,0.000000,0.322294,-0.186052,0.000000
4.370000,2.520174,-0.249143,-1.463782,0.398332,-0.121945,0.009018,-1.004620,-0.248721,-0.041638,1.823603,3.112646,-0.120343,-1.647281,-8.408182,0.858124,-0.025111,0.101624,0.000000,0.313958,-0.184376,0.000000
4.380000,2.524107,-0.250375,-1.463694,0.388377,-0.124276,0.008596,-0.986467,-0.218015,-0.042799,1.806835,3.027926,-0.112005,-1.701291,-8.525620,0.813303,-0.022014,0.099788,0.000000,0.305487,-0.182646,0.000000
4.390000,2.527942,-0.251628,-1.463610,0.378603,-0.126305,0.008162,-0.968484,-0.188162,-0.043878,1.789577,2.942133,-0.104077,-1.750221,-8.627468,0.773446,-0.019001,0.097970,0.000000,0.296900,-0.180869,-0.000000
4.400000,2.531679,-0.252901,-1.463531,0.369008,-0.128040,0.007718,-0.950675,-0.159172,-0.044880,1.771831,2.855376,-0.096536,-1.796332,-8.716646,0.738902,-0.016076,0.096170,0.000000,0.288209,-0.179048,-0.000000
4.410000,2.535322,-0.254189,-1.463456,0.359589,-0.129489,0.007265,-0.933047,-0.131055,-0.045809,1.753651,2.767800,-0.089299,-1.833497,-8.787438,0.712822,-0.013237,0.094388,0.000000,0.279428,-0.177185,0.000000
4.420000,2.538871,-0.255491,-1.463385,0.350347,-0.130661,0.006802,-0.915602,-0.103816,-0.046666,1.735161,2.679627,-0.082280,-1.857522,-8.834039,0.692381,-0.010487,0.092626,0.000000,0.270581,-0.175292,0.000000
4.430000,2.542329,-0.256802,-1.463320,0.341277,-0.131565,0.006331,-0.898344,-0.077462,-0.047455,1.716500,2.591120,-0.075452,-1.870871,-8.858588,0.675358,-0.007826,0.090882,0.000000,0.261694,-0.173384,-0.000000
4.440000,2.545697,-0.258122,-1.463259,0.332380,-0.132210,0.005853,-0.881272,-0.051994,-0.048175,1.697743,2.502456,-0.068772,-1.879855,-8.869603,0.664373,-0.005253,0.089158,0.000000,0.252787,-0.171468,-0.000000
4.450000,2.548976,-0.259447,-1.463203,0.323652,-0.132605,0.005368,-0.864389,-0.027413,-0.048830,1.678903,2.413728,-0.062164,-1.886111,-8.869518,0.660081,-0.002770,0.087453,0.000000,0.243868,-0.169543,0.000000
4.460000,2.552170,-0.260774,-1.463151,0.315092,-0.132758,0.004876,-0.847694,-0.003719,-0.049419,1.660021,2.325065,-0.055571,-1.886221,-8.853316,0.659437,-0.000376,0.085767,0.000000,0.234952,-0.167615,-0.000000
4.470000,2.555278,-0.262102,-1.463105,0.306698,-0.132679,0.004380,-0.831189,0.019088,-0.049941,1.641179,2.236661,-0.048975,-1.877770,-8.816766,0.659144,0.001929,0.084101,0.000000,0.226058,-0.165690,0.000000
4.480000,2.558304,-0.263428,-1.463064,0.298468,-0.132376,0.003878,-0.814871,0.041014,-0.050398,1.622466,2.148730,-0.042388,-1.862545,-8.762026,0.658508,0.004145,0.082453,0.000000,0.217209,-0.163779,0.000000
4.490000,2.561247,-0.264749,-1.463027,0.290401,-0.131859,0.003372,-0.798739,0.062063,-0.050789,1.603928,2.061421,-0.035805,-1.844794,-8.695695,0.660484,0.006273,0.080825,0.000000,0.208421,-0.161886,0.000000
4.500000,2.564112,-0.266065,-1.462996,0.282493,-0.131135,0.002862,-0.782792,0.082242,-0.051114,1.585570,1.974816,-0.029178,-1.825090,-8.619537,0.670333,0.008314,0.079216,0.000000,0.199702,-0.160011,-0.000000
4.510000,2.566897,-0.267372,-1.462970,0.274745,-0.130214,0.002349,-0.767028,0.101559,-0.051373,1.567426,1.889030,-0.022399,-1.801513,-8.530014,0.684576,0.010267,0.077625,0.000000,0.191065,-0.158157,0.000000
4.520000,2.569606,-0.268669,-1.462949,0.267153,-0.129104,0.001834,-0.751444,0.120023,-0.051562,1.549540,1.804216,-0.015487,-1.774924,-8.424784,0.686003,0.012135,0.076052,0.000000,0.182524,-0.156330,-0.000000
4.530000,2.572240,-0.269954,-1.462934,0.259716,-0.127814,0.001318,-0.736037,0.137643,-0.051682,1.531927,1.720534,-0.008678,-1.746775,-8.305743,0.673952,0.013918,0.074498,0.000000,0.174097,-0.154531,0.000000
4.540000,2.574801,-0.271225,-1.462923,0.252432,-0.126351,0.000801,-0.720805,0.154433,-0.051736,1.514604,1.638101,-0.002008,-1.716967,-8.177152,0.670736,0.015617,0.072961,0.000000,0.165796,-0.152764,0.000000
4.550000,2.577289,-0.272481,-1.462918,0.245300,-0.124725,0.000283,-0.705745,0.170405,-0.051723,1.497588,1.556991,0.004736,-1.685874,-8.039943,0.681652,0.017234,0.071442,0.000000,0.157627,-0.151028,-0.000000
4.560000,2.579707,-0.273720,-1.462917,0.238317,-0.122943,-0.000234,-0.690853,0.185573,-0.051641,1.480887,1.477302,0.011625,-1.654539,-7.892290,0.690576,0.018769,0.069940,0.000000,0.149602,-0.149324,-0.000000
4.570000,2.582055,-0.274940,-1.462922,0.231483,-0.121013,-0.000750,-0.676127,0.199952,-0.051490,1.464497,1.399145,0.018548,-1.623544,-7.734135,0.685278,0.020226,0.068455,0.000000,0.141732,-0.147653,-0.000000
4.580000,2.584336,-0.276140,-1.462932,0.224795,-0.118944,-0.001263,-0.661563,0.213556,-0.051270,1.448416,1.322619,0.025331,-1.593154,-7.567009,0.670381,0.021604,0.066987,0.000000,0.134026,-0.146015,0.000000
4.590000,2.586551,-0.277319,-1.462947,0.218251,-0.116742,-0.001775,-0.647159,0.226404,-0.050983,1.432634,1.247805,0.031955,-1.563977,-7.392236,0.660583,0.022906,0.065534,0.000000,0.126493,-0.144410,-0.000000
4.600000,2.588701,-0.278475,-1.462968,0.211851,-0.114416,-0.002283,-0.632911,0.238512,-0.050631,1.417136,1.174775,0.038543,-1.537440,-7.209851,0.657546,0.024134,0.064098,0.000000,0.119140,-0.142835,0.000000
4.610000,2.590788,-0.279607,-1.462993,0.205593,-0.111972,-0.002788,-0.618816,0.249899,-0.050213,1.401885,1.103608,0.045106,-1.513985,-7.020094,0.651036,0.025289,0.062677,0.000000,0.111974,-0.141287,0.000000
4.620000,2.592813,-0.280714,-1.463024,0.199475,-0.109418,-0.003287,-0.604873,0.260584,-0.049729,1.386856,1.034373,0.051563,-1.491800,-6.825126,0.636480,0.026373,0.061271,0.000000,0.105003,-0.139763,-0.000000
4.630000,2.594778,-0.281796,-1.463059,0.193496,-0.106760,-0.003782,-0.591079,0.270587,-0.049181,1.372049,0.967106,0.057836,-1.471235,-6.625916,0.616567,0.027389,0.059880,0.000000,0.098230,-0.138264,-0.000000
4.640000,2.596683,-0.282850,-1.463099,0.187654,-0.104006,-0.004271,-0.577432,0.279927,-0.048572,1.357432,0.901854,0.063895,-1.456183,-6.420900,0.596439,0.028338,0.058505,0.000000,0.091660,-0.136786,0.000000
4.650000,2.598531,-0.283876,-1.463144,0.181947,-0.101162,-0.004754,-0.563930,0.288624,-0.047903,1.342926,0.838688,0.069765,-1.448803,-6.209343,0.579713,0.029222,0.057144,0.000000,0.085299,-0.135323,-0.000000
4.660000,2.600322,-0.284873,-1.463194,0.176375,-0.098234,-0.005229,-0.550574,0.296700,-0.047177,1.328456,0.777668,0.075489,-1.447313,-5.993433,0.562545,0.030044,0.055797,0.000000,0.079154,-0.133864,-0.000000
4.670000,2.602058,-0.285840,-1.463249,0.170936,-0.095228,-0.005697,-0.537361,0.304177,-0.046394,1.313980,0.718819,0.081016,-1.448536,-5.777150,0.533808,0.030805,0.054465,0.000000,0.073227,-0.132408,-0.000000
4.680000,2.603741,-0.286777,-1.463308,0.165628,-0.092150,-0.006157,-0.524294,0.311077,-0.045557,1.299485,0.662125,0.086165,-1.453412,-5.560906,0.494111,0.031509,0.053148,0.000000,0.067516,-0.130952,-0.000000
4.690000,2.605371,-0.287683,-1.463372,0.160450,-0.089006,-0.006608,-0.511372,0.317420,-0.044670,1.284911,0.607601,0.090898,-1.467642,-5.340703,0.458408,0.032156,0.051845,0.000000,0.062022,-0.129492,0.000000
4.700000,2.606950,-0.288558,-1.463440,0.155400,-0.085802,-0.007050,-0.498596,0.323229,-0.043739,1.270132,0.555311,0.095333,-1.495244,-5.114923,0.429847,0.032749,0.050557,0.000000,0.056752,-0.128012,-0.000000
4.710000,2.608479,-0.289399,-1.463513,0.150478,-0.082542,-0.007483,-0.485969,0.328526,-0.042764,1.255006,0.505302,0.099495,-1.533256,-4.887358,0.398246,0.033291,0.049283,0.000000,0.051710,-0.126500,-0.000000
4.720000,2.609959,-0.290208,-1.463590,0.145681,-0.079231,-0.007906,-0.473496,0.333335,-0.041749,1.239467,0.457563,0.103298,-1.573240,-4.664089,0.357425,0.033783,0.048025,0.000000,0.046895,-0.124948,-0.000000
4.730000,2.611393,-0.290984,-1.463671,0.141008,-0.075875,-0.008318,-0.461180,0.337677,-0.040698,1.223542,0.412021,0.106643,-1.615894,-4.445121,0.310558,0.034229,0.046783,0.000000,0.042300,-0.123359,-0.000000
4.740000,2.612780,-0.291726,-1.463756,0.136457,-0.072478,-0.008720,-0.449025,0.341575,-0.039616,1.207149,0.368661,0.109509,-1.674463,-4.223514,0.265551,0.034629,0.045557,0.000000,0.037922,-0.121725,-0.000000
4.750000,2.614122,-0.292434,-1.463846,0.132027,-0.069044,-0.009110,-0.437037,0.345050,-0.038508,1.190052,0.327550,0.111954,-1.757537,-3.996206,0.224881,0.034987,0.044347,0.000000,0.033769,-0.120021,0.000000
4.760000,2.615420,-0.293107,-1.463939,0.127717,-0.065577,-0.009490,-0.425224,0.348126,-0.037377,1.171998,0.288737,0.114007,-1.856941,-3.768918,0.183415,0.035305,0.043155,0.000000,0.029846,-0.118222,0.000000
4.770000,2.616676,-0.293745,-1.464035,0.123523,-0.062081,-0.009858,-0.413597,0.350825,-0.036227,1.152914,0.252172,0.115623,-1.953117,-3.551195,0.134865,0.035584,0.041981,0.000000,0.026147,-0.116320,0.000000
4.780000,2.617891,-0.294348,-1.464136,0.119445,-0.058560,-0.010214,-0.402165,0.353170,-0.035064,1.132936,0.217713,0.116704,-2.047071,-3.342785,0.080470,0.035828,0.040827,0.000000,0.022659,-0.114328,0.000000
4.790000,2.619065,-0.294916,-1.464240,0.115480,-0.055018,-0.010559,-0.390938,0.355179,-0.033893,1.111972,0.185316,0.117232,-2.167668,-3.131799,0.029079,0.036037,0.039693,0.000000,0.019376,-0.112238,0.000000
4.800000,2.620200,-0.295449,-1.464347,0.111626,-0.051457,-0.010892,-0.379926,0.356876,-0.032720,1.089583,0.155077,0.117286,-2.335169,-2.911510,-0.014190,0.036215,0.038581,0.000000,0.016308,-0.110003,-0.000000
4.810000,2.621297,-0.295945,-1.464457,0.107881,-0.047880,-0.011214,-0.369146,0.358281,-0.031548,1.065269,0.127086,0.116948,-2.530624,-2.690983,-0.055190,0.036363,0.037491,0.000000,0.013466,-0.107574,0.000000
4.820000,2.622358,-0.296406,-1.464571,0.104243,-0.044291,-0.011523,-0.358621,0.359418,-0.030381,1.038970,0.101257,0.116182,-2.704837,-2.488952,-0.106509,0.036484,0.036428,0.000000,0.010839,-0.104943,0.000000
4.830000,2.623382,-0.296831,-1.464688,0.100709,-0.040692,-0.011821,-0.348367,0.360306,-0.029224,1.011172,0.077307,0.114818,-2.864416,-2.303256,-0.166114,0.036580,0.035391,0.000000,0.008400,-0.102160,0.000000
4.840000,2.624372,-0.297220,-1.464808,0.097276,-0.037085,-0.012108,-0.338397,0.360964,-0.028084,0.981682,0.055192,0.112860,-3.078546,-2.109416,-0.216371,0.036652,0.034383,0.000000,0.006144,-0.099205,0.000000
4.850000,2.625328,-0.297573,-1.464930,0.093941,-0.033472,-0.012383,-0.328733,0.361410,-0.026967,0.949601,0.035119,0.110491,-3.354441,-1.905593,-0.255487,0.036703,0.033406,0.000000,0.004093,-0.095987,-0.000000
4.860000,2.626251,-0.297890,-1.465055,0.090701,-0.029857,-0.012647,-0.319405,0.361666,-0.025875,0.914593,0.017080,0.107750,-3.648371,-1.708449,-0.294625,0.036734,0.032462,0.000000,0.002246,-0.092470,-0.000000
4.870000,2.627142,-0.298170,-1.465183,0.087553,-0.026239,-0.012900,-0.310441,0.361752,-0.024812,0.876634,0.000950,0.104598,-3.958457,-1.519406,-0.334277,0.036748,0.031555,0.000000,0.000590,-0.088652,0.000000
4.880000,2.628002,-0.298414,-1.465313,0.084492,-0.022622,-0.013143,-0.301872,0.361685,-0.023783,0.835424,-0.013308,0.101065,-4.302461,-1.332724,-0.369911,0.036746,0.030688,0.000000,-0.000878,-0.084502,-0.000000
4.890000,2.628832,-0.298623,-1.465446,0.081515,-0.019005,-0.013376,-0.293733,0.361485,-0.022791,0.790584,-0.025705,0.097200,-4.683389,-1.148035,-0.400768,0.036730,0.029864,0.000000,-0.002159,-0.079982,-0.000000
4.900000,2.629632,-0.298795,-1.465581,0.078617,-0.015392,-0.013599,-0.286061,0.361171,-0.021839,0.741756,-0.036268,0.093049,-5.101092,-0.966122,-0.426900,0.036703,0.029087,0.000000,-0.003255,-0.075055,-0.000000
4.910000,2.630404,-0.298930,-1.465718,0.075794,-0.011782,-0.013813,-0.278898,0.360760,-0.020930,0.688563,-0.045027,0.088662,-5.557472,-0.787032,-0.447823,0.036665,0.028362,0.000000,-0.004169,-0.069682,-0.000000
4.920000,2.631148,-0.299030,-1.465857,0.073040,-0.008177,-0.014018,-0.272290,0.360271,-0.020065,0.630607,-0.052009,0.084093,-6.054539,-0.610766,-0.463027,0.036619,0.027693,0.000000,-0.004904,-0.063822,-0.000000
4.930000,2.631865,-0.299094,-1.465998,0.070348,-0.004577,-0.014214,-0.266286,0.359720,-0.019248,0.567472,-0.057242,0.079401,-6.594259,-0.437326,-0.472016,0.036567,0.027085,0.000000,-0.005462,-0.057434,-0.000000
4.940000,2.632555,-0.299122,-1.466141,0.067714,-0.000982,-0.014403,-0.260940,0.359126,-0.018477,0.498722,-0.060756,0.074652,-7.178663,-0.266709,-0.474282,0.036510,0.026543,0.000000,-0.005845,-0.050472,0.000000
4.950000,2.633219,-0.299114,-1.466286,0.065129,0.002606,-0.014584,-0.256311,0.358505,-0.017755,0.423899,-0.062577,0.069916,-7.809797,-0.098915,-0.469319,0.036450,0.026074,0.000000,-0.006057,-0.042890,0.000000
4.960000,2.633858,-0.299070,-1.466433,0.062588,0.006188,-0.014758,-0.252462,0.357874,-0.017079,0.342526,-0.062734,0.065266,-8.489613,0.066054,-0.456622,0.036389,0.025685,0.000000,-0.006099,-0.034639,0.000000
4.970000,2.634471,-0.298990,-1.466581,0.060080,0.009763,-0.014925,-0.249461,0.357250,-0.016449,0.254106,-0.061256,0.060783,144.533996,-221.997707,8.815569,0.036328,0.025381,0.000000,-0.005975,-0.025669,0.000000
4.980000,2.635059,-0.298874,-1.466731,0.057598,0.013333,-0.015087,-0.247380,0.356649,-0.015863,3.233206,-4.502688,0.241577,298.209806,-443.468411,17.483045,0.036270,0.025171,0.000000,-0.456311,-0.328008,-0.000000
4.990000,2.635623,-0.298723,-1.466883,0.055133,0.016896,-0.015242,-0.184797,0.267196,-0.011618,6.218302,-8.930624,0.410444,147.252999,-220.664729,7.737498,0.027193,0.018813,0.000000,-0.906990,-0.631880,-0.000000
5.000000,2.636162,-0.298536,-1.467036,0.053902,0.018677,-0.015319,-0.123014,0.178037,-0.007654,6.178266,-8.915983,0.396327,-4.003690,1.464119,-1.411678,0.018131,0.012529,0.000000,-0.906914,-0.628594,0.000000
