time,x,y,z,vx,vy,vz,ax,ay,az,jx,jy,jz,sx,sy,sz,roll,pitch,yaw,p,q,r
0.000000,-2.650176,-0.249083,-1.489925,-0.015757,-0.007829,0.008353,0.297945,-0.065904,-0.018936,13.639625,-2.914315,-0.680594,-114.162134,38.926446,23.805850,-0.006702,-0.030304,0.000000,-0.295609,-1.384299,-0.000000
0.010000,-2.650334,-0.249161,-1.489842,-0.012777,-0.008488,0.008164,0.434341,-0.095047,-0.025742,12.498004,-2.525051,-0.442535,-501.243941,132.012705,50.133482,-0.009654,-0.044131,0.000000,-0.255474,-1.266157,0.000000
0.020000,-2.650432,-0.249253,-1.489762,-0.007070,-0.009730,0.007839,0.547905,-0.116405,-0.027786,3.614746,-0.274061,0.322076,-810.438933,207.027629,59.797602,-0.011814,-0.055636,0.000000,-0.027956,-0.368091,0.000000
0.030000,-2.650475,-0.249356,-1.489685,-0.001819,-0.010816,0.007608,0.506636,-0.100529,-0.019300,-3.710775,1.615502,0.753417,-326.924805,96.993502,12.835592,-0.010214,-0.051498,0.000000,0.163142,0.372562,0.000000
0.040000,-2.650468,-0.249469,-1.489610,0.003063,-0.011740,0.007453,0.473689,-0.084095,-0.012718,-2.923750,1.665809,0.578788,74.353982,4.510390,-15.979704,-0.008551,-0.048187,0.000000,0.168753,0.294116,0.000000
0.050000,-2.650414,-0.249591,-1.489536,0.007655,-0.012498,0.007354,0.448161,-0.067212,-0.007724,-2.223695,1.705710,0.433823,65.993478,3.502042,-13.199688,-0.006839,-0.045616,0.000000,0.173177,0.224009,0.000000
0.060000,-2.650315,-0.249719,-1.489463,0.012026,-0.013084,0.007298,0.429215,-0.049981,-0.004042,-1.603880,1.735850,0.314794,58.291353,2.556794,-10.780264,-0.005088,-0.043707,0.000000,0.176501,0.161713,0.000000
0.070000,-2.650173,-0.249853,-1.489390,0.016239,-0.013497,0.007273,0.416083,-0.032495,-0.001428,-1.057868,1.756846,0.218218,51.218168,1.671672,-8.697095,-0.003309,-0.042383,0.000000,0.178810,0.106684,-0.000000
0.080000,-2.649990,-0.249989,-1.489317,0.020348,-0.013734,0.007269,0.408058,-0.014844,0.000323,-0.579517,1.769283,0.140852,44.744497,0.843703,-6.925862,-0.001512,-0.041574,0.000000,0.180179,0.058378,-0.000000
0.090000,-2.649766,-0.250127,-1.489244,0.024400,-0.013794,0.007280,0.404493,0.002890,0.001389,-0.162978,1.773720,0.079700,38.840894,0.069912,-5.442221,0.000294,-0.041215,0.000000,0.180682,0.016253,0.000000
0.100000,-2.649502,-0.250265,-1.489172,0.028438,-0.013677,0.007297,0.404799,0.020630,0.001917,0.197301,1.770682,0.032008,33.477907,-0.652678,-4.221819,0.002102,-0.041249,0.000000,0.180384,-0.020216,0.000000
0.110000,-2.649198,-0.250401,-1.489099,0.032496,-0.013382,0.007318,0.408439,0.038304,0.002029,0.506580,1.760666,-0.004736,28.626123,-1.327039,-3.240333,0.003902,-0.041620,0.000000,0.179345,-0.051540,0.000000
0.120000,-2.648852,-0.250533,-1.489025,0.036607,-0.012910,0.007338,0.414930,0.055844,0.001822,0.769823,1.744141,-0.032799,24.256064,-1.956147,-2.473457,0.005688,-0.042279,0.000000,0.177623,-0.078205,0.000000
0.130000,-2.648465,-0.250659,-1.488952,0.040795,-0.012265,0.007354,0.423836,0.073187,0.001373,0.991701,1.721543,-0.054205,20.338289,-2.542979,-1.896838,0.007454,-0.043184,0.000000,0.175266,-0.100675,0.000000
0.140000,-2.648036,-0.250778,-1.488878,0.045083,-0.011447,0.007365,0.434764,0.090274,0.000738,1.176589,1.693281,-0.070736,16.843512,-3.090494,-1.486052,0.009194,-0.044293,0.000000,0.172322,-0.119388,0.000000
0.150000,-2.647564,-0.250888,-1.488804,0.049490,-0.010459,0.007369,0.447367,0.107052,-0.000042,1.328571,1.659733,-0.083926,13.742173,-3.601678,-1.216843,0.010901,-0.045571,0.000000,0.168831,-0.134751,0.000000
0.160000,-2.647047,-0.250987,-1.488731,0.054031,-0.009306,0.007364,0.461336,0.123469,-0.000941,1.451433,1.621248,-0.095073,11.004659,-4.079521,-1.064974,0.012570,-0.046988,0.000000,0.164832,-0.147148,0.000000
0.170000,-2.646483,-0.251074,-1.488657,0.058717,-0.007990,0.007350,0.476396,0.139477,-0.001943,1.548665,1.578143,-0.105226,8.599860,-4.527246,-1.002018,0.014197,-0.048515,0.000000,0.160357,-0.156928,0.000000
0.180000,-2.645872,-0.251147,-1.488584,0.063559,-0.006516,0.007326,0.492309,0.155032,-0.003045,1.623430,1.530703,-0.115113,6.465242,-4.952505,-0.934471,0.015777,-0.050127,0.000000,0.155437,-0.164413,0.000000
0.190000,-2.645212,-0.251204,-1.488511,0.068563,-0.004889,0.007289,0.508865,0.170091,-0.004246,1.677969,1.479093,-0.123915,4.582672,-5.356668,-0.861997,0.017306,-0.051803,0.000000,0.150091,-0.169836,-0.000000
0.200000,-2.644501,-0.251245,-1.488438,0.073736,-0.003114,0.007241,0.525868,0.184614,-0.005523,1.715083,1.423569,-0.132353,3.167375,-5.708139,-1.270400,0.018779,-0.053524,0.000000,0.144346,-0.173481,-0.000000
0.210000,-2.643737,-0.251267,-1.488366,0.079080,-0.001197,0.007179,0.543166,0.198563,-0.006893,1.741317,1.364930,-0.149323,2.163733,-6.013590,-2.080662,0.020193,-0.055273,0.000000,0.138266,-0.175963,0.000000
0.220000,-2.642919,-0.251269,-1.488294,0.084599,0.000857,0.007103,0.560695,0.211912,-0.008510,1.758358,1.303298,-0.173966,0.839833,-6.375233,-1.805720,0.021545,-0.057044,0.000000,0.131862,-0.177454,-0.000000
0.230000,-2.642045,-0.251249,-1.488224,0.090294,0.003041,0.007009,0.578333,0.224629,-0.010372,1.758114,1.237425,-0.185438,-0.864065,-6.799817,-0.395757,0.022830,-0.058823,0.000000,0.125053,-0.177254,0.000000
0.240000,-2.641113,-0.251208,-1.488154,0.096166,0.005350,0.006895,0.595857,0.236661,-0.012219,1.741077,1.167301,-0.181881,-1.997495,-7.152018,0.143100,0.024046,-0.060590,0.000000,0.117855,-0.175439,-0.000000
0.250000,-2.640122,-0.251142,-1.488086,0.102211,0.007775,0.006764,0.613155,0.247975,-0.014010,1.718164,1.094385,-0.182576,-2.357600,-7.405769,-0.370622,0.025187,-0.062333,0.000000,0.110372,-0.173005,0.000000
0.260000,-2.639069,-0.251052,-1.488019,0.108429,0.010309,0.006615,0.630220,0.258549,-0.015870,1.693925,1.019186,-0.189294,-2.634270,-7.656971,-0.565100,0.026253,-0.064051,0.000000,0.102648,-0.170399,0.000000
0.270000,-2.637953,-0.250936,-1.487954,0.114816,0.012945,0.006447,0.647033,0.268358,-0.017795,1.665478,0.941246,-0.193878,-3.280306,-7.957544,-0.333407,0.027240,-0.065742,0.000000,0.094659,-0.167379,-0.000000
0.280000,-2.636773,-0.250793,-1.487890,0.121370,0.015676,0.006259,0.663530,0.277374,-0.019748,1.628319,0.860035,-0.195962,-4.102877,-8.278407,-0.152815,0.028146,-0.067400,0.000000,0.086354,-0.163496,0.000000
0.290000,-2.635526,-0.250623,-1.487828,0.128086,0.018493,0.006052,0.679600,0.285559,-0.021715,1.583421,0.775677,-0.196934,-4.575292,-8.559159,-0.041574,0.028967,-0.069013,0.000000,0.077744,-0.158842,0.000000
0.300000,-2.634211,-0.250424,-1.487769,0.134962,0.021387,0.005825,0.695198,0.292887,-0.023686,1.536813,0.688852,-0.196793,-4.614136,-8.791718,0.079961,0.029701,-0.070578,0.000000,0.068897,-0.154028,0.000000
0.310000,-2.632827,-0.250195,-1.487712,0.141990,0.024351,0.005578,0.710336,0.299336,-0.025651,1.491138,0.599843,-0.195335,-4.595617,-9.017720,0.204489,0.030345,-0.072095,0.000000,0.059843,-0.149323,0.000000
0.320000,-2.631371,-0.249937,-1.487657,0.149168,0.027374,0.005312,0.725021,0.304884,-0.027593,1.444900,0.508497,-0.192703,-4.783056,-9.262950,0.287354,0.030898,-0.073566,0.000000,0.050566,-0.144577,0.000000
0.330000,-2.629843,-0.249648,-1.487606,0.156491,0.030448,0.005026,0.739234,0.309506,-0.029505,1.395477,0.414584,-0.189588,-5.074670,-9.515151,0.328311,0.031357,-0.074988,0.000000,0.041043,-0.139520,0.000000
0.340000,-2.628242,-0.249328,-1.487557,0.163953,0.033564,0.004722,0.752930,0.313176,-0.031385,1.343407,0.318194,-0.186137,-5.162899,-9.743393,0.386245,0.031719,-0.076358,0.000000,0.031281,-0.134205,0.000000
0.350000,-2.626564,-0.248976,-1.487511,0.171549,0.036712,0.004399,0.766102,0.315870,-0.033227,1.292219,0.219716,-0.181863,-4.995969,-9.941881,0.475496,0.031982,-0.077674,0.000000,0.021320,-0.128994,0.000000
0.360000,-2.624811,-0.248593,-1.487469,0.179275,0.039882,0.004057,0.778775,0.317570,-0.035022,1.243488,0.119357,-0.176627,-4.794910,-10.131883,0.554603,0.032145,-0.078939,0.000000,0.011182,-0.124046,0.000000
0.370000,-2.622979,-0.248179,-1.487430,0.187125,0.043063,0.003698,0.790972,0.318257,-0.036760,1.196321,0.017079,-0.170771,-4.720410,-10.329794,0.591914,0.032206,-0.080156,0.000000,0.000860,-0.119269,0.000000
0.380000,-2.621068,-0.247732,-1.487395,0.195094,0.046247,0.003322,0.802701,0.317912,-0.038437,1.149079,-0.087239,-0.164789,-4.713686,-10.529393,0.599280,0.032163,-0.081326,0.000000,-0.009658,-0.114492,0.000000
0.390000,-2.619077,-0.247254,-1.487364,0.203179,0.049422,0.002930,0.813954,0.316512,-0.040056,1.102047,-0.193509,-0.158785,-4.586665,-10.710049,0.616322,0.032013,-0.082447,0.000000,-0.020365,-0.109744,0.000000
0.400000,-2.617004,-0.246744,-1.487336,0.211374,0.052577,0.002521,0.824742,0.314041,-0.041613,1.057346,-0.301440,-0.152463,-4.307138,-10.867224,0.653450,0.031755,-0.083522,0.000000,-0.031231,-0.105241,-0.000000
0.410000,-2.614849,-0.246202,-1.487313,0.219674,0.055702,0.002097,0.835100,0.310483,-0.043105,1.015904,-0.410854,-0.145716,-4.010803,-11.014833,0.683666,0.031388,-0.084553,0.000000,-0.042241,-0.101075,-0.000000
0.420000,-2.612611,-0.245630,-1.487294,0.228076,0.058787,0.001659,0.845060,0.305824,-0.044527,0.977130,-0.521737,-0.138789,-3.796965,-11.164081,0.680103,0.030911,-0.085544,0.000000,-0.053393,-0.097186,-0.000000
0.430000,-2.610288,-0.245026,-1.487280,0.236575,0.061819,0.001207,0.854643,0.300049,-0.045881,0.939965,-0.634135,-0.132114,-3.630018,-11.310612,0.651513,0.030321,-0.086498,0.000000,-0.064693,-0.093463,-0.000000
0.440000,-2.607879,-0.244393,-1.487270,0.245168,0.064788,0.000741,0.863860,0.293142,-0.047170,0.904530,-0.747949,-0.125759,-3.394017,-11.439775,0.633077,0.029617,-0.087414,0.000000,-0.076134,-0.089915,0.000000
0.450000,-2.605385,-0.243731,-1.487265,0.253852,0.067682,0.000263,0.872734,0.285090,-0.048396,0.872085,-0.862931,-0.119452,-3.067794,-11.548405,0.627131,0.028798,-0.088297,0.000000,-0.087689,-0.086673,0.000000
0.460000,-2.602802,-0.243040,-1.487265,0.262623,0.070489,-0.000227,0.881301,0.275883,-0.049559,0.843174,-0.978917,-0.113216,-2.735439,-11.646002,0.610926,0.027863,-0.089149,0.000000,-0.099344,-0.083790,-0.000000
0.470000,-2.600132,-0.242321,-1.487270,0.271478,0.073199,-0.000728,0.889597,0.265511,-0.050660,0.817376,-1.095851,-0.107234,-2.462521,-11.739431,0.583477,0.026811,-0.089973,0.000000,-0.111092,-0.081221,0.000000
0.480000,-2.597373,-0.241576,-1.487280,0.280415,0.075800,-0.001240,0.897649,0.253966,-0.051703,0.793923,-1.213706,-0.101547,-2.227216,-11.825295,0.552721,0.025641,-0.090774,0.000000,-0.122933,-0.078889,-0.000000
0.490000,-2.594524,-0.240805,-1.487295,0.289431,0.078279,-0.001762,0.905476,0.241237,-0.052691,0.772831,-1.332357,-0.096180,-1.952494,-11.894203,0.519408,0.024352,-0.091552,0.000000,-0.134854,-0.076794,0.000000
0.500000,-2.591584,-0.240010,-1.487315,0.298525,0.080624,-0.002294,0.913105,0.227319,-0.053627,0.754874,-1.451590,-0.091159,-1.625621,-11.944671,0.488107,0.022944,-0.092310,0.000000,-0.146834,-0.075013,-0.000000
0.510000,-2.588553,-0.239192,-1.487340,0.307693,0.082825,-0.002834,0.920573,0.212206,-0.054514,0.740319,-1.571250,-0.086417,-1.302378,-11.982346,0.459189,0.021416,-0.093052,0.000000,-0.158856,-0.073573,0.000000
0.520000,-2.585430,-0.238354,-1.487371,0.316936,0.084869,-0.003384,0.927912,0.195894,-0.055355,0.728826,-1.691237,-0.081975,-1.021572,-12.009344,0.418611,0.019767,-0.093782,0.000000,-0.170911,-0.072441,-0.000000
0.530000,-2.582215,-0.237495,-1.487408,0.326252,0.086743,-0.003942,0.935150,0.178381,-0.056154,0.719888,-1.811437,-0.078045,-0.768471,-12.023133,0.365986,0.017997,-0.094501,0.000000,-0.182987,-0.071561,0.000000
0.540000,-2.578905,-0.236619,-1.487450,0.335639,0.088436,-0.004507,0.942310,0.159665,-0.056916,0.713457,-1.931699,-0.074655,-0.498485,-12.020353,0.322407,0.016107,-0.095213,0.000000,-0.195069,-0.070929,-0.000000
0.550000,-2.575502,-0.235726,-1.487498,0.345098,0.089936,-0.005080,0.949419,0.139747,-0.057647,0.709918,-2.051844,-0.071597,-0.204393,-12.001170,0.295002,0.014096,-0.095920,0.000000,-0.207138,-0.070585,-0.000000
0.560000,-2.572003,-0.234820,-1.487552,0.354627,0.091231,-0.005660,0.956508,0.118628,-0.058348,0.709369,-2.171723,-0.068755,0.081197,-11.966985,0.270413,0.011964,-0.096625,0.000000,-0.219177,-0.070540,0.000000
0.570000,-2.568409,-0.233902,-1.487611,0.364228,0.092309,-0.006247,0.963606,0.096312,-0.059022,0.711542,-2.291184,-0.066189,0.334476,-11.915766,0.235646,0.009713,-0.097331,0.000000,-0.231171,-0.070766,0.000000
0.580000,-2.564719,-0.232974,-1.487677,0.373899,0.093157,-0.006840,0.970739,0.072804,-0.059672,0.716058,-2.410038,-0.064042,0.563428,-11.846165,0.196590,0.007341,-0.098040,0.000000,-0.243100,-0.071222,-0.000000
0.590000,-2.560931,-0.232039,-1.487748,0.383643,0.093765,-0.007440,0.977927,0.048112,-0.060303,0.722810,-2.528107,-0.062257,0.795277,-11.760128,0.171845,0.004851,-0.098755,0.000000,-0.254944,-0.071899,0.000000
0.600000,-2.557046,-0.231098,-1.487826,0.393458,0.094120,-0.008046,0.985195,0.022242,-0.060917,0.731964,-2.645241,-0.060605,1.036464,-11.659000,0.159572,0.002242,-0.099478,0.000000,-0.266687,-0.072815,0.000000
0.610000,-2.553062,-0.230156,-1.487909,0.403347,0.094210,-0.008659,0.992567,-0.004793,-0.061515,0.743540,-2.761287,-0.059065,1.266654,-11.540588,0.149293,-0.000483,-0.100212,0.000000,-0.278313,-0.073972,0.000000
0.620000,-2.548979,-0.229214,-1.487999,0.413309,0.094024,-0.009277,1.000066,-0.032983,-0.062098,0.757297,-2.876052,-0.057620,1.465118,-11.400092,0.152101,-0.003324,-0.100958,0.000000,-0.289800,-0.075346,-0.000000
0.630000,-2.544796,-0.228276,-1.488095,0.423348,0.093550,-0.009901,1.007712,-0.062314,-0.062667,0.772842,-2.989289,-0.056023,1.636382,-11.237285,0.173336,-0.006279,-0.101719,0.000000,-0.301122,-0.076899,-0.000000
0.640000,-2.540512,-0.227343,-1.488197,0.433464,0.092777,-0.010530,1.015523,-0.092769,-0.063219,0.790024,-3.100798,-0.054153,1.805301,-11.057710,0.199023,-0.009346,-0.102496,0.000000,-0.312259,-0.078618,-0.000000
0.650000,-2.536127,-0.226420,-1.488305,0.443658,0.091695,-0.011165,1.023513,-0.124330,-0.063750,0.808948,-3.210443,-0.052043,1.977066,-10.863484,0.228376,-0.012524,-0.103291,0.000000,-0.323195,-0.080511,-0.000000
0.660000,-2.531639,-0.225509,-1.488420,0.453934,0.090291,-0.011805,1.031702,-0.156978,-0.064260,0.829566,-3.318068,-0.049585,2.133460,-10.650073,0.272566,-0.015810,-0.104106,0.000000,-0.333913,-0.082576,-0.000000
0.670000,-2.527048,-0.224614,-1.488541,0.464292,0.088555,-0.012450,1.040104,-0.190692,-0.064742,0.851617,-3.423445,-0.046592,2.259737,-10.410969,0.332604,-0.019202,-0.104943,0.000000,-0.344391,-0.084789,-0.000000
0.680000,-2.522353,-0.223738,-1.488669,0.474736,0.086477,-0.013100,1.048734,-0.225447,-0.065192,0.874760,-3.526287,-0.042933,2.360328,-10.146811,0.406478,-0.022698,-0.105802,0.000000,-0.354597,-0.087115,-0.000000
0.690000,-2.517553,-0.222885,-1.488803,0.485267,0.084046,-0.013754,1.057599,-0.261217,-0.065601,0.898824,-3.626381,-0.038462,2.452689,-9.865466,0.495691,-0.026294,-0.106686,0.000000,-0.364512,-0.089539,-0.000000
0.700000,-2.512648,-0.222057,-1.488944,0.495888,0.081253,-0.014412,1.066710,-0.297975,-0.065961,0.923814,-3.723596,-0.033019,2.541581,-9.569164,0.596635,-0.029988,-0.107594,0.000000,-0.374121,-0.092065,0.000000
0.710000,-2.507636,-0.221260,-1.489092,0.506601,0.078087,-0.015073,1.076076,-0.335689,-0.066261,0.949655,-3.817764,-0.026529,2.614219,-9.251983,0.710042,-0.033777,-0.108528,0.000000,-0.383408,-0.094684,0.000000
0.720000,-2.502516,-0.220496,-1.489246,0.517409,0.074539,-0.015737,1.085703,-0.374330,-0.066491,0.976099,-3.908636,-0.018819,2.656539,-8.907612,0.851368,-0.037656,-0.109488,0.000000,-0.392350,-0.097374,-0.000000
0.730000,-2.497287,-0.219769,-1.489406,0.528315,0.070600,-0.016403,1.095598,-0.413862,-0.066638,1.002786,-3.995916,-0.009502,2.671343,-8.537385,1.023241,-0.041624,-0.110477,0.000000,-0.400918,-0.100105,0.000000
0.740000,-2.491949,-0.219084,-1.489574,0.539321,0.066262,-0.017070,1.105759,-0.454248,-0.066681,1.029526,-4.079384,0.001646,2.676183,-8.148974,1.205938,-0.045675,-0.111492,0.000000,-0.409093,-0.102859,0.000000
0.750000,-2.486501,-0.218444,-1.489748,0.550430,0.061515,-0.017737,1.116188,-0.495450,-0.066605,1.056310,-4.158896,0.014617,2.676660,-7.744053,1.389207,-0.049805,-0.112536,0.000000,-0.416864,-0.105636,0.000000
0.760000,-2.480941,-0.217853,-1.489928,0.561645,0.056353,-0.018402,1.126885,-0.537426,-0.066389,1.083059,-4.234265,0.029430,2.660191,-7.317060,1.588328,-0.054012,-0.113608,0.000000,-0.424214,-0.108429,0.000000
0.770000,-2.475268,-0.217317,-1.490116,0.572968,0.050767,-0.019064,1.137849,-0.580135,-0.066016,1.109514,-4.305237,0.046383,2.611870,-6.863392,1.831082,-0.058290,-0.114708,0.000000,-0.431121,-0.111217,-0.000000
0.780000,-2.469481,-0.216838,-1.490310,0.584402,0.044750,-0.019722,1.149076,-0.623531,-0.065461,1.135296,-4.371533,0.066052,2.534657,-6.384524,2.115685,-0.062634,-0.115836,0.000000,-0.437565,-0.113970,0.000000
0.790000,-2.463580,-0.216422,-1.490510,0.595950,0.038296,-0.020374,1.160555,-0.667566,-0.064695,1.160207,-4.432928,0.088697,2.447797,-5.885987,2.405933,-0.067041,-0.116992,0.000000,-0.443530,-0.116671,0.000000
0.800000,-2.457562,-0.216072,-1.490717,0.607613,0.031399,-0.021016,1.172280,-0.712189,-0.063688,1.184252,-4.489252,0.114171,2.357716,-5.368693,2.685756,-0.071505,-0.118174,0.000000,-0.449005,-0.119321,0.000000
0.810000,-2.451428,-0.215794,-1.490931,0.619395,0.024052,-0.021647,1.184240,-0.757351,-0.062412,1.207361,-4.540301,0.142412,2.251072,-4.828713,2.981117,-0.076021,-0.119384,0.000000,-0.453972,-0.121914,-0.000000
0.820000,-2.445175,-0.215591,-1.491150,0.631298,0.016252,-0.022264,1.196427,-0.802995,-0.060839,1.229274,-4.585827,0.173793,2.111693,-4.263477,3.333581,-0.080584,-0.120620,0.000000,-0.458418,-0.124431,-0.000000
0.830000,-2.438802,-0.215469,-1.491376,0.643324,0.007992,-0.022864,1.208826,-0.849067,-0.058936,1.249595,-4.625571,0.209084,1.943002,-3.674048,3.738120,-0.085189,-0.121881,0.000000,-0.462329,-0.126842,0.000000
0.840000,-2.432308,-0.215431,-1.491607,0.655475,-0.000730,-0.023443,1.221419,-0.895507,-0.056658,1.268134,-4.659308,0.248555,1.766579,-3.063445,4.139206,-0.089831,-0.123166,0.000000,-0.465695,-0.129136,-0.000000
0.850000,-2.425692,-0.215483,-1.491845,0.667752,-0.009918,-0.023997,1.234189,-0.942253,-0.053965,1.284927,-4.686840,0.291868,1.589609,-2.432430,4.514411,-0.094503,-0.124474,0.000000,-0.468503,-0.131313,0.000000
0.860000,-2.418953,-0.215630,-1.492087,0.680158,-0.019575,-0.024522,1.247117,-0.989244,-0.050820,1.299926,-4.707956,0.338844,1.397509,-1.778840,4.901945,-0.099201,-0.125804,0.000000,-0.470737,-0.133370,-0.000000
0.870000,-2.412089,-0.215875,-1.492335,0.692695,-0.029703,-0.025014,1.260187,-1.036412,-0.047188,1.312877,-4.722417,0.389907,1.173207,-1.100370,5.356598,-0.103918,-0.127155,0.000000,-0.472389,-0.135290,-0.000000
0.880000,-2.405099,-0.216224,-1.492588,0.705362,-0.040303,-0.025466,1.273375,-1.083692,-0.043022,1.323390,-4.729964,0.445976,0.920889,-0.397325,5.869220,-0.108649,-0.128525,0.000000,-0.473453,-0.137047,0.000000
0.890000,-2.397982,-0.216681,-1.492845,0.718162,-0.051377,-0.025874,1.286655,-1.131012,-0.038268,1.331295,-4.730363,0.507291,0.663910,0.327338,6.365376,-0.113388,-0.129912,0.000000,-0.473921,-0.138633,-0.000000
0.900000,-2.390736,-0.217251,-1.493105,0.731095,-0.062923,-0.026232,1.300001,-1.178299,-0.032876,1.336668,-4.723417,0.573283,0.409784,1.071223,6.816067,-0.118128,-0.131315,0.000000,-0.473779,-0.140050,-0.000000
0.910000,-2.383360,-0.217939,-1.493369,0.744162,-0.074943,-0.026532,1.313388,-1.225480,-0.026803,1.339490,-4.708939,0.643612,0.143214,1.836526,7.271131,-0.122863,-0.132733,0.000000,-0.473015,-0.141296,-0.000000
0.920000,-2.375853,-0.218750,-1.493636,0.757363,-0.087433,-0.026768,1.326791,-1.272478,-0.020004,1.339532,-4.686686,0.718706,-0.152430,2.629931,7.798916,-0.127588,-0.134163,0.000000,-0.471622,-0.142357,-0.000000
0.930000,-2.368213,-0.219688,-1.493905,0.770698,-0.100392,-0.026932,1.340179,-1.319214,-0.012428,1.336442,-4.656340,0.799591,-0.472277,3.451728,8.384324,-0.132296,-0.135603,0.000000,-0.469594,-0.143215,-0.000000
0.940000,-2.360439,-0.220758,-1.494174,0.784167,-0.113817,-0.027016,1.353520,-1.365605,-0.004012,1.330087,-4.617652,0.886392,-0.793139,4.292645,8.933294,-0.136980,-0.137052,0.000000,-0.466921,-0.143863,0.000000
0.950000,-2.352529,-0.221964,-1.494445,0.797768,-0.127704,-0.027012,1.366781,-1.411567,0.005299,1.320579,-4.570487,0.978257,-1.107579,5.145765,9.422976,-0.141635,-0.138508,0.000000,-0.463592,-0.144305,0.000000
0.960000,-2.344483,-0.223312,-1.494715,0.811502,-0.142049,-0.026910,1.379931,-1.457015,0.015553,1.307935,-4.514737,1.074852,-1.430213,6.017710,9.913971,-0.146253,-0.139968,0.000000,-0.459601,-0.144540,0.000000
0.970000,-2.336299,-0.224805,-1.494983,0.825367,-0.156845,-0.026701,1.392939,-1.501862,0.026796,1.291975,-4.450133,1.176536,-1.776759,6.926503,10.450461,-0.150827,-0.141430,0.000000,-0.454938,-0.144559,0.000000
0.980000,-2.327976,-0.226449,-1.495249,0.839361,-0.172086,-0.026374,1.405771,-1.546017,0.039084,1.272400,-4.376206,1.283861,-2.142588,7.871999,11.013078,-0.155352,-0.142892,0.000000,-0.449575,-0.144344,0.000000
0.990000,-2.319512,-0.228247,-1.495511,0.853482,-0.187765,-0.025919,1.418387,-1.589386,0.052474,1.249123,-4.292693,1.396798,-2.504944,8.829074,11.539353,-0.159819,-0.144352,0.000000,-0.443497,-0.143888,-0.000000
1.000000,-2.310906,-0.230204,-1.495767,0.867729,-0.203873,-0.025325,1.430753,-1.631871,0.067020,1.222301,-4.199625,1.514648,-2.853476,9.782625,11.996748,-0.164222,-0.145807,0.000000,-0.436705,-0.143201,0.000000
1.010000,-2.302158,-0.232324,-1.496017,0.882097,-0.220402,-0.024579,1.442833,-1.673378,0.082767,1.192053,-4.097041,1.636733,-3.202286,10.750068,12.423797,-0.168554,-0.147256,0.000000,-0.429196,-0.142285,-0.000000
1.020000,-2.293264,-0.234612,-1.496259,0.896585,-0.237341,-0.023670,1.454594,-1.713812,0.099754,1.158255,-3.984624,1.763124,-3.574412,11.769255,12.897983,-0.172807,-0.148694,0.000000,-0.420947,-0.141133,-0.000000
1.030000,-2.284226,-0.237071,-1.496490,0.911189,-0.254679,-0.022584,1.465998,-1.753071,0.118029,1.120565,-3.861655,1.894692,-3.964529,12.837722,13.404846,-0.176973,-0.150121,0.000000,-0.411905,-0.139723,-0.000000
1.040000,-2.275041,-0.239706,-1.496710,0.925905,-0.272402,-0.021309,1.477005,-1.791045,0.137648,1.078965,-3.727869,2.031221,-4.339245,13.902760,13.832539,-0.181045,-0.151533,0.000000,-0.402045,-0.138053,0.000000
1.050000,-2.265708,-0.242519,-1.496917,0.940729,-0.290499,-0.019831,1.487578,-1.827628,0.158653,1.033780,-3.583600,2.171343,-4.692202,14.937683,14.162600,-0.185015,-0.152928,0.000000,-0.391374,-0.136135,0.000000
1.060000,-2.256226,-0.245516,-1.497107,0.955657,-0.308955,-0.018136,1.497681,-1.862717,0.181075,0.985121,-3.429116,2.314473,-5.043697,15.978271,14.463820,-0.188873,-0.154303,0.000000,-0.379905,-0.133970,-0.000000
1.070000,-2.246595,-0.248698,-1.497279,0.970683,-0.327754,-0.016209,1.507280,-1.896210,0.204943,0.932906,-3.264035,2.460619,-5.401602,17.089216,14.754722,-0.192613,-0.155656,0.000000,-0.367595,-0.131549,-0.000000
1.080000,-2.236812,-0.252071,-1.497431,0.985802,-0.346879,-0.014037,1.516339,-1.927998,0.230287,0.877089,-3.087331,2.609567,-5.757138,18.262808,15.003396,-0.196226,-0.156984,0.000000,-0.354330,-0.128862,0.000000
1.090000,-2.226879,-0.255636,-1.497560,1.001010,-0.366314,-0.011604,1.524822,-1.957957,0.257134,0.817764,-2.898779,2.760687,-6.097777,19.408982,15.180777,-0.199700,-0.158284,0.000000,-0.340063,-0.125907,0.000000
1.100000,-2.216792,-0.259397,-1.497663,1.016299,-0.386038,-0.008894,1.532694,-1.985973,0.285501,0.755133,-2.699152,2.913183,-6.421649,20.489059,15.301754,-0.203027,-0.159553,0.000000,-0.324840,-0.122687,-0.000000
1.110000,-2.206553,-0.263357,-1.497738,1.031664,-0.406033,-0.005894,1.539925,-2.011940,0.315398,0.689331,-2.488997,3.066722,-6.734289,21.562978,15.375643,-0.206197,-0.160789,0.000000,-0.308691,-0.119206,-0.000000
1.120000,-2.196159,-0.267518,-1.497781,1.047097,-0.426277,-0.002586,1.546481,-2.035753,0.346836,0.620448,-2.267892,3.220696,-7.035402,22.720832,15.345603,-0.209201,-0.161989,0.000000,-0.291538,-0.115458,0.000000
1.130000,-2.185611,-0.271882,-1.497790,1.062593,-0.446748,0.001043,1.552334,-2.057298,0.379812,0.548622,-2.034581,3.373634,-7.321017,23.946414,15.197162,-0.212028,-0.163150,0.000000,-0.273199,-0.111426,-0.000000
1.140000,-2.174907,-0.276453,-1.497760,1.078144,-0.467423,0.005010,1.557453,-2.076445,0.414308,0.474027,-1.788964,3.524639,-7.588225,25.113992,14.999827,-0.214665,-0.164269,0.000000,-0.253611,-0.107106,-0.000000
1.150000,-2.164048,-0.281231,-1.497689,1.093742,-0.488277,0.009329,1.561814,-2.093077,0.450305,0.396858,-1.532301,3.673631,-7.834477,26.177406,14.779893,-0.217100,-0.165343,0.000000,-0.232862,-0.102508,0.000000
1.160000,-2.153032,-0.286218,-1.497574,1.109380,-0.509285,0.014016,1.565391,-2.107091,0.487781,0.317338,-1.265416,3.820237,-8.058910,27.218469,14.481115,-0.219322,-0.166368,0.000000,-0.210987,-0.097638,-0.000000
1.170000,-2.141860,-0.291416,-1.497409,1.125050,-0.530419,0.019085,1.568161,-2.118385,0.526709,0.235680,-0.987932,3.963253,-8.263121,28.339273,14.029156,-0.221320,-0.167343,0.000000,-0.187879,-0.092487,0.000000
1.180000,-2.130531,-0.296827,-1.497192,1.140744,-0.551652,0.024550,1.570104,-2.126850,0.567046,0.152075,-0.698630,4.100820,-8.444320,29.513669,13.428062,-0.223080,-0.168264,0.000000,-0.163322,-0.087033,-0.000000
1.190000,-2.119045,-0.302450,-1.496918,1.156452,-0.572956,0.030426,1.571202,-2.132358,0.608726,0.066793,-0.397658,4.231815,-8.596536,30.598044,12.768782,-0.224586,-0.169128,0.000000,-0.137250,-0.081270,0.000000
1.200000,-2.107402,-0.308286,-1.496583,1.172168,-0.594300,0.036725,1.571440,-2.134803,0.651682,-0.019856,-0.086669,4.356196,-8.724660,31.549546,12.113304,-0.225824,-0.169931,0.000000,-0.109769,-0.075216,0.000000
1.210000,-2.095602,-0.314336,-1.496184,1.187881,-0.615652,0.043459,1.570805,-2.134091,0.695850,-0.107700,0.233333,4.474081,-8.829372,32.458650,11.390755,-0.226780,-0.170671,0.000000,-0.080924,-0.068878,0.000000
1.220000,-2.083645,-0.320599,-1.495714,1.203584,-0.636981,0.050642,1.569286,-2.130136,0.741164,-0.196443,0.562504,4.584011,-8.889059,33.410979,10.423458,-0.227441,-0.171345,0.000000,-0.050601,-0.062247,0.000000
1.230000,-2.071530,-0.327075,-1.495171,1.219267,-0.658255,0.058283,1.566876,-2.122841,0.787530,-0.285481,0.901552,4.682550,-8.898490,34.371927,9.216261,-0.227791,-0.171949,0.000000,-0.018575,-0.055309,0.000000
1.240000,-2.059259,-0.333764,-1.494549,1.234921,-0.679438,0.066392,1.563576,-2.112105,0.834815,-0.374413,1.249942,4.768336,-8.884294,35.218400,8.005823,-0.227811,-0.172480,0.000000,0.015206,-0.048066,-0.000000
1.250000,-2.046832,-0.340664,-1.493843,1.250538,-0.700497,0.074979,1.559388,-2.097843,0.882897,-0.463167,1.605920,4.842666,-8.862748,35.928478,6.888446,-0.227485,-0.172935,0.000000,0.050603,-0.040534,0.000000
1.260000,-2.034248,-0.347774,-1.493049,1.266109,-0.721395,0.084050,1.554313,-2.079987,0.931668,-0.551668,1.968512,4.906105,-8.812128,36.574503,5.697145,-0.226797,-0.173312,0.000000,0.087572,-0.032716,-0.000000
1.270000,-2.021510,-0.355092,-1.492162,1.281625,-0.742097,0.093612,1.548355,-2.058472,0.981019,-0.639409,2.337410,4.956609,-8.686203,37.182014,4.194360,-0.225731,-0.173606,0.000000,0.126202,-0.024615,-0.000000
1.280000,-2.008616,-0.362616,-1.491177,1.297076,-0.762564,0.103671,1.541525,-2.033238,1.030800,-0.725392,2.712152,4.989992,-8.485893,37.714104,2.419355,-0.224270,-0.173816,0.000000,0.166618,-0.016245,0.000000
1.290000,-1.995568,-0.370343,-1.490089,1.312455,-0.782761,0.114228,1.533847,-2.004229,1.080819,-0.809127,3.091692,5.004996,-8.271162,38.127511,0.689942,-0.222396,-0.173939,0.000000,0.208809,-0.007623,-0.000000
1.300000,-1.982367,-0.378271,-1.488892,1.327753,-0.802649,0.125287,1.525342,-1.971405,1.130900,-0.890815,3.474702,5.003791,-8.070930,38.442264,-0.883804,-0.220091,-0.173972,0.000000,0.252636,0.001244,0.000000
1.310000,-1.969013,-0.386396,-1.487583,1.342962,-0.822189,0.136846,1.516031,-1.934735,1.180894,-0.970546,3.860538,4.987320,-7.841395,38.672747,-2.517280,-0.217340,-0.173913,0.000000,0.298060,0.010355,0.000000
1.320000,-1.955508,-0.394715,-1.486155,1.358074,-0.841344,0.148905,1.505931,-1.894194,1.230647,-1.047643,4.248157,4.953445,-7.506405,38.736102,-4.470216,-0.214127,-0.173760,0.000000,0.345063,0.019686,-0.000000
1.330000,-1.941852,-0.403223,-1.484605,1.373081,-0.860073,0.161459,1.495078,-1.849772,1.279963,-1.120674,4.635260,4.897916,-7.073116,38.605602,-6.682125,-0.210436,-0.173510,0.000000,0.393527,0.029165,-0.000000
1.340000,-1.928046,-0.411916,-1.482926,1.387975,-0.878339,0.174504,1.483518,-1.801489,1.328605,-1.189105,5.020269,4.819803,-6.643117,38.383819,-8.800049,-0.206253,-0.173163,0.000000,0.443308,0.038751,-0.000000
1.350000,-1.914092,-0.420790,-1.481115,1.402751,-0.896103,0.188031,1.471296,-1.749367,1.376359,-1.253536,5.402936,4.721915,-6.260260,38.147050,-10.709511,-0.201566,-0.172717,0.000000,0.494298,0.048453,0.000000
1.360000,-1.899991,-0.429838,-1.479166,1.417401,-0.913327,0.202031,1.458447,-1.693430,1.423043,-1.314310,5.783210,4.605613,-5.853807,37.809376,-12.642130,-0.196364,-0.172173,0.000000,0.546435,0.058278,0.000000
1.370000,-1.885744,-0.439056,-1.477074,1.431920,-0.929972,0.216492,1.445009,-1.633702,1.468472,-1.370612,6.159124,4.469072,-5.314797,37.152913,-14.854196,-0.190634,-0.171529,0.000000,0.599497,0.068161,-0.000000
1.380000,-1.871353,-0.448438,-1.474836,1.446301,-0.946001,0.231401,1.431035,-1.570247,1.512425,-1.420606,6.526269,4.308529,-4.662219,36.175478,-17.268026,-0.184371,-0.170784,0.000000,0.652990,0.077953,-0.000000
1.390000,-1.856818,-0.457976,-1.472446,1.460541,-0.961377,0.246741,1.416597,-1.503177,1.554642,-1.463857,6.882633,4.123712,-4.043136,35.163063,-19.528763,-0.177572,-0.169942,0.000000,0.706566,0.087586,-0.000000
1.400000,-1.842142,-0.467665,-1.469901,1.474633,-0.976064,0.262494,1.401758,-1.432595,1.594899,-1.501469,7.229530,3.917953,-3.492005,34.265488,-21.561740,-0.170237,-0.169004,0.000000,0.760156,0.097099,-0.000000
1.410000,-1.827325,-0.477498,-1.467196,1.488576,-0.990029,0.278639,1.386568,-1.358586,1.633001,-1.533697,7.567943,3.692477,-2.911328,33.274030,-23.589153,-0.162367,-0.167972,0.000000,0.813688,0.106469,-0.000000
1.420000,-1.812370,-0.487466,-1.464328,1.502365,-1.003236,0.295154,1.371084,-1.281236,1.668748,-1.559696,7.895010,3.446170,-2.231929,31.796628,-25.738287,-0.153962,-0.166846,0.000000,0.866666,0.115590,0.000000
1.430000,-1.797278,-0.497562,-1.461293,1.515997,-1.015653,0.312014,1.355374,-1.200686,1.701925,-1.578336,8.203876,3.177711,-1.493399,29.876463,-27.901122,-0.145033,-0.165632,0.000000,0.918072,0.124318,-0.000000
1.440000,-1.782050,-0.507779,-1.458088,1.529472,-1.027250,0.329192,1.339517,-1.117158,1.732303,-1.589564,8.492540,2.888148,-0.786914,28.037365,-29.897948,-0.135601,-0.164334,0.000000,0.967374,0.132585,0.000000
1.450000,-1.766689,-0.518107,-1.454709,1.542788,-1.037996,0.346660,1.323583,-1.030835,1.759688,-1.594074,8.764623,2.579752,-0.084891,26.425945,-31.845453,-0.125687,-0.162956,0.000000,1.014678,0.140386,0.000000
1.460000,-1.751195,-0.528539,-1.451155,1.555944,-1.047866,0.364386,1.307636,-0.941866,1.783898,-1.591261,9.021059,2.251239,0.665373,24.684919,-33.829019,-0.115309,-0.161504,0.000000,1.059829,0.147631,-0.000000
1.470000,-1.735570,-0.539065,-1.447422,1.568940,-1.056834,0.382338,1.291758,-0.850414,1.804712,-1.580766,9.258321,1.903172,1.367121,22.487552,-35.453946,-0.104493,-0.159984,0.000000,1.102078,0.154220,0.000000
1.480000,-1.719816,-0.549675,-1.443508,1.581779,-1.064875,0.400480,1.276020,-0.756699,1.821961,-1.563919,9.470810,1.542160,2.004955,19.943738,-36.650562,-0.093272,-0.158403,0.000000,1.140339,0.160140,-0.000000
1.490000,-1.703934,-0.560362,-1.439412,1.594461,-1.071968,0.418777,1.260479,-0.660998,1.835556,-1.540667,9.657196,1.170161,2.707694,17.485725,-37.944958,-0.081691,-0.156768,0.000000,1.174137,0.165309,-0.000000
1.500000,-1.687926,-0.571115,-1.435132,1.606988,-1.078095,0.437191,1.245207,-0.563556,1.845364,-1.509765,9.820524,0.783261,3.411387,15.214842,-39.448073,-0.069794,-0.155087,0.000000,1.203602,0.169614,0.000000
1.510000,-1.671794,-0.581924,-1.430668,1.619365,-1.083239,0.455684,1.230284,-0.464588,1.851221,-1.472439,9.961493,0.381199,4.029816,12.849870,-40.780051,-0.057625,-0.153368,0.000000,1.228546,0.173171,0.000000
1.520000,-1.655539,-0.592780,-1.426019,1.631594,-1.087386,0.474216,1.215758,-0.364326,1.852988,-1.429169,10.077522,-0.032340,4.774935,10.173205,-41.715884,-0.045231,-0.151618,0.000000,1.248375,0.175941,0.000000
1.530000,-1.639162,-0.603672,-1.421184,1.643680,-1.090525,0.492744,1.201700,-0.263037,1.850574,-1.376941,10.164957,-0.453119,5.679769,7.284865,-42.362990,-0.032665,-0.149847,0.000000,1.262422,0.177448,-0.000000
1.540000,-1.622666,-0.614590,-1.416164,1.655628,-1.092647,0.511227,1.188219,-0.161027,1.843926,-1.315573,10.223219,-0.879600,6.437075,4.482970,-42.981609,-0.019990,-0.148068,0.000000,1.270472,0.177629,0.000000
1.550000,-1.606050,-0.625525,-1.410959,1.667445,-1.093746,0.529622,1.175389,-0.058573,1.832982,-1.248199,10.254616,-1.312751,7.017470,1.815659,-43.628240,-0.007264,-0.146294,0.000000,1.272727,0.176878,-0.000000
1.560000,-1.589317,-0.636465,-1.405571,1.679136,-1.093819,0.547887,1.163256,0.044066,1.817671,-1.175224,10.259532,-1.752165,7.622344,-0.897711,-44.117185,0.005456,-0.144532,0.000000,1.269193,0.175237,-0.000000
1.570000,-1.572467,-0.647401,-1.400001,1.690710,-1.092865,0.565976,1.151885,0.146618,1.797939,-1.095752,10.236662,-2.195094,8.238612,-3.726151,-44.269721,0.018111,-0.142790,0.000000,1.259727,0.172556,0.000000
1.580000,-1.555503,-0.658322,-1.394252,1.702174,-1.090886,0.583846,1.141340,0.248799,1.773769,-1.010452,10.185009,-2.637559,8.774175,-6.585579,-44.116073,0.030642,-0.141081,0.000000,1.244300,0.168864,0.000000
1.590000,-1.538424,-0.669219,-1.388325,1.713536,-1.087889,0.601451,1.131675,0.350318,1.745188,-0.920269,10.104951,-3.077416,9.257492,-9.369422,-43.882416,0.042990,-0.139412,0.000000,1.223126,0.164265,0.000000
1.600000,-1.521232,-0.680080,-1.382223,1.724807,-1.083880,0.618749,1.122935,0.450898,1.712221,-0.825302,9.997621,-3.515208,9.800445,-12.113266,-43.743773,0.055098,-0.137793,0.000000,1.196545,0.158814,-0.000000
1.610000,-1.503928,-0.690896,-1.375950,1.735995,-1.078871,0.635696,1.115169,0.550270,1.674883,-0.724260,9.862685,-3.952291,10.364293,-14.860329,-43.531765,0.066915,-0.136232,0.000000,1.164741,0.152415,-0.000000
1.620000,-1.486512,-0.701658,-1.369509,1.747111,-1.072874,0.652247,1.108450,0.648152,1.633175,-0.618016,9.700414,-4.385843,10.642756,-17.460725,-42.757475,0.078388,-0.134739,0.000000,1.128037,0.145169,-0.000000
1.630000,-1.468985,-0.712354,-1.362905,1.758164,-1.065908,0.668359,1.102809,0.744279,1.587167,-0.511405,9.513471,-4.807441,10.633218,-19.867168,-41.453539,0.089471,-0.133320,0.000000,1.087155,0.137566,-0.000000
1.640000,-1.451349,-0.722976,-1.356142,1.769167,-1.057989,0.683990,1.098222,0.838421,1.537026,-0.405352,9.303071,-5.214914,10.746077,-22.262523,-40.282028,0.100127,-0.131977,0.000000,1.042623,0.129725,-0.000000
1.650000,-1.433602,-0.733514,-1.349225,1.780129,-1.049139,0.699100,1.094702,0.930340,1.482868,-0.296483,9.068220,-5.613081,11.017373,-24.724305,-39.362884,0.110321,-0.130713,0.000000,0.994614,0.121367,0.000000
1.660000,-1.415746,-0.743958,-1.342160,1.791061,-1.039382,0.713648,1.092292,1.019786,1.424764,-0.185004,8.808585,-6.002171,11.166270,-27.101744,-38.250644,0.120018,-0.129534,0.000000,0.943423,0.112567,0.000000
1.670000,-1.397781,-0.754301,-1.334952,1.801974,-1.028743,0.727595,1.091002,1.106512,1.362825,-0.073158,8.526185,-6.378094,11.169421,-29.174393,-36.738208,0.129189,-0.128445,0.000000,0.889684,0.103568,0.000000
1.680000,-1.379707,-0.764533,-1.327608,1.812881,-1.017252,0.740904,1.090829,1.190309,1.297203,0.038384,8.225097,-6.736935,11.119066,-30.959861,-34.978505,0.137813,-0.127445,0.000000,0.834255,0.094430,0.000000
1.690000,-1.361523,-0.774646,-1.320134,1.823791,-1.004937,0.753539,1.091770,1.271014,1.228086,0.149223,7.906988,-7.077664,11.021688,-32.727088,-33.232369,0.145876,-0.126538,0.000000,0.777645,0.085222,0.000000
1.700000,-1.343231,-0.784632,-1.312537,1.834716,-0.991832,0.765466,1.093813,1.348449,1.155649,0.258818,7.570555,-7.401583,10.897905,-34.580646,-31.538762,0.153368,-0.125722,0.000000,0.719959,0.076055,-0.000000
1.710000,-1.324829,-0.794483,-1.304825,1.845667,-0.977968,0.776652,1.096946,1.422425,1.080054,0.367181,7.215375,-7.708440,10.744070,-36.316995,-29.738321,0.160278,-0.124998,0.000000,0.661403,0.066950,0.000000
1.720000,-1.306317,-0.804191,-1.297004,1.856655,-0.963383,0.787067,1.101157,1.492757,1.001481,0.473699,6.844215,-7.996349,10.462582,-37.641019,-27.744868,0.166600,-0.124365,0.000000,0.602542,0.057974,-0.000000
1.730000,-1.287696,-0.813751,-1.289083,1.867690,-0.948113,0.796682,1.106420,1.559309,0.920127,0.576433,6.462555,-8.263337,10.049502,-38.591906,-25.623194,0.172333,-0.123822,0.000000,0.544196,0.049328,0.000000
1.740000,-1.268964,-0.823154,-1.281070,1.878784,-0.932197,0.805469,1.112686,1.622008,0.836214,0.674689,6.072377,-8.508813,9.640828,-39.545069,-23.499612,0.177488,-0.123363,0.000000,0.486723,0.041086,-0.000000
1.750000,-1.250120,-0.832394,-1.272974,1.889944,-0.915673,0.813406,1.119914,1.680757,0.749951,0.769250,5.671653,-8.733329,9.264449,-40.607960,-21.387426,0.182073,-0.122986,0.000000,0.429998,0.033174,0.000000
1.760000,-1.231165,-0.841467,-1.264802,1.901182,-0.898582,0.820469,1.128071,1.735441,0.661547,0.859978,5.260218,-8.936562,8.828937,-41.513401,-19.220493,0.186093,-0.122688,0.000000,0.374096,0.025603,0.000000
1.770000,-1.212096,-0.850366,-1.256564,1.912506,-0.880964,0.826637,1.137113,1.785961,0.571220,0.945828,4.841385,-9.117739,8.287870,-41.989668,-17.003641,0.189560,-0.122465,0.000000,0.319439,0.018470,0.000000
1.780000,-1.192915,-0.859086,-1.248269,1.923924,-0.862862,0.831893,1.146987,1.832268,0.479192,1.025736,4.420424,-9.276634,7.670675,-42.102156,-14.779637,0.192488,-0.122311,0.000000,0.266600,0.011875,-0.000000
1.790000,-1.173618,-0.867623,-1.239927,1.935445,-0.844319,0.836221,1.157628,1.874369,0.385687,1.099242,3.999342,-9.413332,7.037732,-42.199078,-12.558918,0.194897,-0.122222,0.000000,0.215762,0.005849,-0.000000
1.800000,-1.154206,-0.875973,-1.231545,1.947077,-0.825375,0.839607,1.168972,1.912255,0.290926,1.166490,3.576443,-9.527813,6.415092,-42.406534,-10.308452,0.196808,-0.122191,0.000000,0.166721,0.000361,-0.000000
1.810000,-1.134676,-0.884131,-1.223134,1.958825,-0.806074,0.842039,1.180958,1.945898,0.195131,1.227544,3.151212,-9.619501,5.764773,-42.482544,-8.043387,0.198237,-0.122214,0.000000,0.119394,-0.004623,0.000000
1.820000,-1.115029,-0.892094,-1.214704,1.970696,-0.786457,0.843509,1.193523,1.975280,0.098536,1.281786,2.726792,-9.688681,5.019620,-42.102949,-5.890732,0.199200,-0.122285,0.000000,0.074033,-0.009055,0.000000
1.830000,-1.095263,-0.899860,-1.206264,1.982695,-0.766568,0.844010,1.206594,2.000434,0.001357,1.327936,2.309153,-9.737316,4.186877,-41.340840,-3.873903,0.199722,-0.122398,0.000000,0.031111,-0.012808,0.000000
1.840000,-1.075375,-0.907426,-1.197824,1.994828,-0.746448,0.843536,1.220082,2.021463,-0.096211,1.365523,1.899975,-9.766159,3.363592,-40.626405,-1.839773,0.199827,-0.122546,0.000000,-0.009329,-0.015856,-0.000000
1.850000,-1.055366,-0.914789,-1.189394,2.007097,-0.726139,0.842086,1.233904,2.038434,-0.193966,1.395208,1.496625,-9.774111,2.610944,-40.007323,0.295101,0.199539,-0.122722,0.000000,-0.047624,-0.018303,0.000000
1.860000,-1.035233,-0.921948,-1.180982,2.019506,-0.705680,0.839657,1.247986,2.051395,-0.291693,1.417742,1.099829,-9.760257,1.864999,-39.201081,2.405062,0.198878,-0.122919,0.000000,-0.083787,-0.020258,-0.000000
1.870000,-1.014976,-0.928903,-1.172600,2.032057,-0.685111,0.836252,1.262259,2.060430,-0.389171,1.432508,0.712603,-9.726010,0.978004,-38.148732,4.248261,0.197866,-0.123135,0.000000,-0.117667,-0.021664,-0.000000
1.880000,-0.994592,-0.935651,-1.164257,2.044751,-0.664471,0.831874,1.276636,2.065647,-0.486213,1.437302,0.336854,-9.675291,-0.013503,-36.952038,5.839287,0.196528,-0.123361,0.000000,-0.149267,-0.022295,0.000000
1.890000,-0.974081,-0.942192,-1.155963,2.057589,-0.643798,0.826528,1.291005,2.067167,-0.582677,1.432238,-0.026438,-9.609224,-0.905816,-35.680519,7.484903,0.194884,-0.123589,0.000000,-0.178628,-0.022177,0.000000
1.900000,-0.953440,-0.948527,-1.147727,2.070571,-0.623128,0.820220,1.305281,2.065118,-0.678397,1.419186,-0.376756,-9.525593,-1.782826,-34.351270,9.277031,0.192957,-0.123813,0.000000,-0.205776,-0.021537,-0.000000
1.910000,-0.932669,-0.954655,-1.139558,2.083695,-0.602496,0.812960,1.319389,2.059632,-0.773189,1.396581,-0.713463,-9.423683,-2.765147,-32.930362,10.992981,0.190770,-0.124028,0.000000,-0.230748,-0.020258,-0.000000
1.920000,-0.911767,-0.960577,-1.131468,2.096959,-0.581935,0.804756,1.333212,2.050849,-0.866871,1.363883,-1.035364,-9.305734,-3.556032,-31.367751,12.397238,0.188344,-0.124226,0.000000,-0.253582,-0.018289,-0.000000
1.930000,-0.890730,-0.966293,-1.123463,2.110359,-0.561479,0.795622,1.346666,2.038925,-0.959303,1.325461,-1.340818,-9.175739,-4.094761,-29.678924,13.545755,0.185700,-0.124401,0.000000,-0.274308,-0.016000,0.000000
1.940000,-0.869559,-0.971806,-1.115555,2.123892,-0.541157,0.785570,1.359722,2.024033,-1.050386,1.281988,-1.628942,-9.034819,-4.792530,-27.947005,14.735422,0.182859,-0.124552,0.000000,-0.292965,-0.013446,-0.000000
1.950000,-0.848252,-0.977116,-1.107752,2.137554,-0.520998,0.774615,1.372306,2.006346,-1.140000,1.229610,-1.899758,-8.881030,-5.705866,-26.210784,16.037875,0.179841,-0.124675,0.000000,-0.309607,-0.010314,0.000000
1.960000,-0.826808,-0.982226,-1.100063,2.151338,-0.501030,0.762770,1.384314,1.986038,-1.228006,1.167871,-2.153158,-8.714061,-6.549132,-24.424955,17.246021,0.176667,-0.124762,0.000000,-0.324306,-0.006586,0.000000
1.970000,-0.805226,-0.987137,-1.092497,2.165240,-0.481277,0.750054,1.395664,1.963283,-1.314281,1.098628,-2.388257,-8.536110,-7.260743,-22.518630,18.180756,0.173356,-0.124809,0.000000,-0.337107,-0.002413,-0.000000
1.980000,-0.783503,-0.991852,-1.085062,2.179252,-0.461764,0.736485,1.406286,1.938272,-1.398729,1.022656,-2.603530,-8.350446,-7.945216,-20.522921,18.908764,0.169925,-0.124811,0.000000,-0.348004,0.002166,-0.000000
1.990000,-0.761641,-0.996372,-1.077767,2.193366,-0.442512,0.722080,1.416117,1.911212,-1.481290,0.939723,-2.798716,-8.157934,-8.656588,-18.548048,19.655898,0.166396,-0.124765,0.000000,-0.357056,0.007173,0.000000
2.000000,-0.739636,-1.000702,-1.070620,2.207574,-0.423540,0.706859,1.425081,1.882298,-1.561887,0.849524,-2.974491,-7.957328,-9.326699,-16.556126,20.419435,0.162784,-0.124666,0.000000,-0.364367,0.012615,0.000000
2.010000,-0.717489,-1.004843,-1.063630,2.221867,-0.404866,0.690842,1.433107,1.851723,-1.640436,0.753189,-3.129838,-7.749546,-9.926246,-14.491661,21.050896,0.159108,-0.124510,0.000000,-0.369923,0.018400,0.000000
2.020000,-0.695199,-1.008799,-1.056803,2.236236,-0.386505,0.674050,1.440145,1.819701,-1.716878,0.650999,-3.264325,-7.536310,-10.620811,-12.512758,21.578967,0.155385,-0.124294,0.000000,-0.373767,0.024522,0.000000
2.030000,-0.672764,-1.012573,-1.050149,2.250670,-0.368472,0.656505,1.446127,1.786436,-1.791163,0.540773,-3.380093,-7.317966,-11.401078,-10.658703,22.001789,0.151632,-0.124014,0.000000,-0.376127,0.031166,0.000000
2.040000,-0.650185,-1.016169,-1.043673,2.265159,-0.350777,0.638227,1.450960,1.752099,-1.863238,0.422977,-3.477499,-7.096274,-12.039908,-8.724120,22.283669,0.147862,-0.123664,0.000000,-0.377093,0.038306,-0.000000
2.050000,-0.627461,-1.019589,-1.037384,2.279689,-0.333430,0.619240,1.454587,1.716886,-1.933088,0.299975,-3.554576,-6.872293,-12.689606,-6.668970,22.828472,0.144090,-0.123240,0.000000,-0.376554,0.045756,-0.000000
2.060000,-0.604592,-1.022837,-1.031288,2.294250,-0.316439,0.599565,1.456960,1.681008,-2.000683,0.169185,-3.610878,-6.639705,-13.487570,-4.647335,23.632676,0.140330,-0.122739,0.000000,-0.374427,0.053668,-0.000000
2.070000,-0.581576,-1.025917,-1.025393,2.308828,-0.299810,0.579226,1.457970,1.644668,-2.065882,0.030223,-3.647523,-6.399640,-13.934853,-2.746112,23.513856,0.136600,-0.122156,0.000000,-0.370856,0.062083,0.000000
2.080000,-0.558415,-1.028833,-1.019704,2.323410,-0.283546,0.558248,1.457564,1.608057,-2.128676,-0.109512,-3.665800,-6.169428,-13.998223,-0.924907,22.523830,0.132912,-0.121486,0.000000,-0.366173,0.070574,0.000000
2.090000,-0.535108,-1.031588,-1.014228,2.337980,-0.267649,0.536653,1.455780,1.571352,-2.189271,-0.249741,-3.666021,-5.949163,-14.369207,0.908157,22.286937,0.129276,-0.120732,0.000000,-0.360401,0.079124,-0.000000
2.100000,-0.511655,-1.034186,-1.008971,2.352525,-0.252119,0.514462,1.452569,1.534737,-2.247660,-0.396896,-3.647637,-5.723689,-14.873936,2.765453,22.340569,0.125703,-0.119891,0.000000,-0.353337,0.088112,0.000000
2.110000,-0.488058,-1.036631,-1.003939,2.367031,-0.236954,0.491699,1.447842,1.498400,-2.303744,-0.547220,-3.610712,-5.502352,-15.065441,4.575883,21.655740,0.122208,-0.118956,0.000000,-0.345103,0.097330,0.000000
2.120000,-0.464315,-1.038925,-0.999137,2.381482,-0.222151,0.468387,1.441625,1.462523,-2.357707,-0.698205,-3.556119,-5.290574,-15.628948,6.283086,21.980014,0.118800,-0.117930,0.000000,-0.335825,0.106633,-0.000000
2.130000,-0.440428,-1.041074,-0.994571,2.395864,-0.207703,0.444545,1.433878,1.427277,-2.409556,-0.859799,-3.485050,-5.062751,-16.744606,7.900902,23.739052,0.115491,-0.116809,0.000000,-0.325347,0.116582,0.000000
2.140000,-0.416398,-1.043079,-0.990246,2.410160,-0.193605,0.420196,1.424429,1.392822,-2.458962,-1.033097,-3.398101,-4.815793,-17.429814,9.489553,24.454276,0.112292,-0.115583,0.000000,-0.313717,0.127243,0.000000
2.150000,-0.392225,-1.044946,-0.986167,2.424352,-0.179847,0.395366,1.413216,1.359315,-2.505872,-1.208395,-3.295259,-4.573666,-17.595127,11.063265,23.939662,0.109215,-0.114248,0.000000,-0.301169,0.138073,-0.000000
2.160000,-0.367911,-1.046676,-0.982339,2.438424,-0.166419,0.370079,1.400261,1.326917,-2.550435,-1.384999,-3.176836,-4.337000,-17.905832,12.572950,23.881648,0.106268,-0.112805,0.000000,-0.287726,0.149032,-0.000000
2.170000,-0.343456,-1.048274,-0.978765,2.452357,-0.153309,0.344357,1.385516,1.295779,-2.592612,-1.566512,-3.043800,-4.096033,-18.324337,13.964415,24.109659,0.103460,-0.111250,0.000000,-0.273373,0.160325,-0.000000
2.180000,-0.318863,-1.049743,-0.975451,2.466134,-0.140503,0.318226,1.368931,1.266041,-2.632356,-1.751486,-2.897548,-3.854807,-18.577090,15.238858,23.939912,0.100799,-0.109581,0.000000,-0.258252,0.171886,0.000000
2.190000,-0.294134,-1.051084,-0.972401,2.479736,-0.127988,0.291710,1.350486,1.237828,-2.669708,-1.938053,-2.739023,-3.617235,-18.773913,16.459069,23.770777,0.098294,-0.107795,0.000000,-0.242460,0.183611,0.000000
2.200000,-0.269269,-1.052302,-0.969617,2.493144,-0.115747,0.264832,1.330170,1.211260,-2.704700,-2.126964,-2.568366,-3.379391,-19.186802,17.686773,24.290111,0.095949,-0.105891,0.000000,-0.225965,0.195536,0.000000
2.210000,-0.244271,-1.053399,-0.967104,2.506339,-0.103763,0.237616,1.307947,1.186460,-2.737296,-2.321789,-2.385287,-3.131432,-19.705717,18.868784,25.152494,0.093774,-0.103866,0.000000,-0.208659,0.207872,0.000000
2.220000,-0.219142,-1.054378,-0.964865,2.519303,-0.092017,0.210086,1.283734,1.163554,-2.767329,-2.521079,-2.190991,-2.876341,-19.646881,19.820987,24.686832,0.091775,-0.101715,0.000000,-0.190653,0.220549,-0.000000
2.230000,-0.193885,-1.055240,-0.962902,2.532014,-0.080491,0.182270,1.257526,1.142640,-2.794823,-2.714727,-1.988868,-2.637696,-19.036402,20.549058,23.045490,0.089960,-0.099436,0.000000,-0.172375,0.232975,-0.000000
2.240000,-0.168502,-1.055987,-0.961220,2.544454,-0.069165,0.154190,1.229439,1.123777,-2.820083,-2.901807,-1.780010,-2.415432,-18.799046,21.296455,22.485497,0.088327,-0.097036,0.000000,-0.153880,0.245079,0.000000
2.250000,-0.142996,-1.056623,-0.959819,2.556603,-0.058016,0.125868,1.199489,1.107040,-2.843131,-3.090708,-1.562938,-2.187986,-18.910029,22.100220,22.570062,0.086882,-0.094515,0.000000,-0.134876,0.257361,-0.000000
2.260000,-0.117369,-1.057148,-0.958702,2.568443,-0.047024,0.097327,1.167625,1.092518,-2.863843,-3.280007,-1.338005,-1.964030,-18.756241,22.791916,21.845935,0.085629,-0.091869,0.000000,-0.115437,0.269788,0.000000
2.270000,-0.091627,-1.057563,-0.957872,2.579955,-0.036166,0.068591,1.133889,1.080280,-2.882412,-3.465833,-1.107100,-1.751067,-18.611677,23.306970,22.077639,0.084572,-0.089099,0.000000,-0.095743,0.282117,-0.000000
2.280000,-0.065770,-1.057871,-0.957330,2.591121,-0.025418,0.039679,1.098309,1.070376,-2.898864,-3.652241,-0.871866,-1.522478,-18.722787,23.702007,23.823529,0.083714,-0.086206,0.000000,-0.075724,0.294488,0.000000
2.290000,-0.039804,-1.058072,-0.957079,2.601922,-0.014758,0.010614,1.060844,1.062843,-2.912861,-3.840289,-0.633060,-1.274596,-18.659376,24.049173,24.550274,0.083058,-0.083189,0.000000,-0.055403,0.306991,0.000000
2.300000,-0.013732,-1.058166,-0.957118,2.612338,-0.004161,-0.018578,1.021503,1.057715,-2.924356,-4.025428,-0.390882,-1.031472,-18.231112,24.341595,24.178965,0.082606,-0.080045,0.000000,-0.034935,0.319450,0.000000
2.310000,0.012443,-1.058155,-0.957450,2.622352,0.006396,-0.047873,0.980336,1.055025,-2.933491,-4.204911,-0.146228,-0.791017,-17.751062,24.532920,24.431063,0.082359,-0.076777,0.000000,-0.014354,0.331643,0.000000
2.320000,0.038715,-1.058038,-0.958076,2.631945,0.016939,-0.077248,0.937405,1.054791,-2.940176,-4.380450,0.099776,-0.542851,-17.592169,24.637270,24.767120,0.082318,-0.073389,0.000000,0.006340,0.343659,0.000000
2.330000,0.065081,-1.057816,-0.958995,2.641100,0.027492,-0.106677,0.892727,1.057021,-2.944348,-4.556754,0.346517,-0.295675,-17.629929,24.698318,24.576808,0.082485,-0.069880,0.000000,0.027067,0.355929,-0.000000
2.340000,0.091537,-1.057488,-0.960209,2.649799,0.038080,-0.136135,0.846269,1.061721,-2.946090,-4.733048,0.593742,-0.051315,-17.385204,24.685613,24.752883,0.082860,-0.066245,0.000000,0.047817,0.368414,-0.000000
2.350000,0.118077,-1.057055,-0.961718,2.658025,0.048727,-0.165599,0.798066,1.068896,-2.945374,-4.904458,0.840230,0.199383,-17.027996,24.396656,25.334093,0.083442,-0.062486,0.000000,0.068571,0.380699,-0.000000
2.360000,0.144698,-1.056514,-0.963521,2.665761,0.059458,-0.195042,0.748180,1.078526,-2.942102,-5.073608,1.081676,0.455367,-16.858673,23.867875,25.702209,0.084231,-0.058604,0.000000,0.089012,0.393013,0.000000
2.370000,0.171393,-1.055865,-0.965619,2.672989,0.070297,-0.224441,0.696594,1.090529,-2.936267,-5.241632,1.317587,0.713427,-16.312712,23.666716,26.187554,0.085222,-0.054596,0.000000,0.109102,0.405478,0.000000
2.380000,0.198157,-1.055108,-0.968010,2.679692,0.081268,-0.253768,0.643348,1.104877,-2.927833,-5.399862,1.555010,0.979118,-15.253278,23.753157,27.054177,0.086414,-0.050464,0.000000,0.129443,0.417409,-0.000000
2.390000,0.224986,-1.054240,-0.970694,2.685856,0.092395,-0.282997,0.588597,1.121629,-2.916684,-5.546697,1.792650,1.254511,-14.485439,23.353051,27.779974,0.087812,-0.046216,0.000000,0.149975,0.428695,-0.000000
2.400000,0.251874,-1.053260,-0.973670,2.691464,0.103701,-0.312101,0.532414,1.140730,-2.902743,-5.689571,2.022071,1.534718,-14.166374,22.717278,28.037042,0.089414,-0.041856,0.000000,0.170034,0.439953,0.000000
2.410000,0.278816,-1.052166,-0.976936,2.696504,0.115209,-0.341052,0.474805,1.162071,-2.885990,-5.830025,2.246996,1.815251,-13.744444,22.334413,28.203244,0.091213,-0.037381,0.000000,0.189900,0.451337,0.000000
2.420000,0.305805,-1.050956,-0.980491,2.700960,0.126942,-0.369821,0.415813,1.185670,-2.866438,-5.964460,2.468759,2.098783,-12.999657,21.288137,29.008624,0.093212,-0.032790,0.000000,0.209717,0.462568,0.000000
2.430000,0.332835,-1.049627,-0.984332,2.704820,0.138923,-0.398381,0.355516,1.211446,-2.844014,-6.090018,2.672759,2.395424,-12.177382,19.332637,30.277887,0.095408,-0.028088,0.000000,0.228437,0.473415,0.000000
2.440000,0.359901,-1.048177,-0.988458,2.708071,0.151171,-0.426702,0.294013,1.239125,-2.818530,-6.208008,2.855412,2.704340,-11.527614,17.777237,31.039635,0.097782,-0.023277,0.000000,0.245799,0.484014,0.000000
2.450000,0.386996,-1.046604,-0.992866,2.710700,0.163705,-0.454752,0.231356,1.268554,-2.789928,-6.320570,3.028303,3.016217,-10.660897,17.030430,31.656468,0.100325,-0.018360,0.000000,0.262657,0.494573,0.000000
2.460000,0.414115,-1.044903,-0.997554,2.712698,0.176542,-0.482500,0.167601,1.299691,-2.758205,-6.421226,3.196020,3.337470,-9.456278,16.180792,32.728599,0.103036,-0.013335,0.000000,0.279441,0.504589,-0.000000
2.470000,0.441250,-1.043073,-1.002516,2.714053,0.189699,-0.509916,0.102931,1.332475,-2.723178,-6.509696,3.351919,3.670789,-9.036654,14.429564,33.005387,0.105914,-0.008213,0.000000,0.295681,0.514060,0.000000
2.480000,0.468396,-1.041109,-1.007752,2.714757,0.203192,-0.536964,0.037408,1.366730,-2.684790,-6.601959,3.484612,3.997578,-9.456383,12.236689,32.220936,0.108950,-0.002994,0.000000,0.310340,0.524287,-0.000000
2.490000,0.495545,-1.039009,-1.013256,2.714801,0.217034,-0.563611,-0.029108,1.402167,-2.643227,-6.698823,3.596653,4.315207,-9.168573,10.598712,32.136771,0.112122,0.002337,0.000000,0.323584,0.535343,-0.000000
2.500000,0.522692,-1.036769,-1.019024,2.714174,0.231235,-0.589828,-0.096569,1.438663,-2.598485,-6.785330,3.696586,4.640313,-8.251899,8.416260,32.938663,0.115423,0.007782,0.000000,0.336240,0.546049,-0.000000
2.510000,0.549829,-1.034384,-1.025052,2.712869,0.245807,-0.615581,-0.164815,1.476098,-2.550420,-6.863861,3.764978,4.973981,-7.730573,5.138601,33.423962,0.118848,0.013333,0.000000,0.346787,0.556621,-0.000000
2.520000,0.576949,-1.031853,-1.031336,2.710878,0.260757,-0.640837,-0.233846,1.513962,-2.499006,-6.939942,3.799358,5.308792,-6.997284,4.067394,33.544796,0.122360,0.018996,0.000000,0.354944,0.567522,-0.000000
2.530000,0.604047,-1.029169,-1.037869,2.708192,0.276086,-0.665561,-0.303613,1.552086,-2.444245,-7.003807,3.846326,5.644877,-5.691539,5.305081,33.886027,0.125948,0.024771,0.000000,0.364437,0.577982,0.000000
2.540000,0.631113,-1.026331,-1.044647,2.704806,0.291799,-0.689721,-0.373922,1.590889,-2.386108,-7.053772,3.905460,5.986513,-4.723529,4.305696,34.370315,0.129650,0.030650,0.000000,0.375320,0.587879,-0.000000
2.550000,0.658143,-1.023333,-1.051663,2.700714,0.307904,-0.713283,-0.444689,1.630195,-2.324514,-7.098278,3.932440,6.332283,-4.011287,2.169284,33.766664,0.133456,0.036630,0.000000,0.384022,0.597915,0.000000
2.560000,0.685128,-1.020173,-1.058913,2.695912,0.324403,-0.736212,-0.515888,1.669538,-2.259463,-7.133998,3.948845,6.661846,-2.935479,1.833091,32.241081,0.137331,0.042717,0.000000,0.392047,0.607773,0.000000
2.570000,0.712061,-1.016845,-1.066388,2.690396,0.341295,-0.758473,-0.587369,1.709172,-2.191277,-7.156987,3.969102,6.977104,-2.065168,-1.036554,33.160497,0.141298,0.048903,0.000000,0.400580,0.617100,0.000000
2.580000,0.738935,-1.013347,-1.074082,2.684165,0.358586,-0.780037,-0.659028,1.748920,-2.119921,-7.175301,3.928114,7.325056,-1.575258,-7.620905,36.391541,0.145344,0.055185,0.000000,0.404844,0.626761,-0.000000
2.590000,0.765744,-1.009674,-1.081988,2.677216,0.376273,-0.800871,-0.730875,1.787734,-2.044776,-7.188492,3.816684,7.704935,-0.630431,-11.699584,37.327416,0.149396,0.061574,0.000000,0.404041,0.636829,0.000000
2.600000,0.792480,-1.005821,-1.090099,2.669547,0.394341,-0.820933,-0.802797,1.825253,-1.965822,-7.187910,3.694123,8.071604,0.448639,-12.695592,36.866504,0.153426,0.068068,0.000000,0.402455,0.646401,0.000000
2.610000,0.819135,-1.001787,-1.098407,2.661160,0.412778,-0.840188,-0.874633,1.861616,-1.883344,-7.179520,3.562772,8.442265,1.132507,-14.825961,37.971599,0.157446,0.074658,0.000000,0.400473,0.656052,-0.000000
2.620000,0.845703,-0.997566,-1.106903,2.652054,0.431573,-0.858600,-0.946388,1.896509,-1.796977,-7.165260,3.397603,8.831036,2.644936,-17.878039,36.923531,0.161436,0.081356,0.000000,0.396189,0.666098,0.000000
2.630000,0.872176,-0.993155,-1.115579,2.642232,0.450708,-0.876127,-1.017938,1.929569,-1.706723,-7.126621,3.205211,9.180736,5.248676,-20.159616,32.463932,0.165370,0.088159,0.000000,0.389338,0.674593,0.000000
2.640000,0.898548,-0.988552,-1.124426,2.631696,0.470164,-0.892734,-1.088920,1.960613,-1.613362,-7.060286,2.994411,9.480315,7.205992,-22.325851,29.946515,0.169223,0.095037,0.000000,0.380386,0.681020,0.000000
2.650000,0.924810,-0.983752,-1.133434,2.620454,0.489920,-0.908394,-1.159144,1.989457,-1.517117,-6.982501,2.758694,9.779666,8.121855,-25.816911,30.357320,0.172978,0.101979,0.000000,0.369389,0.687081,-0.000000
2.660000,0.950957,-0.978753,-1.142594,2.608513,0.509953,-0.923077,-1.228570,2.015787,-1.417769,-6.897849,2.478073,10.087461,9.189037,-29.987599,29.992098,0.176611,0.108989,0.000000,0.354694,0.693279,0.000000
2.670000,0.976980,-0.973553,-1.151895,2.595882,0.530236,-0.936750,-1.297101,2.039018,-1.315368,-6.798720,2.158942,10.379508,11.059058,-31.320945,27.618474,0.180071,0.116065,0.000000,0.336368,0.698736,-0.000000
2.680000,1.002874,-0.968149,-1.161329,2.582571,0.550734,-0.949384,-1.364545,2.058966,-1.210178,-6.676668,1.851654,10.639831,13.247614,-30.044570,24.657889,0.183338,0.123195,0.000000,0.318420,0.702479,-0.000000
2.690000,1.028632,-0.962538,-1.170883,2.568591,0.571416,-0.960953,-1.430634,2.076051,-1.102571,-6.533768,1.558051,10.872666,14.956867,-30.877753,22.462676,0.186439,0.130356,0.000000,0.301061,0.704608,-0.000000
2.700000,1.054246,-0.956720,-1.180548,2.553958,0.592255,-0.971435,-1.495220,2.090127,-0.992725,-6.377531,1.234099,11.089084,16.695797,-33.159084,19.917507,0.189358,0.137538,0.000000,0.280527,0.705829,0.000000
2.710000,1.079711,-0.950693,-1.190312,2.538687,0.613218,-0.980808,-1.558185,2.100733,-0.880790,-6.199852,0.894869,11.271016,18.919085,-33.793098,16.277841,0.192048,0.144731,0.000000,0.257726,0.705120,0.000000
2.720000,1.105020,-0.944456,-1.200164,2.522794,0.634270,-0.989051,-1.619217,2.108024,-0.767305,-5.999149,0.558237,11.414641,20.087882,-35.681604,14.624799,0.194511,0.151905,0.000000,0.234100,0.702110,-0.000000
2.730000,1.130167,-0.938008,-1.210093,2.506302,0.655379,-0.996154,-1.678168,2.111898,-0.652497,-5.798094,0.181237,11.563512,20.000862,-39.975626,15.246726,0.196729,0.159044,0.000000,0.206389,0.699355,0.000000
2.740000,1.155146,-0.931348,-1.220087,2.489231,0.676508,-1.002101,-1.735179,2.111649,-0.536034,-5.599132,-0.241276,11.719576,20.785963,-42.416332,13.885696,0.198637,0.166168,0.000000,0.173958,0.697179,-0.000000
2.750000,1.179951,-0.924478,-1.230135,2.471599,0.697612,-1.006875,-1.790151,2.107073,-0.418105,-5.382375,-0.667090,11.841226,22.440191,-42.811126,10.853688,0.200205,0.173268,0.000000,0.139809,0.693071,-0.000000
2.760000,1.204578,-0.917396,-1.240224,2.453428,0.718649,-1.010463,-1.842826,2.098307,-0.299210,-5.150328,-1.097498,11.936649,23.526579,-44.044140,8.982553,0.201430,0.180312,0.000000,0.103868,0.687224,-0.000000
2.770000,1.229020,-0.910105,-1.250344,2.434742,0.739578,-1.012859,-1.893157,2.085123,-0.179372,-4.911844,-1.547973,12.020877,24.584890,-45.247193,6.297370,0.202279,0.187296,0.000000,0.064808,0.680644,-0.000000
2.780000,1.253273,-0.902605,-1.260482,2.415565,0.760351,-1.014051,-1.941063,2.067348,-0.058792,-4.658630,-2.002442,12.062597,26.136727,-45.341532,1.726475,0.202722,0.194208,0.000000,0.023425,0.671885,-0.000000
2.790000,1.277331,-0.894898,-1.270625,2.395921,0.780925,-1.014035,-1.986330,2.045074,0.061880,-4.389109,-2.454803,12.055407,27.305674,-45.758434,-1.759489,0.202743,0.201014,0.000000,-0.019930,0.660441,0.000000
2.800000,1.301191,-0.886986,-1.280762,2.375838,0.801253,-1.012813,-2.028846,2.018252,0.182316,-4.112517,-2.917611,12.027407,27.954795,-46.852984,-3.759268,0.202319,0.207692,0.000000,-0.066073,0.647572,-0.000000
2.810000,1.324848,-0.878873,-1.290881,2.355344,0.821290,-1.010388,-2.068580,1.986721,0.302428,-3.830013,-3.391863,11.980221,28.691473,-47.589652,-6.314762,0.201416,0.214233,0.000000,-0.115223,0.633328,0.000000
2.820000,1.348298,-0.870560,-1.300970,2.334467,0.840987,-1.006764,-2.105446,1.950414,0.421920,-3.538687,-3.869404,11.901112,29.503626,-47.626401,-9.502625,0.200009,0.220618,0.000000,-0.166950,0.617019,-0.000000
2.830000,1.371537,-0.862053,-1.311017,2.313235,0.860298,-1.001950,-2.139354,1.909333,0.540450,-3.239941,-4.344391,11.790169,30.164049,-47.290156,-12.593979,0.198072,0.226822,0.000000,-0.220778,0.598618,-0.000000
2.840000,1.394563,-0.853354,-1.321009,2.291680,0.879174,-0.995955,-2.170245,1.863527,0.657724,-2.935406,-4.815207,11.649232,30.737626,-46.943519,-15.643329,0.195587,0.232826,0.000000,-0.276588,0.578170,-0.000000
2.850000,1.417371,-0.844469,-1.330936,2.269830,0.897568,-0.988795,-2.198062,1.813029,0.773435,-2.625188,-5.283261,11.477302,31.306564,-46.683639,-18.725256,0.192533,0.238607,0.000000,-0.334607,0.555503,0.000000
2.860000,1.439959,-0.835403,-1.340785,2.247718,0.915435,-0.980487,-2.222748,1.757861,0.887270,-2.309275,-5.748880,11.274727,31.807209,-46.261074,-21.753808,0.188888,0.244142,0.000000,-0.394918,0.530463,-0.000000
2.870000,1.462325,-0.826161,-1.350545,2.225375,0.932726,-0.971050,-2.244247,1.698052,0.998929,-1.989044,-6.208483,11.042226,32.085440,-45.315202,-24.761372,0.184628,0.249404,0.000000,-0.457174,0.503051,0.000000
2.880000,1.484467,-0.816748,-1.360206,2.202833,0.949396,-0.960508,-2.262529,1.633692,1.108114,-1.667566,-6.655184,10.779500,32.144602,-43.900407,-27.757251,0.179738,0.254372,0.000000,-0.520651,0.473434,-0.000000
2.890000,1.506382,-0.807173,-1.369756,2.180125,0.965400,-0.948888,-2.277599,1.564948,1.214519,-1.346152,-7.086491,10.487081,32.184551,-42.492355,-30.655236,0.174209,0.259024,0.000000,-0.585009,0.441629,-0.000000
2.900000,1.528069,-0.797440,-1.379184,2.157282,0.980695,-0.936218,-2.289452,1.491962,1.317856,-1.023875,-7.505031,10.166395,32.281857,-41.246842,-33.461993,0.168031,0.263336,0.000000,-0.650406,0.407457,0.000000
2.910000,1.549528,-0.787559,-1.388480,2.134336,0.995239,-0.922531,-2.298076,1.414847,1.417847,-0.700515,-7.911428,9.817841,32.291988,-39.836813,-36.209102,0.161195,0.267284,0.000000,-0.716789,0.370790,0.000000
2.920000,1.570756,-0.777536,-1.397634,2.111320,1.008992,-0.907861,-2.303463,1.333733,1.514213,-0.378035,-8.301767,9.442213,32.019578,-37.889286,-38.791249,0.153690,0.270844,0.000000,-0.783558,0.331767,-0.000000
2.930000,1.591754,-0.767379,-1.406637,2.088267,1.021913,-0.892246,-2.305637,1.248812,1.606691,-0.060123,-8.669213,9.042016,31.498265,-35.497093,-41.160833,0.145518,0.273993,0.000000,-0.849693,0.290803,0.000000
2.940000,1.612521,-0.757097,-1.415479,2.065207,1.033968,-0.875727,-2.304665,1.160349,1.695053,0.251930,-9.011709,8.618996,30.983262,-33.157978,-43.435303,0.136692,0.276716,0.000000,-0.914645,0.248065,0.000000
2.950000,1.633058,-0.746700,-1.424152,2.042173,1.045120,-0.858345,-2.300598,1.068578,1.779071,0.559542,-9.332373,8.173310,30.549509,-31.006544,-45.710452,0.127222,0.278996,0.000000,-0.978444,0.203389,-0.000000
2.960000,1.653365,-0.736195,-1.432646,2.019195,1.055339,-0.840146,-2.293474,0.973702,1.858519,0.862920,-9.631840,7.704787,30.021318,-28.713760,-47.874769,0.117120,0.280812,0.000000,-1.040819,0.156750,-0.000000
2.970000,1.673442,-0.725593,-1.440955,1.996304,1.064594,-0.821175,-2.283340,0.875941,1.933167,1.159968,-9.906648,7.215815,29.219889,-25.982818,-49.631812,0.106404,0.282147,0.000000,-1.100940,0.108504,-0.000000
2.980000,1.693291,-0.714903,-1.449070,1.973528,1.072858,-0.801482,-2.270275,0.775569,2.002835,1.447318,-10.151496,6.712151,28.195265,-22.923878,-50.974719,0.095102,0.282989,0.000000,-1.157670,0.059317,0.000000
2.990000,1.712913,-0.704136,-1.456984,1.950898,1.080106,-0.781118,-2.254394,0.672911,2.067410,1.723874,-10.365126,6.196320,27.183560,-19.940813,-52.278403,0.083252,0.283334,0.000000,-1.210363,0.009527,0.000000
3.000000,1.732309,-0.693301,-1.464692,1.928441,1.086316,-0.760134,-2.235797,0.568266,2.126762,1.990989,-10.550312,5.666583,26.251775,-17.116593,-53.699481,0.070897,0.283177,0.000000,-1.258897,-0.040938,0.000000
3.010000,1.751482,-0.682409,-1.472187,1.906182,1.091471,-0.738583,-2.214574,0.461905,2.180742,2.248909,-10.707458,5.122331,25.243149,-14.198291,-54.956804,0.058078,0.282510,0.000000,-1.302840,-0.091965,0.000000
3.020000,1.770433,-0.671472,-1.479464,1.884149,1.095554,-0.716519,-2.190819,0.354117,2.229208,2.495852,-10.834278,4.567447,24.003280,-11.035359,-55.629961,0.044846,0.281331,0.000000,-1.341394,-0.143013,-0.000000
3.030000,1.789164,-0.660498,-1.486517,1.862366,1.098553,-0.693999,-2.164657,0.245219,2.272091,2.728975,-10.928165,4.009731,22.576333,-7.731545,-55.772671,0.031258,0.279644,0.000000,-1.373731,-0.193238,0.000000
3.040000,1.807680,-0.649500,-1.493344,1.840856,1.100459,-0.671077,-2.136240,0.135554,2.309403,2.947379,-10.988909,3.451993,21.173943,-4.503199,-55.927165,0.017379,0.277463,0.000000,-1.399416,-0.242190,-0.000000
3.050000,1.825982,-0.638489,-1.499939,1.819641,1.101265,-0.647811,-2.105709,0.025441,2.341130,3.152454,-11.018229,2.891188,19.891896,-1.354182,-56.268927,0.003278,0.274799,0.000000,-1.418318,-0.289899,0.000000
3.060000,1.844073,-0.627475,-1.506300,1.798742,1.100968,-0.624255,-2.073191,-0.084811,2.367227,3.345217,-11.015993,2.326615,18.592152,1.831529,-56.415280,-0.010977,0.271664,0.000000,-1.430098,-0.336270,0.000000
3.070000,1.861956,-0.616470,-1.512424,1.778177,1.099568,-0.600466,-2.038805,-0.194879,2.387663,3.524297,-10.981598,1.762883,17.045421,4.996404,-55.926794,-0.025313,0.268073,0.000000,-1.434432,-0.380725,0.000000
3.080000,1.879636,-0.605484,-1.518309,1.757966,1.097070,-0.576502,-2.002705,-0.304443,2.402484,3.686125,-10.916065,1.208079,15.316446,8.066111,-54.897720,-0.039654,0.264048,0.000000,-1.431323,-0.422302,0.000000
3.090000,1.897116,-0.594528,-1.523954,1.738123,1.093479,-0.552416,-1.965082,-0.413200,2.411824,3.830626,-10.820276,0.664928,13.721753,11.097204,-53.903311,-0.053928,0.259622,0.000000,-1.420872,-0.460686,-0.000000
3.100000,1.914399,-0.583614,-1.529358,1.718664,1.088806,-0.528265,-1.926092,-0.520848,2.415783,3.960560,-10.694121,0.130013,12.179521,14.167628,-53.145153,-0.068060,0.254824,0.000000,-1.403087,-0.496154,0.000000
3.110000,1.931489,-0.572752,-1.534519,1.699601,1.083063,-0.504101,-1.885871,-0.627082,2.414425,4.074216,-10.536923,-0.397975,10.500689,17.204881,-52.229571,-0.081978,0.249679,0.000000,-1.377965,-0.528368,-0.000000
3.120000,1.948391,-0.561953,-1.539440,1.680947,1.076264,-0.479977,-1.844608,-0.731587,2.407824,4.170574,-10.350023,-0.914579,9.004976,19.957349,-50.660766,-0.095609,0.244224,0.000000,-1.345891,-0.556917,0.000000
3.130000,1.965108,-0.551227,-1.544119,1.662709,1.068431,-0.455944,-1.802460,-0.834083,2.396133,4.254316,-10.137776,-1.411190,7.787102,22.408453,-48.563536,-0.108886,0.238493,0.000000,-1.307827,-0.582034,-0.000000
3.140000,1.981645,-0.540584,-1.548558,1.644897,1.059583,-0.432054,-1.759522,-0.934342,2.379600,4.326316,-9.901854,-1.885849,6.406146,24.869508,-46.601712,-0.121757,0.232517,0.000000,-1.264390,-0.603736,-0.000000
3.150000,1.998006,-0.530035,-1.552760,1.627519,1.049744,-0.408352,-1.715933,-1.032120,2.358416,4.382438,-9.640386,-2.343224,4.774373,27.457814,-44.849800,-0.134167,0.226332,0.000000,-1.215645,-0.621635,-0.000000
3.160000,2.014195,-0.519589,-1.556725,1.610579,1.038940,-0.384886,-1.671873,-1.127150,2.332735,4.421803,-9.352698,-2.782845,3.207425,29.933809,-42.878065,-0.146063,0.219976,0.000000,-1.161913,-0.635622,0.000000
3.170000,2.030217,-0.509256,-1.560458,1.594081,1.027201,-0.361698,-1.627497,-1.219174,2.302759,4.446587,-9.041710,-3.200786,1.854597,31.973834,-40.602401,-0.157400,0.213487,0.000000,-1.104079,-0.645916,-0.000000
3.180000,2.046077,-0.499045,-1.563959,1.578029,1.014557,-0.338830,-1.582941,-1.307984,2.268719,4.458895,-8.713221,-3.594893,0.607418,33.616854,-38.185326,-0.168141,0.206900,0.000000,-1.043375,-0.652813,0.000000
3.190000,2.061778,-0.488965,-1.567234,1.562423,1.001041,-0.316323,-1.538319,-1.393438,2.230861,4.458735,-8.369373,-3.964492,-0.698076,35.269044,-35.732486,-0.178265,0.200247,0.000000,-0.980511,-0.656412,-0.000000
3.200000,2.077325,-0.479025,-1.570286,1.547262,0.986688,-0.294213,-1.493766,-1.475372,2.189430,4.444934,-8.007840,-4.309543,-1.991062,37.093082,-33.252272,-0.187751,0.193563,0.000000,-0.915598,-0.656701,0.000000
3.210000,2.092723,-0.469232,-1.573118,1.532547,0.971534,-0.272535,-1.449421,-1.553595,2.144670,4.418914,-7.627511,-4.629538,-3.163764,38.792090,-30.700767,-0.196577,0.186881,0.000000,-0.848906,-0.653997,0.000000
3.220000,2.107976,-0.459594,-1.575737,1.518274,0.955616,-0.251320,-1.405388,-1.627922,2.096839,4.381658,-7.231998,-4.923559,-4.400105,39.926694,-28.065553,-0.204730,0.180229,0.000000,-0.781265,-0.648559,0.000000
3.230000,2.123089,-0.450119,-1.578145,1.504439,0.938975,-0.230598,-1.361788,-1.698235,2.046199,4.330912,-6.828978,-5.190849,-5.723479,40.562496,-25.380551,-0.212205,0.173636,0.000000,-0.713929,-0.640266,-0.000000
3.240000,2.138065,-0.440814,-1.580349,1.491038,0.921652,-0.210396,-1.318770,-1.764502,1.993022,4.267189,-6.420748,-5.431170,-6.865821,41.271973,-22.690799,-0.219011,0.167132,0.000000,-0.647428,-0.629351,0.000000
3.250000,2.152910,-0.431686,-1.582353,1.478064,0.903685,-0.190737,-1.276444,-1.826650,1.937576,4.193596,-6.003538,-5.644665,-7.909390,42.209444,-20.003476,-0.225157,0.160742,0.000000,-0.581523,-0.616368,0.000000
3.260000,2.167626,-0.422741,-1.584163,1.465509,0.885119,-0.171644,-1.234898,-1.884572,1.880129,4.109001,-5.576560,-5.831239,-9.020107,42.978913,-17.313243,-0.230646,0.154487,0.000000,-0.516299,-0.601344,0.000000
3.270000,2.182220,-0.413984,-1.585786,1.453366,0.865994,-0.153135,-1.194264,-1.938181,1.820951,4.013193,-5.143960,-5.990930,-9.868192,43.217880,-14.654768,-0.235487,0.148389,0.000000,-0.452385,-0.584419,-0.000000
3.280000,2.196694,-0.405421,-1.587226,1.441624,0.846355,-0.135225,-1.154634,-1.987452,1.760310,3.911637,-4.712202,-6.124334,-10.369691,43.048759,-12.068802,-0.239698,0.142467,0.000000,-0.390626,-0.566400,-0.000000
3.290000,2.211052,-0.397057,-1.588490,1.430273,0.826245,-0.117929,-1.116031,-2.032425,1.698464,3.805800,-4.282985,-6.232306,-10.987978,42.940989,-9.534598,-0.243304,0.136727,0.000000,-0.331229,-0.547596,0.000000
3.300000,2.225299,-0.388896,-1.589585,1.419304,0.805706,-0.101256,-1.078518,-2.073111,1.635664,3.691878,-3.853382,-6.315026,-11.833834,42.961056,-6.922506,-0.246327,0.131182,0.000000,-0.273845,-0.527676,0.000000
3.310000,2.239438,-0.380943,-1.590515,1.408703,0.784783,-0.085215,-1.042193,-2.109493,1.572164,3.569123,-3.423764,-6.370756,-12.582891,42.800510,-4.281117,-0.248786,0.125844,0.000000,-0.218554,-0.506639,-0.000000
3.320000,2.253473,-0.373200,-1.591289,1.398460,0.763517,-0.069813,-1.007136,-2.141587,1.508249,3.440220,-2.997372,-6.400649,-13.036706,42.334662,-2.028699,-0.250703,0.120726,0.000000,-0.165666,-0.484916,-0.000000
3.330000,2.267408,-0.365672,-1.591912,1.388560,0.741951,-0.055050,-0.973389,-2.169440,1.444151,3.308389,-2.577070,-6.411330,-13.301889,41.675076,-0.192911,-0.252103,0.115832,0.000000,-0.115262,-0.463045,-0.000000
3.340000,2.281244,-0.358361,-1.592390,1.378992,0.720128,-0.040930,-0.940968,-2.193128,1.380022,3.174182,-2.163870,-6.404507,-13.622906,40.980673,1.775041,-0.253012,0.111161,0.000000,-0.067323,-0.441153,0.000000
3.350000,2.294987,-0.351270,-1.592730,1.369741,0.698088,-0.027450,-0.909905,-2.212718,1.316061,3.035931,-1.757457,-6.375829,-14.009664,40.259588,4.015459,-0.253453,0.106717,0.000000,-0.021844,-0.419038,0.000000
3.360000,2.308639,-0.344400,-1.592939,1.360794,0.675873,-0.014608,-0.880249,-2.228277,1.252506,2.893989,-1.358679,-6.324198,-14.303416,39.420898,6.133528,-0.253452,0.102502,0.000000,0.021147,-0.396769,0.000000
3.370000,2.322203,-0.337752,-1.593022,1.352136,0.653523,-0.002400,-0.852026,-2.239891,1.189577,2.749862,-0.969039,-6.253158,-14.491767,38.461501,7.808848,-0.253033,0.098518,0.000000,0.061688,-0.374590,0.000000
3.380000,2.335682,-0.331329,-1.592987,1.343753,0.631076,0.009183,-0.825252,-2.247658,1.127442,2.604153,-0.589449,-6.168021,-14.633451,37.427972,9.148726,-0.252221,0.094762,0.000000,0.099933,-0.352638,-0.000000
3.390000,2.349078,-0.325131,-1.592839,1.335631,0.608570,0.020149,-0.799943,-2.251680,1.066216,2.457193,-0.220479,-6.070184,-14.736853,36.334100,10.547642,-0.251037,0.091233,0.000000,0.135964,-0.330965,0.000000
3.400000,2.362395,-0.319158,-1.592584,1.327754,0.586042,0.030507,-0.776108,-2.252067,1.006039,2.309416,0.137233,-5.957068,-14.794197,35.152572,12.101248,-0.249504,0.087927,0.000000,0.169745,-0.309588,-0.000000
3.410000,2.375633,-0.313410,-1.592229,1.320109,0.563528,0.040270,-0.753754,-2.248936,0.947075,2.161309,0.482572,-5.828159,-14.806868,33.891805,13.534444,-0.247644,0.084842,0.000000,0.201249,-0.288552,-0.000000
3.420000,2.388797,-0.307887,-1.591778,1.312679,0.541063,0.049449,-0.732882,-2.242416,0.889476,2.013279,0.815069,-5.686379,-14.787414,32.650805,14.592111,-0.245480,0.081973,0.000000,0.230606,-0.267917,0.000000
3.430000,2.401887,-0.302589,-1.591240,1.305451,0.518680,0.058059,-0.713489,-2.232634,0.833347,1.865561,1.135588,-5.536317,-14.743906,31.445084,15.355136,-0.243033,0.079316,0.000000,0.258122,-0.247731,-0.000000
3.440000,2.414906,-0.297513,-1.590617,1.298410,0.496411,0.066116,-0.695571,-2.219704,0.778749,1.718401,1.443971,-5.379276,-14.664444,30.156006,16.148174,-0.240319,0.076866,0.000000,0.283896,-0.228008,-0.000000
3.450000,2.427855,-0.292660,-1.589917,1.291540,0.474286,0.073634,-0.679121,-2.203755,0.725762,1.572272,1.738708,-5.213353,-14.517204,28.746989,17.017575,-0.237356,0.074619,0.000000,0.307801,-0.208758,-0.000000
3.460000,2.440737,-0.288028,-1.589145,1.284827,0.452335,0.080631,-0.664125,-2.184930,0.674482,1.428057,2.018911,-5.038925,-14.317469,27.313348,17.745367,-0.234163,0.072569,0.000000,0.329831,-0.190052,0.000000
3.470000,2.453552,-0.283614,-1.588305,1.278257,0.430587,0.087124,-0.650559,-2.163377,0.624983,1.285923,2.284975,-4.858446,-14.163990,25.961232,18.234276,-0.230760,0.070710,0.000000,0.350158,-0.171901,0.000000
3.480000,2.466302,-0.279416,-1.587402,1.271816,0.409068,0.093131,-0.638407,-2.139231,0.577313,1.144777,2.538136,-4.674239,-14.055702,24.675025,18.549958,-0.227160,0.069036,0.000000,0.369031,-0.154177,0.000000
3.490000,2.478988,-0.275432,-1.586442,1.265489,0.387803,0.098670,-0.627664,-2.112614,0.531499,1.004809,2.778476,-4.487447,-13.863539,23.330671,18.813671,-0.223379,0.067544,0.000000,0.386534,-0.136881,-0.000000
3.500000,2.491612,-0.271660,-1.585429,1.259263,0.366816,0.103761,-0.618311,-2.083661,0.487564,0.867506,3.004749,-4.297966,-13.594550,21.887638,19.098076,-0.219429,0.066228,0.000000,0.402583,-0.120141,0.000000
3.510000,2.504173,-0.268096,-1.584367,1.253123,0.346129,0.108421,-0.610314,-2.052519,0.445539,0.732918,3.216228,-4.105485,-13.337506,20.441654,19.323164,-0.215327,0.065081,0.000000,0.417140,-0.103930,0.000000
3.520000,2.516674,-0.264737,-1.583260,1.247056,0.325765,0.112672,-0.603652,-2.019336,0.405455,0.600756,3.413582,-3.911503,-13.050912,19.115651,19.286931,-0.211086,0.064099,0.000000,0.430348,-0.088202,0.000000
3.530000,2.529114,-0.261581,-1.582113,1.241050,0.305743,0.116531,-0.598299,-1.984247,0.367309,0.471900,3.598541,-3.719747,-12.704986,17.894118,19.019807,-0.206719,0.063276,0.000000,0.442490,-0.073046,0.000000
3.540000,2.541495,-0.258623,-1.580930,1.235090,0.286080,0.120018,-0.594214,-1.947366,0.331060,0.346656,3.771464,-3.531107,-12.368272,16.625508,18.801626,-0.202236,0.062606,0.000000,0.453641,-0.058473,-0.000000
3.550000,2.553816,-0.255859,-1.579713,1.229166,0.266795,0.123152,-0.591366,-1.908818,0.296687,0.224534,3.931052,-3.343714,-12.046099,15.252152,18.626154,-0.197646,0.062082,0.000000,0.463649,-0.044394,-0.000000
3.560000,2.566078,-0.253287,-1.578467,1.223263,0.247904,0.125951,-0.589724,-1.868745,0.264185,0.105734,4.076507,-3.158583,-11.694201,13.886330,18.316675,-0.192962,0.061700,0.000000,0.472470,-0.030816,0.000000
3.570000,2.578281,-0.250901,-1.577194,1.217371,0.229421,0.128435,-0.589251,-1.827288,0.233515,-0.009350,4.208778,-2.977381,-11.331238,12.687389,17.963088,-0.188196,0.061454,0.000000,0.480242,-0.017766,0.000000
3.580000,2.590426,-0.248698,-1.575898,1.211478,0.211358,0.130622,-0.589911,-1.784569,0.204638,-0.120890,4.330255,-2.799322,-10.980551,11.626144,17.642642,-0.183357,0.061338,0.000000,0.487198,-0.005204,-0.000000
3.590000,2.602511,-0.246674,-1.574582,1.205573,0.193729,0.132528,-0.591669,-1.740683,0.177529,-0.228961,4.441301,-2.624528,-10.615043,10.499300,17.227593,-0.178451,0.061347,0.000000,0.493380,0.006896,0.000000
3.600000,2.614537,-0.244824,-1.573247,1.199645,0.176545,0.134172,-0.594490,-1.695743,0.152147,-0.333191,4.540241,-2.454770,-10.196457,9.290858,16.670999,-0.173488,0.061477,0.000000,0.498652,0.018501,-0.000000
3.610000,2.626504,-0.243143,-1.571898,1.193683,0.159814,0.135571,-0.598333,-1.649878,0.128434,-0.432890,4.627118,-2.291108,-9.749225,8.140392,16.073518,-0.168477,0.061723,0.000000,0.503034,0.029549,0.000000
3.620000,2.638411,-0.241627,-1.570536,1.187678,0.143547,0.136741,-0.603148,-1.603201,0.106325,-0.528176,4.703049,-2.133299,-9.376897,7.069708,15.536248,-0.163427,0.062077,0.000000,0.506626,0.040068,-0.000000
3.630000,2.650257,-0.240272,-1.569163,1.181620,0.127750,0.137698,-0.608896,-1.555817,0.085768,-0.620428,4.768512,-1.980383,-9.073235,6.032224,15.028898,-0.158344,0.062535,0.000000,0.509454,0.050215,0.000000
3.640000,2.662043,-0.239072,-1.567782,1.175500,0.112431,0.138456,-0.615556,-1.507830,0.066717,-0.709640,4.823694,-1.832722,-8.700931,5.012896,14.433475,-0.153237,0.063094,0.000000,0.511536,0.059996,-0.000000
3.650000,2.673767,-0.238023,-1.566394,1.169309,0.097594,0.139032,-0.623089,-1.459343,0.049113,-0.794447,4.868770,-1.691713,-8.269994,4.016869,13.783025,-0.148113,0.063749,0.000000,0.512899,0.069275,-0.000000
3.660000,2.685429,-0.237120,-1.565001,1.163038,0.083244,0.139439,-0.631445,-1.410455,0.032883,-0.875040,4.904031,-1.557061,-7.872276,3.053893,13.160464,-0.142979,0.064494,0.000000,0.513556,0.078079,-0.000000
3.670000,2.697028,-0.236359,-1.563605,1.156680,0.069385,0.139690,-0.640590,-1.361262,0.017972,-0.951892,4.929848,-1.428504,-7.452920,2.127934,12.472983,-0.137841,0.065326,0.000000,0.513529,0.086466,0.000000
3.680000,2.708563,-0.235733,-1.562208,1.150227,0.056019,0.139798,-0.650483,-1.311858,0.004313,-1.024099,4.946590,-1.307601,-6.978446,1.239632,11.701510,-0.132707,0.066240,0.000000,0.512860,0.094337,0.000000
3.690000,2.720033,-0.235238,-1.560809,1.143670,0.043147,0.139776,-0.661072,-1.262331,-0.008180,-1.091461,4.954641,-1.194474,-6.533636,0.385070,10.989177,-0.127584,0.067230,0.000000,0.511573,0.101678,-0.000000
3.700000,2.731436,-0.234870,-1.559412,1.137005,0.030772,0.139634,-0.672312,-1.212765,-0.019576,-1.154771,4.954291,-1.087818,-6.129169,-0.456715,10.300091,-0.122476,0.068290,0.000000,0.509665,0.108579,0.000000
3.710000,2.742773,-0.234623,-1.558017,1.130224,0.018892,0.139384,-0.684167,-1.163245,-0.029936,-1.214044,4.945507,-0.988472,-5.707545,-1.280508,9.548573,-0.117390,0.069418,0.000000,0.507128,0.115037,-0.000000
3.720000,2.754041,-0.234492,-1.556624,1.123322,0.007507,0.139036,-0.696593,-1.113855,-0.039346,-1.268922,4.928681,-0.896846,-5.272032,-2.023395,8.898541,-0.112333,0.070607,0.000000,0.503990,0.121016,0.000000
3.730000,2.765239,-0.234473,-1.555236,1.116292,-0.003385,0.138597,-0.709545,-1.064671,-0.047873,-1.319485,4.905039,-0.810501,-4.844932,-2.684630,8.395314,-0.107310,0.071854,0.000000,0.500330,0.126542,0.000000
3.740000,2.776367,-0.234560,-1.553852,1.109131,-0.013786,0.138078,-0.722983,-1.015754,-0.055556,-1.365821,4.874988,-0.728940,-4.417980,-3.349849,7.813783,-0.102326,0.073153,0.000000,0.496172,0.131626,0.000000
3.750000,2.787422,-0.234748,-1.552474,1.101833,-0.023700,0.137486,-0.736862,-0.967171,-0.062452,-1.407845,4.838042,-0.654225,-3.981493,-4.025957,7.105759,-0.097386,0.074500,0.000000,0.491477,0.136246,0.000000
3.760000,2.798403,-0.235034,-1.551103,1.094394,-0.033130,0.136829,-0.751140,-0.918993,-0.068640,-1.445451,4.794469,-0.586825,-3.543693,-4.655238,6.432603,-0.092496,0.075891,0.000000,0.486261,0.140386,0.000000
3.770000,2.809310,-0.235411,-1.549738,1.086810,-0.042080,0.136114,-0.765771,-0.871282,-0.074189,-1.478718,4.744937,-0.525573,-3.125466,-5.236804,5.882327,-0.087660,0.077320,0.000000,0.480565,0.144062,0.000000
3.780000,2.820140,-0.235875,-1.548380,1.079078,-0.050555,0.135345,-0.780714,-0.824095,-0.079152,-1.507960,4.689733,-0.469178,-2.725723,-5.791211,5.406955,-0.082884,0.078783,0.000000,0.474396,0.147312,0.000000
3.790000,2.830891,-0.236422,-1.547031,1.071196,-0.058562,0.134531,-0.795930,-0.777487,-0.083572,-1.533233,4.629113,-0.417434,-2.317981,-6.315248,4.904602,-0.078172,0.080276,0.000000,0.467768,0.150144,0.000000
3.800000,2.841564,-0.237047,-1.545690,1.063160,-0.066105,0.133674,-0.811379,-0.731512,-0.087500,-1.554320,4.563428,-0.371086,-1.899632,-6.807012,4.357601,-0.073529,0.081795,0.000000,0.460713,0.152527,0.000000
3.810000,2.852155,-0.237744,-1.544357,1.054968,-0.073192,0.132781,-0.827017,-0.686219,-0.090994,-1.571226,4.492972,-0.330282,-1.489569,-7.270069,3.837057,-0.068958,0.083335,0.000000,0.453250,0.154459,0.000000
3.820000,2.862663,-0.238510,-1.543034,1.046619,-0.079830,0.131854,-0.842803,-0.641653,-0.094106,-1.584111,4.418027,-0.294345,-1.092479,-7.702610,3.399260,-0.064464,0.084892,0.000000,0.445395,0.155960,-0.000000
3.830000,2.873087,-0.239341,-1.541720,1.038112,-0.086025,0.130898,-0.858699,-0.597858,-0.096881,-1.593075,4.338920,-0.262297,-0.702574,-8.103686,3.025098,-0.060050,0.086461,0.000000,0.437166,0.157044,-0.000000
3.840000,2.883425,-0.240231,-1.540416,1.029445,-0.091787,0.129917,-0.874665,-0.554875,-0.099352,-1.598163,4.255953,-0.233843,-0.316196,-8.477182,2.645161,-0.055720,0.088038,0.000000,0.428586,0.157719,0.000000
3.850000,2.893676,-0.241176,-1.539122,1.020619,-0.097123,0.128911,-0.890662,-0.512739,-0.101558,-1.599399,4.169377,-0.209394,0.066018,-8.825188,2.240595,-0.051478,0.089620,0.000000,0.419677,0.157982,-0.000000
3.860000,2.903838,-0.242173,-1.537838,1.011632,-0.102042,0.127885,-0.906653,-0.471487,-0.103540,-1.596842,4.079449,-0.189031,0.441086,-9.145700,1.859839,-0.047327,0.091202,0.000000,0.410459,0.157834,0.000000
3.870000,2.913908,-0.243217,-1.536564,1.002486,-0.106552,0.126841,-0.922599,-0.431150,-0.105338,-1.590577,3.986463,-0.172197,0.807511,-9.435666,1.553541,-0.043269,0.092780,0.000000,0.400955,0.157289,0.000000
3.880000,2.923887,-0.244304,-1.535301,0.993180,-0.110665,0.125779,-0.938464,-0.391758,-0.106984,-1.580692,3.890736,-0.157961,1.165762,-9.696100,1.307360,-0.039308,0.094351,0.000000,0.391189,0.156363,-0.000000
3.890000,2.933772,-0.245431,-1.534049,0.983716,-0.114388,0.124701,-0.954213,-0.353336,-0.108498,-1.567262,3.792541,-0.146050,1.516714,-9.932184,1.056080,-0.035445,0.095910,0.000000,0.381185,0.155064,0.000000
3.900000,2.943562,-0.246592,-1.532807,0.974096,-0.117731,0.123609,-0.969809,-0.315907,-0.109905,-1.550358,3.692092,-0.136839,1.859741,-10.146262,0.792022,-0.031684,0.097454,0.000000,0.370964,0.153395,0.000000
3.910000,2.953254,-0.247785,-1.531577,0.964320,-0.120706,0.122503,-0.985220,-0.279494,-0.111234,-1.530067,3.589615,-0.130209,2.193626,-10.335576,0.558687,-0.028026,0.098980,0.000000,0.360547,0.151365,0.000000
3.920000,2.962848,-0.249006,-1.530357,0.954391,-0.123321,0.121384,-1.000411,-0.244115,-0.112509,-1.506485,3.485381,-0.125665,2.518502,-10.496005,0.369446,-0.024473,0.100483,0.000000,0.349956,0.148989,0.000000
3.930000,2.972342,-0.250252,-1.529149,0.944312,-0.125588,0.120253,-1.015350,-0.209786,-0.113748,-1.479697,3.379695,-0.122820,2.833994,-10.628846,0.209826,-0.021027,0.101960,0.000000,0.339223,0.146276,-0.000000
3.940000,2.981734,-0.251518,-1.527952,0.934084,-0.127517,0.119109,-1.030005,-0.176521,-0.114965,-1.449805,3.272804,-0.121469,3.139016,-10.740839,0.064077,-0.017689,0.103409,0.000000,0.328370,0.143241,0.000000
3.950000,2.991024,-0.252802,-1.526767,0.923712,-0.129118,0.117953,-1.044346,-0.144330,-0.116177,-1.416917,3.164879,-0.121539,3.435073,-10.834637,-0.074079,-0.014460,0.104826,0.000000,0.317415,0.139894,0.000000
3.960000,3.000208,-0.254100,-1.525593,0.913198,-0.130403,0.116785,-1.058343,-0.113223,-0.117396,-1.381104,3.056111,-0.122950,3.722070,-10.906545,-0.195078,-0.011340,0.106207,0.000000,0.306377,0.136243,0.000000
3.970000,3.009287,-0.255410,-1.524431,0.902545,-0.131383,0.115605,-1.071968,-0.083208,-0.118636,-1.342476,2.946748,-0.125441,3.993887,-10.952068,-0.280393,-0.008332,0.107551,0.000000,0.295282,0.132302,-0.000000
3.980000,3.018259,-0.256728,-1.523281,0.891758,-0.132068,0.114413,-1.085193,-0.054288,-0.119905,-1.301226,2.837070,-0.128558,4.249332,-10.972968,-0.332741,-0.005435,0.108853,0.000000,0.284157,0.128094,-0.000000
3.990000,3.027123,-0.258051,-1.522143,0.880841,-0.132469,0.113207,-1.097992,-0.026466,-0.121207,-1.257489,2.727288,-0.132095,4.496116,-10.976561,-0.378798,-0.002649,0.110113,0.000000,0.273024,0.123638,-0.000000
4.000000,3.035876,-0.259377,-1.521017,0.869798,-0.132597,0.111989,-1.110342,0.000257,-0.122547,-1.211304,2.617538,-0.136134,4.738543,-10.965222,-0.427960,0.000026,0.111326,0.000000,0.261899,0.118935,-0.000000
4.010000,3.044519,-0.260703,-1.519903,0.858634,-0.132463,0.110756,-1.122218,0.025884,-0.123930,-1.162718,2.507984,-0.140655,4.970534,-10.935042,-0.463265,0.002589,0.112491,0.000000,0.250799,0.113990,0.000000
4.020000,3.053049,-0.262027,-1.518802,0.847354,-0.132079,0.109510,-1.133597,0.050417,-0.125360,-1.111893,2.398838,-0.145399,5.180200,-10.882614,-0.465571,0.005042,0.113606,0.000000,0.239746,0.108825,0.000000
4.030000,3.061466,-0.263345,-1.517713,0.835962,-0.131455,0.108249,-1.144456,0.073861,-0.126838,-1.059114,2.290332,-0.149966,5.368581,-10.810000,-0.442934,0.007384,0.114668,0.000000,0.228763,0.103471,0.000000
4.040000,3.069768,-0.264656,-1.516637,0.824465,-0.130602,0.106973,-1.154779,0.096224,-0.128359,-1.004521,2.182638,-0.154258,5.551028,-10.723156,-0.422260,0.009617,0.115675,0.000000,0.217871,0.097945,-0.000000
4.050000,3.077955,-0.265957,-1.515573,0.812867,-0.129531,0.105682,-1.164547,0.117514,-0.129923,-0.948093,2.075868,-0.158411,5.730906,-10.623715,-0.395847,0.011742,0.116627,0.000000,0.207080,0.092243,-0.000000
4.060000,3.086025,-0.267246,-1.514523,0.801174,-0.128252,0.104375,-1.173741,0.137741,-0.131528,-0.889903,1.970163,-0.162175,5.897433,-10.508866,-0.348523,0.013759,0.117520,0.000000,0.196406,0.086375,-0.000000
4.070000,3.093978,-0.268522,-1.513486,0.789392,-0.126776,0.103051,-1.182345,0.156917,-0.133167,-0.830145,1.865691,-0.165382,6.042833,-10.377248,-0.310375,0.015670,0.118355,0.000000,0.185867,0.080365,0.000000
4.080000,3.101813,-0.269782,-1.512462,0.777527,-0.125113,0.101711,-1.190344,0.175055,-0.134835,-0.769047,1.762618,-0.168382,6.170141,-10.230806,-0.289694,0.017476,0.119128,0.000000,0.175479,0.074230,-0.000000
4.090000,3.109529,-0.271024,-1.511452,0.765585,-0.123275,0.100355,-1.197726,0.192170,-0.136534,-0.706742,1.661075,-0.171175,6.289080,-10.072868,-0.246155,0.019179,0.119839,0.000000,0.165255,0.067983,-0.000000
4.100000,3.117125,-0.272247,-1.510455,0.753573,-0.121270,0.098981,-1.204479,0.208276,-0.138259,-0.643265,1.561161,-0.173306,6.402360,-9.904050,-0.173196,0.020781,0.120488,0.000000,0.155206,0.061635,-0.000000
4.110000,3.124600,-0.273450,-1.509472,0.741496,-0.119109,0.097590,-1.210591,0.223393,-0.140000,-0.578695,1.462994,-0.174639,6.503201,-9.723444,-0.100153,0.022283,0.121072,0.000000,0.145345,0.055194,-0.000000
4.120000,3.131955,-0.274630,-1.508503,0.729361,-0.116802,0.096181,-1.216052,0.237536,-0.141752,-0.513201,1.366692,-0.175309,6.584207,-9.532354,-0.038038,0.023688,0.121592,0.000000,0.135683,0.048676,0.000000
4.130000,3.139188,-0.275786,-1.507548,0.717175,-0.114358,0.094754,-1.220855,0.250727,-0.143506,-0.447011,1.272347,-0.175400,6.647173,-9.332313,0.021791,0.024997,0.122046,0.000000,0.126230,0.042102,-0.000000
4.140000,3.146298,-0.276917,-1.506608,0.704944,-0.111788,0.093311,-1.224993,0.262983,-0.145260,-0.380258,1.180046,-0.174873,6.702033,-9.123161,0.089915,0.026213,0.122434,0.000000,0.116992,0.035486,0.000000
4.150000,3.153287,-0.278021,-1.505682,0.692675,-0.109099,0.091849,-1.228460,0.274327,-0.147004,-0.312970,1.089884,-0.173602,6.751968,-8.904357,0.166728,0.027337,0.122756,0.000000,0.107981,0.028831,0.000000
4.160000,3.160152,-0.279099,-1.504771,0.680374,-0.106301,0.090371,-1.231252,0.284781,-0.148732,-0.245218,1.001959,-0.171538,6.790208,-8.677413,0.244164,0.028372,0.123011,0.000000,0.099204,0.022146,0.000000
4.170000,3.166894,-0.280147,-1.503875,0.668050,-0.103403,0.088875,-1.233364,0.294367,-0.150435,-0.177166,0.916335,-0.168719,6.809350,-8.446438,0.316692,0.029321,0.123199,0.000000,0.090669,0.015446,0.000000
4.180000,3.173513,-0.281167,-1.502994,0.655707,-0.100414,0.087362,-1.234795,0.303108,-0.152106,-0.109031,0.833030,-0.165204,6.811538,-8.212282,0.385179,0.030186,0.123320,0.000000,0.082376,0.008751,0.000000
4.190000,3.180008,-0.282156,-1.502128,0.643354,-0.097341,0.085833,-1.235545,0.311027,-0.153739,-0.040935,0.752090,-0.161015,6.806730,-7.971069,0.455277,0.030969,0.123374,0.000000,0.074329,0.002072,0.000000
4.200000,3.186380,-0.283114,-1.501277,0.630996,-0.094193,0.084287,-1.235614,0.318149,-0.155326,0.027103,0.673609,-0.156099,6.797173,-7.721354,0.532800,0.031672,0.123362,0.000000,0.066537,-0.004589,0.000000
4.210000,3.192628,-0.284040,-1.500442,0.618641,-0.090978,0.082726,-1.235003,0.324499,-0.156861,0.095008,0.597663,-0.150359,6.776468,-7.467116,0.612493,0.032299,0.123283,0.000000,0.059006,-0.011223,0.000000
4.220000,3.198753,-0.284933,-1.499622,0.606296,-0.087703,0.081150,-1.233714,0.330103,-0.158333,0.162633,0.524266,-0.143849,6.740117,-7.214424,0.675622,0.032853,0.123137,0.000000,0.051737,-0.017818,-0.000000
4.230000,3.204754,-0.285794,-1.498819,0.593967,-0.084376,0.079559,-1.231750,0.334985,-0.159738,0.229811,0.453374,-0.136847,6.690454,-6.963310,0.722223,0.033334,0.122926,0.000000,0.044725,-0.024361,0.000000
4.240000,3.210632,-0.286621,-1.498031,0.581661,-0.081004,0.077955,-1.229118,0.339170,-0.161070,0.296442,0.385000,-0.129405,6.633733,-6.707265,0.776608,0.033747,0.122650,0.000000,0.037969,-0.030843,0.000000
4.250000,3.216387,-0.287414,-1.497260,0.569385,-0.077593,0.076338,-1.225822,0.342685,-0.162326,0.362485,0.319229,-0.121314,6.571102,-6.444226,0.843835,0.034094,0.122309,0.000000,0.031477,-0.037260,-0.000000
4.260000,3.222020,-0.288173,-1.496504,0.557145,-0.074150,0.074709,-1.221868,0.345555,-0.163497,0.427864,0.256116,-0.112528,6.498867,-6.179822,0.906595,0.034377,0.121904,0.000000,0.025255,-0.043602,0.000000
4.270000,3.227530,-0.288897,-1.495765,0.544947,-0.070681,0.073068,-1.217264,0.347807,-0.164576,0.492463,0.195633,-0.103183,6.415300,-5.921398,0.953651,0.034599,0.121436,0.000000,0.019298,-0.049861,0.000000
4.280000,3.232919,-0.289586,-1.495043,0.532799,-0.067194,0.071417,-1.212019,0.349467,-0.165560,0.556170,0.137688,-0.093455,6.322093,-5.668364,0.989927,0.034763,0.120906,0.000000,0.013596,-0.056030,-0.000000
4.290000,3.238186,-0.290241,-1.494337,0.520707,-0.063692,0.069757,-1.206141,0.350561,-0.166445,0.618905,0.082265,-0.083384,6.222034,-5.412382,1.028851,0.034871,0.120315,0.000000,0.008147,-0.062101,0.000000
4.300000,3.243333,-0.290860,-1.493648,0.508677,-0.060182,0.068088,-1.199641,0.351113,-0.167228,0.680610,0.029440,-0.072878,6.115360,-5.151027,1.073405,0.034926,0.119663,0.000000,0.002957,-0.068068,-0.000000
4.310000,3.248360,-0.291444,-1.492975,0.496714,-0.056670,0.066412,-1.192529,0.351150,-0.167903,0.741212,-0.020755,-0.061916,6.000856,-4.890993,1.114192,0.034930,0.118953,0.000000,-0.001971,-0.073925,0.000000
4.320000,3.253267,-0.291993,-1.492320,0.484826,-0.053159,0.064730,-1.184816,0.350698,-0.168466,0.800628,-0.068380,-0.050594,5.879101,-4.640103,1.142653,0.034886,0.118184,0.000000,-0.006643,-0.079665,0.000000
4.330000,3.258056,-0.292507,-1.491681,0.473018,-0.049656,0.063043,-1.176516,0.349782,-0.168915,0.858794,-0.113557,-0.039063,5.751067,-4.397266,1.161493,0.034797,0.117358,0.000000,-0.011074,-0.085284,0.000000
4.340000,3.262728,-0.292987,-1.491059,0.461296,-0.046164,0.061352,-1.167641,0.348427,-0.169248,0.915649,-0.156325,-0.027364,5.616653,-4.153326,1.181482,0.034665,0.116477,0.000000,-0.015267,-0.090778,-0.000000
4.350000,3.267282,-0.293431,-1.490454,0.449665,-0.042687,0.059658,-1.158203,0.346656,-0.169462,0.971127,-0.196624,-0.015433,5.475479,-3.905768,1.204256,0.034492,0.115542,0.000000,-0.019217,-0.096139,0.000000
4.360000,3.271721,-0.293840,-1.489866,0.438132,-0.039231,0.057963,-1.148218,0.344494,-0.169556,1.025159,-0.234441,-0.003279,5.328275,-3.661626,1.222516,0.034280,0.114553,0.000000,-0.022922,-0.101361,0.000000
4.370000,3.276045,-0.294215,-1.489295,0.426701,-0.035798,0.056267,-1.137700,0.341967,-0.169528,1.077692,-0.269856,0.009017,5.177233,-3.428548,1.232521,0.034033,0.113513,0.000000,-0.026392,-0.106441,-0.000000
4.380000,3.280255,-0.294556,-1.488740,0.415378,-0.032391,0.054572,-1.126664,0.339097,-0.169376,1.128703,-0.303012,0.021371,5.022776,-3.205140,1.236606,0.033752,0.112423,0.000000,-0.029641,-0.111378,0.000000
4.390000,3.284352,-0.294863,-1.488203,0.404167,-0.029016,0.052879,-1.115126,0.335906,-0.169100,1.178148,-0.333959,0.033749,4.862697,-2.982257,1.239349,0.033440,0.111284,0.000000,-0.032675,-0.116167,0.000000
4.400000,3.288338,-0.295137,-1.487683,0.393075,-0.025673,0.051190,-1.103101,0.332418,-0.168701,1.225957,-0.362657,0.046158,4.695967,-2.757472,1.241602,0.033099,0.110099,0.000000,-0.035489,-0.120803,0.000000
4.410000,3.292214,-0.295377,-1.487179,0.382105,-0.022367,0.049505,-1.090607,0.328653,-0.168177,1.272067,-0.389109,0.058581,4.524708,-2.537595,1.240373,0.032731,0.108867,0.000000,-0.038083,-0.125279,-0.000000
4.420000,3.295980,-0.295584,-1.486693,0.371263,-0.019100,0.047826,-1.077660,0.324636,-0.167529,1.316451,-0.413409,0.070966,4.352710,-2.329661,1.233441,0.032337,0.107592,0.000000,-0.040469,-0.129593,-0.000000
4.430000,3.299639,-0.295759,-1.486223,0.360552,-0.015875,0.046155,-1.064278,0.320385,-0.166758,1.359121,-0.435702,0.083250,4.180006,-2.132147,1.221652,0.031921,0.106274,0.000000,-0.042660,-0.133748,0.000000
4.440000,3.303191,-0.295901,-1.485770,0.349977,-0.012692,0.044491,-1.050477,0.315922,-0.165864,1.400051,-0.456052,0.095399,4.002201,-1.936483,1.208028,0.031484,0.104915,0.000000,-0.044662,-0.137740,0.000000
4.450000,3.306639,-0.296012,-1.485333,0.339543,-0.009556,0.042837,-1.036277,0.311264,-0.164850,1.439165,-0.474432,0.107411,3.817534,-1.740424,1.194541,0.031028,0.103518,0.000000,-0.046472,-0.141564,0.000000
4.460000,3.309982,-0.296092,-1.484913,0.329252,-0.006467,0.041194,-1.021694,0.306433,-0.163716,1.476402,-0.490860,0.119290,3.629562,-1.550188,1.179235,0.030555,0.102083,0.000000,-0.048094,-0.145212,0.000000
4.470000,3.313224,-0.296142,-1.484509,0.319109,-0.003427,0.039563,-1.006749,0.301447,-0.162464,1.511757,-0.505435,0.130995,3.443665,-1.371989,1.156973,0.030066,0.100612,0.000000,-0.049535,-0.148684,-0.000000
4.480000,3.316364,-0.296161,-1.484122,0.309117,-0.000438,0.037945,-0.991459,0.296324,-0.161096,1.545275,-0.518300,0.142429,3.259293,-1.204306,1.128755,0.029564,0.099108,0.000000,-0.050811,-0.151985,-0.000000
4.490000,3.319406,-0.296151,-1.483750,0.299280,0.002499,0.036341,-0.975843,0.291081,-0.159615,1.576943,-0.529521,0.153570,3.069859,-1.039415,1.101710,0.029050,0.097571,0.000000,-0.051928,-0.155115,0.000000
4.500000,3.322350,-0.296111,-1.483395,0.289600,0.005383,0.034753,-0.959920,0.285734,-0.158025,1.606673,-0.539088,0.164463,2.873836,-0.875310,1.074070,0.028525,0.096004,0.000000,-0.052884,-0.158063,-0.000000
4.510000,3.325198,-0.296043,-1.483055,0.280081,0.008214,0.033181,-0.943710,0.280299,-0.156326,1.634419,-0.547028,0.175052,2.676096,-0.717457,1.041507,0.027992,0.094408,0.000000,-0.053683,-0.160825,0.000000
4.520000,3.327952,-0.295947,-1.482731,0.270726,0.010989,0.031626,-0.927232,0.274793,-0.154524,1.660194,-0.553437,0.185294,2.480771,-0.571117,1.011033,0.027452,0.092786,0.000000,-0.054333,-0.163403,-0.000000
4.530000,3.330612,-0.295823,-1.482423,0.261537,0.013710,0.030090,-0.910506,0.269230,-0.152620,1.684035,-0.558450,0.195273,2.286758,-0.434841,0.984733,0.026905,0.091139,0.000000,-0.054847,-0.165799,-0.000000
4.540000,3.333182,-0.295673,-1.482129,0.252516,0.016374,0.028574,-0.893551,0.263624,-0.150618,1.705930,-0.562134,0.204988,2.089128,-0.301944,0.952860,0.026355,0.089469,0.000000,-0.055232,-0.168010,-0.000000
4.550000,3.335663,-0.295496,-1.481851,0.243666,0.018982,0.027078,-0.876387,0.257988,-0.148521,1.725817,-0.564489,0.214330,1.886108,-0.170650,0.913548,0.025801,0.087778,0.000000,-0.055487,-0.170033,0.000000
4.560000,3.338056,-0.295293,-1.481588,0.234988,0.021534,0.025603,-0.859035,0.252334,-0.146332,1.743652,-0.565547,0.223259,1.681341,-0.045559,0.873720,0.025245,0.086067,0.000000,-0.055616,-0.171861,-0.000000
4.570000,3.340363,-0.295065,-1.481339,0.226485,0.024029,0.024151,-0.841514,0.246677,-0.144055,1.759444,-0.565400,0.231804,1.479996,0.068898,0.836345,0.024688,0.084339,0.000000,-0.055628,-0.173495,0.000000
4.580000,3.342585,-0.294812,-1.481105,0.218158,0.026467,0.022722,-0.823846,0.241026,-0.141696,1.773252,-0.564169,0.239986,1.281447,0.174025,0.799053,0.024132,0.082596,0.000000,-0.055533,-0.174939,0.000000
4.590000,3.344726,-0.294536,-1.480885,0.210008,0.028849,0.021317,-0.806049,0.235393,-0.139256,1.785073,-0.561920,0.247785,1.079030,0.275621,0.758595,0.023578,0.080839,0.000000,-0.055339,-0.176194,-0.000000
4.600000,3.346785,-0.294235,-1.480678,0.202037,0.031175,0.019937,-0.788144,0.229788,-0.136740,1.794832,-0.558657,0.255158,0.869974,0.375315,0.716039,0.023026,0.079071,0.000000,-0.055046,-0.177252,-0.000000
4.610000,3.348766,-0.293912,-1.480486,0.194245,0.033445,0.018583,-0.770152,0.224220,-0.134153,1.802473,-0.554413,0.262106,0.659048,0.469237,0.673495,0.022477,0.077293,0.000000,-0.054656,-0.178105,0.000000
4.620000,3.350670,-0.293566,-1.480307,0.186634,0.035660,0.017254,-0.752095,0.218700,-0.131498,1.808013,-0.549272,0.268628,0.453450,0.553566,0.628343,0.021932,0.075508,0.000000,-0.054177,-0.178755,-0.000000
4.630000,3.352499,-0.293199,-1.480141,0.179203,0.037819,0.015953,-0.733992,0.213235,-0.128780,1.811542,-0.543342,0.274673,0.252091,0.629480,0.580090,0.021393,0.073718,0.000000,-0.053621,-0.179210,0.000000
4.640000,3.354254,-0.292810,-1.479988,0.171954,0.039924,0.014679,-0.715864,0.207833,-0.126004,1.813055,-0.536682,0.280230,0.045417,0.702160,0.532585,0.020860,0.071923,0.000000,-0.052993,-0.179470,-0.000000
4.650000,3.355938,-0.292400,-1.479847,0.164886,0.041976,0.013432,-0.697731,0.202501,-0.123175,1.812450,-0.529299,0.285324,-0.169614,0.773142,0.484399,0.020333,0.070127,0.000000,-0.052293,-0.179524,0.000000
4.660000,3.357552,-0.291971,-1.479719,0.157999,0.043974,0.012215,-0.679615,0.197247,-0.120298,1.809663,-0.521220,0.289918,-0.386504,0.839084,0.433163,0.019814,0.068332,0.000000,-0.051523,-0.179363,-0.000000
4.670000,3.359098,-0.291521,-1.479603,0.151294,0.045921,0.011027,-0.661538,0.192077,-0.117377,1.804720,-0.512517,0.293988,-0.598046,0.896626,0.384358,0.019303,0.066539,0.000000,-0.050691,-0.178990,-0.000000
4.680000,3.360578,-0.291052,-1.479498,0.144768,0.047816,0.009867,-0.643521,0.186997,-0.114418,1.797702,-0.503287,0.297605,-0.805912,0.946869,0.339170,0.018800,0.064752,0.000000,-0.049807,-0.178413,-0.000000
4.690000,3.361994,-0.290565,-1.479406,0.138423,0.049661,0.008738,-0.625584,0.182011,-0.111425,1.788602,-0.493580,0.300771,-1.019840,0.994537,0.289907,0.018307,0.062970,0.000000,-0.048874,-0.177629,0.000000
4.700000,3.363347,-0.290059,-1.479324,0.132257,0.051456,0.007639,-0.607749,0.177125,-0.108403,1.777305,-0.483396,0.303403,-1.243919,1.041192,0.235087,0.017823,0.061198,0.000000,-0.047893,-0.176627,-0.000000
4.710000,3.364639,-0.289536,-1.479253,0.126268,0.053203,0.006570,-0.590038,0.172343,-0.105357,1.763723,-0.472756,0.305473,-1.471643,1.083897,0.180024,0.017349,0.059437,0.000000,-0.046865,-0.175397,0.000000
4.720000,3.365872,-0.288995,-1.479192,0.120456,0.054903,0.005532,-0.572474,0.167670,-0.102293,1.747872,-0.461718,0.307003,-1.693095,1.119377,0.127008,0.016886,0.057690,0.000000,-0.045797,-0.173940,-0.000000
4.730000,3.367048,-0.288437,-1.479142,0.114819,0.056556,0.004524,-0.555080,0.163109,-0.099217,1.729861,-0.450368,0.308013,-1.909749,1.148625,0.074408,0.016433,0.055958,0.000000,-0.044697,-0.172266,0.000000
4.740000,3.368168,-0.287864,-1.479102,0.109354,0.058165,0.003547,-0.537877,0.158663,-0.096133,1.709677,-0.438746,0.308492,-2.135437,1.176433,0.019465,0.015992,0.054244,0.000000,-0.043568,-0.170373,-0.000000
4.750000,3.369235,-0.287274,-1.479071,0.104061,0.059730,0.002602,-0.520887,0.154334,-0.093047,1.687152,-0.426840,0.308402,-2.376909,1.204707,-0.039053,0.015562,0.052550,0.000000,-0.042410,-0.168243,-0.000000
4.760000,3.370249,-0.286669,-1.479050,0.098937,0.061252,0.001687,-0.504134,0.150126,-0.089965,1.662139,-0.414652,0.307711,-2.624963,1.230534,-0.099307,0.015143,0.050879,0.000000,-0.041222,-0.165861,-0.000000
4.770000,3.371214,-0.286049,-1.479037,0.093979,0.062732,0.000802,-0.487644,0.146041,-0.086893,1.634653,-0.402229,0.306416,-2.863431,1.249918,-0.157749,0.014737,0.049233,0.000000,-0.040009,-0.163229,-0.000000
4.780000,3.372129,-0.285415,-1.479034,0.089184,0.064173,-0.000051,-0.471441,0.142081,-0.083837,1.604870,-0.389653,0.304556,-3.093927,1.263764,-0.214416,0.014343,0.047614,0.000000,-0.038780,-0.160362,-0.000000
4.790000,3.372997,-0.284766,-1.479038,0.084550,0.065574,-0.000874,-0.455547,0.138248,-0.080802,1.572775,-0.376954,0.302128,-3.339317,1.278032,-0.274326,0.013962,0.046025,0.000000,-0.037536,-0.157258,0.000000
4.800000,3.373820,-0.284103,-1.479051,0.080073,0.066937,-0.001667,-0.439985,0.134542,-0.077794,1.538084,-0.364093,0.299069,-3.613391,1.295785,-0.342023,0.013593,0.044468,0.000000,-0.036275,-0.153889,-0.000000
4.810000,3.374599,-0.283427,-1.479072,0.075750,0.068265,-0.002430,-0.424785,0.130966,-0.074820,1.500507,-0.351038,0.295287,-3.900820,1.313350,-0.413966,0.013236,0.042947,0.000000,-0.034993,-0.150225,0.000000
4.820000,3.375335,-0.282738,-1.479100,0.071577,0.069557,-0.003164,-0.409975,0.127521,-0.071888,1.460068,-0.337826,0.290790,-4.167733,1.323908,-0.478261,0.012893,0.041464,0.000000,-0.033694,-0.146267,0.000000
4.830000,3.376030,-0.282036,-1.479135,0.067550,0.070815,-0.003868,-0.395583,0.124209,-0.069004,1.417152,-0.324560,0.285722,-4.419258,1.328955,-0.535912,0.012562,0.040021,0.000000,-0.032387,-0.142054,0.000000
4.840000,3.376686,-0.281321,-1.479177,0.063666,0.072041,-0.004544,-0.381632,0.121030,-0.066174,1.371683,-0.311247,0.280072,-4.702505,1.338383,-0.603379,0.012245,0.038622,0.000000,-0.031074,-0.137576,0.000000
4.850000,3.377304,-0.280595,-1.479226,0.059918,0.073236,-0.005192,-0.368150,0.117984,-0.063403,1.323102,-0.297792,0.273655,-5.022174,1.353321,-0.682303,0.011941,0.037270,0.000000,-0.029746,-0.132779,-0.000000
4.860000,3.377884,-0.279857,-1.479281,0.056303,0.074401,-0.005812,-0.355170,0.115074,-0.060701,1.271239,-0.284180,0.266425,-5.348238,1.367789,-0.761966,0.011650,0.035967,0.000000,-0.028400,-0.127644,-0.000000
4.870000,3.378430,-0.279107,-1.479342,0.052814,0.075537,-0.006406,-0.342725,0.112301,-0.058075,1.216137,-0.270436,0.258415,-5.679255,1.381686,-0.841737,0.011373,0.034717,0.000000,-0.027039,-0.122175,-0.000000
4.880000,3.378941,-0.278346,-1.479409,0.049448,0.076647,-0.006973,-0.330847,0.109666,-0.055532,1.157654,-0.256546,0.249591,-6.027226,1.397674,-0.925745,0.011109,0.033523,0.000000,-0.025662,-0.116357,-0.000000
4.890000,3.379419,-0.277574,-1.479482,0.046197,0.077731,-0.007516,-0.319572,0.107170,-0.053083,1.095593,-0.242483,0.239900,-6.394055,1.416342,-1.014538,0.010860,0.032389,0.000000,-0.024266,-0.110170,-0.000000
4.900000,3.379865,-0.276791,-1.479559,0.043057,0.078790,-0.008035,-0.308936,0.104816,-0.050734,1.029773,-0.228220,0.229300,-6.779479,1.437829,-1.107896,0.010624,0.031320,0.000000,-0.022849,-0.103596,-0.000000
4.910000,3.380280,-0.275998,-1.479642,0.040019,0.079827,-0.008531,-0.298977,0.102606,-0.048497,0.960003,-0.213726,0.217742,-7.184657,1.462570,-1.206112,0.010403,0.030317,0.000000,-0.021407,-0.096614,-0.000000
4.920000,3.380665,-0.275195,-1.479730,0.037077,0.080842,-0.009005,-0.289735,0.100541,-0.046380,0.886080,-0.198968,0.205178,-7.610819,1.491012,-1.309504,0.010196,0.029387,0.000000,-0.019937,-0.089205,0.000000
4.930000,3.381021,-0.274381,-1.479822,0.034224,0.081838,-0.009458,-0.281255,0.098626,-0.044393,0.807787,-0.183906,0.191552,-8.059157,1.523599,-1.418394,0.010004,0.028533,0.000000,-0.018435,-0.081347,-0.000000
4.940000,3.381350,-0.273558,-1.479919,0.031452,0.082815,-0.009893,-0.273580,0.096863,-0.042548,0.724897,-0.168496,0.176810,-8.530907,1.560778,-1.533083,0.009827,0.027760,0.000000,-0.016897,-0.073016,-0.000000
4.950000,3.381650,-0.272725,-1.480020,0.028752,0.083775,-0.010309,-0.266757,0.095256,-0.040857,0.637169,-0.152691,0.160891,-9.027319,1.602998,-1.653859,0.009666,0.027073,0.000000,-0.015318,-0.064189,-0.000000
4.960000,3.381925,-0.271883,-1.480125,0.026117,0.084720,-0.010710,-0.260836,0.093809,-0.039331,0.544350,-0.136436,0.143733,-9.549596,1.650706,-1.781066,0.009521,0.026476,0.000000,-0.013693,-0.054840,0.000000
4.970000,3.382173,-0.271031,-1.480235,0.023536,0.085651,-0.011096,-0.255870,0.092528,-0.037982,0.446177,-0.119676,0.125269,144.252466,-54.346021,20.012081,0.009392,0.025976,0.000000,-0.012017,-0.044944,0.000000
4.980000,3.382395,-0.270170,-1.480347,0.020999,0.086570,-0.011470,-0.251913,0.091416,-0.036825,3.429400,-1.223357,0.543974,296.547113,-109.512376,41.026388,0.009280,0.025578,0.000000,-0.123592,-0.346620,-0.000000
4.990000,3.382593,-0.269299,-1.480464,0.018498,0.087479,-0.011833,-0.187282,0.068060,-0.027103,6.377119,-2.309924,0.945797,143.087839,-53.047020,18.768729,0.006917,0.019036,0.000000,-0.234014,-0.646192,0.000000
5.000000,3.382765,-0.268420,-1.480584,0.017254,0.087932,-0.012012,-0.124370,0.045217,-0.017909,6.291156,-2.284297,0.919349,-8.596268,2.562683,-2.644834,0.004601,0.012654,0.000000,-0.231939,-0.638839,0.000000
