time,x,y,z,vx,vy,vz,ax,ay,az,jx,jy,jz,sx,sy,sz,roll,pitch,yaw,p,q,r
0.000000,-3.384194,0.322390,-1.481409,-0.014357,-0.005345,0.005777,0.287128,-0.087169,0.015123,13.227724,-3.791727,0.490308,-101.002382,54.161681,-24.672576,-0.008895,-0.029306,0.000000,-0.387009,-1.350727,-0.000000
0.010000,-3.384338,0.322337,-1.481352,-0.011486,-0.006217,0.005928,0.419405,-0.125086,0.020026,12.217700,-3.250110,0.243583,-470.916892,173.629785,-47.557949,-0.012765,-0.042814,0.000000,-0.331261,-1.246657,0.000000
0.020000,-3.384424,0.322266,-1.481291,-0.005969,-0.007847,0.006177,0.531482,-0.152171,0.019994,3.809386,-0.319131,-0.460851,-768.899299,261.405270,-55.064787,-0.015519,-0.054235,0.000000,-0.031487,-0.385372,0.000000
0.030000,-3.384457,0.322180,-1.481228,-0.000856,-0.009260,0.006328,0.495593,-0.131469,0.010809,-3.160286,1.977995,-0.857713,-307.802340,106.016310,-14.456633,-0.013398,-0.050532,0.000000,0.202511,0.326068,0.000000
0.040000,-3.384441,0.322081,-1.481164,0.003943,-0.010476,0.006393,0.468276,-0.112611,0.002840,-2.346661,1.801195,-0.749983,77.151943,-16.945250,9.477643,-0.011469,-0.047712,0.000000,0.184172,0.242363,0.000000
0.050000,-3.384378,0.321971,-1.481100,0.008510,-0.011513,0.006384,0.448659,-0.095445,-0.004191,-1.617247,1.639090,-0.668160,69.026081,-15.538728,7.081637,-0.009715,-0.045684,0.000000,0.167409,0.167541,0.000000
0.060000,-3.384271,0.321851,-1.481037,0.012916,-0.012385,0.006309,0.435931,-0.079829,-0.010523,-0.966139,1.490420,-0.608351,61.479102,-14.255135,5.061709,-0.008121,-0.044361,0.000000,0.152073,0.100927,-0.000000
0.070000,-3.384120,0.321723,-1.480974,0.017228,-0.013109,0.006174,0.429337,-0.065637,-0.016358,-0.387665,1.353987,-0.566926,54.487582,-13.088174,3.391305,-0.006673,-0.043665,0.000000,0.138027,0.041891,-0.000000
0.080000,-3.383926,0.321588,-1.480913,0.021503,-0.013698,0.005982,0.428178,-0.052750,-0.021862,0.123613,1.228657,-0.540525,48.028052,-12.031547,2.043893,-0.005360,-0.043523,0.000000,0.125142,-0.010159,0.000000
0.090000,-3.383690,0.321449,-1.480854,0.025792,-0.014164,0.005737,0.431809,-0.041063,-0.027169,0.572896,1.113357,-0.526048,42.077092,-11.078955,0.992906,-0.004170,-0.043867,0.000000,0.113301,-0.055783,-0.000000
0.100000,-3.383411,0.321305,-1.480798,0.030139,-0.014519,0.005439,0.439636,-0.030483,-0.032383,0.965155,1.007078,-0.520666,36.611302,-10.224099,0.211763,-0.003094,-0.044638,0.000000,0.102394,-0.095507,0.000000
0.110000,-3.383087,0.321158,-1.480746,0.034584,-0.014774,0.005089,0.451112,-0.020922,-0.037582,1.305122,0.908875,-0.521813,31.607238,-9.460682,-0.326057,-0.002122,-0.045777,0.000000,0.092322,-0.129832,0.000000
0.120000,-3.382719,0.321010,-1.480697,0.039161,-0.014938,0.004687,0.465738,-0.012305,-0.042819,1.597299,0.817864,-0.527188,27.041374,-8.782409,-0.647112,-0.001247,-0.047234,0.000000,0.082992,-0.159231,0.000000
0.130000,-3.382304,0.320860,-1.480652,0.043899,-0.015020,0.004233,0.483058,-0.004565,-0.048126,1.845950,0.733226,-0.534755,22.890305,-8.182980,-0.777974,-0.000462,-0.048962,0.000000,0.074318,-0.184151,0.000000
0.140000,-3.381841,0.320709,-1.480612,0.048823,-0.015029,0.003725,0.502657,0.002359,-0.053514,2.055105,0.654204,-0.542747,19.130879,-7.656093,-0.745139,0.000239,-0.050917,0.000000,0.066224,-0.205018,0.000000
0.150000,-3.381327,0.320559,-1.480577,0.053952,-0.014973,0.003162,0.524160,0.008520,-0.058981,2.228567,0.580105,-0.549658,15.739445,-7.195453,-0.575205,0.000862,-0.053062,0.000000,0.058640,-0.222230,0.000000
0.160000,-3.380762,0.320410,-1.480549,0.059306,-0.014859,0.002545,0.547228,0.013962,-0.064507,2.369894,0.510295,-0.554251,12.692234,-6.794767,-0.294787,0.001412,-0.055362,0.000000,0.051501,-0.236165,-0.000000
0.170000,-3.380141,0.320262,-1.480527,0.064897,-0.014694,0.001872,0.571558,0.018725,-0.070066,2.482412,0.444209,-0.555554,9.965274,-6.447261,0.065520,0.001892,-0.057785,0.000000,0.044751,-0.247174,-0.000000
0.180000,-3.379464,0.320116,-1.480511,0.070737,-0.014484,0.001144,0.596877,0.022846,-0.075618,2.569200,0.381350,-0.552941,7.518676,-6.138437,0.407059,0.002307,-0.060305,0.000000,0.038341,-0.255583,0.000000
0.190000,-3.378727,0.319972,-1.480504,0.076834,-0.014237,0.000360,0.622942,0.026352,-0.081124,2.632786,0.321440,-0.547413,5.334444,-5.864835,0.728158,0.002659,-0.062897,0.000000,0.032242,-0.261652,-0.000000
0.200000,-3.377927,0.319831,-1.480504,0.083196,-0.013957,-0.000479,0.649532,0.029275,-0.086567,2.675889,0.264053,-0.538378,3.511493,-5.680672,1.534427,0.002952,-0.065538,0.000000,0.026412,-0.265670,0.000000
0.210000,-3.377063,0.319693,-1.480513,0.089825,-0.013651,-0.001371,0.676460,0.031634,-0.091892,2.703015,0.207827,-0.516724,2.013362,-5.573171,2.742303,0.003187,-0.068210,0.000000,0.020715,-0.268162,0.000000
0.220000,-3.376131,0.319558,-1.480532,0.096725,-0.013324,-0.002317,0.703593,0.033431,-0.096901,2.716156,0.152590,-0.483531,0.465035,-5.362282,2.799298,0.003366,-0.070901,0.000000,0.015135,-0.269342,0.000000
0.230000,-3.375128,0.319427,-1.480560,0.103897,-0.012983,-0.003309,0.730783,0.034685,-0.101563,2.712316,0.100581,-0.460738,-1.178597,-5.034705,1.649782,0.003490,-0.073597,0.000000,0.009889,-0.268762,0.000000
0.240000,-3.374053,0.319299,-1.480598,0.111341,-0.012631,-0.004348,0.757839,0.035443,-0.106116,2.692584,0.051896,-0.450536,-2.448805,-4.826392,1.386045,0.003564,-0.076277,0.000000,0.004984,-0.266506,-0.000000
0.250000,-3.372901,0.319174,-1.480647,0.119054,-0.012274,-0.005432,0.784635,0.035723,-0.110573,2.663340,0.004054,-0.433017,-3.204957,-4.784799,2.214684,0.003590,-0.078927,0.000000,0.000176,-0.263365,0.000000
0.260000,-3.371672,0.319053,-1.480706,0.127033,-0.011916,-0.006559,0.811106,0.035524,-0.114776,2.628485,-0.043800,-0.406242,-3.805862,-4.740629,2.701591,0.003567,-0.081544,0.000000,-0.004620,-0.259759,0.000000
0.270000,-3.370361,0.318936,-1.480778,0.135276,-0.011563,-0.007727,0.837204,0.034847,-0.118698,2.587223,-0.090759,-0.378985,-4.624232,-4.593539,2.680999,0.003497,-0.084123,0.000000,-0.009318,-0.255543,0.000000
0.280000,-3.368966,0.318822,-1.480861,0.143777,-0.011219,-0.008933,0.862850,0.033709,-0.122356,2.536000,-0.135671,-0.352622,-5.580702,-4.392905,2.646422,0.003381,-0.086655,0.000000,-0.013802,-0.250352,-0.000000
0.290000,-3.367485,0.318711,-1.480956,0.152533,-0.010889,-0.010174,0.887924,0.032134,-0.125751,2.475609,-0.178617,-0.326057,-6.228145,-4.255046,2.689944,0.003221,-0.089130,0.000000,-0.018082,-0.244277,0.000000
0.300000,-3.365915,0.318604,-1.481064,0.161536,-0.010577,-0.011448,0.912362,0.030136,-0.128877,2.411437,-0.220772,-0.298823,-6.470144,-4.196429,2.751366,0.003019,-0.091541,0.000000,-0.022276,-0.237861,-0.000000
0.310000,-3.364254,0.318500,-1.481185,0.170780,-0.010286,-0.012752,0.936153,0.027718,-0.131727,2.346206,-0.262546,-0.271030,-6.634547,-4.135166,2.786658,0.002776,-0.093887,0.000000,-0.026428,-0.231376,0.000000
0.320000,-3.362500,0.318398,-1.481319,0.180259,-0.010022,-0.014083,0.959287,0.024885,-0.134298,2.278746,-0.303475,-0.243090,-6.996150,-4.018168,2.790595,0.002491,-0.096168,0.000000,-0.030491,-0.224701,0.000000
0.330000,-3.360649,0.318299,-1.481467,0.189966,-0.009789,-0.015438,0.981728,0.021649,-0.136589,2.206283,-0.342909,-0.215218,-7.472543,-3.868450,2.777979,0.002166,-0.098381,0.000000,-0.034402,-0.217558,0.000000
0.340000,-3.358701,0.318203,-1.481628,0.199894,-0.009589,-0.016815,1.003412,0.018027,-0.138602,2.129296,-0.380844,-0.187531,-7.737709,-3.748183,2.754271,0.001803,-0.100520,0.000000,-0.038160,-0.209992,0.000000
0.350000,-3.356651,0.318108,-1.481803,0.210034,-0.009428,-0.018210,1.024314,0.014032,-0.140339,2.051529,-0.417873,-0.160132,-7.728208,-3.667707,2.719690,0.001403,-0.102581,0.000000,-0.041827,-0.202375,-0.000000
0.360000,-3.354500,0.318014,-1.481992,0.220380,-0.009309,-0.019621,1.044443,0.009670,-0.141805,1.974731,-0.454198,-0.133137,-7.680256,-3.582941,2.672461,0.000966,-0.104567,0.000000,-0.045423,-0.194879,0.000000
0.370000,-3.352244,0.317921,-1.482196,0.230923,-0.009235,-0.021046,1.063808,0.004948,-0.143002,1.897924,-0.489532,-0.106683,-7.780315,-3.462101,2.610733,0.000494,-0.106479,0.000000,-0.048921,-0.187402,-0.000000
0.380000,-3.349881,0.317829,-1.482413,0.241656,-0.009210,-0.022481,1.082401,-0.000121,-0.143938,1.819125,-0.523440,-0.080922,-7.967086,-3.317264,2.536685,-0.000012,-0.108315,0.000000,-0.052278,-0.179745,0.000000
0.390000,-3.347411,0.317737,-1.482645,0.252571,-0.009237,-0.023925,1.100191,-0.005521,-0.144621,1.738582,-0.555877,-0.055949,-8.019635,-3.186259,2.454704,-0.000551,-0.110074,0.000000,-0.055490,-0.171929,0.000000
0.400000,-3.344830,0.317645,-1.482892,0.263660,-0.009320,-0.025374,1.117173,-0.011238,-0.145057,1.658732,-0.587165,-0.031828,-7.896535,-3.076133,2.362550,-0.001122,-0.111754,0.000000,-0.058589,-0.164195,-0.000000
0.410000,-3.342138,0.317551,-1.483153,0.274914,-0.009462,-0.026826,1.133366,-0.017264,-0.145257,1.580651,-0.617400,-0.008698,-7.757038,-2.960084,2.259109,-0.001723,-0.113358,0.000000,-0.061587,-0.156646,-0.000000
0.420000,-3.339332,0.317455,-1.483428,0.286327,-0.009665,-0.028279,1.148786,-0.023586,-0.145231,1.503592,-0.646367,0.013354,-7.723433,-2.817618,2.154922,-0.002354,-0.114887,0.000000,-0.064462,-0.149203,0.000000
0.430000,-3.336411,0.317357,-1.483718,0.297890,-0.009934,-0.029731,1.163437,-0.030191,-0.144990,1.426182,-0.673752,0.034400,-7.753823,-2.656108,2.051881,-0.003012,-0.116342,0.000000,-0.067182,-0.141730,0.000000
0.440000,-3.333374,0.317257,-1.484023,0.309596,-0.010269,-0.031179,1.177310,-0.037061,-0.144543,1.348515,-0.699489,0.054392,-7.703252,-2.500347,1.937419,-0.003697,-0.117722,0.000000,-0.069743,-0.134235,0.000000
0.450000,-3.330219,0.317152,-1.484342,0.321436,-0.010675,-0.032621,1.190408,-0.044181,-0.143902,1.272117,-0.723759,0.073148,-7.543397,-2.355021,1.811613,-0.004407,-0.119027,0.000000,-0.072161,-0.126864,0.000000
0.460000,-3.326945,0.317043,-1.484675,0.333404,-0.011153,-0.034057,1.202752,-0.051537,-0.143080,1.197647,-0.746590,0.090624,-7.378328,-2.202739,1.684374,-0.005141,-0.120259,0.000000,-0.074440,-0.119680,-0.000000
0.470000,-3.323551,0.316929,-1.485023,0.345491,-0.011706,-0.035483,1.214361,-0.059113,-0.142090,1.124551,-0.767814,0.106836,-7.291613,-2.030594,1.555501,-0.005896,-0.121420,0.000000,-0.076563,-0.112627,-0.000000
0.480000,-3.320035,0.316809,-1.485385,0.357691,-0.012335,-0.036899,1.225243,-0.066893,-0.140944,1.051815,-0.787201,0.121734,-7.255694,-1.843502,1.423450,-0.006672,-0.122512,0.000000,-0.078507,-0.105603,-0.000000
0.490000,-3.316397,0.316682,-1.485761,0.369996,-0.013043,-0.038302,1.235397,-0.074857,-0.139655,0.979437,-0.804684,0.135305,-7.170220,-1.657269,1.291028,-0.007466,-0.123533,0.000000,-0.080265,-0.098605,0.000000
0.500000,-3.312635,0.316548,-1.486151,0.382399,-0.013832,-0.039692,1.244832,-0.082987,-0.138237,0.908411,-0.820347,0.147555,-7.016773,-1.475243,1.153336,-0.008277,-0.124484,0.000000,-0.081846,-0.091730,0.000000
0.510000,-3.308749,0.316406,-1.486555,0.394893,-0.014703,-0.041067,1.253565,-0.091264,-0.136704,0.839102,-0.834189,0.158372,-6.866738,-1.286500,1.010210,-0.009103,-0.125367,0.000000,-0.083248,-0.085013,-0.000000
0.520000,-3.304738,0.316254,-1.486972,0.407470,-0.015658,-0.042426,1.261614,-0.099670,-0.135070,0.771076,-0.846077,0.167759,-6.772078,-1.082080,0.880616,-0.009942,-0.126184,0.000000,-0.084459,-0.078408,-0.000000
0.530000,-3.300600,0.316093,-1.487403,0.420125,-0.016697,-0.043768,1.268987,-0.108185,-0.133349,0.703660,-0.855830,0.175984,-6.713101,-0.865143,0.767185,-0.010792,-0.126935,0.000000,-0.085460,-0.071851,-0.000000
0.540000,-3.296335,0.315920,-1.487848,0.432850,-0.017821,-0.045093,1.275687,-0.116787,-0.131550,0.636814,-0.863380,0.183103,-6.627665,-0.647050,0.645149,-0.011651,-0.127621,0.000000,-0.086245,-0.065339,0.000000
0.550000,-3.291943,0.315736,-1.488305,0.445639,-0.019032,-0.046399,1.281723,-0.125453,-0.129687,0.571107,-0.868771,0.188887,-6.504235,-0.430382,0.505861,-0.012517,-0.128242,0.000000,-0.086816,-0.058923,0.000000
0.560000,-3.287422,0.315540,-1.488776,0.458485,-0.020330,-0.047686,1.287109,-0.134162,-0.127773,0.506729,-0.871987,0.193220,-6.386671,-0.207482,0.367658,-0.013388,-0.128800,0.000000,-0.087171,-0.052621,-0.000000
0.570000,-3.282773,0.315329,-1.489259,0.471381,-0.021716,-0.048955,1.291858,-0.142893,-0.125822,0.443373,-0.872921,0.196240,-6.307913,0.027944,0.251960,-0.014261,-0.129295,0.000000,-0.087300,-0.046402,0.000000
0.580000,-3.277995,0.315105,-1.489755,0.484322,-0.023188,-0.050203,1.295977,-0.151621,-0.123848,0.380571,-0.871428,0.198259,-6.255964,0.273510,0.153682,-0.015134,-0.129728,0.000000,-0.087189,-0.040225,-0.000000
0.590000,-3.273087,0.314866,-1.490263,0.497301,-0.024748,-0.051431,1.299469,-0.160321,-0.121857,0.318254,-0.867451,0.199314,-6.190837,0.520956,0.045932,-0.016004,-0.130099,0.000000,-0.086830,-0.034082,0.000000
0.600000,-3.268049,0.314610,-1.490783,0.510311,-0.026395,-0.052640,1.302342,-0.168970,-0.119862,0.256754,-0.861009,0.199178,-6.102927,0.768407,-0.072555,-0.016870,-0.130410,0.000000,-0.086225,-0.028002,0.000000
0.610000,-3.262880,0.314338,-1.491316,0.523347,-0.028127,-0.053829,1.304604,-0.177542,-0.117874,0.196195,-0.852082,0.197863,-6.020202,1.021217,-0.183315,-0.017729,-0.130660,0.000000,-0.085371,-0.021998,-0.000000
0.620000,-3.257582,0.314048,-1.491860,0.536403,-0.029945,-0.054998,1.306266,-0.186011,-0.115904,0.136350,-0.840585,0.195511,-5.969065,1.283487,-0.285190,-0.018578,-0.130850,0.000000,-0.084260,-0.016048,0.000000
0.630000,-3.252152,0.313739,-1.492416,0.549473,-0.031848,-0.056147,1.307331,-0.194353,-0.113963,0.076814,-0.826413,0.192159,-5.941706,1.553430,-0.383784,-0.019414,-0.130981,0.000000,-0.082880,-0.010114,0.000000
0.640000,-3.246592,0.313411,-1.492983,0.562550,-0.033832,-0.057277,1.307802,-0.202540,-0.112061,0.017516,-0.809516,0.187836,-5.904722,1.825387,-0.478712,-0.020235,-0.131052,0.000000,-0.081227,-0.004187,-0.000000
0.650000,-3.240901,0.313062,-1.493561,0.575629,-0.035898,-0.058388,1.307681,-0.210544,-0.110207,-0.041280,-0.789905,0.182585,-5.851431,2.097551,-0.572967,-0.021039,-0.131064,0.000000,-0.079300,0.001705,0.000000
0.660000,-3.235080,0.312693,-1.494151,0.588704,-0.038043,-0.059481,1.306976,-0.218338,-0.108409,-0.099513,-0.767565,0.176376,-5.804532,2.373411,-0.666441,-0.021821,-0.131018,0.000000,-0.077098,0.007557,0.000000
0.670000,-3.229127,0.312301,-1.494751,0.601768,-0.040265,-0.060556,1.305691,-0.225895,-0.106679,-0.157371,-0.742437,0.169256,-5.779888,2.656857,-0.747258,-0.022581,-0.130913,0.000000,-0.074614,0.013387,-0.000000
0.680000,-3.223044,0.311887,-1.495362,0.614817,-0.042561,-0.061615,1.303829,-0.233187,-0.105024,-0.215110,-0.714428,0.161431,-5.770436,2.946646,-0.814819,-0.023314,-0.130750,0.000000,-0.071840,0.019217,-0.000000
0.690000,-3.216831,0.311450,-1.495983,0.627845,-0.044929,-0.062657,1.301389,-0.240183,-0.103451,-0.272780,-0.683504,0.152959,-5.755928,3.237085,-0.885262,-0.024017,-0.130529,0.000000,-0.068771,0.025052,0.000000
0.700000,-3.210487,0.310989,-1.496615,0.640845,-0.047365,-0.063684,1.298373,-0.246857,-0.101965,-0.330229,-0.649687,0.143726,-5.731969,3.526252,-0.960403,-0.024689,-0.130249,0.000000,-0.065409,0.030877,0.000000
0.710000,-3.204014,0.310503,-1.497257,0.653812,-0.049866,-0.064696,1.294784,-0.253177,-0.100576,-0.387419,-0.612979,0.133751,-5.711793,3.817565,-1.029234,-0.025325,-0.129911,0.000000,-0.061753,0.036690,0.000000
0.720000,-3.197411,0.309992,-1.497909,0.666741,-0.052428,-0.065695,1.290625,-0.259116,-0.099290,-0.444465,-0.573335,0.123141,-5.705814,4.114747,-1.090009,-0.025924,-0.129515,0.000000,-0.057801,0.042499,0.000000
0.730000,-3.190679,0.309454,-1.498571,0.679625,-0.055048,-0.066682,1.285895,-0.264644,-0.098113,-0.501535,-0.530684,0.111951,-5.709607,4.416497,-1.146713,-0.026481,-0.129061,0.000000,-0.053543,0.048321,-0.000000
0.740000,-3.183819,0.308891,-1.499243,0.692459,-0.057721,-0.067657,1.280594,-0.269730,-0.097051,-0.558657,-0.485005,0.100207,-5.709062,4.717188,-1.200754,-0.026995,-0.128548,0.000000,-0.048978,0.054157,0.000000
0.750000,-3.176830,0.308300,-1.499924,0.705237,-0.060443,-0.068623,1.274722,-0.274344,-0.096109,-0.615717,-0.436340,0.087936,-5.701094,5.014783,-1.250480,-0.027461,-0.127977,0.000000,-0.044110,0.059996,-0.000000
0.760000,-3.169714,0.307682,-1.500615,0.717953,-0.063208,-0.069579,1.268280,-0.278457,-0.095292,-0.672679,-0.384710,0.075197,-5.694500,5.312551,-1.295235,-0.027877,-0.127348,0.000000,-0.038941,0.065834,-0.000000
0.770000,-3.162471,0.307036,-1.501316,0.730602,-0.066012,-0.070529,1.261268,-0.282038,-0.094605,-0.729607,-0.330089,0.062031,-5.695161,5.614317,-1.338755,-0.028240,-0.126660,0.000000,-0.033468,0.071675,0.000000
0.780000,-3.155102,0.306361,-1.502026,0.743179,-0.068849,-0.071472,1.253688,-0.285058,-0.094052,-0.786582,-0.272423,0.048422,-5.699599,5.918749,-1.381832,-0.028546,-0.125914,0.000000,-0.027686,0.077527,0.000000
0.790000,-3.147607,0.305659,-1.502745,0.755676,-0.071713,-0.072410,1.245537,-0.287487,-0.093637,-0.843599,-0.211714,0.034395,-5.699289,6.219920,-1.419211,-0.028794,-0.125109,0.000000,-0.021595,0.083390,-0.000000
0.800000,-3.139988,0.304927,-1.503474,0.768089,-0.074599,-0.073344,1.236816,-0.289293,-0.093364,-0.900568,-0.148025,0.020038,-5.692755,6.515664,-1.447516,-0.028978,-0.124245,0.000000,-0.015201,0.089253,-0.000000
0.810000,-3.132246,0.304167,-1.504212,0.780412,-0.077499,-0.074277,1.227525,-0.290447,-0.093236,-0.957454,-0.081401,0.005444,-5.684738,6.809345,-1.470547,-0.029098,-0.123323,0.000000,-0.008509,0.095111,-0.000000
0.820000,-3.124380,0.303377,-1.504959,0.792640,-0.080408,-0.075209,1.217667,-0.290921,-0.093255,-1.014263,-0.011838,-0.009373,-5.676752,7.104836,-1.496800,-0.029148,-0.122342,0.000000,-0.001520,0.100964,0.000000
0.830000,-3.116393,0.302559,-1.505716,0.804766,-0.083318,-0.076142,1.207240,-0.290684,-0.093423,-1.070989,0.060696,-0.024492,-5.666309,7.400680,-1.525713,-0.029128,-0.121303,0.000000,0.005771,0.106812,0.000000
0.840000,-3.108285,0.301711,-1.506482,0.816785,-0.086221,-0.077078,1.196247,-0.289707,-0.093745,-1.127589,0.136176,-0.039887,-5.650413,7.690728,-1.545609,-0.029033,-0.120205,0.000000,0.013361,0.112650,0.000000
0.850000,-3.100057,0.300834,-1.507258,0.828691,-0.089112,-0.078017,1.184688,-0.287960,-0.094221,-1.183997,0.214511,-0.055404,-5.629103,7.972803,-1.551640,-0.028861,-0.119049,0.000000,0.021240,0.118469,-0.000000
0.860000,-3.091711,0.299929,-1.508042,0.840478,-0.091981,-0.078962,1.172567,-0.285417,-0.094853,-1.240171,0.295632,-0.070920,-5.603196,8.250302,-1.551831,-0.028608,-0.117835,0.000000,0.029400,0.124263,-0.000000
0.870000,-3.083248,0.298995,-1.508837,0.852142,-0.094820,-0.079914,1.159885,-0.282048,-0.095640,-1.296061,0.379517,-0.086440,-5.570251,8.526849,-1.557781,-0.028273,-0.116563,0.000000,0.037839,0.130027,-0.000000
0.880000,-3.074668,0.298032,-1.509641,0.863676,-0.097622,-0.080875,1.146646,-0.277826,-0.096582,-1.351576,0.466169,-0.102076,-5.528728,8.800855,-1.567660,-0.027851,-0.115233,0.000000,0.046557,0.135753,-0.000000
0.890000,-3.065974,0.297042,-1.510454,0.875075,-0.100377,-0.081846,1.132853,-0.272724,-0.097681,-1.406635,0.555534,-0.117794,-5.480816,9.066364,-1.565437,-0.027342,-0.113847,0.000000,0.055549,0.141431,-0.000000
0.900000,-3.057167,0.296025,-1.511278,0.886333,-0.103076,-0.082828,1.118513,-0.266716,-0.098938,-1.461192,0.647496,-0.133384,-5.428530,9.321305,-1.543731,-0.026740,-0.112403,0.000000,0.064802,0.147055,0.000000
0.910000,-3.048247,0.294981,-1.512111,0.897445,-0.105711,-0.083824,1.103630,-0.259774,-0.100349,-1.515206,0.741960,-0.148668,-5.369077,9.568820,-1.513314,-0.026046,-0.110904,0.000000,0.074305,0.152617,-0.000000
0.920000,-3.039218,0.293911,-1.512954,0.908406,-0.108271,-0.084835,1.088209,-0.251876,-0.101911,-1.568574,0.838872,-0.163651,-5.295250,9.812015,-1.491854,-0.025254,-0.109350,0.000000,0.084052,0.158107,0.000000
0.930000,-3.030079,0.292815,-1.513808,0.919209,-0.110748,-0.085863,1.072258,-0.242997,-0.103622,-1.621111,0.938200,-0.178505,-5.206603,10.049249,-1.475263,-0.024364,-0.107741,0.000000,0.094041,0.163509,0.000000
0.940000,-3.020834,0.291696,-1.514671,0.929851,-0.113131,-0.086908,1.055787,-0.233112,-0.105481,-1.672706,1.039857,-0.193156,-5.111568,10.275124,-1.439301,-0.023374,-0.106079,0.000000,0.104261,0.168810,0.000000
0.950000,-3.011482,0.290553,-1.515546,0.940325,-0.115411,-0.087972,1.038804,-0.222200,-0.107485,-1.723342,1.143703,-0.207291,-5.013605,10.487840,-1.384848,-0.022279,-0.104364,0.000000,0.114697,0.174005,-0.000000
0.960000,-3.002027,0.289387,-1.516431,0.950627,-0.117575,-0.089057,1.021320,-0.210238,-0.109627,-1.772978,1.249614,-0.220853,-4.905880,10.690030,-1.327053,-0.021080,-0.102598,0.000000,0.125336,0.179088,-0.000000
0.970000,-2.992470,0.288201,-1.517327,0.960751,-0.119615,-0.090165,1.003344,-0.197208,-0.111902,-1.821460,1.357503,-0.233832,-4.778011,10.883911,-1.257528,-0.019773,-0.100782,0.000000,0.136169,0.184045,0.000000
0.980000,-2.982812,0.286995,-1.518234,0.970694,-0.121520,-0.091295,0.984891,-0.183088,-0.114303,-1.868538,1.467292,-0.246003,-4.631381,11.067844,-1.171284,-0.018356,-0.098916,0.000000,0.147187,0.188847,-0.000000
0.990000,-2.973056,0.285771,-1.519153,0.980449,-0.123277,-0.092451,0.965974,-0.167862,-0.116822,-1.914088,1.578860,-0.257258,-4.478635,11.237507,-1.079600,-0.016829,-0.097004,0.000000,0.158377,0.193482,0.000000
1.000000,-2.963203,0.284529,-1.520083,0.990013,-0.124877,-0.093632,0.946609,-0.151511,-0.119449,-1.958111,1.692042,-0.267595,-4.320633,11.391620,-0.973615,-0.015189,-0.095046,0.000000,0.169721,0.197949,-0.000000
1.010000,-2.953256,0.283273,-1.521025,0.999381,-0.126307,-0.094840,0.926811,-0.134021,-0.122174,-2.000500,1.806692,-0.276730,-4.148237,11.531974,-0.845347,-0.013434,-0.093045,0.000000,0.181204,0.202237,-0.000000
1.020000,-2.943215,0.282003,-1.521980,1.008550,-0.127557,-0.096075,0.906599,-0.115377,-0.124983,-2.041076,1.922682,-0.284502,-3.959367,11.659282,-0.723034,-0.011565,-0.091001,0.000000,0.192813,0.206324,0.000000
1.030000,-2.933085,0.280722,-1.522947,1.017513,-0.128615,-0.097339,0.885990,-0.095567,-0.127864,-2.079688,2.039878,-0.291191,-3.756054,11.772126,-0.609341,-0.009578,-0.088918,0.000000,0.204535,0.210201,-0.000000
1.040000,-2.922865,0.279431,-1.523927,1.026269,-0.129469,-0.098633,0.865005,-0.074580,-0.130807,-2.116197,2.158124,-0.296689,-3.539735,11.868080,-0.463149,-0.007474,-0.086797,0.000000,0.216352,0.213852,-0.000000
1.050000,-2.912559,0.278133,-1.524920,1.034814,-0.130106,-0.099956,0.843666,-0.052405,-0.133798,-2.150482,2.277240,-0.300454,-3.314359,11.945748,-0.281912,-0.005251,-0.084641,0.000000,0.228247,0.217260,0.000000
1.060000,-2.902169,0.276829,-1.525926,1.043143,-0.130517,-0.101309,0.821995,-0.029035,-0.136816,-2.182484,2.397039,-0.302327,-3.078170,12.005614,-0.092011,-0.002909,-0.082452,0.000000,0.240200,0.220421,0.000000
1.070000,-2.891696,0.275522,-1.526946,1.051253,-0.130687,-0.102692,0.800016,-0.004464,-0.139844,-2.212046,2.517352,-0.302294,-2.817725,12.048932,0.112660,-0.000447,-0.080232,0.000000,0.252196,0.223319,0.000000
1.080000,-2.881144,0.274215,-1.527980,1.059143,-0.130606,-0.104106,0.777755,0.021312,-0.142862,-2.238838,2.638018,-0.300074,-2.532228,12.074733,0.344764,0.002135,-0.077985,0.000000,0.264218,0.225920,0.000000
1.090000,-2.870513,0.272910,-1.529028,1.066809,-0.130261,-0.105549,0.755240,0.048296,-0.145846,-2.262690,2.758847,-0.295399,-2.239647,12.079659,0.595031,0.004837,-0.075714,0.000000,0.276248,0.228207,0.000000
1.100000,-2.859808,0.271610,-1.530091,1.074248,-0.129640,-0.107022,0.732501,0.076489,-0.148770,-2.283631,2.879611,-0.288174,-1.945717,12.062105,0.847545,0.007660,-0.073421,0.000000,0.288265,0.230185,-0.000000
1.110000,-2.849029,0.270317,-1.531168,1.081459,-0.128731,-0.108525,0.709567,0.105889,-0.151609,-2.301605,3.000089,-0.278448,-1.637690,12.023155,1.111564,0.010602,-0.071110,0.000000,0.300249,0.231849,-0.000000
1.120000,-2.838178,0.269035,-1.532261,1.088439,-0.127522,-0.110055,0.686469,0.136491,-0.154339,-2.316385,3.120074,-0.265942,-1.302277,11.964175,1.430368,0.013665,-0.068784,0.000000,0.312180,0.233178,0.000000
1.130000,-2.827260,0.267767,-1.533369,1.095188,-0.126001,-0.111611,0.663239,0.168290,-0.156928,-2.327650,3.239372,-0.249841,-0.943469,11.883930,1.803661,0.016846,-0.066446,0.000000,0.324043,0.234135,-0.000000
1.140000,-2.816275,0.266515,-1.534493,1.101704,-0.124156,-0.113193,0.639916,0.201278,-0.159336,-2.335254,3.357753,-0.229869,-0.578323,11.778899,2.173990,0.020146,-0.064100,0.000000,0.335819,0.234709,-0.000000
1.150000,-2.805226,0.265284,-1.535633,1.107986,-0.121976,-0.114798,0.616534,0.235445,-0.161525,-2.339217,3.474950,-0.206361,-0.207053,11.647558,2.533281,0.023562,-0.061751,0.000000,0.347485,0.234906,0.000000
1.160000,-2.794115,0.264076,-1.536789,1.114035,-0.119448,-0.116424,0.593131,0.270777,-0.163463,-2.339396,3.590704,-0.179203,0.181645,11.491031,2.921311,0.027095,-0.059401,0.000000,0.359019,0.234714,-0.000000
1.170000,-2.782945,0.262895,-1.537962,1.119849,-0.116560,-0.118067,0.569746,0.307259,-0.165110,-2.335584,3.704771,-0.147935,0.585990,11.310383,3.351159,0.030743,-0.057055,0.000000,0.370402,0.234113,0.000000
1.180000,-2.771718,0.261745,-1.539151,1.125429,-0.113302,-0.119726,0.546420,0.344873,-0.166422,-2.327676,3.816912,-0.112180,1.002144,11.104353,3.812047,0.034503,-0.054716,0.000000,0.381619,0.233095,-0.000000
1.190000,-2.760436,0.260629,-1.540356,1.130777,-0.109663,-0.121396,0.523193,0.383597,-0.167353,-2.315541,3.926858,-0.071694,1.433436,10.869741,4.289309,0.038375,-0.052390,0.000000,0.392649,0.231648,-0.000000
1.200000,-2.749102,0.259551,-1.541579,1.135893,-0.105630,-0.123073,0.500109,0.423410,-0.167856,-2.299007,4.034307,-0.026394,1.878291,10.604748,4.765418,0.042356,-0.050080,0.000000,0.403471,0.229760,-0.000000
1.210000,-2.737719,0.258516,-1.542818,1.140779,-0.101195,-0.124753,0.477213,0.464284,-0.167881,-2.277975,4.138953,0.023615,2.334230,10.310257,5.251286,0.046445,-0.047791,0.000000,0.414061,0.227423,-0.000000
1.220000,-2.726287,0.257527,-1.544074,1.145438,-0.096345,-0.126431,0.454549,0.506189,-0.167383,-2.252322,4.240512,0.078632,2.807659,9.988100,5.799949,0.050638,-0.045526,0.000000,0.424401,0.224629,0.000000
1.230000,-2.714810,0.256589,-1.545346,1.149870,-0.091071,-0.128101,0.432166,0.549094,-0.166308,-2.221822,4.338715,0.139614,3.300292,9.636973,6.411905,0.054933,-0.043292,0.000000,0.434478,0.221353,-0.000000
1.240000,-2.703289,0.255706,-1.546636,1.154081,-0.085363,-0.129757,0.410113,0.592963,-0.164591,-2.186317,4.433251,0.206870,3.802801,9.252542,7.013612,0.059327,-0.041093,0.000000,0.444276,0.217584,-0.000000
1.250000,-2.691728,0.254882,-1.547942,1.158073,-0.079212,-0.131392,0.388440,0.637759,-0.162171,-2.145766,4.523766,0.279886,4.308445,8.833668,7.578460,0.063819,-0.038933,0.000000,0.453768,0.213323,0.000000
1.260000,-2.680128,0.254122,-1.549264,1.161850,-0.072608,-0.133000,0.367198,0.683439,-0.158993,-2.100148,4.609924,0.358439,4.823647,8.381882,8.156629,0.068403,-0.036817,0.000000,0.462931,0.208571,-0.000000
1.270000,-2.668491,0.253430,-1.550602,1.165417,-0.065543,-0.134572,0.346437,0.729957,-0.155002,-2.049293,4.691403,0.443018,5.365106,7.896628,8.807591,0.073078,-0.034751,0.000000,0.471749,0.203313,-0.000000
1.280000,-2.656820,0.252811,-1.551955,1.168778,-0.058009,-0.136100,0.326212,0.777267,-0.150133,-1.992846,4.767857,0.534591,5.932801,7.375881,9.517217,0.077838,-0.032740,0.000000,0.480209,0.197512,0.000000
1.290000,-2.645116,0.252270,-1.553324,1.171941,-0.049997,-0.137575,0.306580,0.825314,-0.144310,-1.930637,4.838921,0.633363,6.503117,6.818706,10.204745,0.082682,-0.030789,0.000000,0.488292,0.191153,-0.000000
1.300000,-2.633381,0.251811,-1.554706,1.174910,-0.041502,-0.138986,0.287599,0.874045,-0.137466,-1.862783,4.904231,0.738686,7.059658,6.226973,10.843504,0.087605,-0.028904,0.000000,0.495973,0.184251,0.000000
1.310000,-2.621617,0.251440,-1.556103,1.177693,-0.032517,-0.140324,0.269324,0.923399,-0.129537,-1.789444,4.963460,0.850233,7.618794,5.599659,11.486489,0.092602,-0.027090,0.000000,0.503233,0.176824,-0.000000
1.320000,-2.609827,0.251161,-1.557513,1.180297,-0.023034,-0.141577,0.251810,0.973314,-0.120461,-1.710407,5.016224,0.968415,8.222109,4.928344,12.194056,0.097670,-0.025352,0.000000,0.510053,0.168848,-0.000000
1.330000,-2.598011,0.250979,-1.558935,1.182729,-0.013050,-0.142733,0.235116,1.023724,-0.110168,-1.625002,5.062027,1.094114,8.868086,4.211026,12.952068,0.102804,-0.023696,0.000000,0.516409,0.160253,0.000000
1.340000,-2.586172,0.250900,-1.560368,1.184999,-0.002560,-0.143781,0.219310,1.074555,-0.098579,-1.533046,5.100445,1.227457,9.498399,3.457625,13.675950,0.107999,-0.022130,0.000000,0.522280,0.151018,0.000000
1.350000,-2.574311,0.250928,-1.561810,1.187115,0.008441,-0.144705,0.204455,1.125732,-0.085619,-1.435034,5.131180,1.367633,10.081582,2.675612,14.321888,0.113250,-0.020658,0.000000,0.527647,0.141191,-0.000000
1.360000,-2.562430,0.251068,-1.563262,1.189088,0.019955,-0.145493,0.190609,1.177178,-0.071226,-1.331414,5.153957,1.513895,10.657373,1.856429,14.944973,0.118552,-0.019288,0.000000,0.532491,0.130813,0.000000
1.370000,-2.550530,0.251327,-1.564720,1.190927,0.031984,-0.146130,0.177827,1.228812,-0.055341,-1.221886,5.168308,1.666532,11.302149,0.977817,15.650955,0.123900,-0.018023,0.000000,0.536784,0.119846,0.000000
1.380000,-2.538612,0.251708,-1.566184,1.192645,0.044531,-0.146600,0.166172,1.280545,-0.037895,-1.105371,5.173513,1.826914,12.003886,0.038156,16.426172,0.129289,-0.016872,0.000000,0.540490,0.108173,0.000000
1.390000,-2.526677,0.252217,-1.567652,1.194251,0.057595,-0.146887,0.155720,1.332282,-0.018803,-0.981808,5.169071,1.995056,12.657163,-0.933265,17.120483,0.134711,-0.015842,0.000000,0.543578,0.095775,0.000000
1.400000,-2.514727,0.252860,-1.569122,1.195759,0.071177,-0.146976,0.146535,1.383926,0.002006,-0.852228,5.154848,2.169323,13.244518,-1.912650,17.674010,0.140161,-0.014939,0.000000,0.546030,0.082748,-0.000000
1.410000,-2.502762,0.253641,-1.570592,1.197182,0.085274,-0.146847,0.138675,1.435379,0.024583,-0.716918,5.130818,2.348536,13.834072,-2.922217,18.184304,0.145632,-0.014171,0.000000,0.547842,0.069109,0.000000
1.420000,-2.490783,0.254566,-1.572059,1.198532,0.099884,-0.146484,0.132197,1.486542,0.048976,-0.575546,5.096404,2.533009,14.450208,-4.026902,18.782618,0.151119,-0.013543,0.000000,0.548971,0.054807,-0.000000
1.430000,-2.478791,0.255639,-1.573521,1.199826,0.115005,-0.145868,0.127164,1.537307,0.075244,-0.427914,5.050280,2.724188,15.057723,-5.224246,19.423478,0.156613,-0.013062,0.000000,0.549319,0.039802,0.000000
1.440000,-2.466786,0.256866,-1.574976,1.201076,0.130630,-0.144979,0.123639,1.587548,0.103460,-0.274392,4.991919,2.921479,15.625984,-6.426096,19.925310,0.162106,-0.012737,0.000000,0.548837,0.024111,0.000000
1.450000,-2.454769,0.258251,-1.576421,1.202298,0.146756,-0.143799,0.121676,1.637145,0.133673,-0.115394,4.921759,3.122695,16.219579,-7.604128,20.339364,0.167591,-0.012574,0.000000,0.547541,0.007756,0.000000
1.460000,-2.442740,0.259801,-1.577852,1.203509,0.163373,-0.142306,0.121331,1.685983,0.165914,0.050000,4.839836,3.328266,16.848798,-8.818789,20.771835,0.173058,-0.012580,0.000000,0.545444,-0.009382,0.000000
1.470000,-2.430699,0.261519,-1.579267,1.204725,0.180475,-0.140480,0.122676,1.733942,0.200239,0.221582,4.745383,3.538131,17.321400,-10.133830,21.026208,0.178500,-0.012765,0.000000,0.542474,-0.027313,-0.000000
1.480000,-2.418646,0.263410,-1.580662,1.205963,0.198052,-0.138301,0.125763,1.780891,0.236677,0.396428,4.637160,3.748790,17.634519,-11.534306,21.051864,0.183908,-0.013136,0.000000,0.538437,-0.045761,0.000000
1.490000,-2.406580,0.265480,-1.582033,1.207240,0.216093,-0.135747,0.130605,1.826685,0.275214,0.574272,4.514697,3.959169,18.047395,-12.934294,21.116236,0.189270,-0.013697,0.000000,0.533255,-0.064728,0.000000
1.500000,-2.394501,0.267732,-1.583377,1.208575,0.234586,-0.132797,0.137248,1.871185,0.315860,0.757376,4.378474,4.171115,18.509438,-14.289915,21.236164,0.194575,-0.014455,0.000000,0.526996,-0.084481,0.000000
1.510000,-2.382409,0.270172,-1.584689,1.209985,0.253517,-0.129430,0.145752,1.914255,0.358637,0.944461,4.228898,4.383892,18.849384,-15.659123,21.221904,0.199811,-0.015420,0.000000,0.519671,-0.104926,0.000000
1.520000,-2.370301,0.272802,-1.585965,1.211490,0.272871,-0.125624,0.156137,1.955763,0.403538,1.134363,4.065291,4.595553,19.270628,-17.152697,21.083972,0.204969,-0.016597,0.000000,0.511151,-0.125975,-0.000000
1.530000,-2.358179,0.275629,-1.587202,1.213108,0.292632,-0.121359,0.168440,1.995560,0.450548,1.329873,3.885844,4.805571,19.843453,-18.758556,20.886373,0.210035,-0.017995,0.000000,0.501209,-0.147956,-0.000000
1.540000,-2.346039,0.278655,-1.588393,1.214859,0.312782,-0.116613,0.182735,2.033480,0.499649,1.531232,3.690120,5.013281,20.268296,-20.322196,20.587509,0.214994,-0.019625,0.000000,0.489750,-0.170939,0.000000
1.550000,-2.333882,0.281885,-1.589534,1.216763,0.333302,-0.111366,0.199064,2.069363,0.550813,1.735239,3.479400,5.217322,20.477695,-21.777796,20.154753,0.219830,-0.021496,0.000000,0.476831,-0.194630,-0.000000
1.560000,-2.321704,0.285321,-1.590620,1.218840,0.354169,-0.105597,0.217439,2.103068,0.603996,1.940786,3.254564,5.416376,20.675620,-23.228201,19.613391,0.224531,-0.023615,0.000000,0.462464,-0.218951,0.000000
1.570000,-2.309505,0.288968,-1.591646,1.221111,0.375363,-0.099286,0.237880,2.134454,0.659141,2.148752,3.014836,5.609589,20.956970,-24.825833,19.007011,0.229080,-0.025990,0.000000,0.446492,-0.244034,-0.000000
1.580000,-2.297282,0.292828,-1.592606,1.223598,0.396859,-0.092414,0.260415,2.163364,0.716188,2.359926,2.758048,5.796516,21.240349,-26.540217,18.307848,0.233461,-0.028629,0.000000,0.428612,-0.270006,-0.000000
1.590000,-2.285033,0.296905,-1.593494,1.226320,0.418630,-0.084962,0.285078,2.189615,0.775071,2.573559,2.484032,5.975746,21.408250,-28.159355,17.452541,0.237652,-0.031542,0.000000,0.408697,-0.296827,0.000000
1.600000,-2.272755,0.301201,-1.594305,1.229299,0.440651,-0.076913,0.311886,2.213045,0.835702,2.788091,2.194861,6.145567,21.520719,-29.623770,16.541712,0.241634,-0.034739,0.000000,0.386835,-0.324365,-0.000000
1.610000,-2.260447,0.305718,-1.595032,1.232557,0.462891,-0.068248,0.340840,2.233512,0.897982,3.003973,1.891557,6.306581,21.642822,-31.069916,15.602074,0.245388,-0.038226,0.000000,0.363060,-0.352710,0.000000
1.620000,-2.248104,0.310459,-1.595670,1.236116,0.485321,-0.058953,0.371965,2.250876,0.961834,3.220947,1.573462,6.457608,21.589332,-32.617012,14.317007,0.248894,-0.042014,0.000000,0.337176,-0.381868,-0.000000
1.630000,-2.235725,0.315425,-1.596211,1.239997,0.507909,-0.049011,0.405259,2.264982,1.027135,3.435760,1.239216,6.592921,21.330318,-34.217219,12.651969,0.252130,-0.046109,0.000000,0.308780,-0.411486,-0.000000
1.640000,-2.223304,0.320617,-1.596650,1.244221,0.530621,-0.038410,0.440680,2.275660,1.093692,3.647553,0.889118,6.710648,21.117776,-35.702447,11.041675,0.255068,-0.050515,0.000000,0.277728,-0.441472,-0.000000
1.650000,-2.210840,0.326037,-1.596980,1.248810,0.553422,-0.027138,0.478210,2.282764,1.161348,3.858115,0.525168,6.813754,20.944766,-37.026947,9.596642,0.257683,-0.055237,0.000000,0.244185,-0.472046,0.000000
1.660000,-2.198328,0.331685,-1.597193,1.253785,0.576276,-0.015183,0.517843,2.286164,1.229968,4.066449,0.148579,6.902580,20.637716,-38.292564,8.014617,0.259950,-0.060281,0.000000,0.208172,-0.503111,-0.000000
1.670000,-2.185764,0.337563,-1.597283,1.259167,0.599145,-0.002538,0.559539,2.285736,1.299399,4.270870,-0.240684,6.974046,20.273176,-39.585694,6.074602,0.261844,-0.065652,0.000000,0.169470,-0.534454,0.000000
1.680000,-2.173145,0.343668,-1.597244,1.264976,0.621991,0.010805,0.603260,2.281350,1.369449,4.471912,-0.643135,7.024073,19.907401,-40.862155,3.863158,0.263336,-0.071350,0.000000,0.127768,-0.566084,0.000000
1.690000,-2.160465,0.350002,-1.597067,1.271232,0.644772,0.024851,0.648977,2.272873,1.439881,4.669018,-1.057927,7.051310,19.414903,-41.992885,1.663512,0.264395,-0.077380,0.000000,0.082977,-0.597890,0.000000
1.700000,-2.147720,0.356564,-1.596747,1.277956,0.667448,0.039602,0.696640,2.260192,1.510475,4.860210,-1.482993,7.057343,18.806533,-42.968108,-0.415611,0.264992,-0.083741,0.000000,0.035244,-0.629608,-0.000000
1.710000,-2.134906,0.363351,-1.596275,1.285165,0.689976,0.055060,0.746182,2.243213,1.581028,5.045148,-1.917289,7.042997,18.162632,-43.858168,-2.564586,0.265096,-0.090430,0.000000,-0.015411,-0.661140,0.000000
1.720000,-2.122017,0.370363,-1.595645,1.292879,0.712312,0.071223,0.797543,2.221846,1.651335,5.223463,-2.360156,7.006051,17.389930,-44.643703,-5.065152,0.264679,-0.097445,0.000000,-0.069093,-0.692345,-0.000000
1.730000,-2.109048,0.377598,-1.594851,1.301116,0.734413,0.088087,0.850651,2.196010,1.721149,5.392947,-2.810163,6.941694,16.447002,-45.279928,-7.868818,0.263709,-0.104778,0.000000,-0.125882,-0.722801,-0.000000
1.740000,-2.095994,0.385052,-1.593884,1.309892,0.756233,0.105646,0.905402,2.165642,1.790169,5.552403,-3.265755,6.848675,15.466144,-45.780174,-10.588694,0.262156,-0.112419,0.000000,-0.185714,-0.752207,0.000000
1.750000,-2.082850,0.392722,-1.592738,1.319224,0.777726,0.123890,0.961699,2.130695,1.858122,5.702270,-3.725767,6.729921,14.509602,-46.193056,-13.085982,0.259989,-0.120355,0.000000,-0.248421,-0.780497,-0.000000
1.760000,-2.069610,0.400606,-1.591406,1.329126,0.798846,0.142808,1.019448,2.091127,1.924767,5.842595,-4.189616,6.586955,13.479776,-46.488680,-15.616367,0.257182,-0.128572,0.000000,-0.313914,-0.807534,-0.000000
1.770000,-2.056268,0.408699,-1.589882,1.339613,0.819548,0.162386,1.078551,2.046902,1.989861,5.971865,-4.655540,6.417593,12.231071,-46.505537,-18.493739,0.253706,-0.137055,0.000000,-0.382042,-0.832924,-0.000000
1.780000,-2.042818,0.416997,-1.588158,1.350697,0.839785,0.182606,1.138885,1.998016,2.053119,6.087217,-5.119726,6.217080,10.778744,-46.218813,-21.635396,0.249536,-0.145781,0.000000,-0.452434,-0.856024,-0.000000
1.790000,-2.029254,0.425495,-1.586229,1.362391,0.859509,0.203448,1.200295,1.944508,2.114203,6.187440,-5.579916,5.984885,9.316082,-45.833566,-24.606765,0.244652,-0.154721,0.000000,-0.524718,-0.876422,-0.000000
1.800000,-2.015570,0.434187,-1.584089,1.374703,0.878675,0.224890,1.262634,1.886418,2.172817,6.273538,-6.036398,5.724945,7.948854,-45.493505,-27.308914,0.239037,-0.163845,0.000000,-0.598655,-0.894060,-0.000000
1.810000,-2.001760,0.443068,-1.581732,1.387643,0.897237,0.246904,1.325766,1.823780,2.228702,6.346417,-6.489787,5.438707,6.540536,-45.036962,-30.017110,0.232675,-0.173123,0.000000,-0.674085,-0.908835,0.000000
1.820000,-1.987817,0.452132,-1.579151,1.401219,0.915150,0.269464,1.389562,1.756622,2.281591,6.404349,-6.937137,5.124603,4.816353,-44.064438,-32.910319,0.225552,-0.182522,0.000000,-0.750440,-0.920251,0.000000
1.830000,-1.973735,0.461371,-1.576342,1.415435,0.932369,0.292536,1.453853,1.685037,2.331194,6.442744,-7.371075,4.780501,2.801521,-42.593967,-35.874655,0.217664,-0.192002,0.000000,-0.826520,-0.927420,-0.000000
1.840000,-1.959508,0.470779,-1.573300,1.430296,0.948851,0.316088,1.518417,1.609201,2.377201,6.460379,-7.789016,4.407110,0.871529,-41.154837,-38.656757,0.209021,-0.201513,0.000000,-0.901576,-0.929935,-0.000000
1.850000,-1.945130,0.480348,-1.570021,1.445803,0.964553,0.340080,1.583061,1.529257,2.419336,6.460175,-8.194172,4.007365,-0.829952,-39.913094,-41.271251,0.199633,-0.211009,0.000000,-0.975520,-0.927998,-0.000000
1.860000,-1.930592,0.490070,-1.566499,1.461957,0.979436,0.364474,1.647621,1.445317,2.457348,6.443780,-8.587278,3.581685,-2.557448,-38.498256,-43.856493,0.189512,-0.220444,0.000000,-1.047992,-0.921623,0.000000
1.870000,-1.915890,0.499937,-1.562731,1.478755,0.993460,0.389227,1.711936,1.357511,2.490970,6.409026,-8.964137,3.130236,-4.644255,-36.519619,-46.294905,0.178676,-0.229771,0.000000,-1.117956,-0.910363,0.000000
1.880000,-1.901017,0.509940,-1.558714,1.496196,1.006586,0.414294,1.775801,1.266035,2.519953,6.350895,-9.317671,2.655787,-6.996569,-34.074957,-48.501707,0.167158,-0.238939,0.000000,-1.183892,-0.893516,-0.000000
1.890000,-1.885966,0.520069,-1.554445,1.514271,1.018781,0.439626,1.838954,1.171158,2.544085,6.269095,-9.645636,2.160201,-9.164508,-31.676813,-50.617664,0.155005,-0.247888,0.000000,-1.244951,-0.871015,-0.000000
1.900000,-1.870732,0.530315,-1.549922,1.532975,1.030010,0.465175,1.901183,1.073122,2.563157,6.167605,-9.951207,1.643433,-11.170033,-29.497613,-52.730107,0.142267,-0.256565,0.000000,-1.301068,-0.843328,-0.000000
1.910000,-1.855307,0.540669,-1.545142,1.552295,1.040243,0.490889,1.962306,0.972134,2.576954,6.045694,-10.235589,1.105599,-13.294821,-27.190611,-54.709233,0.128993,-0.264921,0.000000,-1.351929,-0.810378,0.000000
1.920000,-1.839686,0.551120,-1.540104,1.572221,1.049452,0.516714,2.022097,0.868410,2.585269,5.901709,-10.495019,0.549249,-15.377439,-24.336415,-56.298474,0.115239,-0.272902,0.000000,-1.396563,-0.772111,-0.000000
1.930000,-1.823863,0.561658,-1.534807,1.592737,1.057611,0.542595,2.080340,0.762233,2.587939,5.738145,-10.722317,-0.020370,-17.300999,-21.035922,-57.497124,0.101073,-0.280461,0.000000,-1.433604,-0.729165,-0.000000
1.940000,-1.807831,0.572272,-1.529252,1.613828,1.064697,0.568473,2.136860,0.653964,2.584861,5.555689,-10.915737,-0.600694,-19.291637,-17.857231,-58.619938,0.086579,-0.287556,0.000000,-1.462535,-0.681915,0.000000
1.950000,-1.791586,0.582952,-1.523438,1.635474,1.070690,0.594292,2.191454,0.543919,2.575925,5.352312,-11.079461,-1.192769,-21.374170,-14.954201,-59.815000,0.071835,-0.294147,0.000000,-1.483742,-0.630305,-0.000000
1.960000,-1.775122,0.593686,-1.517366,1.657657,1.075575,0.619992,2.243906,0.432375,2.561006,5.128205,-11.214822,-1.796994,-23.376689,-11.955784,-60.839377,0.056917,-0.300193,0.000000,-1.497315,-0.574620,0.000000
1.970000,-1.758433,0.604463,-1.511038,1.680352,1.079338,0.645512,2.294018,0.319622,2.539985,4.884779,-11.318577,-2.409556,-25.286493,-8.536365,-61.275308,0.041902,-0.305657,0.000000,-1.502803,-0.515499,0.000000
1.980000,-1.741515,0.615273,-1.504456,1.703537,1.081968,0.670791,2.341602,0.206003,2.512815,4.622475,-11.385549,-3.022500,-27.156256,-4.832880,-61.164154,0.026874,-0.310511,0.000000,-1.499615,-0.453653,-0.000000
1.990000,-1.724362,0.626103,-1.497622,1.727184,1.083458,0.695768,2.386468,0.091911,2.479535,4.341653,-11.415235,-3.632840,-28.967316,-1.292264,-61.042671,0.011922,-0.314734,0.000000,-1.487948,-0.389613,0.000000
2.000000,-1.706971,0.636942,-1.490541,1.751266,1.083806,0.720382,2.428435,-0.022302,2.440158,4.043129,-11.411394,-4.243353,-30.675415,2.054220,-61.060711,-0.002874,-0.318305,0.000000,-1.468637,-0.323731,0.000000
2.010000,-1.689337,0.647779,-1.483215,1.775753,1.083012,0.744572,2.467330,-0.136317,2.394668,3.728145,-11.374150,-4.854054,-32.283540,5.476520,-60.837481,-0.017441,-0.321211,0.000000,-1.442072,-0.256513,0.000000
2.020000,-1.671456,0.658602,-1.475649,1.800613,1.081080,0.768275,2.502998,-0.249785,2.343077,3.397458,-11.301864,-5.460103,-33.859983,8.957174,-60.001784,-0.031707,-0.323440,0.000000,-1.408491,-0.188585,-0.000000
2.030000,-1.653325,0.669401,-1.467849,1.825813,1.078016,0.791433,2.535279,-0.362354,2.285466,3.050946,-11.195007,-6.054089,-35.362549,12.371123,-58.600285,-0.045604,-0.324989,0.000000,-1.368498,-0.120550,0.000000
2.040000,-1.634940,0.680163,-1.459821,1.851319,1.073833,0.813985,2.564016,-0.473685,2.221995,2.690207,-11.054441,-6.632109,-36.686195,15.728353,-57.121290,-0.059072,-0.325858,0.000000,-1.322789,-0.053038,-0.000000
2.050000,-1.616298,0.690877,-1.451569,1.877093,1.068543,0.835873,2.589084,-0.583443,2.152824,2.317222,-10.880440,-7.196515,-38.050263,19.077741,-56.097323,-0.072056,-0.326057,0.000000,-1.271948,0.013571,0.000000
2.060000,-1.597398,0.701533,-1.443103,1.903100,1.062164,0.857041,2.610361,-0.691294,2.078065,1.929202,-10.672886,-7.754055,-39.492546,22.374784,-55.163032,-0.084508,-0.325593,0.000000,-1.216447,0.079665,-0.000000
2.070000,-1.578236,0.712120,-1.434429,1.929301,1.054717,0.877434,2.627668,-0.796900,1.997743,1.527371,-10.432944,-8.299776,-40.327945,25.454268,-52.845083,-0.096384,-0.324465,0.000000,-1.156972,0.144710,-0.000000
2.080000,-1.558812,0.722628,-1.425554,1.955654,1.046226,0.896996,2.640908,-0.899953,1.912069,1.122643,-10.163801,-8.810957,-40.534161,28.288017,-49.293653,-0.107649,-0.322692,0.000000,-1.094633,0.206469,-0.000000
2.090000,-1.539123,0.733045,-1.416489,1.982119,1.036718,0.915676,2.650121,-1.000176,1.821524,0.716687,-9.867184,-9.285649,-41.039810,31.064399,-46.509798,-0.118279,-0.320319,0.000000,-1.030181,0.264698,-0.000000
2.100000,-1.519169,0.743362,-1.407241,2.008656,1.026222,0.933427,2.655242,-1.097296,1.726356,0.301847,-9.542513,-9.741153,-41.755065,33.897272,-44.194737,-0.128256,-0.317368,0.000000,-0.963789,0.320913,-0.000000
2.110000,-1.498950,0.753569,-1.397820,2.035224,1.014772,0.950203,2.656157,-1.191027,1.626701,-0.118414,-9.189238,-10.169544,-42.060483,36.623411,-41.064040,-0.137560,-0.313854,0.000000,-0.895854,0.374440,-0.000000
2.120000,-1.478465,0.763658,-1.388237,2.061779,1.002402,0.965961,2.652874,-1.281081,1.522965,-0.539363,-8.810045,-10.562434,-42.422541,38.892858,-38.441094,-0.146178,-0.309815,0.000000,-0.827140,0.424552,-0.000000
2.130000,-1.457714,0.773617,-1.378501,2.088281,0.989150,0.980662,2.645370,-1.367228,1.415452,-0.966865,-8.411381,-10.938366,-43.060081,40.711972,-36.831039,-0.154109,-0.305279,0.000000,-0.758376,0.472634,0.000000
2.140000,-1.436699,0.783441,-1.368624,2.114686,0.975057,0.994270,2.633536,-1.449309,1.304198,-1.400564,-7.995805,-11.299054,-43.272896,42.521687,-34.333968,-0.161352,-0.300256,0.000000,-0.689972,0.518743,-0.000000
2.150000,-1.415421,0.793119,-1.358616,2.140952,0.960164,1.006746,2.617359,-1.527144,1.189471,-1.832323,-7.560947,-11.625045,-43.062339,44.488545,-30.837751,-0.167915,-0.294774,0.000000,-0.622100,0.561485,0.000000
2.160000,-1.393880,0.802644,-1.348489,2.167034,0.944514,1.018059,2.596890,-1.600528,1.071697,-2.261811,-7.106035,-11.915809,-42.896822,46.284946,-27.654782,-0.173802,-0.288872,0.000000,-0.554830,0.601004,0.000000
2.170000,-1.372080,0.812009,-1.338254,2.192890,0.928153,1.028180,2.572123,-1.669264,0.951155,-2.690259,-6.635249,-12.178141,-42.512175,47.465762,-24.532322,-0.179019,-0.282576,0.000000,-0.488590,0.637815,0.000000
2.180000,-1.350022,0.821207,-1.327925,2.218476,0.911129,1.037082,2.543085,-1.733233,0.828134,-3.112055,-6.156719,-12.406456,-41.685032,48.098196,-20.938868,-0.183581,-0.275914,0.000000,-0.424339,0.671357,-0.000000
2.190000,-1.327710,0.830231,-1.317513,2.243751,0.893489,1.044743,2.509882,-1.792399,0.703025,-3.523960,-5.673285,-12.596918,-40.824592,48.752832,-17.377207,-0.187513,-0.268924,0.000000,-0.362402,0.701424,0.000000
2.200000,-1.305147,0.839077,-1.307030,2.268674,0.875281,1.051143,2.472606,-1.846698,0.576196,-3.928546,-5.181663,-12.754000,-40.306555,49.611366,-14.474794,-0.190836,-0.261639,0.000000,-0.302335,0.728630,0.000000
2.210000,-1.282337,0.847737,-1.296490,2.293203,0.856555,1.056267,2.431311,-1.896032,0.447945,-4.330091,-4.681057,-12.886414,-39.818175,50.271093,-11.846981,-0.193566,-0.254086,0.000000,-0.243871,0.753823,0.000000
2.220000,-1.259283,0.856208,-1.285905,2.317300,0.837360,1.060102,2.386004,-1.940319,0.318468,-4.724910,-4.176241,-12.990940,-38.425506,50.272993,-8.013931,-0.195720,-0.246279,0.000000,-0.187462,0.776711,-0.000000
2.230000,-1.235991,0.864484,-1.275288,2.340923,0.817748,1.062636,2.336812,-1.979557,0.188127,-5.098601,-3.675597,-13.046692,-36.217486,49.723581,-3.166387,-0.197322,-0.238252,0.000000,-0.134161,0.795607,0.000000
2.240000,-1.212465,0.872563,-1.264652,2.364036,0.797769,1.063864,2.284032,-2.013831,0.057534,-5.449260,-3.181769,-13.054267,-34.457203,49.220744,0.677868,-0.198409,-0.230054,0.000000,-0.084072,0.810671,0.000000
2.250000,-1.188710,0.880440,-1.254011,2.386604,0.777472,1.063787,2.227827,-2.043192,-0.072959,-5.787745,-2.691183,-13.033135,-33.182387,48.919109,3.981433,-0.199009,-0.221715,0.000000,-0.036395,0.823624,0.000000
2.260000,-1.164733,0.888112,-1.243376,2.408593,0.756905,1.062405,2.168277,-2.067655,-0.203129,-6.112907,-2.203387,-12.974639,-31.561241,48.413147,8.014764,-0.199142,-0.213251,0.000000,0.008882,0.834344,-0.000000
2.270000,-1.140538,0.895578,-1.232763,2.429970,0.736119,1.059724,2.105569,-2.087260,-0.332451,-6.418970,-1.722920,-12.872840,-29.758625,47.343016,10.957819,-0.198836,-0.204692,0.000000,0.051384,0.842401,0.000000
2.280000,-1.116133,0.902835,-1.222182,2.450704,0.715160,1.055756,2.039898,-2.102113,-0.460586,-6.708080,-1.256527,-12.755482,-28.108764,45.828111,12.292021,-0.198118,-0.196064,0.000000,0.091135,0.848722,-0.000000
2.290000,-1.091524,0.909881,-1.211647,2.470768,0.694076,1.050512,1.971408,-2.112391,-0.587561,-6.981145,-0.806357,-12.626999,-26.328859,44.345194,14.588806,-0.197017,-0.187379,0.000000,0.128163,0.853551,-0.000000
2.300000,-1.066718,0.916716,-1.201172,2.490132,0.672912,1.044005,1.900275,-2.118240,-0.713126,-7.234657,-0.369623,-12.463706,-24.203282,43.048215,17.975951,-0.195558,-0.178655,0.000000,0.162454,0.856279,-0.000000
2.310000,-1.041722,0.923339,-1.190767,2.508773,0.651712,1.036250,1.826714,-2.119783,-0.836835,-7.465211,0.054607,-12.267480,-21.965734,41.624049,20.686763,-0.193770,-0.169919,0.000000,0.194279,0.856813,0.000000
2.320000,-1.016543,0.929750,-1.180447,2.526667,0.630517,1.027268,1.750970,-2.117148,-0.958475,-7.673972,0.462858,-12.049971,-20.096028,39.712070,23.067740,-0.191675,-0.161191,0.000000,0.223654,0.855581,0.000000
2.330000,-0.991188,0.935950,-1.170222,2.543792,0.609369,1.017080,1.673235,-2.110526,-1.077835,-7.867131,0.848848,-11.806126,-18.513198,37.455746,25.723322,-0.189299,-0.152486,0.000000,0.250054,0.853168,0.000000
2.340000,-0.965667,0.941938,-1.160105,2.560131,0.588306,1.005711,1.593628,-2.100171,-1.194598,-8.044236,1.211973,-11.535505,-16.603563,35.342140,28.003152,-0.186676,-0.143815,0.000000,0.273574,0.849635,0.000000
2.350000,-0.939986,0.947716,-1.150108,2.575665,0.567365,0.993188,1.512350,-2.086286,-1.308545,-8.199202,1.555691,-11.246062,-14.524998,33.177811,29.902496,-0.183829,-0.135191,0.000000,0.294785,0.844645,-0.000000
2.360000,-0.914153,0.953285,-1.140241,2.590378,0.546580,0.979540,1.429644,-2.069058,-1.419519,-8.334736,1.875529,-10.937455,-12.684330,30.678677,31.861245,-0.180781,-0.126630,0.000000,0.313398,0.838510,0.000000
2.370000,-0.888178,0.958647,-1.130517,2.604258,0.525984,0.964798,1.345656,-2.048776,-1.527294,-8.452889,2.169265,-10.608838,-10.539762,28.516858,33.471627,-0.177562,-0.118140,0.000000,0.329328,0.831467,-0.000000
2.380000,-0.862068,0.963805,-1.120945,2.617291,0.505605,0.948995,1.260586,-2.025672,-1.631696,-8.545531,2.445866,-10.268022,-7.927551,26.808877,34.506305,-0.174195,-0.109732,0.000000,0.343568,0.822961,-0.000000
2.390000,-0.835832,0.968759,-1.111537,2.629470,0.485471,0.932164,1.174745,-1.999858,-1.732654,-8.611440,2.705442,-9.918712,-5.649323,24.636142,35.566404,-0.170690,-0.101425,0.000000,0.356243,0.812976,-0.000000
2.400000,-0.809479,0.973514,-1.102302,2.640786,0.465608,0.914341,1.088357,-1.971563,-1.830070,-8.658517,2.938589,-9.556694,-3.878470,22.081761,37.077505,-0.167070,-0.093230,0.000000,0.366563,0.802181,0.000000
2.410000,-0.783017,0.978072,-1.093250,2.651237,0.446039,0.895563,1.001575,-1.941087,-1.923788,-8.689010,3.147077,-9.177161,-2.076938,19.773129,38.592309,-0.163359,-0.085152,0.000000,0.374693,0.790763,-0.000000
2.420000,-0.756454,0.982435,-1.084391,2.660818,0.426786,0.875866,0.914577,-1.908622,-2.013613,-8.700056,3.334052,-8.784848,-0.018992,17.254238,39.070129,-0.159575,-0.077198,0.000000,0.381036,0.778555,0.000000
2.430000,-0.729800,0.986607,-1.075733,2.669528,0.407867,0.855290,0.827573,-1.874406,-2.099485,-8.689389,3.492162,-8.395759,2.047281,14.296609,38.671290,-0.155738,-0.069377,0.000000,0.385254,0.765487,-0.000000
2.440000,-0.703064,0.990592,-1.067285,2.677369,0.389298,0.833876,0.740789,-1.838779,-2.181528,-8.659111,3.619984,-8.011422,3.844556,11.606700,38.785667,-0.151870,-0.061698,0.000000,0.387292,0.751719,-0.000000
2.450000,-0.676253,0.994393,-1.059055,2.684344,0.371091,0.811660,0.654391,-1.802006,-2.259714,-8.612498,3.724296,-7.620045,5.734137,9.307821,39.247342,-0.147991,-0.054165,0.000000,0.387592,0.737451,0.000000
2.460000,-0.649377,0.998014,-1.051052,2.690457,0.353258,0.788682,0.568539,-1.764293,-2.333929,-8.544428,3.806141,-7.226475,7.843934,6.929850,39.157180,-0.144117,-0.046783,0.000000,0.386339,0.722290,-0.000000
2.470000,-0.622444,1.001458,-1.043282,2.695715,0.335805,0.764981,0.483503,-1.725883,-2.404243,-8.455620,3.862893,-6.836902,9.092067,4.404857,39.278084,-0.140263,-0.039564,0.000000,0.383415,0.706310,-0.000000
2.480000,-0.595462,1.004730,-1.035752,2.700127,0.318740,0.740597,0.399427,-1.687035,-2.470667,-8.362586,3.894238,-6.440913,9.329261,1.958234,39.988793,-0.136447,-0.032513,0.000000,0.378694,0.690795,0.000000
2.490000,-0.568441,1.007833,-1.028470,2.703703,0.302065,0.715568,0.316251,-1.647998,-2.533061,-8.269034,3.902058,-6.037126,10.050266,-0.342268,40.170093,-0.132688,-0.025616,0.000000,0.372347,0.676023,0.000000
2.500000,-0.541388,1.010771,-1.021441,2.706452,0.285780,0.689936,0.234046,-1.608994,-2.591410,-8.161581,3.887392,-5.637512,11.778476,-2.836788,39.507591,-0.128999,-0.018870,0.000000,0.364610,0.660922,0.000000
2.510000,-0.514312,1.013549,-1.014671,2.708384,0.269885,0.663740,0.153019,-1.570251,-2.645812,-8.033465,3.845322,-5.246974,13.464213,-5.516397,38.793979,-0.125395,-0.012284,0.000000,0.355145,0.644930,-0.000000
2.520000,-0.487221,1.016169,-1.008166,2.709513,0.254375,0.637019,0.073377,-1.532087,-2.696349,-7.892297,3.777064,-4.861632,13.946760,-7.405783,38.568000,-0.121895,-0.005867,0.000000,0.344010,0.628623,-0.000000
2.530000,-0.460122,1.018636,-1.001931,2.709852,0.239243,0.609813,-0.004827,-1.494709,-2.743044,-7.754530,3.697206,-4.475614,13.618068,-8.492558,38.422117,-0.118513,0.000384,0.000000,0.332297,0.613272,0.000000
2.540000,-0.433024,1.020954,-0.995970,2.709416,0.224481,0.582158,-0.081714,-1.458143,-2.785862,-7.619936,3.607213,-4.093190,13.982618,-10.091655,37.725786,-0.115248,0.006487,0.000000,0.320155,0.598823,0.000000
2.550000,-0.405934,1.023126,-0.990288,2.708218,0.210080,0.554096,-0.157225,-1.422565,-2.824908,-7.474877,3.495373,-3.721098,14.715116,-12.086276,37.549615,-0.112109,0.012443,0.000000,0.306715,0.584159,-0.000000
2.560000,-0.378859,1.025156,-0.984888,2.706272,0.196030,0.525660,-0.231211,-1.388236,-2.860283,-7.325633,3.365488,-3.342197,14.866683,-13.597817,38.220975,-0.109113,0.018246,0.000000,0.292113,0.569761,-0.000000
2.570000,-0.351808,1.027046,-0.979774,2.703593,0.182316,0.496890,-0.303738,-1.355255,-2.891752,-7.177544,3.223417,-2.956679,15.621522,-15.245361,36.621200,-0.106266,0.023909,0.000000,0.276811,0.556042,0.000000
2.580000,-0.324787,1.028802,-0.974950,2.700197,0.168925,0.467825,-0.374762,-1.323767,-2.919417,-7.013203,3.060580,-2.609773,17.418585,-17.336068,32.681796,-0.103576,0.029432,0.000000,0.260492,0.541519,-0.000000
2.590000,-0.297804,1.030425,-0.970418,2.696098,0.155840,0.438502,-0.444002,-1.294044,-2.943947,-6.829172,2.876696,-2.303043,18.555686,-18.934649,30.718196,-0.101055,0.034799,0.000000,0.243093,0.525832,-0.000000
2.600000,-0.270865,1.031919,-0.966180,2.691317,0.143044,0.408946,-0.511346,-1.266233,-2.965478,-6.642089,2.681887,-1.995409,18.494910,-20.055179,30.087203,-0.098713,0.040004,0.000000,0.225051,0.510339,0.000000
2.610000,-0.243978,1.033286,-0.962239,2.685871,0.130516,0.379192,-0.576844,-1.240406,-2.983856,-6.459274,2.475592,-1.701299,18.439577,-21.321889,27.991207,-0.096554,0.045057,0.000000,0.206419,0.495546,0.000000
2.620000,-0.217148,1.034529,-0.958596,2.679780,0.118236,0.349269,-0.640531,-1.216722,-2.999504,-6.273298,2.255450,-1.435585,19.442988,-22.339641,27.405377,-0.094584,0.049963,0.000000,0.187096,0.480768,0.000000
2.630000,-0.190382,1.035651,-0.955254,2.673061,0.106181,0.319202,-0.702310,-1.195297,-3.012567,-6.070414,2.028799,-1.153191,21.057251,-22.843500,29.504161,-0.092811,0.054717,0.000000,0.167287,0.465079,-0.000000
2.640000,-0.163687,1.036653,-0.952212,2.665734,0.094330,0.289018,-0.761939,-1.176146,-3.022568,-5.852152,1.798580,-0.845502,21.949168,-23.428186,29.972910,-0.091238,0.059306,0.000000,0.147155,0.448665,-0.000000
2.650000,-0.137068,1.037537,-0.949473,2.657822,0.082658,0.258751,-0.819353,-1.159325,-3.029477,-5.631431,1.560236,-0.553733,22.486050,-24.342858,27.918708,-0.089868,0.063729,0.000000,0.126626,0.432331,-0.000000
2.660000,-0.110530,1.038306,-0.947037,2.649347,0.071143,0.228428,-0.874568,-1.144941,-3.033642,-5.402431,1.311723,-0.287128,23.504536,-25.156574,26.346714,-0.088705,0.067989,0.000000,0.105574,0.415534,0.000000
2.670000,-0.084081,1.038960,-0.944905,2.640330,0.059759,0.198078,-0.927401,-1.133091,-3.035220,-5.161340,1.057104,-0.026799,23.777130,-25.359420,26.491883,-0.087756,0.072073,0.000000,0.084152,0.398039,0.000000
2.680000,-0.057724,1.039501,-0.943076,2.630799,0.048481,0.167724,-0.977795,-1.123799,-3.034178,-4.926889,0.804534,0.242710,22.958899,-25.095766,27.195765,-0.087022,0.075981,0.000000,0.062873,0.381361,0.000000
2.690000,-0.031465,1.039930,-0.941550,2.620775,0.037283,0.137394,-1.025939,-1.117000,-3.030366,-4.702162,0.555189,0.517116,22.799214,-25.025910,27.050982,-0.086499,0.079730,0.000000,0.041837,0.365704,0.000000
2.700000,-0.005308,1.040247,-0.940328,2.610280,0.026141,0.107117,-1.071838,-1.112695,-3.023836,-4.470905,0.304016,0.783729,23.472943,-25.107325,27.073347,-0.086185,0.083323,0.000000,0.020709,0.349717,-0.000000
2.710000,0.020741,1.040452,-0.939408,2.599338,0.015029,0.076917,-1.115357,-1.110920,-3.014691,-4.232703,0.053042,1.058583,23.782849,-24.910312,28.070893,-0.086084,0.086751,0.000000,-0.000487,0.333451,0.000000
2.720000,0.046678,1.040547,-0.938789,2.587973,0.003923,0.046823,-1.156492,-1.111634,-3.002664,-3.995248,-0.194190,1.345147,23.730778,-24.658055,27.164029,-0.086195,0.090018,0.000000,-0.021520,0.317517,0.000000
2.730000,0.072500,1.040531,-0.938471,2.576208,-0.007203,0.016864,-1.195262,-1.114804,-2.987788,-3.758087,-0.440119,1.601864,23.749234,-24.514225,24.046554,-0.086515,0.093126,0.000000,-0.042327,0.301569,0.000000
2.740000,0.098203,1.040403,-0.938452,2.564067,-0.018373,-0.012933,-1.231654,-1.120437,-2.970627,-3.520263,-0.684475,1.826078,23.730292,-24.141555,22.721539,-0.087042,0.096072,0.000000,-0.062888,0.285461,-0.000000
2.750000,0.123782,1.040163,-0.938730,2.551575,-0.029612,-0.042548,-1.265668,-1.128493,-2.951267,-3.283482,-0.922950,2.056295,23.550229,-23.493718,22.938741,-0.087773,0.098857,0.000000,-0.083145,0.269578,-0.000000
2.760000,0.149234,1.039811,-0.939303,2.538754,-0.040943,-0.071958,-1.297323,-1.138896,-2.929501,-3.049258,-1.154349,2.284853,23.308909,-22.810184,22.040753,-0.088705,0.101485,0.000000,-0.102973,0.253972,-0.000000
2.770000,0.174557,1.039345,-0.940169,2.525628,-0.052390,-0.101138,-1.326653,-1.151580,-2.905569,-2.817303,-1.379154,2.497110,23.185660,-22.100086,21.793719,-0.089833,0.103957,0.000000,-0.122323,0.238480,-0.000000
2.780000,0.199747,1.038763,-0.941326,2.512221,-0.063975,-0.130070,-1.353670,-1.166479,-2.879559,-2.585545,-1.596351,2.720728,23.158747,-21.280084,23.202934,-0.091152,0.106274,0.000000,-0.141323,0.223146,-0.000000
2.790000,0.224801,1.038065,-0.942771,2.498555,-0.075719,-0.158730,-1.378364,-1.183507,-2.851155,-2.354129,-1.804755,2.961168,22.996669,-20.365963,23.615208,-0.092660,0.108439,0.000000,-0.159944,0.208022,0.000000
2.800000,0.249718,1.037249,-0.944500,2.484654,-0.087645,-0.187093,-1.400752,-1.202574,-2.820336,-2.125612,-2.003670,3.193032,22.658281,-19.391433,22.706679,-0.094352,0.110452,0.000000,-0.177967,0.193083,-0.000000
2.810000,0.274494,1.036312,-0.946512,2.470540,-0.099771,-0.215136,-1.420876,-1.223581,-2.787294,-1.900963,-2.192584,3.415302,22.304632,-18.345020,22.310308,-0.096220,0.112317,0.000000,-0.195352,0.178373,0.000000
2.820000,0.299129,1.035253,-0.948803,2.456236,-0.112116,-0.242839,-1.438771,-1.246425,-2.752030,-1.679519,-2.370571,3.639238,22.023406,-17.174357,22.398761,-0.098260,0.114036,0.000000,-0.212120,0.163923,-0.000000
2.830000,0.323619,1.034070,-0.951369,2.441765,-0.124699,-0.270177,-1.454466,-1.270992,-2.714510,-1.460495,-2.536071,3.863277,21.762980,-15.882451,22.321838,-0.100464,0.115612,0.000000,-0.228151,0.149645,0.000000
2.840000,0.347964,1.032759,-0.954207,2.427147,-0.137536,-0.297129,-1.467981,-1.297147,-2.674764,-1.244260,-2.688220,4.085675,21.419134,-14.546706,22.276756,-0.102824,0.117044,0.000000,-0.243371,0.135538,-0.000000
2.850000,0.372162,1.031319,-0.957312,2.412405,-0.150642,-0.323672,-1.479351,-1.324756,-2.632796,-1.032112,-2.827005,4.308812,20.987899,-13.194711,22.358258,-0.105332,0.118337,0.000000,-0.257802,0.121711,0.000000
2.860000,0.396212,1.029747,-0.960680,2.397560,-0.164031,-0.349785,-1.488623,-1.353687,-2.588588,-0.824502,-2.952114,4.532840,20.538424,-11.777476,22.400513,-0.107981,0.119492,0.000000,-0.271428,0.108192,-0.000000
2.870000,0.420113,1.028039,-0.964307,2.382632,-0.177716,-0.375444,-1.495841,-1.383799,-2.542139,-0.621344,-3.062555,4.756823,20.081637,-10.241060,22.412180,-0.110761,0.120513,0.000000,-0.284167,0.094952,0.000000
2.880000,0.443865,1.026192,-0.968189,2.367643,-0.191707,-0.400628,-1.501050,-1.414938,-2.493451,-0.422869,-3.156935,4.981083,19.592290,-8.601822,22.446478,-0.113665,0.121402,0.000000,-0.295912,0.082002,0.000000
2.890000,0.467466,1.024204,-0.972320,2.352611,-0.206015,-0.425313,-1.504299,-1.446937,-2.442518,-0.229498,-3.234591,5.205752,19.061613,-6.938100,22.463062,-0.116681,0.122163,0.000000,-0.306610,0.069367,-0.000000
2.900000,0.490917,1.022072,-0.976695,2.337557,-0.220646,-0.449478,-1.505640,-1.479630,-2.389336,-0.041637,-3.295697,5.430345,18.501641,-5.281263,22.443399,-0.119798,0.122799,0.000000,-0.316266,0.057064,-0.000000
2.910000,0.514217,1.019791,-0.981310,2.322499,-0.235607,-0.473100,-1.505132,-1.512851,-2.333911,0.140535,-3.340216,5.654620,17.916129,-3.583334,22.407911,-0.123007,0.123312,0.000000,-0.324869,0.045097,0.000000
2.920000,0.537367,1.017360,-0.986157,2.307454,-0.250903,-0.496156,-1.502830,-1.546434,-2.276244,0.316686,-3.367364,5.878503,17.276732,-1.777720,22.357687,-0.126296,0.123707,0.000000,-0.332348,0.033485,-0.000000
2.930000,0.560366,1.014773,-0.991233,2.292442,-0.266536,-0.518625,-1.498798,-1.580199,-2.216341,0.486070,-3.375771,6.101774,16.578980,0.119098,22.275515,-0.129655,0.123987,0.000000,-0.338576,0.022277,-0.000000
2.940000,0.583216,1.012029,-0.996530,2.277478,-0.282507,-0.540483,-1.493108,-1.613950,-2.154208,0.648266,-3.364982,6.324013,15.862412,2.008860,22.149827,-0.133069,0.124156,0.000000,-0.343496,0.011498,0.000000
2.950000,0.605916,1.009123,-1.002042,2.262580,-0.298815,-0.561709,-1.485833,-1.647498,-2.089860,0.803318,-3.335594,6.544770,15.144930,3.855003,21.995105,-0.136525,0.124218,0.000000,-0.347132,0.001137,0.000000
2.960000,0.628467,1.006053,-1.007764,2.247762,-0.315457,-0.582280,-1.477042,-1.680661,-2.023313,0.951164,-3.287882,6.763915,14.398535,5.717369,21.807954,-0.140012,0.124178,0.000000,-0.349483,-0.008807,0.000000
2.970000,0.650871,1.002814,-1.013688,2.233039,-0.332428,-0.602175,-1.466809,-1.713256,-1.954582,1.091289,-3.221246,6.980929,13.580796,7.669036,21.526986,-0.143516,0.124040,0.000000,-0.350469,-0.018300,-0.000000
2.980000,0.673128,0.999404,-1.019807,2.218426,-0.349722,-0.621372,-1.455216,-1.745086,-1.883694,1.222780,-3.134501,7.194455,12.696797,9.687845,21.138944,-0.147022,0.123808,0.000000,-0.349944,-0.027279,-0.000000
2.990000,0.695240,0.995820,-1.026115,2.203935,-0.367330,-0.639849,-1.442354,-1.775946,-1.810693,1.345225,-3.027489,7.403708,11.804111,11.665085,20.717319,-0.150515,0.123488,0.000000,-0.347847,-0.035718,-0.000000
3.000000,0.717207,0.992058,-1.032604,2.189579,-0.385241,-0.657586,-1.428312,-1.805636,-1.735620,1.458862,-2.901199,7.608801,10.933456,13.564411,20.302599,-0.153980,0.123085,0.000000,-0.344221,-0.043631,0.000000
3.010000,0.739031,0.988115,-1.039267,2.175368,-0.403443,-0.674561,-1.413176,-1.833970,-1.658517,1.563894,-2.756201,7.809760,10.045183,15.450395,19.833652,-0.157400,0.122604,0.000000,-0.339072,-0.051030,-0.000000
3.020000,0.760714,0.983989,-1.046096,2.161315,-0.421921,-0.690756,-1.397034,-1.860760,-1.579425,1.659766,-2.592191,8.005474,9.061368,17.390330,19.192047,-0.160761,0.122051,0.000000,-0.332312,-0.057874,0.000000
3.030000,0.782257,0.979676,-1.053082,2.147428,-0.440658,-0.706150,-1.379981,-1.885814,-1.498407,1.745121,-2.408395,8.193601,7.983955,19.356318,18.381914,-0.164047,0.121431,0.000000,-0.323784,-0.064063,-0.000000
3.040000,0.803663,0.975176,-1.060219,2.133715,-0.459637,-0.720724,-1.362131,-1.908928,-1.415553,1.819445,-2.205065,8.373113,6.922279,21.245843,17.553378,-0.167237,0.120752,0.000000,-0.313433,-0.069549,0.000000
3.050000,0.824932,0.970484,-1.067497,2.120185,-0.478837,-0.734461,-1.343592,-1.929915,-1.330945,1.883567,-1.983478,8.544669,5.963830,23.038862,16.769047,-0.170315,0.120020,0.000000,-0.301310,-0.074382,0.000000
3.060000,0.846066,0.965599,-1.074908,2.106844,-0.498235,-0.747343,-1.324460,-1.948598,-1.244660,1.938722,-1.744288,8.708494,5.031964,24.792373,15.917992,-0.173263,0.119242,0.000000,-0.287411,-0.078652,0.000000
3.070000,0.867069,0.960519,-1.082444,2.093696,-0.517808,-0.759354,-1.304818,-1.964801,-1.156775,1.984206,-1.487630,8.863029,3.900531,26.524221,14.832527,-0.176063,0.118422,0.000000,-0.271648,-0.082298,-0.000000
3.080000,0.887940,0.955243,-1.090095,2.080747,-0.537531,-0.770479,-1.284776,-1.978350,-1.067399,2.016732,-1.213803,9.005144,2.602489,28.199718,13.529124,-0.178695,0.117570,0.000000,-0.253911,-0.085040,0.000000
3.090000,0.908684,0.949768,-1.097853,2.068000,-0.557375,-0.780702,-1.264483,-1.989077,-0.976672,2.036256,-0.923636,9.133611,1.447301,29.783393,12.227597,-0.181140,0.116694,0.000000,-0.234166,-0.086856,0.000000
3.100000,0.929300,0.944095,-1.105709,2.055458,-0.577313,-0.790012,-1.244051,-1.996823,-0.884727,2.045678,-0.618135,9.249696,0.388249,31.307622,11.040401,-0.183377,0.115803,0.000000,-0.212436,-0.087962,-0.000000
3.110000,0.949793,0.938222,-1.113653,2.043119,-0.597312,-0.798397,-1.223570,-2.001439,-0.791679,2.044021,-0.297483,9.354419,-0.769781,32.779405,9.810785,-0.185387,0.114904,0.000000,-0.188659,-0.088233,-0.000000
3.120000,0.970163,0.932149,-1.121677,2.030986,-0.617341,-0.805846,-1.203170,-2.002773,-0.697639,2.030283,0.037453,9.445912,-1.816666,34.077889,8.245574,-0.187148,0.114008,0.000000,-0.162784,-0.087561,0.000000
3.130000,0.990412,0.925875,-1.129770,2.019056,-0.637367,-0.812349,-1.182964,-2.000690,-0.602760,2.007687,0.384074,9.519331,-2.668402,35.187052,6.387830,-0.188640,0.113122,0.000000,-0.134870,-0.086260,-0.000000
3.140000,1.010544,0.919402,-1.137924,2.007327,-0.657355,-0.817901,-1.163017,-1.995091,-0.507252,1.976915,0.741194,9.573668,-3.622948,36.257185,4.630907,-0.189843,0.112252,0.000000,-0.104907,-0.084376,0.000000
3.150000,1.030559,0.912728,-1.146128,1.995796,-0.677269,-0.822494,-1.143426,-1.985867,-0.411287,1.935228,1.109218,9.611949,-4.729467,37.293015,3.024606,-0.190736,0.111404,0.000000,-0.072805,-0.081588,0.000000
3.160000,1.050460,0.905856,-1.154374,1.984458,-0.697073,-0.826127,-1.124312,-1.972907,-0.315013,1.882325,1.487054,9.634160,-5.776636,38.181592,1.308195,-0.191296,0.110590,0.000000,-0.038562,-0.077825,-0.000000
3.170000,1.070248,0.898787,-1.162651,1.973309,-0.716727,-0.828795,-1.105779,-1.956125,-0.218604,1.819696,1.872850,9.638113,-6.706257,38.920127,-0.584245,-0.191504,0.109819,0.000000,-0.002216,-0.073211,0.000000
3.180000,1.089926,0.891522,-1.170950,1.962343,-0.736195,-0.830499,-1.087918,-1.935450,-0.122251,1.748200,2.265457,9.622476,-7.602863,39.529863,-2.566741,-0.191337,0.109099,0.000000,0.036244,-0.067806,-0.000000
3.190000,1.109495,0.884063,-1.179261,1.951551,-0.755436,-0.831240,-1.070815,-1.910816,-0.026154,1.667638,2.663447,9.586778,-8.517822,39.992570,-4.559274,-0.190775,0.108438,0.000000,0.076782,-0.061556,0.000000
3.200000,1.128957,0.876413,-1.187574,1.940926,-0.774411,-0.831022,-1.054565,-1.882181,0.069485,1.577844,3.065308,9.531290,-9.330169,40.369549,-6.496990,-0.189797,0.107846,0.000000,0.119329,-0.054403,0.000000
3.210000,1.148313,0.868575,-1.195881,1.930460,-0.793080,-0.829850,-1.039258,-1.849510,0.164472,1.481035,3.470838,9.456838,-10.013403,40.658547,-8.426824,-0.188384,0.107331,0.000000,0.163923,-0.046521,0.000000
3.220000,1.167566,0.860551,-1.204171,1.920141,-0.811402,-0.827732,-1.024945,-1.812764,0.258622,1.377576,3.878479,9.362754,-10.890917,40.640565,-10.535445,-0.186514,0.106899,0.000000,0.210489,-0.037925,0.000000
3.230000,1.186716,0.852347,-1.212436,1.909961,-0.829335,-0.824678,-1.011707,-1.771941,0.351727,1.263217,4.283649,9.246129,-11.969240,40.285025,-12.814052,-0.184169,0.106560,0.000000,0.258681,-0.028178,-0.000000
3.240000,1.205765,0.843965,-1.220665,1.899907,-0.846840,-0.820698,-0.999680,-1.727091,0.443544,1.138191,4.684179,9.106473,-12.795163,39.886583,-14.991896,-0.181336,0.106327,0.000000,0.308309,-0.017263,0.000000
3.250000,1.224714,0.835410,-1.228850,1.889967,-0.863877,-0.815807,-0.988943,-1.678257,0.533856,1.007313,5.081381,8.946291,-13.395930,39.590537,-16.971948,-0.177998,0.106210,0.000000,0.359455,-0.005616,0.000000
3.260000,1.243565,0.826687,-1.236981,1.880128,-0.880406,-0.810021,-0.979534,-1.625463,0.622470,0.870272,5.475990,8.767034,-14.064450,39.181610,-18.929020,-0.174142,0.106214,0.000000,0.412167,0.006829,0.000000
3.270000,1.262317,0.817802,-1.245050,1.870377,-0.896386,-0.803357,-0.971537,-1.568737,0.709197,0.726024,5.865013,8.567711,-14.597388,38.294134,-21.059706,-0.169750,0.106350,0.000000,0.466130,0.020196,0.000000
3.280000,1.280972,0.808759,-1.253048,1.860698,-0.911780,-0.795837,-0.965014,-1.508163,0.793824,0.578325,6.241873,8.345840,-14.866887,36.980717,-23.288940,-0.164814,0.106625,0.000000,0.520621,0.034067,0.000000
3.290000,1.299531,0.799566,-1.260967,1.851076,-0.926550,-0.787481,-0.959971,-1.443900,0.876114,0.428687,6.604628,8.101932,-15.170512,35.725715,-25.341747,-0.159333,0.107042,0.000000,0.575304,0.048278,0.000000
3.300000,1.317994,0.790228,-1.268798,1.841498,-0.940658,-0.778314,-0.956440,-1.376071,0.955863,0.274914,6.956387,7.839005,-15.622970,34.623467,-27.253546,-0.153304,0.107605,0.000000,0.630336,0.063094,0.000000
3.310000,1.336361,0.780753,-1.276533,1.831948,-0.954071,-0.768364,-0.954473,-1.304772,1.032894,0.116227,7.297097,7.556861,-16.005317,33.346325,-29.185037,-0.146723,0.108320,0.000000,0.685570,0.078592,0.000000
3.320000,1.354633,0.771147,-1.284165,1.822409,-0.966754,-0.757657,-0.954115,-1.230129,1.107000,-0.045192,7.623314,7.255304,-16.079094,31.706407,-30.957157,-0.139590,0.109195,0.000000,0.740445,0.094511,-0.000000
3.330000,1.372809,0.761418,-1.291686,1.812865,-0.978674,-0.746224,-0.955376,-1.152306,1.178000,-0.205355,7.931225,6.937718,-15.904436,29.805882,-32.485225,-0.131912,0.110230,0.000000,0.794254,0.110412,-0.000000
3.340000,1.390890,0.751573,-1.299090,1.803301,-0.989800,-0.734097,-0.958222,-1.071504,1.245754,-0.363281,8.219431,6.605599,-15.785496,27.885406,-34.007709,-0.123703,0.111423,0.000000,0.846565,0.126153,-0.000000
3.350000,1.408875,0.741622,-1.306368,1.793701,-1.000104,-0.721308,-0.962642,-0.987917,1.310112,-0.521065,8.488933,6.257564,-15.773815,26.033545,-35.600641,-0.114979,0.112773,0.000000,0.897246,0.141904,0.000000
3.360000,1.426764,0.731571,-1.313516,1.784048,-1.009558,-0.707894,-0.968644,-0.901726,1.370906,-0.678757,8.740102,5.893587,-15.661855,24.094412,-37.079063,-0.105758,0.114280,0.000000,0.946049,0.157615,-0.000000
3.370000,1.444556,0.721431,-1.320526,1.774328,-1.018138,-0.693890,-0.976217,-0.813115,1.427983,-0.834302,8.970821,5.515982,-15.335713,21.840219,-38.263883,-0.096059,0.115943,0.000000,0.992388,0.173019,0.000000
3.380000,1.462251,0.711209,-1.327394,1.764524,-1.025820,-0.679335,-0.985330,-0.722309,1.481225,-0.985471,9.176907,5.128309,-14.856767,19.322055,-39.189923,-0.085912,0.117757,0.000000,1.035412,0.187831,-0.000000
3.390000,1.479847,0.700914,-1.334113,1.754621,-1.032584,-0.664266,-0.995927,-0.629577,1.530550,-1.131437,9.357263,4.732184,-14.366530,16.857670,-40.070823,-0.075354,0.119714,0.000000,1.074653,0.201904,0.000000
3.400000,1.497343,0.690557,-1.340679,1.744605,-1.038412,-0.648724,-1.007958,-0.535164,1.575869,-1.272802,9.514060,4.326892,-13.926420,14.508742,-41.001224,-0.064423,0.121806,0.000000,1.110064,0.215223,-0.000000
3.410000,1.514739,0.680146,-1.347087,1.734462,-1.043288,-0.632748,-1.021383,-0.439296,1.617087,-1.409965,9.647437,3.912160,-13.441411,12.074424,-41.819328,-0.053157,0.124027,0.000000,1.141364,0.227758,-0.000000
3.420000,1.532032,0.669691,-1.353334,1.724178,-1.047198,-0.616382,-1.036158,-0.342215,1.654112,-1.541630,9.755548,3.490506,-12.743270,9.457993,-42.248508,-0.041601,0.126367,0.000000,1.168027,0.239319,0.000000
3.430000,1.549222,0.659202,-1.359415,1.713739,-1.050132,-0.599666,-1.052215,-0.244185,1.686898,-1.664831,9.836597,3.067189,-11.863311,6.731495,-42.317567,-0.029803,0.128816,0.000000,1.189558,0.249560,0.000000
3.440000,1.566307,0.648688,-1.365327,1.703133,-1.052082,-0.582644,-1.069454,-0.145483,1.715456,-1.778896,9.890178,2.644155,-11.031134,4.035763,-42.383983,-0.017816,0.131360,0.000000,1.205711,0.258371,0.000000
3.450000,1.583285,0.638160,-1.371068,1.692350,-1.053042,-0.565357,-1.087793,-0.046381,1.739781,-1.885453,9.917312,2.219510,-10.261737,1.444050,-42.547606,-0.005696,0.133983,0.000000,1.216462,0.265867,-0.000000
3.460000,1.600154,0.627628,-1.376634,1.681378,-1.053009,-0.547848,-1.107163,0.052863,1.759846,-1.984131,9.919059,1.793202,-9.407850,-1.122212,-42.556371,0.006505,0.136676,0.000000,1.221821,0.271957,-0.000000
3.470000,1.616912,0.617100,-1.382025,1.670207,-1.051984,-0.530160,-1.127476,0.152000,1.775645,-2.073610,9.894868,1.368382,-8.478505,-3.830040,-42.167658,0.018733,0.139421,0.000000,1.221654,0.276499,-0.000000
3.480000,1.633558,0.606588,-1.387238,1.658828,-1.049969,-0.512335,-1.148636,0.250760,1.787214,-2.153701,9.842458,0.949849,-7.524577,-6.630522,-41.437988,0.030931,0.142205,0.000000,1.215690,0.279532,0.000000
3.490000,1.650089,0.596101,-1.392272,1.647234,-1.046969,-0.494416,-1.170550,0.348849,1.794642,-2.224102,9.762258,0.539623,-6.532582,-9.274767,-40.681839,0.043039,0.145013,0.000000,1.204057,0.281052,-0.000000
3.500000,1.666503,0.585649,-1.397126,1.635417,-1.042992,-0.476443,-1.193118,0.446006,1.798006,-2.284353,9.656963,0.136212,-5.549983,-11.814703,-40.072395,0.055005,0.147830,0.000000,1.187197,0.280982,-0.000000
3.510000,1.682797,0.575241,-1.401800,1.623372,-1.038049,-0.458456,-1.216237,0.541988,1.797366,-2.335102,9.525964,-0.261825,-4.591849,-14.388539,-39.388780,0.066776,0.150640,0.000000,1.165166,0.279392,0.000000
3.520000,1.698970,0.564888,-1.406295,1.611092,-1.032153,-0.440495,-1.239820,0.636525,1.792770,-2.376190,9.369192,-0.651563,-3.514963,-16.752063,-38.170049,0.078302,0.153429,0.000000,1.138157,0.276339,-0.000000
3.530000,1.715019,0.554598,-1.410610,1.598575,-1.025319,-0.422600,-1.263761,0.729372,1.784335,-2.405401,9.190922,-1.025226,-2.319667,-18.809270,-36.476319,0.089534,0.156182,0.000000,1.107006,0.271741,0.000000
3.540000,1.730942,0.544381,-1.414747,1.585817,-1.017565,-0.404809,-1.287928,0.820343,1.772265,-2.422583,8.993007,-1.381090,-1.216461,-20.885101,-34.933437,0.100437,0.158885,0.000000,1.072239,0.265667,0.000000
3.550000,1.746736,0.534247,-1.418706,1.572817,-1.008912,-0.387155,-1.312212,0.909232,1.756713,-2.429730,8.773220,-1.723895,-0.202809,-23.162662,-33.632779,0.110975,0.161522,0.000000,1.033807,0.258327,0.000000
3.560000,1.762398,0.524203,-1.422490,1.559573,-0.999380,-0.369674,-1.336522,0.995808,1.737787,-2.426639,8.529754,-2.053745,0.851211,-25.387906,-32.161846,0.121110,0.164082,0.000000,0.991764,0.249752,-0.000000
3.570000,1.777927,0.514259,-1.426100,1.546086,-0.988996,-0.352399,-1.360745,1.079827,1.715638,-2.412706,8.265462,-2.367132,1.865287,-27.084030,-30.392709,0.130808,0.166553,0.000000,0.946794,0.240001,0.000000
3.580000,1.793320,0.504423,-1.429538,1.532358,-0.977784,-0.335362,-1.384776,1.161117,1.690445,-2.389334,7.988073,-2.661599,2.767402,-28.304262,-28.479554,0.140044,0.168923,0.000000,0.900138,0.229358,-0.000000
3.590000,1.808574,0.494703,-1.432807,1.518391,-0.965773,-0.318590,-1.408532,1.239589,1.662406,-2.357358,7.699377,-2.936723,3.669146,-29.665122,-26.582167,0.148810,0.171185,0.000000,0.852271,0.217996,-0.000000
3.600000,1.823688,0.485108,-1.435910,1.504187,-0.952992,-0.302113,-1.431924,1.315104,1.631710,-2.315951,7.394771,-3.193243,4.691036,-31.258729,-24.689166,0.157090,0.173331,0.000000,0.802877,0.205863,0.000000
3.610000,1.838658,0.475644,-1.438849,1.489752,-0.939471,-0.285956,-1.454851,1.387484,1.598541,-2.263537,7.074202,-3.430506,5.736920,-32.657232,-22.716785,0.164868,0.175354,0.000000,0.752200,0.192850,0.000000
3.620000,1.853483,0.466318,-1.441629,1.475090,-0.925242,-0.270143,-1.477194,1.456589,1.563100,-2.201212,6.741626,-3.647578,6.481249,-33.679128,-20.714011,0.172135,0.177242,0.000000,0.700922,0.179167,-0.000000
3.630000,1.868160,0.457139,-1.444252,1.460208,-0.910339,-0.254694,-1.498875,1.522317,1.525590,-2.133912,6.400620,-3.844787,6.940808,-34.451087,-18.725064,0.178888,0.178991,0.000000,0.649608,0.165428,-0.000000
3.640000,1.882687,0.448111,-1.446723,1.445113,-0.894796,-0.239631,-1.519873,1.584601,1.486204,-2.062396,6.052604,-4.022080,7.545738,-35.181386,-16.700380,0.185129,0.180604,0.000000,0.598555,0.151756,0.000000
3.650000,1.897062,0.439243,-1.449045,1.429811,-0.878647,-0.224970,-1.540123,1.643369,1.445148,-1.982997,5.696992,-4.178794,8.324700,-35.961356,-14.648442,0.190862,0.182079,0.000000,0.547838,0.137779,0.000000
3.660000,1.911283,0.430538,-1.451222,1.414310,-0.861929,-0.210728,-1.559533,1.698541,1.402629,-1.895902,5.333377,-4.315048,8.983979,-36.646035,-12.621719,0.196089,0.183411,0.000000,0.497505,0.123551,0.000000
3.670000,1.925348,0.422004,-1.453259,1.398620,-0.844676,-0.196918,-1.578041,1.750037,1.358847,-1.803318,4.964072,-4.431229,9.516733,-36.955216,-10.612275,0.200815,0.184599,0.000000,0.447872,0.109342,0.000000
3.680000,1.939255,0.413645,-1.455161,1.382750,-0.826928,-0.183551,-1.595599,1.797822,1.314004,-1.705567,4.594273,-4.527294,10.021383,-36.922196,-8.631490,0.205049,0.185644,0.000000,0.399563,0.095206,-0.000000
3.690000,1.953003,0.405466,-1.456930,1.366708,-0.808720,-0.170637,-1.612152,1.841922,1.268301,-1.602890,4.225628,-4.603858,10.478923,-36.924471,-6.715784,0.208809,0.186545,0.000000,0.352756,0.081169,-0.000000
3.700000,1.966590,0.397471,-1.458573,1.350506,-0.790090,-0.158185,-1.627657,1.882335,1.221927,-1.495989,3.855783,-4.661610,10.894456,-37.051012,-4.763483,0.212107,0.187304,0.000000,0.307172,0.067304,0.000000
3.710000,1.980013,0.389664,-1.460094,1.334155,-0.771073,-0.146199,-1.642072,1.919038,1.175069,-1.385001,3.484607,-4.699128,11.281891,-37.048041,-2.776566,0.214955,0.187922,0.000000,0.262821,0.053657,0.000000
3.720000,1.993273,0.382049,-1.461497,1.317665,-0.751709,-0.134683,-1.655357,1.952027,1.127944,-1.270351,3.114823,-4.717141,11.578744,-36.734433,-1.102308,0.217367,0.188403,0.000000,0.219956,0.040258,-0.000000
3.730000,2.006367,0.374630,-1.462788,1.301048,-0.732033,-0.123640,-1.667479,1.981334,1.080726,-1.153426,2.749919,-4.721174,11.773456,-36.199986,0.223470,0.219357,0.188748,0.000000,0.178779,0.027139,-0.000000
3.740000,2.019294,0.367408,-1.463970,1.284315,-0.712082,-0.113069,-1.678425,2.007025,1.033521,-1.034882,2.390823,-4.712672,11.953852,-35.681983,1.661542,0.220945,0.188960,0.000000,0.139296,0.014331,-0.000000
3.750000,2.032053,0.360388,-1.465049,1.267479,-0.691892,-0.102970,-1.688177,2.029151,0.986473,-0.914349,2.036279,-4.687943,12.155897,-35.185685,3.333024,0.222146,0.189042,0.000000,0.101404,0.001858,0.000000
3.760000,2.044643,0.353571,-1.466030,1.250552,-0.671499,-0.093340,-1.696712,2.047751,0.939762,-0.791764,1.687109,-4.646011,12.317935,-34.564744,4.907084,0.222975,0.188998,0.000000,0.065156,-0.010281,0.000000
3.770000,2.057064,0.346958,-1.466916,1.233545,-0.650937,-0.084174,-1.704012,2.062893,0.893553,-0.667990,1.344984,-4.589802,12.358436,-33.844283,6.113230,0.223451,0.188832,0.000000,0.030589,-0.022069,-0.000000
3.780000,2.069314,0.340552,-1.467713,1.216472,-0.630241,-0.075468,-1.710072,2.074651,0.847966,-0.544595,1.010224,-4.523746,12.295680,-33.088453,7.043425,0.223589,0.188546,0.000000,-0.002440,-0.033447,-0.000000
3.790000,2.081393,0.334353,-1.468425,1.199344,-0.609444,-0.067215,-1.714904,2.083097,0.803078,-0.422077,0.683215,-4.448933,12.238474,-32.264036,8.032336,0.223404,0.188146,0.000000,-0.033983,-0.044403,0.000000
3.800000,2.093301,0.328363,-1.469057,1.182174,-0.588579,-0.059407,-1.718514,2.088315,0.758987,-0.299826,0.364943,-4.363100,12.204547,-31.343323,9.152812,0.222910,0.187636,0.000000,-0.063947,-0.054975,0.000000
3.810000,2.105037,0.322582,-1.469614,1.164973,-0.567678,-0.052035,-1.720901,2.090396,0.715816,-0.177986,0.056349,-4.265877,12.122410,-30.364079,10.173402,0.222126,0.187020,0.000000,-0.092292,-0.065159,-0.000000
3.820000,2.116601,0.317009,-1.470098,1.147756,-0.546771,-0.045091,-1.722073,2.089442,0.673670,-0.057378,-0.242339,-4.159632,11.961503,-29.402659,10.904642,0.221066,0.186301,0.000000,-0.119116,-0.074937,0.000000
3.830000,2.127992,0.311646,-1.470515,1.130532,-0.525889,-0.038562,-1.722048,2.085549,0.632623,0.061244,-0.531705,-4.047784,11.747868,-28.461325,11.414354,0.219744,0.185484,0.000000,-0.144619,-0.084315,-0.000000
3.840000,2.139211,0.306492,-1.470869,1.113315,-0.505060,-0.032438,-1.720848,2.078808,0.592714,0.177580,-0.811565,-3.931345,11.521232,-27.451814,11.942955,0.218174,0.184573,0.000000,-0.168858,-0.093300,-0.000000
3.850000,2.150258,0.301545,-1.471164,1.096115,-0.484313,-0.026708,-1.718497,2.069318,0.553996,0.291669,-1.080741,-3.808925,11.284788,-26.340772,12.541421,0.216368,0.183573,0.000000,-0.191731,-0.101885,0.000000
3.860000,2.161133,0.296805,-1.471404,1.078945,-0.463674,-0.021358,-1.715015,2.057193,0.516535,0.403275,-1.338381,-3.680516,11.015891,-25.200079,13.048226,0.214340,0.182487,0.000000,-0.213204,-0.110064,0.000000
3.870000,2.171837,0.292271,-1.471591,1.061815,-0.443169,-0.016377,-1.710431,2.042550,0.480386,0.511987,-1.584742,-3.547961,10.711612,-24.132362,13.341751,0.212104,0.181320,0.000000,-0.233388,-0.117844,-0.000000
3.880000,2.182370,0.287942,-1.471731,1.044736,-0.422823,-0.011751,-1.704775,2.025498,0.445576,0.617508,-1.821028,-3.413681,10.383335,-23.127186,13.475699,0.209672,0.180076,0.000000,-0.252496,-0.125256,-0.000000
3.890000,2.192732,0.283815,-1.471826,1.027719,-0.402659,-0.007465,-1.698081,2.006130,0.412112,0.719653,-2.047286,-3.278447,10.037884,-22.060388,13.608470,0.207054,0.178759,0.000000,-0.270583,-0.132307,-0.000000
3.900000,2.202924,0.279889,-1.471880,1.010774,-0.382700,-0.003508,-1.690382,1.984552,0.380007,0.818265,-2.262236,-3.141512,9.671285,-20.897545,13.758040,0.204260,0.177372,0.000000,-0.287535,-0.138979,0.000000
3.910000,2.212947,0.276161,-1.471896,0.993912,-0.362968,0.000135,-1.681716,1.960885,0.349282,0.913079,-2.465237,-3.003286,9.283417,-19.731858,13.823810,0.201303,0.175920,0.000000,-0.303326,-0.145263,-0.000000
3.920000,2.222802,0.272629,-1.471878,0.977140,-0.343483,0.003477,-1.672121,1.935248,0.319942,1.003934,-2.656873,-2.865036,8.892111,-18.660476,13.778508,0.198194,0.174407,0.000000,-0.318062,-0.151176,-0.000000
3.930000,2.232490,0.269291,-1.471827,0.960469,-0.324263,0.006534,-1.661637,1.907748,0.291981,1.090921,-2.838447,-2.727716,8.501906,-17.662367,13.661406,0.194942,0.172836,0.000000,-0.331913,-0.156752,-0.000000
3.940000,2.242012,0.266144,-1.471747,0.943907,-0.305328,0.009317,-1.650302,1.878479,0.265387,1.173972,-3.010120,-2.591807,8.092954,-16.619643,13.509529,0.191555,0.171211,0.000000,-0.344919,-0.161998,0.000000
3.950000,2.251368,0.263185,-1.471641,0.927463,-0.286694,0.011841,-1.638157,1.847545,0.240145,1.252780,-3.170839,-2.457525,7.658067,-15.505176,13.323521,0.188043,0.169536,0.000000,-0.356992,-0.166895,-0.000000
3.960000,2.260561,0.260410,-1.471510,0.911144,-0.268377,0.014120,-1.625247,1.815062,0.216237,1.327133,-3.320224,-2.325337,7.214792,-14.404541,13.086583,0.184415,0.167813,0.000000,-0.368113,-0.171432,0.000000
3.970000,2.269591,0.257817,-1.471358,0.894958,-0.250392,0.016166,-1.611615,1.781141,0.193638,1.397076,-3.458930,-2.195793,6.786735,-13.392878,12.805676,0.180680,0.166048,0.000000,-0.378365,-0.175628,0.000000
3.980000,2.278460,0.255402,-1.471187,0.878912,-0.232754,0.017993,-1.597305,1.745883,0.172321,1.462868,-3.588081,-2.069223,6.372127,-12.448080,12.493470,0.176847,0.164242,0.000000,-0.387868,-0.179517,-0.000000
3.990000,2.287169,0.253162,-1.470998,0.863012,-0.215475,0.019612,-1.582357,1.709379,0.152254,1.524519,-3.707892,-1.945924,5.944163,-11.478983,12.148137,0.172922,0.162400,0.000000,-0.396650,-0.183105,-0.000000
4.000000,2.295720,0.251093,-1.470795,0.847265,-0.198566,0.021038,-1.566815,1.671725,0.133402,1.581751,-3.817661,-1.826261,5.495500,-10.467738,11.763981,0.168914,0.160525,0.000000,-0.404649,-0.186373,-0.000000
4.010000,2.304115,0.249191,-1.470578,0.831676,-0.182040,0.022280,-1.550722,1.633026,0.115729,1.634429,-3.917247,-1.710644,5.047637,-9.479138,11.350162,0.164829,0.158619,0.000000,-0.411856,-0.189312,-0.000000
4.020000,2.312354,0.247452,-1.470349,0.816250,-0.165906,0.023352,-1.534126,1.593381,0.099190,1.682704,-4.007244,-1.599257,4.624406,-8.562063,10.935329,0.160676,0.156686,0.000000,-0.418327,-0.191942,0.000000
4.030000,2.320440,0.245873,-1.470111,0.800993,-0.150173,0.024264,-1.517068,1.552881,0.083743,1.726917,-4.088488,-1.491938,4.222518,-7.698357,10.526408,0.156462,0.154730,0.000000,-0.424137,-0.194290,0.000000
4.040000,2.328374,0.244449,-1.469864,0.785909,-0.134848,0.025027,-1.499588,1.511611,0.069351,1.767154,-4.161211,-1.388729,3.814333,-6.829017,10.092992,0.152193,0.152752,0.000000,-0.429303,-0.196365,0.000000
4.050000,2.336158,0.243176,-1.469610,0.771002,-0.119940,0.025651,-1.481725,1.469657,0.055969,1.803203,-4.225068,-1.290078,3.390219,-5.944530,9.608232,0.147875,0.150756,0.000000,-0.433791,-0.198150,-0.000000
4.060000,2.343794,0.242050,-1.469351,0.756274,-0.105455,0.026147,-1.463524,1.427109,0.043549,1.834959,-4.280101,-1.196565,2.971776,-5.086126,9.101305,0.143517,0.148745,0.000000,-0.437604,-0.199640,0.000000
4.070000,2.351283,0.241067,-1.469087,0.741731,-0.091398,0.026522,-1.445026,1.384055,0.032038,1.862639,-4.326791,-1.108052,2.588444,-4.279915,8.657781,0.139123,0.146722,0.000000,-0.440778,-0.200852,-0.000000
4.080000,2.358628,0.240222,-1.468820,0.727374,-0.077774,0.026787,-1.426271,1.340574,0.021388,1.886727,-4.365700,-1.023409,2.236445,-3.513693,8.277650,0.134701,0.144689,0.000000,-0.443342,-0.201812,-0.000000
4.090000,2.365831,0.239511,-1.468551,0.713206,-0.064587,0.026950,-1.407292,1.296741,0.011569,1.907368,-4.397065,-0.942499,1.879610,-2.756316,7.852555,0.130256,0.142649,0.000000,-0.445310,-0.202532,-0.000000
4.100000,2.372893,0.238930,-1.468281,0.699228,-0.051839,0.027019,-1.388124,1.252632,0.002538,1.924320,-4.420826,-0.866358,1.508129,-2.003457,7.357049,0.125794,0.140604,0.000000,-0.446678,-0.202997,-0.000000
4.110000,2.379815,0.238474,-1.468011,0.685443,-0.039534,0.027001,-1.368805,1.208324,-0.005758,1.937530,-4.437134,-0.795358,1.148527,-1.276581,6.870480,0.121322,0.138556,0.000000,-0.447457,-0.203204,-0.000000
4.120000,2.386601,0.238139,-1.467741,0.671852,-0.027673,0.026904,-1.349373,1.163890,-0.013369,1.947290,-4.446358,-0.728948,0.827365,-0.588085,6.455822,0.116845,0.136509,0.000000,-0.447664,-0.203169,-0.000000
4.130000,2.393252,0.237921,-1.467473,0.658456,-0.016256,0.026733,-1.329859,1.119397,-0.020337,1.954078,-4.448895,-0.666241,0.538255,0.068572,6.092563,0.112368,0.134465,0.000000,-0.447317,-0.202924,0.000000
4.140000,2.399771,0.237814,-1.467207,0.645255,-0.005285,0.026497,-1.310291,1.074912,-0.026694,1.958055,-4.444986,-0.607097,0.248526,0.708177,5.705593,0.107898,0.132425,0.000000,-0.446430,-0.202479,0.000000
4.150000,2.406158,0.237815,-1.466943,0.632250,0.005242,0.026200,-1.290698,1.030497,-0.032479,1.959048,-4.434732,-0.552129,-0.049819,1.332773,5.278231,0.103440,0.130391,0.000000,-0.445011,-0.201823,-0.000000
4.160000,2.412416,0.237919,-1.466683,0.619441,0.015325,0.025847,-1.271110,0.986217,-0.037736,1.957059,-4.418331,-0.501532,-0.333528,1.932316,4.864521,0.098998,0.128367,0.000000,-0.443072,-0.200952,-0.000000
4.170000,2.418546,0.238122,-1.466426,0.606828,0.024966,0.025445,-1.251557,0.942131,-0.042509,1.952378,-4.396086,-0.454839,-0.581201,2.500960,4.512824,0.094578,0.126353,0.000000,-0.440627,-0.199887,0.000000
4.180000,2.424552,0.238419,-1.466174,0.594410,0.034168,0.024997,-1.232063,0.898295,-0.046833,1.945435,-4.368312,-0.411276,-0.798893,3.041798,4.209812,0.090185,0.124351,0.000000,-0.437693,-0.198658,-0.000000
4.190000,2.430435,0.238805,-1.465926,0.582186,0.042932,0.024508,-1.212648,0.854765,-0.050735,1.936400,-4.335250,-0.370643,-1.013409,3.561985,3.896107,0.085824,0.122363,0.000000,-0.434285,-0.197274,0.000000
4.200000,2.436196,0.239277,-1.465683,0.570157,0.051263,0.023982,-1.193335,0.811590,-0.054246,1.925167,-4.297072,-0.333354,-1.231606,4.063049,3.554242,0.081500,0.120391,0.000000,-0.430416,-0.195729,0.000000
4.210000,2.441838,0.239830,-1.465446,0.558320,0.059164,0.023423,-1.174145,0.768823,-0.057402,1.911768,-4.253989,-0.299558,-1.434787,4.540221,3.226520,0.077216,0.118435,0.000000,-0.426102,-0.194023,0.000000
4.220000,2.447362,0.240460,-1.465215,0.546674,0.066639,0.022834,-1.155100,0.726511,-0.060237,1.896471,-4.206267,-0.268823,-1.605402,4.989421,2.960734,0.072977,0.116499,0.000000,-0.421359,-0.192176,-0.000000
4.230000,2.452771,0.241163,-1.464990,0.535218,0.073694,0.022219,-1.136216,0.684698,-0.062778,1.879660,-4.154200,-0.240343,-1.748728,5.412026,2.745748,0.068789,0.114582,0.000000,-0.416204,-0.190214,-0.000000
4.240000,2.458067,0.241934,-1.464771,0.523950,0.080333,0.021579,-1.117506,0.643427,-0.065044,1.861496,-4.098027,-0.213908,-1.887311,5.813470,2.520348,0.064653,0.112685,0.000000,-0.410656,-0.188148,-0.000000
4.250000,2.463250,0.242770,-1.464558,0.512868,0.086563,0.020918,-1.098986,0.602737,-0.067057,1.841914,-4.037931,-0.189936,-2.026627,6.195806,2.272344,0.060575,0.110811,0.000000,-0.404732,-0.185975,-0.000000
4.260000,2.468324,0.243666,-1.464352,0.501970,0.092388,0.020238,-1.080668,0.562668,-0.068843,1.820964,-3.974111,-0.168462,-2.151460,6.555465,2.043683,0.056559,0.108959,0.000000,-0.398448,-0.183699,0.000000
4.270000,2.473290,0.244618,-1.464153,0.491254,0.097816,0.019541,-1.062566,0.523255,-0.070426,1.798884,-3.906821,-0.149063,-2.248827,6.887454,1.862109,0.052607,0.107131,0.000000,-0.391823,-0.181337,0.000000
4.280000,2.478149,0.245622,-1.463961,0.480719,0.102853,0.018829,-1.044690,0.484532,-0.071824,1.775987,-3.836362,-0.131219,-2.323466,7.192740,1.714387,0.048722,0.105327,0.000000,-0.384882,-0.178912,-0.000000
4.290000,2.482904,0.246675,-1.463777,0.470360,0.107507,0.018104,-1.027047,0.446528,-0.073050,1.752415,-3.762967,-0.114775,-2.392520,7.478301,1.565607,0.044909,0.103548,0.000000,-0.377645,-0.176437,-0.000000
4.300000,2.487556,0.247772,-1.463599,0.460178,0.111784,0.017368,-1.009642,0.409272,-0.074119,1.728137,-3.686796,-0.099907,-2.459893,7.746910,1.409763,0.041169,0.101795,0.000000,-0.370127,-0.173909,-0.000000
4.310000,2.492108,0.248910,-1.463429,0.450168,0.115692,0.016622,-0.992484,0.372792,-0.075048,1.703217,-3.608028,-0.086580,-2.514464,7.994030,1.269715,0.037506,0.100067,0.000000,-0.362345,-0.171333,-0.000000
4.320000,2.496560,0.250086,-1.463267,0.440328,0.119240,0.015867,-0.975578,0.337112,-0.075851,1.677848,-3.526915,-0.074513,-2.547950,8.213391,1.159483,0.033923,0.098366,0.000000,-0.354322,-0.168725,-0.000000
4.330000,2.500914,0.251295,-1.463112,0.430656,0.122434,0.015105,-0.958927,0.302254,-0.076539,1.652258,-3.443761,-0.063390,-2.564300,8.406347,1.070949,0.030420,0.096691,0.000000,-0.346085,-0.166104,0.000000
4.340000,2.505173,0.252535,-1.462965,0.421149,0.125285,0.014336,-0.942533,0.268236,-0.077119,1.626562,-3.358788,-0.053094,-2.574913,8.581759,0.985608,0.027001,0.095042,0.000000,-0.337658,-0.163479,0.000000
4.350000,2.509337,0.253801,-1.462825,0.411805,0.127799,0.013563,-0.926396,0.235078,-0.077600,1.600760,-3.272125,-0.043678,-2.582079,8.742772,0.901990,0.023667,0.093420,0.000000,-0.329053,-0.160852,0.000000
4.360000,2.513409,0.255091,-1.462694,0.402621,0.129986,0.012784,-0.910517,0.202794,-0.077992,1.574920,-3.183933,-0.035054,-2.578912,8.883734,0.831276,0.020420,0.091824,0.000000,-0.320285,-0.158228,0.000000
4.370000,2.517390,0.256401,-1.462570,0.393595,0.131855,0.012003,-0.894897,0.171399,-0.078302,1.549182,-3.094451,-0.027052,-2.561545,8.997956,0.774365,0.017261,0.090255,0.000000,-0.311378,-0.155618,0.000000
4.380000,2.521281,0.257728,-1.462454,0.384724,0.133414,0.011218,-0.879534,0.140905,-0.078533,1.523689,-3.003974,-0.019567,-2.532907,9.087337,0.726215,0.014192,0.088711,0.000000,-0.302363,-0.153036,-0.000000
4.390000,2.525084,0.259069,-1.462345,0.376004,0.134673,0.010432,-0.864424,0.111320,-0.078693,1.498524,-2.912704,-0.012528,-2.498929,9.161450,0.685035,0.011214,0.087194,0.000000,-0.293260,-0.150490,0.000000
4.400000,2.528801,0.260421,-1.462245,0.367435,0.135641,0.009644,-0.849563,0.082651,-0.078784,1.473711,-2.820745,-0.005866,-2.460700,9.223321,0.652256,0.008327,0.085701,0.000000,-0.284079,-0.147982,0.000000
4.410000,2.532433,0.261782,-1.462152,0.359013,0.136326,0.008856,-0.834949,0.054905,-0.078810,1.449310,-2.728238,0.000517,-2.415230,9.267039,0.627567,0.005532,0.084234,0.000000,-0.274837,-0.145517,0.000000
4.420000,2.535981,0.263148,-1.462068,0.350736,0.136739,0.008068,-0.820577,0.028086,-0.078774,1.425406,-2.635404,0.006685,-2.361751,9.286643,0.605415,0.002830,0.082791,0.000000,-0.265554,-0.143102,0.000000
4.430000,2.539447,0.264516,-1.461991,0.342602,0.136888,0.007281,-0.806441,0.002197,-0.078677,1.402075,-2.542505,0.012625,-2.302057,9.284364,0.584616,0.000221,0.081372,0.000000,-0.256259,-0.140746,0.000000
4.440000,2.542833,0.265885,-1.461922,0.334607,0.136783,0.006495,-0.792536,-0.022764,-0.078521,1.379365,-2.449717,0.018377,-2.238303,9.268981,0.571187,-0.002295,0.079976,0.000000,-0.246970,-0.138453,0.000000
4.450000,2.546140,0.267252,-1.461861,0.326751,0.136433,0.005710,-0.778854,-0.046798,-0.078309,1.357308,-2.357125,0.024049,-2.171002,9.242983,0.566316,-0.004718,0.078603,0.000000,-0.237696,-0.136226,-0.000000
4.460000,2.549368,0.268614,-1.461808,0.319030,0.135847,0.004929,-0.765389,-0.069907,-0.078040,1.335945,-2.264857,0.029704,-2.099750,9.201226,0.564685,-0.007049,0.077252,0.000000,-0.228450,-0.134068,0.000000
4.470000,2.552520,0.269969,-1.461763,0.311443,0.135034,0.004150,-0.752135,-0.092095,-0.077715,1.315313,-2.173101,0.035343,-2.025319,9.139445,0.561665,-0.009287,0.075921,0.000000,-0.219252,-0.131984,0.000000
4.480000,2.555597,0.271315,-1.461725,0.303987,0.134005,0.003374,-0.739083,-0.113369,-0.077333,1.295438,-2.082068,0.040937,-1.948836,9.059904,0.557301,-0.011434,0.074612,0.000000,-0.210124,-0.129976,-0.000000
4.490000,2.558600,0.272649,-1.461695,0.296661,0.132767,0.002603,-0.726226,-0.133736,-0.076896,1.276337,-1.991903,0.046489,-1.870545,8.969294,0.556219,-0.013489,0.073322,0.000000,-0.201081,-0.128046,-0.000000
4.500000,2.561530,0.273970,-1.461673,0.289463,0.131330,0.001836,-0.713556,-0.153207,-0.076404,1.258028,-1.902682,0.052061,-1.789934,8.869222,0.563868,-0.015455,0.072051,0.000000,-0.192131,-0.126196,0.000000
4.510000,2.564389,0.275276,-1.461658,0.282390,0.129703,0.001075,-0.701066,-0.171790,-0.075855,1.240538,-1.814518,0.057766,-1.707966,8.756149,0.575692,-0.017332,0.070798,0.000000,-0.183286,-0.124427,-0.000000
4.520000,2.567178,0.276564,-1.461651,0.275442,0.127894,0.000319,-0.688746,-0.189497,-0.075248,1.223868,-1.727559,0.063575,-1.628225,8.628297,0.574107,-0.019121,0.069562,0.000000,-0.174561,-0.122741,-0.000000
4.530000,2.569898,0.277834,-1.461652,0.268615,0.125913,-0.000430,-0.676588,-0.206341,-0.074583,1.207974,-1.641952,0.069248,-1.551379,8.487642,0.558884,-0.020823,0.068342,0.000000,-0.165971,-0.121134,0.000000
4.540000,2.572550,0.279082,-1.461660,0.261910,0.123768,-0.001172,-0.664586,-0.222336,-0.073863,1.192841,-1.557806,0.074753,-1.473916,8.337726,0.552811,-0.022440,0.067138,0.000000,-0.157527,-0.119606,0.000000
4.550000,2.575136,0.280309,-1.461675,0.255324,0.121466,-0.001907,-0.652731,-0.237497,-0.073088,1.178495,-1.475198,0.080305,-1.395327,8.179232,0.561031,-0.023974,0.065950,0.000000,-0.149237,-0.118157,-0.000000
4.560000,2.577657,0.281512,-1.461698,0.248855,0.119018,-0.002634,-0.641016,-0.251840,-0.072257,1.164934,-1.394222,0.085974,-1.319001,8.010879,0.567184,-0.025425,0.064775,0.000000,-0.141110,-0.116788,0.000000
4.570000,2.580113,0.282689,-1.461728,0.242503,0.116429,-0.003352,-0.629433,-0.265382,-0.071369,1.152115,-1.314980,0.091648,-1.247782,7.833237,0.559568,-0.026796,0.063613,0.000000,-0.133158,-0.115494,-0.000000
4.580000,2.582507,0.283840,-1.461765,0.236267,0.113710,-0.004062,-0.617974,-0.278140,-0.070424,1.139978,-1.237557,0.097165,-1.181308,7.647715,0.542987,-0.028088,0.062464,0.000000,-0.125387,-0.114270,-0.000000
4.590000,2.584839,0.284964,-1.461809,0.230144,0.110867,-0.004761,-0.606633,-0.290133,-0.069426,1.128489,-1.162026,0.102508,-1.117221,7.454855,0.531467,-0.029304,0.061327,0.000000,-0.117806,-0.113114,0.000000
4.600000,2.587110,0.286058,-1.461860,0.224134,0.107907,-0.005450,-0.595404,-0.301380,-0.068374,1.117634,-1.088460,0.107794,-1.056126,7.254489,0.526284,-0.030444,0.060201,0.000000,-0.110422,-0.112023,-0.000000
4.610000,2.589321,0.287122,-1.461918,0.218236,0.104839,-0.006128,-0.584281,-0.311902,-0.067270,1.107367,-1.016936,0.113034,-1.000499,7.047409,0.517736,-0.031512,0.059085,0.000000,-0.103243,-0.110992,-0.000000
4.620000,2.591474,0.288154,-1.461983,0.212448,0.101669,-0.006796,-0.573257,-0.321719,-0.066113,1.097624,-0.947512,0.118149,-0.950330,6.836326,0.502310,-0.032509,0.057980,0.000000,-0.096274,-0.110016,0.000000
4.630000,2.593570,0.289155,-1.462054,0.206771,0.098405,-0.007451,-0.562328,-0.330852,-0.064907,1.088360,-0.880210,0.123080,-0.905304,6.622091,0.482625,-0.033438,0.056884,0.000000,-0.089516,-0.109090,0.000000
4.640000,2.595610,0.290123,-1.462132,0.201202,0.095052,-0.008094,-0.551490,-0.339323,-0.063652,1.079518,-0.815070,0.127802,-0.866933,6.402438,0.462453,-0.034300,0.055797,0.000000,-0.082975,-0.108209,0.000000
4.650000,2.597594,0.291056,-1.462216,0.195741,0.091618,-0.008724,-0.540738,-0.347153,-0.062351,1.071021,-0.752161,0.132329,-0.836803,6.176296,0.444980,-0.035097,0.054718,0.000000,-0.076657,-0.107364,0.000000
4.660000,2.599525,0.291955,-1.462306,0.190387,0.088109,-0.009341,-0.530069,-0.354366,-0.061005,1.062782,-0.691544,0.136701,-0.814679,5.946353,0.427342,-0.035833,0.053648,0.000000,-0.070568,-0.106547,-0.000000
4.670000,2.601402,0.292818,-1.462403,0.185139,0.084531,-0.009944,-0.519482,-0.360984,-0.059617,1.054728,-0.633234,0.140876,-0.798595,5.717488,0.399478,-0.036509,0.052586,0.000000,-0.064710,-0.105751,0.000000
4.680000,2.603227,0.293646,-1.462505,0.179997,0.080889,-0.010533,-0.508975,-0.367031,-0.058188,1.046810,-0.577194,0.144691,-0.788905,5.490012,0.361733,-0.037127,0.051532,0.000000,-0.059077,-0.104971,-0.000000
4.690000,2.605002,0.294436,-1.462614,0.174960,0.077190,-0.011108,-0.498546,-0.372528,-0.056723,1.038950,-0.523433,0.148110,-0.789643,5.258714,0.327696,-0.037690,0.050485,0.000000,-0.053671,-0.104200,-0.000000
4.700000,2.606727,0.295189,-1.462728,0.170026,0.073439,-0.011667,-0.488196,-0.377500,-0.055225,1.031017,-0.472020,0.151245,-0.804455,5.021566,0.300123,-0.038200,0.049446,0.000000,-0.048499,-0.103423,0.000000
4.710000,2.608403,0.295905,-1.462847,0.165196,0.069640,-0.012212,-0.477926,-0.381969,-0.053698,1.022861,-0.423002,0.154113,-0.831339,4.783184,0.269754,-0.038660,0.048415,0.000000,-0.043566,-0.102625,-0.000000
4.720000,2.610031,0.296582,-1.462972,0.160468,0.065800,-0.012741,-0.467738,-0.385960,-0.052143,1.014390,-0.376356,0.156640,-0.862621,4.550604,0.231421,-0.039072,0.047392,0.000000,-0.038869,-0.101797,-0.000000
4.730000,2.611612,0.297221,-1.463102,0.155841,0.061921,-0.013255,-0.457638,-0.389496,-0.050565,1.005608,-0.331990,0.158741,-0.898628,4.323601,0.188034,-0.039437,0.046378,0.000000,-0.034399,-0.100940,-0.000000
4.740000,2.613147,0.297821,-1.463237,0.151315,0.058010,-0.013753,-0.447626,-0.392599,-0.048968,0.996418,-0.289884,0.160400,-0.951406,4.093942,0.146149,-0.039760,0.045372,0.000000,-0.030153,-0.100043,0.000000
4.750000,2.614638,0.298381,-1.463377,0.146889,0.054069,-0.014234,-0.437709,-0.395293,-0.047357,0.986580,-0.250111,0.161664,-1.029240,3.858132,0.107941,-0.040040,0.044375,0.000000,-0.026140,-0.099082,0.000000
4.760000,2.616085,0.298902,-1.463522,0.142561,0.050104,-0.014700,-0.427895,-0.397602,-0.045735,0.975833,-0.212721,0.162559,-1.124617,3.622737,0.069159,-0.040282,0.043389,0.000000,-0.022363,-0.098031,0.000000
4.770000,2.617489,0.299383,-1.463671,0.138331,0.046117,-0.015149,-0.418193,-0.399548,-0.044106,0.964088,-0.177656,0.163047,-1.218353,3.398308,0.024162,-0.040488,0.042413,0.000000,-0.018819,-0.096880,0.000000
4.780000,2.618852,0.299824,-1.463825,0.134197,0.042113,-0.015582,-0.408613,-0.401155,-0.042474,0.951466,-0.144755,0.163042,-1.311086,3.184326,-0.026209,-0.040659,0.041449,0.000000,-0.015489,-0.095641,-0.000000
4.790000,2.620173,0.300225,-1.463982,0.130159,0.038094,-0.015999,-0.399163,-0.402443,-0.040845,0.937866,-0.113970,0.162523,-1.430986,2.967493,-0.073962,-0.040798,0.040499,0.000000,-0.012369,-0.094305,0.000000
4.800000,2.621455,0.300586,-1.464145,0.126214,0.034064,-0.016399,-0.389856,-0.403434,-0.039224,0.922846,-0.085405,0.161563,-1.598319,2.740708,-0.113393,-0.040906,0.039562,0.000000,-0.009471,-0.092825,-0.000000
4.810000,2.622698,0.300907,-1.464310,0.122361,0.030025,-0.016783,-0.380706,-0.404151,-0.037614,0.905900,-0.059156,0.160255,-1.794438,2.513946,-0.149874,-0.040987,0.038641,0.000000,-0.006803,-0.091150,-0.000000
4.820000,2.623902,0.301187,-1.464480,0.118600,0.025981,-0.017151,-0.371738,-0.404617,-0.036019,0.886958,-0.035127,0.158566,-1.969769,2.306710,-0.197849,-0.041042,0.037737,0.000000,-0.004358,-0.089272,-0.000000
4.830000,2.625070,0.301426,-1.464653,0.114927,0.021933,-0.017503,-0.362967,-0.404854,-0.034443,0.866504,-0.013022,0.156298,-2.130665,2.116481,-0.255576,-0.041074,0.036854,0.000000,-0.002103,-0.087242,0.000000
4.840000,2.626201,0.301625,-1.464830,0.111340,0.017884,-0.017840,-0.354408,-0.404878,-0.032893,0.844344,0.007203,0.153454,-2.346579,1.917671,-0.302858,-0.041084,0.035991,0.000000,-0.000035,-0.085039,0.000000
4.850000,2.627296,0.301784,-1.465010,0.107839,0.013835,-0.018161,-0.346080,-0.404710,-0.031373,0.819573,0.025332,0.150241,-2.624675,1.708324,-0.337614,-0.041075,0.035151,0.000000,0.001822,-0.082570,-0.000000
4.860000,2.628357,0.301902,-1.465193,0.104419,0.009790,-0.018467,-0.338016,-0.404371,-0.029888,0.791851,0.041370,0.146702,-2.920876,1.505763,-0.372788,-0.041048,0.034338,0.000000,0.003471,-0.079800,-0.000000
4.870000,2.629385,0.301980,-1.465380,0.101078,0.005748,-0.018759,-0.330243,-0.403882,-0.028439,0.761155,0.055447,0.142785,-3.233184,1.311414,-0.409030,-0.041005,0.033554,0.000000,0.004923,-0.076727,0.000000
4.880000,2.630379,0.302017,-1.465569,0.097814,0.001712,-0.019036,-0.322793,-0.403262,-0.027032,0.727187,0.067598,0.138521,-3.579343,1.119226,-0.441194,-0.040949,0.032802,0.000000,0.006182,-0.073321,-0.000000
4.890000,2.631341,0.302014,-1.465760,0.094622,-0.002317,-0.019300,-0.315700,-0.402530,-0.025669,0.689568,0.077832,0.133962,-3.962266,0.928759,-0.468477,-0.040882,0.032086,0.000000,0.007249,-0.069542,-0.000000
4.900000,2.632272,0.301971,-1.465955,0.091500,-0.006339,-0.019550,-0.309002,-0.401705,-0.024353,0.647942,0.086173,0.129152,-4.381697,0.740773,-0.491006,-0.040804,0.031410,0.000000,0.008125,-0.065354,0.000000
4.910000,2.633171,0.301887,-1.466151,0.088442,-0.010351,-0.019787,-0.302741,-0.400807,-0.023086,0.601934,0.092647,0.124141,-4.839426,0.555253,-0.508320,-0.040719,0.030778,0.000000,0.008812,-0.060719,0.000000
4.920000,2.634040,0.301764,-1.466350,0.085445,-0.014355,-0.020011,-0.296963,-0.399853,-0.021870,0.551153,0.097278,0.118985,-5.337361,0.372139,-0.519916,-0.040628,0.030195,0.000000,0.009314,-0.055596,0.000000
4.930000,2.634880,0.301600,-1.466552,0.082503,-0.018348,-0.020224,-0.291718,-0.398861,-0.020706,0.495187,0.100090,0.113743,-5.877390,0.191374,-0.525275,-0.040533,0.029665,0.000000,0.009632,-0.049943,0.000000
4.940000,2.635690,0.301397,-1.466755,0.079611,-0.022332,-0.020425,-0.287059,-0.397851,-0.019595,0.433605,0.101106,0.108480,-6.461430,0.012900,-0.523900,-0.040435,0.029195,0.000000,0.009767,-0.043717,-0.000000
4.950000,2.636472,0.301153,-1.466960,0.076762,-0.026305,-0.020616,-0.283046,-0.396839,-0.018537,0.365958,0.100348,0.103265,-7.091407,-0.163344,-0.515297,-0.040338,0.028790,0.000000,0.009723,-0.036871,0.000000
4.960000,2.637226,0.300871,-1.467167,0.073950,-0.030269,-0.020796,-0.279740,-0.395844,-0.017530,0.291777,0.097839,0.098174,-7.769213,-0.337416,-0.498944,-0.040241,0.028457,0.000000,0.009500,-0.029358,-0.000000
4.970000,2.637951,0.300548,-1.467376,0.071167,-0.034222,-0.020967,-0.277210,-0.394882,-0.016573,0.210574,0.093600,0.093286,163.224038,244.706978,8.254445,-0.040148,0.028203,0.000000,0.009101,-0.021127,-0.000000
4.980000,2.638649,0.300186,-1.467587,0.068406,-0.038166,-0.021128,-0.275529,-0.393972,-0.015664,3.556258,4.991978,0.263263,335.141161,488.864429,16.009369,-0.040059,0.028034,0.000000,0.505564,-0.360611,0.000000
4.990000,2.639319,0.299785,-1.467799,0.065657,-0.042102,-0.021280,-0.206085,-0.295043,-0.011308,6.913397,9.870888,0.413474,166.308785,242.844575,6.403129,-0.030025,0.020980,0.000000,1.002216,-0.702409,0.000000
5.000000,2.639962,0.299344,-1.468012,0.064284,-0.044067,-0.021354,-0.137261,-0.196554,-0.007395,6.882434,9.848870,0.391325,-3.096367,-2.201834,-2.214826,-0.020016,0.013980,0.000000,1.001713,-0.700210,-0.000000
