time,x,y,z,vx,vy,vz,ax,ay,az,jx,jy,jz,sx,sy,sz,roll,pitch,yaw,p,q,r
0.000000,-3.388548,-0.245503,-1.483633,-0.018939,-0.004383,0.010628,0.656625,-0.198214,-0.183742,-6.694075,2.583515,5.184995,126.260213,-43.672217,-121.198970,-0.019789,-0.065609,0.000000,0.246769,0.632881,0.000000
0.010000,-3.388705,-0.245557,-1.483535,-0.012687,-0.006243,0.009031,0.595792,-0.174478,-0.137651,-5.492575,2.172095,4.062739,114.175738,-38.677221,-103.550193,-0.017506,-0.059821,0.000000,0.210196,0.525720,-0.000000
0.020000,-3.388803,-0.245627,-1.483451,-0.006986,-0.007885,0.007841,0.546384,-0.154612,-0.101929,-4.407888,1.808689,3.108181,102.892852,-34.066762,-87.644412,-0.015574,-0.055068,0.000000,0.176907,0.426073,0.000000
0.030000,-3.388846,-0.245714,-1.483377,-0.001725,-0.009347,0.006963,0.507271,-0.138156,-0.074985,-3.432145,1.489532,2.304335,92.381998,-29.824612,-73.393151,-0.013957,-0.051272,0.000000,0.146966,0.334332,-0.000000
0.040000,-3.388839,-0.245814,-1.483311,0.003191,-0.010659,0.006316,0.477403,-0.124686,-0.055393,-2.557773,1.211023,1.635098,82.613500,-25.934547,-60.707951,-0.012623,-0.048354,0.000000,0.120347,0.250640,-0.000000
0.050000,-3.388783,-0.245926,-1.483250,0.007850,-0.011849,0.005835,0.455802,-0.113812,-0.041885,-1.777487,0.969721,1.085254,73.558983,-22.380324,-49.500083,-0.011539,-0.046233,0.000000,0.096947,0.174938,0.000000
0.060000,-3.388682,-0.246050,-1.483194,0.012331,-0.012942,0.005462,0.441563,-0.105178,-0.033338,-1.084312,0.762351,0.640467,65.187636,-19.145732,-39.681349,-0.010674,-0.044829,0.000000,0.076616,0.107017,-0.000000
0.070000,-3.388537,-0.246185,-1.483141,0.016703,-0.013959,0.005155,0.433848,-0.098462,-0.028770,-0.471554,0.585796,0.287292,57.470457,-16.214537,-31.163150,-0.009998,-0.044067,0.000000,0.059163,0.046548,-0.000000
0.080000,-3.388348,-0.246329,-1.483091,0.021027,-0.014917,0.004876,0.431885,-0.093370,-0.027329,0.067180,0.437103,0.013164,50.377978,-13.570512,-23.856981,-0.009482,-0.043875,0.000000,0.044377,-0.006874,-0.000000
0.090000,-3.388117,-0.246483,-1.483043,0.025358,-0.015831,0.004600,0.434965,-0.089636,-0.028283,0.537990,0.313482,-0.193593,43.880761,-11.197431,-17.674299,-0.009102,-0.044183,0.000000,0.032030,-0.053706,0.000000
0.100000,-3.387841,-0.246646,-1.482999,0.029741,-0.016713,0.004305,0.442438,-0.087025,-0.031012,0.946677,0.212305,-0.343774,37.948961,-9.079057,-12.526850,-0.008834,-0.044928,0.000000,0.021896,-0.094432,0.000000
0.110000,-3.387521,-0.246817,-1.482957,0.034219,-0.017574,0.003976,0.453710,-0.085324,-0.035003,1.298755,0.131106,-0.447286,32.553532,-7.199173,-8.325879,-0.008657,-0.046053,0.000000,0.013747,-0.129546,-0.000000
0.120000,-3.387156,-0.246997,-1.482919,0.038826,-0.018422,0.003602,0.468242,-0.084344,-0.039833,1.599437,0.067581,-0.513152,27.664824,-5.541547,-4.982990,-0.008553,-0.047502,0.000000,0.007363,-0.159539,-0.000000
0.130000,-3.386744,-0.247186,-1.482885,0.043593,-0.019263,0.003177,0.485544,-0.083920,-0.045167,1.853642,0.019588,-0.549511,23.253341,-4.089951,-2.409709,-0.008505,-0.049228,0.000000,0.002537,-0.184886,-0.000000
0.140000,-3.386284,-0.247383,-1.482856,0.048545,-0.020102,0.002698,0.505175,-0.083907,-0.050749,2.065996,-0.014851,-0.563617,19.289577,-2.828157,-0.517591,-0.008498,-0.051186,0.000000,-0.000929,-0.206041,-0.000000
0.150000,-3.385773,-0.247588,-1.482832,0.053703,-0.020942,0.002162,0.526739,-0.084178,-0.056387,2.240828,-0.037553,-0.561839,15.744015,-1.739933,0.781772,-0.008519,-0.053337,0.000000,-0.003214,-0.223432,0.000000
0.160000,-3.385209,-0.247801,-1.482813,0.059085,-0.021786,0.001570,0.549880,-0.084625,-0.061951,2.382174,-0.050174,-0.549654,12.587371,-0.809064,1.577611,-0.008559,-0.055644,0.000000,-0.004485,-0.237460,-0.000000
0.170000,-3.384590,-0.248024,-1.482800,0.064705,-0.022635,0.000924,0.574283,-0.085153,-0.067361,2.493773,-0.054205,-0.531669,9.789919,-0.019311,1.957474,-0.008606,-0.058076,0.000000,-0.004891,-0.248495,0.000000
0.180000,-3.383914,-0.248254,-1.482795,0.070574,-0.023489,0.000224,0.599668,-0.085685,-0.072577,2.579071,-0.050977,-0.511595,7.322263,0.645546,2.010199,-0.008654,-0.060605,0.000000,-0.004565,-0.256875,-0.000000
0.190000,-3.383178,-0.248493,-1.482796,0.076701,-0.024348,-0.000527,0.625788,-0.086152,-0.077595,2.641219,-0.041656,-0.492260,5.154965,1.201720,1.824263,-0.008696,-0.063206,0.000000,-0.003627,-0.262911,0.000000
0.200000,-3.382379,-0.248741,-1.482805,0.083091,-0.025212,-0.001328,0.652425,-0.086501,-0.082432,2.683072,-0.027250,-0.475609,3.258340,1.665518,1.488233,-0.008725,-0.065857,0.000000,-0.002175,-0.266883,0.000000
0.210000,-3.381515,-0.248998,-1.482823,0.089750,-0.026078,-0.002174,0.679343,-0.086639,-0.086749,2.696490,0.001513,-0.377813,1.391581,2.252986,2.768540,-0.008734,-0.068536,0.000000,0.000647,-0.268566,-0.000000
0.220000,-3.380583,-0.249263,-1.482849,0.096679,-0.026944,-0.003062,0.706453,-0.086600,-0.091189,2.729375,0.000820,-0.561081,3.350091,-0.634505,-24.589212,-0.008724,-0.071230,0.000000,0.000745,-0.270232,0.000000
0.230000,-3.379581,-0.249537,-1.482884,0.103880,-0.027810,-0.004005,0.733792,-0.086524,-0.097240,2.724884,0.025739,-0.558123,-4.275147,5.663985,25.641442,-0.008709,-0.073931,0.000000,0.003255,-0.269379,0.000000
0.240000,-3.378505,-0.249819,-1.482929,0.111354,-0.028673,-0.005000,0.760809,-0.085980,-0.101545,2.682316,0.078157,-0.348502,-2.321451,3.026513,1.299566,-0.008649,-0.076610,0.000000,0.008343,-0.266347,-0.000000
0.250000,-3.377353,-0.250110,-1.482984,0.119095,-0.029528,-0.006034,0.787549,-0.085090,-0.105358,2.662959,0.101266,-0.404958,-3.407056,3.366798,2.340141,-0.008554,-0.079261,0.000000,0.010709,-0.263652,0.000000
0.260000,-3.376122,-0.250409,-1.483050,0.127103,-0.030374,-0.007108,0.813962,-0.083890,-0.109261,2.617273,0.139481,-0.374694,-4.374467,3.621844,2.536686,-0.008429,-0.081875,0.000000,0.014511,-0.259005,0.000000
0.270000,-3.374810,-0.250717,-1.483127,0.135373,-0.031205,-0.008219,0.839973,-0.082345,-0.112941,2.588169,0.167613,-0.365082,-2.718348,2.626596,0.519482,-0.008269,-0.084448,0.000000,0.017313,-0.255870,-0.000000
0.280000,-3.373414,-0.251033,-1.483214,0.143902,-0.032020,-0.009366,0.865639,-0.080502,-0.116505,2.536151,0.205083,-0.340490,-7.707059,4.881115,4.431254,-0.008079,-0.086985,0.000000,0.021034,-0.250588,-0.000000
0.290000,-3.371931,-0.251358,-1.483314,0.152684,-0.032813,-0.010548,0.890607,-0.078206,-0.119688,2.460541,0.252417,-0.299528,-6.092840,3.946323,2.609855,-0.007844,-0.089452,0.000000,0.025725,-0.243128,-0.000000
0.300000,-3.370359,-0.251690,-1.483425,0.161712,-0.033582,-0.011759,0.914935,-0.075500,-0.122582,2.403521,0.289295,-0.278602,-6.597860,4.056771,2.717115,-0.007569,-0.091855,0.000000,0.029379,-0.237379,0.000000
0.310000,-3.368696,-0.252029,-1.483549,0.170980,-0.034322,-0.012998,0.938613,-0.072396,-0.125230,2.331050,0.331605,-0.250946,-7.028082,4.129243,2.742373,-0.007254,-0.094194,0.000000,0.033568,-0.230178,-0.000000
0.320000,-3.366939,-0.252376,-1.483686,0.180482,-0.035029,-0.014263,0.961612,-0.068888,-0.127606,2.271127,0.369295,-0.224427,-5.778175,3.668181,2.624205,-0.006900,-0.096465,0.000000,0.037292,-0.224248,-0.000000
0.330000,-3.365086,-0.252730,-1.483835,0.190210,-0.035699,-0.015550,0.983987,-0.064997,-0.129715,2.198211,0.410424,-0.197139,-8.820559,4.562007,2.832789,-0.006507,-0.098674,0.000000,0.041358,-0.217059,0.000000
0.340000,-3.363134,-0.253090,-1.483997,0.200159,-0.036327,-0.016856,1.005525,-0.060665,-0.131546,2.111775,0.455129,-0.169145,-7.615899,4.109508,2.697613,-0.006071,-0.100801,0.000000,0.045778,-0.208561,-0.000000
0.350000,-3.361082,-0.253456,-1.484172,0.210318,-0.036911,-0.018180,1.026282,-0.055916,-0.133105,2.038929,0.494805,-0.142670,-7.784888,4.087657,2.660749,-0.005594,-0.102851,0.000000,0.049696,-0.201430,0.000000
0.360000,-3.358927,-0.253828,-1.484360,0.220682,-0.037444,-0.019517,1.046267,-0.050761,-0.134399,1.957618,0.536120,-0.116375,-7.916313,4.044075,2.605627,-0.005076,-0.104826,0.000000,0.053777,-0.193481,0.000000
0.370000,-3.356667,-0.254205,-1.484562,0.231241,-0.037924,-0.020867,1.065476,-0.045206,-0.135433,1.885833,0.574446,-0.090512,-6.971883,3.742709,2.555883,-0.004519,-0.106725,0.000000,0.057561,-0.186500,0.000000
0.380000,-3.354301,-0.254586,-1.484778,0.241989,-0.038347,-0.022225,1.083957,-0.039269,-0.136212,1.807015,0.613533,-0.065483,-8.803035,4.075760,2.447953,-0.003925,-0.108553,0.000000,0.061423,-0.178836,-0.000000
0.390000,-3.351827,-0.254972,-1.485007,0.252917,-0.038708,-0.023590,1.101587,-0.032931,-0.136746,1.720744,0.653391,-0.041404,-7.903936,3.767575,2.375360,-0.003291,-0.110299,0.000000,0.065365,-0.170443,-0.000000
0.400000,-3.349242,-0.255360,-1.485249,0.264018,-0.039004,-0.024959,1.118414,-0.026214,-0.137043,1.644421,0.689903,-0.018086,-7.898164,3.657753,2.278052,-0.002619,-0.111967,0.000000,0.068976,-0.163051,-0.000000
0.410000,-3.346546,-0.255751,-1.485506,0.275283,-0.039232,-0.026330,1.134456,-0.019133,-0.137111,1.563760,0.726199,0.004348,-7.875559,3.533354,2.176765,-0.001911,-0.113558,0.000000,0.072569,-0.155238,-0.000000
0.420000,-3.343736,-0.256145,-1.485776,0.286705,-0.039386,-0.027701,1.149719,-0.011700,-0.136962,1.490240,0.759920,0.025142,-7.170184,3.272739,2.010816,-0.001168,-0.115074,0.000000,0.075909,-0.148132,-0.000000
0.430000,-3.340811,-0.256539,-1.486060,0.298275,-0.039464,-0.029069,1.164246,-0.003936,-0.136610,1.413172,0.792953,0.045169,-8.251848,3.333884,1.994467,-0.000393,-0.116519,0.000000,0.079185,-0.140680,-0.000000
0.440000,-3.337770,-0.256934,-1.486357,0.309987,-0.039464,-0.030432,1.177967,0.004157,-0.136061,1.332218,0.825267,0.064410,-7.589230,3.062339,1.822856,0.000415,-0.117886,0.000000,0.082394,-0.132848,-0.000000
0.450000,-3.334611,-0.257328,-1.486668,0.321832,-0.039380,-0.031789,1.190921,0.012558,-0.135329,1.258464,0.854712,0.081863,-7.506674,2.889172,1.697290,0.001254,-0.119179,0.000000,0.085323,-0.125721,0.000000
0.460000,-3.331333,-0.257721,-1.486993,0.333803,-0.039211,-0.033138,1.203126,0.021248,-0.134427,1.182609,0.882858,0.098147,-7.421112,2.705118,1.565327,0.002121,-0.120400,0.000000,0.088127,-0.118383,0.000000
0.470000,-3.327935,-0.258112,-1.487331,0.345892,-0.038954,-0.034477,1.214595,0.030206,-0.133370,1.112289,0.908475,0.113218,-6.877128,2.448915,1.442143,0.003015,-0.121549,0.000000,0.090683,-0.111588,0.000000
0.480000,-3.324415,-0.258500,-1.487683,0.358092,-0.038607,-0.035805,1.225364,0.039412,-0.132168,1.040147,0.932484,0.126853,-7.557925,2.352347,1.284553,0.003934,-0.122631,0.000000,0.093084,-0.104603,-0.000000
0.490000,-3.320773,-0.258884,-1.488047,0.370397,-0.038165,-0.037120,1.235389,0.048851,-0.130837,0.965890,0.954839,0.139029,-7.056049,2.084604,1.156628,0.004877,-0.123640,0.000000,0.095326,-0.097397,0.000000
0.500000,-3.317007,-0.259263,-1.488425,0.382798,-0.037629,-0.038422,1.244704,0.058499,-0.129392,0.897016,0.974425,0.149928,-6.955264,1.863789,1.017328,0.005840,-0.124581,0.000000,0.097295,-0.090713,0.000000
0.510000,-3.313116,-0.259636,-1.488816,0.395288,-0.036995,-0.039708,1.253324,0.068333,-0.127842,0.827220,0.992022,0.159757,-6.856150,1.635143,0.885830,0.006822,-0.125454,0.000000,0.099071,-0.083930,-0.000000
0.520000,-3.309101,-0.260002,-1.489219,0.407862,-0.036262,-0.040978,1.261263,0.078330,-0.126206,0.761249,1.006926,0.167070,-6.481908,1.363136,0.637918,0.007820,-0.126261,0.000000,0.100581,-0.077497,-0.000000
0.530000,-3.304959,-0.260361,-1.489635,0.420511,-0.035428,-0.042232,1.268546,0.088464,-0.124502,0.694563,1.019652,0.173798,-6.860309,1.181511,0.709912,0.008833,-0.127004,0.000000,0.101877,-0.070988,-0.000000
0.540000,-3.300690,-0.260710,-1.490064,0.433231,-0.034492,-0.043468,1.275150,0.098716,-0.122731,0.626934,1.030158,0.180043,-6.521139,0.899645,0.477954,0.009857,-0.127680,0.000000,0.102956,-0.064381,0.000000
0.550000,-3.296294,-0.261050,-1.490504,0.446012,-0.033453,-0.044686,1.281099,0.109058,-0.120910,0.562905,1.037785,0.183891,-6.430582,0.643469,0.352942,0.010891,-0.128293,0.000000,0.103749,-0.058100,-0.000000
0.560000,-3.291770,-0.261379,-1.490957,0.458850,-0.032311,-0.045886,1.286406,0.119464,-0.119054,0.498558,1.042965,0.187162,-6.345914,0.381351,0.234293,0.011931,-0.128842,0.000000,0.104301,-0.051781,-0.000000
0.570000,-3.287117,-0.261696,-1.491422,0.471738,-0.031064,-0.047067,1.291081,0.129907,-0.117177,0.436834,1.045299,0.187965,-6.090582,0.094486,-0.007501,0.012976,-0.129329,0.000000,0.104568,-0.045690,-0.000000
0.580000,-3.282335,-0.262000,-1.491899,0.484670,-0.029712,-0.048230,1.295141,0.140361,-0.115296,0.374818,1.045047,0.188400,-6.316448,-0.145272,0.097073,0.014022,-0.129756,0.000000,0.104579,-0.039563,0.000000
0.590000,-3.277423,-0.262290,-1.492387,0.497639,-0.028257,-0.049373,1.298575,0.150800,-0.113409,0.312329,1.042175,0.188593,-6.090413,-0.440013,-0.124031,0.015067,-0.130120,0.000000,0.104331,-0.033385,-0.000000
0.600000,-3.272382,-0.262565,-1.492886,0.510639,-0.026697,-0.050498,1.301397,0.161194,-0.111533,0.252210,1.036318,0.186495,-6.025948,-0.722101,-0.228821,0.016108,-0.130424,0.000000,0.103782,-0.027411,0.000000
0.610000,-3.267211,-0.262824,-1.493397,0.523665,-0.025033,-0.051604,1.303617,0.171517,-0.109681,0.191852,1.027680,0.183659,-5.969735,-1.008614,-0.335497,0.017141,-0.130668,0.000000,0.102956,-0.021401,-0.000000
0.620000,-3.261909,-0.263065,-1.493918,0.536710,-0.023267,-0.052692,1.305242,0.181738,-0.107863,0.133503,1.016113,0.179791,-5.775669,-1.303134,-0.437295,0.018166,-0.130853,0.000000,0.101835,-0.015574,0.000000
0.630000,-3.256476,-0.263289,-1.494450,0.549768,-0.021399,-0.053761,1.306285,0.191829,-0.106089,0.074753,1.001651,0.174926,-5.977647,-1.589646,-0.534980,0.019177,-0.130980,0.000000,0.100424,-0.009692,-0.000000
0.640000,-3.250913,-0.263493,-1.494993,0.562833,-0.019430,-0.054813,1.306735,0.201761,-0.104368,0.015441,0.984266,0.169106,-5.810519,-1.890188,-0.628329,0.020173,-0.131047,0.000000,0.098719,-0.003740,-0.000000
0.650000,-3.245220,-0.263677,-1.495547,0.575901,-0.017364,-0.055849,1.306601,0.211505,-0.102710,-0.042111,0.963857,0.162375,-5.776233,-2.189781,-0.717213,0.021151,-0.131055,0.000000,0.096710,0.002053,0.000000
0.660000,-3.239395,-0.263840,-1.496110,0.588964,-0.015201,-0.056868,1.305891,0.221029,-0.101122,-0.099953,0.940448,0.155007,-5.747663,-2.491940,-0.796918,0.022106,-0.131006,0.000000,0.094398,0.007885,-0.000000
0.670000,-3.233440,-0.263981,-1.496684,0.602017,-0.012944,-0.057872,1.304607,0.230303,-0.099615,-0.156664,0.914016,0.146071,-5.639398,-2.795252,-0.949336,0.023038,-0.130898,0.000000,0.091778,0.013629,0.000000
0.680000,-3.227355,-0.264098,-1.497268,0.615054,-0.010596,-0.058861,1.302756,0.239299,-0.098201,-0.213679,0.884527,0.136878,-5.765677,-3.102749,-0.887322,0.023941,-0.130733,0.000000,0.088851,0.019408,0.000000
0.690000,-3.221139,-0.264192,-1.497861,0.628070,-0.008159,-0.059836,1.300332,0.247984,-0.096878,-0.271104,0.851965,0.127528,-5.675621,-3.409269,-1.022503,0.024814,-0.130509,0.000000,0.085615,0.025233,-0.000000
0.700000,-3.214794,-0.264261,-1.498464,0.641059,-0.005637,-0.060798,1.297338,0.256328,-0.095656,-0.327579,0.816334,0.116792,-5.664455,-3.717594,-1.084095,0.025652,-0.130228,0.000000,0.082066,0.030984,-0.000000
0.710000,-3.208318,-0.264305,-1.499077,0.654015,-0.003034,-0.061749,1.293779,0.264300,-0.094543,-0.384340,0.777590,0.105671,-5.657568,-4.027083,-1.143651,0.026454,-0.129889,0.000000,0.078202,0.036770,0.000000
0.720000,-3.201714,-0.264322,-1.499699,0.666932,-0.000353,-0.062690,1.289654,0.271870,-0.093545,-0.440456,0.735832,0.093894,-5.596086,-4.328695,-1.206818,0.027215,-0.129493,0.000000,0.074032,0.042503,0.000000
0.730000,-3.194980,-0.264311,-1.500331,0.679806,0.002402,-0.063621,1.284968,0.279006,-0.092667,-0.496899,0.690926,0.081635,-5.693677,-4.652547,-1.244276,0.027933,-0.129039,0.000000,0.069543,0.048277,-0.000000
0.740000,-3.188118,-0.264273,-1.500972,0.692630,0.005226,-0.064543,1.279715,0.285678,-0.091914,-0.553731,0.642869,0.068940,-5.642850,-4.954598,-1.298212,0.028605,-0.128527,0.000000,0.064735,0.054096,-0.000000
0.750000,-3.181127,-0.264207,-1.501622,0.705398,0.008114,-0.065459,1.273896,0.291854,-0.091290,-0.610021,0.591800,0.055721,-5.645095,-5.263199,-1.340938,0.029227,-0.127957,0.000000,0.059620,0.059869,-0.000000
0.760000,-3.174010,-0.264111,-1.502281,0.718106,0.011061,-0.066370,1.267513,0.297503,-0.090801,-0.666577,0.537590,0.042049,-5.648223,-5.571187,-1.381233,0.029796,-0.127329,0.000000,0.054187,0.065676,0.000000
0.770000,-3.166766,-0.263985,-1.502949,0.730747,0.014062,-0.067276,1.260566,0.302596,-0.090449,-0.722821,0.480449,0.028215,-5.618168,-5.863919,-1.396099,0.030310,-0.126643,0.000000,0.048457,0.071454,0.000000
0.780000,-3.159395,-0.263830,-1.503626,0.743315,0.017111,-0.068179,1.253056,0.307102,-0.090238,-0.779305,0.420169,0.013907,-5.679136,-6.191965,-1.465159,0.030764,-0.125899,0.000000,0.042409,0.077263,0.000000
0.790000,-3.151899,-0.263643,-1.504313,0.755806,0.020202,-0.069081,1.244979,0.310989,-0.090173,-0.836049,0.356762,-0.000850,-5.651932,-6.481893,-1.474310,0.031157,-0.125097,0.000000,0.036042,0.083104,-0.000000
0.800000,-3.144279,-0.263425,-1.505008,0.768213,0.023329,-0.069983,1.236336,0.314227,-0.090255,-0.892481,0.290479,-0.015664,-5.652505,-6.781287,-1.498761,0.031484,-0.124236,0.000000,0.029385,0.088914,-0.000000
0.810000,-3.136536,-0.263176,-1.505712,0.780531,0.026484,-0.070887,1.227129,0.316788,-0.090488,-0.949028,0.221132,-0.030900,-5.650877,-7.078090,-1.521344,0.031744,-0.123317,0.000000,0.022417,0.094740,-0.000000
0.820000,-3.128669,-0.262896,-1.506426,0.792754,0.029662,-0.071793,1.217356,0.318641,-0.090872,-1.005438,0.149015,-0.045834,-5.636093,-7.353782,-1.490424,0.031932,-0.122340,0.000000,0.015170,0.100548,0.000000
0.830000,-3.120681,-0.262583,-1.507148,0.804876,0.032855,-0.072705,1.207020,0.319758,-0.091406,-1.061853,0.073879,-0.061233,-5.646507,-7.672966,-1.589584,0.032046,-0.121305,0.000000,0.007616,0.106361,-0.000000
0.840000,-3.112572,-0.262238,-1.507880,0.816892,0.036055,-0.073622,1.196119,0.320108,-0.092098,-1.118246,-0.004245,-0.077092,-5.625921,-7.942001,-1.555559,0.032083,-0.120212,0.000000,-0.000240,0.112175,0.000000
0.850000,-3.104343,-0.261862,-1.508621,0.828796,0.039254,-0.074547,1.184656,0.319664,-0.092946,-1.174405,-0.085022,-0.092550,-5.610746,-8.221661,-1.561128,0.032040,-0.119061,0.000000,-0.008363,0.117960,-0.000000
0.860000,-3.095996,-0.261453,-1.509371,0.840583,0.042445,-0.075481,1.172632,0.318398,-0.093951,-1.230346,-0.168667,-0.108361,-5.586672,-8.496320,-1.564140,0.031915,-0.117852,0.000000,-0.016776,0.123725,-0.000000
0.870000,-3.087532,-0.261013,-1.510130,0.852247,0.045619,-0.076427,1.160049,0.316283,-0.095110,-1.286164,-0.254834,-0.123478,-5.569891,-8.746061,-1.494037,0.031704,-0.116585,0.000000,-0.025442,0.129467,-0.000000
0.880000,-3.078952,-0.260541,-1.510899,0.863782,0.048768,-0.077384,1.146910,0.313292,-0.096422,-1.341596,-0.343774,-0.138970,-5.515180,-9.041146,-1.604639,0.031405,-0.115261,0.000000,-0.034387,0.135172,-0.000000
0.890000,-3.070257,-0.260038,-1.511678,0.875184,0.051882,-0.078356,1.133219,0.309398,-0.097891,-1.396566,-0.435434,-0.154834,-5.483699,-9.279595,-1.531299,0.031015,-0.113881,0.000000,-0.043606,0.140831,-0.000000
0.900000,-3.061449,-0.259504,-1.512466,0.886445,0.054953,-0.079342,1.118980,0.304576,-0.099515,-1.451191,-0.529426,-0.169878,-5.434051,-9.527501,-1.512704,0.030532,-0.112443,0.000000,-0.053057,0.146444,0.000000
0.910000,-3.052528,-0.258939,-1.513265,0.897561,0.057971,-0.080346,1.104197,0.298801,-0.101290,-1.505140,-0.625957,-0.185187,-5.374422,-9.767882,-1.491961,0.029953,-0.110951,0.000000,-0.062764,0.151987,-0.000000
0.920000,-3.043498,-0.258344,-1.514073,0.908527,0.060926,-0.081369,1.088877,0.292050,-0.103213,-1.558834,-0.724668,-0.199179,-5.343377,-9.981983,-1.359647,0.029276,-0.109402,0.000000,-0.072683,0.157487,-0.000000
0.930000,-3.034358,-0.257721,-1.514892,0.919337,0.063808,-0.082411,1.073024,0.284300,-0.105275,-1.611569,-0.825760,-0.213498,-5.201491,-10.235251,-1.504526,0.028499,-0.107800,0.000000,-0.082842,0.162890,-0.000000
0.940000,-3.025112,-0.257069,-1.515722,0.929986,0.066608,-0.083475,1.056650,0.275527,-0.107485,-1.663223,-0.929154,-0.228143,-5.147119,-10.432565,-1.368208,0.027619,-0.106144,0.000000,-0.093230,0.168183,0.000000
0.950000,-3.015759,-0.256389,-1.516562,0.940468,0.069315,-0.084561,1.039761,0.265711,-0.109832,-1.714318,-1.034457,-0.241298,-5.049812,-10.635505,-1.316226,0.026634,-0.104435,0.000000,-0.103804,0.173400,0.000000
0.960000,-3.006303,-0.255683,-1.517413,0.950779,0.071919,-0.085672,1.022368,0.254831,-0.112309,-1.764125,-1.141825,-0.253971,-4.939382,-10.827992,-1.248170,0.025542,-0.102675,0.000000,-0.114580,0.178477,0.000000
0.970000,-2.996744,-0.254951,-1.518275,0.960914,0.074408,-0.086808,1.004480,0.242868,-0.114912,-1.813342,-1.250904,-0.266517,-4.873289,-10.993831,-1.228923,0.024341,-0.100865,0.000000,-0.125523,0.183489,-0.000000
0.980000,-2.987085,-0.254195,-1.519149,0.970867,0.076773,-0.087970,0.986107,0.229806,-0.117635,-1.860948,-1.361828,-0.277877,-4.645068,-11.189280,-1.040529,0.023031,-0.099005,0.000000,-0.136645,0.188323,0.000000
0.990000,-2.977328,-0.253416,-1.520035,0.980635,0.079001,-0.089161,0.967267,0.215626,-0.120465,-1.906785,-1.474487,-0.287906,-4.549483,-11.332290,-0.994073,0.021608,-0.097098,0.000000,-0.147933,0.192961,-0.000000
1.000000,-2.967473,-0.252615,-1.520933,0.990211,0.081081,-0.090380,0.947974,0.200312,-0.123392,-1.951656,-1.588498,-0.297463,-4.392930,-11.475718,-0.884677,0.020072,-0.095145,0.000000,-0.159350,0.197493,-0.000000
1.010000,-2.957524,-0.251795,-1.521843,0.999593,0.083003,-0.091629,0.928240,0.183851,-0.126412,-1.994748,-1.703961,-0.306269,-4.225260,-11.605869,-0.776381,0.018420,-0.093148,0.000000,-0.170906,0.201835,0.000000
1.020000,-2.947482,-0.250956,-1.522765,1.008775,0.084754,-0.092909,0.908084,0.166230,-0.129506,-2.036135,-1.820486,-0.312046,-4.048140,-11.705176,-0.472074,0.016653,-0.091108,0.000000,-0.182556,0.205973,0.000000
1.030000,-2.937349,-0.250100,-1.523701,1.017753,0.086324,-0.094219,0.887524,0.147437,-0.132653,-2.075631,-1.938194,-0.317667,-3.848782,-11.834097,-0.652759,0.014769,-0.089028,0.000000,-0.194318,0.209917,-0.000000
1.040000,-2.927128,-0.249230,-1.524650,1.026524,0.087699,-0.095562,0.866578,0.127462,-0.135860,-2.113101,-2.056943,-0.323126,-3.644887,-11.904458,-0.340515,0.012767,-0.086910,0.000000,-0.206177,0.213652,0.000000
1.050000,-2.916819,-0.248347,-1.525612,1.035083,0.088869,-0.096937,0.845269,0.106297,-0.139103,-2.148461,-2.176302,-0.325242,-3.423638,-11.973053,-0.175911,0.010645,-0.084756,0.000000,-0.218085,0.217143,0.000000
1.060000,-2.906427,-0.247453,-1.526589,1.043428,0.089821,-0.098344,0.823618,0.083934,-0.142360,-2.181304,-2.296328,-0.325941,-3.184097,-12.024646,0.013840,0.008405,-0.082568,0.000000,-0.230052,0.220368,0.000000
1.070000,-2.895952,-0.246551,-1.527579,1.051555,0.090544,-0.099784,0.801648,0.060369,-0.145617,-2.212477,-2.416693,-0.325138,-3.007765,-12.049827,0.174036,0.006044,-0.080349,0.000000,-0.242043,0.223411,-0.000000
1.080000,-2.885396,-0.245643,-1.528584,1.059460,0.091025,-0.101256,0.779379,0.035599,-0.148855,-2.240567,-2.537359,-0.321890,-2.606523,-12.080418,0.479348,0.003564,-0.078101,0.000000,-0.254056,0.226125,-0.000000
1.090000,-2.874763,-0.244732,-1.529604,1.067141,0.091252,-0.102761,0.756847,0.009621,-0.152046,-2.265372,-2.658146,-0.315979,-2.392760,-12.069193,0.681576,0.000963,-0.075827,0.000000,-0.266074,0.228491,-0.000000
1.100000,-2.864054,-0.243819,-1.530640,1.074596,0.091213,-0.104297,0.734078,-0.017563,-0.155168,-2.288034,-2.778716,-0.307985,-2.095907,-12.046078,0.945097,-0.001758,-0.073532,0.000000,-0.278064,0.230628,0.000000
1.110000,-2.853272,-0.242908,-1.531690,1.081822,0.090896,-0.105864,0.711099,-0.045952,-0.158192,-2.307240,-2.899009,-0.296376,-1.782313,-12.002975,1.242745,-0.004598,-0.071216,0.000000,-0.290022,0.232396,0.000000
1.120000,-2.842419,-0.242002,-1.532757,1.088818,0.090290,-0.107460,0.687941,-0.075541,-0.161096,-2.323994,-3.018649,-0.284325,-1.527907,-11.927382,1.304211,-0.007558,-0.068884,0.000000,-0.301911,0.233920,0.000000
1.130000,-2.831496,-0.241104,-1.533840,1.095581,0.089382,-0.109085,0.664632,-0.106323,-0.163862,-2.336944,-3.137609,-0.267422,-1.058470,-11.861067,2.084167,-0.010636,-0.066539,0.000000,-0.313733,0.235037,0.000000
1.140000,-2.820508,-0.240216,-1.534939,1.102110,0.088160,-0.110737,0.641215,-0.138290,-0.166426,-2.345891,-3.255676,-0.245269,-0.767102,-11.742480,2.215268,-0.013832,-0.064185,0.000000,-0.325472,0.235727,-0.000000
1.150000,-2.809455,-0.239341,-1.536055,1.108405,0.086612,-0.112413,0.617723,-0.171432,-0.168765,-2.351910,-3.372432,-0.221905,-0.395750,-11.610874,2.595612,-0.017145,-0.061825,0.000000,-0.337085,0.236128,0.000000
1.160000,-2.798340,-0.238484,-1.537187,1.114464,0.084727,-0.114111,0.594190,-0.205734,-0.170847,-2.354010,-3.487844,-0.193852,-0.013514,-11.456238,2.991608,-0.020574,-0.059463,0.000000,-0.348578,0.236122,-0.000000
1.170000,-2.787166,-0.237648,-1.538337,1.120288,0.082493,-0.115829,0.570657,-0.241182,-0.172631,-2.352056,-3.601372,-0.162249,0.398501,-11.256036,3.358463,-0.024116,-0.057103,0.000000,-0.359899,0.235705,-0.000000
1.180000,-2.775935,-0.236836,-1.539504,1.125877,0.079900,-0.117563,0.547162,-0.277756,-0.174077,-2.346163,-3.713108,-0.126064,0.782292,-11.087243,3.882925,-0.027771,-0.054749,0.000000,-0.371066,0.234886,0.000000
1.190000,-2.764650,-0.236051,-1.540688,1.131232,0.076935,-0.119309,0.523747,-0.315438,-0.175136,-2.336200,-3.822810,-0.085048,1.220735,-10.837716,4.297591,-0.031537,-0.052405,0.000000,-0.382062,0.233655,0.000000
1.200000,-2.753312,-0.235298,-1.541890,1.136353,0.073587,-0.121064,0.500453,-0.354203,-0.175764,-2.321771,-3.929865,-0.039817,1.659168,-10.579820,4.778459,-0.035412,-0.050075,0.000000,-0.392831,0.231979,-0.000000
1.210000,-2.741923,-0.234581,-1.543109,1.141242,0.069847,-0.122823,0.477327,-0.394026,-0.175912,-2.302796,-4.034306,0.011355,2.115266,-10.294604,5.295059,-0.039393,-0.047764,0.000000,-0.403391,0.229846,-0.000000
1.220000,-2.730487,-0.233903,-1.544346,1.145900,0.065703,-0.124581,0.454411,-0.434879,-0.175533,-2.279618,-4.135581,0.064604,2.543786,-9.964205,5.520255,-0.043478,-0.045476,0.000000,-0.413678,0.227311,0.000000
1.230000,-2.719006,-0.233268,-1.545601,1.150331,0.061146,-0.126332,0.431751,-0.476727,-0.174594,-2.251428,-4.233674,0.125232,3.097096,-9.649602,6.613546,-0.047666,-0.043215,0.000000,-0.423722,0.224273,0.000000
1.240000,-2.707482,-0.232681,-1.546873,1.154536,0.056166,-0.128070,0.409400,-0.519541,-0.173001,-2.218061,-4.328298,0.193653,3.557005,-9.261556,6.909893,-0.051952,-0.040987,0.000000,-0.433511,0.220718,0.000000
1.250000,-2.695916,-0.232146,-1.548162,1.158520,0.050752,-0.129789,0.387405,-0.563280,-0.170714,-2.180055,-4.418875,0.264884,4.067113,-8.857304,7.501806,-0.056335,-0.038796,0.000000,-0.442971,0.216725,0.000000
1.260000,-2.684312,-0.231668,-1.549469,1.162286,0.044897,-0.131482,0.365818,-0.607904,-0.167676,-2.136482,-4.505300,0.343856,4.594775,-8.420907,8.118895,-0.060810,-0.036647,0.000000,-0.452132,0.212184,0.000000
1.270000,-2.672671,-0.231250,-1.550792,1.165838,0.038591,-0.133140,0.344689,-0.653371,-0.163830,-2.088624,-4.587172,0.425687,5.032269,-7.949391,8.420692,-0.065376,-0.034546,0.000000,-0.460935,0.207244,0.000000
1.280000,-2.660996,-0.230897,-1.552131,1.169181,0.031827,-0.134756,0.324066,-0.699632,-0.159133,-2.034674,-4.664204,0.515908,5.761314,-7.451389,9.630906,-0.070028,-0.032496,0.000000,-0.469399,0.201706,-0.000000
1.290000,-2.649288,-0.230615,-1.553487,1.172321,0.024596,-0.136320,0.304017,-0.746637,-0.153482,-1.974438,-4.736059,0.614878,6.233878,-6.912560,9.991793,-0.074763,-0.030504,0.000000,-0.477512,0.195554,-0.000000
1.300000,-2.637550,-0.230407,-1.554858,1.175263,0.016892,-0.137822,0.284592,-0.794334,-0.146827,-1.909498,-4.802349,0.717249,6.809472,-6.340905,10.655456,-0.079577,-0.028575,0.000000,-0.485211,0.188964,-0.000000
1.310000,-2.625784,-0.230279,-1.556243,1.178015,0.008707,-0.139253,0.265850,-0.842664,-0.139107,-1.837753,-4.862623,0.828082,7.407074,-5.730811,11.334460,-0.084466,-0.026715,0.000000,-0.492504,0.181711,-0.000000
1.320000,-2.613990,-0.230235,-1.557642,1.180583,0.000037,-0.140601,0.247846,-0.891568,-0.130257,-1.762558,-4.917056,0.942320,7.763661,-5.127314,11.686013,-0.089426,-0.024928,0.000000,-0.499383,0.174144,-0.000000
1.330000,-2.602172,-0.230280,-1.559055,1.182975,-0.009126,-0.141854,0.230626,-0.940982,-0.120229,-1.679718,-4.964574,1.065424,8.809729,-4.369399,12.940176,-0.094452,-0.023220,0.000000,-0.505802,0.165828,0.000000
1.340000,-2.590331,-0.230419,-1.560479,1.185198,-0.018784,-0.143001,0.214279,-0.990835,-0.108917,-1.588971,-5.004770,1.197636,9.209379,-3.686064,13.327825,-0.099540,-0.021600,0.000000,-0.511745,0.156734,-0.000000
1.350000,-2.578469,-0.230657,-1.561914,1.187263,-0.028944,-0.144028,0.198857,-1.041055,-0.096268,-1.494394,-5.037974,1.333451,9.838079,-2.925665,14.006958,-0.104685,-0.020071,0.000000,-0.517208,0.147281,-0.000000
1.360000,-2.566587,-0.230999,-1.563359,1.189179,-0.039606,-0.144921,0.184421,-1.091565,-0.082214,-1.391474,-5.062815,1.478693,10.491515,-2.118369,14.704711,-0.109882,-0.018641,0.000000,-0.522129,0.136998,-0.000000
1.370000,-2.554686,-0.231451,-1.564812,1.190955,-0.050776,-0.145667,0.171028,-1.142290,-0.066698,-1.286903,-5.080967,1.624425,10.670489,-1.425367,14.764759,-0.115126,-0.017315,0.000000,-0.526595,0.126567,-0.000000
1.380000,-2.542768,-0.232016,-1.566272,1.192603,-0.062453,-0.146250,0.158717,-1.193152,-0.049687,-1.172864,-5.089512,1.780763,12.144887,-0.274548,16.509911,-0.120412,-0.016096,0.000000,-0.530441,0.115178,-0.000000
1.390000,-2.530834,-0.232701,-1.567737,1.194133,-0.074639,-0.146656,0.147606,-1.244046,-0.031044,-1.049021,-5.087940,1.947979,12.373088,0.515127,16.601412,-0.125733,-0.014998,0.000000,-0.533645,0.102786,-0.000000
1.400000,-2.518886,-0.233511,-1.569205,1.195559,-0.087333,-0.146866,0.137738,-1.294886,-0.010732,-0.923297,-5.078390,2.115497,13.020147,1.481987,17.224762,-0.131083,-0.014024,0.000000,-0.536304,0.090196,0.000000
1.410000,-2.506923,-0.234450,-1.570673,1.196893,-0.100536,-0.146864,0.129167,-1.345577,0.011303,-0.789797,-5.058019,2.292839,13.647284,2.495706,17.841163,-0.136457,-0.013181,0.000000,-0.538270,0.076784,-0.000000
1.420000,-2.494948,-0.235523,-1.572141,1.198147,-0.114244,-0.146634,0.121960,-1.396020,0.035112,-0.650672,-5.029291,2.468549,14.206035,3.356832,17.679460,-0.141847,-0.012476,0.000000,-0.539643,0.062768,0.000000
1.430000,-2.482961,-0.236736,-1.573605,1.199337,-0.128455,-0.146156,0.116176,-1.446122,0.060711,-0.505086,-4.988645,2.654372,14.909627,4.782059,19.489532,-0.147247,-0.011916,0.000000,-0.540240,0.048031,-0.000000
1.440000,-2.470962,-0.238094,-1.575063,1.200476,-0.143165,-0.145413,0.111880,-1.495751,0.088237,-0.353141,-4.935543,2.850386,15.446029,5.743971,19.315816,-0.152649,-0.011508,0.000000,-0.540030,0.032563,-0.000000
1.450000,-2.458951,-0.239601,-1.576513,1.201579,-0.158368,-0.144385,0.109130,-1.544802,0.117703,-0.195968,-4.872775,3.043804,16.015726,6.916948,19.745472,-0.158045,-0.011259,0.000000,-0.539102,0.016473,-0.000000
1.460000,-2.446930,-0.241263,-1.577950,1.202663,-0.174059,-0.143053,0.107966,-1.593157,0.149118,-0.036345,-4.795899,3.239389,16.497687,8.156444,20.015009,-0.163427,-0.011175,0.000000,-0.537082,0.000015,-0.000000
1.470000,-2.434898,-0.243084,-1.579372,1.203744,-0.190229,-0.141396,0.108467,-1.640703,0.182552,0.139371,-4.712357,3.449883,18.066771,8.857207,21.439069,-0.168787,-0.011266,0.000000,-0.534934,-0.018248,-0.000000
1.480000,-2.422855,-0.245069,-1.580777,1.204839,-0.206870,-0.139394,0.110741,-1.687347,0.218092,0.312845,-4.612357,3.654636,16.606676,11.157974,19.479629,-0.174121,-0.011545,0.000000,-0.531333,-0.036450,-0.000000
1.490000,-2.410801,-0.247223,-1.582159,1.205965,-0.223972,-0.137028,0.114708,-1.732891,0.255615,0.483070,-4.495135,3.852045,18.015496,11.990061,20.629157,-0.179408,-0.012005,0.000000,-0.526137,-0.054503,-0.000000
1.500000,-2.398736,-0.249550,-1.583516,1.207139,-0.241524,-0.134275,0.120463,-1.777228,0.295185,0.668167,-4.369886,4.061535,18.420822,13.365863,20.618159,-0.184643,-0.012660,0.000000,-0.520621,-0.074331,0.000000
1.510000,-2.386658,-0.252055,-1.584843,1.208380,-0.259512,-0.131117,0.128090,-1.820227,0.336833,0.858471,-4.227433,4.268113,18.922160,14.789456,20.579913,-0.189815,-0.013521,0.000000,-0.513567,-0.094959,-0.000000
1.520000,-2.374568,-0.254742,-1.586137,1.209707,-0.277923,-0.127532,0.137590,-1.861756,0.380536,1.039964,-4.077136,4.471900,18.065811,15.603629,20.264453,-0.194913,-0.014590,0.000000,-0.505907,-0.114965,0.000000
1.530000,-2.362464,-0.257615,-1.587392,1.211138,-0.296742,-0.123499,0.148937,-1.901706,0.426270,1.234264,-3.908360,4.675233,20.811589,18.165499,20.390397,-0.199927,-0.015870,0.000000,-0.496572,-0.136628,-0.000000
1.540000,-2.350345,-0.260678,-1.588605,1.212693,-0.315951,-0.119000,0.162326,-1.939857,0.474037,1.442076,-3.720435,4.877366,20.045943,19.089227,19.918998,-0.204838,-0.017385,0.000000,-0.485438,-0.160081,0.000000
1.550000,-2.338209,-0.263935,-1.589771,1.214391,-0.335533,-0.114012,0.177737,-1.976091,0.523798,1.641026,-3.523697,5.074168,20.435920,20.592570,19.526640,-0.209634,-0.019138,0.000000,-0.473448,-0.183010,0.000000
1.560000,-2.326056,-0.267390,-1.590884,1.216254,-0.355466,-0.108517,0.195180,-2.010265,0.575512,1.848282,-3.308404,5.267854,20.772069,22.123549,19.046036,-0.214300,-0.021133,0.000000,-0.459595,-0.207260,-0.000000
1.570000,-2.313884,-0.271045,-1.591939,1.218302,-0.375731,-0.102496,0.214694,-2.042236,0.629125,2.054154,-3.084369,5.453387,20.625261,23.017532,18.186689,-0.218823,-0.023381,0.000000,-0.444730,-0.231840,0.000000
1.580000,-2.301690,-0.274905,-1.592932,1.220555,-0.396303,-0.095929,0.236283,-2.071886,0.684565,2.265468,-2.841050,5.634244,21.636960,25.656429,17.970922,-0.223188,-0.025887,0.000000,-0.427776,-0.257519,0.000000
1.590000,-2.289472,-0.278973,-1.593856,1.223035,-0.417160,-0.088798,0.260022,-2.098989,0.741793,2.482078,-2.578005,5.809532,21.444334,26.614437,16.923015,-0.227371,-0.028666,0.000000,-0.408592,-0.284331,-0.000000
1.600000,-2.277228,-0.283249,-1.594706,1.225762,-0.438274,-0.081087,0.285912,-2.123422,0.800715,2.696152,-2.305936,5.973551,21.592180,28.132595,16.005031,-0.231356,-0.031725,0.000000,-0.388089,-0.311458,-0.000000
1.610000,-2.264956,-0.287739,-1.595476,1.228760,-0.459619,-0.072779,0.313940,-2.145039,0.861210,2.909310,-2.014763,6.122912,21.603780,29.660761,14.847410,-0.235123,-0.035068,0.000000,-0.365034,-0.339087,-0.000000
1.620000,-2.252652,-0.292443,-1.596160,1.232048,-0.481165,-0.063858,0.344144,-2.163702,0.923214,3.133310,-1.716830,6.279299,22.628912,30.345996,15.439357,-0.238655,-0.038706,0.000000,-0.341182,-0.368622,-0.000000
1.630000,-2.240314,-0.297363,-1.596751,1.235650,-0.502883,-0.054309,0.376578,-2.179307,0.986706,3.349981,-1.399029,6.410922,20.677217,33.221626,10.834930,-0.241936,-0.042654,0.000000,-0.314263,-0.398000,-0.000000
1.640000,-2.227938,-0.302501,-1.597244,1.239587,-0.524740,-0.044120,0.411110,-2.191612,1.051334,3.557915,-1.061125,6.515231,21.461382,33.923016,10.986790,-0.244929,-0.046903,0.000000,-0.284035,-0.427025,0.000000
1.650000,-2.215521,-0.307858,-1.597631,1.243880,-0.546704,-0.033279,0.447774,-2.200516,1.117036,3.774216,-0.717085,6.621938,21.226900,35.303938,9.358626,-0.247615,-0.051464,0.000000,-0.252660,-0.457754,0.000000
1.660000,-2.203059,-0.313435,-1.597907,1.248550,-0.568739,-0.021776,0.486581,-2.205894,1.183681,3.986875,-0.356149,6.703828,20.994689,36.628573,7.609082,-0.249971,-0.056347,0.000000,-0.218148,-0.488729,0.000000
1.670000,-2.190548,-0.319233,-1.598064,1.253618,-0.590809,-0.009603,0.527478,-2.207616,1.251102,4.191129,0.013020,6.779343,20.134406,37.430840,6.884653,-0.251972,-0.061551,0.000000,-0.181835,-0.519519,0.000000
1.680000,-2.177985,-0.325251,-1.598097,1.259106,-0.612879,0.003248,0.570406,-2.205582,1.319176,4.395416,0.397206,6.828752,20.719873,39.400714,2.960632,-0.253596,-0.067078,0.000000,-0.142300,-0.550924,-0.000000
1.690000,-2.165365,-0.331490,-1.597997,1.265033,-0.634908,0.016782,0.615388,-2.199621,1.387579,4.599407,0.795955,6.850154,19.772635,40.094882,1.899037,-0.254807,-0.072936,0.000000,-0.099387,-0.582854,0.000000
1.700000,-2.152683,-0.337949,-1.597759,1.271420,-0.656858,0.031000,0.662354,-2.189646,1.456156,4.793096,1.200831,6.861330,19.243944,41.102997,-0.275017,-0.255578,-0.079122,0.000000,-0.054443,-0.614267,0.000000
1.710000,-2.139935,-0.344627,-1.597375,1.278287,-0.678687,0.045905,0.711230,-2.175569,1.524698,4.980781,1.616150,6.842797,18.581213,41.989202,-2.601549,-0.255884,-0.085632,0.000000,-0.006309,-0.645417,-0.000000
1.720000,-2.127116,-0.351522,-1.596838,1.285651,-0.700355,0.061493,0.761971,-2.157292,1.593001,5.167199,2.040671,6.816771,18.396996,42.851049,-3.437390,-0.255696,-0.092467,0.000000,0.044348,-0.677004,-0.000000
1.730000,-2.114220,-0.358633,-1.596143,1.293532,-0.721819,0.077763,0.814534,-2.134733,1.660913,5.342320,2.471831,6.756569,16.603720,43.358842,-8.641453,-0.254987,-0.099623,0.000000,0.098088,-0.707502,-0.000000
1.740000,-2.101243,-0.365958,-1.595281,1.301947,-0.743035,0.094709,0.868773,-2.107838,1.728006,5.504878,2.908327,6.660280,16.187432,43.963284,-9.800296,-0.253724,-0.107084,0.000000,0.154890,-0.736560,-0.000000
1.750000,-2.088179,-0.373493,-1.594246,1.310913,-0.763961,0.112320,0.924623,-2.076548,1.794098,5.663280,3.350255,6.553324,15.184608,44.353649,-12.425878,-0.251882,-0.114841,0.000000,0.214087,-0.765355,-0.000000
1.760000,-2.075023,-0.381236,-1.593032,1.320445,-0.784551,0.130587,0.981987,-2.040836,1.858944,5.807345,3.792134,6.410866,14.061695,44.540904,-15.154679,-0.249434,-0.122882,0.000000,0.275769,-0.792198,-0.000000
1.770000,-2.061768,-0.389183,-1.591633,1.330557,-0.804763,0.149494,1.040767,-2.000657,1.922298,5.948342,4.245567,6.258546,13.687983,45.592087,-16.206998,-0.246355,-0.131190,0.000000,0.340574,-0.818641,-0.000000
1.780000,-2.048410,-0.397330,-1.590040,1.341265,-0.824550,0.169027,1.100891,-1.955951,1.983980,6.071679,4.692369,6.067904,10.951258,43.724775,-21.953099,-0.242617,-0.139754,0.000000,0.407119,-0.842317,-0.000000
1.790000,-2.034941,-0.405672,-1.588250,1.352579,-0.843867,0.189167,1.162134,-1.906844,2.043516,6.175873,5.130184,5.837472,10.312108,44.342948,-23.234550,-0.238209,-0.148532,0.000000,0.475022,-0.862717,-0.000000
1.800000,-2.021356,-0.414205,-1.586255,1.364511,-0.862672,0.209890,1.224396,-1.853317,2.100707,6.273902,5.574136,5.595558,8.841970,43.887258,-26.044885,-0.233109,-0.157505,0.000000,0.545202,-0.881716,-0.000000
1.810000,-2.007649,-0.422924,-1.584050,1.377070,-0.880919,0.231172,1.287533,-1.795411,2.155301,6.350321,6.005538,5.318155,7.226845,43.197345,-28.850126,-0.227304,-0.166642,0.000000,0.615850,-0.896741,-0.000000
1.820000,-1.993813,-0.431822,-1.581630,1.390264,-0.898565,0.252986,1.351412,-1.733165,2.207025,6.425521,6.445156,5.024005,7.024951,43.887490,-30.538908,-0.220782,-0.175911,0.000000,0.688849,-0.910457,0.000000
1.830000,-1.979841,-0.440893,-1.578989,1.404100,-0.915568,0.275302,1.415949,-1.666578,2.255663,6.474288,6.865702,4.695663,2.691990,40.166102,-35.138425,-0.213530,-0.185285,0.000000,0.760950,-0.919135,0.000000
1.840000,-1.965729,-0.450131,-1.576122,1.418584,-0.931883,0.298088,1.480798,-1.595931,2.300818,6.494807,7.264234,4.332865,2.183063,40.326228,-36.839381,-0.205569,-0.194700,0.000000,0.831377,-0.922231,-0.000000
1.850000,-1.951468,-0.459528,-1.573026,1.433717,-0.947473,0.321306,1.545845,-1.521272,2.342277,6.511081,7.664680,3.954285,0.281285,38.918210,-39.430545,-0.196899,-0.204121,0.000000,0.902392,-0.922993,-0.000000
1.860000,-1.937052,-0.469078,-1.569695,1.449501,-0.962296,0.344920,1.610911,-1.442742,2.379817,6.498223,8.037658,3.549913,-1.752441,37.206284,-41.845643,-0.187535,-0.213502,0.000000,0.970038,-0.917860,0.000000
1.870000,-1.922475,-0.478771,-1.566126,1.465935,-0.976315,0.368889,1.675831,-1.360452,2.413163,6.486075,8.422553,3.113884,-1.761293,38.230561,-44.934835,-0.177490,-0.222799,0.000000,1.039158,-0.910251,0.000000
1.880000,-1.907731,-0.488601,-1.562316,1.483017,-0.989493,0.393168,1.740512,-1.274427,2.442039,6.440262,8.769929,2.660151,-7.440579,31.168896,-45.777286,-0.166772,-0.231975,0.000000,1.102512,-0.896064,0.000000
1.890000,-1.892813,-0.498558,-1.558262,1.500742,-1.001793,0.417714,1.804509,-1.185204,2.466316,6.358947,9.075979,2.190580,-7.739370,31.541160,-48.522828,-0.155464,-0.240949,0.000000,1.159075,-0.875043,0.000000
1.900000,-1.877714,-0.508634,-1.553961,1.519104,-1.013186,0.442479,1.867705,-1.092864,2.485752,6.276184,9.387250,1.693678,-9.898311,29.164624,-50.422398,-0.143590,-0.249682,0.000000,1.214801,-0.851103,0.000000
1.910000,-1.862429,-0.518819,-1.549412,1.538093,-1.023641,0.467412,1.929951,-0.997603,2.500156,6.169868,9.660101,1.184601,-11.931296,26.599767,-52.102115,-0.131194,-0.258131,0.000000,1.263240,-0.821920,0.000000
1.920000,-1.846950,-0.529104,-1.544612,1.557699,-1.033129,0.492464,1.990989,-0.899651,2.509331,6.032358,9.929992,0.645437,-15.019972,26.174129,-54.984951,-0.118331,-0.266239,0.000000,1.308879,-0.785983,-0.000000
1.930000,-1.831273,-0.539478,-1.539562,1.577908,-1.041625,0.517581,2.050556,-0.799150,2.513051,5.881045,10.158337,0.100546,-15.223006,19.437837,-53.939107,-0.105046,-0.273950,0.000000,1.346044,-0.746423,-0.000000
1.940000,-1.815390,-0.549933,-1.534261,1.598705,-1.049106,0.542707,2.108571,-0.696641,2.511338,5.716847,10.342288,-0.447164,-18.167415,18.527977,-56.291444,-0.091442,-0.281241,0.000000,1.374122,-0.703647,-0.000000
1.950000,-1.799297,-0.560457,-1.528708,1.620074,-1.055552,0.567789,2.164783,-0.592309,2.504016,5.522498,10.518427,-1.018461,-20.144171,15.494395,-57.212707,-0.077575,-0.288061,0.000000,1.397899,-0.654933,-0.000000
1.960000,-1.782987,-0.571040,-1.522905,1.641994,-1.060947,0.592769,2.218968,-0.486413,2.490986,5.311171,10.655370,-1.588058,-22.120637,12.394165,-57.834975,-0.063515,-0.294370,0.000000,1.412962,-0.603117,0.000000
1.970000,-1.766455,-0.581672,-1.516853,1.664446,-1.065276,0.617589,2.270941,-0.379265,2.472143,5.080176,10.770792,-2.185125,-24.065100,10.182381,-60.412193,-0.049335,-0.300134,0.000000,1.421829,-0.547039,0.000000
1.980000,-1.749696,-0.592342,-1.510554,1.687405,-1.068529,0.642191,2.320508,-0.271127,2.447326,4.830150,10.848388,-2.771843,-25.931067,5.313419,-56.858093,-0.035107,-0.305317,0.000000,1.422166,-0.488521,0.000000
1.990000,-1.732705,-0.603039,-1.504010,1.710847,-1.070697,0.666517,2.367482,-0.162431,2.416763,4.561640,10.886995,-3.344359,-27.765880,2.905111,-58.746307,-0.020921,-0.309905,0.000000,1.414127,-0.428142,-0.000000
2.000000,-1.715478,-0.613753,-1.497225,1.734745,-1.071776,0.690507,2.411681,-0.053457,2.380354,4.275104,10.902146,-3.936308,-29.524808,-0.377998,-58.468127,-0.006843,-0.313872,0.000000,1.400067,-0.364969,0.000000
2.010000,-1.698009,-0.624471,-1.490202,1.759071,-1.071766,0.714104,2.452919,0.055485,2.338100,3.969489,10.880541,-4.513053,-31.247244,-3.666336,-57.908278,0.007055,-0.317201,0.000000,1.378522,-0.300569,0.000000
2.020000,-1.680295,-0.635184,-1.482944,1.783793,-1.070668,0.737250,2.491042,0.164067,2.290029,3.653546,10.831397,-5.103503,-32.254359,-6.427506,-59.107342,0.020708,-0.319881,0.000000,1.351037,-0.235173,-0.000000
2.030000,-1.662332,-0.645881,-1.475458,1.808881,-1.068487,0.759885,2.525921,0.271991,2.236109,3.317829,10.746451,-5.672679,-34.882987,-10.564170,-54.656332,0.034054,-0.321904,0.000000,1.317031,-0.169331,0.000000
2.040000,-1.644116,-0.656550,-1.467749,1.834300,-1.065231,0.781954,2.557332,0.378874,2.176667,2.962861,10.625689,-6.216794,-35.761776,-13.308583,-55.172990,0.047029,-0.323269,0.000000,1.277115,-0.103547,-0.000000
2.050000,-1.625645,-0.667182,-1.459821,1.860016,-1.060914,0.803400,2.585159,0.484421,2.111736,2.600158,10.478186,-6.766490,-37.089008,-16.450066,-53.685821,0.059582,-0.323978,0.000000,1.232715,-0.038210,0.000000
2.060000,-1.606915,-0.677765,-1.451683,1.885991,-1.055548,0.824171,2.609339,0.588344,2.041526,2.235599,10.301819,-7.269500,-38.028528,-19.426882,-51.526246,0.071670,-0.324048,0.000000,1.184376,0.023784,0.000000
2.070000,-1.587924,-0.688290,-1.443340,1.912190,-1.049153,0.844213,2.629660,0.690309,1.966044,1.819508,10.084278,-7.839083,-43.009051,-23.464997,-57.848958,0.083248,-0.323472,0.000000,1.130270,0.092340,0.000000
2.080000,-1.568671,-0.698745,-1.434801,1.938570,-1.041750,0.863473,2.645805,0.789963,1.885036,1.421186,9.845468,-8.331197,-36.567668,-24.258937,-40.404425,0.094270,-0.322222,0.000000,1.074272,0.153742,-0.000000
2.090000,-1.549152,-0.709121,-1.426074,1.965093,-1.033362,0.881900,2.658174,0.887159,1.799740,1.044846,9.587380,-8.737864,-40.861763,-27.942454,-45.457085,0.104732,-0.320412,0.000000,1.017343,0.207438,-0.000000
2.100000,-1.529368,-0.719409,-1.417166,1.991720,-1.024016,0.899453,2.666512,0.981576,1.710010,0.622864,9.292212,-9.201249,-41.341198,-30.463733,-42.662822,0.114601,-0.318025,0.000000,0.956391,0.266256,0.000000
2.110000,-1.509318,-0.729598,-1.408088,2.018409,-1.013741,0.916085,2.670623,1.072959,1.615795,0.197367,8.981079,-9.640739,-42.033697,-32.761290,-40.568577,0.123859,-0.315060,0.000000,0.894916,0.322369,-0.000000
2.120000,-1.489000,-0.739681,-1.398848,2.045119,-1.002568,0.931755,2.670576,1.161041,1.517645,-0.201727,8.628095,-9.969524,-39.419535,-36.814633,-29.685367,0.132492,-0.311564,0.000000,0.831402,0.369578,0.000000
2.130000,-1.468416,-0.749647,-1.389456,2.071808,-0.990532,0.946428,2.666494,1.245499,1.416269,-0.625355,8.266209,-10.328892,-45.336682,-35.502716,-42.314682,0.140488,-0.307594,0.000000,0.768190,0.418590,-0.000000
2.140000,-1.447564,-0.759489,-1.379923,2.098434,-0.977670,0.960067,2.657971,1.326354,1.310911,-1.074550,7.898530,-10.724241,-42.809391,-39.006116,-32.185243,0.147858,-0.303100,0.000000,0.705493,0.469446,-0.000000
2.150000,-1.426447,-0.769198,-1.370258,2.124953,-0.964018,0.972635,2.645127,1.403333,1.202226,-1.495265,7.495219,-11.010996,-42.975746,-40.624164,-29.691901,0.154595,-0.298136,0.000000,0.642195,0.511719,0.000000
2.160000,-1.405066,-0.778766,-1.360474,2.151322,-0.949617,0.984102,2.628051,1.476258,1.090709,-1.919157,7.088084,-11.286657,-42.779696,-41.980306,-26.681327,0.160708,-0.292747,0.000000,0.580574,0.552228,0.000000
2.170000,-1.383421,-0.788188,-1.350580,2.177499,-0.934507,0.994440,2.606672,1.544955,0.976492,-2.359576,6.645135,-11.555896,-44.307161,-45.402852,-25.934782,0.166199,-0.286945,0.000000,0.517250,0.592551,0.000000
2.180000,-1.361517,-0.797454,-1.340589,2.203441,-0.918733,1.003624,2.580919,1.609180,0.859752,-2.784389,6.205334,-11.779520,-40.599690,-42.487356,-18.739861,0.171064,-0.280747,0.000000,0.456934,0.628290,-0.000000
2.190000,-1.339354,-0.806560,-1.330511,2.229104,-0.902338,1.011629,2.551053,1.669093,0.741071,-3.190720,5.772311,-11.955111,-41.621870,-45.268684,-17.597668,0.175350,-0.274210,0.000000,0.399979,0.659391,0.000000
2.200000,-1.316936,-0.815499,-1.320360,2.254448,-0.885366,1.018439,2.517051,1.724510,0.620661,-3.607981,5.310700,-12.120833,-40.826220,-45.838426,-14.311091,0.179059,-0.267352,0.000000,0.342209,0.690088,0.000000
2.210000,-1.294266,-0.824266,-1.310147,2.279432,-0.867863,1.024038,2.479012,1.775342,0.498901,-3.996329,4.855769,-12.222577,-39.629064,-46.164596,-10.555789,0.182207,-0.260207,0.000000,0.287978,0.715113,0.000000
2.220000,-1.271348,-0.832855,-1.299883,2.304015,-0.849874,1.028413,2.436938,1.821533,0.375968,-4.425941,4.378413,-12.373499,-43.543223,-48.254182,-15.238004,0.184811,-0.252788,0.000000,0.232611,0.744509,-0.000000
2.230000,-1.248187,-0.841262,-1.289582,2.328156,-0.831448,1.031553,2.390667,1.862957,0.251761,-4.809492,3.912746,-12.435201,-33.060784,-44.814520,3.030901,0.186875,-0.245088,0.000000,0.181520,0.766218,-0.000000
2.240000,-1.224787,-0.849483,-1.279256,2.351817,-0.812630,1.033449,2.340940,1.899846,0.127615,-5.141928,3.462151,-12.401814,-36.160830,-46.301274,-0.794271,0.188458,-0.237221,0.000000,0.134986,0.780244,-0.000000
2.250000,-1.201152,-0.857513,-1.268918,2.374963,-0.793467,1.034105,2.287665,1.932131,0.003497,-5.508978,2.996096,-12.413700,-34.488166,-45.852534,2.819697,0.189570,-0.229182,0.000000,0.087797,0.798273,-0.000000
2.260000,-1.177289,-0.865351,-1.258578,2.397559,-0.774003,1.033519,2.230859,1.959827,-0.120586,-5.850138,2.544746,-12.401417,-32.982786,-45.194002,5.407417,0.190226,-0.220977,0.000000,0.043747,0.812930,-0.000000
2.270000,-1.153203,-0.872993,-1.248251,2.419569,-0.754285,1.031695,2.170774,1.982985,-0.243977,-6.161499,2.085390,-12.252678,-30.001885,-45.864915,18.703363,0.190455,-0.212648,0.000000,0.002539,0.821821,0.000000
2.280000,-1.128900,-0.880436,-1.237949,2.440964,-0.734358,1.028645,2.107649,2.001602,-0.365820,-6.465159,1.644461,-12.145693,-30.741999,-42.268406,2.497540,0.190283,-0.204235,0.000000,-0.036538,0.830985,0.000000
2.290000,-1.104386,-0.887679,-1.227682,2.461712,-0.714267,1.024380,2.041490,2.015951,-0.487104,-6.761480,1.224731,-12.089503,-27.781276,-42.441143,14.390860,0.189731,-0.195721,0.000000,-0.073507,0.840414,0.000000
2.300000,-1.079668,-0.894721,-1.217465,2.481785,-0.694054,1.018908,1.972536,2.026076,-0.607088,-7.026826,0.802873,-11.906444,-26.009741,-41.117180,16.547459,0.188823,-0.187140,0.000000,-0.107639,0.844848,0.000000
2.310000,-1.054753,-0.901560,-1.207308,2.501154,-0.673759,1.012244,1.900971,2.032071,-0.725275,-7.283645,0.398448,-11.726673,-24.267930,-39.699950,18.988875,0.187586,-0.178518,0.000000,-0.139445,0.848911,0.000000
2.320000,-1.029647,-0.908196,-1.197224,2.519796,-0.653425,1.004409,1.827009,2.034098,-0.841574,-7.502129,0.009744,-11.530733,-20.470079,-38.060473,20.564769,0.186042,-0.169872,0.000000,-0.168955,0.849648,-0.000000
2.330000,-1.004359,-0.914628,-1.187224,2.537687,-0.633090,0.995420,1.750940,2.032318,-0.955796,-7.714920,-0.363206,-11.307682,-22.115564,-36.509348,24.036545,0.184215,-0.161227,0.000000,-0.196001,0.849942,-0.000000
2.340000,-0.978896,-0.920858,-1.177319,2.554808,-0.612791,0.985301,1.672718,2.026890,-1.067637,-7.923155,-0.719167,-11.058243,-18.469494,-34.619706,25.439565,0.182130,-0.152581,0.000000,-0.220614,0.849986,-0.000000
2.350000,-0.953266,-0.926884,-1.167522,2.571136,-0.592564,0.974076,1.592623,2.018001,-1.176925,-8.093200,-1.055569,-10.796019,-16.588895,-32.684193,27.371876,0.179810,-0.143954,0.000000,-0.242982,0.847087,-0.000000
2.360000,-0.927476,-0.932709,-1.157841,2.586655,-0.572442,0.961771,1.510936,2.005905,-1.283443,-8.239659,-1.358374,-10.503171,-14.427129,-30.360679,29.344538,0.177284,-0.135368,0.000000,-0.261676,0.842414,0.000000
2.370000,-0.901535,-0.938334,-1.148290,2.601349,-0.552456,0.948416,1.427762,1.990709,-1.387074,-8.397592,-1.685482,-10.226452,-15.482139,-32.620824,27.748749,0.174565,-0.126828,0.000000,-0.282435,0.839620,-0.000000
2.380000,-0.875452,-0.943759,-1.138877,2.615205,-0.532638,0.934039,1.343135,1.972390,-1.487831,-8.514105,-1.959602,-9.911457,-7.768877,-22.116803,35.278040,0.171654,-0.118329,0.000000,-0.297935,0.833513,0.000000
2.390000,-0.849234,-0.948987,-1.129612,2.628209,-0.513016,0.918671,1.257638,1.951726,-1.585159,-8.586914,-2.176729,-9.557379,-8.487993,-23.751200,33.715495,0.168626,-0.109921,0.000000,-0.308022,0.824085,0.000000
2.400000,-0.822891,-0.954020,-1.120506,2.640355,-0.493612,0.902347,1.171334,1.928747,-1.679074,-8.669576,-2.413720,-9.222551,-6.362883,-21.201665,35.004349,0.165484,-0.101601,0.000000,-0.320046,0.816519,-0.000000
2.410000,-0.796430,-0.958860,-1.111568,2.651634,-0.474448,0.885101,1.084357,1.903535,-1.769687,-8.722441,-2.626196,-8.902897,-4.367386,-19.046558,35.277408,0.162231,-0.093371,0.000000,-0.330256,0.807334,-0.000000
2.420000,-0.769861,-0.963510,-1.102807,2.662041,-0.455547,0.866966,0.996939,1.876477,-1.856607,-8.758477,-2.774001,-8.458898,-2.704399,-12.694768,47.299402,0.158906,-0.085245,0.000000,-0.333491,0.796632,-0.000000
2.430000,-0.743192,-0.967972,-1.094232,2.671572,-0.436923,0.847984,0.909258,1.848025,-1.939153,-8.773697,-2.925888,-8.087515,-0.347203,-17.753911,26.756733,0.155554,-0.077235,0.000000,-0.338265,0.785657,-0.000000
2.440000,-0.716432,-0.972249,-1.085850,2.680226,-0.418592,0.828192,0.821534,1.817918,-2.018682,-8.768626,-3.085068,-7.798966,1.200455,-11.886435,37.182764,0.152133,-0.069341,0.000000,-0.344826,0.774268,0.000000
2.450000,-0.689590,-0.976345,-1.077671,2.688003,-0.400569,0.807622,0.733932,1.786568,-2.094646,-8.748751,-3.182400,-7.397385,2.904016,-9.778600,36.881394,0.148683,-0.061573,0.000000,-0.345039,0.761785,0.000000
2.460000,-0.662675,-0.980262,-1.069700,2.694905,-0.382864,0.786312,0.646513,1.754264,-2.166745,-8.735381,-3.275652,-7.021398,4.023076,-7.697417,37.017410,0.145230,-0.053928,0.000000,-0.345467,0.750809,0.000000
2.470000,-0.635695,-0.984003,-1.061947,2.700935,-0.365486,0.764300,0.559607,1.721220,-2.235175,-8.629338,-3.325618,-6.669124,13.026015,-3.448353,34.669499,0.141785,-0.046426,0.000000,-0.342933,0.733108,0.000000
2.480000,-0.608659,-0.987573,-1.054417,2.706101,-0.348441,0.741620,0.473766,1.687766,-2.300069,-8.562171,-3.368815,-6.302100,0.262742,-5.234376,38.763710,0.138372,-0.039102,0.000000,-0.339894,0.719335,0.000000
2.490000,-0.581576,-0.990973,-1.047116,2.710411,-0.331733,0.718311,0.388179,1.653850,-2.361155,-8.540546,-3.407282,-5.919225,8.231795,-1.310133,36.546043,0.134988,-0.031883,0.000000,-0.336544,0.709968,0.000000
2.500000,-0.554454,-0.994208,-1.040052,2.713867,-0.315364,0.694410,0.303314,1.619776,-2.418556,-8.433307,-3.404999,-5.560646,9.034512,0.605599,36.416577,0.131652,-0.024799,0.000000,-0.330479,0.694427,-0.000000
2.510000,-0.527302,-0.997282,-1.033230,2.716480,-0.299337,0.669953,0.219491,1.585838,-2.472131,-8.328371,-3.378062,-5.148597,10.228890,2.765740,37.146666,0.128387,-0.017869,0.000000,-0.322161,0.679720,0.000000
2.520000,-0.500127,-1.000196,-1.026655,2.718260,-0.283647,0.644979,0.136646,1.552123,-2.522223,-8.244694,-3.368349,-4.899221,8.159371,1.112882,21.292779,0.125193,-0.011080,0.000000,-0.317153,0.667602,0.000000
2.530000,-0.472939,-1.002956,-1.020332,2.719216,-0.268294,0.619516,0.054711,1.518630,-2.569696,-8.130470,-3.315163,-4.542954,14.727742,9.572145,50.212051,0.122060,-0.004419,0.000000,-0.307815,0.653469,0.000000
2.540000,-0.445746,-1.005563,-1.014266,2.719359,-0.253271,0.593601,-0.025843,1.485986,-2.612621,-7.983971,-3.216584,-4.068869,12.883637,8.162540,35.924348,0.119053,0.002080,0.000000,-0.294061,0.637468,0.000000
2.550000,-0.418555,-1.008022,-1.008461,2.718704,-0.238571,0.567276,-0.105069,1.454205,-2.651746,-7.858739,-3.135550,-3.751449,13.826128,9.986109,36.162030,0.116164,0.008431,0.000000,-0.283491,0.623814,0.000000
2.560000,-0.391374,-1.010336,-1.002922,2.717262,-0.224184,0.540576,-0.183016,1.423294,-2.687888,-7.731271,-3.046556,-3.489909,14.310396,11.197070,33.723885,0.113382,0.014643,0.000000,-0.273021,0.610440,-0.000000
2.570000,-0.364212,-1.012507,-0.997651,2.715048,-0.210101,0.513531,-0.259463,1.393589,-2.720198,-7.548298,-2.880675,-2.915491,19.704096,18.658685,64.056437,0.110740,0.020704,0.000000,-0.253957,0.593675,0.000000
2.580000,-0.337076,-1.014539,-0.992652,2.712079,-0.196307,0.486191,-0.334088,1.365561,-2.747080,-7.391334,-2.743077,-2.567788,11.603269,8.739639,4.938198,0.108285,0.026599,0.000000,-0.239457,0.579353,-0.000000
2.590000,-0.309973,-1.016434,-0.987928,2.708371,-0.182787,0.458593,-0.407410,1.338588,-2.772526,-7.264255,-2.639432,-2.471275,16.407531,15.305778,31.608980,0.105931,0.032368,0.000000,-0.229908,0.567174,0.000000
2.600000,-0.282911,-1.018195,-0.983481,2.703936,-0.169530,0.430751,-0.479154,1.313065,-2.795228,-7.085271,-2.465601,-2.081981,16.800182,16.121415,29.067595,0.103720,0.037994,0.000000,-0.212546,0.552027,-0.000000
2.610000,-0.255896,-1.019825,-0.979314,2.698793,-0.156520,0.402700,-0.549065,1.289246,-2.814333,-6.893241,-2.296052,-1.732963,17.785988,17.128397,29.011354,0.101676,0.043465,0.000000,-0.196060,0.536254,-0.000000
2.620000,-0.228937,-1.021327,-0.975428,2.692961,-0.143739,0.374473,-0.617297,1.267123,-2.830842,-6.764685,-2.129263,-1.609412,11.633248,16.840685,7.111077,0.099789,0.048795,0.000000,-0.181748,0.525044,0.000000
2.630000,-0.202039,-1.022701,-0.971825,2.686452,-0.131172,0.346087,-0.684153,1.246719,-2.845988,-6.582724,-1.946385,-1.351132,24.874715,19.740085,44.920798,0.098049,0.054005,0.000000,-0.165197,0.510394,-0.000000
2.640000,-0.175210,-1.023951,-0.968506,2.679285,-0.118798,0.317567,-0.748727,1.228254,-2.857269,-6.342206,-1.747407,-0.941101,19.484786,19.409553,25.602034,0.096493,0.059039,0.000000,-0.146356,0.492257,-0.000000
2.650000,-0.148456,-1.025077,-0.965474,2.671484,-0.106600,0.288950,-0.811261,1.211745,-2.865710,-6.161280,-1.553108,-0.741044,20.429203,20.066385,25.893242,0.095113,0.063914,0.000000,-0.129607,0.478189,-0.000000
2.660000,-0.121783,-1.026083,-0.962728,2.663067,-0.094557,0.260261,-0.871801,1.197252,-2.871668,-5.944379,-1.343831,-0.446455,21.296177,20.715957,26.291378,0.093909,0.068637,0.000000,-0.111053,0.462079,-0.000000
2.670000,-0.095197,-1.026969,-0.960269,2.654055,-0.082648,0.231525,-0.930255,1.184802,-2.875173,-5.750657,-1.148824,-0.277077,19.042337,19.298490,14.137600,0.092882,0.073203,0.000000,-0.094605,0.447382,-0.000000
2.680000,-0.068703,-1.027736,-0.958097,2.644468,-0.070854,0.202763,-0.986713,1.174340,-2.876890,-5.530076,-0.936582,-0.026169,25.114672,23.166721,36.250342,0.092024,0.077618,0.000000,-0.076250,0.431276,-0.000000
2.690000,-0.042309,-1.028386,-0.956214,2.634329,-0.059154,0.173999,-1.040748,1.166138,-2.875342,-5.280970,-0.706596,0.315478,23.077989,21.776841,25.466051,0.091365,0.081860,0.000000,-0.055891,0.413815,0.000000
2.700000,-0.016019,-1.028920,-0.954617,2.623661,-0.047524,0.145265,-1.092438,1.160137,-2.871089,-5.055053,-0.492562,0.539110,23.702501,22.047332,25.836556,0.090897,0.085935,0.000000,-0.037647,0.397680,0.000000
2.710000,0.010163,-1.029337,-0.953308,2.612488,-0.035944,0.116585,-1.141923,1.156288,-2.864734,-4.844995,-0.277851,0.722215,23.551774,22.022502,24.219377,0.090611,0.089852,0.000000,-0.019639,0.382694,-0.000000
2.720000,0.036230,-1.029639,-0.952285,2.600831,-0.024391,0.087979,-1.188917,1.154671,-2.855607,-4.535936,-0.041924,1.146989,33.144802,24.035204,47.677421,0.090519,0.093595,0.000000,0.001813,0.361941,-0.000000
2.730000,0.062178,-1.029825,-0.951548,2.588720,-0.012842,0.059487,-1.232888,1.155392,-2.842458,-4.289468,0.179192,1.401639,15.977476,20.136275,2.839721,0.090638,0.097136,0.000000,0.020923,0.345104,0.000000
2.740000,0.088002,-1.029896,-0.951095,2.576179,-0.001276,0.031132,-1.274981,1.158188,-2.828306,-4.113400,0.382940,1.467718,24.376726,21.718251,23.550262,0.090927,0.100542,0.000000,0.037355,0.332411,-0.000000
2.750000,0.113700,-1.029850,-0.950925,2.563228,0.010328,0.002928,-1.314761,1.163127,-2.812117,-3.845838,0.603708,1.760854,23.994603,21.301425,21.952828,0.091399,0.103789,0.000000,0.056866,0.314477,0.000000
2.760000,0.139266,-1.029689,-0.951036,2.549892,0.021993,-0.025101,-1.351964,1.170219,-2.793231,-3.593137,0.813800,2.020750,24.167545,20.845286,22.130811,0.092060,0.106863,0.000000,0.075402,0.297591,0.000000
2.770000,0.164697,-1.029410,-0.951426,2.536197,0.033740,-0.052930,-1.386812,1.179398,-2.772337,-3.384416,1.021631,2.130960,19.874264,20.566256,7.594894,0.092902,0.109776,0.000000,0.092763,0.282970,0.000000
2.780000,0.189989,-1.029014,-0.952094,2.522163,0.045588,-0.080545,-1.419541,1.190625,-2.750246,-3.147399,1.221895,2.333965,27.596615,19.467506,33.256741,0.093916,0.112541,0.000000,0.110337,0.266978,-0.000000
2.790000,0.215139,-1.028498,-0.953036,2.507815,0.057559,-0.107925,-1.449637,1.203806,-2.725250,-2.879153,1.413517,2.641081,23.723719,18.983532,20.429903,0.095110,0.115133,0.000000,0.128184,0.249564,0.000000
2.800000,0.240144,-1.027862,-0.954251,2.493178,0.069671,-0.135042,-1.477306,1.218881,-2.698025,-2.653276,1.600089,2.808507,23.764258,18.176625,20.783539,0.096475,0.117564,0.000000,0.144726,0.234268,-0.000000
2.810000,0.265001,-1.027104,-0.955736,2.478276,0.081942,-0.161879,-1.502648,1.235776,-2.668922,-2.415373,1.777341,3.011328,23.646259,17.293747,20.590152,0.098004,0.119838,0.000000,0.160978,0.218379,0.000000
2.820000,0.289709,-1.026223,-0.957488,2.463133,0.094392,-0.188414,-1.525631,1.254400,-2.637739,-2.181970,1.946009,3.227801,23.189541,16.394769,21.927904,0.099693,0.121955,0.000000,0.176840,0.202995,-0.000000
2.830000,0.314263,-1.025216,-0.959503,2.447772,0.107036,-0.214626,-1.546286,1.274661,-2.604407,-1.948319,2.104306,3.433572,23.540708,15.251173,19.205393,0.101538,0.123918,0.000000,0.192001,0.187495,-0.000000
2.840000,0.338663,-1.024081,-0.961779,2.432215,0.119890,-0.240495,-1.564596,1.296449,-2.569112,-1.714501,2.251444,3.627759,23.055911,14.197259,20.422716,0.103531,0.125723,0.000000,0.206391,0.171854,0.000000
2.850000,0.362907,-1.022817,-0.964312,2.416487,0.132970,-0.266002,-1.580596,1.319655,-2.531793,-1.485932,2.387740,3.835384,22.813973,13.018080,20.318587,0.105664,0.127375,0.000000,0.220242,0.156733,-0.000000
2.860000,0.386993,-1.021421,-0.967098,2.400611,0.146288,-0.291125,-1.594319,1.344159,-2.492422,-1.259030,2.511025,4.038804,22.532865,11.759565,20.284374,0.107933,0.128876,0.000000,0.233248,0.141663,-0.000000
2.870000,0.410919,-1.019890,-0.970133,2.384608,0.159857,-0.315843,-1.605789,1.369843,-2.451025,-1.035643,2.623930,4.240335,22.166404,10.683510,20.102429,0.110328,0.130226,0.000000,0.245640,0.126796,-0.000000
2.880000,0.434684,-1.018223,-0.973414,2.368502,0.173688,-0.340138,-1.615041,1.396587,-2.407613,-0.815239,2.721814,4.442541,21.909579,8.879533,20.341301,0.112842,0.131428,0.000000,0.257072,0.112104,-0.000000
2.890000,0.458289,-1.016416,-0.976935,2.352315,0.187791,-0.363989,-1.622104,1.424225,-2.362171,-0.598117,2.803915,4.645533,21.481465,7.660349,20.175393,0.115465,0.132483,0.000000,0.267484,0.097599,-0.000000
2.900000,0.481731,-1.014466,-0.980692,2.336068,0.202175,-0.387375,-1.627019,1.452627,-2.314710,-0.385491,2.873749,4.846712,21.065498,6.169459,20.139438,0.118189,0.133393,0.000000,0.277132,0.083338,0.000000
2.910000,0.505010,-1.012371,-0.984681,2.319782,0.216846,-0.410276,-1.629829,1.481643,-2.265235,-0.177383,2.926755,5.048104,20.606205,4.616890,20.091468,0.121004,0.134162,0.000000,0.285663,0.069333,0.000000
2.920000,0.528126,-1.010128,-0.988896,2.303478,0.231810,-0.432673,-1.630578,1.511125,-2.213753,0.027024,2.967730,5.248069,20.215266,3.382365,19.942273,0.123900,0.134791,0.000000,0.293446,0.055487,-0.000000
2.930000,0.551079,-1.007734,-0.993332,2.287177,0.247070,-0.454545,-1.629309,1.540934,-2.160274,0.225669,2.990308,5.447802,19.505967,1.120965,20.001739,0.126869,0.135282,0.000000,0.299965,0.041970,-0.000000
2.940000,0.573870,-1.005186,-0.997985,2.270898,0.262629,-0.475872,-1.626086,1.570866,-2.104798,0.418114,2.993845,5.647127,19.031274,-0.228771,19.814222,0.129895,0.135638,0.000000,0.305152,0.028806,-0.000000
2.950000,0.596498,-1.002481,-1.002848,2.254661,0.278487,-0.496634,-1.620962,1.600770,-2.047340,0.605709,2.984011,5.844357,18.427392,-1.932601,19.670787,0.132969,0.135863,0.000000,0.309440,0.015857,-0.000000
2.960000,0.618963,-0.999615,-1.007915,2.238485,0.294643,-0.516812,-1.613996,1.630480,-1.987918,0.786326,2.954902,6.039515,17.779945,-3.674795,19.475559,0.136079,0.135959,0.000000,0.312324,0.003289,-0.000000
2.970000,0.641267,-0.996587,-1.013182,2.222387,0.311095,-0.536386,-1.605250,1.659827,-1.926547,0.962013,2.912454,6.234849,17.263910,-5.029680,19.466644,0.139213,0.135930,0.000000,0.314304,-0.009049,-0.000000
2.980000,0.663411,-0.993392,-1.018641,2.206386,0.327838,-0.555337,-1.594783,1.688660,-1.863235,1.129645,2.849809,6.426234,16.253514,-7.507986,18.798952,0.142360,0.135778,0.000000,0.314738,-0.020953,0.000000
2.990000,0.685396,-0.990029,-1.024287,2.190497,0.344866,-0.573644,-1.582686,1.716753,-1.798038,1.288729,2.766547,6.613043,15.645508,-8.931623,18.673031,0.145502,0.135508,0.000000,0.313548,-0.032391,0.000000
3.000000,0.707222,-0.986494,-1.030112,2.174737,0.362170,-0.591291,-1.569027,1.743948,-1.730977,1.441683,2.669350,6.798511,14.851085,-10.721441,18.293363,0.148628,0.135124,0.000000,0.311305,-0.043533,0.000000
3.010000,0.728891,-0.982785,-1.036110,2.159122,0.379741,-0.608258,-1.553887,1.770072,-1.662090,1.584841,2.552377,6.977878,14.000879,-12.513178,17.835493,0.151723,0.134630,0.000000,0.307419,-0.054127,-0.000000
3.020000,0.750405,-0.978898,-1.042275,2.143664,0.397568,-0.624527,-1.537341,1.794949,-1.591414,1.723664,2.420578,7.157461,13.538337,-13.998966,17.813726,0.154772,0.134029,0.000000,0.302360,-0.064564,0.000000
3.030000,0.771765,-0.974833,-1.048598,2.128379,0.415636,-0.640080,-1.519454,1.818417,-1.518971,1.850884,2.269208,7.328543,11.893259,-16.276868,16.383959,0.157764,0.133325,0.000000,0.295560,-0.074327,-0.000000
3.040000,0.792973,-0.970585,-1.055074,2.113279,0.433931,-0.654901,-1.500366,1.840267,-1.444877,1.965861,2.098235,7.490127,11.318291,-17.757851,16.181401,0.160677,0.132527,0.000000,0.286942,-0.083362,-0.000000
3.050000,0.814031,-0.966153,-1.061694,2.098376,0.452435,-0.668972,-1.480152,1.860337,-1.369171,2.075262,1.912822,7.649736,10.336032,-19.474737,15.470319,0.163499,0.131637,0.000000,0.277014,-0.092153,0.000000
3.060000,0.834941,-0.961536,-1.068451,2.083680,0.471131,-0.682279,-1.458917,1.878461,-1.291923,2.169444,1.709197,7.798265,9.254570,-21.156412,14.657723,0.166211,0.130662,0.000000,0.265250,-0.099958,0.000000
3.070000,0.855705,-0.956730,-1.075337,2.069200,0.489997,-0.694806,-1.436737,1.894472,-1.213199,2.267251,1.490638,7.946646,9.566786,-22.632619,14.585454,0.168799,0.129607,0.000000,0.252069,-0.108292,0.000000
3.080000,0.876326,-0.951735,-1.082344,2.054948,0.509013,-0.706538,-1.413643,1.908216,-1.133040,2.345252,1.254925,8.080892,6.007451,-24.503867,12.238352,0.171246,0.128470,0.000000,0.236966,-0.115257,-0.000000
3.090000,0.896805,-0.946549,-1.089465,2.040930,0.528153,-0.717463,-1.389908,1.919514,-1.051636,2.402245,1.002464,8.199692,6.132350,-25.892764,11.934774,0.173532,0.127273,0.000000,0.219874,-0.120717,0.000000
3.100000,0.917145,-0.941172,-1.096691,2.027152,0.547394,-0.727567,-1.365578,1.928222,-0.969048,2.461558,0.736551,8.315734,4.987831,-27.364016,10.837608,0.175639,0.126017,0.000000,0.201253,-0.126587,0.000000
3.110000,0.937349,-0.935601,-1.104013,2.013620,0.566709,-0.736840,-1.340712,1.934192,-0.885385,2.510389,0.454992,8.414650,3.975025,-28.777118,9.619306,0.177550,0.124704,0.000000,0.180585,-0.131882,-0.000000
3.120000,0.957418,-0.929837,-1.111425,2.000339,0.586069,-0.745272,-1.315469,1.937289,-0.800741,2.533666,0.162727,8.514195,1.459361,-29.815999,9.612934,0.179246,0.123346,0.000000,0.158488,-0.134997,-0.000000
3.130000,0.977356,-0.923880,-1.118916,1.987311,0.605445,-0.752852,-1.290036,1.937396,-0.715176,2.555932,-0.144272,8.592715,3.018330,-31.573752,6.059353,0.180712,0.121958,0.000000,0.134224,-0.138373,-0.000000
3.140000,0.997165,-0.917729,-1.126479,1.974539,0.624806,-0.759573,-1.264344,1.934355,-0.628968,2.578277,-0.465325,8.648627,0.664267,-32.465322,5.784218,0.181923,0.120531,0.000000,0.107729,-0.142135,-0.000000
3.150000,1.016848,-0.911384,-1.134105,1.962024,0.644121,-0.765429,-1.238567,1.928065,-0.542198,2.575903,-0.794560,8.702493,-0.354645,-33.518814,4.309628,0.182862,0.119077,0.000000,0.079755,-0.143721,-0.000000
3.160000,1.036407,-0.904846,-1.141785,1.949767,0.663356,-0.770415,-1.212845,1.918445,-0.454987,2.566573,-1.130475,8.737165,-1.429934,-34.373016,2.800028,0.183513,0.117608,0.000000,0.050114,-0.144931,0.000000
3.170000,1.055844,-0.898117,-1.149510,1.937767,0.682478,-0.774528,-1.187264,1.905370,-0.367491,2.548063,-1.488325,8.760006,-2.350024,-36.472374,1.581334,0.183853,0.116131,0.000000,0.017409,-0.145448,0.000000
3.180000,1.075163,-0.891197,-1.157272,1.926021,0.701451,-0.777765,-1.161923,1.888688,-0.279848,2.517935,-1.844722,8.764885,-3.677029,-34.764776,-0.618974,0.183858,0.114653,0.000000,-0.016365,-0.145072,-0.000000
3.190000,1.094366,-0.884089,-1.165062,1.914527,0.720240,-0.780125,-1.136945,1.868493,-0.192257,2.476137,-2.197479,8.751084,-4.601863,-36.477873,-1.968167,0.183523,0.113183,0.000000,-0.051055,-0.143763,-0.000000
3.200000,1.113454,-0.876793,-1.172872,1.903281,0.738809,-0.781611,-1.112429,1.844668,-0.104868,2.425250,-2.567810,8.723857,-5.653376,-36.857513,-3.663156,0.182826,0.111731,0.000000,-0.088670,-0.141672,0.000000
3.210000,1.132432,-0.869313,-1.180692,1.892277,0.757121,-0.782224,-1.088506,1.817152,-0.017855,2.356936,-2.935537,8.675489,-6.820439,-37.104712,-5.445587,0.181746,0.110308,0.000000,-0.127492,-0.138019,-0.000000
3.220000,1.151301,-0.861652,-1.188513,1.881509,0.775140,-0.781969,-1.065233,1.785915,0.068628,2.299815,-3.313499,8.620094,-5.751893,-38.040152,-6.191269,0.180268,0.108919,0.000000,-0.168521,-0.135446,0.000000
3.230000,1.170063,-0.853812,-1.196328,1.870970,0.792827,-0.780853,-1.042601,1.750900,0.154461,2.217800,-3.686964,8.539971,-10.682657,-36.617016,-9.853806,0.178372,0.107563,0.000000,-0.210752,-0.130537,0.000000
3.240000,1.188721,-0.845796,-1.204128,1.860653,0.810146,-0.778883,-1.020973,1.712201,0.239338,2.109562,-4.053995,8.434159,-9.796413,-37.195977,-10.751893,0.176050,0.106275,0.000000,-0.254018,-0.123056,0.000000
3.250000,1.207277,-0.837610,-1.211903,1.850547,0.827059,-0.776070,-1.000353,1.669794,0.323126,2.012127,-4.426781,8.320162,-10.841759,-36.910164,-12.605202,0.173285,0.105058,0.000000,-0.299185,-0.116531,-0.000000
3.260000,1.225732,-0.829257,-1.219646,1.840643,0.843529,-0.772425,-0.980772,1.623694,0.405654,1.903152,-4.792223,8.182032,-11.683630,-36.478067,-14.482628,0.170064,0.103914,0.000000,-0.345265,-0.108841,-0.000000
3.270000,1.244090,-0.820741,-1.227349,1.830928,0.859520,-0.767962,-0.962377,1.573940,0.486748,1.771833,-5.158852,8.035486,-13.854033,-36.511358,-15.345793,0.166374,0.102859,0.000000,-0.392863,-0.098632,0.000000
3.280000,1.262352,-0.812068,-1.235003,1.821391,0.874996,-0.762695,-0.945327,1.520553,0.566278,1.641316,-5.515412,7.864227,-12.217023,-34.767914,-18.918267,0.162205,0.101913,0.000000,-0.441039,-0.088441,0.000000
3.290000,1.280519,-0.803243,-1.242600,1.812017,0.889920,-0.756643,-0.929538,1.463674,0.643944,1.513193,-5.860085,7.667768,-14.120874,-34.459859,-19.841307,0.157553,0.101065,0.000000,-0.489527,-0.078452,0.000000
3.300000,1.298592,-0.794272,-1.250133,1.802795,0.904258,-0.749823,-0.915142,1.403357,0.719615,1.365262,-6.201462,7.463058,-14.732679,-33.477274,-21.618178,0.152411,0.100333,0.000000,-0.538916,-0.066085,-0.000000
3.310000,1.316575,-0.785160,-1.257594,1.793709,0.917976,-0.742257,-0.902224,1.339710,0.793145,1.217660,-6.525289,7.240419,-15.268251,-32.266984,-23.271418,0.146777,0.099728,0.000000,-0.587721,-0.053571,-0.000000
3.320000,1.334467,-0.775914,-1.264976,1.784745,0.931041,-0.733968,-0.890845,1.272812,0.864339,1.055603,-6.855568,6.994412,-16.654012,-32.795497,-25.559984,0.140648,0.099257,0.000000,-0.638525,-0.039352,-0.000000
3.330000,1.352270,-0.766541,-1.272271,1.775887,0.943421,-0.724979,-0.881104,1.202691,0.932998,0.894840,-7.160372,6.736993,-15.471693,-28.113830,-25.900822,0.134013,0.098933,0.000000,-0.687522,-0.025001,0.000000
3.340000,1.369985,-0.757048,-1.279473,1.767118,0.955086,-0.715317,-0.872936,1.129706,0.999047,0.736754,-7.437088,6.469366,-16.615201,-28.189948,-27.974794,0.126906,0.098752,0.000000,-0.734189,-0.010681,0.000000
3.350000,1.387613,-0.747442,-1.286575,1.758423,0.966006,-0.705008,-0.866417,1.053927,1.062309,0.566874,-7.715451,6.180853,-16.867973,-26.485618,-29.351068,0.119324,0.098723,0.000000,-0.781813,0.005093,-0.000000
3.360000,1.405154,-0.737731,-1.293571,1.749784,0.976155,-0.694080,-0.861590,0.975491,1.122637,0.398358,-7.968349,5.882816,-17.051702,-24.667129,-30.618993,0.111279,0.098854,0.000000,-0.826997,0.020967,0.000000
3.370000,1.422609,-0.727922,-1.300455,1.741185,0.985508,-0.682565,-0.858473,0.894574,1.179894,0.223983,-8.213885,5.565316,-17.588639,-23.850082,-32.497634,0.102785,0.099148,0.000000,-0.871693,0.037621,0.000000
3.380000,1.439978,-0.718023,-1.307221,1.732609,0.994039,-0.670493,-0.857102,0.811306,1.233923,0.051496,-8.432996,5.240906,-16.889334,-19.939083,-32.355408,0.093856,0.099610,0.000000,-0.913337,0.054285,-0.000000
3.390000,1.457261,-0.708044,-1.313863,1.724038,1.001727,-0.657897,-0.857432,0.726013,1.284697,-0.118046,-8.623975,4.911149,-17.230710,-18.821662,-33.947623,0.084530,0.100238,0.000000,-0.951459,0.070812,-0.000000
3.400000,1.474458,-0.697992,-1.320377,1.715455,1.008553,-0.644811,-0.859478,0.638852,1.332086,-0.290965,-8.804253,4.565479,-17.117157,-16.644702,-34.797772,0.074831,0.101033,0.000000,-0.987940,0.087763,0.000000
3.410000,1.491570,-0.687876,-1.326758,1.706842,1.014499,-0.631267,-0.863232,0.550027,1.376004,-0.459233,-8.956695,4.217280,-16.901365,-14.375959,-35.479106,0.064786,0.101996,0.000000,-1.020415,0.104315,-0.000000
3.420000,1.508595,-0.677705,-1.333001,1.698184,1.019549,-0.617302,-0.868685,0.459750,1.416358,-0.632209,-9.096580,3.850262,-17.316495,-13.065007,-37.266145,0.054429,0.103126,0.000000,-1.050564,0.121312,0.000000
3.430000,1.525533,-0.667488,-1.339103,1.689463,1.023689,-0.602952,-0.875848,0.368198,1.453023,-0.797656,-9.206765,3.485764,-15.749772,-8.948532,-35.592263,0.043791,0.104423,0.000000,-1.075974,0.137519,0.000000
3.440000,1.542384,-0.657234,-1.345059,1.680662,1.026910,-0.588254,-0.884606,0.275722,1.486094,-0.954361,-9.286099,3.125947,-15.948484,-7.445558,-36.993164,0.032927,0.105876,0.000000,-1.096323,0.152754,0.000000
3.450000,1.559146,-0.646953,-1.350867,1.671766,1.029201,-0.573243,-0.894949,0.182515,1.515483,-1.113275,-9.351078,2.751800,-15.455026,-5.015940,-37.172089,0.021874,0.107481,0.000000,-1.113481,0.168017,-0.000000
3.460000,1.575819,-0.636653,-1.356523,1.662758,1.030558,-0.557957,-0.906843,0.088784,1.541155,-1.264527,-9.391388,2.382941,-14.906201,-2.650547,-37.191479,0.010673,0.109233,0.000000,-1.125996,0.182328,0.000000
3.470000,1.592401,-0.626345,-1.362025,1.653624,1.030976,-0.542432,-0.920230,-0.005202,1.563093,-1.412307,-9.400453,2.002765,-14.521764,0.454810,-38.226040,-0.000627,0.111125,0.000000,-1.132983,0.195912,-0.000000
3.480000,1.608891,-0.616037,-1.367371,1.644348,1.030454,-0.526707,-0.935063,-0.099164,1.581244,-1.552289,-9.390343,1.631366,-13.460997,1.553354,-36.013141,-0.011973,0.113148,0.000000,-1.135792,0.208463,-0.000000
3.490000,1.625287,-0.605739,-1.372559,1.634918,1.028993,-0.510819,-0.951247,-0.192950,1.595761,-1.683719,-9.361702,1.270892,-12.934776,4.557605,-36.661065,-0.023330,0.115291,0.000000,-1.134524,0.219883,0.000000
3.500000,1.641589,-0.595460,-1.377587,1.625319,1.026597,-0.494804,-0.968721,-0.286290,1.606629,-1.809784,-9.302552,0.903687,-12.151310,6.882503,-36.158896,-0.034644,0.117544,0.000000,-1.127687,0.230272,0.000000
3.510000,1.657793,-0.585210,-1.382454,1.615540,1.023270,-0.478699,-0.987399,-0.378930,1.613894,-1.924011,-9.221523,0.551182,-11.260389,9.209892,-35.442428,-0.045869,0.119894,0.000000,-1.116444,0.239123,0.000000
3.520000,1.673899,-0.574998,-1.387161,1.605567,1.019021,-0.462538,-1.007218,-0.470652,1.617587,-2.040120,-9.119483,0.184935,-11.396643,11.293952,-36.698923,-0.056959,0.122331,0.000000,-1.100812,0.247649,-0.000000
3.530000,1.689904,-0.564832,-1.391705,1.595391,1.013861,-0.446359,-1.028144,-0.561240,1.617673,-2.140099,-8.993643,-0.159562,-8.575169,13.867610,-32.147361,-0.067870,0.124848,0.000000,-1.080777,0.254188,0.000000
3.540000,1.705806,-0.554723,-1.396088,1.585002,1.007801,-0.430196,-1.049957,-0.650446,1.614486,-2.222780,-8.844439,-0.479652,-8.518228,15.857027,-32.950958,-0.078561,0.127420,0.000000,-1.056659,0.258662,0.000000
3.550000,1.721603,-0.544679,-1.400309,1.574389,1.000857,-0.414080,-1.072609,-0.738066,1.608031,-2.305588,-8.675855,-0.808905,-7.477100,17.951277,-31.788295,-0.088991,0.130037,0.000000,-1.028779,0.262651,0.000000
3.560000,1.737293,-0.534709,-1.404370,1.563547,0.993046,-0.398046,-1.096018,-0.823897,1.598376,-2.374222,-8.487133,-1.119821,-6.427284,19.938688,-30.577324,-0.099125,0.132687,0.000000,-0.997505,0.264879,0.000000
3.570000,1.752873,-0.524821,-1.408270,1.552467,0.984386,-0.382123,-1.120073,-0.907730,1.585660,-2.435740,-8.275916,-1.421976,-5.698183,22.133415,-29.647569,-0.108929,0.135357,0.000000,-0.962659,0.266065,-0.000000
3.580000,1.768341,-0.515024,-1.412013,1.541144,0.974898,-0.366342,-1.144688,-0.989361,1.569991,-2.484460,-8.048059,-1.708472,-4.038994,23.415640,-27.632675,-0.118370,0.138035,0.000000,-0.925251,0.265673,-0.000000
3.590000,1.783695,-0.505326,-1.415598,1.529572,0.964606,-0.350732,-1.169717,-1.068642,1.551548,-2.520057,-7.804830,-1.978268,-3.257550,25.367796,-26.508704,-0.127427,0.140703,0.000000,-0.885678,0.263730,-0.000000
3.600000,1.798932,-0.495735,-1.419028,1.517748,0.953534,-0.335320,-1.195068,-1.145391,1.530459,-2.548112,-7.542429,-2.236782,-2.177445,26.935719,-24.990571,-0.136075,0.143350,0.000000,-0.843619,0.260847,0.000000
3.610000,1.814049,-0.486258,-1.422305,1.505670,0.941707,-0.320132,-1.220651,-1.219482,1.506871,-2.567084,-7.274451,-2.478288,-1.166738,28.213308,-23.414436,-0.144298,0.145965,0.000000,-0.800963,0.256980,0.000000
3.620000,1.829045,-0.476903,-1.425431,1.493335,0.929154,-0.305191,-1.246339,-1.290711,1.480938,-2.567333,-6.964105,-2.705943,0.675913,32.306291,-21.999588,-0.152075,0.148535,0.000000,-0.753600,0.251007,-0.000000
3.630000,1.843915,-0.467677,-1.428410,1.480743,0.915904,-0.290520,-1.271985,-1.358799,1.452812,-2.562833,-6.660844,-2.915843,0.207089,28.276069,-19.970699,-0.159376,0.151043,0.000000,-0.707520,0.244677,-0.000000
3.640000,1.858659,-0.458587,-1.431243,1.467895,0.901987,-0.276141,-1.297586,-1.423975,1.422683,-2.554392,-6.368109,-3.107461,1.919650,31.791688,-18.458508,-0.166233,0.153491,0.000000,-0.663228,0.238128,-0.000000
3.650000,1.873272,-0.449639,-1.433934,1.454792,0.887435,-0.262073,-1.323006,-1.486011,1.390711,-2.528287,-6.038550,-3.283991,2.855252,32.560403,-16.733883,-0.172626,0.155865,0.000000,-0.615422,0.229778,0.000000
3.660000,1.887754,-0.440840,-1.436485,1.441436,0.872278,-0.248332,-1.348134,-1.544774,1.357073,-2.495847,-5.713308,-3.440418,3.774766,33.214209,-14.955961,-0.178548,0.158155,0.000000,-0.569011,0.221066,0.000000
3.670000,1.902100,-0.432196,-1.438901,1.427831,0.856550,-0.234936,-1.372881,-1.600197,1.321929,-2.451514,-5.367814,-3.586848,4.940571,35.138092,-13.934016,-0.183999,0.160354,0.000000,-0.521123,0.211223,-0.000000
3.680000,1.916309,-0.423711,-1.441185,1.413980,0.840286,-0.221898,-1.397142,-1.652148,1.285414,-2.400213,-5.026192,-3.710799,5.308727,33.143201,-10.845163,-0.188976,0.162451,0.000000,-0.474807,0.201075,0.000000
3.690000,1.930379,-0.415392,-1.443341,1.399890,0.823519,-0.209232,-1.420865,-1.700747,1.247792,-2.342530,-4.690681,-3.811808,6.367906,34.671123,-9.759604,-0.193503,0.164447,0.000000,-0.430362,0.190732,0.000000
3.700000,1.944306,-0.407242,-1.445371,1.385565,0.806282,-0.196946,-1.443955,-1.745897,1.209205,-2.274241,-4.339380,-3.902682,7.135302,34.839696,-8.021459,-0.197579,0.166335,0.000000,-0.385142,0.179520,-0.000000
3.710000,1.958089,-0.399268,-1.447281,1.371013,0.788612,-0.185050,-1.466337,-1.787554,1.169786,-2.201363,-3.992060,-3.978839,7.822482,34.907682,-6.430436,-0.201211,0.168109,0.000000,-0.341442,0.168220,0.000000
3.720000,1.971726,-0.391471,-1.449073,1.356241,0.770543,-0.173552,-1.487928,-1.825713,1.129744,-2.114363,-3.638814,-4.024201,9.190863,35.430907,-3.412324,-0.204410,0.169765,0.000000,-0.298575,0.156111,-0.000000
3.730000,1.985214,-0.383858,-1.450753,1.341257,0.752110,-0.162457,-1.508622,-1.860347,1.089317,-2.025657,-3.289938,-4.063262,8.530174,34.318128,-4.432442,-0.207187,0.171298,0.000000,-0.257080,0.144121,-0.000000
3.740000,1.998550,-0.376430,-1.452324,1.326071,0.733348,-0.151767,-1.528442,-1.891533,1.048488,-1.936274,-2.946858,-4.097607,9.719748,34.577262,-1.676441,-0.209557,0.172712,0.000000,-0.217034,0.132334,0.000000
3.750000,2.011734,-0.369192,-1.453790,1.310692,0.714291,-0.141487,-1.547300,-1.919270,1.007473,-1.834675,-2.601218,-4.103535,10.209944,34.240834,-0.287416,-0.211531,0.174001,0.000000,-0.178093,0.119956,-0.000000
3.760000,2.024764,-0.362145,-1.455155,1.295129,0.694974,-0.131618,-1.565137,-1.943582,0.966430,-1.732265,-2.262095,-4.103330,10.630693,33.807877,1.007579,-0.213124,0.175166,0.000000,-0.140651,0.107811,0.000000
3.770000,2.037636,-0.355293,-1.456424,1.279392,0.675430,-0.122158,-1.581902,-1.964509,0.925505,-1.618856,-1.923143,-4.077265,11.685888,33.737757,3.523522,-0.214348,0.176205,0.000000,-0.104479,0.095182,-0.000000
3.780000,2.050351,-0.348637,-1.457600,1.263494,0.655695,-0.113107,-1.597519,-1.982075,0.884893,-1.506208,-1.592455,-4.047171,10.823796,32.380398,2.461862,-0.215219,0.177116,0.000000,-0.069846,0.082918,0.000000
3.790000,2.062906,-0.342180,-1.458687,1.247446,0.635800,-0.104460,-1.612035,-1.996391,0.844564,-1.395338,-1.271090,-4.014726,11.701624,32.114806,4.690609,-0.215751,0.177905,0.000000,-0.036765,0.071079,-0.000000
3.800000,2.075299,-0.335922,-1.459690,1.231258,0.615777,-0.096214,-1.625390,-2.007501,0.804687,-1.275406,-0.952358,-3.959364,11.917933,31.388581,5.694353,-0.215958,0.178570,0.000000,-0.004991,0.058906,0.000000
3.810000,2.087530,-0.329865,-1.460613,1.214942,0.595660,-0.088364,-1.637550,-2.015465,0.765381,-1.156411,-0.641673,-3.900602,12.084126,30.631011,6.599914,-0.215855,0.179112,0.000000,0.025443,0.047077,0.000000
3.820000,2.099598,-0.324009,-1.461459,1.198511,0.575478,-0.080904,-1.648496,-2.020370,0.726748,-1.031942,-0.340908,-3.822526,12.596936,29.618791,8.463210,-0.215456,0.179533,0.000000,0.054017,0.035213,0.000000
3.830000,2.111500,-0.318355,-1.462232,1.181976,0.555263,-0.073826,-1.658195,-2.022306,0.688931,-0.908931,-0.047249,-3.742914,11.991045,29.109033,7.429092,-0.214778,0.179834,0.000000,0.081503,0.023691,0.000000
3.840000,2.123237,-0.312904,-1.462936,1.165351,0.535042,-0.067123,-1.666684,-2.021338,0.651886,-0.788125,0.239012,-3.663315,12.369808,28.030811,9.021210,-0.213829,0.180020,0.000000,0.107955,0.012543,0.000000
3.850000,2.134807,-0.307654,-1.463576,1.148647,0.514845,-0.060786,-1.673941,-2.017565,0.615729,-0.663432,0.514149,-3.567372,12.354952,27.096837,9.612042,-0.212625,0.180091,0.000000,0.132656,0.001435,0.000000
3.860000,2.146210,-0.302607,-1.464153,1.131876,0.494700,-0.054805,-1.679960,-2.011079,0.580535,-0.540604,0.781595,-3.470815,12.301191,26.152124,10.112127,-0.211179,0.180050,0.000000,0.156374,-0.009348,-0.000000
3.870000,2.157444,-0.297760,-1.464673,1.115051,0.474632,-0.049172,-1.684747,-2.001984,0.546363,-0.416645,1.034939,-3.361469,12.390017,24.741526,11.331735,-0.209504,0.179900,0.000000,0.178228,-0.019899,-0.000000
3.880000,2.168511,-0.293114,-1.465138,1.098185,0.454668,-0.043874,-1.688301,-1.990402,0.513299,-0.294904,1.281156,-3.253097,11.949258,24.505874,10.317627,-0.207617,0.179644,0.000000,0.199280,-0.030147,-0.000000
3.890000,2.179408,-0.288666,-1.465551,1.081289,0.434832,-0.038902,-1.690655,-1.976383,0.481290,-0.175869,1.520377,-3.147000,11.947384,23.105201,11.306894,-0.205521,0.179285,0.000000,0.219601,-0.040079,-0.000000
3.900000,2.190136,-0.284416,-1.465917,1.064376,0.415148,-0.034245,-1.691817,-1.960047,0.450400,-0.056872,1.745180,-3.030727,11.752040,22.083739,11.520891,-0.203231,0.178827,0.000000,0.238207,-0.049750,0.000000
3.910000,2.200696,-0.280363,-1.466237,1.047457,0.395639,-0.029890,-1.691802,-1.941502,0.420668,0.059569,1.962264,-2.915477,11.532510,21.068520,11.677888,-0.200759,0.178271,0.000000,0.256049,-0.059122,-0.000000
3.920000,2.211086,-0.276503,-1.466516,1.030544,0.376325,-0.025827,-1.690634,-1.920857,0.392108,0.173690,2.164109,-2.795919,11.286671,19.555737,12.069614,-0.198116,0.177621,0.000000,0.272291,-0.068136,-0.000000
3.930000,2.221306,-0.272835,-1.466755,1.013648,0.357228,-0.022044,-1.688337,-1.898242,0.364745,0.285205,2.358743,-2.677515,11.012415,19.378971,11.596955,-0.195315,0.176882,0.000000,0.287875,-0.076873,-0.000000
3.940000,2.231359,-0.269358,-1.466958,0.996781,0.338367,-0.018529,-1.684939,-1.873703,0.338550,0.393872,2.546520,-2.561049,10.717912,17.918656,11.842628,-0.192360,0.176055,0.000000,0.302870,-0.085333,-0.000000
3.950000,2.241242,-0.266067,-1.467126,0.979953,0.319760,-0.015269,-1.680470,-1.847366,0.313535,0.499492,2.719322,-2.442163,10.401842,16.900280,11.772078,-0.189263,0.175144,0.000000,0.316397,-0.093428,0.000000
3.960000,2.250958,-0.262962,-1.467264,0.963175,0.301425,-0.012254,-1.674959,-1.819339,0.289698,0.602087,2.884422,-2.325327,10.071771,15.897112,11.655713,-0.186034,0.174153,0.000000,0.329287,-0.101248,0.000000
3.970000,2.260506,-0.260038,-1.467372,0.946457,0.283379,-0.009471,-1.668442,-1.789729,0.267029,0.700482,3.035235,-2.208569,9.645892,14.484373,11.622505,-0.182682,0.173085,0.000000,0.340861,-0.108650,-0.000000
3.980000,2.269887,-0.257293,-1.467454,0.929809,0.265635,-0.006910,-1.660959,-1.758658,0.245518,0.795821,3.178705,-2.094408,9.420873,14.218448,11.201122,-0.179219,0.171944,0.000000,0.351864,-0.115799,0.000000
3.990000,2.279102,-0.254724,-1.467511,0.913241,0.248210,-0.004557,-1.652536,-1.726176,0.225130,0.888025,3.315253,-1.983328,8.976567,12.874051,11.076019,-0.175646,0.170732,0.000000,0.362352,-0.122703,-0.000000
4.000000,2.288152,-0.252328,-1.467546,0.896762,0.231116,-0.002403,-1.643215,-1.692402,0.205848,0.975673,3.438097,-1.873569,8.592593,11.915811,10.803761,-0.171976,0.169453,0.000000,0.371628,-0.129193,-0.000000
4.010000,2.297038,-0.250101,-1.467560,0.880380,0.214366,-0.000437,-1.633033,-1.657437,0.187648,1.059966,3.553345,-1.766917,8.204144,10.977164,10.507818,-0.168216,0.168111,0.000000,0.380331,-0.135425,-0.000000
4.020000,2.305760,-0.248039,-1.467555,0.864104,0.197971,0.001353,-1.622033,-1.621379,0.170498,1.139177,3.656229,-1.663631,7.695881,9.757349,10.159139,-0.164373,0.166708,0.000000,0.387994,-0.141235,0.000000
4.030000,2.314320,-0.246140,-1.467533,0.847942,0.181942,0.002977,-1.610260,-1.584336,0.154365,1.215100,3.751802,-1.563515,7.490035,9.365129,9.861276,-0.160457,0.165248,0.000000,0.395112,-0.146802,-0.000000
4.040000,2.322720,-0.244399,-1.467496,0.831901,0.166288,0.004444,-1.597742,-1.546365,0.139217,1.287778,3.840465,-1.466750,6.985891,8.214441,9.474905,-0.156472,0.163734,0.000000,0.401724,-0.152134,0.000000
4.050000,2.330959,-0.242813,-1.467445,0.815989,0.151017,0.005764,-1.584523,-1.507568,0.125017,1.355319,3.917484,-1.373947,6.580971,7.348602,9.097623,-0.152426,0.162169,0.000000,0.407369,-0.157054,-0.000000
4.060000,2.339040,-0.241377,-1.467381,0.800213,0.136139,0.006947,-1.570645,-1.468038,0.111731,1.419576,3.987235,-1.283666,6.182167,6.504688,8.733004,-0.148327,0.160557,0.000000,0.412452,-0.161726,-0.000000
4.070000,2.346964,-0.240089,-1.467306,0.784578,0.121659,0.008002,-1.556152,-1.427860,0.099313,1.478153,4.046725,-1.201375,5.619502,5.494234,7.941337,-0.144180,0.158900,0.000000,0.416754,-0.165997,0.000000
4.080000,2.354732,-0.238943,-1.467222,0.769091,0.107583,0.008936,-1.541091,-1.387126,0.087701,1.533778,4.099239,-1.120296,5.508645,5.015332,8.280463,-0.139994,0.157203,0.000000,0.420486,-0.170030,-0.000000
4.090000,2.362346,-0.237936,-1.467128,0.753758,0.093918,0.009759,-1.525485,-1.345896,0.076905,1.586604,4.145134,-1.040171,4.970717,4.068932,7.524883,-0.135772,0.155467,0.000000,0.423680,-0.173836,-0.000000
4.100000,2.369807,-0.237063,-1.467027,0.738583,0.080667,0.010477,-1.509379,-1.304257,0.066868,1.633946,4.181528,-0.967937,4.585260,3.311926,7.140710,-0.131523,0.153695,0.000000,0.426138,-0.177257,-0.000000
4.110000,2.377118,-0.236321,-1.466919,0.723572,0.067834,0.011098,-1.492815,-1.262287,0.057542,1.678326,4.211225,-0.897647,4.209220,2.577562,6.760574,-0.127251,0.151892,0.000000,0.428047,-0.180448,0.000000
4.120000,2.384279,-0.235705,-1.466805,0.708729,0.055422,0.011630,-1.475832,-1.220061,0.048889,1.717383,4.232664,-0.834184,3.684556,1.766068,6.086961,-0.122964,0.150059,0.000000,0.429307,-0.183247,-0.000000
4.130000,2.391293,-0.235211,-1.466686,0.694057,0.043433,0.012078,-1.458476,-1.177655,0.040853,1.753749,4.247716,-0.772649,3.592584,1.249750,6.225890,-0.118667,0.148199,0.000000,0.430029,-0.185839,0.000000
4.140000,2.398161,-0.234835,-1.466564,0.679560,0.031869,0.012449,-1.440765,-1.135126,0.033432,1.787623,4.256686,-0.712767,3.101872,0.495659,5.595938,-0.114365,0.146316,0.000000,0.430235,-0.188239,0.000000
4.150000,2.404885,-0.234572,-1.466438,0.665242,0.020731,0.012749,-1.422741,-1.092547,0.026574,1.816515,4.258153,-0.659375,2.759875,-0.145903,5.238913,-0.110064,0.144411,0.000000,0.429833,-0.190267,0.000000
4.160000,2.411467,-0.234419,-1.466309,0.651106,0.010018,0.012982,-1.404442,-1.049982,0.020239,1.842813,4.253722,-0.608018,2.430936,-0.764129,4.896887,-0.105770,0.142488,0.000000,0.428921,-0.192094,0.000000
4.170000,2.417908,-0.234371,-1.466178,0.637154,-0.000269,0.013155,-1.385902,-1.007495,0.014391,1.864521,4.242695,-0.562665,1.980979,-1.410442,4.308891,-0.101488,0.140549,0.000000,0.427464,-0.193573,0.000000
4.180000,2.424210,-0.234423,-1.466046,0.623389,-0.010132,0.013271,-1.367159,-0.965147,0.008981,1.883909,4.226155,-0.519000,1.900674,-1.892689,4.430382,-0.097222,0.138597,0.000000,0.425514,-0.194868,-0.000000
4.190000,2.430376,-0.234572,-1.465913,0.609812,-0.019573,0.013336,-1.348230,-0.922989,0.004007,1.901188,4.204377,-0.476712,1.487952,-2.486176,3.894874,-0.092979,0.136634,0.000000,0.423091,-0.195993,-0.000000
4.200000,2.436407,-0.234813,-1.465780,0.596425,-0.028593,0.013353,-1.329150,-0.881079,-0.000574,1.914305,4.176741,-0.439912,1.205504,-3.010014,3.601543,-0.088762,0.134661,0.000000,0.420165,-0.196797,-0.000000
4.210000,2.442305,-0.235142,-1.465646,0.583229,-0.037195,0.013326,-1.309950,-0.839470,-0.004794,1.925315,4.144214,-0.404501,0.937607,-3.509966,3.331052,-0.084577,0.132683,0.000000,0.416787,-0.197427,-0.000000
4.220000,2.448072,-0.235555,-1.465513,0.570226,-0.045383,0.013258,-1.290657,-0.798212,-0.008685,1.932541,4.106451,-0.374642,0.568776,-4.020874,2.790906,-0.080428,0.130700,0.000000,0.412952,-0.197769,-0.000000
4.230000,2.453711,-0.236049,-1.465381,0.557416,-0.053161,0.013153,-1.271305,-0.757356,-0.012288,1.937973,4.064250,-0.345531,0.521774,-4.414761,3.038459,-0.076319,0.128715,0.000000,0.408691,-0.197953,0.000000
4.240000,2.459221,-0.236617,-1.465250,0.544800,-0.060532,0.013013,-1.251903,-0.716941,-0.015596,1.941825,4.017872,-0.316809,0.191263,-4.875208,2.559331,-0.072256,0.126730,0.000000,0.404026,-0.197997,-0.000000
4.250000,2.464607,-0.237258,-1.465121,0.532378,-0.067501,0.012842,-1.232480,-0.677014,-0.018643,1.942346,3.966977,-0.293028,-0.025228,-5.281818,2.348308,-0.068240,0.124746,0.000000,0.398953,-0.197781,-0.000000
4.260000,2.469870,-0.237966,-1.464993,0.520151,-0.074074,0.012641,-1.213060,-0.637614,-0.021457,1.941316,3.912314,-0.270066,-0.226828,-5.664531,2.153547,-0.064278,0.122765,0.000000,0.393510,-0.197429,-0.000000
4.270000,2.475011,-0.238738,-1.464868,0.508117,-0.080256,0.012414,-1.193664,-0.598781,-0.024058,1.937408,3.853601,-0.250764,-0.505587,-6.057169,1.799704,-0.060371,0.120790,0.000000,0.387686,-0.196841,-0.000000
4.280000,2.480033,-0.239570,-1.464745,0.496277,-0.086052,0.012161,-1.174316,-0.560553,-0.026474,1.932231,3.791604,-0.232124,-0.526314,-6.337920,1.933536,-0.056525,0.118821,0.000000,0.381532,-0.196139,0.000000
4.290000,2.484937,-0.240458,-1.464625,0.484631,-0.091469,0.011885,-1.155023,-0.522959,-0.028702,1.925977,3.726573,-0.213874,-0.769562,-6.681778,1.627625,-0.052742,0.116861,0.000000,0.375073,-0.195339,0.000000
4.300000,2.489726,-0.241398,-1.464508,0.473176,-0.096513,0.011587,-1.135806,-0.486033,-0.030764,1.917284,3.658190,-0.198748,-0.919867,-6.974056,1.490673,-0.049025,0.114910,0.000000,0.368289,-0.194336,0.000000
4.310000,2.494401,-0.242387,-1.464393,0.461914,-0.101192,0.011270,-1.116680,-0.449804,-0.032678,1.907566,3.587184,-0.184191,-1.056841,-7.243168,1.367601,-0.045377,0.112970,0.000000,0.361237,-0.193240,0.000000
4.320000,2.498965,-0.243421,-1.464282,0.450843,-0.105512,0.010934,-1.097661,-0.414299,-0.034456,1.895865,3.513219,-0.171861,-1.247367,-7.527196,1.154289,-0.041801,0.111042,0.000000,0.353890,-0.191972,0.000000
4.330000,2.503419,-0.244496,-1.464175,0.439960,-0.109480,0.010581,-1.078765,-0.379546,-0.036116,1.883375,3.437112,-0.159939,-1.247580,-7.689862,1.233829,-0.038300,0.109127,0.000000,0.346320,-0.190631,0.000000
4.340000,2.507765,-0.245609,-1.464071,0.429267,-0.113105,0.010212,-1.059996,-0.345563,-0.037655,1.870261,3.359106,-0.148229,-1.407664,-7.927118,1.055897,-0.034875,0.107227,0.000000,0.338550,-0.189231,0.000000
4.350000,2.512005,-0.246757,-1.463971,0.418760,-0.116394,0.009828,-1.041366,-0.312372,-0.039087,1.855554,3.278803,-0.138325,-1.497979,-8.110774,0.980755,-0.031530,0.105341,0.000000,0.330547,-0.187691,-0.000000
4.360000,2.516140,-0.247936,-1.463874,0.408439,-0.119355,0.009431,-1.022886,-0.279992,-0.040422,1.840281,3.196972,-0.128790,-1.577259,-8.272725,0.914210,-0.028265,0.103471,0.000000,0.322381,-0.186098,-0.000000
4.370000,2.520174,-0.249143,-1.463782,0.398302,-0.121997,0.009020,-1.004565,-0.248440,-0.041666,1.823837,3.113226,-0.120135,-1.688178,-8.453161,0.831726,-0.025083,0.101618,0.000000,0.314016,-0.184397,0.000000
4.380000,2.524107,-0.250375,-1.463694,0.388347,-0.124327,0.008598,-0.986411,-0.217731,-0.042826,1.807009,3.028397,-0.111845,-1.674978,-8.508599,0.828038,-0.021985,0.099782,0.000000,0.305534,-0.182661,-0.000000
4.390000,2.527942,-0.251628,-1.463610,0.378573,-0.126354,0.008164,-0.968425,-0.187874,-0.043904,1.789927,2.942712,-0.103816,-1.761855,-8.645574,0.765796,-0.018972,0.097964,0.000000,0.296958,-0.180902,-0.000000
4.400000,2.531679,-0.252901,-1.463531,0.368978,-0.128087,0.007720,-0.950615,-0.158882,-0.044905,1.771989,2.855721,-0.096393,-1.802355,-8.729148,0.733707,-0.016046,0.096164,0.000000,0.288243,-0.179062,0.000000
4.410000,2.535322,-0.254189,-1.463456,0.359560,-0.129535,0.007266,-0.932986,-0.130762,-0.045833,1.753867,2.768188,-0.089235,-1.834151,-8.793322,0.706913,-0.013208,0.094382,0.000000,0.279467,-0.177206,-0.000000
4.420000,2.538871,-0.255491,-1.463385,0.350318,-0.130705,0.006804,-0.915540,-0.103521,-0.046690,1.735209,2.679742,-0.082160,-1.883120,-8.874536,0.701364,-0.010457,0.092619,0.000000,0.270592,-0.175296,0.000000
4.430000,2.542329,-0.256802,-1.463320,0.341249,-0.131608,0.006333,-0.898282,-0.077167,-0.047477,1.716505,2.591139,-0.075354,-1.855988,-8.842734,0.660493,-0.007796,0.090876,0.000000,0.261696,-0.173384,0.000000
4.440000,2.545697,-0.258122,-1.463259,0.332351,-0.132252,0.005854,-0.881210,-0.051698,-0.048197,1.697847,2.502576,-0.068776,-1.887678,-8.885463,0.663649,-0.005223,0.089152,0.000000,0.252799,-0.171478,0.000000
4.450000,2.548976,-0.259447,-1.463203,0.323624,-0.132645,0.005369,-0.864326,-0.027117,-0.048852,1.678888,2.413641,-0.062132,-1.890270,-8.880397,0.657759,-0.002740,0.087446,0.000000,0.243859,-0.169541,0.000000
4.460000,2.552170,-0.260774,-1.463151,0.315064,-0.132797,0.004877,-0.847631,-0.003424,-0.049441,1.660040,2.325002,-0.055611,-1.886848,-8.858877,0.654949,-0.000346,0.085761,0.000000,0.234945,-0.167617,0.000000
4.470000,2.555278,-0.262102,-1.463105,0.306671,-0.132716,0.004380,-0.831126,0.019383,-0.049964,1.641090,2.236385,-0.048951,-1.894092,-8.848235,0.669745,0.001959,0.084094,0.000000,0.226030,-0.165681,-0.000000
4.480000,2.558304,-0.263428,-1.463064,0.298441,-0.132412,0.003878,-0.814809,0.041306,-0.050420,1.622350,2.148374,-0.042369,-1.852691,-8.751101,0.646834,0.004175,0.082447,0.000000,0.217173,-0.163767,-0.000000
4.490000,2.561247,-0.264749,-1.463027,0.290374,-0.131893,0.003372,-0.798678,0.062353,-0.050811,1.603881,2.061134,-0.035854,-1.848866,-8.708385,0.663937,0.006303,0.080819,0.000000,0.208392,-0.161881,0.000000
4.500000,2.564112,-0.266065,-1.462996,0.282467,-0.131168,0.002862,-0.782731,0.082530,-0.051136,1.585451,1.974370,-0.029153,-1.827485,-8.628488,0.668892,0.008343,0.079209,0.000000,0.199657,-0.159999,0.000000
4.510000,2.566897,-0.267372,-1.462970,0.274719,-0.130245,0.002350,-0.766968,0.101844,-0.051396,1.567286,1.888582,-0.022734,-1.803387,-8.535385,0.668812,0.010296,0.077619,0.000000,0.191019,-0.158146,0.000000
4.520000,2.569606,-0.268669,-1.462949,0.267127,-0.129134,0.001835,-0.751385,0.120304,-0.051587,1.549408,1.803626,-0.015280,-1.773492,-8.445670,0.769643,0.012163,0.076046,0.000000,0.182465,-0.156314,0.000000
4.530000,2.572240,-0.269954,-1.462934,0.259690,-0.127842,0.001318,-0.735979,0.137920,-0.051704,1.531788,1.719882,-0.008443,-1.750254,-8.300835,0.596088,0.013946,0.074492,0.000000,0.174031,-0.154515,-0.000000
4.540000,2.574801,-0.271225,-1.462923,0.252407,-0.126378,0.000801,-0.720748,0.154706,-0.051758,1.514441,1.637479,-0.002301,-1.717180,-8.186224,0.684899,0.015644,0.072955,0.000000,0.165732,-0.152749,0.000000
4.550000,2.577289,-0.272481,-1.462918,0.245275,-0.124751,0.000283,-0.705689,0.170674,-0.051745,1.497432,1.556264,0.004805,-1.686067,-8.046824,0.683193,0.017261,0.071436,0.000000,0.157554,-0.151012,0.000000
4.560000,2.579707,-0.273720,-1.462917,0.238293,-0.122968,-0.000234,-0.690798,0.185836,-0.051664,1.480730,1.476541,0.011446,-1.654463,-7.897760,0.679534,0.018796,0.069935,0.000000,0.149525,-0.149310,0.000000
4.570000,2.582055,-0.274940,-1.462922,0.231458,-0.121037,-0.000750,-0.676073,0.200210,-0.051514,1.464342,1.398325,0.018711,-1.623089,-7.742292,0.739468,0.020252,0.068450,0.000000,0.141650,-0.147636,0.000000
4.580000,2.584336,-0.276140,-1.462932,0.224771,-0.118966,-0.001264,-0.661510,0.213808,-0.051292,1.448266,1.321757,0.025520,-1.592306,-7.570004,0.620901,0.021630,0.066981,0.000000,0.133939,-0.145999,-0.000000
4.590000,2.586551,-0.277319,-1.462947,0.218228,-0.116763,-0.001775,-0.647107,0.226650,-0.051005,1.432492,1.246921,0.031807,-1.562871,-7.397379,0.670282,0.022931,0.065529,0.000000,0.126403,-0.144397,0.000000
4.600000,2.588701,-0.278475,-1.462968,0.211828,-0.114435,-0.002284,-0.632860,0.238753,-0.050653,1.416998,1.173848,0.038628,-1.535617,-7.214591,0.659682,0.024158,0.064092,0.000000,0.119046,-0.142821,0.000000
4.610000,2.590788,-0.279607,-1.462993,0.205570,-0.111990,-0.002788,-0.618766,0.250134,-0.050234,1.401812,1.102615,0.045109,-1.509735,-7.025654,0.647860,0.025313,0.062671,0.000000,0.111874,-0.141279,-0.000000
4.620000,2.592813,-0.280714,-1.463024,0.199452,-0.109435,-0.003288,-0.604823,0.260812,-0.049750,1.386722,1.033403,0.051685,-1.501358,-6.820904,0.655609,0.026396,0.061266,0.000000,0.104905,-0.139748,-0.000000
4.630000,2.594778,-0.281796,-1.463059,0.193473,-0.106776,-0.003783,-0.591030,0.270808,-0.049202,1.371931,0.966112,0.057975,-1.457226,-6.636565,0.601732,0.027411,0.059875,0.000000,0.098130,-0.138251,0.000000
4.640000,2.596683,-0.282850,-1.463099,0.187631,-0.104021,-0.004272,-0.577384,0.280141,-0.048592,1.357412,0.900789,0.063940,-1.455024,-6.422211,0.602312,0.028360,0.058500,0.000000,0.091552,-0.136784,0.000000
4.650000,2.598531,-0.283876,-1.463144,0.181925,-0.101176,-0.004755,-0.563882,0.288831,-0.047923,1.342875,0.837639,0.069915,-1.445092,-6.212006,0.580881,0.029243,0.057139,0.000000,0.085194,-0.135316,0.000000
4.660000,2.600322,-0.284873,-1.463194,0.176353,-0.098247,-0.005230,-0.550525,0.296900,-0.047196,1.328515,0.776529,0.075413,-1.439590,-5.998845,0.553673,0.030064,0.055792,0.000000,0.079039,-0.133871,0.000000
4.670000,2.602058,-0.285840,-1.463249,0.170914,-0.095240,-0.005698,-0.537313,0.304370,-0.046412,1.313955,0.717771,0.081306,-1.462128,-5.762511,0.590106,0.030825,0.054460,0.000000,0.073122,-0.132403,0.000000
4.680000,2.603741,-0.286777,-1.463308,0.165606,-0.092161,-0.006158,-0.524246,0.311262,-0.045572,1.299489,0.661070,0.086485,-1.431926,-5.577625,0.444290,0.031527,0.053143,0.000000,0.067411,-0.130951,-0.000000
4.690000,2.605371,-0.287683,-1.463372,0.160428,-0.089016,-0.006610,-0.511323,0.317598,-0.044686,1.285061,0.606435,0.090879,-1.466492,-5.338624,0.468734,0.032174,0.051840,0.000000,0.061904,-0.129507,0.000000
4.700000,2.606950,-0.288558,-1.463440,0.155379,-0.085811,-0.007052,-0.498546,0.323399,-0.043753,1.270238,0.554214,0.095555,-1.488993,-5.115761,0.431869,0.032766,0.050551,0.000000,0.056642,-0.128022,-0.000000
4.710000,2.608479,-0.289399,-1.463513,0.150457,-0.082550,-0.007485,-0.485918,0.328689,-0.042777,1.255354,0.504083,0.099593,-1.518160,-4.893105,0.393136,0.033307,0.049278,0.000000,0.051587,-0.126535,0.000000
4.720000,2.609959,-0.290208,-1.463590,0.145660,-0.079239,-0.007907,-0.473443,0.333490,-0.041761,1.239576,0.456513,0.103575,-1.611017,-4.637528,0.385673,0.033799,0.048020,0.000000,0.046790,-0.124957,0.000000
4.730000,2.611393,-0.290984,-1.463671,0.140988,-0.075882,-0.008320,-0.461127,0.337826,-0.040708,1.223690,0.410980,0.106937,-1.567208,-4.469709,0.285968,0.034244,0.046777,0.000000,0.042196,-0.123372,0.000000
4.740000,2.612780,-0.291726,-1.463756,0.136437,-0.072484,-0.008721,-0.448969,0.341716,-0.039625,1.207626,0.367457,0.109638,-1.675768,-4.217893,0.271494,0.034643,0.045551,0.000000,0.037801,-0.121773,-0.000000
4.750000,2.614122,-0.292434,-1.463846,0.132008,-0.069049,-0.009112,-0.436979,0.345184,-0.038515,1.190376,0.326476,0.112211,-1.748126,-3.995612,0.225730,0.035001,0.044341,0.000000,0.033661,-0.120053,0.000000
4.760000,2.615420,-0.293107,-1.463939,0.127697,-0.065581,-0.009492,-0.425162,0.348252,-0.037383,1.172829,0.287473,0.114131,-1.828046,-3.776670,0.177730,0.035317,0.043148,0.000000,0.029719,-0.118306,0.000000
4.770000,2.616676,-0.293745,-1.464035,0.123504,-0.062085,-0.009860,-0.413530,0.350943,-0.036232,1.153175,0.251198,0.115945,-2.042594,-3.506164,0.165721,0.035596,0.041974,0.000000,0.026050,-0.116345,0.000000
4.780000,2.617891,-0.294348,-1.464136,0.119426,-0.058564,-0.010216,-0.402099,0.353282,-0.035067,1.133243,0.216764,0.117040,-1.944492,-3.381894,0.052542,0.035839,0.040820,0.000000,0.022564,-0.114358,0.000000
4.790000,2.619065,-0.294916,-1.464240,0.115461,-0.055021,-0.010561,-0.390866,0.355284,-0.033894,1.112964,0.184111,0.117383,-2.177189,-3.121261,0.035414,0.036048,0.039686,0.000000,0.019254,-0.112338,0.000000
4.800000,2.620200,-0.295449,-1.464347,0.111608,-0.051459,-0.010894,-0.379849,0.356973,-0.032719,1.090179,0.154094,0.117583,-2.319741,-2.910421,-0.014686,0.036225,0.038573,0.000000,0.016210,-0.110063,0.000000
4.810000,2.621297,-0.295945,-1.464457,0.107863,-0.047882,-0.011215,-0.369062,0.358371,-0.031546,1.067048,0.125718,0.116962,-2.468460,-2.706930,-0.068127,0.036372,0.037483,0.000000,0.013327,-0.107754,0.000000
4.820000,2.622358,-0.296406,-1.464571,0.104226,-0.044293,-0.011525,-0.358527,0.359499,-0.030378,1.039259,0.100484,0.116599,-2.937101,-2.397067,-0.044110,0.036493,0.036418,0.000000,0.010763,-0.104971,0.000000
4.830000,2.623382,-0.296831,-1.464688,0.100692,-0.040693,-0.011823,-0.348276,0.360384,-0.029217,1.011501,0.076576,0.115247,-2.613536,-2.386796,-0.227123,0.036588,0.035382,0.000000,0.008328,-0.102192,-0.000000
4.840000,2.624372,-0.297220,-1.464808,0.097259,-0.037086,-0.012109,-0.338295,0.361034,-0.028077,0.983756,0.053886,0.112867,-3.096998,-2.094450,-0.208498,0.036660,0.034373,0.000000,0.006012,-0.099416,0.000000
4.850000,2.625328,-0.297573,-1.464930,0.093925,-0.033473,-0.012385,-0.328621,0.361473,-0.026959,0.950813,0.034192,0.110741,-3.339980,-1.902027,-0.256091,0.036709,0.033394,0.000000,0.004000,-0.096109,-0.000000
4.860000,2.626251,-0.297890,-1.465055,0.090686,-0.029857,-0.012649,-0.319284,0.361723,-0.025865,0.916029,0.016140,0.107966,-3.621757,-1.708825,-0.298328,0.036740,0.032450,0.000000,0.002151,-0.092615,0.000000
4.870000,2.627142,-0.298170,-1.465183,0.087538,-0.026239,-0.012902,-0.310310,0.361802,-0.024801,0.878275,0.000006,0.104785,-3.934176,-1.518446,-0.337375,0.036753,0.031542,0.000000,0.000495,-0.088818,0.000000
4.880000,2.628002,-0.298414,-1.465313,0.084478,-0.022621,-0.013145,-0.301730,0.361730,-0.023770,0.837236,-0.014239,0.101231,-4.279239,-1.330895,-0.372709,0.036751,0.030673,0.000000,-0.000972,-0.084686,-0.000000
4.890000,2.628832,-0.298623,-1.465446,0.081502,-0.019005,-0.013378,-0.293577,0.361524,-0.022777,0.792575,-0.026622,0.097345,-4.658941,-1.146180,-0.403769,0.036734,0.029848,0.000000,-0.002251,-0.080184,-0.000000
4.900000,2.629632,-0.298795,-1.465581,0.078605,-0.015391,-0.013601,-0.285891,0.361203,-0.021824,0.743935,-0.037171,0.093168,-5.075317,-0.964240,-0.430371,0.036706,0.029070,0.000000,-0.003346,-0.075276,-0.000000
4.910000,2.630404,-0.298930,-1.465718,0.075782,-0.011781,-0.013814,-0.278713,0.360786,-0.020914,0.690940,-0.045916,0.088754,-5.530356,-0.785150,-0.451628,0.036668,0.028343,0.000000,-0.004259,-0.069923,-0.000000
4.920000,2.631148,-0.299030,-1.465857,0.073029,-0.008176,-0.014019,-0.272088,0.360291,-0.020050,0.633193,-0.052883,0.084155,-6.026051,-0.608886,-0.467173,0.036622,0.027672,0.000000,-0.004992,-0.064085,0.000000
4.930000,2.631865,-0.299094,-1.465998,0.070339,-0.004576,-0.014215,-0.266067,0.359734,-0.019232,0.570277,-0.058103,0.079431,-6.564374,-0.435451,-0.476502,0.036569,0.027062,0.000000,-0.005549,-0.057719,-0.000000
4.940000,2.632555,-0.299122,-1.466141,0.067705,-0.000981,-0.014404,-0.260702,0.359135,-0.018461,0.501756,-0.061602,0.074647,-7.147308,-0.264853,-0.479116,0.036511,0.026519,0.000000,-0.005931,-0.050780,-0.000000
4.950000,2.633219,-0.299114,-1.466286,0.065122,0.002607,-0.014585,-0.256052,0.358508,-0.017739,0.427170,-0.063409,0.069873,-7.777330,-0.097031,-0.474476,0.036451,0.026048,0.000000,-0.006141,-0.043222,0.000000
4.960000,2.633858,-0.299070,-1.466433,0.062582,0.006189,-0.014759,-0.252180,0.357872,-0.017064,0.346045,-0.063552,0.065183,-8.455809,0.067937,-0.462115,0.036389,0.025656,0.000000,-0.006182,-0.034997,-0.000000
4.970000,2.634471,-0.298990,-1.466581,0.060076,0.009764,-0.014926,-0.249154,0.357242,-0.016435,0.257884,-0.062059,0.060658,-9.184982,0.230080,-0.441514,0.036328,0.025350,0.000000,-0.006057,-0.026053,-0.000000
4.980000,2.635059,-0.298874,-1.466731,0.057596,0.013334,-0.015088,-0.247048,0.356636,-0.015850,0.162170,-0.058959,0.056382,-9.966812,0.389396,-0.412175,0.036268,0.025137,0.000000,-0.005768,-0.016339,0.000000
4.990000,2.635623,-0.298723,-1.466883,0.055132,0.016897,-0.015243,-0.245938,0.356069,-0.015306,0.058366,-0.054281,0.052445,-10.803228,0.545883,-0.373609,0.036213,0.025026,0.000000,-0.005317,-0.005799,0.000000
5.000000,2.636162,-0.298536,-1.467036,0.052673,0.020455,-0.015394,-0.245909,0.355556,-0.014799,-0.054083,-0.048051,0.048942,-11.696099,0.699532,-0.325340,0.036163,0.025024,0.000000,-0.004708,0.005622,-0.000000
