time,x,y,z,vx,vy,vz,ax,ay,az,jx,jy,jz,sx,sy,sz,roll,pitch,yaw,p,q,r
0.000000,-3.023921,-0.726484,-1.378315,-0.016462,-0.006563,0.011081,0.303918,-0.077401,-0.086202,13.916677,-3.464272,-3.126434,-114.398895,37.295430,105.713165,-0.007817,-0.030701,0.000000,-0.347070,-1.395204,0.000000
0.010000,-3.024085,-0.726550,-1.378204,-0.013423,-0.007337,0.010219,0.443085,-0.112044,-0.117466,12.772688,-3.091318,-2.069302,-506.702481,139.447946,225.135015,-0.011275,-0.044603,0.000000,-0.308050,-1.274677,0.000000
0.020000,-3.024189,-0.726631,-1.378111,-0.007600,-0.008804,0.008732,0.559372,-0.139227,-0.127588,3.782627,-0.675313,1.376266,-817.550770,217.097279,270.504295,-0.013987,-0.056229,0.000000,-0.069467,-0.387169,-0.000000
0.030000,-3.024237,-0.726726,-1.378029,-0.002235,-0.010122,0.007667,0.518737,-0.125550,-0.089941,-3.578328,1.250628,3.340784,-322.175874,85.256859,59.589808,-0.012664,-0.052350,0.000000,0.121633,0.342799,0.000000
0.040000,-3.024234,-0.726834,-1.377957,0.002775,-0.011315,0.006933,0.487805,-0.114215,-0.060772,-2.660890,1.029824,2.568063,86.659085,-20.790431,-70.215136,-0.011556,-0.049379,0.000000,0.101037,0.256073,-0.000000
0.050000,-3.024182,-0.726952,-1.377891,0.007521,-0.012406,0.006452,0.465519,-0.104954,-0.038580,-1.845146,0.834819,1.936481,76.871656,-18.311402,-56.983034,-0.010644,-0.047233,0.000000,0.082479,0.177650,-0.000000
0.060000,-3.024083,-0.727082,-1.377828,0.012085,-0.013414,0.006161,0.450902,-0.097519,-0.022043,-1.123457,0.663596,1.428402,67.831495,-16.029631,-45.458782,-0.009908,-0.045828,0.000000,0.065928,0.107371,0.000000
0.070000,-3.023940,-0.727221,-1.377768,0.016539,-0.014357,0.006011,0.443050,-0.091682,-0.010012,-0.488516,0.514226,1.027305,59.505704,-13.936195,-35.530688,-0.009326,-0.045087,0.000000,0.051313,0.044934,0.000000
0.080000,-3.023753,-0.727369,-1.377708,0.020946,-0.015248,0.005961,0.441132,-0.087234,-0.001497,0.066657,0.384872,0.717788,51.861345,-12.022181,-27.087045,-0.008882,-0.044930,0.000000,0.038538,-0.010062,0.000000
0.090000,-3.023521,-0.727526,-1.377648,0.025362,-0.016101,0.005981,0.444383,-0.083984,0.004344,0.548711,0.273783,0.485564,44.865535,-10.278664,-20.016155,-0.008556,-0.045288,0.000000,0.027489,-0.058081,0.000000
0.100000,-3.023245,-0.727691,-1.377588,0.029834,-0.016928,0.006048,0.452106,-0.081758,0.008215,0.963968,0.179299,0.317465,38.485408,-8.696717,-14.206322,-0.008332,-0.046092,0.000000,0.018040,-0.099625,0.000000
0.110000,-3.022924,-0.727864,-1.377527,0.034404,-0.017736,0.006145,0.463663,-0.080398,0.010693,1.318419,0.099848,0.201438,32.688027,-7.267424,-9.545850,-0.008195,-0.047281,0.000000,0.010061,-0.135207,-0.000000
0.120000,-3.022557,-0.728046,-1.377465,0.039107,-0.018536,0.006262,0.478474,-0.079761,0.012243,1.617728,0.033950,0.126548,27.440453,-5.981866,-5.923048,-0.008131,-0.048796,0.000000,0.003421,-0.165343,-0.000000
0.130000,-3.022142,-0.728235,-1.377402,0.043973,-0.019332,0.006390,0.496017,-0.079719,0.013224,1.867228,-0.019789,0.082977,22.709812,-4.831117,-3.226212,-0.008127,-0.050587,0.000000,-0.002008,-0.190530,-0.000000
0.140000,-3.021678,-0.728432,-1.377338,0.049027,-0.020130,0.006526,0.515819,-0.080157,0.013903,2.071924,-0.062672,0.062024,18.463273,-3.806255,-1.343629,-0.008171,-0.052607,0.000000,-0.006349,-0.211246,-0.000000
0.150000,-3.021162,-0.728637,-1.377272,0.054290,-0.020935,0.006668,0.537456,-0.080973,0.014465,2.236494,-0.095914,0.056104,14.667877,-2.898362,-0.163618,-0.008254,-0.054812,0.000000,-0.009720,-0.227938,0.000000
0.160000,-3.020592,-0.728851,-1.377204,0.059776,-0.021749,0.006815,0.560549,-0.082075,0.015025,2.365282,-0.120639,0.058751,11.290624,-2.098515,0.425492,-0.008365,-0.057166,0.000000,-0.012230,-0.241025,-0.000000
0.170000,-3.019966,-0.729072,-1.377135,0.065501,-0.022576,0.006969,0.584761,-0.083386,0.015640,2.462306,-0.137884,0.064614,8.296672,-1.397099,0.551893,-0.008498,-0.059633,0.000000,-0.013981,-0.250891,-0.000000
0.180000,-3.019282,-0.729302,-1.377065,0.071472,-0.023417,0.007128,0.609795,-0.084833,0.016317,2.531215,-0.148581,0.069789,5.617449,-0.773091,0.614928,-0.008645,-0.062184,0.000000,-0.015063,-0.257888,0.000000
0.190000,-3.018537,-0.729541,-1.376993,0.077697,-0.024273,0.007295,0.635386,-0.086357,0.017036,2.574655,-0.153346,0.076913,3.232314,-0.221754,0.626804,-0.008800,-0.064791,0.000000,-0.015544,-0.262304,-0.000000
0.200000,-3.017728,-0.729788,-1.376919,0.084179,-0.025144,0.007469,0.661288,-0.087900,0.017856,2.595862,-0.153016,0.082325,1.371943,0.176523,-1.423198,-0.008956,-0.067430,0.000000,-0.015505,-0.264447,-0.000000
0.210000,-3.016853,-0.730044,-1.376843,0.090922,-0.026031,0.007652,0.687303,-0.089417,0.018682,2.602094,-0.149816,0.048449,-0.024758,0.440226,-5.195962,-0.009110,-0.070080,0.000000,-0.015138,-0.264787,-0.000000
0.220000,-3.015910,-0.730308,-1.376766,0.097925,-0.026933,0.007843,0.713330,-0.090896,0.018825,2.595366,-0.144212,-0.021594,-1.747640,0.834639,-4.493340,-0.009259,-0.072726,0.000000,-0.014490,-0.263501,0.000000
0.230000,-3.014895,-0.730582,-1.376687,0.105189,-0.027849,0.008029,0.739210,-0.092302,0.018250,2.567141,-0.133123,-0.041418,-3.863380,1.378064,0.920055,-0.009399,-0.075350,0.000000,-0.013331,-0.260359,-0.000000
0.240000,-3.013806,-0.730865,-1.376605,0.112710,-0.028779,0.008208,0.764673,-0.093559,0.017996,2.518099,-0.116651,-0.003193,-5.348641,1.722241,2.702450,-0.009525,-0.077933,0.000000,-0.011682,-0.255563,0.000000
0.250000,-3.012641,-0.731158,-1.376522,0.120482,-0.029720,0.008389,0.789572,-0.094635,0.018186,2.460168,-0.098678,0.012631,-5.978221,1.803835,-0.021212,-0.009633,-0.080462,0.000000,-0.009863,-0.249716,-0.000000
0.260000,-3.011396,-0.731460,-1.376438,0.128501,-0.030671,0.008571,0.813876,-0.095532,0.018249,2.398534,-0.080574,-0.003617,-6.497550,1.871567,-1.519245,-0.009723,-0.082928,0.000000,-0.008000,-0.243232,0.000000
0.270000,-3.010071,-0.731771,-1.376351,0.136760,-0.031631,0.008753,0.837543,-0.096246,0.018114,2.330217,-0.061247,-0.017754,-7.418015,2.052804,-0.961822,-0.009793,-0.085327,0.000000,-0.006016,-0.236081,0.000000
0.280000,-3.008661,-0.732092,-1.376263,0.145252,-0.032596,0.008934,0.860481,-0.096757,0.017894,2.250174,-0.039518,-0.022854,-8.534246,2.273111,-0.310291,-0.009843,-0.087650,0.000000,-0.003800,-0.227819,-0.000000
0.290000,-3.007165,-0.732423,-1.376172,0.153969,-0.033566,0.009111,0.882546,-0.097037,0.017657,2.159532,-0.015784,-0.023960,-9.248629,2.388932,-0.151711,-0.009869,-0.089883,0.000000,-0.001387,-0.218526,-0.000000
0.300000,-3.005582,-0.732764,-1.376080,0.162903,-0.034537,0.009287,0.903671,-0.097073,0.017415,2.065201,0.008261,-0.025888,-9.462890,2.384616,-0.250965,-0.009871,-0.092021,0.000000,0.001056,-0.208862,0.000000
0.310000,-3.003907,-0.733114,-1.375987,0.172043,-0.035507,0.009460,0.923850,-0.096871,0.017139,1.970275,0.031908,-0.028979,-9.604930,2.361259,-0.277983,-0.009848,-0.094061,0.000000,0.003458,-0.199134,0.000000
0.320000,-3.002141,-0.733474,-1.375891,0.181380,-0.036474,0.009630,0.943077,-0.096435,0.016835,1.873103,0.055486,-0.031447,-9.979693,2.377944,-0.232057,-0.009802,-0.096003,0.000000,0.005849,-0.189193,-0.000000
0.330000,-3.000280,-0.733844,-1.375794,0.190904,-0.037436,0.009796,0.961313,-0.095762,0.016510,1.770681,0.079467,-0.033620,-10.472150,2.406203,-0.224628,-0.009731,-0.097845,0.000000,0.008279,-0.178734,-0.000000
0.340000,-2.998323,-0.734223,-1.375695,0.200606,-0.038390,0.009960,0.978490,-0.094846,0.016163,1.663660,0.103610,-0.035940,-10.724948,2.379366,-0.227055,-0.009636,-0.099578,0.000000,0.010723,-0.167818,-0.000000
0.350000,-2.996268,-0.734611,-1.375595,0.210474,-0.039333,0.010120,0.994586,-0.093689,0.015791,1.556182,0.127054,-0.038161,-10.675839,2.289333,-0.210138,-0.009517,-0.101201,0.000000,0.013093,-0.156867,-0.000000
0.360000,-2.994113,-0.735009,-1.375493,0.220498,-0.040263,0.010276,1.009614,-0.092304,0.015399,1.450143,0.149397,-0.040143,-10.581820,2.184264,-0.198320,-0.009374,-0.102716,0.000000,0.015351,-0.146074,0.000000
0.370000,-2.991858,-0.735417,-1.375389,0.230667,-0.041179,0.010428,1.023589,-0.090702,0.014989,1.344545,0.170739,-0.042128,-10.633742,2.094002,-0.225893,-0.009210,-0.104123,0.000000,0.017505,-0.135335,-0.000000
0.380000,-2.989500,-0.735833,-1.375284,0.240970,-0.042077,0.010575,1.036505,-0.088890,0.014557,1.237468,0.191277,-0.044661,-10.763462,2.005877,-0.285976,-0.009024,-0.105423,0.000000,0.019577,-0.124450,-0.000000
0.390000,-2.987038,-0.736258,-1.375178,0.251397,-0.042957,0.010719,1.048338,-0.086876,0.014095,1.129276,0.210857,-0.047847,-10.746454,1.886982,-0.333225,-0.008818,-0.106612,0.000000,0.021551,-0.113454,-0.000000
0.400000,-2.984472,-0.736692,-1.375070,0.261936,-0.043815,0.010857,1.059090,-0.084673,0.013600,1.022539,0.229016,-0.051325,-10.542743,1.732920,-0.358533,-0.008593,-0.107692,0.000000,0.023381,-0.102610,-0.000000
0.410000,-2.981800,-0.737134,-1.374961,0.272578,-0.044650,0.010991,1.068789,-0.082296,0.013069,0.918421,0.245515,-0.055018,-10.313993,1.568394,-0.392260,-0.008350,-0.108665,0.000000,0.025042,-0.092035,-0.000000
0.420000,-2.979020,-0.737585,-1.374850,0.283312,-0.045461,0.011119,1.077459,-0.079762,0.012499,0.816259,0.260384,-0.059170,-10.181026,1.410793,-0.452844,-0.008092,-0.109533,0.000000,0.026537,-0.081659,-0.000000
0.430000,-2.976133,-0.738044,-1.374738,0.294128,-0.046245,0.011241,1.085114,-0.077088,0.011885,0.714801,0.273731,-0.064075,-10.101173,1.254427,-0.529773,-0.007820,-0.110298,0.000000,0.027879,-0.071351,0.000000
0.440000,-2.973138,-0.738510,-1.374625,0.305014,-0.047003,0.011356,1.091755,-0.074288,0.011218,0.614236,0.285473,-0.069766,-9.932127,1.080549,-0.599151,-0.007535,-0.110960,0.000000,0.029058,-0.061131,0.000000
0.450000,-2.970033,-0.738984,-1.374511,0.315963,-0.047731,0.011465,1.097399,-0.071379,0.010490,0.516158,0.295342,-0.076058,-9.647205,0.886116,-0.658774,-0.007239,-0.111520,0.000000,0.030047,-0.051160,-0.000000
0.460000,-2.966819,-0.739465,-1.374396,0.326962,-0.048430,0.011566,1.102078,-0.068381,0.009697,0.421292,0.303195,-0.082941,-9.348909,0.685895,-0.723388,-0.006934,-0.111983,0.000000,0.030833,-0.041510,0.000000
0.470000,-2.963494,-0.739952,-1.374280,0.338004,-0.049099,0.011659,1.105824,-0.065315,0.008831,0.329180,0.309060,-0.090526,-9.117524,0.492225,-0.795752,-0.006622,-0.112351,0.000000,0.031418,-0.032134,0.000000
0.480000,-2.960058,-0.740447,-1.374163,0.349079,-0.049737,0.011743,1.108662,-0.062200,0.007886,0.238941,0.313040,-0.098856,-8.925959,0.302348,-0.869514,-0.006305,-0.112626,0.000000,0.031812,-0.022942,0.000000
0.490000,-2.956512,-0.740947,-1.374045,0.360177,-0.050343,0.011817,1.110603,-0.059054,0.006854,0.150661,0.315107,-0.107916,-8.678813,0.103039,-0.940547,-0.005986,-0.112810,0.000000,0.032013,-0.013942,0.000000
0.500000,-2.952855,-0.741453,-1.373926,0.371291,-0.050918,0.011880,1.111675,-0.055897,0.005728,0.065365,0.315100,-0.117667,-8.359685,-0.108756,-1.010673,-0.005665,-0.112905,0.000000,0.032005,-0.005239,0.000000
0.510000,-2.949086,-0.741965,-1.373807,0.382411,-0.051461,0.011931,1.111911,-0.052752,0.004501,-0.016533,0.312932,-0.128129,-8.036895,-0.322242,-1.080967,-0.005346,-0.112914,0.000000,0.031778,0.003128,0.000000
0.520000,-2.945207,-0.742483,-1.373688,0.393529,-0.051973,0.011970,1.111344,-0.049639,0.003165,-0.095373,0.308656,-0.139287,-7.758368,-0.525871,-1.144490,-0.005029,-0.112842,0.000000,0.031338,0.011191,0.000000
0.530000,-2.941216,-0.743005,-1.373568,0.404638,-0.052454,0.011995,1.110003,-0.046579,0.001715,-0.171700,0.302414,-0.151019,-7.505469,-0.721271,-1.199061,-0.004719,-0.112690,0.000000,0.030699,0.019005,0.000000
0.540000,-2.937114,-0.743532,-1.373448,0.415729,-0.052904,0.012004,1.107910,-0.043590,0.000145,-0.245482,0.294230,-0.163268,-7.222004,-0.921353,-1.252693,-0.004415,-0.112462,0.000000,0.029864,0.026565,0.000000
0.550000,-2.932901,-0.744063,-1.373328,0.426796,-0.053325,0.011997,1.105094,-0.040694,-0.001550,-0.316140,0.283987,-0.176073,-6.898660,-1.129580,-1.309448,-0.004121,-0.112159,0.000000,0.028820,0.033813,0.000000
0.560000,-2.928578,-0.744598,-1.373208,0.437831,-0.053718,0.011973,1.101587,-0.037911,-0.003376,-0.383455,0.271639,-0.189457,-6.575666,-1.335599,-1.362314,-0.003839,-0.111786,0.000000,0.027564,0.040728,0.000000
0.570000,-2.924145,-0.745137,-1.373088,0.448828,-0.054084,0.011930,1.097424,-0.035261,-0.005339,-0.447654,0.257275,-0.203319,-6.281548,-1.527793,-1.398901,-0.003570,-0.111345,0.000000,0.026104,0.047332,-0.000000
0.580000,-2.919601,-0.745680,-1.372969,0.459780,-0.054423,0.011866,1.092634,-0.032765,-0.007443,-0.509086,0.241083,-0.217435,-6.005668,-1.707873,-1.419694,-0.003317,-0.110839,0.000000,0.024459,0.053655,0.000000
0.590000,-2.914949,-0.746226,-1.372851,0.470680,-0.054739,0.011781,1.087243,-0.030440,-0.009688,-0.567767,0.223118,-0.231713,-5.714620,-1.889265,-1.439772,-0.003081,-0.110272,0.000000,0.022636,0.059700,-0.000000
0.600000,-2.910188,-0.746775,-1.372734,0.481524,-0.055032,0.011673,1.081279,-0.028303,-0.012077,-0.623379,0.203297,-0.246230,-5.401047,-2.075570,-1.464446,-0.002864,-0.109645,0.000000,0.020625,0.065434,0.000000
0.610000,-2.905319,-0.747326,-1.372618,0.492306,-0.055305,0.011540,1.074775,-0.026374,-0.014613,-0.675788,0.181607,-0.261002,-5.088991,-2.256396,-1.482250,-0.002669,-0.108963,0.000000,0.018425,0.070843,-0.000000
0.620000,-2.900342,-0.747881,-1.372503,0.503020,-0.055560,0.011380,1.067763,-0.024671,-0.017297,-0.725159,0.158169,-0.275875,-4.800606,-2.420521,-1.478279,-0.002496,-0.108228,0.000000,0.016050,0.075944,-0.000000
0.630000,-2.895258,-0.748438,-1.372390,0.513661,-0.055798,0.011194,1.060272,-0.023210,-0.020130,-0.771800,0.133196,-0.290568,-4.529716,-2.569904,-1.454800,-0.002348,-0.107444,0.000000,0.013521,0.080762,-0.000000
0.640000,-2.890069,-0.748997,-1.372279,0.524225,-0.056024,0.010978,1.052327,-0.022007,-0.023108,-0.815753,0.106771,-0.304971,-4.249408,-2.717811,-1.430368,-0.002225,-0.106613,0.000000,0.010845,0.085302,-0.000000
0.650000,-2.884774,-0.749558,-1.372170,0.534708,-0.056239,0.010731,1.043957,-0.021075,-0.026230,-0.856788,0.078840,-0.319175,-3.954893,-2.868014,-1.410212,-0.002131,-0.105738,0.000000,0.008019,0.089540,-0.000000
0.660000,-2.879374,-0.750122,-1.372064,0.545105,-0.056445,0.010453,1.035191,-0.020430,-0.029492,-0.894851,0.049411,-0.333175,-3.665190,-3.010511,-1.380977,-0.002065,-0.104822,0.000000,0.005044,0.093472,0.000000
0.670000,-2.873872,-0.750687,-1.371961,0.555412,-0.056647,0.010142,1.026060,-0.020087,-0.032893,-0.930092,0.018630,-0.346794,-3.393133,-3.134125,-1.328821,-0.002030,-0.103869,0.000000,0.001933,0.097111,0.000000
0.680000,-2.868266,-0.751254,-1.371862,0.565626,-0.056847,0.009795,1.016590,-0.020057,-0.036428,-0.962713,-0.013271,-0.359752,-3.133419,-3.240932,-1.257057,-0.002026,-0.102880,0.000000,-0.001288,0.100474,0.000000
0.690000,-2.862559,-0.751824,-1.371765,0.575743,-0.057048,0.009413,1.006806,-0.020352,-0.040088,-0.992760,-0.046189,-0.371936,-2.870750,-3.344581,-1.183161,-0.002055,-0.101859,0.000000,-0.004609,0.103564,0.000000
0.700000,-2.856751,-0.752395,-1.371673,0.585762,-0.057254,0.008994,0.996734,-0.020981,-0.043867,-1.020128,-0.080163,-0.383415,-2.601918,-3.448833,-1.111835,-0.002118,-0.100809,0.000000,-0.008034,0.106373,0.000000
0.710000,-2.850844,-0.752969,-1.371586,0.595678,-0.057468,0.008536,0.986403,-0.021955,-0.047756,-1.044799,-0.115166,-0.394172,-2.337716,-3.543715,-1.030877,-0.002216,-0.099732,0.000000,-0.011560,0.108898,0.000000
0.720000,-2.844838,-0.753545,-1.371503,0.605490,-0.057693,0.008038,0.975838,-0.023284,-0.051750,-1.066883,-0.151037,-0.404033,-2.087404,-3.618854,-0.928296,-0.002350,-0.098631,0.000000,-0.015171,0.111149,-0.000000
0.730000,-2.838734,-0.754123,-1.371425,0.615195,-0.057934,0.007501,0.965065,-0.024976,-0.055837,-1.086547,-0.187543,-0.412738,-1.848068,-3.676621,-0.807432,-0.002520,-0.097509,0.000000,-0.018841,0.113142,-0.000000
0.740000,-2.832534,-0.754703,-1.371353,0.624791,-0.058193,0.006922,0.954107,-0.027035,-0.060005,-1.103844,-0.224570,-0.420181,-1.608201,-3.729929,-0.683768,-0.002726,-0.096368,0.000000,-0.022561,0.114880,0.000000
0.750000,-2.826238,-0.755287,-1.371286,0.634277,-0.058474,0.006301,0.942988,-0.029468,-0.064241,-1.118711,-0.262141,-0.426414,-1.365036,-3.782266,-0.561414,-0.002971,-0.095211,0.000000,-0.026332,0.116358,0.000000
0.760000,-2.819848,-0.755873,-1.371227,0.643651,-0.058782,0.005637,0.931733,-0.032278,-0.068533,-1.131145,-0.300215,-0.431410,-1.126567,-3.824473,-0.429878,-0.003253,-0.094041,0.000000,-0.030150,0.117578,0.000000
0.770000,-2.813365,-0.756462,-1.371174,0.652912,-0.059120,0.004930,0.920366,-0.035472,-0.072869,-1.141242,-0.338631,-0.435011,-0.899976,-3.847359,-0.279325,-0.003574,-0.092860,0.000000,-0.033999,0.118547,-0.000000
0.780000,-2.806790,-0.757055,-1.371128,0.662058,-0.059491,0.004180,0.908908,-0.039051,-0.077233,-1.149144,-0.377162,-0.436996,-0.683002,-3.853310,-0.112905,-0.003933,-0.091670,0.000000,-0.037855,0.119279,0.000000
0.790000,-2.800124,-0.757652,-1.371090,0.671090,-0.059901,0.003385,0.897383,-0.043015,-0.081609,-1.154902,-0.415697,-0.437269,-0.466445,-3.854035,0.056327,-0.004331,-0.090474,0.000000,-0.041708,0.119779,-0.000000
0.800000,-2.793368,-0.758253,-1.371060,0.680006,-0.060352,0.002547,0.885810,-0.047365,-0.085979,-1.158473,-0.454243,-0.435870,-0.247999,-3.852680,0.224838,-0.004767,-0.089274,0.000000,-0.045559,0.120044,0.000000
0.810000,-2.786524,-0.758859,-1.371039,0.688806,-0.060848,0.001666,0.874213,-0.052100,-0.090326,-1.159862,-0.492751,-0.432772,-0.033879,-3.841180,0.401156,-0.005242,-0.088073,0.000000,-0.049403,0.120076,-0.000000
0.820000,-2.779592,-0.759470,-1.371027,0.697490,-0.061394,0.000741,0.862613,-0.057220,-0.094634,-1.159151,-0.531067,-0.427846,0.170361,-3.811701,0.593208,-0.005755,-0.086873,0.000000,-0.053226,0.119882,0.000000
0.830000,-2.772574,-0.760087,-1.371024,0.706058,-0.061993,-0.000227,0.851030,-0.062721,-0.098883,-1.156455,-0.568985,-0.420908,0.366637,-3.766539,0.798196,-0.006306,-0.085675,0.000000,-0.057006,0.119473,0.000000
0.840000,-2.765471,-0.760710,-1.371032,0.714511,-0.062648,-0.001237,0.839484,-0.068599,-0.103052,-1.151818,-0.606397,-0.411882,0.562302,-3.715955,1.005141,-0.006895,-0.084483,0.000000,-0.060733,0.118855,0.000000
0.850000,-2.758284,-0.761340,-1.371049,0.722848,-0.063365,-0.002288,0.827994,-0.074849,-0.107121,-1.145209,-0.643304,-0.400805,0.759121,-3.662691,1.210979,-0.007521,-0.083298,0.000000,-0.064410,0.118026,-0.000000
0.860000,-2.751014,-0.761977,-1.371077,0.731071,-0.064145,-0.003379,0.816580,-0.081465,-0.111068,-1.136636,-0.679651,-0.387663,0.952305,-3.599881,1.422627,-0.008184,-0.082123,0.000000,-0.068029,0.116988,-0.000000
0.870000,-2.743662,-0.762623,-1.371117,0.739180,-0.064994,-0.004509,0.805261,-0.088442,-0.114874,-1.126163,-0.715301,-0.372353,1.138020,-3.521131,1.646415,-0.008882,-0.080958,0.000000,-0.071580,0.115746,0.000000
0.880000,-2.736230,-0.763277,-1.371167,0.747176,-0.065914,-0.005677,0.794057,-0.095772,-0.118515,-1.113875,-0.750074,-0.354735,1.318022,-3.428581,1.879847,-0.009615,-0.079807,0.000000,-0.075044,0.114311,-0.000000
0.890000,-2.728719,-0.763941,-1.371230,0.755061,-0.066909,-0.006880,0.782984,-0.103444,-0.121969,-1.099802,-0.783873,-0.334756,1.497560,-3.330888,2.113689,-0.010383,-0.078672,0.000000,-0.078414,0.112684,-0.000000
0.900000,-2.721129,-0.764616,-1.371305,0.762836,-0.067983,-0.008116,0.772060,-0.111449,-0.125211,-1.083924,-0.816692,-0.312461,1.677277,-3.230485,2.345090,-0.011183,-0.077554,0.000000,-0.081689,0.110867,-0.000000
0.910000,-2.713462,-0.765301,-1.371392,0.770502,-0.069138,-0.009384,0.761305,-0.119778,-0.128218,-1.066257,-0.848483,-0.287854,1.854045,-3.121802,2.579576,-0.012016,-0.076454,0.000000,-0.084866,0.108861,-0.000000
0.920000,-2.705719,-0.765998,-1.371493,0.778062,-0.070378,-0.010680,0.750735,-0.128419,-0.130968,-1.046843,-0.879128,-0.260869,2.027160,-2.999569,2.822499,-0.012881,-0.075376,0.000000,-0.087935,0.106670,-0.000000
0.930000,-2.697901,-0.766708,-1.371606,0.785517,-0.071707,-0.012003,0.740368,-0.137360,-0.133435,-1.025714,-0.908474,-0.231404,2.198037,-2.865694,3.071629,-0.013775,-0.074321,0.000000,-0.090881,0.104299,-0.000000
0.940000,-2.690009,-0.767432,-1.371733,0.792869,-0.073126,-0.013349,0.730221,-0.146588,-0.135596,-1.002882,-0.936441,-0.199437,2.367893,-2.727590,3.318799,-0.014698,-0.073290,0.000000,-0.093698,0.101750,-0.000000
0.950000,-2.682044,-0.768171,-1.371873,0.800121,-0.074638,-0.014715,0.720311,-0.156089,-0.137424,-0.978356,-0.963026,-0.165028,2.536140,-2.587353,3.561478,-0.015649,-0.072286,0.000000,-0.096388,0.099023,0.000000
0.960000,-2.674006,-0.768925,-1.372027,0.807275,-0.076247,-0.016098,0.710654,-0.165849,-0.138896,-0.952160,-0.988189,-0.128207,2.702405,-2.440441,3.804272,-0.016626,-0.071309,0.000000,-0.098947,0.096122,-0.000000
0.970000,-2.665898,-0.769696,-1.372195,0.814334,-0.077955,-0.017493,0.701267,-0.175853,-0.139988,-0.924308,-1.011835,-0.088943,2.869185,-2.282769,4.051322,-0.017628,-0.070363,0.000000,-0.101367,0.093049,-0.000000
0.980000,-2.657720,-0.770484,-1.372377,0.821301,-0.079765,-0.018897,0.692168,-0.186085,-0.140675,-0.894776,-1.033844,-0.047181,3.036847,-2.116091,4.300552,-0.018654,-0.069448,0.000000,-0.103638,0.089801,0.000000
0.990000,-2.649472,-0.771291,-1.372573,0.828178,-0.081677,-0.020307,0.683372,-0.196530,-0.140932,-0.863571,-1.054156,-0.002932,3.202443,-1.946465,4.545178,-0.019701,-0.068567,0.000000,-0.105757,0.086379,-0.000000
1.000000,-2.641156,-0.772118,-1.372783,0.834968,-0.083695,-0.021716,0.674896,-0.207168,-0.140734,-0.830727,-1.072773,0.043723,3.367197,-1.775551,4.782684,-0.020769,-0.067720,0.000000,-0.107723,0.082787,-0.000000
1.010000,-2.632773,-0.772965,-1.373007,0.841675,-0.085820,-0.023121,0.666757,-0.217985,-0.140057,-0.796227,-1.089667,0.092722,3.533376,-1.599868,5.016610,-0.021855,-0.066910,0.000000,-0.109536,0.079024,-0.000000
1.020000,-2.624323,-0.773834,-1.373246,0.848303,-0.088055,-0.024517,0.658972,-0.228962,-0.138879,-0.760060,-1.104771,0.144055,3.697463,-1.416707,5.250960,-0.022959,-0.066139,0.000000,-0.111190,0.075088,0.000000
1.030000,-2.615807,-0.774726,-1.373498,0.854855,-0.090400,-0.025899,0.651556,-0.240080,-0.137176,-0.722278,-1.118002,0.197741,3.859373,-1.227603,5.483749,-0.024079,-0.065408,0.000000,-0.112679,0.070984,-0.000000
1.040000,-2.607226,-0.775642,-1.373763,0.861334,-0.092856,-0.027261,0.644526,-0.251322,-0.134925,-0.682872,-1.129323,0.253730,4.024531,-1.036956,5.708156,-0.025213,-0.064719,0.000000,-0.114000,0.066710,0.000000
1.050000,-2.598580,-0.776583,-1.374043,0.867745,-0.095426,-0.028597,0.637899,-0.262667,-0.132102,-0.641787,-1.138741,0.311904,4.189741,-0.846290,5.922810,-0.026359,-0.064074,0.000000,-0.115155,0.062262,0.000000
1.060000,-2.589871,-0.777551,-1.374335,0.874092,-0.098110,-0.029903,0.631691,-0.274097,-0.128686,-0.599077,-1.146248,0.372186,4.352021,-0.653337,6.131060,-0.027516,-0.063473,0.000000,-0.116143,0.057642,-0.000000
1.070000,-2.581098,-0.778546,-1.374641,0.880379,-0.100908,-0.031171,0.625917,-0.285592,-0.124658,-0.554747,-1.151807,0.434525,4.522997,-0.455747,6.333195,-0.028682,-0.062920,0.000000,-0.116963,0.052852,-0.000000
1.080000,-2.572263,-0.779569,-1.374959,0.886611,-0.103822,-0.032396,0.620596,-0.297133,-0.119996,-0.508617,-1.155363,0.498850,4.705158,-0.254799,6.526910,-0.029856,-0.062416,0.000000,-0.117609,0.047872,0.000000
1.090000,-2.563366,-0.780622,-1.375289,0.892791,-0.106851,-0.033571,0.615745,-0.308699,-0.114681,-0.460643,-1.156903,0.565064,4.882448,-0.054595,6.710400,-0.031035,-0.061962,0.000000,-0.118081,0.042697,0.000000
1.100000,-2.554407,-0.781706,-1.375630,0.898926,-0.109996,-0.034690,0.611383,-0.320271,-0.108695,-0.410968,-1.156455,0.633058,5.047813,0.143907,6.884062,-0.032217,-0.061562,0.000000,-0.118381,0.037338,0.000000
1.110000,-2.545387,-0.782822,-1.375983,0.905019,-0.113256,-0.035745,0.607525,-0.331828,-0.102020,-0.359687,-1.154025,0.702745,5.212810,0.342657,7.047687,-0.033402,-0.061215,0.000000,-0.118511,0.031805,0.000000
1.120000,-2.536307,-0.783971,-1.376345,0.911076,-0.116632,-0.036730,0.604189,-0.343351,-0.094640,-0.306712,-1.149602,0.774012,5.394190,0.542110,7.197450,-0.034588,-0.060925,0.000000,-0.118469,0.026087,0.000000
1.130000,-2.527166,-0.785155,-1.376717,0.917103,-0.120123,-0.037638,0.601391,-0.354820,-0.086540,-0.251803,-1.143183,0.846694,5.588796,0.740816,7.332021,-0.035772,-0.060693,0.000000,-0.118255,0.020157,0.000000
1.140000,-2.517965,-0.786374,-1.377098,0.923104,-0.123729,-0.038461,0.599153,-0.366215,-0.077706,-0.194936,-1.134786,0.920652,5.774505,0.937217,7.454979,-0.036953,-0.060522,0.000000,-0.117870,0.014012,0.000000
1.150000,-2.508704,-0.787629,-1.377486,0.929086,-0.127447,-0.039192,0.597493,-0.377516,-0.068127,-0.136313,-1.124439,0.995793,5.947751,1.131806,7.567987,-0.038129,-0.060413,0.000000,-0.117316,0.007668,-0.000000
1.160000,-2.499383,-0.788922,-1.377882,0.935054,-0.131279,-0.039823,0.596427,-0.388704,-0.057790,-0.075981,-1.112150,1.072012,6.123344,1.324685,7.667220,-0.039299,-0.060368,0.000000,-0.116594,0.001129,-0.000000
1.170000,-2.490003,-0.790255,-1.378283,0.941014,-0.135222,-0.040348,0.595973,-0.399759,-0.046686,-0.013846,-1.097945,1.149138,6.307795,1.512539,7.745997,-0.040461,-0.060390,0.000000,-0.115704,-0.005619,0.000000
1.180000,-2.480563,-0.791627,-1.378689,0.946973,-0.139274,-0.040757,0.596150,-0.410663,-0.034807,0.050175,-1.081899,1.226932,6.496561,1.694208,7.803961,-0.041613,-0.060481,0.000000,-0.114653,-0.012586,-0.000000
1.190000,-2.471063,-0.793040,-1.379098,0.952937,-0.143435,-0.041044,0.596976,-0.421397,-0.022148,0.116085,-1.064061,1.305217,6.681308,1.873249,7.848534,-0.042754,-0.060642,0.000000,-0.113444,-0.019776,0.000000
1.200000,-2.461504,-0.794496,-1.379510,0.958913,-0.147702,-0.041200,0.598471,-0.431944,-0.008703,0.183801,-1.044434,1.383903,6.856738,2.052148,7.883564,-0.043882,-0.060877,0.000000,-0.112075,-0.027183,-0.000000
1.210000,-2.451885,-0.795994,-1.379922,0.964907,-0.152074,-0.041218,0.600652,-0.442286,0.005530,0.253220,-1.023018,1.462888,7.028291,2.227476,7.902634,-0.044996,-0.061187,0.000000,-0.110545,-0.034802,0.000000
1.220000,-2.442206,-0.797537,-1.380334,0.970926,-0.156548,-0.041089,0.603536,-0.452404,0.020555,0.324367,-0.999884,1.541955,7.210574,2.391142,7.893405,-0.046093,-0.061574,0.000000,-0.108858,-0.042638,0.000000
1.230000,-2.432466,-0.799125,-1.380744,0.976977,-0.161122,-0.040807,0.607140,-0.462283,0.036370,0.397431,-0.975195,1.620756,7.402550,2.542740,7.856190,-0.047173,-0.062040,0.000000,-0.107027,-0.050713,0.000000
1.240000,-2.422666,-0.800759,-1.381150,0.983069,-0.165793,-0.040362,0.611484,-0.471908,0.052970,0.472418,-0.949030,1.699079,7.583422,2.692362,7.806336,-0.048234,-0.062589,0.000000,-0.105058,-0.059031,-0.000000
1.250000,-2.412805,-0.802441,-1.381551,0.989207,-0.170560,-0.039747,0.616588,-0.481264,0.070351,0.549100,-0.921348,1.776883,7.745085,2.845916,7.749794,-0.049274,-0.063223,0.000000,-0.102944,-0.067574,0.000000
1.260000,-2.402882,-0.804171,-1.381945,0.995400,-0.175419,-0.038955,0.622466,-0.490335,0.088508,0.627319,-0.892111,1.854075,7.901251,2.995543,7.674980,-0.050293,-0.063943,0.000000,-0.100678,-0.076331,0.000000
1.270000,-2.392897,-0.805949,-1.382330,1.001656,-0.180367,-0.037977,0.629134,-0.499106,0.107433,0.707125,-0.861437,1.930383,8.069693,3.124656,7.565590,-0.051288,-0.064751,0.000000,-0.098268,-0.085309,0.000000
1.280000,-2.382849,-0.807778,-1.382705,1.007983,-0.185401,-0.036806,0.636609,-0.507564,0.127115,0.788713,-0.829618,2.005387,8.246481,3.233713,7.423934,-0.052258,-0.065651,0.000000,-0.095740,-0.094532,-0.000000
1.290000,-2.372737,-0.809657,-1.383066,1.014389,-0.190518,-0.035435,0.644909,-0.515699,0.147540,0.872054,-0.796763,2.078861,8.406651,3.344625,7.270762,-0.053203,-0.066645,0.000000,-0.093100,-0.104000,0.000000
1.300000,-2.362561,-0.811588,-1.383413,1.020881,-0.195715,-0.033855,0.654050,-0.523499,0.168693,0.956846,-0.762726,2.150802,8.540287,3.468697,7.112097,-0.054120,-0.067735,0.000000,-0.090330,-0.113687,-0.000000
1.310000,-2.352320,-0.813572,-1.383743,1.027470,-0.200988,-0.032061,0.664046,-0.530953,0.190556,1.042860,-0.727389,2.221103,8.663440,3.590158,6.933224,-0.055009,-0.068922,0.000000,-0.087416,-0.123574,-0.000000
1.320000,-2.342012,-0.815608,-1.384054,1.034162,-0.206334,-0.030044,0.674907,-0.538047,0.213115,1.130115,-0.690922,2.289467,8.798353,3.679719,6.718933,-0.055868,-0.070210,0.000000,-0.084369,-0.133665,0.000000
1.330000,-2.331637,-0.817698,-1.384344,1.040968,-0.211749,-0.027799,0.686648,-0.544771,0.236346,1.218827,-0.653794,2.355482,8.940444,3.740242,6.473656,-0.056697,-0.071600,0.000000,-0.081232,-0.143983,0.000000
1.340000,-2.321193,-0.819843,-1.384610,1.047895,-0.217229,-0.025317,0.699284,-0.551123,0.260224,1.308924,-0.616118,2.418940,9.057947,3.811254,6.216759,-0.057493,-0.073095,0.000000,-0.078012,-0.154525,0.000000
1.350000,-2.310679,-0.822043,-1.384851,1.054953,-0.222771,-0.022594,0.712826,-0.557094,0.284725,1.399986,-0.577569,2.479817,9.137163,3.908118,5.949130,-0.058257,-0.074696,0.000000,-0.074674,-0.165251,-0.000000
1.360000,-2.300094,-0.824299,-1.385062,1.062152,-0.228371,-0.019623,0.727283,-0.562674,0.309821,1.491667,-0.537955,2.537922,9.198370,4.003749,5.657803,-0.058986,-0.076406,0.000000,-0.071191,-0.176125,0.000000
1.370000,-2.289436,-0.826610,-1.385243,1.069499,-0.234025,-0.016398,0.742660,-0.567853,0.335483,1.583953,-0.497494,2.592973,9.271992,4.061413,5.342580,-0.059681,-0.078225,0.000000,-0.067581,-0.187147,0.000000
1.380000,-2.278704,-0.828979,-1.385390,1.077005,-0.239728,-0.012913,0.758963,-0.572624,0.361680,1.677107,-0.456727,2.644774,9.347701,4.087673,5.008378,-0.060338,-0.080156,0.000000,-0.063897,-0.198345,0.000000
1.390000,-2.267896,-0.831405,-1.385501,1.084678,-0.245477,-0.009164,0.776202,-0.576987,0.388378,1.770907,-0.415741,2.693141,9.382973,4.132625,4.654295,-0.060958,-0.082200,0.000000,-0.060143,-0.209695,-0.000000
1.400000,-2.257010,-0.833889,-1.385574,1.092529,-0.251268,-0.005146,0.794381,-0.580939,0.415543,1.864766,-0.374075,2.737860,9.392406,4.217158,4.277229,-0.061541,-0.084358,0.000000,-0.056267,-0.221136,0.000000
1.410000,-2.246045,-0.836430,-1.385604,1.100566,-0.257096,-0.000853,0.813497,-0.584469,0.443136,1.958755,-0.331398,2.778685,9.400469,4.307760,3.878240,-0.062084,-0.086631,0.000000,-0.052228,-0.232672,-0.000000
1.420000,-2.234999,-0.839030,-1.385591,1.108799,-0.262957,0.003717,0.833556,-0.587567,0.471117,2.052776,-0.287919,2.815425,9.352295,4.354931,3.464453,-0.062585,-0.089021,0.000000,-0.048043,-0.244289,0.000000
1.430000,-2.223869,-0.841689,-1.385530,1.117237,-0.268847,0.008569,0.854553,-0.590227,0.499444,2.145801,-0.244299,2.847975,9.225729,4.373290,3.036083,-0.063044,-0.091527,0.000000,-0.043779,-0.255876,0.000000
1.440000,-2.212654,-0.844407,-1.385419,1.125890,-0.274762,0.013706,0.876472,-0.592453,0.528076,2.237290,-0.200454,2.876146,9.098030,4.430010,2.583437,-0.063461,-0.094149,0.000000,-0.039424,-0.267369,-0.000000
1.450000,-2.201351,-0.847185,-1.385256,1.134766,-0.280696,0.019131,0.899299,-0.594236,0.556967,2.327762,-0.155699,2.899643,9.048038,4.508181,2.103427,-0.063833,-0.096885,0.000000,-0.034900,-0.278816,0.000000
1.460000,-2.189959,-0.850021,-1.385037,1.143876,-0.286647,0.024845,0.923027,-0.595567,0.586069,2.418251,-0.110290,2.918215,9.015787,4.567098,1.602677,-0.064159,-0.099737,0.000000,-0.030228,-0.290319,-0.000000
1.470000,-2.178474,-0.852918,-1.384759,1.153227,-0.292608,0.030852,0.947664,-0.596442,0.615331,2.508078,-0.064357,2.931697,8.791824,4.671679,1.087696,-0.064437,-0.102704,0.000000,-0.025419,-0.301798,0.000000
1.480000,-2.166894,-0.855874,-1.384420,1.162829,-0.298575,0.037152,0.973189,-0.596854,0.644703,2.594088,-0.016856,2.939969,8.398924,4.844225,0.554194,-0.064667,-0.105786,0.000000,-0.020360,-0.312903,-0.000000
1.490000,-2.155217,-0.858889,-1.384016,1.172691,-0.304545,0.043746,0.999545,-0.596779,0.674131,2.676056,0.032528,2.942781,8.118451,4.993739,-0.005694,-0.064844,-0.108975,0.000000,-0.015010,-0.323596,0.000000
1.500000,-2.143440,-0.861964,-1.383545,1.182820,-0.310511,0.050634,1.026710,-0.596203,0.703558,2.756457,0.083018,2.939855,7.906937,5.082876,-0.577137,-0.064967,-0.112271,0.000000,-0.009448,-0.334128,-0.000000
1.510000,-2.131561,-0.865099,-1.383003,1.193225,-0.316469,0.057817,1.054674,-0.595119,0.732928,2.834195,0.134185,2.931238,7.582176,5.177781,-1.156333,-0.065033,-0.115672,0.000000,-0.003719,-0.344370,-0.000000
1.520000,-2.119576,-0.868294,-1.382388,1.203913,-0.322413,0.065293,1.083394,-0.593520,0.762183,2.908100,0.186574,2.916728,7.329930,5.363703,-1.787274,-0.065041,-0.119173,0.000000,0.002236,-0.354176,-0.000000
1.530000,-2.107482,-0.871548,-1.381697,1.214893,-0.328339,0.073061,1.112836,-0.591387,0.791262,2.980794,0.241459,2.895492,7.224780,5.623413,-2.475106,-0.064988,-0.122771,0.000000,0.008569,-0.363806,0.000000
1.540000,-2.095278,-0.874861,-1.380927,1.226170,-0.334241,0.081118,1.143009,-0.588690,0.820093,3.052596,0.299042,2.867226,6.996382,5.845697,-3.158037,-0.064869,-0.126465,0.000000,0.015305,-0.373275,0.000000
1.550000,-2.082959,-0.878232,-1.380075,1.237753,-0.340113,0.089463,1.173888,-0.585407,0.848607,3.120721,0.358373,2.832332,6.595944,6.006153,-3.812912,-0.064682,-0.130252,0.000000,0.022337,-0.382268,0.000000
1.560000,-2.070523,-0.881663,-1.379138,1.249648,-0.345949,0.098090,1.205424,-0.581523,0.876740,3.184515,0.419165,2.790968,6.210897,6.180297,-4.482384,-0.064422,-0.134126,0.000000,0.029630,-0.390695,-0.000000
1.570000,-2.057966,-0.885151,-1.378113,1.261861,-0.351744,0.106997,1.237579,-0.577023,0.904426,3.244939,0.481979,2.742684,5.896210,6.422062,-5.217419,-0.064089,-0.138082,0.000000,0.037250,-0.398636,0.000000
1.580000,-2.045286,-0.888698,-1.376998,1.274400,-0.357490,0.116179,1.270323,-0.571883,0.931593,3.302439,0.547607,2.686619,5.578323,6.709468,-6.004583,-0.063677,-0.142115,0.000000,0.045290,-0.406104,0.000000
1.590000,-2.032478,-0.892301,-1.375790,1.287268,-0.363181,0.125629,1.303627,-0.566071,0.958159,3.356506,0.616168,2.622592,5.199720,6.972276,-6.775528,-0.063183,-0.146221,0.000000,0.053762,-0.413019,0.000000
1.600000,-2.019540,-0.895961,-1.374485,1.300472,-0.368811,0.135342,1.337453,-0.559560,0.984045,3.406433,0.687052,2.551109,4.829031,7.180957,-7.520037,-0.062602,-0.150392,0.000000,0.062592,-0.419287,-0.000000
1.610000,-2.006469,-0.899677,-1.373083,1.314017,-0.374372,0.145310,1.371756,-0.552330,1.009181,3.453086,0.759788,2.472192,4.496007,7.382059,-8.282331,-0.061931,-0.154623,0.000000,0.071722,-0.424983,0.000000
1.620000,-1.993260,-0.903449,-1.371579,1.327907,-0.379858,0.155526,1.406515,-0.544364,1.033489,3.496353,0.834693,2.385462,4.012699,7.651005,-9.078441,-0.061167,-0.158908,0.000000,0.081185,-0.430063,0.000000
1.630000,-1.979911,-0.907275,-1.369972,1.342147,-0.385260,0.165980,1.441683,-0.535636,1.056890,3.533340,0.912808,2.290623,3.366045,7.972451,-9.893314,-0.060307,-0.163240,0.000000,0.091090,-0.434178,0.000000
1.640000,-1.966417,-0.911154,-1.368260,1.356741,-0.390570,0.176664,1.477181,-0.526108,1.079302,3.563674,0.994142,2.187596,2.815984,8.242310,-10.705145,-0.059345,-0.167607,0.000000,0.101430,-0.437261,0.000000
1.650000,-1.952776,-0.915086,-1.366439,1.371691,-0.395782,0.187566,1.512957,-0.515753,1.100642,3.589660,1.077654,2.076520,2.355035,8.447455,-11.500318,-0.058278,-0.172000,0.000000,0.112080,-0.439545,0.000000
1.660000,-1.938983,-0.919070,-1.364508,1.387000,-0.400886,0.198676,1.548975,-0.504555,1.120832,3.610775,1.163091,1.957590,1.810537,8.654169,-12.291334,-0.057104,-0.176412,0.000000,0.122998,-0.440955,-0.000000
1.670000,-1.925036,-0.923104,-1.362465,1.402670,-0.405873,0.209983,1.585172,-0.492492,1.139794,3.625871,1.250737,1.830693,1.269445,8.874911,-13.113085,-0.055819,-0.180833,0.000000,0.134203,-0.441339,-0.000000
1.680000,-1.910930,-0.927187,-1.360309,1.418703,-0.410735,0.221472,1.621492,-0.479540,1.157446,3.636164,1.340590,1.695328,0.796072,9.082501,-13.961988,-0.054420,-0.185252,0.000000,0.145686,-0.440803,-0.000000
1.690000,-1.896662,-0.931318,-1.358036,1.435100,-0.415464,0.233132,1.657895,-0.465680,1.173700,3.641792,1.432387,1.551454,0.257338,9.259838,-14.786326,-0.052905,-0.189661,0.000000,0.157401,-0.439341,-0.000000
1.700000,-1.882228,-0.935496,-1.355646,1.451861,-0.420049,0.244946,1.694328,-0.450893,1.188475,3.641311,1.525786,1.399601,-0.360650,9.412549,-15.566158,-0.051272,-0.194050,0.000000,0.169287,-0.436788,-0.000000
1.710000,-1.867624,-0.939719,-1.353137,1.468987,-0.424482,0.256901,1.730722,-0.435164,1.201692,3.634579,1.620638,1.240130,-0.964833,9.546018,-16.333937,-0.049519,-0.198407,0.000000,0.181307,-0.433121,-0.000000
1.720000,-1.852848,-0.943986,-1.350508,1.486476,-0.428752,0.268980,1.767019,-0.418480,1.213277,3.622014,1.716707,1.072923,-1.566937,9.639063,-17.129898,-0.047646,-0.202722,0.000000,0.193416,-0.428373,0.000000
1.730000,-1.837895,-0.948294,-1.347757,1.504327,-0.432851,0.281167,1.803162,-0.400830,1.223151,3.603240,1.813420,0.897532,-2.199830,9.681423,-17.942083,-0.045651,-0.206984,0.000000,0.205531,-0.422482,-0.000000
1.740000,-1.822761,-0.952643,-1.344885,1.522539,-0.436769,0.293443,1.839084,-0.382211,1.231228,3.578017,1.910335,0.714081,-2.837638,9.697353,-18.712044,-0.043536,-0.211180,0.000000,0.217579,-0.415419,0.000000
1.750000,-1.807444,-0.957030,-1.341889,1.541109,-0.440495,0.305791,1.874722,-0.362623,1.237432,3.546488,2.007367,0.523292,-3.471383,9.715856,-19.425223,-0.041300,-0.215299,0.000000,0.229524,-0.407212,-0.000000
1.760000,-1.791939,-0.961453,-1.338769,1.560033,-0.444021,0.318192,1.910014,-0.342064,1.241694,3.508590,2.104652,0.325577,-4.119234,9.713602,-20.116826,-0.038946,-0.219330,0.000000,0.241359,-0.397867,0.000000
1.770000,-1.776243,-0.965910,-1.335525,1.579309,-0.447337,0.330625,1.944894,-0.320530,1.243944,3.464103,2.201639,0.120955,-4.786819,9.603612,-20.810476,-0.036474,-0.223262,0.000000,0.252999,-0.387365,-0.000000
1.780000,-1.760353,-0.970400,-1.332156,1.598931,-0.450432,0.343071,1.979296,-0.298031,1.244113,3.412853,2.296725,-0.090633,-5.469773,9.385979,-21.491287,-0.033887,-0.227082,0.000000,0.264241,-0.375693,-0.000000
1.790000,-1.744265,-0.974919,-1.328663,1.618895,-0.453297,0.355507,2.013151,-0.274596,1.242131,3.354707,2.389358,-0.308871,-6.160215,9.173965,-22.122782,-0.031190,-0.230779,0.000000,0.274999,-0.362856,-0.000000
1.800000,-1.727975,-0.979466,-1.325046,1.639194,-0.455924,0.367913,2.046390,-0.250244,1.237936,3.289649,2.480204,-0.533089,-6.839029,8.989956,-22.696465,-0.028387,-0.234342,0.000000,0.285329,-0.348886,0.000000
1.810000,-1.711481,-0.984037,-1.321305,1.659823,-0.458302,0.380266,2.078944,-0.224992,1.231470,3.217927,2.569157,-0.762800,-7.511792,8.753545,-23.231433,-0.025484,-0.237759,0.000000,0.295199,-0.333844,0.000000
1.820000,-1.694779,-0.988632,-1.317441,1.680773,-0.460424,0.392543,2.110749,-0.198861,1.222680,3.139413,2.655275,-0.997717,-8.232887,8.416094,-23.737137,-0.022484,-0.241020,0.000000,0.304487,-0.317747,0.000000
1.830000,-1.677865,-0.993246,-1.313454,1.702038,-0.462279,0.404720,2.141732,-0.171886,1.211515,3.053269,2.737479,-1.237543,-9.009643,7.992242,-24.198540,-0.019395,-0.244115,0.000000,0.313055,-0.300538,0.000000
1.840000,-1.660738,-0.997877,-1.309346,1.723608,-0.463861,0.416773,2.171814,-0.144111,1.197929,2.959220,2.815120,-1.481688,-9.763325,7.541914,-24.597667,-0.016224,-0.247032,0.000000,0.320820,-0.282237,-0.000000
1.850000,-1.643393,-1.002523,-1.305119,1.745474,-0.465162,0.428678,2.200917,-0.115584,1.181881,2.858003,2.888317,-1.729496,-10.424160,7.141737,-24.961954,-0.012980,-0.249760,0.000000,0.327787,-0.262976,-0.000000
1.860000,-1.625828,-1.007180,-1.300773,1.767626,-0.466173,0.440411,2.228974,-0.086345,1.163339,2.750737,2.957954,-1.980927,-11.048078,6.745127,-25.295042,-0.009670,-0.252292,0.000000,0.334052,-0.242915,0.000000
1.870000,-1.608041,-1.011847,-1.296311,1.790054,-0.466889,0.451945,2.255932,-0.056425,1.142263,2.637041,3.023220,-2.235397,-11.813892,6.131000,-25.503960,-0.006300,-0.254619,0.000000,0.339520,-0.222066,0.000000
1.880000,-1.590027,-1.016518,-1.291734,1.812745,-0.467302,0.463256,2.281715,-0.025881,1.118631,2.514459,3.080574,-2.491006,-12.693013,5.303147,-25.576044,-0.002880,-0.256733,0.000000,0.343798,-0.200261,0.000000
1.890000,-1.571786,-1.021193,-1.287045,1.835688,-0.467406,0.474318,2.306221,0.005187,1.092443,2.383181,3.129283,-2.746918,-13.441835,4.564989,-25.633820,0.000575,-0.258624,0.000000,0.346817,-0.177589,-0.000000
1.900000,-1.553314,-1.025866,-1.282248,1.858869,-0.467198,0.485105,2.329379,0.036705,1.063693,2.245623,3.171874,-3.003683,-14.129238,3.981568,-25.715305,0.004055,-0.260285,0.000000,0.348872,-0.154339,0.000000
1.910000,-1.534608,-1.030537,-1.277343,1.882275,-0.466672,0.495591,2.351133,0.068624,1.032369,2.100596,3.208914,-3.261224,-14.906667,3.348375,-25.730906,0.007552,-0.261712,0.000000,0.350041,-0.130432,0.000000
1.920000,-1.515668,-1.035200,-1.272336,1.905892,-0.465825,0.505752,2.371390,0.100883,0.998468,1.947489,3.238842,-3.518301,-15.516258,2.547394,-25.590223,0.011055,-0.262895,0.000000,0.350167,-0.105884,-0.000000
1.930000,-1.496491,-1.039853,-1.267228,1.929703,-0.464654,0.515561,2.390083,0.133401,0.962003,1.790271,3.259862,-3.773028,-15.891058,1.652541,-25.315257,0.014554,-0.263830,0.000000,0.349081,-0.081212,-0.000000
1.940000,-1.477074,-1.044493,-1.262025,1.953694,-0.463157,0.524992,2.407196,0.166081,0.923007,1.629668,3.271892,-4.024606,-16.394092,0.815277,-25.019476,0.018036,-0.264520,0.000000,0.346803,-0.056552,0.000000
1.950000,-1.457417,-1.049116,-1.256728,1.977847,-0.461333,0.534021,2.422676,0.198839,0.881511,1.462389,3.276168,-4.273418,-17.069360,0.028578,-24.736031,0.021490,-0.264962,0.000000,0.343499,-0.031584,0.000000
1.960000,-1.437517,-1.053720,-1.251344,2.002147,-0.459181,0.542622,2.436444,0.231604,0.837539,1.288281,3.272464,-4.519327,-17.666064,-0.798946,-24.385165,0.024906,-0.265153,0.000000,0.339176,-0.006337,0.000000
1.970000,-1.417374,-1.058300,-1.245876,2.026576,-0.456701,0.550772,2.448442,0.264288,0.791124,1.109068,3.260189,-4.761121,-18.155925,-1.625813,-23.880392,0.028273,-0.265091,0.000000,0.333807,0.018940,0.000000
1.980000,-1.396986,-1.062854,-1.240329,2.051116,-0.453895,0.558445,2.458625,0.296808,0.742317,0.925162,3.239948,-4.996935,-18.635256,-2.414216,-23.240497,0.031581,-0.264775,0.000000,0.327497,0.044122,0.000000
1.990000,-1.376352,-1.067378,-1.234707,2.075749,-0.450765,0.565618,2.466945,0.329087,0.691186,0.736363,3.211904,-5.225931,-19.116551,-3.218486,-22.578170,0.034822,-0.264209,0.000000,0.320305,0.069181,0.000000
2.000000,-1.355471,-1.071869,-1.229016,2.100455,-0.447313,0.572269,2.473352,0.361046,0.637798,0.542831,3.175578,-5.448498,-19.516971,-4.031199,-21.940539,0.037987,-0.263392,0.000000,0.312215,0.094086,-0.000000
2.010000,-1.334342,-1.076324,-1.223262,2.125216,-0.443544,0.578374,2.477802,0.392599,0.582216,0.346023,3.131281,-5.664742,-19.836797,-4.807588,-21.249678,0.041067,-0.262328,0.000000,0.303297,0.118674,-0.000000
2.020000,-1.312966,-1.080740,-1.217449,2.150011,-0.439461,0.583913,2.480273,0.423671,0.524503,0.146095,3.079426,-5.873491,-20.281056,-5.577577,-20.385253,0.044053,-0.261019,0.000000,0.293635,0.142884,-0.000000
2.030000,-1.291342,-1.085113,-1.211583,2.174821,-0.435070,0.588864,2.480724,0.454187,0.464746,-0.059598,3.019729,-6.072447,-20.832048,-6.347012,-19.371823,0.046940,-0.259469,0.000000,0.283249,0.166908,0.000000
2.040000,-1.269470,-1.089441,-1.205672,2.199625,-0.430377,0.593208,2.479081,0.484066,0.403054,-0.270546,2.952486,-6.260928,-21.211276,-7.061235,-18.371097,0.049718,-0.257678,0.000000,0.272211,0.190667,-0.000000
2.050000,-1.247350,-1.093721,-1.199719,2.224403,-0.425389,0.596925,2.475313,0.513237,0.339527,-0.483823,2.878504,-6.439869,-21.565622,-7.745510,-17.395104,0.052384,-0.255652,0.000000,0.260632,0.213893,0.000000
2.060000,-1.224982,-1.097949,-1.193733,2.249132,-0.420113,0.599998,2.469404,0.541636,0.274257,-0.701858,2.797576,-6.608830,-22.066930,-8.426568,-16.338788,0.054931,-0.253396,0.000000,0.248526,0.236816,-0.000000
2.070000,-1.202367,-1.102123,-1.187719,2.273791,-0.414556,0.602410,2.461276,0.569189,0.207351,-0.925162,2.709973,-6.766645,-22.224041,-8.995881,-15.200092,0.057355,-0.250911,0.000000,0.235960,0.259458,-0.000000
2.080000,-1.179506,-1.106240,-1.181685,2.298357,-0.408729,0.604145,2.450901,0.595835,0.138924,-1.146339,2.617658,-6.912832,-21.990875,-9.427878,-14.013042,0.059651,-0.248200,0.000000,0.223151,0.281094,0.000000
2.090000,-1.156400,-1.110298,-1.175636,2.322809,-0.402639,0.605189,2.438349,0.621542,0.069094,-1.364980,2.521415,-7.046906,-22.050891,-9.866388,-12.778374,0.061819,-0.245280,0.000000,0.210200,0.301701,-0.000000
2.100000,-1.133050,-1.114293,-1.169581,2.347124,-0.396298,0.605527,2.423601,0.646264,-0.002014,-1.587357,2.420330,-7.168399,-22.236139,-10.369873,-11.537635,0.063856,-0.242156,0.000000,0.197047,0.321895,0.000000
2.110000,-1.109457,-1.118223,-1.163526,2.371281,-0.389714,0.605149,2.406602,0.669948,-0.074274,-1.809702,2.314018,-7.277658,-22.103672,-10.830558,-10.292836,0.065760,-0.238831,0.000000,0.183666,0.341340,-0.000000
2.120000,-1.085624,-1.122087,-1.157478,2.395256,-0.382899,0.604042,2.387407,0.692544,-0.147567,-2.029430,2.203719,-7.374256,-22.323222,-11.102759,-8.919482,0.067530,-0.235316,0.000000,0.170195,0.359812,0.000000
2.130000,-1.061552,-1.125881,-1.151445,2.419029,-0.375863,0.602197,2.366013,0.714023,-0.221759,-2.256167,2.091963,-7.456048,-23.070743,-11.209407,-7.416527,0.069165,-0.231619,0.000000,0.156918,0.378203,-0.000000
2.140000,-1.037244,-1.129604,-1.145434,2.442576,-0.368619,0.599607,2.342284,0.734383,-0.296688,-2.490845,1.979531,-7.522587,-23.385127,-11.337155,-5.963646,0.070669,-0.227735,0.000000,0.143920,0.396607,0.000000
2.150000,-1.012701,-1.133254,-1.139453,2.465875,-0.361176,0.596263,2.316196,0.753613,-0.372211,-2.723869,1.865220,-7.575321,-23.192353,-11.541191,-4.581898,0.072044,-0.223669,0.000000,0.131064,0.414184,0.000000
2.160000,-0.987926,-1.136828,-1.133509,2.488900,-0.353546,0.592162,2.287807,0.771688,-0.448195,-2.954692,1.748707,-7.614225,-23.141684,-11.690217,-3.156472,0.073291,-0.219431,0.000000,0.118321,0.430921,-0.000000
2.170000,-0.962923,-1.140325,-1.127610,2.511631,-0.345742,0.587300,2.257102,0.788587,-0.524495,-3.186703,1.631415,-7.638450,-23.155682,-11.646626,-1.682772,0.074411,-0.215028,0.000000,0.105837,0.447154,0.000000
2.180000,-0.937694,-1.143743,-1.121763,2.534042,-0.337775,0.581672,2.224073,0.804316,-0.600964,-3.417806,1.515775,-7.647880,-22.964163,-11.449627,-0.216301,0.075409,-0.210464,0.000000,0.093835,0.462724,0.000000
2.190000,-0.912242,-1.147080,-1.115976,2.556112,-0.329656,0.575280,2.188746,0.818903,-0.677453,-3.645986,1.402423,-7.642776,-22.730752,-11.276438,1.238815,0.076289,-0.205748,0.000000,0.082358,0.477493,-0.000000
2.200000,-0.886571,-1.150336,-1.110257,2.577817,-0.321396,0.568123,2.151153,0.832365,-0.753819,-3.872421,1.290246,-7.623104,-22.737999,-11.146043,2.751603,0.077056,-0.200887,0.000000,0.071293,0.491612,0.000000
2.210000,-0.860686,-1.153508,-1.104614,2.599135,-0.313008,0.560204,2.111298,0.844708,-0.829915,-4.100746,1.179502,-7.587744,-22.839643,-10.940364,4.309986,0.077715,-0.195887,0.000000,0.060668,0.505429,0.000000
2.220000,-0.834589,-1.156596,-1.099053,2.620043,-0.304502,0.551525,2.069138,0.855955,-0.905574,-4.329214,1.071439,-7.536904,-22.332389,-10.628383,5.713607,0.078270,-0.190749,0.000000,0.050581,0.518830,-0.000000
2.230000,-0.808285,-1.159598,-1.093583,2.640518,-0.295889,0.542092,2.024714,0.866137,-0.980653,-4.547394,0.966934,-7.473472,-21.253360,-10.249235,6.961258,0.078728,-0.185479,0.000000,0.041062,0.530972,0.000000
2.240000,-0.781778,-1.162514,-1.088211,2.660538,-0.287180,0.531912,1.978190,0.875293,-1.055043,-4.754281,0.866454,-7.397679,-20.552653,-9.838570,8.317395,0.079092,-0.180097,0.000000,0.032134,0.541825,0.000000
2.250000,-0.755074,-1.165342,-1.082945,2.680082,-0.278383,0.520992,1.929628,0.883466,-1.128607,-4.958447,0.770163,-7.307124,-20.219002,-9.414960,9.752468,0.079371,-0.174609,0.000000,0.023826,0.552158,0.000000
2.260000,-0.728177,-1.168081,-1.077792,2.699130,-0.269510,0.509340,1.879021,0.890697,-1.201186,-5.158661,0.678155,-7.202629,-19.622865,-8.956949,11.086744,0.079569,-0.169019,0.000000,0.016120,0.561917,-0.000000
2.270000,-0.701091,-1.170732,-1.072758,2.717662,-0.260569,0.496968,1.826455,0.897029,-1.272659,-5.350904,0.591024,-7.085389,-19.002261,-8.408427,12.452634,0.079693,-0.163335,0.000000,0.009040,0.570810,0.000000
2.280000,-0.673823,-1.173293,-1.067852,2.735659,-0.251570,0.483887,1.772003,0.902517,-1.342894,-5.538706,0.509986,-6.953577,-18.604921,-7.778233,13.893924,0.079750,-0.157566,0.000000,0.002693,0.579162,-0.000000
2.290000,-0.646378,-1.175763,-1.063080,2.753102,-0.242519,0.470110,1.715681,0.907229,-1.411731,-5.723003,0.435459,-6.807511,-18.052203,-7.146230,15.211000,0.079748,-0.151714,0.000000,-0.002906,0.587102,-0.000000
2.300000,-0.618761,-1.178143,-1.058450,2.769973,-0.233425,0.455652,1.657543,0.911226,-1.479044,-5.899750,0.367062,-6.649357,-17.191289,-6.514688,16.525800,0.079692,-0.145786,0.000000,-0.007828,0.594345,-0.000000
2.310000,-0.590979,-1.180432,-1.053967,2.786253,-0.224295,0.440529,1.597686,0.914570,-1.544718,-6.066829,0.305165,-6.476995,-16.300129,-5.834280,17.958817,0.079591,-0.139789,0.000000,-0.012043,0.600724,-0.000000
2.320000,-0.563036,-1.182629,-1.049639,2.801927,-0.215134,0.424758,1.536206,0.917329,-1.608584,-6.225753,0.250376,-6.290180,-15.657424,-5.120178,19.080153,0.079452,-0.133733,0.000000,-0.015514,0.606412,-0.000000
2.330000,-0.534940,-1.184735,-1.045472,2.816977,-0.205948,0.408357,1.473171,0.919577,-1.670521,-6.379977,0.202762,-6.095392,-15.150950,-4.361746,19.875657,0.079281,-0.127622,0.000000,-0.018291,0.611817,0.000000
2.340000,-0.506697,-1.186748,-1.041472,2.831390,-0.196742,0.391347,1.408607,0.921385,-1.730492,-6.528772,0.163141,-5.892667,-14.432365,-3.547894,20.933478,0.079086,-0.121457,0.000000,-0.020320,0.616897,-0.000000
2.350000,-0.478312,-1.188669,-1.037645,2.845149,-0.187520,0.373748,1.342595,0.922840,-1.788375,-6.668624,0.131804,-5.676722,-13.676795,-2.911651,21.974905,0.078875,-0.115244,0.000000,-0.021559,0.621329,0.000000
2.360000,-0.449794,-1.190498,-1.033997,2.858242,-0.178285,0.355580,1.275234,0.924021,-1.844026,-6.802308,0.104908,-5.453169,-13.101190,-2.447675,22.627161,0.078655,-0.108991,0.000000,-0.022382,0.625438,0.000000
2.370000,-0.421148,-1.192235,-1.030534,2.870654,-0.169040,0.336867,1.206549,0.924938,-1.897438,-6.930648,0.082850,-5.224179,-12.159989,-1.486924,23.842374,0.078427,-0.102696,0.000000,-0.022775,0.629329,-0.000000
2.380000,-0.392381,-1.193879,-1.027260,2.882373,-0.159787,0.317631,1.136621,0.925678,-1.948510,-7.045507,0.075170,-4.976322,-10.754938,-0.050613,25.733669,0.078199,-0.096364,0.000000,-0.021861,0.632229,-0.000000
2.390000,-0.363500,-1.195431,-1.024181,2.893387,-0.150526,0.297897,1.065639,0.926442,-1.996965,-7.145747,0.081838,-4.709506,-9.662332,0.934825,26.961360,0.077990,-0.090011,0.000000,-0.019662,0.634101,-0.000000
2.400000,-0.334513,-1.196890,-1.021302,2.903686,-0.141258,0.277692,0.993706,0.927315,-2.042700,-7.238754,0.093866,-4.437095,-8.998119,1.641429,27.742043,0.077806,-0.083642,0.000000,-0.017023,0.635700,0.000000
2.410000,-0.305426,-1.198256,-1.018627,2.913261,-0.131980,0.257043,0.920864,0.928319,-2.085706,-7.325709,0.114667,-4.154665,-8.238703,2.659642,28.947365,0.077649,-0.077257,0.000000,-0.013632,0.637110,0.000000
2.420000,-0.276248,-1.199529,-1.016161,2.922103,-0.122691,0.235978,0.847192,0.929608,-2.125793,-7.403528,0.147059,-3.858147,-7.274878,3.248898,29.570087,0.077533,-0.070860,0.000000,-0.009237,0.638076,-0.000000
2.430000,-0.246984,-1.200710,-1.013908,2.930205,-0.113388,0.214527,0.772793,0.931260,-2.162869,-7.471207,0.179645,-3.563263,-6.357033,3.138911,29.226399,0.077464,-0.064456,0.000000,-0.004889,0.638631,-0.000000
2.440000,-0.217644,-1.201797,-1.011871,2.937559,-0.104066,0.192720,0.697768,0.933201,-2.197058,-7.530669,0.209837,-3.273619,-5.587686,3.391283,29.379765,0.077435,-0.058048,0.000000,-0.000813,0.638946,0.000000
2.450000,-0.188233,-1.202791,-1.010053,2.944160,-0.094724,0.170586,0.622180,0.935457,-2.228342,-7.582961,0.247470,-2.975668,-4.507197,4.306923,30.445449,0.077448,-0.051637,0.000000,0.003895,0.639042,0.000000
2.460000,-0.158760,-1.203692,-1.008459,2.950002,-0.085357,0.148153,0.546109,0.938150,-2.256572,-7.620813,0.295976,-2.664710,-3.101148,5.136766,31.400611,0.077513,-0.045227,0.000000,0.009545,0.638325,-0.000000
2.470000,-0.129233,-1.204498,-1.007090,2.955082,-0.075961,0.125454,0.469764,0.941376,-2.281636,-7.644984,0.350206,-2.347655,-2.668222,5.324349,31.504856,0.077638,-0.038831,0.000000,0.015672,0.636908,0.000000
2.480000,-0.099659,-1.205211,-1.005950,2.959398,-0.066529,0.102521,0.393209,0.945154,-2.303525,-7.674177,0.402463,-2.034613,-3.198341,5.208720,31.215007,0.077826,-0.032449,0.000000,0.021593,0.636369,0.000000
2.490000,-0.070045,-1.205829,-1.005040,2.962946,-0.057058,0.079384,0.316280,0.949426,-2.322328,-7.708950,0.454380,-1.723355,-2.921170,5.464680,31.442715,0.078070,-0.026063,0.000000,0.027462,0.636729,-0.000000
2.500000,-0.040400,-1.206352,-1.004362,2.965723,-0.047541,0.056074,0.239030,0.954242,-2.337992,-7.732600,0.511756,-1.405759,-2.147277,5.419668,31.380110,0.078375,-0.019674,0.000000,0.033809,0.636603,-0.000000
2.510000,-0.010731,-1.206780,-1.003918,2.967727,-0.037973,0.032624,0.161628,0.959661,-2.350443,-7.751896,0.562773,-1.095753,-2.030311,4.687370,30.507836,0.078746,-0.013291,0.000000,0.039588,0.636574,-0.000000
2.520000,0.018955,-1.207111,-1.003710,2.968956,-0.028348,0.009065,0.083992,0.965497,-2.359907,-7.773207,0.605504,-0.795602,-1.259226,5.260721,31.251632,0.079167,-0.006902,0.000000,0.044636,0.637142,0.000000
2.530000,0.048648,-1.207347,-1.003737,2.969407,-0.018663,-0.014574,0.006164,0.971771,-2.366355,-7.777080,0.667988,-0.470720,0.542710,7.214660,33.790647,0.079639,-0.000506,0.000000,0.051472,0.636698,-0.000000
2.540000,0.078343,-1.207485,-1.004001,2.969079,-0.008912,-0.038262,-0.071549,0.978857,-2.369321,-7.762352,0.749797,-0.119789,1.492355,7.791570,34.762712,0.080197,0.005875,0.000000,0.060083,0.635211,-0.000000
2.550000,0.108030,-1.207525,-1.004502,2.967976,0.000914,-0.061961,-0.149083,0.986767,-2.368751,-7.747233,0.823819,0.224534,1.956105,7.652131,34.518586,0.080841,0.012241,0.000000,0.068055,0.634179,0.000000
2.560000,0.137702,-1.207466,-1.005240,2.966097,0.010823,-0.085637,-0.226494,0.995334,-2.364831,-7.723230,0.902839,0.570583,3.174681,8.572432,35.270642,0.081558,0.018601,0.000000,0.076497,0.632902,0.000000
2.570000,0.167352,-1.207308,-1.006215,2.963446,0.020821,-0.109257,-0.303548,1.004824,-2.357340,-7.683740,0.995268,0.929947,3.501348,7.922289,35.137187,0.082371,0.024943,0.000000,0.086192,0.630872,-0.000000
2.580000,0.196971,-1.207050,-1.007426,2.960026,0.030919,-0.132784,-0.380169,1.015239,-2.346232,-7.653203,1.061285,1.273326,2.499477,4.984512,33.257859,0.083282,0.031263,0.000000,0.093702,0.630037,0.000000
2.590000,0.226553,-1.206690,-1.008871,2.955842,0.041126,-0.156182,-0.456612,1.026049,-2.331873,-7.633750,1.094958,1.595104,2.540312,3.524497,32.404905,0.084245,0.037589,0.000000,0.098499,0.630514,-0.000000
2.600000,0.256088,-1.206228,-1.010549,2.950894,0.051440,-0.179421,-0.532844,1.037138,-2.314330,-7.602397,1.131775,1.921424,3.475851,3.870012,32.939411,0.085252,0.043920,0.000000,0.103667,0.630481,0.000000
2.610000,0.285570,-1.205661,-1.012459,2.945186,0.061868,-0.202468,-0.608660,1.048685,-2.293445,-7.564233,1.172358,2.253892,3.732531,3.463376,32.950860,0.086319,0.050246,0.000000,0.109282,0.630374,0.000000
2.620000,0.314992,-1.204990,-1.014599,2.938721,0.072414,-0.225290,-0.684128,1.060585,-2.269252,-7.527747,1.201043,2.580442,4.482209,2.481127,32.329613,0.087438,0.056576,0.000000,0.113978,0.630845,-0.000000
2.630000,0.344345,-1.204213,-1.016965,2.931503,0.083080,-0.247853,-0.759215,1.072706,-2.241836,-7.474589,1.221981,2.900484,6.401278,1.935321,31.804516,0.088599,0.062913,0.000000,0.118099,0.630371,-0.000000
2.640000,0.373622,-1.203329,-1.019556,2.923537,0.093868,-0.270127,-0.833620,1.085025,-2.211242,-7.399721,1.239749,3.216532,7.733540,1.356604,31.349831,0.089801,0.069235,0.000000,0.122046,0.628531,0.000000
2.650000,0.402816,-1.202336,-1.022367,2.914831,0.104781,-0.292078,-0.907209,1.097501,-2.177505,-7.319918,1.249113,3.527481,7.748268,-0.060165,30.483658,0.091040,0.075536,0.000000,0.125375,0.626688,-0.000000
2.660000,0.431918,-1.201233,-1.025397,2.905393,0.115818,-0.313677,-0.980019,1.110007,-2.140693,-7.244756,1.238546,3.826205,7.700615,-1.888318,29.291665,0.092308,0.081822,0.000000,0.127071,0.625576,0.000000
2.670000,0.460923,-1.200019,-1.028641,2.895230,0.126981,-0.334892,-1.052104,1.122272,-2.100981,-7.165906,1.211347,4.113314,9.086269,-2.222920,28.914522,0.093582,0.088102,0.000000,0.127395,0.624487,0.000000
2.680000,0.489823,-1.198693,-1.032095,2.884350,0.138264,-0.355696,-1.123337,1.134234,-2.058426,-7.063030,1.194087,4.404495,11.394192,-1.222521,29.320358,0.094857,0.094368,0.000000,0.128681,0.621832,0.000000
2.690000,0.518610,-1.197254,-1.035755,2.872764,0.149665,-0.376061,-1.193365,1.146153,-2.012891,-6.938022,1.186896,4.699721,12.689028,-1.440480,28.962711,0.096156,0.100596,0.000000,0.130963,0.617763,0.000000
2.700000,0.547278,-1.195700,-1.039616,2.860483,0.161187,-0.395954,-1.262097,1.157972,-1.964432,-6.809250,1.165278,4.983750,13.677089,-2.482319,28.035701,0.097476,0.106782,0.000000,0.132067,0.613667,-0.000000
2.710000,0.575820,-1.194030,-1.043674,2.847522,0.172825,-0.415349,-1.329550,1.169459,-1.913216,-6.664480,1.137250,5.260435,15.559097,-2.681295,27.553537,0.098798,0.112929,0.000000,0.132690,0.608528,0.000000
2.720000,0.604229,-1.192244,-1.047923,2.833892,0.184576,-0.434219,-1.395387,1.180717,-1.859223,-6.498068,1.111652,5.534820,15.978572,-3.711352,26.607010,0.100130,0.119013,0.000000,0.133626,0.601893,-0.000000
2.730000,0.632498,-1.190339,-1.052358,2.819614,0.196439,-0.452534,-1.459511,1.191692,-1.802520,-6.344909,1.063023,5.792576,14.456370,-6.205866,24.816794,0.101471,0.125029,0.000000,0.132569,0.596523,-0.000000
2.740000,0.660621,-1.188315,-1.056974,2.804702,0.208410,-0.470269,-1.522285,1.201977,-1.743372,-6.208940,0.987535,6.031156,14.313512,-7.720897,23.516953,0.102782,0.131006,0.000000,0.129116,0.592707,0.000000
2.750000,0.688592,-1.186171,-1.061764,2.789168,0.220479,-0.487401,-1.583690,1.211443,-1.681897,-6.058639,0.908605,6.262915,15.597838,-8.089699,22.771293,0.104053,0.136947,0.000000,0.125364,0.587891,0.000000
2.760000,0.716404,-1.183905,-1.066722,2.773028,0.232639,-0.503907,-1.643458,1.220150,-1.618113,-5.896984,0.825741,6.486582,16.069488,-8.973628,21.672110,0.105289,0.142829,0.000000,0.121251,0.582281,0.000000
2.770000,0.744053,-1.181518,-1.071842,2.756299,0.244882,-0.519763,-1.701630,1.227957,-1.552165,-5.737249,0.729132,6.696357,16.511122,-10.057906,20.479886,0.106478,0.148658,0.000000,0.115845,0.576908,-0.000000
2.780000,0.771530,-1.179008,-1.077117,2.738996,0.257198,-0.534950,-1.758203,1.234732,-1.484186,-5.566761,0.624583,6.896180,17.747319,-10.734535,19.521407,0.107606,0.154434,0.000000,0.109669,0.570709,0.000000
2.790000,0.798832,-1.176374,-1.082541,2.721135,0.269576,-0.549447,-1.812965,1.240449,-1.414241,-5.382302,0.514442,7.086785,18.506659,-11.572640,18.361735,0.108671,0.160139,0.000000,0.102919,0.563379,0.000000
2.800000,0.825953,-1.173616,-1.088106,2.702736,0.282007,-0.563235,-1.865849,1.245021,-1.342451,-5.196628,0.393130,7.263415,18.556784,-12.712830,16.959816,0.109664,0.165769,0.000000,0.095023,0.555911,-0.000000
2.810000,0.852887,-1.170734,-1.093806,2.683818,0.294477,-0.576296,-1.916897,1.248312,-1.268973,-5.011167,0.260185,7.425981,18.794661,-13.734099,15.622352,0.110572,0.171325,0.000000,0.085900,0.548398,0.000000
2.820000,0.879629,-1.167726,-1.099632,2.664398,0.306973,-0.588614,-1.966072,1.250225,-1.193931,-4.820735,0.118448,7.575862,19.302232,-14.564793,14.249570,0.111382,0.176804,0.000000,0.075784,0.540374,0.000000
2.830000,0.906175,-1.164594,-1.105578,2.644497,0.319481,-0.600175,-2.013312,1.250681,-1.117456,-4.625122,-0.031111,7.710973,19.765171,-15.339627,12.727464,0.112087,0.182200,0.000000,0.064710,0.531746,-0.000000
2.840000,0.932519,-1.161337,-1.111636,2.624132,0.331987,-0.610964,-2.058574,1.249602,-1.039711,-4.425431,-0.188345,7.830411,20.153899,-16.105193,11.226757,0.112676,0.187507,0.000000,0.052646,0.522553,-0.000000
2.850000,0.958658,-1.157954,-1.117797,2.603325,0.344473,-0.620969,-2.101821,1.246914,-0.960848,-4.222044,-0.353215,7.935508,20.515516,-16.867524,9.809554,0.113139,0.192718,0.000000,0.039573,0.512806,0.000000
2.860000,0.984586,-1.154447,-1.124055,2.582096,0.356925,-0.630181,-2.143015,1.242538,-0.881001,-4.015121,-0.525695,8.026602,20.856030,-17.589248,8.357228,0.113466,0.197829,0.000000,0.025460,0.502482,-0.000000
2.870000,1.010300,-1.150816,-1.130401,2.560465,0.369324,-0.638589,-2.182123,1.236400,-0.800316,-3.804924,-0.705000,8.102652,21.154601,-18.185006,6.779256,0.113647,0.202832,0.000000,0.010333,0.491543,0.000000
2.880000,1.035795,-1.147061,-1.136827,2.538453,0.381653,-0.646187,-2.219114,1.228438,-0.718948,-3.592029,-0.889395,8.162187,21.405932,-18.652524,5.115033,0.113672,0.207723,0.000000,-0.005703,0.479967,0.000000
2.890000,1.061069,-1.143183,-1.143325,2.516082,0.393893,-0.652968,-2.253964,1.218612,-0.637072,-3.376805,-1.078050,8.204953,21.636271,-19.096874,3.485645,0.113532,0.212494,0.000000,-0.022606,0.467733,-0.000000
2.900000,1.086117,-1.139183,-1.149886,2.493374,0.406025,-0.658928,-2.286650,1.206877,-0.554849,-3.159304,-1.271333,8.231900,21.857516,-19.563701,1.920373,0.113219,0.217138,0.000000,-0.040432,0.454816,-0.000000
2.910000,1.110936,-1.135062,-1.156503,2.470349,0.418030,-0.664065,-2.317150,1.193185,-0.472434,-2.939655,-1.469324,8.243361,22.048784,-19.972025,0.342995,0.112722,0.221648,0.000000,-0.059215,0.441187,0.000000
2.920000,1.135524,-1.130822,-1.163167,2.447031,0.429889,-0.668377,-2.345443,1.177491,-0.389982,-2.718328,-1.670773,8.238760,22.177489,-20.193992,-1.307834,0.112033,0.226017,0.000000,-0.078877,0.426832,0.000000
2.930000,1.159877,-1.126465,-1.169871,2.423441,0.441580,-0.671865,-2.371516,1.159770,-0.307659,-2.496105,-1.873204,8.217204,22.247259,-20.242202,-3.003099,0.111144,0.230237,0.000000,-0.099218,0.411755,-0.000000
2.940000,1.183993,-1.121991,-1.176605,2.399601,0.453084,-0.674530,-2.395365,1.140027,-0.225638,-2.273383,-2.075617,8.178698,22.299057,-20.279953,-4.655314,0.110048,0.234302,0.000000,-0.120164,0.395947,0.000000
2.950000,1.207869,-1.117403,-1.183361,2.375533,0.464381,-0.676377,-2.416984,1.118258,-0.144085,-2.050124,-2.278803,8.124098,22.342983,-20.366208,-6.249792,0.108739,0.238203,0.000000,-0.141794,0.379377,0.000000
2.960000,1.231503,-1.112703,-1.190132,2.351261,0.475449,-0.677412,-2.436368,1.094451,-0.063156,-1.826523,-2.482942,8.053702,22.349455,-20.383479,-7.837423,0.107210,0.241933,0.000000,-0.164139,0.362028,-0.000000
2.970000,1.254894,-1.107894,-1.196909,2.326806,0.486270,-0.677641,-2.453514,1.068599,0.016989,-1.603135,-2.686473,7.967349,22.292627,-20.178803,-9.434791,0.105454,0.245484,0.000000,-0.187062,0.343905,0.000000
2.980000,1.278039,-1.102978,-1.203685,2.302191,0.496821,-0.677072,-2.468430,1.040721,0.096191,-1.380671,-2.886518,7.865006,22.178870,-19.779106,-11.016662,0.103467,0.248848,0.000000,-0.210283,0.325036,-0.000000
2.990000,1.300938,-1.097958,-1.210451,2.277437,0.507084,-0.675717,-2.481128,1.010868,0.174290,-1.159557,-3.082055,7.747016,22.040328,-19.383914,-12.553646,0.101247,0.252018,0.000000,-0.233692,0.305434,0.000000
3.000000,1.323588,-1.092836,-1.217199,2.252568,0.517039,-0.673586,-2.491621,0.979080,0.251131,-0.939864,-3.274196,7.613933,21.894745,-19.057754,-14.051750,0.098792,0.254987,0.000000,-0.257380,0.285086,-0.000000
3.010000,1.345989,-1.087617,-1.223923,2.227605,0.526666,-0.670694,-2.499925,0.945384,0.326568,-0.721662,-3.463210,7.465981,21.718755,-18.662793,-15.520586,0.096098,0.257746,0.000000,-0.281358,0.263976,-0.000000
3.020000,1.368140,-1.082303,-1.230613,2.202570,0.535946,-0.667055,-2.506055,0.909816,0.400451,-0.505489,-3.647452,7.303522,21.462382,-18.041460,-16.924732,0.093163,0.260289,0.000000,-0.305439,0.242137,0.000000
3.030000,1.390041,-1.076898,-1.237264,2.177484,0.544862,-0.662685,-2.510035,0.872435,0.472639,-0.292415,-3.824039,7.127486,21.122458,-17.232951,-18.249800,0.089988,0.262608,0.000000,-0.329294,0.219681,-0.000000
3.040000,1.411690,-1.071406,-1.243867,2.152369,0.553395,-0.657602,-2.511903,0.833335,0.543001,-0.083040,-3.992111,6.938526,20.768146,-16.446339,-19.534512,0.086576,0.264699,0.000000,-0.352786,0.196669,0.000000
3.050000,1.433088,-1.065830,-1.250416,2.127246,0.561529,-0.651825,-2.511696,0.792593,0.611409,0.122948,-4.152966,6.736796,20.474197,-15.732764,-20.800651,0.082931,0.266554,0.000000,-0.376002,0.173065,-0.000000
3.060000,1.454235,-1.060175,-1.256903,2.102135,0.569247,-0.645374,-2.509444,0.750276,0.677737,0.326444,-4.306766,6.522513,20.189249,-14.953628,-22.011756,0.079055,0.268170,0.000000,-0.398907,0.148780,0.000000
3.070000,1.475131,-1.054445,-1.263323,2.077057,0.576534,-0.638270,-2.505167,0.706458,0.741859,0.526733,-4.452038,6.296561,19.712213,-13.998325,-23.097206,0.074952,0.269537,0.000000,-0.421288,0.123906,0.000000
3.080000,1.495776,-1.048644,-1.269669,2.052032,0.583376,-0.630537,-2.498909,0.661235,0.803668,0.720688,-4.586733,6.060568,19.069408,-12.915829,-24.053272,0.070629,0.270653,0.000000,-0.442860,0.098817,-0.000000
3.090000,1.516171,-1.042777,-1.275934,2.027079,0.589759,-0.622197,-2.490753,0.614723,0.863071,0.908121,-4.710355,5.815495,18.533306,-11.854415,-24.965790,0.066094,0.271517,0.000000,-0.463494,0.073578,0.000000
3.100000,1.536318,-1.036849,-1.282113,2.002217,0.595671,-0.613275,-2.480747,0.567028,0.919978,1.091355,-4.823821,5.561253,18.027656,-10.826256,-25.896113,0.061358,0.272126,0.000000,-0.483212,0.047968,-0.000000
3.110000,1.556216,-1.030864,-1.288199,1.977464,0.601100,-0.603797,-2.468926,0.518247,0.974296,1.268675,-4.926880,5.297573,17.380892,-9.740079,-26.775167,0.056430,0.272476,0.000000,-0.501918,0.022179,-0.000000
3.120000,1.575867,-1.024827,-1.294189,1.952838,0.606036,-0.593789,-2.455373,0.468490,1.025929,1.438972,-5.018622,5.025749,16.876618,-8.590681,-27.426031,0.051320,0.272569,0.000000,-0.519430,-0.003601,-0.000000
3.130000,1.595272,-1.018743,-1.300075,1.928356,0.610469,-0.583279,-2.440147,0.417874,1.074811,1.606207,-5.098694,4.749053,16.587332,-7.413410,-27.857763,0.046042,0.272403,0.000000,-0.535605,-0.029657,0.000000
3.140000,1.614434,-1.012618,-1.305854,1.904035,0.614393,-0.572293,-2.423249,0.366516,1.120910,1.770719,-5.166891,4.468594,16.111294,-6.219228,-28.302628,0.040608,0.271974,0.000000,-0.550345,-0.055961,0.000000
3.150000,1.633353,-1.006455,-1.311521,1.879891,0.617800,-0.560861,-2.404732,0.314537,1.164183,1.928433,-5.223078,4.183000,15.409729,-5.030207,-28.812213,0.035035,0.271281,0.000000,-0.563572,-0.082076,-0.000000
3.160000,1.652032,-1.000262,-1.317072,1.855940,0.620684,-0.549010,-2.384681,0.262055,1.204570,2.078914,-5.267495,3.892350,14.757502,-3.847168,-29.224305,0.029338,0.270330,0.000000,-0.575236,-0.107903,-0.000000
3.170000,1.670472,-0.994042,-1.322501,1.832198,0.623041,-0.536769,-2.363154,0.209187,1.242030,2.223583,-5.300022,3.598514,14.152547,-2.614774,-29.426679,0.023532,0.269121,0.000000,-0.585243,-0.133488,0.000000
3.180000,1.688676,-0.987801,-1.327807,1.808677,0.624868,-0.524169,-2.340209,0.156054,1.276541,2.361965,-5.319790,3.303816,13.480516,-1.343353,-29.466337,0.017634,0.267659,0.000000,-0.593426,-0.158656,0.000000
3.190000,1.706646,-0.981544,-1.332985,1.785394,0.626162,-0.511238,-2.315915,0.102791,1.308106,2.493193,-5.326889,3.009187,12.773013,-0.120362,-29.483271,0.011665,0.265947,0.000000,-0.599733,-0.183228,-0.000000
3.200000,1.724384,-0.975278,-1.338032,1.762359,0.626923,-0.498007,-2.290345,0.049517,1.336724,2.617425,-5.322197,2.714151,12.171408,1.081752,-29.519259,0.005641,0.263993,0.000000,-0.604213,-0.207180,-0.000000
3.210000,1.741893,-0.969006,-1.342945,1.739587,0.627152,-0.484504,-2.263566,-0.003653,1.362389,2.736621,-5.305254,2.418802,11.639897,2.309256,-29.479247,-0.000418,0.261803,0.000000,-0.606764,-0.230667,-0.000000
3.220000,1.759175,-0.962735,-1.347722,1.717088,0.626850,-0.470759,-2.235613,-0.056588,1.385100,2.850223,-5.276012,2.124566,10.815005,3.441897,-29.252733,-0.006492,0.259380,0.000000,-0.607340,-0.253534,-0.000000
3.230000,1.776234,-0.956469,-1.352360,1.694874,0.626020,-0.456802,-2.206562,-0.109173,1.404880,2.952921,-5.236416,1.833747,9.707498,4.443008,-28.865185,-0.012563,0.256733,0.000000,-0.606137,-0.275068,0.000000
3.240000,1.793073,-0.950214,-1.356858,1.672957,0.624667,-0.442661,-2.176554,-0.161317,1.421775,3.044373,-5.187152,1.547262,8.815329,5.472457,-28.464789,-0.018613,0.253878,0.000000,-0.603213,-0.295146,-0.000000
3.250000,1.809694,-0.943976,-1.361213,1.651343,0.622794,-0.428366,-2.145674,-0.212916,1.435826,3.129228,-5.126967,1.264452,8.113309,6.607812,-28.101716,-0.024625,0.250829,0.000000,-0.598416,-0.314255,-0.000000
3.260000,1.826100,-0.937758,-1.365425,1.630043,0.620408,-0.413945,-2.113970,-0.263856,1.447064,3.206639,-5.054996,0.985228,7.275692,7.727033,-27.677296,-0.030579,0.247592,0.000000,-0.591640,-0.332259,0.000000
3.270000,1.842294,-0.931567,-1.369492,1.609064,0.617517,-0.399425,-2.081541,-0.314016,1.455530,3.274742,-4.972426,0.710906,6.494410,8.632271,-27.074843,-0.036455,0.244181,0.000000,-0.583026,-0.348870,-0.000000
3.280000,1.858281,-0.925408,-1.373414,1.588412,0.614128,-0.384834,-2.048475,-0.363305,1.461282,3.336527,-4.882350,0.443731,5.899494,9.352844,-26.329798,-0.042237,0.240611,0.000000,-0.572960,-0.364326,0.000000
3.290000,1.874063,-0.919285,-1.377189,1.568094,0.610251,-0.370199,-2.014811,-0.411663,1.464405,3.392732,-4.785369,0.184310,5.204132,10.143153,-25.600999,-0.047913,0.236889,0.000000,-0.561543,-0.378667,0.000000
3.300000,1.889643,-0.913203,-1.380818,1.548116,0.605895,-0.355546,-1.980620,-0.459012,1.464969,3.440610,-4.679487,-0.068289,4.341000,11.032060,-24.893526,-0.053467,0.233030,0.000000,-0.548567,-0.391586,-0.000000
3.310000,1.905025,-0.907167,-1.384300,1.528482,0.601071,-0.340900,-1.945999,-0.505253,1.463039,3.479552,-4.564728,-0.313561,3.515809,11.844192,-24.108320,-0.058882,0.229047,0.000000,-0.534068,-0.402981,0.000000
3.320000,1.920213,-0.901182,-1.387636,1.509196,0.595790,-0.326285,-1.911029,-0.550307,1.458697,3.510926,-4.442604,-0.550455,2.822718,12.529375,-23.267007,-0.064146,0.224957,0.000000,-0.518272,-0.412967,-0.000000
3.330000,1.935209,-0.895251,-1.390825,1.490261,0.590065,-0.311726,-1.875780,-0.594105,1.452030,3.536006,-4.314140,-0.778901,2.194492,13.142576,-22.411734,-0.069246,0.220772,0.000000,-0.501347,-0.421682,0.000000
3.340000,1.950018,-0.889380,-1.393870,1.471680,0.583908,-0.297245,-1.840309,-0.636589,1.443119,3.554816,-4.179752,-0.998690,1.524493,13.735328,-21.513296,-0.074172,0.216504,0.000000,-0.483391,-0.429121,0.000000
3.350000,1.964643,-0.883573,-1.396770,1.453455,0.577333,-0.282864,-1.804684,-0.677700,1.432056,3.566496,-4.039434,-1.209167,0.818368,14.326440,-20.560694,-0.078913,0.212167,0.000000,-0.464458,-0.435176,0.000000
3.360000,1.979087,-0.877834,-1.399527,1.435587,0.570354,-0.268604,-1.768979,-0.717378,1.418936,3.571183,-3.893223,-1.409904,0.147168,14.880439,-19.582875,-0.083460,0.207775,0.000000,-0.444611,-0.439862,0.000000
3.370000,1.993354,-0.872166,-1.402142,1.418076,0.562985,-0.254485,-1.733260,-0.755565,1.403858,3.569439,-3.741825,-1.600824,-0.497030,15.328318,-18.606554,-0.087804,0.203340,0.000000,-0.423986,-0.443257,-0.000000
3.380000,2.007448,-0.866574,-1.404617,1.400922,0.555242,-0.240527,-1.697590,-0.792215,1.386920,3.561243,-3.586657,-1.782035,-1.138126,15.679766,-17.630140,-0.091939,0.198876,0.000000,-0.402801,-0.445378,0.000000
3.390000,2.021373,-0.861061,-1.406953,1.384124,0.547141,-0.226747,-1.662035,-0.827298,1.368217,3.546677,-3.428230,-1.953427,-1.757082,16.026616,-16.628367,-0.095860,0.194396,0.000000,-0.381166,-0.446256,0.000000
3.400000,2.035131,-0.855631,-1.409152,1.367681,0.538696,-0.213162,-1.626657,-0.860779,1.347851,3.526101,-3.266125,-2.114602,-2.349292,16.375709,-15.587591,-0.099562,0.189911,0.000000,-0.359090,-0.445947,0.000000
3.410000,2.048726,-0.850287,-1.411216,1.351591,0.529925,-0.199790,-1.591513,-0.892620,1.325925,3.499691,-3.100716,-2.265179,-2.927307,16.665951,-14.532595,-0.103041,0.185433,0.000000,-0.336668,-0.444491,0.000000
3.420000,2.062163,-0.845033,-1.413148,1.335851,0.520844,-0.186644,-1.556663,-0.922793,1.302547,3.467555,-2.932806,-2.405254,-3.487907,16.894699,-13.515248,-0.106295,0.180974,0.000000,-0.314040,-0.441933,-0.000000
3.430000,2.075443,-0.839870,-1.414949,1.320457,0.511469,-0.173739,-1.522162,-0.951276,1.277820,3.429933,-2.762822,-2.535484,-4.026506,17.080474,-12.535339,-0.109322,0.176545,0.000000,-0.291287,-0.438347,-0.000000
3.440000,2.088572,-0.834803,-1.416623,1.305407,0.501819,-0.161087,-1.488064,-0.978050,1.251838,3.387025,-2.591196,-2.655961,-4.546735,17.223864,-11.531446,-0.112121,0.172155,0.000000,-0.268499,-0.433788,-0.000000
3.450000,2.101551,-0.829834,-1.418171,1.290696,0.491908,-0.148702,-1.454422,-1.003100,1.224701,3.338998,-2.418344,-2.766113,-5.041859,17.349628,-10.489209,-0.114692,0.167815,0.000000,-0.245764,-0.428297,0.000000
3.460000,2.114386,-0.824965,-1.419597,1.276319,0.481757,-0.136593,-1.421284,-1.026417,1.196516,3.286188,-2.244204,-2.865745,-5.508584,17.457398,-9.456597,-0.117037,0.163533,0.000000,-0.223110,-0.421941,0.000000
3.470000,2.127078,-0.820199,-1.420903,1.262270,0.471380,-0.124772,-1.388698,-1.047984,1.167386,3.228826,-2.069196,-2.955245,-5.966139,17.470365,-8.476411,-0.119155,0.159319,0.000000,-0.200609,-0.414789,-0.000000
3.480000,2.139631,-0.815537,-1.422092,1.248545,0.460797,-0.113246,-1.356708,-1.067801,1.137411,3.166865,-1.894796,-3.035273,-6.412133,17.390158,-7.540147,-0.121049,0.155179,0.000000,-0.178441,-0.406878,-0.000000
3.490000,2.152049,-0.810983,-1.423168,1.235136,0.450024,-0.102023,-1.325361,-1.085880,1.106681,3.100584,-1.721393,-3.106048,-6.818717,17.324658,-6.599177,-0.122724,0.151121,0.000000,-0.156666,-0.398275,-0.000000
3.500000,2.164334,-0.806537,-1.424133,1.222038,0.439079,-0.091112,-1.294696,-1.102229,1.075290,3.030490,-1.548303,-3.167257,-7.205799,17.264344,-5.632628,-0.124183,0.147153,0.000000,-0.135228,-0.389061,0.000000
3.510000,2.176490,-0.802201,-1.424990,1.209242,0.427980,-0.080518,-1.264751,-1.116846,1.043335,2.956468,-1.376106,-3.218700,-7.588925,17.140502,-4.678930,-0.125430,0.143280,0.000000,-0.114205,-0.379249,0.000000
3.520000,2.188519,-0.797977,-1.425743,1.196743,0.416742,-0.070245,-1.235567,-1.129751,1.010916,2.878712,-1.205493,-3.260836,-7.900709,17.010939,-3.803336,-0.126468,0.139508,0.000000,-0.093677,-0.368896,0.000000
3.530000,2.200424,-0.793866,-1.426395,1.184531,0.405385,-0.060299,-1.207177,-1.140956,0.978119,2.798454,-1.035887,-3.294767,-8.131661,16.908254,-2.998891,-0.127304,0.135842,0.000000,-0.073572,-0.358180,-0.000000
3.540000,2.212209,-0.789870,-1.426949,1.172599,0.393923,-0.050683,-1.179598,-1.150468,0.945020,2.716079,-0.867328,-3.320813,-8.374796,16.749122,-2.183763,-0.127940,0.132286,0.000000,-0.053893,-0.347170,-0.000000
3.550000,2.223876,-0.785988,-1.427408,1.160939,0.382375,-0.041399,-1.152855,-1.158303,0.911702,2.630958,-0.700905,-3.338442,-8.644177,16.492928,-1.345028,-0.128382,0.128841,0.000000,-0.034767,-0.335807,-0.000000
3.560000,2.235428,-0.782222,-1.427777,1.149542,0.370757,-0.032449,-1.126979,-1.164487,0.878251,2.543195,-0.537469,-3.347714,-8.875712,16.201717,-0.541308,-0.128636,0.125513,0.000000,-0.016282,-0.324125,0.000000
3.570000,2.246867,-0.778573,-1.428057,1.138400,0.359085,-0.023834,-1.101991,-1.169052,0.844748,2.453443,-0.376871,-3.349268,-9.051168,15.968516,0.197091,-0.128709,0.122305,0.000000,0.001593,-0.312221,-0.000000
3.580000,2.258196,-0.775040,-1.428254,1.127502,0.347376,-0.015554,-1.077910,-1.172024,0.811266,2.362172,-0.218099,-3.343772,-9.192981,15.769319,0.886254,-0.128605,0.119217,0.000000,0.018982,-0.300168,-0.000000
3.590000,2.269417,-0.771625,-1.428368,1.116841,0.335645,-0.007609,-1.054748,-1.173414,0.777873,2.269584,-0.061484,-3.331543,-9.320449,15.484859,1.559891,-0.128330,0.116251,0.000000,0.035862,-0.288005,-0.000000
3.600000,2.280533,-0.768328,-1.428406,1.106407,0.323908,0.000004,-1.032518,-1.173254,0.744635,2.175763,0.091598,-3.312574,-9.428640,15.155283,2.228568,-0.127888,0.113408,0.000000,0.052094,-0.275750,-0.000000
3.610000,2.291545,-0.765147,-1.428368,1.096191,0.312180,0.007284,-1.011232,-1.171582,0.711621,2.081011,0.241621,-3.286972,-9.506007,14.857111,2.867429,-0.127288,0.110690,0.000000,0.067742,-0.263447,-0.000000
3.620000,2.302457,-0.762084,-1.428260,1.086183,0.300476,0.014236,-0.990898,-1.168421,0.678896,1.985643,0.388740,-3.255226,-9.562840,14.456765,3.441346,-0.126534,0.108096,0.000000,0.082841,-0.251141,0.000000
3.630000,2.313269,-0.759138,-1.428084,1.076373,0.288811,0.020862,-0.971520,-1.163807,0.646517,1.889754,0.530757,-3.218145,-9.600589,13.922717,3.954104,-0.125632,0.105626,0.000000,0.097179,-0.238857,0.000000
3.640000,2.323984,-0.756308,-1.427843,1.066752,0.277200,0.027166,-0.953103,-1.157806,0.614533,1.793631,0.667195,-3.176144,-9.605523,13.447263,4.450610,-0.124591,0.103280,0.000000,0.110727,-0.226633,0.000000
3.650000,2.334604,-0.753594,-1.427540,1.057311,0.265655,0.033153,-0.935647,-1.150464,0.582994,1.697644,0.799702,-3.129133,-9.600030,13.055682,4.951424,-0.123418,0.101058,0.000000,0.123674,-0.214508,0.000000
3.660000,2.345130,-0.750995,-1.427180,1.048039,0.254191,0.038826,-0.919150,-1.141812,0.551950,1.601630,0.928308,-3.077115,-9.592092,12.618429,5.424034,-0.122118,0.098957,0.000000,0.136037,-0.202467,-0.000000
3.670000,2.355565,-0.748510,-1.426764,1.038928,0.242819,0.044192,-0.903614,-1.131897,0.521452,1.505802,1.052070,-3.020652,-9.513360,12.121013,5.813825,-0.120697,0.096977,0.000000,0.147738,-0.190537,0.000000
3.680000,2.365909,-0.746138,-1.426296,1.029967,0.231553,0.049255,-0.889034,-1.120771,0.491537,1.411363,1.170729,-2.960839,-9.359429,11.613393,6.129121,-0.119163,0.095118,0.000000,0.158777,-0.178856,0.000000
3.690000,2.376164,-0.743879,-1.425779,1.021147,0.220404,0.054023,-0.875387,-1.108483,0.462235,1.318613,1.284338,-2.898070,-9.226523,11.106977,6.442005,-0.117522,0.093374,0.000000,0.169178,-0.167453,-0.000000
3.700000,2.386332,-0.741730,-1.425215,1.012459,0.209383,0.058500,-0.862662,-1.095084,0.433576,1.226833,1.392868,-2.831999,-9.123037,10.578480,6.763542,-0.115780,0.091745,0.000000,0.178948,-0.156246,0.000000
3.710000,2.396413,-0.739691,-1.424609,1.003894,0.198502,0.062694,-0.850850,-1.080625,0.405595,1.136153,1.495908,-2.762799,-8.985362,10.026691,7.045163,-0.113943,0.090228,0.000000,0.188061,-0.145245,-0.000000
3.720000,2.406410,-0.737760,-1.423962,0.995442,0.187771,0.066612,-0.839939,-1.065166,0.378320,1.047125,1.593402,-2.691095,-8.815677,9.510090,7.267238,-0.112019,0.088821,0.000000,0.196529,-0.134510,0.000000
3.730000,2.416322,-0.735936,-1.423277,0.987095,0.177199,0.070260,-0.829908,-1.048757,0.351773,0.959839,1.686110,-2.617454,-8.639014,9.033150,7.445300,-0.110013,0.087520,0.000000,0.204451,-0.124049,-0.000000
3.740000,2.426152,-0.734216,-1.422556,0.978844,0.166795,0.073647,-0.820742,-1.031444,0.325971,0.874345,1.774065,-2.542189,-8.449021,8.519237,7.603474,-0.107930,0.086324,0.000000,0.211844,-0.113864,0.000000
3.750000,2.435899,-0.732600,-1.421804,0.970680,0.156570,0.076780,-0.812421,-1.013276,0.300929,0.790859,1.856495,-2.465385,-8.235493,7.964529,7.752246,-0.105776,0.085229,0.000000,0.218639,-0.103972,0.000000
3.760000,2.445565,-0.731085,-1.421021,0.962596,0.146530,0.079666,-0.804925,-0.994314,0.276663,0.709635,1.933356,-2.387144,-8.006276,7.423207,7.876235,-0.103557,0.084233,0.000000,0.224843,-0.094394,0.000000
3.770000,2.455151,-0.729669,-1.420210,0.954582,0.136684,0.082313,-0.798228,-0.974609,0.253186,0.630733,2.004959,-2.307860,-7.784949,6.893873,7.946240,-0.101279,0.083331,0.000000,0.230500,-0.085133,0.000000
3.780000,2.464657,-0.728351,-1.419374,0.946631,0.127038,0.084730,-0.792310,-0.954214,0.230506,0.553936,2.071233,-2.228220,-7.571730,6.359789,7.967277,-0.098947,0.082521,0.000000,0.235620,-0.076166,0.000000
3.790000,2.474084,-0.727128,-1.418516,0.938736,0.117599,0.086923,-0.787150,-0.933184,0.208622,0.479298,2.132154,-2.148514,-7.337305,5.830426,7.980380,-0.096566,0.081800,0.000000,0.240209,-0.067494,0.000000
3.800000,2.483432,-0.725999,-1.417636,0.930888,0.108374,0.088902,-0.782724,-0.911571,0.187536,0.407190,2.187841,-2.068612,-7.075311,5.304917,7.992637,-0.094143,0.081165,0.000000,0.244284,-0.059147,0.000000
3.810000,2.492701,-0.724961,-1.416738,0.923081,0.099368,0.090674,-0.779006,-0.889427,0.167250,0.337792,2.238253,-1.988662,-6.807568,4.778535,7.978041,-0.091681,0.080612,0.000000,0.247848,-0.051141,0.000000
3.820000,2.501893,-0.724012,-1.415823,0.915308,0.090586,0.092247,-0.775968,-0.866806,0.147762,0.271039,2.283412,-1.909051,-6.550526,4.267658,7.927188,-0.089186,0.080137,0.000000,0.250913,-0.043464,0.000000
3.830000,2.511008,-0.723149,-1.414893,0.907562,0.082032,0.093629,-0.773585,-0.843759,0.129069,0.206782,2.323606,-1.830118,-6.298680,3.776825,7.850618,-0.086662,0.079739,0.000000,0.253515,-0.036098,-0.000000
3.840000,2.520045,-0.722371,-1.413950,0.899836,0.073710,0.094828,-0.771832,-0.820334,0.111160,0.145065,2.358949,-1.752039,-6.033138,3.285312,7.761783,-0.084115,0.079413,0.000000,0.255671,-0.029045,-0.000000
3.850000,2.529004,-0.721675,-1.412996,0.892125,0.065625,0.095852,-0.770684,-0.796580,0.094028,0.086119,2.389312,-1.674882,-5.750742,2.786129,7.660867,-0.081549,0.079156,0.000000,0.257371,-0.022322,-0.000000
3.860000,2.537887,-0.721059,-1.412033,0.884423,0.057779,0.096709,-0.770110,-0.772548,0.077662,0.030050,2.414671,-1.598822,-5.465471,2.295531,7.541439,-0.078968,0.078964,0.000000,0.258615,-0.015937,0.000000
3.870000,2.546693,-0.720519,-1.411062,0.876723,0.050174,0.097406,-0.770083,-0.748287,0.062051,-0.023190,2.435223,-1.524054,-5.187719,1.831883,7.407214,-0.076376,0.078836,0.000000,0.259428,-0.009882,-0.000000
3.880000,2.555422,-0.720055,-1.410085,0.869021,0.042813,0.097950,-0.770574,-0.723843,0.047181,-0.073704,2.451309,-1.450677,-4.913900,1.392031,7.262950,-0.073779,0.078766,0.000000,0.259847,-0.004142,-0.000000
3.890000,2.564073,-0.719663,-1.409103,0.861312,0.035697,0.098349,-0.771557,-0.699261,0.033038,-0.121468,2.463063,-1.378795,-4.632376,0.953920,7.105952,-0.071179,0.078753,0.000000,0.259886,0.001284,-0.000000
3.900000,2.572648,-0.719341,-1.408118,0.853590,0.028828,0.098611,-0.773003,-0.674582,0.019605,-0.166352,2.470387,-1.308558,-4.342461,0.511563,6.932652,-0.068581,0.078792,0.000000,0.259536,0.006383,0.000000
3.910000,2.581145,-0.719087,-1.407131,0.845852,0.022206,0.098741,-0.774884,-0.649853,0.006867,-0.208318,2.473295,-1.240142,-4.052775,0.081353,6.747604,-0.065988,0.078880,0.000000,0.258800,0.011156,-0.000000
3.920000,2.589565,-0.718897,-1.406143,0.838092,0.015831,0.098748,-0.777170,-0.625116,-0.005197,-0.247407,2.472014,-1.173606,-3.766402,-0.319568,6.564467,-0.063405,0.079015,0.000000,0.257701,0.015609,-0.000000
3.930000,2.597907,-0.718770,-1.405156,0.830308,0.009703,0.098637,-0.779832,-0.600413,-0.016605,-0.283646,2.466903,-1.108852,-3.481219,-0.694895,6.384584,-0.060834,0.079193,0.000000,0.256274,0.019749,-0.000000
3.940000,2.606171,-0.718703,-1.404170,0.822496,0.003822,0.098416,-0.782843,-0.575778,-0.027375,-0.317031,2.458116,-1.045914,-3.194944,-1.065582,6.192327,-0.058279,0.079411,0.000000,0.254534,0.023577,0.000000
3.950000,2.614357,-0.718694,-1.403187,0.814651,-0.001812,0.098090,-0.786173,-0.551250,-0.037524,-0.347545,2.445592,-0.985006,-2.907230,-1.436975,5.982128,-0.055743,0.079666,0.000000,0.252474,0.027092,0.000000
3.960000,2.622464,-0.718739,-1.402208,0.806772,-0.007203,0.097665,-0.789793,-0.526866,-0.047075,-0.375176,2.429377,-0.926272,-2.620334,-1.793939,5.766997,-0.053230,0.079954,0.000000,0.250099,0.030295,-0.000000
3.970000,2.630492,-0.718838,-1.401234,0.798855,-0.012350,0.097148,-0.793676,-0.502663,-0.056049,-0.399951,2.409713,-0.869666,-2.337641,-2.121849,5.564434,-0.050741,0.080272,0.000000,0.247431,0.033189,0.000000
3.980000,2.638441,-0.718986,-1.400265,0.790899,-0.017256,0.096544,-0.797792,-0.478672,-0.064468,-0.421929,2.386940,-0.814983,-2.059315,-2.424496,5.372755,-0.048281,0.080618,0.000000,0.244500,0.035785,0.000000
3.990000,2.646310,-0.719183,-1.399303,0.782900,-0.021923,0.095859,-0.802115,-0.454924,-0.072349,-0.441138,2.361223,-0.762211,-1.781827,-2.720042,5.171292,-0.045851,0.080989,0.000000,0.241323,0.038087,-0.000000
4.000000,2.654099,-0.719425,-1.398348,0.774856,-0.026354,0.095097,-0.806615,-0.431448,-0.079712,-0.457565,2.332539,-0.711557,-1.503550,-3.013083,4.953843,-0.043454,0.081381,0.000000,0.237896,0.040094,0.000000
4.010000,2.661807,-0.719710,-1.397401,0.766767,-0.030552,0.094265,-0.811266,-0.408273,-0.086580,-0.471209,2.300961,-0.663134,-1.227696,-3.290812,4.736348,-0.041093,0.081791,0.000000,0.234223,0.041804,0.000000
4.020000,2.669434,-0.720036,-1.396463,0.758631,-0.034520,0.093366,-0.816039,-0.385428,-0.092975,-0.482119,2.266723,-0.616830,-0.959942,-3.541173,4.537272,-0.038770,0.082218,0.000000,0.230328,0.043225,-0.000000
4.030000,2.676980,-0.720400,-1.395534,0.750446,-0.038261,0.092405,-0.820908,-0.362939,-0.098917,-0.490407,2.230138,-0.572388,-0.699865,-3.767610,4.353566,-0.036486,0.082657,0.000000,0.226237,0.044372,0.000000
4.040000,2.684443,-0.720801,-1.394615,0.742213,-0.041779,0.091388,-0.825847,-0.340826,-0.104423,-0.496117,2.191371,-0.529759,-0.440812,-3.985430,4.162901,-0.034245,0.083106,0.000000,0.221965,0.045248,0.000000
4.050000,2.691824,-0.721236,-1.393706,0.733930,-0.045077,0.090317,-0.830831,-0.319111,-0.109512,-0.499224,2.150429,-0.489130,-0.182584,-4.198670,3.958988,-0.032047,0.083562,0.000000,0.217512,0.045852,0.000000
4.060000,2.699122,-0.721703,-1.392809,0.725596,-0.048161,0.089197,-0.835832,-0.297817,-0.114205,-0.499768,2.107397,-0.450579,0.069784,-4.396824,3.758372,-0.029894,0.084023,0.000000,0.212884,0.046186,-0.000000
4.070000,2.706336,-0.722199,-1.391922,0.717213,-0.051034,0.088033,-0.840826,-0.276963,-0.118523,-0.497828,2.062493,-0.413963,0.315487,-4.569815,3.578818,-0.027789,0.084486,0.000000,0.208100,0.046260,0.000000
4.080000,2.713466,-0.722723,-1.391048,0.708780,-0.053700,0.086827,-0.845789,-0.256567,-0.122484,-0.493459,2.016001,-0.379003,0.555737,-4.720702,3.416526,-0.025732,0.084949,0.000000,0.203187,0.046082,0.000000
4.090000,2.720512,-0.723273,-1.390186,0.700297,-0.056165,0.085583,-0.850695,-0.236643,-0.126103,-0.486713,1.968079,-0.345632,0.790500,-4.862693,3.249612,-0.023725,0.085408,0.000000,0.198158,0.045658,-0.000000
4.100000,2.727472,-0.723846,-1.389336,0.691766,-0.058433,0.084305,-0.855523,-0.217206,-0.129397,-0.477649,1.918747,-0.314011,1.019838,-4.999043,3.072670,-0.021769,0.085862,0.000000,0.193014,0.044993,-0.000000
4.110000,2.734347,-0.724442,-1.388500,0.683187,-0.060509,0.082995,-0.860248,-0.198268,-0.132384,-0.466316,1.868098,-0.284179,1.243247,-5.120976,2.901363,-0.019865,0.086308,0.000000,0.187763,0.044090,0.000000
4.120000,2.741136,-0.725057,-1.387676,0.674561,-0.062398,0.081657,-0.864849,-0.179844,-0.135081,-0.452784,1.816328,-0.255983,1.458709,-5.221105,2.750076,-0.018014,0.086744,0.000000,0.182421,0.042958,0.000000
4.130000,2.747838,-0.725690,-1.386866,0.665890,-0.064106,0.080294,-0.869304,-0.161942,-0.137503,-0.437142,1.763676,-0.229177,1.665705,-5.302289,2.614697,-0.016216,0.087168,0.000000,0.177011,0.041608,0.000000
4.140000,2.754454,-0.726339,-1.386070,0.657175,-0.065637,0.078907,-0.873592,-0.144570,-0.139664,-0.419470,1.710282,-0.203690,1.866370,-5.374512,2.477391,-0.014473,0.087577,0.000000,0.171546,0.040049,0.000000
4.150000,2.760982,-0.727002,-1.385288,0.648418,-0.066997,0.077500,-0.877693,-0.127736,-0.141577,-0.399815,1.656185,-0.179630,2.062128,-5.440168,2.333963,-0.012785,0.087969,0.000000,0.166028,0.038283,-0.000000
4.160000,2.767422,-0.727679,-1.384520,0.639621,-0.068192,0.076076,-0.881588,-0.111447,-0.143257,-0.378227,1.601479,-0.157010,2.250895,-5.492925,2.196848,-0.011153,0.088342,0.000000,0.160464,0.036316,-0.000000
4.170000,2.773774,-0.728366,-1.383767,0.630786,-0.069226,0.074635,-0.885258,-0.095707,-0.144717,-0.354797,1.546327,-0.135693,2.428028,-5.527934,2.076984,-0.009576,0.088695,0.000000,0.154871,0.034157,-0.000000
4.180000,2.780038,-0.729063,-1.383028,0.621916,-0.070106,0.073181,-0.888684,-0.080520,-0.145971,-0.329666,1.490920,-0.115471,2.593537,-5.547543,1.970823,-0.008055,0.089025,0.000000,0.149265,0.031823,0.000000
4.190000,2.786212,-0.729768,-1.382303,0.613012,-0.070837,0.071716,-0.891851,-0.065888,-0.147027,-0.302926,1.435376,-0.096276,2.753074,-5.558654,1.864491,-0.006591,0.089332,0.000000,0.143657,0.029321,-0.000000
4.200000,2.792298,-0.730480,-1.381593,0.604079,-0.071424,0.070241,-0.894743,-0.051812,-0.147896,-0.274605,1.379747,-0.078181,2.908423,-5.562862,1.755133,-0.005182,0.089612,0.000000,0.138051,0.026656,0.000000
4.210000,2.798294,-0.731197,-1.380898,0.595118,-0.071873,0.068758,-0.897343,-0.038293,-0.148590,-0.244758,1.324119,-0.061174,3.055258,-5.556134,1.652148,-0.003830,0.089865,0.000000,0.132456,0.023830,-0.000000
4.220000,2.804200,-0.731917,-1.380218,0.586132,-0.072190,0.067269,-0.899638,-0.025330,-0.149120,-0.213500,1.268624,-0.045138,3.188586,-5.535843,1.562329,-0.002533,0.090089,0.000000,0.126882,0.020858,0.000000
4.230000,2.810017,-0.732641,-1.379553,0.577125,-0.072379,0.065775,-0.901613,-0.012921,-0.149493,-0.180986,1.213402,-0.029927,3.309270,-5.503793,1.482685,-0.001292,0.090282,0.000000,0.121343,0.017755,0.000000
4.240000,2.815743,-0.733365,-1.378903,0.568100,-0.072448,0.064279,-0.903258,-0.001062,-0.149718,-0.147314,1.158548,-0.015484,3.423409,-5.464189,1.404465,-0.000106,0.090444,0.000000,0.115848,0.014531,-0.000000
4.250000,2.821379,-0.734090,-1.378267,0.559060,-0.072401,0.062781,-0.904560,0.010250,-0.149803,-0.112518,1.104118,-0.001838,3.532850,-5.417849,1.326067,0.001025,0.090573,0.000000,0.110402,0.011188,-0.000000
4.260000,2.826924,-0.734813,-1.377647,0.550008,-0.072243,0.061283,-0.905508,0.021020,-0.149755,-0.076657,1.050191,0.011037,3.633128,-5.362676,1.253147,0.002102,0.090667,0.000000,0.105011,0.007734,0.000000
4.270000,2.832379,-0.735534,-1.377042,0.540949,-0.071980,0.059786,-0.906093,0.031254,-0.149582,-0.039855,0.996865,0.023225,3.719101,-5.298247,1.189198,0.003125,0.090727,0.000000,0.099684,0.004179,0.000000
4.280000,2.837743,-0.736253,-1.376451,0.531887,-0.071618,0.058291,-0.906305,0.040958,-0.149290,-0.002275,0.944226,0.034821,3.791752,-5.225920,1.132180,0.004096,0.090751,0.000000,0.094431,0.000542,0.000000
4.290000,2.843017,-0.736967,-1.375876,0.522823,-0.071161,0.056800,-0.906138,0.050138,-0.148886,0.035980,0.892346,0.045869,3.857577,-5.147091,1.077358,0.005014,0.090738,0.000000,0.089257,-0.003167,-0.000000
4.300000,2.848199,-0.737676,-1.375315,0.513764,-0.070615,0.055314,-0.905585,0.058805,-0.148373,0.074876,0.841284,0.056368,3.918523,-5.061803,1.024099,0.005881,0.090688,0.000000,0.084167,-0.006947,0.000000
4.310000,2.853292,-0.738379,-1.374770,0.504712,-0.069985,0.053833,-0.904641,0.066964,-0.147758,0.114350,0.791110,0.066351,3.969969,-4.969930,0.975207,0.006697,0.090599,0.000000,0.079168,-0.010789,0.000000
4.320000,2.858294,-0.739076,-1.374239,0.495671,-0.069276,0.052358,-0.903298,0.074627,-0.147046,0.154276,0.741886,0.075872,4.006900,-4.872977,0.931470,0.007464,0.090472,0.000000,0.074267,-0.014682,0.000000
4.330000,2.863205,-0.739765,-1.373723,0.486646,-0.068493,0.050892,-0.901555,0.081802,-0.146241,0.194488,0.693651,0.084980,4.030525,-4.771763,0.891590,0.008182,0.090305,0.000000,0.069465,-0.018608,-0.000000
4.340000,2.868027,-0.740445,-1.373221,0.477640,-0.067640,0.049434,-0.899409,0.088500,-0.145346,0.234886,0.646451,0.093704,4.047286,-4.665198,0.854225,0.008853,0.090100,0.000000,0.064768,-0.022559,0.000000
4.350000,2.872758,-0.741117,-1.372734,0.468658,-0.066723,0.047985,-0.896857,0.094731,-0.144367,0.275434,0.600347,0.102065,4.059046,-4.552678,0.819516,0.009478,0.089854,0.000000,0.060181,-0.026529,-0.000000
4.360000,2.877400,-0.741780,-1.372261,0.459703,-0.065745,0.046546,-0.893900,0.100507,-0.143305,0.316067,0.555397,0.110095,4.061414,-4.435776,0.787909,0.010057,0.089569,0.000000,0.055710,-0.030514,-0.000000
4.370000,2.881952,-0.742432,-1.371803,0.450780,-0.064712,0.045119,-0.890536,0.105839,-0.142165,0.356662,0.511631,0.117823,4.049739,-4.317516,0.758235,0.010592,0.089244,0.000000,0.051357,-0.034500,-0.000000
4.380000,2.886415,-0.743074,-1.371359,0.441892,-0.063628,0.043703,-0.886767,0.110739,-0.140949,0.397062,0.469047,0.125259,4.025245,-4.198178,0.729892,0.011084,0.088879,0.000000,0.047122,-0.038472,-0.000000
4.390000,2.890790,-0.743705,-1.370929,0.433044,-0.062498,0.042300,-0.882595,0.115220,-0.139660,0.437167,0.427668,0.132421,3.994123,-4.074679,0.704009,0.011534,0.088474,0.000000,0.043006,-0.042421,0.000000
4.400000,2.895076,-0.744324,-1.370513,0.424240,-0.061324,0.040910,-0.878023,0.119293,-0.138300,0.476944,0.387553,0.139339,3.958005,-3.945952,0.681206,0.011944,0.088031,0.000000,0.039016,-0.046342,-0.000000
4.410000,2.899275,-0.744931,-1.370111,0.415484,-0.060112,0.039534,-0.873056,0.122971,-0.136873,0.516327,0.348749,0.146045,3.912770,-3.814847,0.660266,0.012315,0.087548,0.000000,0.035157,-0.050229,-0.000000
4.420000,2.903386,-0.745526,-1.369722,0.406779,-0.058865,0.038172,-0.867697,0.126268,-0.135379,0.555200,0.311256,0.152545,3.854850,-3.685452,0.638895,0.012647,0.087026,0.000000,0.031427,-0.054071,0.000000
4.430000,2.907410,-0.746109,-1.369347,0.398130,-0.057586,0.036826,-0.861952,0.129196,-0.133822,0.593424,0.275040,0.158823,3.785635,-3.557616,0.617030,0.012943,0.086466,0.000000,0.027823,-0.057854,-0.000000
4.440000,2.911349,-0.746678,-1.368986,0.389540,-0.056281,0.035496,-0.855828,0.131768,-0.132203,0.630912,0.240104,0.164885,3.709934,-3.426784,0.597252,0.013204,0.085869,0.000000,0.024346,-0.061569,0.000000
4.450000,2.915201,-0.747234,-1.368637,0.381013,-0.054951,0.034182,-0.849334,0.133998,-0.130524,0.667623,0.206504,0.170768,3.628751,-3.291554,0.580434,0.013430,0.085235,0.000000,0.021000,-0.065212,0.000000
4.460000,2.918969,-0.747777,-1.368302,0.372553,-0.053601,0.032885,-0.842476,0.135898,-0.128788,0.703487,0.174273,0.176494,3.539071,-3.155684,0.564424,0.013624,0.084564,0.000000,0.017790,-0.068776,-0.000000
4.470000,2.922652,-0.748306,-1.367980,0.364164,-0.052233,0.031606,-0.835264,0.137484,-0.126994,0.738404,0.143390,0.182056,3.438967,-3.023861,0.546412,0.013786,0.083859,0.000000,0.014713,-0.072251,-0.000000
4.480000,2.926252,-0.748822,-1.367670,0.355848,-0.050851,0.030345,-0.827708,0.138766,-0.125146,0.772267,0.113796,0.187422,3.329501,-2.895561,0.526670,0.013918,0.083119,0.000000,0.011762,-0.075627,0.000000
4.490000,2.929769,-0.749323,-1.367373,0.347610,-0.049458,0.029103,-0.819819,0.139759,-0.123246,0.804994,0.085479,0.192590,3.213469,-2.765343,0.508497,0.014021,0.082346,0.000000,0.008938,-0.078895,0.000000
4.500000,2.933204,-0.749811,-1.367088,0.339452,-0.048056,0.027881,-0.811608,0.140476,-0.121295,0.836536,0.058489,0.197592,3.092206,-2.631695,0.492931,0.014097,0.081541,0.000000,0.006244,-0.082050,0.000000
4.510000,2.936558,-0.750284,-1.366815,0.331377,-0.046648,0.026677,-0.803088,0.140929,-0.119294,0.866838,0.032845,0.202448,2.964090,-2.498860,0.477406,0.014146,0.080705,0.000000,0.003682,-0.085087,0.000000
4.520000,2.939832,-0.750744,-1.366554,0.323390,-0.045237,0.025495,-0.794271,0.141133,-0.117246,0.895818,0.008512,0.207140,2.826094,-2.371504,0.458806,0.014170,0.079839,0.000000,0.001250,-0.087997,0.000000
4.530000,2.943026,-0.751189,-1.366305,0.315492,-0.043826,0.024333,-0.785172,0.141099,-0.115151,0.923360,-0.014585,0.211624,2.678854,-2.248833,0.437611,0.014171,0.078945,0.000000,-0.001061,-0.090768,0.000000
4.540000,2.946142,-0.751620,-1.366068,0.307686,-0.042415,0.023192,-0.775804,0.140841,-0.113013,0.949395,-0.036465,0.215893,2.526894,-2.125318,0.417596,0.014149,0.078024,0.000000,-0.003252,-0.093395,-0.000000
4.550000,2.949180,-0.752037,-1.365841,0.299976,-0.041009,0.022072,-0.766184,0.140370,-0.110833,0.973898,-0.057091,0.219976,2.371419,-1.999474,0.399750,0.014106,0.077077,0.000000,-0.005319,-0.095873,-0.000000
4.560000,2.952141,-0.752441,-1.365626,0.292363,-0.039608,0.020975,-0.756326,0.139699,-0.108614,0.996823,-0.076455,0.223888,2.209737,-1.875470,0.381277,0.014043,0.076106,0.000000,-0.007262,-0.098198,0.000000
4.570000,2.955027,-0.752830,-1.365422,0.284849,-0.038215,0.019900,-0.746247,0.138841,-0.106356,1.018093,-0.094601,0.227602,2.039942,-1.757703,0.359415,0.013961,0.075113,0.000000,-0.009085,-0.100363,-0.000000
4.580000,2.957838,-0.753205,-1.365228,0.277438,-0.036831,0.018848,-0.735964,0.137807,-0.104062,1.037622,-0.111609,0.231076,1.863186,-1.645274,0.334820,0.013861,0.074098,0.000000,-0.010796,-0.102357,0.000000
4.590000,2.960576,-0.753566,-1.365045,0.270130,-0.035459,0.017819,-0.725495,0.136609,-0.101734,1.055357,-0.127506,0.234298,1.682458,-1.532874,0.310858,0.013745,0.073065,0.000000,-0.012398,-0.104177,0.000000
4.600000,2.963241,-0.753914,-1.364872,0.262928,-0.034099,0.016813,-0.714857,0.135257,-0.099376,1.071271,-0.142266,0.237293,1.498339,-1.419132,0.288330,0.013613,0.072015,0.000000,-0.013887,-0.105819,-0.000000
4.610000,2.965834,-0.754248,-1.364709,0.255833,-0.032753,0.015831,-0.704069,0.133764,-0.096988,1.085323,-0.155889,0.240065,1.309249,-1.307938,0.264802,0.013467,0.070949,0.000000,-0.015264,-0.107278,-0.000000
4.620000,2.968357,-0.754569,-1.364555,0.248847,-0.031424,0.014873,-0.693151,0.132139,-0.094574,1.097456,-0.168425,0.242589,1.114830,-1.203167,0.238097,0.013308,0.069869,0.000000,-0.016533,-0.108548,0.000000
4.630000,2.970811,-0.754877,-1.364411,0.241970,-0.030111,0.013940,-0.682120,0.130395,-0.092137,1.107620,-0.179952,0.244827,0.915919,-1.103880,0.208844,0.013136,0.068778,0.000000,-0.017703,-0.109624,-0.000000
4.640000,2.973197,-0.755171,-1.364276,0.235204,-0.028816,0.013031,-0.670998,0.128540,-0.089678,1.115775,-0.190502,0.246766,0.713505,-1.005317,0.179716,0.012954,0.067676,0.000000,-0.018776,-0.110502,0.000000
4.650000,2.975515,-0.755453,-1.364151,0.228550,-0.027540,0.012146,-0.659805,0.126585,-0.087201,1.121890,-0.200059,0.248421,0.508563,-0.906361,0.151379,0.012761,0.066567,0.000000,-0.019751,-0.111178,-0.000000
4.660000,2.977768,-0.755722,-1.364033,0.222008,-0.026284,0.011287,-0.648560,0.124539,-0.084709,1.125946,-0.208630,0.249794,0.300900,-0.810408,0.121952,0.012559,0.065453,0.000000,-0.020628,-0.111649,-0.000000
4.670000,2.979955,-0.755979,-1.363925,0.215579,-0.025049,0.010452,-0.637286,0.122412,-0.082205,1.127908,-0.216267,0.250860,0.088617,-0.720458,0.089623,0.012348,0.064334,0.000000,-0.021412,-0.111913,0.000000
4.680000,2.982079,-0.756223,-1.363824,0.209262,-0.023836,0.009643,-0.626002,0.120214,-0.079692,1.127718,-0.223039,0.251586,-0.128065,-0.635604,0.054894,0.012131,0.063214,0.000000,-0.022110,-0.111963,0.000000
4.690000,2.984141,-0.756455,-1.363732,0.203059,-0.022645,0.008858,-0.614731,0.117952,-0.077174,1.125347,-0.228979,0.251958,-0.345792,-0.552126,0.020064,0.011906,0.062095,0.000000,-0.022725,-0.111794,0.000000
4.700000,2.986141,-0.756676,-1.363647,0.196968,-0.021477,0.008099,-0.603495,0.115634,-0.074653,1.120802,-0.234081,0.251987,-0.562968,-0.469201,-0.014341,0.011676,0.060978,0.000000,-0.023257,-0.111409,0.000000
4.710000,2.988080,-0.756885,-1.363570,0.190989,-0.020332,0.007365,-0.592315,0.113270,-0.072134,1.114087,-0.238363,0.251671,-0.781446,-0.389420,-0.049905,0.011441,0.059866,0.000000,-0.023707,-0.110806,-0.000000
4.720000,2.989960,-0.757083,-1.363500,0.185121,-0.019211,0.006656,-0.581214,0.110867,-0.069620,1.105174,-0.241870,0.250989,-1.003905,-0.314914,-0.087893,0.011202,0.058762,0.000000,-0.024079,-0.109982,0.000000
4.730000,2.991782,-0.757269,-1.363437,0.179365,-0.018115,0.005973,-0.570212,0.108433,-0.067114,1.094009,-0.244661,0.249913,-1.229492,-0.244947,-0.127806,0.010959,0.057667,0.000000,-0.024380,-0.108932,0.000000
4.740000,2.993548,-0.757445,-1.363381,0.173717,-0.017043,0.005314,-0.559333,0.105974,-0.064621,1.080584,-0.246769,0.248433,-1.453905,-0.176824,-0.168032,0.010714,0.056583,0.000000,-0.024612,-0.107654,-0.000000
4.750000,2.995257,-0.757610,-1.363331,0.168178,-0.015995,0.004680,-0.548600,0.103497,-0.062145,1.064931,-0.248198,0.246553,-1.675119,-0.109957,-0.208340,0.010467,0.055513,0.000000,-0.024777,-0.106151,0.000000
4.760000,2.996911,-0.757765,-1.363287,0.162745,-0.014973,0.004071,-0.538035,0.101010,-0.059690,1.047081,-0.248968,0.244266,-1.895479,-0.046178,-0.249794,0.010219,0.054460,0.000000,-0.024874,-0.104426,-0.000000
4.770000,2.998512,-0.757909,-1.363249,0.157417,-0.013975,0.003487,-0.527659,0.098518,-0.057260,1.027022,-0.249121,0.241557,-2.119029,0.013090,-0.292833,0.009970,0.053425,0.000000,-0.024910,-0.102477,0.000000
4.780000,3.000060,-0.758044,-1.363217,0.152192,-0.013002,0.002926,-0.517494,0.096027,-0.054859,1.004701,-0.248706,0.238410,-2.344876,0.068381,-0.336940,0.009721,0.052410,0.000000,-0.024888,-0.100298,-0.000000
4.790000,3.001556,-0.758170,-1.363191,0.147067,-0.012055,0.002389,-0.507565,0.093544,-0.052492,0.980124,-0.247754,0.234818,-2.566650,0.121534,-0.381634,0.009472,0.051419,0.000000,-0.024812,-0.097890,-0.000000
4.800000,3.003001,-0.758285,-1.363169,0.142041,-0.011132,0.001876,-0.497892,0.091072,-0.050163,0.953368,-0.246275,0.230777,-2.781550,0.173223,-0.427855,0.009224,0.050452,0.000000,-0.024683,-0.095260,-0.000000
4.810000,3.004396,-0.758392,-1.363153,0.137109,-0.010233,0.001386,-0.488497,0.088618,-0.047876,0.924493,-0.244289,0.226261,-2.993297,0.222243,-0.475754,0.008978,0.049514,0.000000,-0.024502,-0.092414,0.000000
4.820000,3.005743,-0.758490,-1.363142,0.132271,-0.009359,0.000919,-0.479402,0.086187,-0.045638,0.893502,-0.241831,0.221262,-3.207334,0.266926,-0.522503,0.008734,0.048604,0.000000,-0.024272,-0.089352,0.000000
4.830000,3.007042,-0.758579,-1.363135,0.127521,-0.008509,0.000473,-0.470627,0.083782,-0.043451,0.860346,-0.238951,0.215811,-3.421958,0.307681,-0.567922,0.008493,0.047726,0.000000,-0.024000,-0.086069,-0.000000
4.840000,3.008293,-0.758660,-1.363132,0.122858,-0.007684,0.000050,-0.462195,0.081407,-0.041321,0.825063,-0.235677,0.209903,-3.628906,0.346776,-0.615976,0.008254,0.046883,0.000000,-0.023688,-0.082567,-0.000000
4.850000,3.009499,-0.758733,-1.363134,0.118277,-0.006881,-0.000353,-0.454126,0.079068,-0.039253,0.787768,-0.232015,0.203491,-3.827098,0.384411,-0.667085,0.008019,0.046075,0.000000,-0.023335,-0.078860,0.000000
4.860000,3.010659,-0.758798,-1.363139,0.113776,-0.006102,-0.000735,-0.446440,0.076767,-0.037252,0.748521,-0.227989,0.196562,-4.021254,0.419164,-0.718532,0.007788,0.045305,0.000000,-0.022945,-0.074952,-0.000000
4.870000,3.011774,-0.758855,-1.363148,0.109349,-0.005346,-0.001098,-0.439156,0.074508,-0.035322,0.707343,-0.223632,0.189121,-4.211280,0.450971,-0.770094,0.007560,0.044576,0.000000,-0.022522,-0.070846,-0.000000
4.880000,3.012846,-0.758905,-1.363161,0.104993,-0.004612,-0.001442,-0.432293,0.072295,-0.033469,0.664295,-0.218969,0.181160,-4.394779,0.480413,-0.822747,0.007337,0.043889,0.000000,-0.022066,-0.066547,0.000000
4.890000,3.013874,-0.758947,-1.363177,0.100703,-0.003900,-0.001768,-0.425870,0.070129,-0.031699,0.619448,-0.214023,0.172666,-4.571113,0.507579,-0.876575,0.007119,0.043245,0.000000,-0.021581,-0.062064,0.000000
4.900000,3.014860,-0.758983,-1.363197,0.096475,-0.003209,-0.002076,-0.419904,0.068014,-0.030016,0.572873,-0.208818,0.163628,-4.740027,0.532457,-0.931470,0.006906,0.042647,0.000000,-0.021069,-0.057403,0.000000
4.910000,3.015804,-0.759011,-1.363219,0.092305,-0.002540,-0.002368,-0.414412,0.065953,-0.028426,0.524647,-0.203374,0.154036,-4.900944,0.555113,-0.987445,0.006698,0.042097,0.000000,-0.020533,-0.052572,0.000000
4.920000,3.016706,-0.759034,-1.363244,0.088187,-0.001890,-0.002644,-0.409411,0.063947,-0.026935,0.474854,-0.197715,0.143879,-5.053301,0.575612,-1.044522,0.006495,0.041596,0.000000,-0.019973,-0.047580,-0.000000
4.930000,3.017568,-0.759049,-1.363272,0.084117,-0.001261,-0.002907,-0.404915,0.061998,-0.025548,0.423581,-0.191862,0.133146,-5.196579,0.594012,-1.102726,0.006298,0.041145,0.000000,-0.019393,-0.042436,-0.000000
4.940000,3.018388,-0.759059,-1.363302,0.080089,-0.000650,-0.003155,-0.400939,0.060109,-0.024272,0.370922,-0.185835,0.121825,-5.330231,0.610376,-1.162077,0.006107,0.040747,0.000000,-0.018795,-0.037150,-0.000000
4.950000,3.019169,-0.759062,-1.363335,0.076098,-0.000059,-0.003392,-0.397497,0.058282,-0.023112,0.316977,-0.179655,0.109904,-5.453717,0.624767,-1.222595,0.005922,0.040402,0.000000,-0.018181,-0.031731,-0.000000
4.960000,3.019910,-0.759060,-1.363370,0.072139,0.000515,-0.003618,-0.394600,0.056516,-0.022074,0.261848,-0.173340,0.097373,-5.566489,0.637248,-1.284299,0.005743,0.040112,0.000000,-0.017552,-0.026192,0.000000
4.970000,3.020612,-0.759052,-1.363407,0.068206,0.001072,-0.003833,-0.392260,0.054815,-0.021165,0.205647,-0.166910,0.084218,237.162791,-30.655762,10.672348,0.005571,0.039878,0.000000,-0.016911,-0.020543,0.000000
4.980000,3.021275,-0.759039,-1.363447,0.064293,0.001612,-0.004041,-0.390487,0.053178,-0.020390,5.005104,-0.786455,0.310820,479.504730,-60.111596,22.114487,0.005405,0.039702,0.000000,-0.079657,-0.507083,-0.000000
4.990000,3.021898,-0.759020,-1.363488,0.060396,0.002135,-0.004241,-0.292158,0.039086,-0.014948,9.795741,-1.369142,0.526508,237.673158,-27.129298,9.902030,0.003976,0.029728,0.000000,-0.138959,-0.994546,-0.000000
5.000000,3.022482,-0.758996,-1.363531,0.058450,0.002393,-0.004340,-0.194572,0.025795,-0.009860,9.758567,-1.329041,0.508861,-3.717435,4.010053,-1.764768,0.002626,0.019812,0.000000,-0.135127,-0.992339,0.000000
