time,x,y,z,vx,vy,vz,ax,ay,az,jx,jy,jz,sx,sy,sz,roll,pitch,yaw,p,q,r
0.000000,-3.023921,-0.726484,-1.378315,-0.019701,-0.005728,0.012130,0.669933,-0.173699,-0.230595,-6.954397,2.071979,6.587684,133.331599,-32.696350,-140.945043,-0.017260,-0.066624,0.000000,0.193775,0.645879,0.000000
0.010000,-3.024085,-0.726550,-1.378204,-0.013328,-0.007367,0.010131,0.606834,-0.154558,-0.171405,-5.687245,1.761970,5.285605,120.248036,-29.345009,-119.839049,-0.015455,-0.060722,0.000000,0.167472,0.535546,-0.000000
0.020000,-3.024189,-0.726631,-1.378111,-0.007524,-0.008829,0.008662,0.555766,-0.138352,-0.124216,-4.546507,1.484303,4.183721,108.043348,-26.226613,-100.887699,-0.013904,-0.055886,0.000000,0.142960,0.432704,-0.000000
0.030000,-3.024237,-0.726726,-1.378029,-0.002176,-0.010143,0.007613,0.515511,-0.124771,-0.087133,-3.523558,1.236691,3.261041,96.684650,-23.332230,-83.979326,-0.012589,-0.052040,0.000000,0.120396,0.337912,-0.000000
0.040000,-3.024234,-0.726834,-1.377957,0.002818,-0.011332,0.006891,0.484930,-0.113526,-0.058464,-2.610104,1.016941,2.497696,86.139100,-20.652921,-69.002306,-0.011490,-0.049100,0.000000,0.099862,0.251428,0.000000
0.050000,-3.024182,-0.726952,-1.377891,0.007551,-0.012420,0.006420,0.462970,-0.104347,-0.036711,-1.798178,0.822945,1.874934,76.373484,-18.179894,-55.844469,-0.010585,-0.046983,0.000000,0.081372,0.173272,0.000000
0.060000,-3.024083,-0.727082,-1.377828,0.012103,-0.013425,0.006138,0.448654,-0.096988,-0.020556,-1.080144,0.652685,1.375115,67.355257,-15.904070,-44.394686,-0.009855,-0.045607,0.000000,0.064893,0.103272,0.000000
0.070000,-3.023940,-0.727221,-1.377768,0.016547,-0.014365,0.005994,0.441079,-0.091220,-0.008854,-0.448692,0.504235,0.981720,59.051374,-13.816586,-34.541054,-0.009281,-0.044891,0.000000,0.050353,0.041121,0.000000
0.080000,-3.023753,-0.727369,-1.377708,0.020944,-0.015254,0.005950,0.439415,-0.086836,-0.000618,0.103155,0.375756,0.679346,51.428857,-11.908529,-26.171875,-0.008842,-0.044760,0.000000,0.037653,-0.013588,0.000000
0.090000,-3.023521,-0.727526,-1.377648,0.025352,-0.016106,0.005973,0.442899,-0.083645,0.004989,0.582046,0.265496,0.453707,44.454565,-10.171006,-19.175432,-0.008522,-0.045140,0.000000,0.026677,-0.061325,-0.000000
0.100000,-3.023245,-0.727691,-1.377588,0.029817,-0.016930,0.006043,0.450834,-0.081471,0.008668,0.994310,0.171798,0.291634,38.096908,-8.594948,-13.440082,-0.008303,-0.045965,0.000000,0.017300,-0.102594,-0.000000
0.110000,-3.022924,-0.727864,-1.377527,0.034381,-0.017738,0.006142,0.462583,-0.080159,0.010993,1.345930,0.093089,0.181074,32.321446,-7.171604,-8.854076,-0.008171,-0.047172,0.000000,0.009391,-0.137914,-0.000000
0.120000,-3.022557,-0.728046,-1.377465,0.039080,-0.018536,0.006260,0.477569,-0.079564,0.012424,1.642572,0.027887,0.111093,27.095829,-5.891992,-5.305730,-0.008111,-0.048705,0.000000,0.002817,-0.167799,0.000000
0.130000,-3.022142,-0.728235,-1.377402,0.043942,-0.019331,0.006389,0.495269,-0.079561,0.013317,1.889570,-0.025200,0.071873,22.387201,-4.747191,-2.683351,-0.008111,-0.050512,0.000000,-0.002549,-0.192750,-0.000000
0.140000,-3.021678,-0.728432,-1.377338,0.048993,-0.020129,0.006525,0.515212,-0.080032,0.013935,2.091930,-0.067477,0.054712,18.162814,-3.728292,-0.875261,-0.008158,-0.052545,0.000000,-0.006832,-0.213245,0.000000
0.150000,-3.021162,-0.728637,-1.377272,0.054252,-0.020933,0.006667,0.536974,-0.080878,0.014460,2.254332,-0.100156,0.052026,14.390144,-2.826395,0.230197,-0.008244,-0.054763,0.000000,-0.010149,-0.229732,-0.000000
0.160000,-3.020592,-0.728851,-1.377204,0.059737,-0.021747,0.006815,0.560179,-0.082007,0.015002,2.381103,-0.124363,0.057348,11.033740,-2.032432,0.744946,-0.008359,-0.057128,0.000000,-0.012608,-0.242627,0.000000
0.170000,-3.019966,-0.729072,-1.377135,0.065459,-0.022574,0.006968,0.584491,-0.083341,0.015615,2.476283,-0.141135,0.065328,8.063809,-1.337658,0.780440,-0.008494,-0.059605,0.000000,-0.014312,-0.252317,0.000000
0.180000,-3.019282,-0.729302,-1.377065,0.071429,-0.023415,0.007127,0.609612,-0.084808,0.016303,2.543554,-0.151417,0.071732,5.446338,-0.733100,0.448496,-0.008643,-0.062165,0.000000,-0.015354,-0.259155,0.000000
0.190000,-3.018537,-0.729541,-1.376993,0.077653,-0.024270,0.007294,0.635280,-0.086350,0.017034,2.586275,-0.156068,0.073445,3.148462,-0.209863,-0.139109,-0.008799,-0.064780,0.000000,-0.015818,-0.263463,-0.000000
0.200000,-3.017728,-0.729788,-1.376919,0.084136,-0.025142,0.007468,0.661266,-0.087913,0.017750,2.607475,-0.155854,0.068465,1.136928,0.241135,-0.871201,-0.008957,-0.067427,0.000000,-0.015781,-0.265530,-0.000000
0.210000,-3.016853,-0.730044,-1.376843,0.090879,-0.026028,0.007650,0.687307,-0.089433,0.018866,2.596016,-0.146766,0.167364,-0.894339,0.721339,0.567690,-0.009111,-0.070082,0.000000,-0.014938,-0.265022,-0.000000
0.220000,-3.015910,-0.730308,-1.376766,0.097882,-0.026930,0.007844,0.713325,-0.090902,0.019513,2.613304,-0.149396,-0.104951,1.969232,-0.436720,-35.549198,-0.009260,-0.072730,0.000000,-0.014940,-0.264725,-0.000000
0.230000,-3.014895,-0.730582,-1.376687,0.105146,-0.027847,0.008031,0.739404,-0.092369,0.017719,2.585301,-0.138465,-0.134542,-7.611991,2.640068,30.242006,-0.009406,-0.075366,0.000000,-0.013784,-0.261474,0.000000
0.240000,-3.013806,-0.730865,-1.376605,0.112668,-0.028777,0.008206,0.764857,-0.093618,0.017876,2.510649,-0.113343,0.105799,-4.845682,1.548805,-1.840302,-0.009531,-0.077951,0.000000,-0.011451,-0.255667,-0.000000
0.250000,-3.012641,-0.731158,-1.376522,0.120441,-0.029718,0.008388,0.789767,-0.094692,0.018324,2.468230,-0.100611,-0.004283,-6.047322,1.815855,-0.567096,-0.009639,-0.080483,0.000000,-0.010042,-0.250398,0.000000
0.260000,-3.011396,-0.731460,-1.376438,0.128461,-0.030670,0.008571,0.814097,-0.095596,0.018280,2.395293,-0.079679,-0.003680,-7.095471,2.026415,-0.422686,-0.009729,-0.082951,0.000000,-0.007909,-0.242902,0.000000
0.270000,-3.010071,-0.731771,-1.376351,0.136721,-0.031630,0.008754,0.837756,-0.096307,0.018165,2.339856,-0.063314,-0.022963,-5.346837,1.567873,-2.358226,-0.009799,-0.085349,0.000000,-0.006220,-0.237013,0.000000
0.280000,-3.008661,-0.732092,-1.376263,0.145214,-0.032596,0.008934,0.860802,-0.096842,0.017876,2.259861,-0.041567,-0.028256,-10.674911,2.786079,1.332344,-0.009851,-0.087682,0.000000,-0.004002,-0.228751,-0.000000
0.290000,-3.007165,-0.732423,-1.376172,0.153934,-0.033566,0.009112,0.882858,-0.097117,0.017660,2.154617,-0.014323,-0.018115,-8.964577,2.326889,-0.391870,-0.009877,-0.089915,0.000000,-0.001244,-0.218081,0.000000
0.300000,-3.005582,-0.732764,-1.376080,0.162868,-0.034537,0.009287,0.903984,-0.097152,0.017431,2.069108,0.007677,-0.026885,-9.507011,2.397818,-0.279848,-0.009879,-0.092052,0.000000,0.000998,-0.209247,0.000000
0.310000,-3.003907,-0.733114,-1.375987,0.172010,-0.035508,0.009460,0.924173,-0.096951,0.017147,1.967432,0.032666,-0.029967,-9.961038,2.437101,-0.253873,-0.009856,-0.094094,0.000000,0.003536,-0.198836,-0.000000
0.320000,-3.002141,-0.733474,-1.375891,0.181349,-0.036475,0.009630,0.943389,-0.096510,0.016840,1.878001,0.054870,-0.031211,-8.737334,2.153708,-0.078302,-0.009809,-0.096035,0.000000,0.005787,-0.189690,-0.000000
0.330000,-3.000280,-0.733844,-1.375794,0.190875,-0.037437,0.009797,0.961684,-0.095846,0.016520,1.775607,0.078894,-0.033282,-11.755005,2.651975,-0.339821,-0.009740,-0.097883,0.000000,0.008221,-0.179234,-0.000000
0.340000,-2.998323,-0.734223,-1.375695,0.200578,-0.038391,0.009960,0.978850,-0.094925,0.016170,1.659840,0.104719,-0.036378,-10.553689,2.354016,-0.197917,-0.009644,-0.099615,0.000000,0.010836,-0.167427,0.000000
0.350000,-2.996268,-0.734611,-1.375595,0.210448,-0.039335,0.010120,0.994940,-0.093766,0.015798,1.557664,0.127229,-0.037972,-10.702763,2.299397,-0.204870,-0.009524,-0.101237,0.000000,0.013111,-0.157018,0.000000
0.360000,-2.994113,-0.735009,-1.375493,0.220474,-0.040266,0.010276,1.009968,-0.092378,0.015406,1.447421,0.150263,-0.040653,-10.801911,2.224780,-0.226618,-0.009381,-0.102752,0.000000,0.015439,-0.145793,0.000000
0.370000,-2.991858,-0.735417,-1.375389,0.230644,-0.041182,0.010428,1.023930,-0.090770,0.014993,1.346719,0.170934,-0.041556,-9.849637,1.983929,-0.058161,-0.009216,-0.104158,0.000000,0.017525,-0.135560,0.000000
0.380000,-2.989500,-0.735833,-1.375284,0.240949,-0.042081,0.010576,1.036878,-0.088959,0.014569,1.239677,0.191511,-0.044002,-11.567900,2.131277,-0.435384,-0.009031,-0.105460,0.000000,0.019601,-0.124679,0.000000
0.390000,-2.987038,-0.736258,-1.375178,0.251378,-0.042960,0.010720,1.048697,-0.086939,0.014106,1.126001,0.211948,-0.048207,-10.636602,1.875969,-0.302892,-0.008824,-0.106649,0.000000,0.021662,-0.113119,-0.000000
0.400000,-2.984472,-0.736692,-1.375070,0.261919,-0.043819,0.010858,1.059441,-0.084730,0.013611,1.022619,0.229648,-0.050962,-10.557477,1.739725,-0.352925,-0.008599,-0.107727,0.000000,0.023445,-0.102621,-0.000000
0.410000,-2.981800,-0.737134,-1.374961,0.272563,-0.044654,0.010992,1.069133,-0.082348,0.013082,0.915857,0.246547,-0.055033,-10.450867,1.591823,-0.408336,-0.008356,-0.108699,0.000000,0.025146,-0.091775,-0.000000
0.420000,-2.979020,-0.737585,-1.374850,0.283299,-0.045465,0.011120,1.077790,-0.079808,0.012513,0.816817,0.261023,-0.058650,-9.681643,1.346741,-0.368116,-0.008097,-0.109566,0.000000,0.026602,-0.081720,-0.000000
0.430000,-2.976133,-0.738044,-1.374738,0.294116,-0.046250,0.011242,1.085459,-0.077131,0.011904,0.715399,0.274393,-0.063509,-10.608206,1.327139,-0.606143,-0.007824,-0.110333,0.000000,0.027945,-0.071417,0.000000
0.440000,-2.973138,-0.738510,-1.374625,0.305004,-0.047007,0.011358,1.092087,-0.074324,0.011238,0.611384,0.286630,-0.069726,-9.859292,1.073620,-0.584970,-0.007538,-0.110993,0.000000,0.029175,-0.060843,-0.000000
0.450000,-2.970033,-0.738984,-1.374511,0.315954,-0.047736,0.011466,1.097720,-0.071408,0.010512,0.515454,0.296225,-0.075665,-9.654497,0.889693,-0.656048,-0.007241,-0.111553,0.000000,0.030137,-0.051093,-0.000000
0.460000,-2.966819,-0.739465,-1.374396,0.326955,-0.048435,0.011568,1.102390,-0.068404,0.009721,0.418847,0.304347,-0.082614,-9.436882,0.700541,-0.726770,-0.006936,-0.112015,0.000000,0.030949,-0.041267,-0.000000
0.470000,-2.963494,-0.739952,-1.374280,0.337999,-0.049104,0.011661,1.106123,-0.065330,0.008858,0.328856,0.309915,-0.090136,-8.779620,0.444442,-0.784880,-0.006623,-0.112381,0.000000,0.031504,-0.032105,-0.000000
0.480000,-2.960058,-0.740447,-1.374163,0.349075,-0.049742,0.011744,1.108965,-0.062210,0.007915,0.238665,0.313896,-0.098464,-9.263455,0.352274,-0.880956,-0.006306,-0.112657,0.000000,0.031899,-0.022918,0.000000
0.490000,-2.956512,-0.740947,-1.374045,0.360175,-0.050348,0.011819,1.110893,-0.059057,0.006886,0.148085,0.316300,-0.107608,-8.628330,0.095641,-0.940489,-0.005986,-0.112839,0.000000,0.032134,-0.013686,0.000000
0.500000,-2.952855,-0.741453,-1.373926,0.371290,-0.050923,0.011882,1.111953,-0.055894,0.005761,0.064239,0.316078,-0.117334,-8.361604,-0.108082,-1.011285,-0.005665,-0.112933,0.000000,0.032104,-0.005129,0.000000
0.510000,-2.949086,-0.741965,-1.373807,0.382411,-0.051466,0.011933,1.112179,-0.052741,0.004537,-0.018683,0.314141,-0.127675,-8.088093,-0.311528,-1.077180,-0.005344,-0.112942,0.000000,0.031900,0.003339,0.000000
0.520000,-2.945207,-0.742483,-1.373688,0.393531,-0.051978,0.011972,1.111599,-0.049620,0.003204,-0.096273,0.309551,-0.139058,-7.558577,-0.575391,-1.178933,-0.005028,-0.112868,0.000000,0.031428,0.011279,-0.000000
0.530000,-2.941216,-0.743005,-1.373568,0.404641,-0.052459,0.011997,1.110257,-0.046555,0.001755,-0.172560,0.303289,-0.150821,-7.702130,-0.675705,-1.172274,-0.004716,-0.112716,0.000000,0.030787,0.019089,0.000000
0.540000,-2.937114,-0.743532,-1.373448,0.415733,-0.052909,0.012007,1.108151,-0.043560,0.000187,-0.247680,0.295410,-0.162895,-7.190400,-0.931389,-1.262137,-0.004412,-0.112487,0.000000,0.029983,0.026782,0.000000
0.550000,-2.932901,-0.744063,-1.373328,0.426801,-0.053330,0.012000,1.105323,-0.040656,-0.001507,-0.317473,0.284937,-0.175876,-6.898087,-1.131545,-1.312818,-0.004118,-0.112183,0.000000,0.028916,0.033946,0.000000
0.560000,-2.928578,-0.744598,-1.373208,0.437838,-0.053723,0.011976,1.101807,-0.037866,-0.003331,-0.385385,0.272805,-0.189036,-6.604302,-1.327243,-1.355081,-0.003835,-0.111808,0.000000,0.027682,0.040918,0.000000
0.570000,-2.924145,-0.745137,-1.373088,0.448835,-0.054088,0.011933,1.097632,-0.035209,-0.005292,-0.448824,0.258100,-0.203296,-6.160639,-1.581170,-1.459966,-0.003565,-0.111366,0.000000,0.026187,0.047449,-0.000000
0.580000,-2.919601,-0.745680,-1.372969,0.459788,-0.054427,0.011870,1.092836,-0.032709,-0.007396,-0.510219,0.241869,-0.217464,-6.120902,-1.663297,-1.371429,-0.003311,-0.110860,0.000000,0.024539,0.053770,0.000000
0.590000,-2.914949,-0.746226,-1.372851,0.470690,-0.054743,0.011785,1.087433,-0.030377,-0.009640,-0.569680,0.224202,-0.231422,-5.693538,-1.901583,-1.454989,-0.003075,-0.110291,0.000000,0.022745,0.059890,-0.000000
0.600000,-2.910188,-0.746775,-1.372734,0.481535,-0.055036,0.011677,1.081459,-0.028234,-0.012028,-0.624756,0.204130,-0.246232,-5.399683,-2.079510,-1.469640,-0.002857,-0.109664,0.000000,0.020709,0.065573,0.000000
0.610000,-2.905319,-0.747326,-1.372618,0.492317,-0.055308,0.011544,1.074945,-0.026298,-0.014563,-0.677608,0.182634,-0.260737,-5.108867,-2.250261,-1.473833,-0.002661,-0.108980,0.000000,0.018529,0.071024,0.000000
0.620000,-2.900342,-0.747881,-1.372503,0.503032,-0.055562,0.011385,1.067921,-0.024589,-0.017247,-0.726350,0.158850,-0.276088,-4.701683,-2.474326,-1.552010,-0.002487,-0.108245,0.000000,0.016119,0.076066,0.000000
0.630000,-2.895258,-0.748438,-1.372390,0.513674,-0.055801,0.011198,1.060424,-0.023125,-0.020083,-0.772948,0.133825,-0.290847,-4.620382,-2.528475,-1.396950,-0.002339,-0.107460,0.000000,0.013584,0.080881,-0.000000
0.640000,-2.890069,-0.748997,-1.372279,0.524239,-0.056026,0.010983,1.052469,-0.021916,-0.023061,-0.817518,0.107675,-0.304865,-4.231832,-2.731667,-1.448438,-0.002216,-0.106628,0.000000,0.010936,0.085479,0.000000
0.650000,-2.884774,-0.749558,-1.372170,0.534722,-0.056240,0.010737,1.044088,-0.020979,-0.026182,-0.858116,0.079485,-0.319413,-3.951588,-2.873635,-1.416815,-0.002121,-0.105752,0.000000,0.008084,0.089677,0.000000
0.660000,-2.879374,-0.750122,-1.372064,0.545119,-0.056446,0.010459,1.035314,-0.020330,-0.029446,-0.896428,0.050245,-0.333170,-3.675406,-3.005666,-1.373966,-0.002055,-0.104835,0.000000,0.005128,0.093632,-0.000000
0.670000,-2.873872,-0.750687,-1.371961,0.555427,-0.056647,0.010147,1.026172,-0.019981,-0.032848,-0.931306,0.019100,-0.347239,-3.335863,-3.190182,-1.398308,-0.002019,-0.103880,0.000000,0.001981,0.097238,0.000000
0.680000,-2.868266,-0.751254,-1.371862,0.565642,-0.056847,0.009801,1.016695,-0.019950,-0.036387,-0.963891,-0.012863,-0.360265,-3.182823,-3.199791,-1.204114,-0.002015,-0.102891,0.000000,-0.001247,0.100598,-0.000000
0.690000,-2.862559,-0.751824,-1.371765,0.575760,-0.057047,0.009419,1.006901,-0.020240,-0.040049,-0.994272,-0.045507,-0.372095,-2.858908,-3.359567,-1.200578,-0.002044,-0.101869,0.000000,-0.004540,0.103718,-0.000000
0.700000,-2.856751,-0.752395,-1.371673,0.585779,-0.057253,0.009000,0.996821,-0.020866,-0.043829,-1.021376,-0.079750,-0.383900,-2.598578,-3.455490,-1.118703,-0.002107,-0.100818,0.000000,-0.007993,0.106504,0.000000
0.710000,-2.850844,-0.752969,-1.371586,0.595696,-0.057466,0.008542,0.986481,-0.021837,-0.047722,-1.046219,-0.114585,-0.394450,-2.343793,-3.540310,-1.025545,-0.002204,-0.099740,0.000000,-0.011502,0.109044,0.000000
0.720000,-2.844838,-0.753545,-1.371503,0.605508,-0.057691,0.008045,0.975907,-0.023163,-0.051718,-1.068019,-0.150805,-0.404709,-2.043145,-3.672373,-0.989823,-0.002337,-0.098638,0.000000,-0.015147,0.111271,0.000000
0.730000,-2.838734,-0.754123,-1.371425,0.615213,-0.057930,0.007508,0.965128,-0.024854,-0.055811,-1.087647,-0.187376,-0.413480,-1.884060,-3.639180,-0.761712,-0.002507,-0.097515,0.000000,-0.018825,0.113260,-0.000000
0.740000,-2.832534,-0.754703,-1.371353,0.624810,-0.058189,0.006929,0.954161,-0.026911,-0.059982,-1.105186,-0.224155,-0.420618,-1.598027,-3.744853,-0.699412,-0.002714,-0.096374,0.000000,-0.022520,0.115019,0.000000
0.750000,-2.826238,-0.755287,-1.371286,0.634296,-0.058470,0.006308,0.943034,-0.029341,-0.064222,-1.119850,-0.261983,-0.427138,-1.361681,-3.789370,-0.567877,-0.002958,-0.095216,0.000000,-0.026317,0.116480,0.000000
0.760000,-2.819848,-0.755873,-1.371227,0.643670,-0.058777,0.005644,0.931771,-0.032151,-0.068519,-1.132414,-0.299914,-0.431965,-1.130631,-3.822389,-0.425957,-0.003240,-0.094045,0.000000,-0.030120,0.117711,-0.000000
0.770000,-2.813365,-0.756462,-1.371174,0.652931,-0.059114,0.004937,0.920395,-0.035343,-0.072859,-1.142281,-0.338648,-0.435902,-0.864308,-3.896221,-0.330905,-0.003561,-0.092863,0.000000,-0.034000,0.118660,-0.000000
0.780000,-2.806790,-0.757055,-1.371128,0.662077,-0.059485,0.004187,0.908932,-0.038923,-0.077230,-1.150151,-0.377245,-0.437945,-0.710964,-3.820567,-0.075242,-0.003920,-0.091672,0.000000,-0.037863,0.119389,-0.000000
0.790000,-2.800124,-0.757652,-1.371090,0.671109,-0.059894,0.003393,0.897398,-0.042886,-0.081611,-1.156097,-0.415563,-0.437965,-0.458079,-3.868068,0.043177,-0.004318,-0.090475,0.000000,-0.041695,0.119905,-0.000000
0.800000,-2.793368,-0.758253,-1.371060,0.680025,-0.060344,0.002555,0.885818,-0.047236,-0.085986,-1.159503,-0.454344,-0.436806,-0.244939,-3.859733,0.219355,-0.004754,-0.089275,0.000000,-0.045569,0.120156,0.000000
0.810000,-2.786524,-0.758859,-1.371039,0.688825,-0.060840,0.001673,0.874214,-0.051972,-0.090339,-1.160992,-0.492734,-0.433571,-0.036737,-3.840151,0.404350,-0.005229,-0.088073,0.000000,-0.049402,0.120196,-0.000000
0.820000,-2.779592,-0.759470,-1.371027,0.697510,-0.061385,0.000748,0.862607,-0.057092,-0.094653,-1.160097,-0.531331,-0.428920,0.198723,-3.854542,0.550914,-0.005742,-0.086872,0.000000,-0.053252,0.119986,0.000000
0.830000,-2.772574,-0.760087,-1.371024,0.706078,-0.061983,-0.000220,0.851018,-0.062596,-0.098910,-1.157373,-0.569310,-0.422029,0.344827,-3.738971,0.829250,-0.006294,-0.085674,0.000000,-0.057038,0.119575,-0.000000
0.840000,-2.765471,-0.760710,-1.371032,0.714530,-0.062638,-0.001230,0.839465,-0.068475,-0.103086,-1.152883,-0.606541,-0.412795,0.569023,-3.728687,0.994476,-0.006883,-0.084481,0.000000,-0.060748,0.118969,0.000000
0.850000,-2.758284,-0.761340,-1.371049,0.722867,-0.063354,-0.002281,0.827968,-0.074727,-0.107161,-1.146145,-0.643655,-0.401914,0.761545,-3.669514,1.206716,-0.007509,-0.083295,0.000000,-0.064444,0.118129,0.000000
0.860000,-2.751014,-0.761977,-1.371077,0.731090,-0.064134,-0.003373,0.816548,-0.081345,-0.111116,-1.137641,-0.679906,-0.388649,0.950446,-3.599555,1.425916,-0.008171,-0.082119,0.000000,-0.068054,0.117096,0.000000
0.870000,-2.743662,-0.762623,-1.371117,0.739198,-0.064982,-0.004503,0.805223,-0.088324,-0.114928,-1.127037,-0.715795,-0.373565,1.158232,-3.557476,1.611706,-0.008870,-0.080954,0.000000,-0.071629,0.115843,-0.000000
0.880000,-2.736230,-0.763277,-1.371167,0.747195,-0.065902,-0.005671,0.794013,-0.095658,-0.118579,-1.114729,-0.750622,-0.355979,1.302647,-3.405882,1.906770,-0.009604,-0.079803,0.000000,-0.075098,0.114405,0.000000
0.890000,-2.728719,-0.763941,-1.371230,0.755079,-0.066896,-0.006874,0.782934,-0.103333,-0.122039,-1.100760,-0.784271,-0.335819,1.502314,-3.341856,2.105728,-0.010371,-0.078666,0.000000,-0.078453,0.112788,-0.000000
0.900000,-2.721129,-0.764616,-1.371305,0.762854,-0.067969,-0.008111,0.772004,-0.111341,-0.125289,-1.084796,-0.817264,-0.313679,1.679148,-3.236201,2.342812,-0.011172,-0.077547,0.000000,-0.081745,0.110963,-0.000000
0.910000,-2.713462,-0.765301,-1.371392,0.770520,-0.069124,-0.009379,0.761243,-0.119673,-0.128304,-1.067138,-0.848977,-0.288961,1.854392,-3.121656,2.583689,-0.012006,-0.076448,0.000000,-0.084914,0.108956,-0.000000
0.920000,-2.705719,-0.765998,-1.371493,0.778079,-0.070364,-0.010676,0.750668,-0.128318,-0.131061,-1.047696,-0.879823,-0.262159,2.031561,-3.030066,2.794146,-0.012871,-0.075369,0.000000,-0.088002,0.106764,0.000000
0.930000,-2.697901,-0.766708,-1.371606,0.785534,-0.071691,-0.011999,0.740295,-0.137265,-0.133538,-1.026558,-0.909215,-0.232711,2.195640,-2.846608,3.096333,-0.013765,-0.074313,0.000000,-0.090953,0.104392,-0.000000
0.940000,-2.690009,-0.767432,-1.371733,0.792886,-0.073110,-0.013346,0.730142,-0.146497,-0.135706,-1.003747,-0.937056,-0.200575,2.368378,-2.736638,3.313761,-0.014689,-0.073281,0.000000,-0.093758,0.101843,0.000000
0.950000,-2.682044,-0.768171,-1.371873,0.800137,-0.074622,-0.014712,0.720226,-0.156003,-0.137543,-0.979199,-0.963785,-0.166287,2.537187,-2.591947,3.561247,-0.015640,-0.072276,0.000000,-0.096461,0.099115,-0.000000
0.960000,-2.674006,-0.768925,-1.372027,0.807291,-0.076231,-0.016096,0.710564,-0.165767,-0.139023,-0.952948,-0.988885,-0.129363,2.705167,-2.440209,3.809393,-0.016618,-0.071299,0.000000,-0.099013,0.096208,0.000000
0.970000,-2.665898,-0.769696,-1.372195,0.814350,-0.077938,-0.017492,0.701172,-0.175776,-0.140123,-0.925170,-1.012690,-0.090232,2.857730,-2.306919,4.030418,-0.017620,-0.070352,0.000000,-0.101449,0.093143,-0.000000
0.980000,-2.657720,-0.770484,-1.372377,0.821316,-0.079747,-0.018897,0.692066,-0.186015,-0.140819,-0.895638,-1.034734,-0.048469,3.048787,-2.100546,4.322408,-0.018646,-0.069437,0.000000,-0.103724,0.089895,-0.000000
0.990000,-2.649472,-0.771291,-1.372573,0.828192,-0.081659,-0.020307,0.683265,-0.196465,-0.141083,-0.864348,-1.054942,-0.004069,3.201800,-1.953198,4.543208,-0.019694,-0.068555,0.000000,-0.105832,0.086463,0.000000
1.000000,-2.641156,-0.772118,-1.372783,0.834982,-0.083677,-0.021717,0.674784,-0.207109,-0.140893,-0.831545,-1.073671,0.042503,3.366751,-1.778801,4.784862,-0.020762,-0.067708,0.000000,-0.107809,0.082876,0.000000
1.010000,-2.632773,-0.772965,-1.373007,0.841689,-0.085802,-0.023123,0.666640,-0.217932,-0.140225,-0.797127,-1.090521,0.091622,3.529902,-1.599535,5.023983,-0.021850,-0.066897,0.000000,-0.109617,0.079120,0.000000
1.020000,-2.624323,-0.773834,-1.373246,0.848316,-0.088036,-0.024520,0.658848,-0.228914,-0.139054,-0.760827,-1.105732,0.142837,3.717437,-1.433244,5.232232,-0.022954,-0.066126,0.000000,-0.111282,0.075172,0.000000
1.030000,-2.615807,-0.774726,-1.373498,0.854867,-0.090381,-0.025902,0.651428,-0.240040,-0.137360,-0.723042,-1.118986,0.196543,3.839341,-1.216508,5.508407,-0.024075,-0.065394,0.000000,-0.112773,0.071067,0.000000
1.040000,-2.607226,-0.775642,-1.373763,0.861346,-0.092838,-0.027265,0.644392,-0.251287,-0.135115,-0.683783,-1.130232,0.252706,4.025231,-1.041290,5.709110,-0.025209,-0.064704,0.000000,-0.114086,0.066807,-0.000000
1.050000,-2.598580,-0.776583,-1.374043,0.867756,-0.095407,-0.028603,0.637759,-0.262639,-0.132299,-0.642643,-1.139725,0.310823,4.190360,-0.847927,5.927226,-0.026356,-0.064058,0.000000,-0.115248,0.062354,0.000000
1.060000,-2.589871,-0.777551,-1.374335,0.874102,-0.098091,-0.029909,0.631546,-0.274075,-0.128891,-0.599692,-1.147183,0.371165,4.361691,-0.651812,6.137578,-0.027514,-0.063458,0.000000,-0.116232,0.057710,-0.000000
1.070000,-2.581098,-0.778546,-1.374641,0.880389,-0.100889,-0.031178,0.625767,-0.285576,-0.124869,-0.555758,-1.152833,0.433526,4.462503,-0.469707,6.335572,-0.028680,-0.062904,0.000000,-0.117061,0.052960,-0.000000
1.080000,-2.572263,-0.779569,-1.374959,0.886619,-0.103802,-0.032404,0.620438,-0.297124,-0.120214,-0.509656,-1.156399,0.497896,4.759443,-0.243012,6.536872,-0.029854,-0.062399,0.000000,-0.117708,0.047982,-0.000000
1.090000,-2.563366,-0.780622,-1.375289,0.892799,-0.106831,-0.033580,0.615582,-0.308697,-0.114905,-0.461318,-1.157858,0.564185,4.870691,-0.056888,6.717086,-0.031034,-0.061945,0.000000,-0.118171,0.042770,-0.000000
1.100000,-2.554407,-0.781706,-1.375630,0.898932,-0.109976,-0.034700,0.611214,-0.320276,-0.108924,-0.411918,-1.157464,0.632224,5.047092,0.143795,6.891091,-0.032217,-0.061543,0.000000,-0.118477,0.037439,-0.000000
1.110000,-2.545387,-0.782822,-1.375983,0.905025,-0.113237,-0.035757,0.607352,-0.331840,-0.102255,-0.360282,-1.155012,0.701902,5.228309,0.344107,7.052716,-0.033403,-0.061196,0.000000,-0.118605,0.031871,0.000000
1.120000,-2.536307,-0.783971,-1.376345,0.911081,-0.116613,-0.036743,0.604011,-0.343369,-0.094880,-0.307825,-1.150607,0.773333,5.313744,0.539144,7.221601,-0.034589,-0.060906,0.000000,-0.118565,0.026204,-0.000000
1.130000,-2.527166,-0.785155,-1.376717,0.917107,-0.120104,-0.037652,0.601204,-0.354845,-0.086784,-0.252946,-1.144182,0.846085,5.663835,0.745723,7.326303,-0.035773,-0.060673,0.000000,-0.118351,0.020277,0.000000
1.140000,-2.517965,-0.786374,-1.377098,0.923107,-0.123710,-0.038476,0.598960,-0.366246,-0.077955,-0.195565,-1.135747,0.920015,5.761714,0.938507,7.467469,-0.036955,-0.060501,0.000000,-0.117962,0.014081,0.000000
1.150000,-2.508704,-0.787629,-1.377486,0.929088,-0.127429,-0.039208,0.597294,-0.377554,-0.068379,-0.137279,-1.125399,0.995300,5.946444,1.133263,7.577573,-0.038132,-0.060391,0.000000,-0.117409,0.007771,0.000000
1.160000,-2.499383,-0.788922,-1.377882,0.935055,-0.131260,-0.039841,0.596222,-0.388748,-0.058046,-0.076806,-1.113156,1.071466,6.130373,1.324186,7.671681,-0.039303,-0.060346,0.000000,-0.116691,0.001218,0.000000
1.170000,-2.490003,-0.790255,-1.378283,0.941014,-0.135203,-0.040367,0.595763,-0.399810,-0.046945,-0.014834,-1.098839,1.148855,6.281186,1.529481,7.785429,-0.040465,-0.060368,0.000000,-0.115791,-0.005515,-0.000000
1.180000,-2.480563,-0.791627,-1.378689,0.946972,-0.139256,-0.040777,0.595933,-0.410719,-0.035067,0.049179,-1.082769,1.226740,6.521999,1.683671,7.788341,-0.041618,-0.060457,0.000000,-0.114738,-0.012481,-0.000000
1.190000,-2.471063,-0.793040,-1.379098,0.952935,-0.143417,-0.041065,0.596754,-0.421459,-0.022410,0.115255,-1.064996,1.304934,6.675555,1.879476,7.865802,-0.042760,-0.060618,0.000000,-0.113535,-0.019686,-0.000000
1.200000,-2.461504,-0.794496,-1.379510,0.958910,-0.147685,-0.041223,0.598243,-0.432012,-0.008966,0.182835,-1.045272,1.383843,6.857575,2.055328,7.894958,-0.043888,-0.060852,0.000000,-0.112158,-0.027081,-0.000000
1.210000,-2.451885,-0.795994,-1.379922,0.964902,-0.152057,-0.041242,0.600418,-0.442360,0.005267,0.252592,-1.023998,1.462664,7.043818,2.223678,7.903435,-0.045002,-0.061161,0.000000,-0.110642,-0.034732,0.000000
1.220000,-2.442206,-0.797537,-1.380334,0.970920,-0.156531,-0.041115,0.603297,-0.452485,0.020290,0.323270,-1.000594,1.542193,7.137976,2.432554,7.963174,-0.046100,-0.061548,0.000000,-0.108930,-0.042523,0.000000
1.230000,-2.432466,-0.799125,-1.380744,0.976971,-0.161105,-0.040834,0.606892,-0.462368,0.036108,0.396322,-0.975863,1.621107,7.473533,2.511938,7.815386,-0.047180,-0.062014,0.000000,-0.107096,-0.050596,0.000000
1.240000,-2.422666,-0.800759,-1.381150,0.983061,-0.165778,-0.040390,0.611232,-0.471998,0.052709,0.471789,-0.949896,1.699167,7.572286,2.704205,7.829763,-0.048242,-0.062562,0.000000,-0.105146,-0.058961,0.000000
1.250000,-2.412805,-0.802441,-1.381551,0.989198,-0.170545,-0.039777,0.616330,-0.481359,0.070093,0.548161,-0.922002,1.777329,7.747792,2.849696,7.762876,-0.049283,-0.063195,0.000000,-0.103012,-0.067474,-0.000000
1.260000,-2.402882,-0.804171,-1.381945,0.995390,-0.175404,-0.038986,0.622203,-0.490435,0.088251,0.626797,-0.893083,1.854278,7.922423,2.984364,7.672874,-0.050302,-0.063914,0.000000,-0.100778,-0.076272,0.000000
1.270000,-2.392897,-0.805949,-1.382330,1.001645,-0.180352,-0.038009,0.628867,-0.499212,0.107179,0.706074,-0.861864,1.931172,7.986813,3.208389,7.654793,-0.051297,-0.064722,0.000000,-0.098316,-0.085199,0.000000
1.280000,-2.382849,-0.807778,-1.382705,1.007970,-0.185387,-0.036840,0.636333,-0.507671,0.126869,0.787665,-0.829985,2.006303,8.332045,3.164675,7.366393,-0.052268,-0.065621,0.000000,-0.095782,-0.094423,0.000000
1.290000,-2.372737,-0.809657,-1.383066,1.014374,-0.190505,-0.035469,0.644628,-0.515810,0.147298,0.871585,-0.797585,2.079398,8.395613,3.364597,7.297577,-0.053213,-0.066614,0.000000,-0.093187,-0.103947,0.000000
1.300000,-2.362561,-0.811588,-1.383413,1.020865,-0.195702,-0.033891,0.653765,-0.523615,0.168455,0.956026,-0.763142,2.151774,8.546007,3.472388,7.126188,-0.054131,-0.067703,0.000000,-0.090379,-0.113600,0.000000
1.310000,-2.352320,-0.813572,-1.383743,1.027452,-0.200976,-0.032098,0.663757,-0.531073,0.190325,1.042583,-0.728403,2.221855,8.692345,3.566203,6.932077,-0.055020,-0.068891,0.000000,-0.087526,-0.123541,-0.000000
1.320000,-2.342012,-0.815608,-1.384054,1.034143,-0.206322,-0.030083,0.674616,-0.538172,0.212889,1.129185,-0.690993,2.290767,8.695773,3.825406,6.802601,-0.055880,-0.070178,0.000000,-0.084385,-0.133568,0.000000
1.330000,-2.331637,-0.817698,-1.384344,1.040947,-0.211738,-0.027838,0.686348,-0.544894,0.236131,1.217918,-0.653789,2.356907,9.051128,3.611559,6.420497,-0.056708,-0.071567,0.000000,-0.081241,-0.143889,-0.000000
1.340000,-2.321193,-0.819843,-1.384610,1.047873,-0.217219,-0.025358,0.698982,-0.551250,0.260017,1.308767,-0.616976,2.420004,9.046566,3.840300,6.240331,-0.057505,-0.073062,0.000000,-0.078110,-0.154506,0.000000
1.350000,-2.310679,-0.822043,-1.384851,1.054930,-0.222762,-0.022636,0.712521,-0.557224,0.284525,1.399397,-0.577766,2.481270,9.147307,3.910960,5.964152,-0.058269,-0.074663,0.000000,-0.074705,-0.165189,0.000000
1.360000,-2.300094,-0.824299,-1.385062,1.062127,-0.228362,-0.019665,0.726977,-0.562808,0.309632,1.491843,-0.538932,2.539474,9.240277,3.969880,5.670408,-0.058999,-0.076372,0.000000,-0.071305,-0.176144,-0.000000
1.370000,-2.289436,-0.826610,-1.385243,1.069473,-0.234016,-0.016441,0.742353,-0.567991,0.335305,1.583236,-0.497325,2.594585,9.131715,4.239565,5.351145,-0.059694,-0.078191,0.000000,-0.067577,-0.187073,0.000000
1.380000,-2.278704,-0.828979,-1.385390,1.076977,-0.239721,-0.012957,0.758648,-0.572758,0.361513,1.676439,-0.456490,2.646484,9.508786,3.923694,5.025443,-0.060351,-0.080121,0.000000,-0.063886,-0.198277,0.000000
1.390000,-2.267896,-0.831405,-1.385501,1.084649,-0.245470,-0.009209,0.775888,-0.577125,0.388223,1.771399,-0.416604,2.694972,9.382698,4.165569,4.666058,-0.060972,-0.082165,0.000000,-0.060249,-0.209751,0.000000
1.400000,-2.257010,-0.833889,-1.385574,1.092498,-0.251262,-0.005191,0.794069,-0.581079,0.415400,1.864849,-0.374135,2.739763,9.400210,4.216068,4.291199,-0.061555,-0.084324,0.000000,-0.056289,-0.221150,-0.000000
1.410000,-2.246045,-0.836430,-1.385604,1.100533,-0.257090,-0.000900,0.813183,-0.584612,0.443006,1.957805,-0.332563,2.780844,9.368391,4.256612,3.898448,-0.062098,-0.086597,0.000000,-0.052370,-0.232579,-0.000000
1.420000,-2.234999,-0.839030,-1.385591,1.108765,-0.262952,0.003670,0.833239,-0.587716,0.471001,2.053805,-0.287541,2.817452,9.651577,4.594878,3.442141,-0.062600,-0.088986,0.000000,-0.048020,-0.244405,-0.000000
1.430000,-2.223869,-0.841689,-1.385530,1.117201,-0.268843,0.008521,0.854249,-0.590369,0.499342,2.147058,-0.243873,2.850092,8.989259,4.134579,3.083315,-0.063059,-0.091493,0.000000,-0.043751,-0.256018,-0.000000
1.440000,-2.212654,-0.844407,-1.385419,1.125853,-0.274758,0.013658,0.876168,-0.592600,0.527990,2.237064,-0.201727,2.878596,9.185255,4.450790,2.591249,-0.063476,-0.094115,0.000000,-0.039582,-0.267358,-0.000000
1.450000,-2.201351,-0.847185,-1.385256,1.134728,-0.280694,0.019082,0.899000,-0.594389,0.556897,2.329166,-0.156147,2.902043,9.053440,4.512056,2.117579,-0.063849,-0.096853,0.000000,-0.034969,-0.278980,0.000000
1.460000,-2.189959,-0.850021,-1.385037,1.143836,-0.286645,0.024797,0.922726,-0.595719,0.586015,2.415237,-0.109409,2.920851,8.831729,4.617034,1.622962,-0.064175,-0.099704,0.000000,-0.030159,-0.290014,-0.000000
1.470000,-2.178474,-0.852918,-1.384759,1.153185,-0.292607,0.030803,0.947352,-0.596592,0.615295,2.511934,-0.065796,2.934247,9.848272,4.321058,1.071716,-0.064453,-0.102670,0.000000,-0.025595,-0.302230,-0.000000
1.480000,-2.166894,-0.855874,-1.384420,1.162786,-0.298575,0.037103,0.972926,-0.597021,0.644683,2.598363,-0.018467,2.942616,7.413356,5.153283,0.599252,-0.064685,-0.105757,0.000000,-0.020555,-0.313385,0.000000
1.490000,-2.155217,-0.858889,-1.384016,1.172646,-0.304545,0.043697,0.999276,-0.596946,0.674130,2.673397,0.032991,2.945776,8.252271,4.924847,0.010009,-0.064862,-0.108946,0.000000,-0.014989,-0.323337,0.000000
1.500000,-2.143440,-0.861964,-1.383545,1.182774,-0.310512,0.050585,1.026436,-0.596373,0.703579,2.757735,0.081903,2.942914,7.952655,5.074613,-0.567334,-0.064986,-0.112242,0.000000,-0.009596,-0.334297,0.000000
1.510000,-2.131561,-0.865099,-1.383003,1.193178,-0.316471,0.057768,1.054422,-0.595291,0.732966,2.839566,0.134833,2.933450,7.753614,5.252560,-1.183453,-0.065052,-0.115645,0.000000,-0.003666,-0.344975,0.000000
1.520000,-2.119576,-0.868294,-1.382388,1.203865,-0.322416,0.065244,1.083167,-0.593691,0.762239,2.906712,0.184597,2.920516,6.311442,4.955459,-1.548047,-0.065060,-0.119150,0.000000,0.001987,-0.354070,-0.000000
1.530000,-2.107482,-0.871548,-1.381697,1.214843,-0.328343,0.073012,1.112579,-0.591581,0.791348,2.979146,0.239297,2.899453,8.192956,5.994507,-2.672258,-0.065010,-0.122744,0.000000,0.008296,-0.363676,-0.000000
1.540000,-2.095278,-0.874861,-1.380927,1.226119,-0.334246,0.081070,1.142775,-0.588885,0.820198,3.057615,0.299405,2.869864,6.854145,5.773340,-3.106142,-0.064892,-0.126441,0.000000,0.015324,-0.373859,0.000000
1.550000,-2.082959,-0.878232,-1.380075,1.237701,-0.340119,0.089415,1.173672,-0.585606,0.848734,3.121644,0.356971,2.836059,6.591709,5.996266,-3.800689,-0.064705,-0.130230,0.000000,0.022150,-0.382423,-0.000000
1.560000,-2.070523,-0.881663,-1.379138,1.249595,-0.345956,0.098044,1.205216,-0.581729,0.876889,3.186713,0.418889,2.793669,6.286394,6.230204,-4.522071,-0.064446,-0.134106,0.000000,0.029576,-0.390978,0.000000
1.570000,-2.057966,-0.885151,-1.378113,1.261807,-0.351752,0.106952,1.237385,-0.577233,0.904596,3.246092,0.480144,2.747018,5.715012,6.176004,-4.964413,-0.064114,-0.138064,0.000000,0.037012,-0.398832,0.000000
1.580000,-2.045286,-0.888698,-1.376998,1.274344,-0.357499,0.116134,1.270133,-0.572111,0.931797,3.303649,0.545664,2.691103,5.797082,6.933785,-6.225879,-0.063704,-0.142098,0.000000,0.045038,-0.406313,0.000000
1.590000,-2.032478,-0.892301,-1.375790,1.287212,-0.363191,0.125586,1.303453,-0.566304,0.958384,3.359361,0.615725,2.625561,5.211826,6.923826,-6.729703,-0.063211,-0.146205,0.000000,0.053690,-0.413389,0.000000
1.600000,-2.019540,-0.895961,-1.374485,1.300415,-0.368823,0.135300,1.337297,-0.559800,0.984295,3.408915,0.685473,2.555148,4.824561,7.181250,-7.509247,-0.062631,-0.150379,0.000000,0.062385,-0.419638,-0.000000
1.610000,-2.006469,-0.899677,-1.373083,1.313959,-0.374385,0.145269,1.371605,-0.552576,1.009457,3.451604,0.759872,2.475913,4.336344,7.457517,-8.294931,-0.061960,-0.154611,0.000000,0.071700,-0.424893,-0.000000
1.620000,-1.993260,-0.903449,-1.371579,1.327849,-0.379872,0.155486,1.406364,-0.544613,1.033790,3.501336,0.832405,2.389629,4.998130,7.282701,-9.006637,-0.061197,-0.158896,0.000000,0.080902,-0.430702,-0.000000
1.630000,-1.979911,-0.907275,-1.369972,1.342088,-0.385275,0.165942,1.441586,-0.535908,1.057221,3.538722,0.910426,2.294845,2.456730,8.328256,-9.952689,-0.060340,-0.163235,0.000000,0.090797,-0.434868,0.000000
1.640000,-1.966417,-0.911154,-1.368260,1.356681,-0.390587,0.176627,1.477089,-0.526383,1.079658,3.562715,0.994219,2.191430,2.953050,8.192901,-10.687386,-0.059379,-0.167603,0.000000,0.101410,-0.437243,-0.000000
1.650000,-1.952776,-0.915086,-1.366439,1.371631,-0.395800,0.187531,1.512871,-0.516034,1.101026,3.592514,1.076260,2.080715,2.391400,8.449136,-11.500305,-0.058313,-0.171998,0.000000,0.111897,-0.439962,-0.000000
1.660000,-1.938983,-0.919070,-1.364508,1.386940,-0.400905,0.198644,1.548915,-0.504844,1.121242,3.615591,1.162083,1.961001,1.890523,8.682170,-12.326174,-0.057139,-0.176413,0.000000,0.122868,-0.441579,0.000000
1.670000,-1.925036,-0.923104,-1.362465,1.402610,-0.405894,0.209952,1.585139,-0.492787,1.140228,3.627231,1.249568,1.835264,0.756556,8.842278,-12.934389,-0.055855,-0.180838,0.000000,0.134046,-0.441605,-0.000000
1.680000,-1.910930,-0.927187,-1.360309,1.418643,-0.410758,0.221444,1.621457,-0.479844,1.157914,3.637423,1.339505,1.699942,1.289701,9.142997,-14.133009,-0.054457,-0.185258,0.000000,0.145539,-0.441063,-0.000000
1.690000,-1.896662,-0.931318,-1.358036,1.435039,-0.415488,0.233106,1.657886,-0.465989,1.174193,3.646481,1.431748,1.554907,0.195221,9.271252,-14.758817,-0.052943,-0.189670,0.000000,0.157318,-0.439963,0.000000
1.700000,-1.882228,-0.935496,-1.355646,1.451801,-0.420074,0.244923,1.694343,-0.451206,1.188994,3.644039,1.525112,1.403816,-0.362308,9.427820,-15.572025,-0.051310,-0.194063,0.000000,0.169196,-0.437210,-0.000000
1.710000,-1.867624,-0.939719,-1.353137,1.468926,-0.424509,0.256880,1.730753,-0.435483,1.202237,3.637088,1.619707,1.243373,-0.962291,9.548914,-16.383726,-0.049559,-0.198423,0.000000,0.181194,-0.433500,-0.000000
1.720000,-1.852848,-0.943986,-1.350508,1.486415,-0.428781,0.268962,1.767069,-0.418803,1.213845,3.625353,1.716561,1.077384,-1.451030,9.756800,-16.938945,-0.047686,-0.202741,0.000000,0.193390,-0.428874,0.000000
1.730000,-1.837895,-0.948294,-1.347757,1.504267,-0.432881,0.281152,1.803237,-0.401152,1.223752,3.606679,1.813475,0.901976,-2.287899,9.618460,-18.143877,-0.045691,-0.207006,0.000000,0.205531,-0.422997,0.000000
1.740000,-1.822761,-0.952643,-1.344885,1.522479,-0.436801,0.293431,1.839179,-0.382536,1.231852,3.580852,1.910032,0.717134,-2.814572,9.747639,-18.693150,-0.043576,-0.211205,0.000000,0.217547,-0.415834,0.000000
1.750000,-1.807444,-0.957030,-1.341889,1.541050,-0.440529,0.305782,1.874837,-0.362946,1.238080,3.549799,2.007789,0.527092,-3.462546,9.736864,-19.439291,-0.041340,-0.215328,0.000000,0.229575,-0.407700,0.000000
1.760000,-1.791939,-0.961453,-1.338769,1.559975,-0.444056,0.318186,1.910151,-0.342389,1.242365,3.511828,2.103443,0.328678,-4.118991,9.660321,-20.162036,-0.038986,-0.219362,0.000000,0.241230,-0.398330,0.000000
1.770000,-1.776243,-0.965910,-1.335525,1.579251,-0.447373,0.330623,1.945053,-0.320858,1.244636,3.467518,2.203370,0.124652,-4.758781,10.053131,-20.713386,-0.036514,-0.223297,0.000000,0.253205,-0.387862,-0.000000
1.780000,-1.760353,-0.970400,-1.332156,1.598874,-0.450470,0.343072,1.979478,-0.298338,1.244832,3.416325,2.298804,-0.087061,-5.481768,9.018248,-21.626159,-0.033924,-0.227120,0.000000,0.264490,-0.376193,-0.000000
1.790000,-1.744265,-0.974919,-1.328663,1.618839,-0.453337,0.355512,2.013356,-0.274902,1.242869,3.358136,2.388947,-0.306244,-6.143398,9.270502,-22.128830,-0.031227,-0.230821,0.000000,0.274972,-0.363325,0.000000
1.800000,-1.727975,-0.979466,-1.325046,1.639140,-0.455965,0.367922,2.046619,-0.250546,1.238693,3.293304,2.481793,-0.530154,-6.837968,9.024700,-22.722345,-0.028424,-0.234387,0.000000,0.285530,-0.349386,0.000000
1.810000,-1.711481,-0.984037,-1.321305,1.659769,-0.458345,0.380279,2.079194,-0.225284,1.232245,3.220432,2.569970,-0.760359,-7.559124,8.735729,-23.274525,-0.025519,-0.237807,0.000000,0.295315,-0.334202,-0.000000
1.820000,-1.694779,-0.988632,-1.317441,1.680721,-0.460468,0.392559,2.111018,-0.199146,1.223471,3.143743,2.657575,-0.995157,-7.952871,8.648788,-23.713279,-0.022518,-0.241071,0.000000,0.304774,-0.318306,0.000000
1.830000,-1.677865,-0.993246,-1.313454,1.701987,-0.462325,0.404740,2.142037,-0.172150,1.212324,3.057717,2.740086,-1.235218,-9.258568,7.841499,-24.291954,-0.019427,-0.244170,0.000000,0.313378,-0.301101,-0.000000
1.840000,-1.660738,-0.997877,-1.309346,1.723559,-0.463908,0.416798,2.172139,-0.144364,1.198750,2.962066,2.816853,-1.480098,-9.697033,7.634057,-24.638879,-0.016254,-0.247090,0.000000,0.321046,-0.282600,0.000000
1.850000,-1.643393,-1.002523,-1.305119,1.745426,-0.465210,0.428707,2.201267,-0.115818,1.182712,2.862285,2.891505,-1.728120,-10.434157,7.158627,-24.992147,-0.013007,-0.249821,0.000000,0.328178,-0.263485,0.000000
1.860000,-1.625828,-1.007180,-1.300773,1.767580,-0.466222,0.440444,2.229342,-0.086571,1.164183,2.751074,2.956580,-1.977904,-11.224650,6.564812,-25.251896,-0.009696,-0.252355,0.000000,0.333930,-0.243037,0.000000
1.870000,-1.608041,-1.011847,-1.296311,1.790010,-0.466939,0.451982,2.256310,-0.056649,1.143122,2.643169,3.029241,-2.235688,-10.921061,7.265116,-26.006331,-0.006325,-0.254684,0.000000,0.340230,-0.222718,-0.000000
1.880000,-1.590027,-1.016518,-1.291734,1.812703,-0.467353,0.463297,2.282153,-0.026040,1.119477,2.520800,3.087148,-2.491766,-13.568711,4.287885,-25.189622,-0.002898,-0.256804,0.000000,0.344563,-0.200913,0.000000
1.890000,-1.571786,-1.021193,-1.287045,1.835648,-0.467458,0.474363,2.306671,0.005035,1.093298,2.383282,3.128928,-2.745096,-13.361209,4.763559,-25.756302,0.000558,-0.258697,0.000000,0.346811,-0.177639,0.000000
1.900000,-1.553314,-1.025866,-1.282248,1.858832,-0.467251,0.485155,2.329839,0.036569,1.064551,2.248787,3.176341,-3.004200,-14.104263,4.014097,-25.762657,0.004041,-0.260359,0.000000,0.349399,-0.154646,-0.000000
1.910000,-1.534608,-1.030537,-1.277343,1.882240,-0.466726,0.495646,2.351632,0.068513,1.033228,2.109199,3.210920,-3.260182,-14.691806,3.240023,-25.689256,0.007540,-0.261789,0.000000,0.350292,-0.131355,0.000000
1.920000,-1.515668,-1.035200,-1.272336,1.905860,-0.465879,0.505811,2.371932,0.100789,0.999329,1.946911,3.244212,-3.520210,-16.905769,3.081291,-26.045642,0.011046,-0.262977,0.000000,0.350784,-0.105741,-0.000000
1.930000,-1.496491,-1.039853,-1.267228,1.929673,-0.464709,0.515624,2.390591,0.133354,0.962842,1.789138,3.265480,-3.775419,-14.618134,1.158686,-24.976329,0.014550,-0.263908,0.000000,0.349718,-0.080996,-0.000000
1.940000,-1.477074,-1.044493,-1.262025,1.953666,-0.463212,0.525059,2.407741,0.166054,0.923843,1.637309,3.274069,-4.024742,-16.607956,0.893065,-25.137951,0.018034,-0.264601,0.000000,0.347061,-0.057315,0.000000
1.950000,-1.457417,-1.049116,-1.256728,1.977823,-0.461387,0.534092,2.423252,0.198834,0.882337,1.464397,3.280447,-4.275718,-17.109046,0.045905,-24.784457,0.021491,-0.265046,0.000000,0.343978,-0.031690,0.000000
1.960000,-1.437517,-1.053720,-1.251344,2.002126,-0.459235,0.542698,2.437032,0.231631,0.838353,1.290754,3.277580,-4.520137,-17.639885,-0.768887,-24.347575,0.024910,-0.265237,0.000000,0.339743,-0.006529,0.000000
1.970000,-1.417374,-1.058300,-1.245876,2.026558,-0.456755,0.550851,2.449048,0.264347,0.791929,1.111449,3.263706,-4.764833,-18.193854,-1.862168,-24.326834,0.028281,-0.265176,0.000000,0.334188,0.018844,-0.000000
1.980000,-1.396986,-1.062854,-1.240329,2.051101,-0.453949,0.558528,2.459246,0.296884,0.743086,0.927446,3.243363,-5.001126,-18.602202,-2.200952,-22.912065,0.031591,-0.264861,0.000000,0.327860,0.044053,0.000000
1.990000,-1.376352,-1.067378,-1.234707,2.075736,-0.450818,0.565705,2.467582,0.329194,0.691940,0.739000,3.216805,-5.227961,-19.107347,-3.253994,-22.698824,0.034836,-0.264295,0.000000,0.320825,0.069019,-0.000000
2.000000,-1.355471,-1.071869,-1.229016,2.100446,-0.447366,0.572359,2.474009,0.361182,0.638530,0.545577,3.179554,-5.452700,-19.550058,-4.049435,-21.983326,0.038004,-0.263479,0.000000,0.312622,0.093977,-0.000000
2.010000,-1.334342,-1.076324,-1.223262,2.125210,-0.443596,0.578468,2.478463,0.392759,0.582925,0.344158,3.134402,-5.666652,-20.047744,-4.851888,-21.174664,0.041086,-0.262414,0.000000,0.303623,0.118971,-0.000000
2.020000,-1.312966,-1.080740,-1.217449,2.150008,-0.439512,0.584011,2.480931,0.423854,0.525194,0.150981,3.083744,-5.879460,-19.245244,-5.398023,-21.008697,0.044074,-0.261103,0.000000,0.294053,0.142611,-0.000000
2.030000,-1.291342,-1.085113,-1.211583,2.174822,-0.435121,0.588965,2.481437,0.454403,0.465383,-0.054555,3.023962,-6.078901,-21.877855,-6.557367,-18.857931,0.046964,-0.259557,0.000000,0.283647,0.166636,-0.000000
2.040000,-1.269470,-1.089441,-1.205672,2.199630,-0.430427,0.593312,2.479791,0.484303,0.403667,-0.273081,2.955171,-6.263852,-21.153447,-7.072054,-18.493296,0.049745,-0.257765,0.000000,0.272471,0.191056,-0.000000
2.050000,-1.247350,-1.093721,-1.199719,2.224411,-0.425437,0.597033,2.476015,0.513492,0.340111,-0.483184,2.881593,-6.445427,-21.527432,-7.760027,-17.442628,0.052412,-0.255737,0.000000,0.260910,0.214034,0.000000
2.060000,-1.224982,-1.097949,-1.193733,2.249143,-0.420159,0.600109,2.470142,0.541918,0.274802,-0.690693,2.802707,-6.614571,-21.637573,-8.360599,-16.362778,0.054962,-0.253483,0.000000,0.248989,0.235929,0.000000
2.070000,-1.202367,-1.102123,-1.187719,2.273806,-0.414601,0.602523,2.462062,0.569499,0.207858,-0.931187,2.711305,-6.772368,-24.835523,-9.572081,-15.203073,0.057388,-0.251000,0.000000,0.236057,0.260253,0.000000
2.080000,-1.179506,-1.106240,-1.181685,2.298376,-0.408772,0.604261,2.451592,0.596142,0.139393,-1.153280,2.618565,-6.918784,-19.527933,-8.957131,-14.072878,0.059684,-0.248279,0.000000,0.223204,0.281972,-0.000000
2.090000,-1.156400,-1.110298,-1.175636,2.322831,-0.402682,0.605306,2.439079,0.621871,0.069521,-1.354443,2.525453,-7.053370,-22.336888,-9.999720,-12.821768,0.061853,-0.245361,0.000000,0.210530,0.300900,-0.000000
2.100000,-1.133050,-1.114293,-1.169581,2.347151,-0.396338,0.605647,2.424373,0.646610,-0.001632,-1.586062,2.421667,-7.175205,-22.353517,-10.406200,-11.553076,0.063891,-0.242240,0.000000,0.197116,0.321991,0.000000
2.110000,-1.109457,-1.118223,-1.163526,2.371311,-0.389753,0.605270,2.407336,0.670310,-0.073930,-1.823064,2.318147,-7.281881,-22.717446,-10.729254,-10.196709,0.065797,-0.238909,0.000000,0.184044,0.342767,0.000000
2.120000,-1.085624,-1.122087,-1.157478,2.395290,-0.382936,0.604165,2.388089,0.692927,-0.147258,-2.018946,2.203218,-7.382891,-18.713529,-11.818979,-9.591424,0.067568,-0.235388,0.000000,0.170053,0.359066,-0.000000
2.130000,-1.061552,-1.125881,-1.151445,2.419066,-0.375898,0.602322,2.366841,0.714387,-0.221522,-2.244667,2.090949,-7.465031,-26.497041,-10.611439,-6.818907,0.069200,-0.231703,0.000000,0.156723,0.377375,-0.000000
2.140000,-1.037244,-1.129604,-1.145434,2.442618,-0.368652,0.599732,2.343068,0.734762,-0.296490,-2.503113,1.982531,-7.527443,-22.907341,-11.494091,-6.071907,0.070706,-0.227813,0.000000,0.144172,0.397912,0.000000
2.150000,-1.012701,-1.133254,-1.139453,2.465920,-0.361207,0.596390,2.316950,0.753999,-0.372055,-2.722048,1.864941,-7.582896,-23.145141,-11.583534,-4.604625,0.072081,-0.223742,0.000000,0.130961,0.414221,0.000000
2.160000,-0.987926,-1.136828,-1.133509,2.488950,-0.353575,0.592289,2.288581,0.772078,-0.448090,-2.951484,1.751082,-7.621671,-23.147190,-11.593923,-3.147689,0.073328,-0.219505,0.000000,0.118467,0.430822,0.000000
2.170000,-0.962923,-1.140325,-1.127610,2.511684,-0.345769,0.587427,2.257888,0.788988,-0.524439,-3.188622,1.629437,-7.645808,-23.870651,-12.321828,-1.678725,0.074448,-0.215102,0.000000,0.105581,0.447520,0.000000
2.180000,-0.937694,-1.143743,-1.121763,2.534099,-0.337800,0.581800,2.224830,0.804688,-0.600957,-3.420291,1.513310,-7.655238,-22.440806,-10.881121,-0.206705,0.075442,-0.210534,0.000000,0.093537,0.463132,0.000000
2.190000,-0.912242,-1.147080,-1.115976,2.556173,-0.329679,0.575408,2.189507,0.819279,-0.677495,-3.645347,1.403844,-7.649927,-22.964536,-11.409918,1.269236,0.076322,-0.205817,0.000000,0.082419,0.477604,0.000000
2.200000,-0.886571,-1.150336,-1.110257,2.577882,-0.321418,0.568251,2.151898,0.832739,-0.753906,-3.875925,1.288761,-7.629871,-22.736372,-11.192110,2.740393,0.077089,-0.200953,0.000000,0.071094,0.492083,0.000000
2.210000,-0.860686,-1.153508,-1.104614,2.599203,-0.313028,0.560330,2.112061,0.845073,-0.830059,-4.089363,1.178430,-7.598732,-22.214548,-10.938246,4.131920,0.077747,-0.195954,0.000000,0.060459,0.504626,-0.000000
2.220000,-0.834589,-1.156596,-1.099053,2.620116,-0.304520,0.551651,2.069944,0.856311,-0.905782,-4.340925,1.069498,-7.541324,-25.881012,-10.768689,6.720805,0.078300,-0.190818,0.000000,0.050372,0.519980,0.000000
2.230000,-0.808285,-1.159598,-1.093583,2.640594,-0.295905,0.542217,2.025366,0.866477,-0.980869,-4.560456,0.964713,-7.477521,-17.947035,-10.177747,6.017961,0.078756,-0.185534,0.000000,0.040833,0.532221,-0.000000
2.240000,-0.781778,-1.162514,-1.088211,2.660617,-0.287194,0.532035,1.978871,0.875622,-1.055319,-4.744338,0.864672,-7.408329,-21.049246,-9.894140,8.450781,0.079119,-0.180153,0.000000,0.031872,0.541126,-0.000000
2.250000,-0.755074,-1.165342,-1.082945,2.680165,-0.278396,0.521113,1.930326,0.883780,-1.128940,-4.962379,0.767594,-7.313932,-20.331571,-9.442291,9.795094,0.079396,-0.174666,0.000000,0.023541,0.552621,-0.000000
2.260000,-0.728177,-1.168081,-1.077792,2.699216,-0.269522,0.509460,1.879673,0.890996,-1.201555,-5.167895,0.676625,-7.206364,-19.825024,-8.929401,11.217810,0.079592,-0.169070,0.000000,0.015958,0.562790,-0.000000
2.270000,-0.701091,-1.170732,-1.072758,2.717751,-0.260579,0.497086,1.827062,0.897315,-1.273061,-5.350118,0.587443,-7.094220,-17.528121,-8.720337,11.690050,0.079715,-0.163382,0.000000,0.008651,0.570868,0.000000
2.280000,-0.673823,-1.173293,-1.067852,2.735752,-0.251578,0.484003,1.772647,0.902772,-1.343371,-5.537545,0.506125,-6.962505,-19.981569,-7.531161,14.663799,0.079769,-0.157615,0.000000,0.002282,0.579181,0.000000
2.290000,-0.646378,-1.175763,-1.063080,2.753198,-0.242526,0.470223,1.716283,0.907467,-1.412241,-5.731188,0.433307,-6.810805,-17.820950,-7.207975,15.183675,0.079764,-0.151760,0.000000,-0.003115,0.587848,0.000000
2.300000,-0.618761,-1.178143,-1.058450,2.770071,-0.233431,0.455763,1.658116,0.911446,-1.479581,-5.901718,0.363623,-6.654799,-17.200718,-6.542619,16.497706,0.079707,-0.145829,0.000000,-0.008168,0.594573,-0.000000
2.310000,-0.590979,-1.180432,-1.053967,2.786354,-0.224300,0.440637,1.598230,0.914765,-1.545318,-6.074912,0.301255,-6.491626,-16.592973,-5.864178,17.584379,0.079603,-0.139829,0.000000,-0.012478,0.601580,0.000000
2.320000,-0.563036,-1.182629,-1.049639,2.802030,-0.215138,0.424863,1.536707,0.917499,-1.609260,-6.225760,0.247005,-6.289854,-14.388989,-5.041078,21.354330,0.079461,-0.133768,0.000000,-0.015804,0.606386,0.000000
2.330000,-0.534940,-1.184735,-1.045472,2.817084,-0.205951,0.408459,1.473698,0.919726,-1.671146,-6.379751,0.199261,-6.094257,-16.430498,-4.505474,17.715784,0.079289,-0.127660,0.000000,-0.018585,0.611766,0.000000
2.340000,-0.506697,-1.186748,-1.041472,2.831499,-0.196745,0.391446,1.409092,0.921506,-1.731184,-6.537766,0.158191,-5.907102,-14.343550,-3.644129,21.134799,0.079091,-0.121491,0.000000,-0.020832,0.617788,0.000000
2.350000,-0.478312,-1.188669,-1.037645,2.845261,-0.187522,0.373842,1.343031,0.922920,-1.789143,-6.673525,0.125935,-5.683735,-13.624814,-2.863916,22.115608,0.078876,-0.115274,0.000000,-0.022099,0.621782,-0.000000
2.360000,-0.449794,-1.190498,-1.033997,2.858355,-0.178287,0.355671,1.275673,0.924104,-1.844778,-6.795462,0.113662,-5.439232,-12.617690,-1.816103,23.524667,0.078656,-0.109021,0.000000,-0.021550,0.624700,0.000000
2.370000,-0.421148,-1.192235,-1.030534,2.870770,-0.169041,0.336954,1.207005,0.925048,-1.898146,-6.942905,0.069143,-5.243298,-15.062515,-4.926300,18.815296,0.078431,-0.102728,0.000000,-0.024049,0.630500,-0.000000
2.380000,-0.392381,-1.193879,-1.027260,2.882490,-0.159788,0.317714,1.136934,0.925622,-1.949452,-7.058756,0.060493,-4.996735,-8.048805,3.261631,30.588044,0.078188,-0.096383,0.000000,-0.023215,0.633463,0.000000
2.390000,-0.363500,-1.195431,-1.024181,2.893506,-0.150528,0.297975,1.065958,0.926404,-1.997874,-7.140351,0.090587,-4.695634,-10.090813,0.570819,26.432317,0.077980,-0.090031,0.000000,-0.018835,0.633501,-0.000000
2.400000,-0.334513,-1.196890,-1.021302,2.903806,-0.141259,0.277766,0.994018,0.927295,-2.043576,-7.245090,0.090322,-4.441237,-9.040817,1.544016,27.613463,0.077798,-0.083662,0.000000,-0.017338,0.636217,-0.000000
2.410000,-0.305426,-1.198256,-1.018627,2.913383,-0.131982,0.257112,0.921137,0.928226,-2.086678,-7.329475,0.095453,-4.180185,-8.085610,2.044865,28.116937,0.077635,-0.077274,0.000000,-0.015389,0.637541,-0.000000
2.420000,-0.276248,-1.199529,-1.016161,2.922226,-0.122694,0.236042,0.847440,0.929428,-2.126877,-7.409134,0.154689,-3.846675,-7.609025,7.298626,35.142623,0.077511,-0.070875,0.000000,-0.008520,0.638421,0.000000
2.430000,-0.246984,-1.200710,-1.013908,2.930329,-0.113391,0.214586,0.772996,0.931218,-2.163758,-7.476689,0.188863,-3.549596,-5.899211,-0.551287,24.152586,0.077455,-0.064468,0.000000,-0.004032,0.638968,-0.000000
2.440000,-0.217644,-1.201797,-1.011871,2.937684,-0.104069,0.192775,0.697949,0.933089,-2.198036,-7.532093,0.193935,-3.294520,-5.430648,4.074503,30.311535,0.077419,-0.058058,0.000000,-0.002256,0.639115,-0.000000
2.450000,-0.188233,-1.202791,-1.010053,2.944286,-0.094728,0.170635,0.622364,0.935306,-2.229367,-7.583383,0.248778,-2.972998,-4.593100,4.374072,30.530903,0.077429,-0.051648,0.000000,0.004024,0.639014,-0.000000
2.460000,-0.158760,-1.203692,-1.008459,2.950130,-0.085362,0.148198,0.546209,0.937980,-2.257617,-7.649214,0.285450,-2.677960,-4.293068,4.597654,30.665780,0.077492,-0.045232,0.000000,0.008606,0.640662,0.000000
2.470000,-0.129233,-1.204498,-1.007090,2.955209,-0.075967,0.125493,0.469737,0.941156,-2.282744,-7.629936,0.355714,-2.339619,3.982560,7.850911,34.863107,0.077613,-0.038825,0.000000,0.016175,0.635586,-0.000000
2.480000,-0.099659,-1.205211,-1.005950,2.959525,-0.066536,0.102555,0.393425,0.945025,-2.304506,-7.657011,0.408801,-2.025584,-9.531735,2.710269,27.873164,0.077809,-0.032464,0.000000,0.022168,0.634885,0.000000
2.490000,-0.070045,-1.205829,-1.005040,2.963075,-0.057065,0.079413,0.316389,0.949253,-2.323364,-7.736466,0.442119,-1.739062,-2.160906,5.560930,31.583140,0.078049,-0.026070,0.000000,0.026362,0.638970,-0.000000
2.500000,-0.040400,-1.206352,-1.004362,2.965852,-0.047549,0.056098,0.239036,0.953998,-2.339115,-7.735903,0.506242,-1.412200,-1.912128,5.653716,31.644670,0.078348,-0.019673,0.000000,0.033317,0.636826,-0.000000
2.510000,-0.010731,-1.206780,-1.003918,2.967856,-0.037983,0.032642,0.161703,0.959509,-2.351454,-7.726631,0.600913,-1.049483,-0.871742,6.570377,32.756927,0.078728,-0.013296,0.000000,0.042999,0.634402,0.000000
2.520000,0.018955,-1.207111,-1.003710,2.969086,-0.028357,0.009079,0.084161,0.965502,-2.360730,-7.795998,0.575835,-0.831980,-8.498583,-5.087619,18.643313,0.079162,-0.006915,0.000000,0.041977,0.638988,-0.000000
2.530000,0.048648,-1.207347,-1.003737,2.969537,-0.018674,-0.014566,0.006027,0.971357,-2.367690,-7.802066,0.635570,-0.510787,7.425248,17.225759,45.836662,0.079597,-0.000495,0.000000,0.048562,0.638677,-0.000000
2.540000,0.078343,-1.207485,-1.004001,2.969208,-0.008925,-0.038260,-0.071613,0.978575,-2.370502,-7.738609,0.788437,-0.075248,0.718119,6.762394,33.284168,0.080166,0.005879,0.000000,0.063522,0.633229,0.000000
2.550000,0.108030,-1.207525,-1.004502,2.968105,0.000900,-0.061964,-0.149071,0.986627,-2.369793,-7.749176,0.826211,0.222385,1.694928,7.318429,34.179095,0.080823,0.012239,0.000000,0.068230,0.634283,0.000000
2.560000,0.137702,-1.207466,-1.005240,2.966227,0.010809,-0.085646,-0.226608,0.995034,-2.366020,-7.761025,0.848805,0.528066,1.711697,6.305764,33.714258,0.081526,0.018609,0.000000,0.071793,0.635870,-0.000000
2.570000,0.167352,-1.207308,-1.006215,2.963574,0.020804,-0.109273,-0.303822,1.004309,-2.358699,-7.661830,1.035859,0.958644,12.515490,22.225652,45.810262,0.082320,0.024962,0.000000,0.089687,0.629070,-0.000000
2.580000,0.196971,-1.207050,-1.007426,2.960154,0.030901,-0.132805,-0.380105,1.015299,-2.347173,-7.628513,1.106930,1.305909,-6.026949,-8.306987,23.420981,0.083281,0.031256,0.000000,0.097649,0.628049,-0.000000
2.590000,0.226553,-1.206690,-1.008871,2.955970,0.041108,-0.156208,-0.456682,1.025946,-2.332944,-7.668848,1.048577,1.559741,3.626857,5.563694,33.967192,0.084230,0.037591,0.000000,0.094445,0.633227,0.000000
2.600000,0.256088,-1.206228,-1.010549,2.951021,0.051421,-0.179453,-0.533033,1.036933,-2.315479,-7.603953,1.142006,1.928625,3.714512,4.196638,33.181308,0.085227,0.043931,0.000000,0.104540,0.630577,0.000000
2.610000,0.285570,-1.205661,-1.012459,2.945311,0.061849,-0.202506,-0.608775,1.048578,-2.294537,-7.540727,1.186588,2.259117,4.687866,3.484071,32.766657,0.086303,0.050251,0.000000,0.110480,0.628410,0.000000
2.620000,0.314992,-1.204990,-1.014599,2.938847,0.072394,-0.225333,-0.684159,1.060540,-2.270323,-7.549119,1.200275,2.582480,-2.229785,0.442100,32.033655,0.087427,0.056574,0.000000,0.113909,0.632556,-0.000000
2.630000,0.344345,-1.204213,-1.016965,2.931628,0.083060,-0.247902,-0.759530,1.072614,-2.242898,-7.498480,1.220418,2.902499,12.496557,3.622504,31.967375,0.088584,0.062933,0.000000,0.117960,0.632296,-0.000000
2.640000,0.373622,-1.203329,-1.019556,2.923660,0.093848,-0.270180,-0.833879,1.084985,-2.212284,-7.382473,1.248593,3.218941,6.548426,0.809259,31.177716,0.089789,0.069250,0.000000,0.122786,0.627072,-0.000000
2.650000,0.402816,-1.202336,-1.022367,2.914953,0.104760,-0.292137,-0.907471,1.097465,-2.178549,-7.331954,1.246871,3.527124,7.716704,0.050058,30.592084,0.091029,0.075551,0.000000,0.125167,0.627629,0.000000
2.660000,0.431918,-1.201233,-1.025397,2.905513,0.115797,-0.313741,-0.980277,1.110072,-2.141668,-7.224398,1.277452,3.850703,9.175338,-0.084762,30.386504,0.092306,0.081837,0.000000,0.130476,0.624010,-0.000000
2.670000,0.460923,-1.200019,-1.028641,2.895350,0.126961,-0.334961,-1.052285,1.122510,-2.101845,-7.190919,1.188589,4.100417,2.009409,-11.715177,23.172374,0.093595,0.088111,0.000000,0.125385,0.626423,-0.000000
2.680000,0.489823,-1.198693,-1.032095,2.884469,0.138244,-0.355770,-1.123837,1.134118,-2.059499,-7.090002,1.168528,4.390067,18.311738,7.887947,34.863730,0.094838,0.094401,0.000000,0.126404,0.623914,-0.000000
2.690000,0.518610,-1.197254,-1.035755,2.872879,0.149645,-0.376139,-1.193805,1.146184,-2.013867,-6.915557,1.225471,4.724261,12.040131,-2.533294,28.309491,0.096150,0.100625,0.000000,0.134379,0.616054,-0.000000
2.700000,0.547278,-1.195700,-1.039616,2.860597,0.161167,-0.396037,-1.262460,1.158143,-1.965316,-6.810921,1.168925,4.987102,13.390772,-2.773897,27.892700,0.097483,0.106804,0.000000,0.132389,0.613796,-0.000000
2.710000,0.575820,-1.194030,-1.043674,2.847633,0.172806,-0.415437,-1.330079,1.169538,-1.914141,-6.716823,1.104724,5.244348,13.479681,-4.115080,26.809852,0.098796,0.112965,0.000000,0.129764,0.612725,-0.000000
2.720000,0.604229,-1.192244,-1.047923,2.834000,0.184557,-0.434311,-1.396139,1.180677,-1.860201,-6.467401,1.141278,5.553103,28.567193,5.633524,31.760779,0.100118,0.119067,0.000000,0.136286,0.599467,0.000000
2.730000,0.632498,-1.190339,-1.052358,2.819719,0.196421,-0.452631,-1.459791,1.192048,-1.803266,-6.310010,1.095801,5.812804,2.655748,-14.916520,20.069339,0.101494,0.125044,0.000000,0.135551,0.593760,0.000000
2.740000,0.660621,-1.188315,-1.056974,2.804806,0.208394,-0.470369,-1.522746,1.202245,-1.744150,-6.256169,0.959845,6.018386,16.004377,-6.439910,24.236246,0.102797,0.131037,0.000000,0.126596,0.596532,0.000000
2.750000,0.688592,-1.186171,-1.061764,2.789269,0.220463,-0.487506,-1.584293,1.211658,-1.682688,-6.057133,0.917357,6.270179,15.923031,-7.880316,22.924762,0.104064,0.136989,0.000000,0.126169,0.587823,0.000000
2.760000,0.716404,-1.183905,-1.066722,2.773126,0.232625,-0.504015,-1.643984,1.220455,-1.618833,-5.878228,0.841375,6.499808,16.677418,-8.787523,21.891385,0.105308,0.142865,0.000000,0.122731,0.580820,-0.000000
2.770000,0.744053,-1.181518,-1.071842,2.756395,0.244870,-0.519875,-1.702091,1.228336,-1.552817,-5.752868,0.728090,6.697720,11.476567,-12.438870,18.753160,0.106504,0.148689,0.000000,0.115750,0.578240,-0.000000
2.780000,0.771530,-1.179008,-1.077117,2.739089,0.257187,-0.535065,-1.758873,1.235054,-1.484865,-5.583982,0.622643,6.897180,22.395068,-8.602885,21.165218,0.107627,0.154483,0.000000,0.109486,0.572188,0.000000
2.790000,0.798832,-1.176374,-1.082541,2.721224,0.269568,-0.549565,-1.813587,1.240833,-1.414856,-5.367400,0.527203,7.099249,17.805534,-11.923401,18.161810,0.108698,0.160185,0.000000,0.104172,0.562254,-0.000000
2.800000,0.825953,-1.173616,-1.088106,2.702823,0.282000,-0.563356,-1.866445,1.245455,-1.343005,-5.201481,0.396510,7.269442,18.479163,-12.772759,16.945964,0.109696,0.165813,0.000000,0.095377,0.556410,-0.000000
2.810000,0.852887,-1.170734,-1.093806,2.683902,0.294472,-0.576420,-1.917527,1.248769,-1.269496,-5.014278,0.264752,7.429979,18.937654,-13.672409,15.572496,0.110606,0.171372,0.000000,0.086346,0.548724,-0.000000
2.820000,0.879629,-1.167726,-1.099632,2.664479,0.306971,-0.588741,-1.966717,1.250713,-1.194418,-4.822986,0.122268,7.584601,19.336560,-14.722026,14.939616,0.111419,0.176853,0.000000,0.076217,0.540705,-0.000000
2.830000,0.906175,-1.164594,-1.105578,2.644574,0.319482,-0.600303,-2.013972,1.251190,-1.117870,-4.627212,-0.027534,7.720124,19.814899,-15.228245,12.145987,0.112127,0.182252,0.000000,0.065132,0.532082,0.000000
2.840000,0.932519,-1.161337,-1.111636,2.624206,0.331990,-0.611094,-2.059247,1.250140,-1.040086,-4.427168,-0.184090,7.835607,20.169769,-16.171915,11.354343,0.112719,0.187560,0.000000,0.053096,0.522801,0.000000
2.850000,0.958658,-1.157954,-1.117797,2.603395,0.344479,-0.621101,-2.102504,1.247476,-0.961176,-4.223737,-0.349983,7.943620,20.531828,-16.900689,9.834749,0.113185,0.192773,0.000000,0.039966,0.513108,-0.000000
2.860000,0.984586,-1.154447,-1.124055,2.582163,0.356934,-0.630314,-2.143711,1.243126,-0.881280,-4.017091,-0.521014,8.032855,20.857627,-17.551766,8.280602,0.113515,0.197886,0.000000,0.025971,0.502786,0.000000
2.870000,1.010300,-1.150816,-1.130401,2.560528,0.369336,-0.638724,-2.182831,1.237014,-0.800549,-3.806084,-0.703174,8.111656,21.275793,-18.621689,7.210434,0.113700,0.202892,0.000000,0.010619,0.491834,-0.000000
2.880000,1.035795,-1.147061,-1.136827,2.538513,0.381668,-0.646323,-2.219826,1.229055,-0.719112,-3.593001,-0.888025,8.171423,21.333728,-18.329766,4.731307,0.113726,0.207785,0.000000,-0.005452,0.480255,0.000000
2.890000,1.061069,-1.143183,-1.143325,2.516139,0.393911,-0.653105,-2.254686,1.219250,-0.637188,-3.378239,-1.074567,8.211581,21.676940,-19.217888,3.564889,0.113588,0.212557,0.000000,-0.022184,0.468022,0.000000
2.900000,1.086117,-1.139183,-1.149886,2.493427,0.406046,-0.659066,-2.287379,1.207530,-0.554914,-3.160112,-1.270018,8.240401,21.879531,-19.610241,1.930318,0.113277,0.217203,0.000000,-0.040185,0.455094,-0.000000
2.910000,1.110936,-1.135062,-1.156503,2.470398,0.418055,-0.664203,-2.317885,1.193852,-0.472445,-2.940976,-1.465704,8.250490,22.041118,-19.901872,0.280593,0.112783,0.221716,0.000000,-0.058764,0.441494,-0.000000
2.920000,1.135524,-1.130822,-1.163167,2.447076,0.429917,-0.668514,-2.346185,1.178176,-0.389943,-2.718500,-1.671368,8.247774,22.352617,-20.841900,-1.012258,0.112097,0.226087,0.000000,-0.078796,0.427081,0.000000
2.930000,1.159877,-1.126465,-1.169871,2.423482,0.441611,-0.672002,-2.372256,1.160437,-0.307554,-2.496050,-1.874385,8.226298,22.128387,-19.736497,-3.288396,0.111206,0.230309,0.000000,-0.099193,0.411994,-0.000000
2.940000,1.183993,-1.121991,-1.176605,2.399639,0.453119,-0.674667,-2.396109,1.140704,-0.225482,-2.274117,-2.073441,8.185822,22.348706,-20.440897,-4.615970,0.110112,0.234376,0.000000,-0.119838,0.396224,0.000000
2.950000,1.207869,-1.117403,-1.183361,2.375567,0.464419,-0.676513,-2.417730,1.118937,-0.143877,-2.050018,-2.279708,8.132399,22.368686,-20.420192,-6.255620,0.108805,0.238279,0.000000,-0.141750,0.379610,0.000000
2.960000,1.231503,-1.112703,-1.190132,2.351291,0.475491,-0.677546,-2.437113,1.095131,-0.062894,-1.826770,-2.480991,8.061453,22.349297,-20.289568,-7.874461,0.107277,0.242011,0.000000,-0.163825,0.362289,0.000000
2.970000,1.254894,-1.107894,-1.196909,2.326833,0.486315,-0.677773,-2.454260,1.069285,0.017303,-1.602470,-2.689519,7.975493,22.432031,-20.949365,-9.368101,0.105523,0.245563,0.000000,-0.187229,0.344095,0.000000
2.980000,1.278039,-1.102978,-1.203685,2.302214,0.496870,-0.677203,-2.469168,1.041370,0.096560,-1.379778,-2.890198,7.873032,22.097672,-19.158680,-11.121207,0.103533,0.248929,0.000000,-0.210520,0.325208,0.000000
2.990000,1.300938,-1.097958,-1.210451,2.277457,0.507136,-0.675846,-2.481863,1.011516,0.174709,-1.159177,-3.081583,7.754274,22.089320,-19.562223,-12.569699,0.101314,0.252100,0.000000,-0.233529,0.305642,-0.000000
3.000000,1.323588,-1.092836,-1.217199,2.252584,0.517093,-0.673713,-2.492351,0.979716,0.251599,-0.938741,-3.277297,7.621292,21.918527,-19.110932,-14.075176,0.098858,0.255070,0.000000,-0.257575,0.285230,-0.000000
3.010000,1.345989,-1.087617,-1.223923,2.227617,0.526724,-0.670819,-2.500650,0.946008,0.327086,-0.721415,-3.463278,7.473774,21.696562,-18.556517,-15.524210,0.096164,0.257831,0.000000,-0.281251,0.264221,0.000000
3.020000,1.368140,-1.082303,-1.230613,2.202578,0.536007,-0.667177,-2.506775,0.910431,0.401019,-0.503500,-3.652628,7.310014,21.728541,-18.831520,-17.119608,0.093229,0.260375,0.000000,-0.305864,0.242181,-0.000000
3.030000,1.390041,-1.076898,-1.237264,2.177489,0.544926,-0.662804,-2.510736,0.872999,0.473245,-0.290153,-3.829803,7.133655,20.929835,-16.576890,-18.140025,0.090049,0.262695,0.000000,-0.329793,0.219689,-0.000000
3.040000,1.411690,-1.071406,-1.243867,2.152370,0.553462,-0.657718,-2.512596,0.833884,0.543653,-0.081960,-3.993437,6.945375,20.855543,-16.612913,-19.607216,0.086637,0.264786,0.000000,-0.352833,0.196815,0.000000
3.050000,1.433088,-1.065830,-1.250416,2.127244,0.561598,-0.651937,-2.512375,0.793120,0.612103,0.125537,-4.157815,6.742574,20.485308,-15.779154,-20.841940,0.082990,0.266642,0.000000,-0.376429,0.173031,0.000000
3.060000,1.454235,-1.060175,-1.256903,2.102130,0.569319,-0.645483,-2.510118,0.750775,0.678472,0.324800,-4.309457,6.529371,20.016911,-14.876380,-21.994699,0.079112,0.268259,0.000000,-0.399120,0.149206,0.000000
3.070000,1.475131,-1.054445,-1.263323,2.077048,0.576609,-0.638375,-2.505842,0.706934,0.742636,0.531798,-4.458254,6.301004,20.741702,-14.546853,-23.465672,0.075007,0.269629,0.000000,-0.421887,0.123581,-0.000000
3.080000,1.495776,-1.048644,-1.269669,2.052020,0.583453,-0.630638,-2.499529,0.661658,0.804466,0.726185,-4.593352,6.064527,18.111339,-12.454140,-23.810756,0.070678,0.270740,0.000000,-0.443519,0.098426,0.000000
3.090000,1.516171,-1.042777,-1.275934,2.027064,0.589838,-0.622294,-2.491369,0.615119,0.863905,0.906808,-4.713798,5.820975,18.651449,-11.957862,-25.089668,0.066141,0.271605,0.000000,-0.463828,0.073932,0.000000
3.100000,1.536318,-1.036849,-1.282113,2.002198,0.595751,-0.613368,-2.481360,0.567392,0.920840,1.093696,-4.829567,5.564726,18.082830,-10.860017,-25.943611,0.061402,0.272215,0.000000,-0.483812,0.047882,-0.000000
3.110000,1.556216,-1.030864,-1.288199,1.977443,0.601182,-0.603886,-2.469504,0.518572,0.975190,1.277231,-4.932592,5.304381,17.645969,-9.745957,-26.665300,0.056469,0.272563,0.000000,-0.502498,0.021535,-0.000000
3.120000,1.575867,-1.024827,-1.294189,1.952814,0.606119,-0.593873,-2.455910,0.468777,1.026860,1.437588,-5.024442,5.026608,15.369135,-8.612984,-28.337494,0.051356,0.272653,0.000000,-0.520084,-0.003382,0.000000
3.130000,1.595272,-1.018743,-1.300075,1.928330,0.610554,-0.583358,-2.440724,0.418122,1.075727,1.604429,-5.104632,4.749207,18.025822,-7.420780,-27.111404,0.046072,0.272491,0.000000,-0.536284,-0.029418,-0.000000
3.140000,1.614434,-1.012618,-1.305854,1.904006,0.614479,-0.572368,-2.423788,0.366724,1.121855,1.778899,-5.172917,4.473796,15.909735,-6.239652,-28.498846,0.040635,0.272059,0.000000,-0.551011,-0.056638,0.000000
3.150000,1.633353,-1.006455,-1.311521,1.879859,0.617887,-0.560930,-2.405238,0.314703,1.165146,1.930675,-5.229318,4.184132,15.394562,-5.031923,-28.878203,0.035057,0.271365,0.000000,-0.564298,-0.082248,0.000000
3.160000,1.652032,-1.000262,-1.317072,1.855906,0.620772,-0.549074,-2.385174,0.262183,1.205546,2.081199,-5.272449,3.895432,14.787451,-3.792506,-29.168824,0.029355,0.270412,0.000000,-0.575821,-0.108028,0.000000
3.170000,1.670472,-0.994042,-1.322501,1.832161,0.623129,-0.536829,-2.363629,0.209279,1.243020,2.227067,-5.306995,3.598081,14.306009,-2.922469,-29.974347,0.023544,0.269203,0.000000,-0.586074,-0.133854,0.000000
3.180000,1.688676,-0.987801,-1.327807,1.808638,0.624956,-0.524224,-2.340657,0.156094,1.277516,2.365639,-5.326829,3.302799,13.402145,-1.039192,-29.057799,0.017640,0.267737,0.000000,-0.594273,-0.159068,0.000000
3.190000,1.706646,-0.981544,-1.332985,1.785352,0.626251,-0.511289,-2.316342,0.102794,1.309090,2.496575,-5.331731,3.010885,12.858141,-0.138855,-29.626452,0.011666,0.266023,0.000000,-0.600336,-0.183535,0.000000
3.200000,1.724384,-0.975278,-1.338032,1.762315,0.627012,-0.498052,-2.290743,0.049485,1.337710,2.622065,-5.327989,2.713234,12.158921,1.079461,-29.575173,0.005638,0.264067,0.000000,-0.604932,-0.207710,0.000000
3.210000,1.741893,-0.969006,-1.342945,1.739541,0.627241,-0.484544,-2.263955,-0.003731,1.363373,2.733459,-5.313417,2.419879,11.308664,2.221771,-29.423080,-0.000427,0.261875,0.000000,-0.607759,-0.230284,-0.000000
3.220000,1.759175,-0.962735,-1.347722,1.717040,0.626938,-0.470794,-2.236005,-0.056714,1.386086,2.859141,-5.280044,2.121907,12.667678,4.069287,-29.827334,-0.006507,0.259453,0.000000,-0.607867,-0.254603,-0.000000
3.230000,1.776234,-0.956469,-1.352360,1.694825,0.626108,-0.456832,-2.206855,-0.109313,1.405836,2.962467,-5.240087,1.830537,7.959271,3.904892,-28.423336,-0.012580,0.256793,0.000000,-0.606622,-0.276233,-0.000000
3.240000,1.793073,-0.950214,-1.356858,1.672906,0.624753,-0.442687,-2.176845,-0.161500,1.422725,3.041700,-5.194392,1.547002,9.054226,5.610916,-28.605224,-0.018636,0.253939,0.000000,-0.604111,-0.294868,-0.000000
3.250000,1.809694,-0.943976,-1.361213,1.651291,0.622880,-0.428387,-2.145959,-0.213136,1.436763,3.133615,-5.131242,1.261509,8.164557,6.630695,-28.148353,-0.024652,0.250888,0.000000,-0.598970,-0.314847,0.000000
3.260000,1.826100,-0.937758,-1.365425,1.629990,0.620493,-0.413961,-2.114211,-0.264114,1.447988,3.215132,-5.063258,0.984533,7.429686,7.566444,-27.602526,-0.030612,0.247645,0.000000,-0.592665,-0.333254,-0.000000
3.270000,1.842294,-0.931567,-1.369492,1.609009,0.617600,-0.399437,-2.081738,-0.314321,1.456443,3.275696,-4.974468,0.706301,5.372818,9.595021,-27.677380,-0.036494,0.244229,0.000000,-0.583307,-0.349132,-0.000000
3.280000,1.858281,-0.925408,-1.373414,1.588357,0.614210,-0.384842,-2.048689,-0.363602,1.462152,3.337074,-4.883880,0.438663,6.925734,8.496745,-25.829208,-0.042276,0.240659,0.000000,-0.573171,-0.364554,-0.000000
3.290000,1.874063,-0.919285,-1.377189,1.568038,0.610331,-0.370202,-2.014985,-0.412001,1.465258,3.400309,-4.792761,0.182703,5.027779,10.314360,-25.713305,-0.047956,0.236932,0.000000,-0.562459,-0.379597,-0.000000
3.300000,1.889643,-0.913203,-1.380818,1.548059,0.605973,-0.355545,-1.980761,-0.459384,1.465803,3.443566,-4.682798,-0.072386,4.319100,11.077403,-24.937255,-0.053515,0.233068,0.000000,-0.548983,-0.392063,0.000000
3.310000,1.905025,-0.907167,-1.384300,1.528424,0.601147,-0.340895,-1.946116,-0.505648,1.463843,3.484419,-4.568840,-0.318269,3.605793,11.819432,-24.146614,-0.058933,0.229082,0.000000,-0.534570,-0.403690,0.000000
3.320000,1.920213,-0.901182,-1.387636,1.509138,0.595864,-0.326276,-1.911117,-0.550728,1.459471,3.513444,-4.445524,-0.554395,2.441862,12.726304,-23.154588,-0.064201,0.224987,0.000000,-0.518630,-0.413389,-0.000000
3.330000,1.935209,-0.895251,-1.390825,1.490202,0.590136,-0.311713,-1.875859,-0.594541,1.452780,3.538348,-4.316776,-0.782970,2.548757,13.012029,-22.557237,-0.069303,0.220800,0.000000,-0.501664,-0.422085,0.000000
3.340000,1.950018,-0.889380,-1.393870,1.471621,0.583977,-0.297228,-1.840360,-0.637048,1.443837,3.559602,-4.183221,-1.003755,1.461567,13.801753,-21.510954,-0.074231,0.216528,0.000000,-0.483794,-0.429825,0.000000
3.350000,1.964643,-0.883573,-1.396770,1.453396,0.577400,-0.282844,-1.804709,-0.678178,1.432742,3.569690,-4.041840,-1.213800,0.800258,14.355929,-20.576808,-0.078974,0.212187,0.000000,-0.464731,-0.435685,-0.000000
3.360000,1.979087,-0.877834,-1.399527,1.435527,0.570419,-0.268580,-1.768984,-0.717875,1.419589,3.574104,-3.896882,-1.415136,0.132859,14.845276,-19.619526,-0.083524,0.207791,0.000000,-0.445015,-0.440351,-0.000000
3.370000,1.993354,-0.872166,-1.402142,1.418016,0.563048,-0.254458,-1.733245,-0.756082,1.404477,3.572837,-3.743091,-1.605505,-0.430034,15.693973,-18.515919,-0.087870,0.203353,0.000000,-0.424112,-0.443783,-0.000000
3.380000,2.007448,-0.866574,-1.404617,1.400862,0.555302,-0.240497,-1.697551,-0.792733,1.387509,3.564585,-3.587589,-1.786758,-1.219016,15.392224,-17.734309,-0.092005,0.198885,0.000000,-0.402881,-0.445895,0.000000
3.390000,2.021373,-0.861061,-1.406953,1.384065,0.547198,-0.226714,-1.661976,-0.827832,1.368772,3.549449,-3.431131,-1.958833,-1.758558,16.104888,-16.613124,-0.095928,0.194401,0.000000,-0.381458,-0.446718,-0.000000
3.400000,2.035131,-0.855631,-1.409152,1.367622,0.538751,-0.213127,-1.626579,-0.861327,1.348371,3.529076,-3.267450,-2.119545,-2.359654,16.411350,-15.593185,-0.099631,0.189913,0.000000,-0.359199,-0.446416,-0.000000
3.410000,2.048726,-0.850287,-1.411216,1.351532,0.529977,-0.199752,-1.591415,-0.893176,1.326410,3.502625,-3.101881,-2.271189,-2.938510,16.688273,-14.580792,-0.103111,0.185432,0.000000,-0.336740,-0.444973,0.000000
3.420000,2.062163,-0.845033,-1.413148,1.335793,0.520893,-0.186604,-1.556546,-0.923357,1.302994,3.470259,-2.933890,-2.409748,-3.520024,16.909280,-13.279252,-0.106365,0.180970,0.000000,-0.314113,-0.442352,-0.000000
3.430000,2.075443,-0.839870,-1.414949,1.320400,0.511516,-0.173696,-1.522028,-0.951847,1.278242,3.432530,-2.763699,-2.539892,-4.021875,17.122302,-12.754594,-0.109393,0.176538,0.000000,-0.291333,-0.438747,-0.000000
3.440000,2.088572,-0.834803,-1.416623,1.305351,0.501862,-0.161043,-1.487912,-0.978625,1.252222,3.389658,-2.591716,-2.661849,-4.560696,17.260773,-11.487657,-0.112192,0.172146,0.000000,-0.268481,-0.434215,0.000000
3.450000,2.101551,-0.829834,-1.418171,1.290640,0.491949,-0.148656,-1.454253,-1.003677,1.225050,3.341486,-2.418566,-2.770943,-5.058607,17.369367,-10.481595,-0.114763,0.167803,0.000000,-0.245720,-0.428681,0.000000
3.460000,2.114386,-0.824965,-1.419597,1.276264,0.481794,-0.136545,-1.421100,-1.027000,1.196831,3.288124,-2.245925,-2.871375,-5.542729,17.409405,-9.488391,-0.117107,0.163518,0.000000,-0.223221,-0.422272,-0.000000
3.470000,2.127078,-0.820199,-1.420903,1.262217,0.471415,-0.124722,-1.388500,-1.048574,1.167665,3.231327,-2.068140,-2.959662,-5.877998,17.891986,-8.286024,-0.119226,0.159301,0.000000,-0.200420,-0.415155,0.000000
3.480000,2.139631,-0.815537,-1.422092,1.248492,0.460828,-0.113195,-1.356492,-1.068374,1.137665,3.169272,-1.893444,-3.039554,-6.530986,17.033696,-7.698462,-0.121118,0.155159,0.000000,-0.178219,-0.407226,-0.000000
3.490000,2.152049,-0.810983,-1.423168,1.235085,0.450053,-0.101972,-1.325133,-1.086458,1.106900,3.102113,-1.722533,-3.111366,-6.830655,17.394650,-6.551108,-0.122792,0.151099,0.000000,-0.156705,-0.398538,0.000000
3.500000,2.164334,-0.806537,-1.424133,1.221987,0.439105,-0.091059,-1.294458,-1.102808,1.075478,3.032185,-1.547796,-3.171630,-7.216115,17.296754,-5.619978,-0.124251,0.147129,0.000000,-0.135094,-0.389321,0.000000
3.510000,2.176490,-0.802201,-1.424990,1.209193,0.428002,-0.080464,-1.264497,-1.117418,1.043491,2.959475,-1.374232,-3.224322,-7.545489,17.207744,-4.724641,-0.125496,0.143254,0.000000,-0.113903,-0.379669,0.000000
3.520000,2.188519,-0.797977,-1.425743,1.196695,0.416762,-0.070191,-1.235297,-1.130313,1.011037,2.879305,-1.205608,-3.264382,-8.266571,16.709928,-3.483097,-0.126533,0.139480,0.000000,-0.093620,-0.369011,-0.000000
3.530000,2.200424,-0.793866,-1.426395,1.184484,0.405402,-0.060244,-1.206911,-1.141525,0.978223,2.798800,-1.035977,-3.298092,-7.823000,17.218062,-3.269048,-0.127369,0.135814,0.000000,-0.073513,-0.358262,0.000000
3.540000,2.212209,-0.789870,-1.426949,1.172554,0.393938,-0.050627,-1.179318,-1.151027,0.945093,2.718537,-0.865329,-3.325972,-8.444662,16.707965,-2.117998,-0.128003,0.132256,0.000000,-0.053583,-0.347507,0.000000
3.550000,2.223876,-0.785988,-1.427408,1.160895,0.382387,-0.041343,-1.152565,-1.158854,0.911746,2.631859,-0.700209,-3.342184,-8.667278,16.510788,-1.322329,-0.128444,0.128810,0.000000,-0.034617,-0.335949,-0.000000
3.560000,2.235428,-0.782222,-1.427777,1.149500,0.370766,-0.032393,-1.126682,-1.165027,0.878269,2.544352,-0.534650,-3.351927,-8.872383,16.308523,-0.551869,-0.128696,0.125481,0.000000,-0.015895,-0.324299,0.000000
3.570000,2.246867,-0.778573,-1.428057,1.138359,0.359092,-0.023778,-1.101688,-1.169577,0.844739,2.454107,-0.376773,-3.352591,-9.130945,15.542636,0.337128,-0.128766,0.122271,0.000000,0.001669,-0.312325,0.000000
3.580000,2.258196,-0.775040,-1.428254,1.127463,0.347380,-0.015498,-1.077604,-1.172558,0.811238,2.362689,-0.218005,-3.346902,-9.146932,16.215540,0.793204,-0.128663,0.119183,0.000000,0.019056,-0.300252,0.000000
3.590000,2.269417,-0.771625,-1.428368,1.116803,0.335646,-0.007553,-1.054437,-1.173932,0.777820,2.270416,-0.058206,-3.335277,-9.345279,15.457468,1.604119,-0.128385,0.116216,0.000000,0.036287,-0.288128,0.000000
3.600000,2.280533,-0.768328,-1.428406,1.106371,0.323906,0.000059,-1.032203,-1.173754,0.744561,2.176223,0.093456,-3.315592,-9.447449,15.152450,2.250395,-0.127942,0.113373,0.000000,0.052353,-0.275822,-0.000000
3.610000,2.291545,-0.765147,-1.428368,1.096156,0.312176,0.007339,-1.010915,-1.172078,0.711525,2.081124,0.240690,-3.290559,-9.531410,14.752344,2.856680,-0.127341,0.110654,0.000000,0.067708,-0.263487,-0.000000
3.620000,2.302457,-0.762084,-1.428260,1.086150,0.300470,0.014290,-0.990580,-1.168916,0.678778,1.986017,0.392673,-3.257597,-9.521702,15.191672,3.627038,-0.126586,0.108060,0.000000,0.083310,-0.251193,-0.000000
3.630000,2.313269,-0.759138,-1.428084,1.076342,0.288803,0.020916,-0.971198,-1.164260,0.646387,1.890021,0.535029,-3.220291,-9.674599,13.261745,3.825285,-0.125679,0.105590,0.000000,0.097678,-0.238894,-0.000000
3.640000,2.323984,-0.756308,-1.427843,1.066722,0.277189,0.027219,-0.952782,-1.158254,0.614384,1.793330,0.666911,-3.179129,-9.623423,13.564069,4.505025,-0.124637,0.103244,0.000000,0.110750,-0.226618,-0.000000
3.650000,2.334604,-0.753594,-1.427540,1.057283,0.265642,0.033205,-0.935329,-1.150902,0.582829,1.697326,0.802401,-3.131190,-9.609396,13.079478,4.973462,-0.123463,0.101022,0.000000,0.124000,-0.214481,0.000000
3.660000,2.345130,-0.750995,-1.427180,1.048013,0.254175,0.038878,-0.918830,-1.142232,0.551769,1.602695,0.930750,-3.080166,-9.543117,12.605242,5.394669,-0.122160,0.098921,0.000000,0.136344,-0.202597,-0.000000
3.670000,2.355565,-0.748510,-1.426764,1.038903,0.242802,0.044242,-0.903291,-1.132302,0.521253,1.504435,1.054621,-3.021847,-9.882783,12.149425,6.098386,-0.120738,0.096941,0.000000,0.148033,-0.190390,0.000000
3.680000,2.365909,-0.746138,-1.426296,1.029944,0.231533,0.049305,-0.888727,-1.121157,0.491337,1.409780,1.173335,-2.961779,-9.037668,11.590938,5.904318,-0.119202,0.095083,0.000000,0.159073,-0.178684,-0.000000
3.690000,2.376164,-0.743879,-1.425779,1.021125,0.220382,0.054071,-0.875080,-1.108853,0.462020,1.319251,1.286754,-2.900537,-9.289358,11.108539,6.505034,-0.117559,0.093340,0.000000,0.169468,-0.167530,-0.000000
3.700000,2.386332,-0.741730,-1.425215,1.012439,0.209360,0.058547,-0.862355,-1.095438,0.433349,1.225960,1.395329,-2.833211,-9.141733,10.588168,6.789137,-0.115815,0.091710,0.000000,0.179227,-0.156152,0.000000
3.710000,2.396413,-0.739691,-1.424609,1.003875,0.198477,0.062740,-0.850551,-1.080960,0.405360,1.135167,1.499629,-2.764274,-8.993190,10.083195,7.045144,-0.113976,0.090194,0.000000,0.188472,-0.145143,0.000000
3.720000,2.406410,-0.737760,-1.423962,0.995425,0.187744,0.066657,-0.839645,-1.065478,0.378076,1.046342,1.595250,-2.691932,-8.789512,9.222332,7.366966,-0.112049,0.088788,0.000000,0.196735,-0.134423,0.000000
3.730000,2.416322,-0.735936,-1.423277,0.987079,0.177171,0.070304,-0.829619,-1.049063,0.351525,0.959000,1.687884,-2.618111,-8.677171,9.309616,7.390587,-0.110042,0.087488,0.000000,0.204646,-0.123955,0.000000
3.740000,2.426152,-0.734216,-1.422556,0.978830,0.166766,0.073690,-0.820460,-1.031728,0.325717,0.873254,1.777750,-2.543193,-8.449248,8.479445,7.639380,-0.107957,0.086292,0.000000,0.212240,-0.113748,0.000000
3.750000,2.435899,-0.732600,-1.421804,0.970667,0.156539,0.076821,-0.812146,-1.013540,0.300670,0.789878,1.859029,-2.465861,-8.244141,7.959142,7.770783,-0.105801,0.085198,0.000000,0.218908,-0.103864,0.000000
3.760000,2.445565,-0.731085,-1.421021,0.962584,0.146498,0.079706,-0.804658,-0.994561,0.276400,0.708117,1.935827,-2.388127,-8.034407,7.423605,7.865816,-0.103580,0.084203,0.000000,0.225109,-0.094236,0.000000
3.770000,2.455151,-0.729669,-1.420210,0.954571,0.136650,0.082352,-0.797971,-0.974839,0.252918,0.629884,2.007717,-2.307768,-7.680203,6.931947,8.109637,-0.101300,0.083302,0.000000,0.230783,-0.085035,-0.000000
3.780000,2.464657,-0.728351,-1.419374,0.946622,0.127003,0.084767,-0.792056,-0.954426,0.230242,0.553080,2.073994,-2.227951,-7.681489,6.323160,7.846491,-0.098966,0.082492,0.000000,0.235900,-0.076066,-0.000000
3.790000,2.474084,-0.727128,-1.418516,0.938728,0.117564,0.086959,-0.786905,-0.933379,0.208355,0.477693,2.134647,-2.149067,-7.324111,5.830731,8.018830,-0.096584,0.081772,0.000000,0.240469,-0.067325,-0.000000
3.800000,2.483432,-0.725999,-1.417636,0.930881,0.108338,0.088936,-0.782488,-0.911749,0.187268,0.406021,2.190431,-2.068441,-7.078873,5.303604,8.009929,-0.094158,0.081138,0.000000,0.244546,-0.059019,0.000000
3.810000,2.492701,-0.724961,-1.416738,0.923076,0.099330,0.090707,-0.778779,-0.889587,0.166983,0.336256,2.241146,-1.988607,-6.827380,4.788490,7.980827,-0.091695,0.080586,0.000000,0.248141,-0.050976,0.000000
3.820000,2.501893,-0.724012,-1.415823,0.915304,0.090547,0.092279,-0.775751,-0.866947,0.147497,0.269913,2.285744,-1.908642,-6.484674,4.182458,7.981870,-0.089198,0.080113,0.000000,0.251144,-0.043339,-0.000000
3.830000,2.511008,-0.723149,-1.414893,0.907558,0.081993,0.093660,-0.773374,-0.843886,0.128807,0.205652,2.325874,-1.829600,-6.368005,3.846407,7.822436,-0.086673,0.079715,0.000000,0.253738,-0.035973,0.000000
3.840000,2.520045,-0.722371,-1.413950,0.899834,0.073671,0.094858,-0.771631,-0.820444,0.110901,0.143463,2.361681,-1.751713,-6.024493,3.265561,7.779027,-0.084124,0.079390,0.000000,0.255943,-0.028874,-0.000000
3.850000,2.529004,-0.721675,-1.412996,0.892124,0.065585,0.095880,-0.770492,-0.796673,0.093772,0.084798,2.391646,-1.674305,-5.752498,2.779608,7.672498,-0.081556,0.079134,0.000000,0.257599,-0.022178,-0.000000
3.860000,2.537887,-0.721059,-1.412033,0.884422,0.057738,0.096736,-0.769928,-0.772624,0.077411,0.028502,2.417332,-1.598118,-5.477407,2.305914,7.552816,-0.078973,0.078944,0.000000,0.258876,-0.015770,-0.000000
3.870000,2.546693,-0.720519,-1.411062,0.876723,0.050133,0.097431,-0.769910,-0.748346,0.061804,-0.024477,2.437309,-1.523387,-5.145811,1.742927,7.400480,-0.076380,0.078816,0.000000,0.259630,-0.009742,-0.000000
3.880000,2.555422,-0.720055,-1.410085,0.869022,0.042772,0.097974,-0.770409,-0.723891,0.046939,-0.074989,2.453313,-1.449954,-4.957113,1.461358,7.284303,-0.073782,0.078747,0.000000,0.260040,-0.004003,-0.000000
3.890000,2.564073,-0.719663,-1.409103,0.861314,0.035656,0.098372,-0.771402,-0.699292,0.032801,-0.123051,2.465529,-1.377930,-4.626883,0.931674,7.109044,-0.071181,0.078735,0.000000,0.260125,0.001453,0.000000
3.900000,2.572648,-0.719341,-1.408118,0.853593,0.028787,0.098633,-0.772859,-0.674599,0.019374,-0.167760,2.472430,-1.307727,-4.342778,0.502700,6.939582,-0.068581,0.078775,0.000000,0.259732,0.006535,0.000000
3.910000,2.581145,-0.719087,-1.407131,0.845855,0.022164,0.098762,-0.774749,-0.649855,0.006642,-0.209778,2.475628,-1.239002,-4.055948,0.088888,6.764590,-0.065987,0.078865,0.000000,0.259024,0.011315,0.000000
3.920000,2.589565,-0.718897,-1.406143,0.838096,0.015789,0.098768,-0.777044,-0.625104,-0.005415,-0.248820,2.473793,-1.172827,-3.758037,-0.405153,6.507712,-0.063402,0.079001,0.000000,0.257871,0.015760,-0.000000
3.930000,2.597907,-0.718770,-1.405156,0.830313,0.009662,0.098656,-0.779716,-0.600390,-0.016819,-0.285056,2.468588,-1.108062,-3.489373,-0.631886,6.445376,-0.060831,0.079180,0.000000,0.256435,0.019899,0.000000
3.940000,2.606171,-0.718703,-1.404170,0.822501,0.003781,0.098433,-0.782736,-0.575743,-0.027581,-0.318495,2.460221,-1.044716,-3.192872,-1.088163,6.184195,-0.058274,0.079399,0.000000,0.254735,0.023735,-0.000000
3.950000,2.614357,-0.718694,-1.403187,0.814657,-0.001853,0.098106,-0.786076,-0.551202,-0.037723,-0.348962,2.447288,-0.984062,-2.906506,-1.447111,5.984511,-0.055737,0.079654,0.000000,0.252636,0.027243,-0.000000
3.960000,2.622464,-0.718739,-1.402208,0.806778,-0.007243,0.097681,-0.789706,-0.526806,-0.047267,-0.376650,2.431306,-0.924961,-2.622119,-1.789661,5.784611,-0.053222,0.079943,0.000000,0.250282,0.030454,-0.000000
3.970000,2.630492,-0.718838,-1.401234,0.798862,-0.012390,0.097163,-0.793598,-0.502591,-0.056233,-0.401325,2.411150,-0.868844,-2.322160,-2.197489,5.487696,-0.050733,0.080263,0.000000,0.247567,0.033334,-0.000000
3.980000,2.638441,-0.718986,-1.400265,0.790906,-0.017296,0.096558,-0.797724,-0.478592,-0.064648,-0.423287,2.388280,-0.814181,-2.070844,-2.372511,5.446253,-0.048272,0.080610,0.000000,0.244627,0.035929,0.000000
3.990000,2.646310,-0.719183,-1.399303,0.782907,-0.021963,0.095872,-0.802055,-0.454833,-0.072521,-0.442570,2.362908,-0.760914,-1.777155,-2.741364,5.157427,-0.045841,0.080981,0.000000,0.241483,0.038242,-0.000000
4.000000,2.654099,-0.719425,-1.398348,0.774864,-0.026393,0.095109,-0.806565,-0.431347,-0.079877,-0.458916,2.333860,-0.710610,-1.501583,-3.023702,4.953044,-0.043443,0.081375,0.000000,0.238020,0.040237,-0.000000
4.010000,2.661807,-0.719710,-1.397401,0.766775,-0.030590,0.094276,-0.811225,-0.408163,-0.086738,-0.472657,2.302461,-0.661814,-1.230462,-3.289225,4.752537,-0.041081,0.081786,0.000000,0.234365,0.041960,0.000000
4.020000,2.669434,-0.720036,-1.396463,0.758639,-0.034558,0.093376,-0.816008,-0.385309,-0.093125,-0.483384,2.267798,-0.616048,-0.931709,-3.606121,4.453223,-0.038757,0.082213,0.000000,0.230429,0.043358,-0.000000
4.030000,2.676980,-0.720400,-1.395534,0.750455,-0.038298,0.092415,-0.820885,-0.362814,-0.099063,-0.491644,2.231119,-0.571645,-0.721365,-3.726117,4.429363,-0.036473,0.082653,0.000000,0.226329,0.044501,0.000000
4.040000,2.684443,-0.720801,-1.394615,0.742221,-0.041815,0.091396,-0.825833,-0.340693,-0.104561,-0.497497,2.192625,-0.528507,-0.433772,-4.004970,4.146275,-0.034231,0.083103,0.000000,0.222083,0.045397,-0.000000
4.050000,2.691824,-0.721236,-1.393706,0.733938,-0.045113,0.090325,-0.830825,-0.318971,-0.109644,-0.500479,2.151368,-0.488261,-0.178915,-4.209091,3.956053,-0.032032,0.083560,0.000000,0.217600,0.045984,-0.000000
4.060000,2.699122,-0.721703,-1.392809,0.725605,-0.048196,0.089205,-0.835834,-0.297670,-0.114330,-0.501009,2.108478,-0.449361,0.072473,-4.396796,3.772416,-0.029879,0.084022,0.000000,0.212986,0.046320,0.000000
4.070000,2.706336,-0.722199,-1.391922,0.717221,-0.051068,0.088040,-0.840837,-0.276810,-0.118641,-0.499045,2.063202,-0.413279,0.319253,-4.626291,3.495624,-0.027773,0.084486,0.000000,0.208167,0.046387,0.000000
4.080000,2.713466,-0.722723,-1.391048,0.708788,-0.053734,0.086833,-0.845807,-0.256410,-0.122600,-0.494647,2.016622,-0.378369,0.559284,-4.686422,3.488785,-0.025716,0.084950,0.000000,0.203245,0.046206,-0.000000
4.090000,2.720512,-0.723273,-1.390186,0.700305,-0.056198,0.085589,-0.850722,-0.236481,-0.126212,-0.487872,1.968926,-0.344511,0.794998,-4.880192,3.232501,-0.023709,0.085410,0.000000,0.198238,0.045783,0.000000
4.100000,2.727472,-0.723846,-1.389336,0.691774,-0.058465,0.084310,-0.855557,-0.217039,-0.129499,-0.478769,1.919319,-0.313266,1.024528,-5.008951,3.068409,-0.021752,0.085865,0.000000,0.193068,0.045110,0.000000
4.110000,2.734347,-0.724442,-1.388500,0.683194,-0.060540,0.083000,-0.860290,-0.198097,-0.132480,-0.467446,1.868765,-0.283162,1.246034,-5.122620,2.911467,-0.019848,0.086312,0.000000,0.187825,0.044211,-0.000000
4.120000,2.741136,-0.725057,-1.387676,0.674568,-0.062429,0.081661,-0.864898,-0.179669,-0.135171,-0.453822,1.816706,-0.255403,1.472142,-5.264862,2.682046,-0.017996,0.086748,0.000000,0.182456,0.043066,-0.000000
4.130000,2.747838,-0.725690,-1.386866,0.665897,-0.064135,0.080297,-0.869359,-0.161765,-0.137591,-0.438143,1.763976,-0.228648,1.662361,-5.278241,2.671343,-0.016199,0.087172,0.000000,0.177039,0.041712,0.000000
4.140000,2.754454,-0.726339,-1.386070,0.657182,-0.065666,0.078910,-0.873654,-0.144391,-0.139747,-0.420487,1.710740,-0.202779,1.873139,-5.388891,2.462384,-0.014455,0.087582,0.000000,0.171589,0.040158,0.000000
4.150000,2.760982,-0.727002,-1.385288,0.648425,-0.067025,0.077503,-0.877762,-0.127555,-0.141655,-0.400750,1.656429,-0.179028,2.067111,-5.448875,2.329429,-0.012767,0.087975,0.000000,0.166050,0.038381,-0.000000
4.160000,2.767422,-0.727679,-1.384520,0.639627,-0.068219,0.076078,-0.881663,-0.111263,-0.143330,-0.379217,1.601771,-0.156207,2.252030,-5.495885,2.203588,-0.011134,0.088349,0.000000,0.160491,0.036421,-0.000000
4.170000,2.773774,-0.728366,-1.383767,0.630792,-0.069252,0.074637,-0.885339,-0.095522,-0.144786,-0.355608,1.546413,-0.135233,2.454843,-5.559037,2.023461,-0.009558,0.088703,0.000000,0.154878,0.034242,0.000000
4.180000,2.780038,-0.729063,-1.383028,0.621921,-0.070131,0.073183,-0.888770,-0.080335,-0.146037,-0.330429,1.490940,-0.115058,2.579140,-5.533119,2.013730,-0.008037,0.089033,0.000000,0.149265,0.031902,-0.000000
4.190000,2.786212,-0.729768,-1.382303,0.613017,-0.070861,0.071717,-0.891943,-0.065703,-0.147089,-0.303782,1.435490,-0.095574,2.762529,-5.569815,1.852289,-0.006572,0.089340,0.000000,0.143667,0.029413,0.000000
4.200000,2.792298,-0.730480,-1.381593,0.604083,-0.071447,0.070242,-0.894840,-0.051627,-0.147955,-0.275322,1.379707,-0.077721,2.914321,-5.570186,1.750782,-0.005164,0.089621,0.000000,0.138046,0.026731,-0.000000
4.210000,2.798294,-0.731197,-1.380898,0.595122,-0.071895,0.068759,-0.897445,-0.038108,-0.148645,-0.245534,1.324092,-0.060595,3.056513,-5.559856,1.655297,-0.003811,0.089874,0.000000,0.132452,0.023913,-0.000000
4.220000,2.804200,-0.731917,-1.380218,0.586135,-0.072211,0.067270,-0.899745,-0.025145,-0.149171,-0.214087,1.268463,-0.044780,3.217074,-5.555693,1.528098,-0.002515,0.090099,0.000000,0.126865,0.020919,-0.000000
4.230000,2.810017,-0.732641,-1.379553,0.577128,-0.072400,0.065776,-0.901723,-0.012737,-0.149543,-0.181520,1.213190,-0.029606,3.294366,-5.497185,1.508182,-0.001274,0.090292,0.000000,0.121321,0.017811,-0.000000
4.240000,2.815743,-0.733365,-1.378903,0.568102,-0.072467,0.064279,-0.903372,-0.000880,-0.149765,-0.147943,1.158379,-0.014991,3.433888,-5.472032,1.395998,-0.000088,0.090455,0.000000,0.115831,0.014597,-0.000000
4.250000,2.821379,-0.734090,-1.378267,0.559062,-0.072419,0.062781,-0.904677,0.010431,-0.149847,-0.113002,1.103849,-0.001501,3.539196,-5.423667,1.322404,0.001043,0.090584,0.000000,0.110374,0.011239,0.000000
4.260000,2.826924,-0.734813,-1.377647,0.550010,-0.072260,0.061283,-0.905629,0.021199,-0.149797,-0.077202,1.049899,0.011428,3.634541,-5.367030,1.253714,0.002120,0.090679,0.000000,0.104981,0.007791,-0.000000
4.270000,2.832379,-0.735534,-1.377042,0.540950,-0.071997,0.059786,-0.906217,0.031431,-0.149621,-0.040202,0.996515,0.023493,3.748997,-5.306471,1.170206,0.003143,0.090739,0.000000,0.099649,0.004216,0.000000
4.280000,2.837743,-0.736253,-1.376451,0.531887,-0.071634,0.058291,-0.906431,0.041132,-0.149328,-0.002566,0.943839,0.035062,3.775976,-5.227388,1.144597,0.004113,0.090763,0.000000,0.094392,0.000573,0.000000
4.290000,2.843017,-0.736967,-1.375876,0.522823,-0.071176,0.056799,-0.906267,0.050310,-0.148921,0.035586,0.891948,0.046193,3.867955,-5.151820,1.072135,0.005031,0.090751,0.000000,0.089217,-0.003125,0.000000
4.300000,2.848199,-0.737676,-1.375315,0.513763,-0.070629,0.055313,-0.905716,0.058973,-0.148407,0.074637,0.840843,0.056606,3.925064,-5.066051,1.021272,0.005898,0.090700,0.000000,0.084123,-0.006920,-0.000000
4.310000,2.853292,-0.738379,-1.374770,0.504710,-0.069998,0.053832,-0.904773,0.067130,-0.147791,0.114052,0.790616,0.066591,3.971539,-4.974676,0.973908,0.006714,0.090612,0.000000,0.079119,-0.010757,0.000000
4.320000,2.858294,-0.739076,-1.374239,0.495668,-0.069288,0.052357,-0.903433,0.074789,-0.147077,0.154174,0.741401,0.076073,4.036510,-4.870872,0.925469,0.007480,0.090485,0.000000,0.074218,-0.014669,-0.000000
4.330000,2.863205,-0.739765,-1.373723,0.486642,-0.068504,0.050890,-0.901689,0.081961,-0.146271,0.194443,0.693143,0.085163,4.015250,-4.780131,0.893221,0.008198,0.090319,0.000000,0.069414,-0.018602,0.000000
4.340000,2.868027,-0.740445,-1.373221,0.477636,-0.067651,0.049432,-0.899544,0.088655,-0.145375,0.234743,0.645885,0.093898,4.058005,-4.667092,0.851779,0.008869,0.090113,0.000000,0.064711,-0.022542,0.000000
4.350000,2.872758,-0.741117,-1.372734,0.468653,-0.066733,0.047983,-0.896993,0.094883,-0.144394,0.275438,0.599788,0.102231,4.065513,-4.555415,0.817583,0.009493,0.089868,0.000000,0.060125,-0.026528,-0.000000
4.360000,2.877400,-0.741780,-1.372261,0.459697,-0.065754,0.046544,-0.894036,0.100655,-0.143331,0.316018,0.554764,0.110228,4.063101,-4.440621,0.785459,0.010072,0.089582,0.000000,0.055647,-0.030508,-0.000000
4.370000,2.881952,-0.742432,-1.371803,0.450774,-0.064721,0.045117,-0.890672,0.105983,-0.142190,0.356800,0.511063,0.117978,4.077801,-4.306970,0.761804,0.010606,0.089257,0.000000,0.051300,-0.034512,-0.000000
4.380000,2.886415,-0.743074,-1.371359,0.441885,-0.063636,0.043701,-0.886901,0.110879,-0.140973,0.397252,0.468468,0.125406,4.010714,-4.211756,0.723966,0.011098,0.088892,0.000000,0.047064,-0.038490,-0.000000
4.390000,2.890790,-0.743705,-1.370929,0.433037,-0.062505,0.042298,-0.882728,0.115356,-0.139683,0.437262,0.426998,0.132527,4.003561,-4.073789,0.703851,0.011548,0.088488,0.000000,0.042939,-0.042429,-0.000000
4.400000,2.895076,-0.744324,-1.370513,0.424232,-0.061330,0.040907,-0.878156,0.119424,-0.138323,0.477182,0.386929,0.139462,3.964185,-3.947319,0.680111,0.011957,0.088044,0.000000,0.038954,-0.046364,0.000000
4.410000,2.899275,-0.744931,-1.370111,0.415475,-0.060118,0.039531,-0.873187,0.123098,-0.136895,0.516531,0.348036,0.146115,3.915040,-3.819524,0.657384,0.012327,0.087560,0.000000,0.035086,-0.050248,-0.000000
4.420000,2.903386,-0.745526,-1.369722,0.406770,-0.058870,0.038170,-0.867826,0.126390,-0.135401,0.555554,0.310650,0.152674,3.877383,-3.668631,0.648190,0.012660,0.087039,0.000000,0.031366,-0.054104,0.000000
4.430000,2.907410,-0.746109,-1.369347,0.398120,-0.057591,0.036823,-0.862078,0.129315,-0.133842,0.593827,0.274434,0.158950,3.775530,-3.574787,0.606996,0.012955,0.086478,0.000000,0.027763,-0.057892,-0.000000
4.440000,2.911349,-0.746678,-1.368986,0.389529,-0.056285,0.035493,-0.855952,0.131883,-0.132223,0.631250,0.239383,0.164945,3.718311,-3.423925,0.598603,0.013215,0.085881,0.000000,0.024274,-0.061602,0.000000
4.450000,2.915201,-0.747234,-1.368637,0.381002,-0.054954,0.034179,-0.849455,0.134108,-0.130544,0.668073,0.205859,0.170869,3.634426,-3.291756,0.580035,0.013441,0.085246,0.000000,0.020936,-0.065256,-0.000000
4.460000,2.918969,-0.747777,-1.368302,0.372542,-0.053604,0.032882,-0.842594,0.136004,-0.128806,0.703934,0.173533,0.176537,3.542328,-3.159964,0.561583,0.013634,0.084576,0.000000,0.017716,-0.068820,0.000000
4.470000,2.922652,-0.748306,-1.367980,0.364151,-0.052235,0.031603,-0.835379,0.137584,-0.127013,0.738948,0.142783,0.182177,3.453385,-3.003109,0.558658,0.013796,0.083870,0.000000,0.014652,-0.072304,-0.000000
4.480000,2.926252,-0.748822,-1.367670,0.355835,-0.050853,0.030342,-0.827819,0.138863,-0.125164,0.772853,0.113197,0.187546,3.326032,-2.914576,0.514901,0.013928,0.083130,0.000000,0.011703,-0.075684,-0.000000
4.490000,2.929769,-0.749323,-1.367373,0.347596,-0.049459,0.029100,-0.819926,0.139852,-0.123263,0.805561,0.084753,0.192634,3.220269,-2.761224,0.510566,0.014030,0.082357,0.000000,0.008865,-0.078951,-0.000000
4.500000,2.933204,-0.749811,-1.367088,0.339438,-0.048057,0.027877,-0.811711,0.140564,-0.121311,0.837182,0.057858,0.197693,3.096987,-2.630958,0.493052,0.014106,0.081551,0.000000,0.006181,-0.082114,-0.000000
4.510000,2.936558,-0.750284,-1.366815,0.331363,-0.046649,0.026674,-0.803187,0.141012,-0.119310,0.867451,0.032125,0.202486,2.965673,-2.502383,0.474681,0.014154,0.080715,0.000000,0.003610,-0.085147,-0.000000
4.520000,2.939832,-0.750744,-1.366554,0.323375,-0.045237,0.025491,-0.794366,0.141211,-0.117261,0.896566,0.007930,0.207269,2.846268,-2.349980,0.473041,0.014178,0.079848,0.000000,0.001192,-0.088070,-0.000000
4.530000,2.943026,-0.751189,-1.366305,0.315477,-0.043825,0.024329,-0.785261,0.141175,-0.115166,0.924147,-0.015152,0.211760,2.668553,-2.267126,0.424746,0.014179,0.078954,0.000000,-0.001117,-0.090846,0.000000
4.540000,2.946142,-0.751620,-1.366068,0.307671,-0.042415,0.023188,-0.775888,0.140912,-0.113027,0.950114,-0.037155,0.215941,2.533822,-2.120472,0.420321,0.014156,0.078032,0.000000,-0.003321,-0.093466,0.000000
4.550000,2.949180,-0.752037,-1.365841,0.299960,-0.041008,0.022069,-0.766263,0.140437,-0.110847,0.974714,-0.057681,0.220090,2.375598,-1.998073,0.400269,0.014113,0.077085,0.000000,-0.005378,-0.095954,-0.000000
4.560000,2.952141,-0.752441,-1.365626,0.292346,-0.039607,0.020971,-0.756400,0.139762,-0.108626,0.997622,-0.077124,0.223948,2.211408,-1.878202,0.379135,0.014049,0.076113,0.000000,-0.007329,-0.098278,-0.000000
4.570000,2.955027,-0.752830,-1.365422,0.284832,-0.038213,0.019896,-0.746315,0.138899,-0.106368,1.018981,-0.095135,0.227744,2.053205,-1.736638,0.372227,0.013967,0.075119,0.000000,-0.009138,-0.100450,-0.000000
4.580000,2.957838,-0.753205,-1.365228,0.277420,-0.036829,0.018844,-0.736026,0.137862,-0.104073,1.038539,-0.112125,0.231226,1.857414,-1.662112,0.323761,0.013867,0.074105,0.000000,-0.010848,-0.102448,0.000000
4.590000,2.960576,-0.753566,-1.365045,0.270112,-0.035456,0.017815,-0.725551,0.136660,-0.101745,1.056235,-0.128135,0.234374,1.687014,-1.527797,0.313475,0.013750,0.073071,0.000000,-0.012461,-0.104264,0.000000
4.600000,2.963241,-0.753914,-1.364872,0.262910,-0.034097,0.016809,-0.714907,0.135304,-0.099385,1.072216,-0.142796,0.237427,1.501592,-1.417290,0.289060,0.013618,0.072020,0.000000,-0.013940,-0.105912,-0.000000
4.610000,2.965834,-0.754248,-1.364709,0.255815,-0.032751,0.015827,-0.704113,0.133807,-0.096997,1.086277,-0.156486,0.240159,1.311478,-1.309852,0.263365,0.013472,0.070953,0.000000,-0.015324,-0.107372,0.000000
4.620000,2.968357,-0.754569,-1.364555,0.248828,-0.031421,0.014869,-0.693188,0.132179,-0.094582,1.098445,-0.168898,0.242749,1.119899,-1.183962,0.248460,0.013312,0.069873,0.000000,-0.016580,-0.108646,0.000000
4.630000,2.970811,-0.754877,-1.364411,0.241951,-0.030108,0.013936,-0.682151,0.130432,-0.092143,1.108630,-0.180406,0.244996,0.916380,-1.118366,0.200427,0.013140,0.068781,0.000000,-0.017748,-0.109724,0.000000
4.640000,2.973197,-0.755171,-1.364276,0.235185,-0.028813,0.013027,-0.671022,0.128574,-0.089684,1.116791,-0.191052,0.246878,0.716772,-1.000348,0.182118,0.012957,0.067679,0.000000,-0.018831,-0.110603,0.000000
4.650000,2.975515,-0.755453,-1.364151,0.228531,-0.027537,0.012142,-0.659822,0.126615,-0.087206,1.122935,-0.200519,0.248581,0.510576,-0.904271,0.152173,0.012764,0.066569,0.000000,-0.019797,-0.111282,0.000000
4.660000,2.977768,-0.755722,-1.364033,0.221989,-0.026281,0.011282,-0.648570,0.124566,-0.084713,1.126958,-0.209138,0.249921,0.300750,-0.811342,0.120922,0.012562,0.065454,0.000000,-0.020679,-0.111750,0.000000
4.670000,2.979955,-0.755979,-1.363925,0.215560,-0.025045,0.010448,-0.637289,0.122436,-0.082208,1.129005,-0.216675,0.251045,0.101303,-0.705045,0.098592,0.012351,0.064334,0.000000,-0.021452,-0.112022,0.000000
4.680000,2.982079,-0.756223,-1.363824,0.209243,-0.023832,0.009638,-0.625998,0.120235,-0.079694,1.128830,-0.223428,0.251779,-0.136900,-0.646264,0.047822,0.012133,0.063214,0.000000,-0.022149,-0.112073,-0.000000
4.690000,2.984141,-0.756455,-1.363732,0.203040,-0.022641,0.008854,-0.614720,0.117970,-0.077174,1.126399,-0.229439,0.252104,-0.342915,-0.547793,0.022099,0.011908,0.062094,0.000000,-0.022771,-0.111899,0.000000
4.700000,2.986141,-0.756676,-1.363647,0.196949,-0.021473,0.008095,-0.603477,0.115650,-0.074653,1.121915,-0.234468,0.252175,-0.561950,-0.467050,-0.013541,0.011678,0.060976,0.000000,-0.023296,-0.111520,0.000000
4.710000,2.988080,-0.756885,-1.363570,0.190970,-0.020328,0.007361,-0.592289,0.113283,-0.072132,1.115142,-0.238779,0.251837,-0.783565,-0.389495,-0.050455,0.011442,0.059864,0.000000,-0.023749,-0.110911,-0.000000
4.720000,2.989960,-0.757083,-1.363500,0.185103,-0.019207,0.006652,-0.581180,0.110877,-0.069617,1.106325,-0.242211,0.251196,-0.989031,-0.303326,-0.081478,0.011203,0.058758,0.000000,-0.024113,-0.110097,0.000000
4.730000,2.991782,-0.757269,-1.363437,0.179346,-0.018111,0.005969,-0.570171,0.108441,-0.067110,1.095170,-0.244984,0.250128,-1.242340,-0.251998,-0.132546,0.010960,0.057662,0.000000,-0.024412,-0.109048,0.000000
4.740000,2.993548,-0.757445,-1.363381,0.173699,-0.017039,0.005310,-0.559285,0.105980,-0.064616,1.081660,-0.247138,0.248615,-1.450665,-0.173218,-0.166436,0.010715,0.056578,0.000000,-0.024650,-0.107762,0.000000
4.750000,2.995257,-0.757610,-1.363331,0.168160,-0.015991,0.004676,-0.548544,0.103501,-0.062139,1.066068,-0.248510,0.246764,-1.675403,-0.107869,-0.207595,0.010468,0.055508,0.000000,-0.024808,-0.106265,0.000000
4.760000,2.996911,-0.757765,-1.363287,0.162728,-0.014969,0.004067,-0.537972,0.101011,-0.059682,1.048120,-0.249296,0.244472,-1.900269,-0.045636,-0.249658,0.010219,0.054454,0.000000,-0.024907,-0.104530,0.000000
4.770000,2.998512,-0.757909,-1.363249,0.157400,-0.013971,0.003482,-0.527588,0.098517,-0.057250,1.028192,-0.249394,0.241780,-2.098513,0.021515,-0.290232,0.009970,0.053418,0.000000,-0.024937,-0.102594,-0.000000
4.780000,3.000060,-0.758044,-1.363217,0.152175,-0.012998,0.002922,-0.517416,0.096025,-0.054848,1.005871,-0.248962,0.238637,-2.365887,0.064207,-0.338498,0.009720,0.052402,0.000000,-0.024914,-0.100415,-0.000000
4.790000,3.001556,-0.758170,-1.363191,0.147051,-0.012050,0.002385,-0.507479,0.093540,-0.052479,0.981152,-0.248036,0.235032,-2.564080,0.124597,-0.381351,0.009472,0.051410,0.000000,-0.024841,-0.097993,0.000000
4.800000,3.003001,-0.758285,-1.363169,0.142025,-0.011127,0.001872,-0.497799,0.091066,-0.050149,0.954481,-0.246515,0.230995,-2.783147,0.175028,-0.427537,0.009224,0.050443,0.000000,-0.024707,-0.095372,-0.000000
4.810000,3.004396,-0.758392,-1.363153,0.137094,-0.010229,0.001382,-0.488397,0.088611,-0.047861,0.925463,-0.244550,0.226552,-3.001138,0.222457,-0.472446,0.008978,0.049503,0.000000,-0.024528,-0.092511,-0.000000
4.820000,3.005743,-0.758490,-1.363142,0.132256,-0.009355,0.000915,-0.479295,0.086177,-0.045620,0.894636,-0.242027,0.221459,-3.181570,0.276668,-0.536951,0.008733,0.048593,0.000000,-0.024292,-0.089466,-0.000000
4.830000,3.007042,-0.758579,-1.363135,0.127507,-0.008505,0.000470,-0.470513,0.083771,-0.043432,0.861470,-0.239131,0.216008,-3.451593,0.301898,-0.553131,0.008492,0.047715,0.000000,-0.024018,-0.086182,-0.000000
4.840000,3.008293,-0.758660,-1.363132,0.122844,-0.007680,0.000046,-0.462074,0.081396,-0.041301,0.825979,-0.235896,0.210203,-3.627918,0.349696,-0.617445,0.008253,0.046871,0.000000,-0.023710,-0.082659,0.000000
4.850000,3.009499,-0.758733,-1.363134,0.118264,-0.006877,-0.000356,-0.453998,0.079055,-0.039231,0.788775,-0.232189,0.203735,-3.830079,0.386251,-0.666718,0.008018,0.046062,0.000000,-0.023353,-0.078961,-0.000000
4.860000,3.010659,-0.758798,-1.363139,0.113763,-0.006098,-0.000739,-0.446305,0.076753,-0.037228,0.749491,-0.228153,0.196815,-4.025836,0.420613,-0.717495,0.007786,0.045292,0.000000,-0.022962,-0.075050,-0.000000
4.870000,3.011774,-0.758855,-1.363148,0.109337,-0.005342,-0.001101,-0.439015,0.074493,-0.035296,0.708277,-0.223785,0.189382,-4.215771,0.452503,-0.769264,0.007559,0.044562,0.000000,-0.022537,-0.070940,0.000000
4.880000,3.012846,-0.758905,-1.363161,0.104981,-0.004608,-0.001445,-0.432146,0.072279,-0.033442,0.665197,-0.219111,0.181426,-4.399277,0.481984,-0.822042,0.007336,0.043874,0.000000,-0.022080,-0.066638,0.000000
4.890000,3.013874,-0.758947,-1.363177,0.100693,-0.003896,-0.001770,-0.425717,0.070112,-0.031669,0.620316,-0.214153,0.172938,-4.575655,0.509109,-0.875847,0.007117,0.043230,0.000000,-0.021594,-0.062152,0.000000
4.900000,3.014860,-0.758983,-1.363197,0.096466,-0.003206,-0.002079,-0.419746,0.067996,-0.029985,0.573699,-0.208936,0.163905,-4.745354,0.533940,-0.930749,0.006904,0.042631,0.000000,-0.021081,-0.057486,-0.000000
4.910000,3.015804,-0.759011,-1.363219,0.092296,-0.002536,-0.002370,-0.414249,0.065934,-0.028393,0.525432,-0.203482,0.154319,-4.906623,0.556556,-0.986709,0.006696,0.042080,0.000000,-0.020543,-0.052651,-0.000000
4.920000,3.016706,-0.759034,-1.363244,0.088179,-0.001887,-0.002647,-0.409242,0.063927,-0.026900,0.475595,-0.197812,0.144168,-5.059349,0.577011,-1.043773,0.006493,0.041579,0.000000,-0.019983,-0.047655,0.000000
4.930000,3.017568,-0.759049,-1.363272,0.084109,-0.001258,-0.002909,-0.404742,0.061978,-0.025512,0.424275,-0.191949,0.133440,-5.202945,0.595366,-1.101968,0.006296,0.041128,0.000000,-0.019402,-0.042506,-0.000000
4.940000,3.018388,-0.759059,-1.363302,0.080082,-0.000647,-0.003157,-0.400761,0.060089,-0.024233,0.371569,-0.185912,0.122124,-5.336750,0.611671,-1.161326,0.006105,0.040729,0.000000,-0.018803,-0.037215,0.000000
4.950000,3.019169,-0.759062,-1.363335,0.076092,-0.000056,-0.003394,-0.397315,0.058261,-0.023071,0.317569,-0.179722,0.110210,-5.460863,0.626041,-1.221802,0.005920,0.040384,0.000000,-0.018188,-0.031791,-0.000000
4.960000,3.019910,-0.759060,-1.363370,0.072134,0.000518,-0.003619,-0.394414,0.056495,-0.022031,0.262385,-0.173397,0.097684,-5.573984,0.638481,-1.283497,0.005741,0.040094,0.000000,-0.017558,-0.026246,0.000000
4.970000,3.020612,-0.759052,-1.363407,0.068202,0.001075,-0.003835,-0.392071,0.054793,-0.021120,0.206127,-0.166958,0.084536,-5.675849,0.649072,-1.346400,0.005569,0.039859,0.000000,-0.016916,-0.020591,-0.000000
4.980000,3.021275,-0.759039,-1.363447,0.064291,0.001614,-0.004042,-0.390295,0.053156,-0.020343,0.148908,-0.160422,0.070752,-5.765965,0.657869,-1.410507,0.005403,0.039682,0.000000,-0.016264,-0.014838,0.000000
4.990000,3.021898,-0.759020,-1.363488,0.060395,0.002138,-0.004242,-0.389095,0.051585,-0.019707,0.090848,-0.153807,0.056322,-5.843918,0.664932,-1.475773,0.005244,0.039563,0.000000,-0.015603,-0.009001,0.000000
5.000000,3.022482,-0.758996,-1.363531,0.056507,0.002646,-0.004437,-0.388480,0.050080,-0.019218,0.032071,-0.147129,0.041233,-5.909404,0.670321,-1.542101,0.005091,0.039502,0.000000,-0.014934,-0.003092,0.000000
