time,x,y,z,vx,vy,vz,ax,ay,az,jx,jy,jz,sx,sy,sz,qw,qx,qy,qz,wx,wy,wz
0.000000,0.022172,-3.007746,0.508312,-0.005759,-0.018188,-0.007083,-0.172549,0.643629,0.003922,2.023233,-6.286451,-0.044164,-20.033103,62.004592,1.876755,0.999982,0.003828,-0.004435,-0.001352,0.003056,-0.014660,0.005585
0.010000,0.022106,-3.007897,0.508241,-0.007387,-0.012056,-0.007045,-0.153290,0.583794,0.003574,1.831356,-5.687556,-0.025720,-18.360759,57.815272,1.812184,0.999982,0.003828,-0.004467,-0.001331,0.000640,-0.007592,0.004626
0.020000,0.022025,-3.007989,0.508171,-0.008831,-0.006493,-0.007010,-0.135868,0.529742,0.003406,1.655653,-5.129345,-0.007917,-16.797796,53.866193,1.748596,0.999982,0.003830,-0.004503,-0.001309,-0.001042,-0.002808,0.003875
0.030000,0.021930,-3.008028,0.508101,-0.010110,-0.001444,-0.006976,-0.120127,0.481079,0.003413,1.495049,-4.609459,0.009255,-15.340120,50.149002,1.685982,0.999982,0.003831,-0.004537,-0.001288,-0.002180,0.000319,0.003289
0.040000,0.021823,-3.008020,0.508031,-0.011239,0.003145,-0.006942,-0.105920,0.437433,0.003589,1.348513,-4.125620,0.025806,-13.983633,46.655439,1.624326,0.999981,0.003830,-0.004563,-0.001268,-0.002927,0.002275,0.002834
0.050000,0.021706,-3.007967,0.507962,-0.012233,0.007321,-0.006904,-0.093113,0.398454,0.003927,1.215053,-3.675637,0.041745,-12.724240,43.376623,1.563655,0.999981,0.003823,-0.004576,-0.001251,-0.003398,0.003431,0.002481
0.060000,0.021579,-3.007874,0.507893,-0.013105,0.011129,-0.006863,-0.081579,0.363814,0.004422,1.093718,-3.257399,0.057083,-11.557845,40.304721,1.503921,0.999982,0.003810,-0.004571,-0.001238,-0.003681,0.004063,0.002209
0.070000,0.021444,-3.007745,0.507825,-0.013868,0.014610,-0.006815,-0.071201,0.333207,0.005067,0.983600,-2.868881,0.071827,-10.480352,37.431168,1.445132,0.999982,0.003793,-0.004554,-0.001227,-0.003841,0.004370,0.001998
0.080000,0.021302,-3.007583,0.507757,-0.014533,0.017805,-0.006761,-0.061872,0.306344,0.005856,0.883829,-2.508143,0.085988,-9.487665,34.747589,1.387287,0.999982,0.003772,-0.004529,-0.001217,-0.003923,0.004491,0.001835
0.090000,0.021154,-3.007390,0.507690,-0.015109,0.020749,-0.006698,-0.053493,0.282958,0.006785,0.793577,-2.173324,0.099576,-8.575687,32.245593,1.330394,0.999982,0.003751,-0.004501,-0.001209,-0.003959,0.004518,0.001708
0.100000,0.021000,-3.007169,0.507623,-0.015606,0.023475,-0.006625,-0.045972,0.262797,0.007846,0.712060,-1.862654,0.112598,-7.740324,29.916780,1.274329,0.999982,0.003731,-0.004476,-0.001200,-0.003970,0.004506,0.001609
0.110000,0.020842,-3.006921,0.507557,-0.016031,0.026015,-0.006540,-0.039225,0.245630,0.009035,0.638529,-1.574440,0.125065,-6.977478,27.752814,1.219226,0.999982,0.003712,-0.004455,-0.001192,-0.003969,0.004487,0.001530
0.120000,0.020680,-3.006649,0.507492,-0.016392,0.028397,-0.006443,-0.033177,0.231239,0.010346,0.572282,-1.307076,0.136986,-6.283055,25.745301,1.165022,0.999983,0.003692,-0.004432,-0.001184,-0.003962,0.004474,0.001468
0.130000,0.020514,-3.006354,0.507428,-0.016697,0.030648,-0.006333,-0.027757,0.219424,0.011773,0.512654,-1.059040,0.148369,-5.652958,23.885893,1.111701,0.999983,0.003672,-0.004410,-0.001177,-0.003953,0.004470,0.001419
0.140000,0.020346,-3.006037,0.507366,-0.016950,0.032793,-0.006208,-0.022904,0.209998,0.013311,0.459022,-0.828892,0.159223,-5.083092,22.166292,1.059247,0.999983,0.003652,-0.004387,-0.001170,-0.003943,0.004471,0.001379
0.150000,0.020175,-3.005698,0.507304,-0.017156,0.034856,-0.006066,-0.018559,0.202791,0.014956,0.410805,-0.615275,0.169556,-4.569365,20.578278,1.007655,0.999983,0.003632,-0.004364,-0.001163,-0.003930,0.004473,0.001346
0.160000,0.020003,-3.005340,0.507244,-0.017322,0.036856,-0.005908,-0.014671,0.197642,0.016701,0.367461,-0.416931,0.179381,-4.107657,19.112127,0.957072,0.999983,0.003613,-0.004342,-0.001157,-0.003916,0.004469,0.001320
0.170000,0.019829,-3.004961,0.507186,-0.017451,0.038815,-0.005732,-0.011195,0.194405,0.018541,0.328492,-0.232656,0.188702,-3.693903,17.761153,0.907256,0.999984,0.003593,-0.004320,-0.001150,-0.003898,0.004457,0.001298
0.180000,0.019654,-3.004563,0.507130,-0.017547,0.040750,-0.005537,-0.008089,0.192946,0.020473,0.293437,-0.061354,0.197529,-3.323994,16.516310,0.858297,0.999984,0.003574,-0.004298,-0.001144,-0.003878,0.004435,0.001280
0.190000,0.019478,-3.004146,0.507076,-0.017614,0.042679,-0.005322,-0.005315,0.193138,0.022490,0.261880,0.097996,0.205871,-2.993834,15.369184,0.810203,0.999984,0.003554,-0.004276,-0.001137,-0.003855,0.004404,0.001265
0.200000,0.019302,-3.003710,0.507023,-0.017655,0.044618,-0.005087,-0.002841,0.194869,0.024589,0.233442,0.246332,0.213735,-2.699329,14.311794,0.762889,0.999984,0.003535,-0.004254,-0.001131,-0.003831,0.004369,0.001252
0.210000,0.019125,-3.003254,0.506974,-0.017672,0.046581,-0.004830,-0.000629,0.198018,0.026764,0.209431,0.381490,0.221129,-2.403892,13.275672,0.716396,0.999984,0.003516,-0.004232,-0.001125,-0.003811,0.004349,0.001240
0.220000,0.018949,-3.002778,0.506927,-0.017668,0.048583,-0.004551,0.001333,0.202510,0.029010,0.182544,0.517091,0.228069,-2.690900,13.329867,0.671353,0.999984,0.003497,-0.004210,-0.001118,-0.003791,0.004328,0.001230
0.230000,0.018772,-3.002282,0.506883,-0.017646,0.050636,-0.004250,0.003043,0.208304,0.031323,0.161558,0.637257,0.234552,-1.501313,10.697933,0.625406,0.999985,0.003478,-0.004189,-0.001112,-0.003771,0.004306,0.001221
0.240000,0.018596,-3.001765,0.506842,-0.017608,0.052753,-0.003925,0.004587,0.215199,0.033699,0.146627,0.741920,0.240586,-1.778742,10.776785,0.581891,0.999985,0.003459,-0.004167,-0.001106,-0.003752,0.004285,0.001212
0.250000,0.018420,-3.001227,0.506805,-0.017555,0.054943,-0.003576,0.005960,0.223158,0.036134,0.128376,0.848465,0.246191,-1.585580,10.011911,0.538685,0.999985,0.003441,-0.004146,-0.001100,-0.003732,0.004262,0.001204
0.260000,0.018245,-3.000666,0.506771,-0.017489,0.057219,-0.003202,0.007171,0.232124,0.038622,0.114369,0.943176,0.251364,-1.408854,9.295373,0.496240,0.999985,0.003422,-0.004125,-0.001094,-0.003713,0.004241,0.001197
0.270000,0.018070,-3.000082,0.506741,-0.017412,0.059589,-0.002803,0.008237,0.242028,0.041160,0.098394,1.037818,0.256119,-1.604549,9.295127,0.454862,0.999985,0.003403,-0.004103,-0.001088,-0.003694,0.004220,0.001190
0.280000,0.017896,-2.999474,0.506715,-0.017325,0.062063,-0.002379,0.009153,0.252842,0.043743,0.086096,1.121968,0.260461,-0.851853,7.531217,0.413508,0.999985,0.003385,-0.004082,-0.001082,-0.003675,0.004199,0.001183
0.290000,0.017724,-2.998840,0.506693,-0.017229,0.064648,-0.001928,0.009973,0.264429,0.046367,0.077582,1.195582,0.264395,-1.039250,7.547555,0.373632,0.999986,0.003367,-0.004061,-0.001076,-0.003657,0.004179,0.001176
0.300000,0.017552,-2.998180,0.506676,-0.017126,0.067354,-0.001451,0.010694,0.276763,0.049029,0.066849,1.270081,0.267934,-0.923825,7.010255,0.334204,0.999986,0.003348,-0.004041,-0.001071,-0.003639,0.004158,0.001170
0.310000,0.017381,-2.997493,0.506664,-0.017016,0.070186,-0.000947,0.011321,0.289801,0.051725,0.058719,1.336459,0.271085,-0.818861,6.505286,0.295804,0.999986,0.003330,-0.004020,-0.001065,-0.003621,0.004137,0.001164
0.320000,0.017212,-2.996776,0.506657,-0.016900,0.073152,-0.000417,0.011862,0.303495,0.054450,0.049379,1.402457,0.273855,-0.939254,6.471848,0.258135,0.999986,0.003312,-0.003999,-0.001059,-0.003603,0.004116,0.001158
0.330000,0.017043,-2.996029,0.506656,-0.016779,0.076258,0.000142,0.012316,0.317824,0.057201,0.042246,1.461215,0.276249,-0.485291,5.277335,0.220906,0.999986,0.003294,-0.003979,-0.001053,-0.003586,0.004096,0.001152
0.340000,0.016876,-2.995251,0.506660,-0.016653,0.079510,0.000728,0.012716,0.332693,0.059974,0.037388,1.512705,0.278276,-0.600407,5.254967,0.184735,0.999986,0.003276,-0.003958,-0.001047,-0.003568,0.004076,0.001146
0.350000,0.016710,-2.994439,0.506671,-0.016524,0.082914,0.001341,0.013058,0.348083,0.062765,0.031170,1.564455,0.279946,-0.532062,4.869149,0.149195,0.999986,0.003258,-0.003938,-0.001042,-0.003551,0.004055,0.001140
0.360000,0.016546,-2.993592,0.506687,-0.016392,0.086473,0.001983,0.013345,0.363961,0.065571,0.026511,1.610530,0.281263,-0.470000,4.504131,0.114407,0.999987,0.003241,-0.003918,-0.001036,-0.003534,0.004035,0.001134
0.370000,0.016382,-2.992709,0.506710,-0.016258,0.090194,0.002653,0.013584,0.380294,0.068389,0.021113,1.656031,0.282236,-0.543433,4.449771,0.080361,0.999987,0.003223,-0.003898,-0.001030,-0.003517,0.004015,0.001129
0.380000,0.016220,-2.991787,0.506740,-0.016121,0.094081,0.003351,0.013772,0.397064,0.071215,0.017033,1.696447,0.282873,-0.271332,3.631993,0.047024,0.999987,0.003206,-0.003878,-0.001025,-0.003500,0.003995,0.001123
0.390000,0.016060,-2.990826,0.506777,-0.015982,0.098137,0.004077,0.013930,0.414205,0.074046,0.014312,1.731765,0.283179,-0.341486,3.585797,0.014425,0.999987,0.003188,-0.003858,-0.001019,-0.003484,0.003975,0.001118
0.400000,0.015901,-2.989824,0.506822,-0.015842,0.102366,0.004832,0.014055,0.431701,0.076878,0.010764,1.766931,0.283164,-0.301236,3.299981,-0.017443,0.999987,0.003171,-0.003838,-0.001014,-0.003467,0.003955,0.001112
0.410000,0.015743,-2.988779,0.506874,-0.015701,0.106772,0.005615,0.014149,0.449529,0.079708,0.008147,1.798072,0.282837,-0.264692,3.028975,-0.048532,0.999987,0.003153,-0.003818,-0.001008,-0.003450,0.003936,0.001107
0.420000,0.015587,-2.987688,0.506934,-0.015560,0.111358,0.006426,0.014215,0.467662,0.082533,0.005073,1.828463,0.282189,-0.310082,2.956365,-0.080185,0.999987,0.003136,-0.003798,-0.001003,-0.003434,0.003916,0.001101
0.430000,0.015432,-2.986551,0.507003,-0.015417,0.116126,0.007265,0.014253,0.486085,0.085351,0.002787,1.855243,0.281249,-0.146304,2.398819,-0.107674,0.999987,0.003119,-0.003779,-0.000997,-0.003418,0.003897,0.001096
0.440000,0.015278,-2.985365,0.507080,-0.015275,0.121080,0.008133,0.014274,0.504754,0.088157,0.001315,1.878411,0.280025,-0.189597,2.332979,-0.137749,0.999988,0.003102,-0.003760,-0.000992,-0.003402,0.003877,0.001090
0.450000,0.015126,-2.984129,0.507166,-0.015132,0.126222,0.009028,0.014277,0.523654,0.090950,-0.000666,1.901116,0.278500,-0.166026,2.114870,-0.166151,0.999988,0.003085,-0.003740,-0.000986,-0.003386,0.003858,0.001085
0.460000,0.014976,-2.982840,0.507260,-0.014989,0.131554,0.009952,0.014263,0.542765,0.093726,-0.002098,1.920831,0.276689,-0.144809,1.905555,-0.194071,0.999988,0.003068,-0.003721,-0.000981,-0.003370,0.003839,0.001080
0.470000,0.014827,-2.981497,0.507365,-0.014847,0.137078,0.010903,0.014234,0.562070,0.096483,-0.003790,1.939956,0.274640,-0.170566,1.847592,-0.217503,0.999988,0.003051,-0.003702,-0.000975,-0.003354,0.003820,0.001074
0.480000,0.014679,-2.980098,0.507479,-0.014704,0.142796,0.011881,0.014189,0.581554,0.099218,-0.005028,1.956273,0.272299,-0.076665,1.414983,-0.250629,0.999988,0.003035,-0.003683,-0.000970,-0.003338,0.003801,0.001069
0.490000,0.014533,-2.978640,0.507602,-0.014563,0.148710,0.012887,0.014135,0.601185,0.101928,-0.005799,1.969769,0.269670,-0.101340,1.359576,-0.273128,0.999988,0.003018,-0.003664,-0.000965,-0.003322,0.003782,0.001064
0.500000,0.014388,-2.977123,0.507736,-0.014422,0.154820,0.013920,0.014072,0.620950,0.104611,-0.006860,1.982867,0.266822,-0.087790,1.186973,-0.298338,0.999988,0.003001,-0.003645,-0.000959,-0.003306,0.003763,0.001059
0.510000,0.014244,-2.975543,0.507881,-0.014281,0.161129,0.014979,0.013999,0.640834,0.107264,-0.007598,1.993709,0.263723,-0.075425,1.021983,-0.322602,0.999989,0.002985,-0.003626,-0.000954,-0.003290,0.003744,0.001053
0.520000,0.014102,-2.973900,0.508036,-0.014142,0.167637,0.016065,0.013919,0.660822,0.109884,-0.008515,2.003691,0.260360,-0.093178,0.937361,-0.348635,0.999989,0.002969,-0.003607,-0.000949,-0.003274,0.003726,0.001048
0.530000,0.013961,-2.972190,0.508202,-0.014003,0.174346,0.017177,0.013830,0.680901,0.112470,-0.009151,2.011679,0.256779,-0.033766,0.660262,-0.367356,0.999989,0.002952,-0.003589,-0.000944,-0.003257,0.003707,0.001043
0.540000,0.013822,-2.970412,0.508380,-0.013865,0.181255,0.018314,0.013737,0.701049,0.115019,-0.009497,2.017687,0.252989,-0.050598,0.580723,-0.391779,0.999989,0.002936,-0.003570,-0.000938,-0.003241,0.003689,0.001038
0.550000,0.013684,-2.968564,0.508569,-0.013728,0.188367,0.019477,0.013639,0.721253,0.117529,-0.010038,2.022978,0.248956,-0.042715,0.441039,-0.413397,0.999989,0.002920,-0.003552,-0.000933,-0.003225,0.003670,0.001033
0.560000,0.013547,-2.966644,0.508769,-0.013592,0.195681,0.020665,0.013537,0.741502,0.119998,-0.010380,2.026608,0.244725,-0.035545,0.307194,-0.434267,0.999989,0.002904,-0.003534,-0.000928,-0.003210,0.003652,0.001028
0.570000,0.013412,-2.964650,0.508982,-0.013458,0.203197,0.021877,0.013431,0.761783,0.122423,-0.010840,2.029333,0.240260,-0.047163,0.217987,-0.457200,0.999989,0.002888,-0.003515,-0.000923,-0.003195,0.003634,0.001023
0.580000,0.013278,-2.962579,0.509207,-0.013324,0.210916,0.023113,0.013321,0.782084,0.124802,-0.011129,2.030552,0.235612,-0.010465,0.025999,-0.472165,0.999989,0.002872,-0.003497,-0.000918,-0.003179,0.003616,0.001018
0.590000,0.013146,-2.960431,0.509444,-0.013191,0.218839,0.024373,0.013209,0.802389,0.127134,-0.011241,2.030284,0.230790,-0.021427,-0.058057,-0.493579,0.999989,0.002856,-0.003479,-0.000913,-0.003165,0.003598,0.001013
0.600000,0.013014,-2.958202,0.509694,-0.013060,0.226964,0.025655,0.013095,0.822687,0.129417,-0.011479,2.029230,0.225755,-0.016902,-0.172643,-0.512029,0.999990,0.002840,-0.003461,-0.000908,-0.003150,0.003580,0.001008
0.610000,0.012884,-2.955891,0.509957,-0.012929,0.235292,0.026961,0.012980,0.842968,0.131649,-0.011606,2.026770,0.220535,-0.012971,-0.287721,-0.530041,0.999990,0.002824,-0.003444,-0.000903,-0.003135,0.003562,0.001003
0.620000,0.012756,-2.953495,0.510234,-0.012800,0.243823,0.028288,0.012863,0.863221,0.133828,-0.011781,2.023719,0.215175,-0.017759,-0.347778,-0.543835,0.999990,0.002809,-0.003426,-0.000898,-0.003120,0.003544,0.000999
0.630000,0.012628,-2.951014,0.510523,-0.012672,0.252557,0.029637,0.012745,0.883437,0.135952,-0.011872,2.019282,0.209620,-0.000488,-0.539853,-0.567140,0.999990,0.002793,-0.003408,-0.000893,-0.003106,0.003527,0.000994
0.640000,0.012502,-2.948444,0.510827,-0.012545,0.261492,0.031007,0.012626,0.903602,0.138019,-0.011879,2.013456,0.203873,-0.005143,-0.598775,-0.580141,0.999990,0.002778,-0.003390,-0.000888,-0.003091,0.003509,0.000989
0.650000,0.012377,-2.945783,0.511144,-0.012420,0.270629,0.032397,0.012507,0.923705,0.140029,-0.011939,2.007098,0.198002,-0.002766,-0.698744,-0.595924,0.999990,0.002762,-0.003373,-0.000883,-0.003077,0.003492,0.000984
0.660000,0.012254,-2.943030,0.511475,-0.012295,0.279966,0.033808,0.012387,0.943739,0.141979,-0.011939,1.999572,0.191970,-0.000573,-0.795446,-0.610906,0.999990,0.002747,-0.003356,-0.000878,-0.003063,0.003474,0.000979
0.670000,0.012132,-2.940183,0.511820,-0.012172,0.289503,0.035237,0.012268,0.963694,0.143868,-0.011983,1.991294,0.185780,-0.004908,-0.869850,-0.626430,0.999990,0.002732,-0.003338,-0.000873,-0.003048,0.003457,0.000975
0.680000,0.012010,-2.937240,0.512179,-0.012050,0.299239,0.036685,0.012148,0.983562,0.145694,-0.011970,1.981971,0.179456,0.007568,-0.994631,-0.638353,0.999990,0.002716,-0.003321,-0.000868,-0.003034,0.003440,0.000970
0.690000,0.011891,-2.934198,0.512553,-0.011929,0.309174,0.038150,0.012029,1.003330,0.147456,-0.011898,1.971615,0.173003,0.003480,-1.065988,-0.652633,0.999991,0.002701,-0.003304,-0.000863,-0.003020,0.003423,0.000965
0.700000,0.011772,-2.931055,0.512942,-0.011809,0.319306,0.039634,0.011910,1.022992,0.149154,-0.011873,1.960572,0.166410,0.004784,-1.152295,-0.665335,0.999991,0.002686,-0.003287,-0.000859,-0.003006,0.003406,0.000961
0.710000,0.011654,-2.927811,0.513346,-0.011691,0.329633,0.041133,0.011791,1.042539,0.150784,-0.011810,1.948589,0.159695,0.005934,-1.236460,-0.677533,0.999991,0.002671,-0.003270,-0.000854,-0.002992,0.003389,0.000956
0.720000,0.011538,-2.924462,0.513765,-0.011573,0.340156,0.042649,0.011673,1.061962,0.152347,-0.011772,1.935918,0.152861,0.003365,-1.304529,-0.689209,0.999991,0.002656,-0.003253,-0.000849,-0.002978,0.003372,0.000952
0.730000,0.011423,-2.921007,0.514199,-0.011457,0.350872,0.044180,0.011556,1.081254,0.153841,-0.011704,1.922354,0.145913,0.010374,-1.408177,-0.700275,0.999991,0.002641,-0.003236,-0.000844,-0.002965,0.003355,0.000947
0.740000,0.011309,-2.917444,0.514649,-0.011342,0.361781,0.045726,0.011439,1.100406,0.155265,-0.011603,1.907907,0.138857,0.007945,-1.473713,-0.710877,0.999991,0.002627,-0.003219,-0.000840,-0.002951,0.003339,0.000943
0.750000,0.011196,-2.913771,0.515114,-0.011228,0.372880,0.047285,0.011324,1.119410,0.156618,-0.011529,1.892829,0.131698,0.008594,-1.549261,-0.720898,0.999991,0.002612,-0.003203,-0.000835,-0.002937,0.003322,0.000938
0.760000,0.011084,-2.909986,0.515595,-0.011116,0.384168,0.048858,0.011209,1.138259,0.157899,-0.011435,1.876940,0.124441,0.009156,-1.623175,-0.730408,0.999991,0.002597,-0.003186,-0.000830,-0.002924,0.003306,0.000934
0.770000,0.010974,-2.906087,0.516091,-0.011004,0.395644,0.050443,0.011095,1.156947,0.159106,-0.011356,1.860417,0.117091,0.007574,-1.685896,-0.739403,0.999991,0.002583,-0.003170,-0.000825,-0.002910,0.003289,0.000929
0.780000,0.010864,-2.902072,0.516603,-0.010894,0.407307,0.052040,0.010982,1.175465,0.160240,-0.011261,1.843126,0.109655,0.011521,-1.772205,-0.747871,0.999991,0.002568,-0.003153,-0.000821,-0.002897,0.003273,0.000925
0.790000,0.010756,-2.897940,0.517132,-0.010785,0.419153,0.053647,0.010870,1.193807,0.161299,-0.011148,1.825077,0.102136,0.010026,-1.832401,-0.755860,0.999991,0.002554,-0.003137,-0.000816,-0.002884,0.003257,0.000920
0.800000,0.010649,-2.893689,0.517676,-0.010676,0.431182,0.055265,0.010759,1.211965,0.162283,-0.011052,1.806443,0.094540,0.010308,-1.899158,-0.763287,0.999992,0.002539,-0.003121,-0.000812,-0.002871,0.003241,0.000916
0.810000,0.010542,-2.889316,0.518237,-0.010569,0.443392,0.056893,0.010649,1.229933,0.163190,-0.010944,1.787108,0.086872,0.010543,-1.964333,-0.770241,0.999992,0.002525,-0.003104,-0.000807,-0.002857,0.003225,0.000912
0.820000,0.010437,-2.884820,0.518814,-0.010463,0.455780,0.058529,0.010540,1.247705,0.164020,-0.010847,1.767190,0.079136,0.009526,-2.022089,-0.776731,0.999992,0.002511,-0.003088,-0.000803,-0.002844,0.003209,0.000907
0.830000,0.010333,-2.880200,0.519408,-0.010359,0.468345,0.060173,0.010432,1.265275,0.164772,-0.010741,1.746609,0.071339,0.011753,-2.094001,-0.782637,0.999992,0.002497,-0.003072,-0.000798,-0.002831,0.003193,0.000903
0.840000,0.010230,-2.875453,0.520018,-0.010255,0.481085,0.061824,0.010325,1.282635,0.165446,-0.010625,1.725376,0.063485,0.010794,-2.149147,-0.788129,0.999992,0.002482,-0.003056,-0.000794,-0.002818,0.003177,0.000899
0.850000,0.010128,-2.870577,0.520644,-0.010152,0.493997,0.063482,0.010219,1.299781,0.166042,-0.010519,1.703606,0.055578,0.010882,-2.207677,-0.793084,0.999992,0.002468,-0.003041,-0.000789,-0.002805,0.003161,0.000895
0.860000,0.010027,-2.865572,0.521287,-0.010050,0.507080,0.065145,0.010115,1.316705,0.166558,-0.010408,1.681221,0.047623,0.010937,-2.265718,-0.797705,0.999992,0.002454,-0.003025,-0.000785,-0.002793,0.003146,0.000890
0.870000,0.009927,-2.860435,0.521947,-0.009950,0.520331,0.066812,0.010011,1.333403,0.166994,-0.010304,1.658308,0.039625,0.010267,-2.318437,-0.801845,0.999992,0.002440,-0.003009,-0.000780,-0.002780,0.003130,0.000886
0.880000,0.009828,-2.855165,0.522624,-0.009850,0.533747,0.068484,0.009909,1.349869,0.167350,-0.010195,1.634821,0.031588,0.011497,-2.378762,-0.805317,0.999992,0.002427,-0.002994,-0.000776,-0.002767,0.003115,0.000882
0.890000,0.009730,-2.849760,0.523317,-0.009752,0.547327,0.070159,0.009807,1.366098,0.167626,-0.010082,1.610772,0.023519,0.010865,-2.429132,-0.808514,0.999992,0.002413,-0.002978,-0.000771,-0.002755,0.003099,0.000878
0.900000,0.009633,-2.844218,0.524027,-0.009654,0.561068,0.071836,0.009707,1.382083,0.167820,-0.009975,1.586232,0.015420,0.010848,-2.480818,-0.811236,0.999992,0.002399,-0.002963,-0.000767,-0.002742,0.003084,0.000874
0.910000,0.009537,-2.838538,0.524754,-0.009557,0.574968,0.073515,0.009608,1.397821,0.167934,-0.009864,1.561184,0.007297,0.010849,-2.530934,-0.813457,0.999993,0.002385,-0.002947,-0.000763,-0.002730,0.003069,0.000870
0.920000,0.009442,-2.832718,0.525497,-0.009462,0.589024,0.075195,0.009510,1.413305,0.167966,-0.009763,1.535594,-0.000851,0.009896,-2.584440,-0.815867,0.999993,0.002372,-0.002932,-0.000758,-0.002717,0.003053,0.000866
0.930000,0.009348,-2.826757,0.526258,-0.009367,0.603233,0.076874,0.009413,1.428531,0.167917,-0.009656,1.509551,-0.009012,0.011487,-2.624028,-0.816134,0.999993,0.002358,-0.002917,-0.000754,-0.002705,0.003038,0.000861
0.940000,0.009254,-2.820653,0.527035,-0.009274,0.617594,0.078553,0.009317,1.443495,0.167786,-0.009543,1.483068,-0.017179,0.010610,-2.674769,-0.817602,0.999993,0.002345,-0.002901,-0.000750,-0.002693,0.003023,0.000857
0.950000,0.009162,-2.814405,0.527829,-0.009181,0.632102,0.080230,0.009222,1.458191,0.167573,-0.009440,1.456086,-0.025360,0.010558,-2.719629,-0.818159,0.999993,0.002331,-0.002886,-0.000745,-0.002680,0.003008,0.000853
0.960000,0.009071,-2.808010,0.528639,-0.009089,0.646757,0.081904,0.009128,1.472615,0.167279,-0.009334,1.428692,-0.033535,0.010465,-2.763328,-0.818141,0.999993,0.002318,-0.002871,-0.000741,-0.002668,0.002994,0.000850
0.970000,0.008980,-2.801469,0.529467,-0.008998,0.661554,0.083575,0.009035,1.486763,0.166903,-0.009231,1.400783,-0.041735,0.010289,-2.814079,-0.820315,0.999993,0.002305,-0.002856,-0.000737,-0.002656,0.002979,0.000846
0.980000,0.008891,-2.794779,0.530311,-0.008908,0.676491,0.085242,0.008943,1.500630,0.166444,-0.009128,1.372503,-0.049912,0.010289,-2.841806,-0.815101,0.999993,0.002291,-0.002842,-0.000733,-0.002644,0.002964,0.000842
0.990000,0.008802,-2.787939,0.531171,-0.008819,0.691565,0.086904,0.008852,1.514212,0.165904,-0.009026,1.343865,-0.058062,0.010093,-2.889864,-0.816260,0.999993,0.002278,-0.002827,-0.000728,-0.002632,0.002949,0.000838
1.000000,0.008714,-2.780947,0.532049,-0.008731,0.706774,0.088560,0.008763,1.527505,0.165283,-0.008926,1.314750,-0.066224,0.009947,-2.929386,-0.814758,0.999993,0.002265,-0.002812,-0.000724,-0.002620,0.002935,0.000834
1.010000,0.008628,-2.773803,0.532943,-0.008644,0.722114,0.090209,0.008674,1.540505,0.164580,-0.008834,1.285111,-0.074390,0.009640,-2.971522,-0.813550,0.999993,0.002252,-0.002797,-0.000720,-0.002609,0.002920,0.000830
1.020000,0.008542,-2.766504,0.533853,-0.008558,0.737583,0.091851,0.008586,1.553208,0.163796,-0.008721,1.255568,-0.082450,0.011744,-2.962867,-0.802968,0.999993,0.002239,-0.002783,-0.000716,-0.002597,0.002906,0.000826
1.030000,0.008456,-2.759051,0.534780,-0.008472,0.753178,0.093485,0.008499,1.565614,0.162931,-0.008626,1.225313,-0.090547,0.007281,-3.088736,-0.816544,0.999993,0.002226,-0.002768,-0.000712,-0.002586,0.002892,0.000822
1.040000,0.008372,-2.751440,0.535723,-0.008388,0.768894,0.095109,0.008414,1.577712,0.161985,-0.008550,1.194320,-0.098685,0.009126,-3.083502,-0.806185,0.999994,0.002213,-0.002754,-0.000708,-0.002573,0.002877,0.000819
1.050000,0.008289,-2.743672,0.536682,-0.008304,0.784731,0.096724,0.008329,1.589501,0.160958,-0.008454,1.163427,-0.106711,0.008834,-3.121295,-0.803569,0.999994,0.002200,-0.002740,-0.000704,-0.002561,0.002863,0.000815
1.060000,0.008206,-2.735745,0.537657,-0.008221,0.800683,0.098328,0.008244,1.600979,0.159850,-0.008359,1.132109,-0.114719,0.008789,-3.154899,-0.800003,0.999994,0.002187,-0.002725,-0.000700,-0.002548,0.002849,0.000811
1.070000,0.008124,-2.727658,0.538648,-0.008139,0.816749,0.099921,0.008161,1.612141,0.158663,-0.008290,1.100215,-0.122727,0.006226,-3.211313,-0.799632,0.999994,0.002175,-0.002711,-0.000696,-0.002534,0.002835,0.000807
1.080000,0.008043,-2.719410,0.539655,-0.008058,0.832925,0.101501,0.008079,1.622983,0.157396,-0.008207,1.068150,-0.130672,0.010569,-3.201140,-0.789154,0.999994,0.002162,-0.002697,-0.000692,-0.002519,0.002821,0.000804
1.090000,0.007963,-2.710999,0.540678,-0.007978,0.849208,0.103069,0.007997,1.633504,0.156050,-0.008106,1.035944,-0.138547,0.008316,-3.252370,-0.787630,0.999994,0.002150,-0.002683,-0.000688,-0.002505,0.002807,0.000800
1.100000,0.007884,-2.702426,0.541717,-0.007898,0.865594,0.104622,0.007917,1.643700,0.154625,-0.008029,1.003212,-0.146407,0.008333,-3.281104,-0.782497,0.999994,0.002137,-0.002669,-0.000684,-0.002490,0.002793,0.000796
1.110000,0.007805,-2.693687,0.542771,-0.007819,0.882081,0.106161,0.007837,1.653567,0.153122,-0.007941,0.970336,-0.154188,0.008372,-3.307739,-0.776787,0.999994,0.002125,-0.002655,-0.000680,-0.002476,0.002779,0.000793
1.120000,0.007727,-2.684784,0.543840,-0.007741,0.898664,0.107684,0.007758,1.663104,0.151541,-0.007869,0.936933,-0.161969,0.006887,-3.359098,-0.776303,0.999994,0.002112,-0.002641,-0.000676,-0.002462,0.002766,0.000789
1.130000,0.007650,-2.675714,0.544924,-0.007664,0.915342,0.109191,0.007679,1.672306,0.149883,-0.007787,0.903440,-0.169652,0.009575,-3.338842,-0.760248,0.999994,0.002100,-0.002627,-0.000672,-0.002448,0.002752,0.000785
1.140000,0.007574,-2.666476,0.546024,-0.007588,0.932109,0.110682,0.007602,1.681173,0.148149,-0.007694,0.869887,-0.177231,0.008263,-3.385246,-0.758435,0.999994,0.002088,-0.002614,-0.000668,-0.002435,0.002739,0.000782
1.150000,0.007499,-2.657071,0.547138,-0.007512,0.948964,0.112154,0.007525,1.689702,0.146338,-0.007615,0.835857,-0.184795,0.008310,-3.407331,-0.751344,0.999994,0.002076,-0.002600,-0.000664,-0.002421,0.002725,0.000778
1.160000,0.007424,-2.647497,0.548267,-0.007437,0.965902,0.113608,0.007450,1.697889,0.144453,-0.007539,0.801505,-0.192301,0.008155,-3.432717,-0.744682,0.999994,0.002064,-0.002586,-0.000660,-0.002407,0.002712,0.000775
1.170000,0.007350,-2.637753,0.549410,-0.007363,0.982921,0.115043,0.007375,1.705734,0.142493,-0.007440,0.767482,-0.199640,0.010415,-3.400845,-0.727971,0.999994,0.002052,-0.002573,-0.000656,-0.002392,0.002698,0.000771
1.180000,0.007276,-2.627838,0.550568,-0.007290,1.000016,0.116458,0.007301,1.713236,0.140460,-0.007357,0.732879,-0.206966,0.006091,-3.520512,-0.737325,0.999994,0.002040,-0.002559,-0.000652,-0.002378,0.002685,0.000768
1.190000,0.007204,-2.617752,0.551739,-0.007217,1.017184,0.117852,0.007228,1.720389,0.138354,-0.007293,0.697666,-0.214283,0.008079,-3.492583,-0.720984,0.999994,0.002028,-0.002546,-0.000649,-0.002363,0.002672,0.000764
1.200000,0.007132,-2.607494,0.552924,-0.007145,1.034423,0.119225,0.007155,1.727191,0.136175,-0.007206,0.662780,-0.221427,0.007911,-3.513813,-0.712930,0.999995,0.002016,-0.002533,-0.000645,-0.002348,0.002659,0.000761
1.210000,0.007061,-2.597064,0.554123,-0.007074,1.051727,0.120575,0.007083,1.733643,0.133925,-0.007126,0.627559,-0.228513,0.007862,-3.530065,-0.704153,0.999995,0.002004,-0.002519,-0.000641,-0.002334,0.002646,0.000757
1.220000,0.006991,-2.586460,0.555336,-0.007004,1.069094,0.121903,0.007012,1.739742,0.131605,-0.007052,0.592221,-0.235509,0.007184,-3.540267,-0.695021,0.999995,0.001993,-0.002506,-0.000637,-0.002318,0.002632,0.000754
1.230000,0.006921,-2.575682,0.556561,-0.006934,1.086521,0.123207,0.006942,1.745487,0.129215,-0.006975,0.556698,-0.242412,0.008213,-3.564002,-0.685422,0.999995,0.001981,-0.002493,-0.000633,-0.002303,0.002620,0.000750
1.240000,0.006852,-2.564729,0.557800,-0.006865,1.104003,0.124487,0.006873,1.750876,0.126757,-0.006894,0.521007,-0.249217,0.007604,-3.571002,-0.675455,0.999995,0.001970,-0.002480,-0.000630,-0.002288,0.002607,0.000747
1.250000,0.006784,-2.553601,0.559051,-0.006796,1.121537,0.125742,0.006804,1.755907,0.124231,-0.006820,0.485249,-0.255920,0.007556,-3.581977,-0.665100,0.999995,0.001958,-0.002467,-0.000626,-0.002273,0.002594,0.000743
1.260000,0.006716,-2.542298,0.560315,-0.006729,1.139120,0.126971,0.006737,1.760581,0.121639,-0.006744,0.449457,-0.262499,0.007505,-3.588839,-0.653905,0.999995,0.001947,-0.002454,-0.000622,-0.002258,0.002581,0.000740
1.270000,0.006649,-2.530819,0.561590,-0.006662,1.156747,0.128175,0.006670,1.764895,0.118982,-0.006672,0.413361,-0.269028,0.007137,-3.617587,-0.648580,0.999995,0.001936,-0.002441,-0.000619,-0.002243,0.002568,0.000737
1.280000,0.006583,-2.519163,0.562878,-0.006595,1.174416,0.129351,0.006603,1.768848,0.116259,-0.006598,0.377373,-0.275400,0.007630,-3.579214,-0.625700,0.999995,0.001925,-0.002428,-0.000615,-0.002229,0.002556,0.000733
1.290000,0.006517,-2.507330,0.564177,-0.006530,1.192123,0.130500,0.006538,1.772443,0.113474,-0.006523,0.341532,-0.281607,0.007295,-3.601226,-0.618803,0.999995,0.001913,-0.002416,-0.000611,-0.002214,0.002543,0.000730
1.300000,0.006452,-2.495320,0.565488,-0.006465,1.209864,0.131620,0.006473,1.775678,0.110627,-0.006451,0.305465,-0.287748,0.007239,-3.599501,-0.605990,0.999995,0.001902,-0.002403,-0.000608,-0.002201,0.002531,0.000727
1.310000,0.006388,-2.483133,0.566810,-0.006400,1.227636,0.132712,0.006409,1.778554,0.107720,-0.006379,0.269764,-0.293682,0.007169,-3.590923,-0.591716,0.999995,0.001891,-0.002390,-0.000604,-0.002188,0.002518,0.000723
1.320000,0.006324,-2.470768,0.568142,-0.006336,1.245434,0.133774,0.006345,1.781069,0.104753,-0.006307,0.233189,-0.299682,0.007113,-3.674740,-0.597590,0.999995,0.001880,-0.002378,-0.000600,-0.002176,0.002506,0.000720
1.330000,0.006261,-2.458224,0.569485,-0.006273,1.263256,0.134807,0.006282,1.783220,0.101727,-0.006237,0.197305,-0.305409,0.007003,-3.500318,-0.547510,0.999995,0.001870,-0.002365,-0.000597,-0.002164,0.002493,0.000717
1.340000,0.006199,-2.445502,0.570838,-0.006211,1.281097,0.135809,0.006220,1.785018,0.098646,-0.006167,0.162197,-0.310847,0.006936,-3.570458,-0.550630,0.999995,0.001859,-0.002353,-0.000593,-0.002155,0.002481,0.000714
1.350000,0.006137,-2.432602,0.572201,-0.006149,1.298955,0.136779,0.006159,1.786461,0.095510,-0.006098,0.126319,-0.316331,0.006846,-3.555460,-0.535450,0.999995,0.001848,-0.002340,-0.000590,-0.002146,0.002469,0.000710
1.360000,0.006076,-2.419523,0.573574,-0.006088,1.316825,0.137719,0.006099,1.787549,0.092320,-0.005926,0.091432,-0.321558,0.008800,-3.530454,-0.519727,0.999995,0.001837,-0.002328,-0.000586,-0.002139,0.002457,0.000707
1.370000,0.006015,-2.406266,0.574955,-0.006027,1.334705,0.138626,0.006039,1.788281,0.089079,-0.006094,0.054711,-0.326817,-0.024269,-3.708289,-0.522570,0.999995,0.001827,-0.002316,-0.000583,-0.002133,0.002445,0.000704
1.380000,0.005955,-2.392829,0.576346,-0.005967,1.352590,0.139500,0.005978,1.788649,0.085785,-0.006032,0.019479,-0.331807,0.037291,-3.334804,-0.475208,0.999996,0.001816,-0.002304,-0.000579,-0.002130,0.002432,0.000701
1.390000,0.005896,-2.379214,0.577745,-0.005907,1.370477,0.140341,0.005919,1.788677,0.082443,-0.005716,-0.014123,-0.336517,0.007500,-3.492427,-0.476482,0.999996,0.001805,-0.002292,-0.000576,-0.002128,0.002420,0.000698
1.400000,0.005837,-2.365420,0.579153,-0.005848,1.388362,0.141149,0.005862,1.788359,0.079054,-0.005728,-0.049469,-0.341255,0.008348,-3.471274,-0.461554,0.999996,0.001795,-0.002279,-0.000572,-0.002129,0.002409,0.000695
1.410000,0.005779,-2.351447,0.580568,-0.005790,1.406243,0.141922,0.005803,1.787689,0.075619,-0.006087,-0.084440,-0.345906,-0.001155,-3.466128,-0.449858,0.999996,0.001784,-0.002267,-0.000569,-0.002132,0.002397,0.000691
1.420000,0.005721,-2.337295,0.581991,-0.005732,1.424115,0.142661,0.005747,1.786675,0.072138,-0.005023,-0.118276,-0.350079,0.137126,-3.357248,-0.403280,0.999996,0.001773,-0.002256,-0.000565,-0.002137,0.002385,0.000688
1.430000,0.005664,-2.322964,0.583421,-0.005675,1.441975,0.143365,0.005699,1.785321,0.068617,-0.004957,-0.152766,-0.354359,-0.126347,-3.543157,-0.453313,0.999996,0.001762,-0.002244,-0.000562,-0.002143,0.002373,0.000685
1.440000,0.005608,-2.308455,0.584858,-0.005618,1.459820,0.144033,0.005643,1.783617,0.065050,-0.005995,-0.188029,-0.358776,-0.003535,-3.454251,-0.411577,0.999996,0.001752,-0.002232,-0.000558,-0.002150,0.002361,0.000682
1.450000,0.005552,-2.293768,0.586302,-0.005562,1.477646,0.144666,0.005585,1.781565,0.061443,-0.005684,-0.222345,-0.362750,-0.011506,-3.465706,-0.401769,0.999996,0.001741,-0.002220,-0.000555,-0.002158,0.002349,0.000679
1.460000,0.005497,-2.278903,0.587751,-0.005507,1.495450,0.145262,0.005530,1.779153,0.057794,-0.005236,-0.260441,-0.367010,-0.002124,-3.544908,-0.397469,0.999996,0.001730,-0.002208,-0.000552,-0.002166,0.002338,0.000675
1.470000,0.005442,-2.263859,0.589207,-0.005452,1.513228,0.145821,0.005472,1.776403,0.054107,-0.006676,-0.287625,-0.370223,-0.185301,-2.485072,-0.295801,0.999996,0.001719,-0.002197,-0.000548,-0.002173,0.002326,0.000672
1.480000,0.005388,-2.248638,0.590668,-0.005397,1.530977,0.146344,0.005402,1.773370,0.050387,-0.006831,-0.322596,-0.373988,0.157512,-4.527602,-0.458830,0.999996,0.001708,-0.002185,-0.000545,-0.002178,0.002314,0.000668
1.490000,0.005334,-2.233240,0.592134,-0.005344,1.548694,0.146829,0.005341,1.769918,0.046625,-0.005555,-0.366174,-0.378376,-0.003632,-3.588681,-0.367595,0.999996,0.001698,-0.002173,-0.000542,-0.002180,0.002302,0.000665
1.500000,0.005281,-2.217664,0.593604,-0.005290,1.566374,0.147276,0.005283,1.766092,0.042824,-0.006042,-0.399437,-0.381772,0.007379,-3.659769,-0.362476,0.999996,0.001687,-0.002162,-0.000538,-0.002178,0.002291,0.000662
1.510000,0.005228,-2.201912,0.595079,-0.005238,1.584015,0.147685,0.005223,1.761931,0.038990,-0.005980,-0.432287,-0.385101,0.011235,-3.607871,-0.348464,0.999996,0.001676,-0.002151,-0.000535,-0.002170,0.002279,0.000659
1.520000,0.005176,-2.185984,0.596558,-0.005186,1.601612,0.148056,0.005164,1.757391,0.035119,-0.005760,-0.478000,-0.389154,0.026553,-4.855105,-0.418103,0.999996,0.001665,-0.002139,-0.000532,-0.002159,0.002268,0.000657
1.530000,0.005124,-2.169880,0.598040,-0.005135,1.619161,0.148388,0.005107,1.752405,0.031209,-0.005578,-0.515123,-0.392541,0.009638,-2.547246,-0.257747,0.999996,0.001654,-0.002128,-0.000528,-0.002145,0.002257,0.000654
1.540000,0.005073,-2.153601,0.599525,-0.005084,1.636659,0.148680,0.005052,1.747126,0.027271,-0.005447,-0.542645,-0.395192,0.022610,-3.640785,-0.316678,0.999996,0.001644,-0.002117,-0.000525,-0.002129,0.002246,0.000652
1.550000,0.005023,-2.137147,0.601014,-0.005034,1.654102,0.148933,0.004999,1.741500,0.023302,-0.005181,-0.582107,-0.398495,0.024345,-3.568165,-0.299701,0.999996,0.001633,-0.002105,-0.000522,-0.002113,0.002235,0.000649
1.560000,0.004973,-2.120519,0.602504,-0.004984,1.671488,0.149146,0.004946,1.735505,0.019303,-0.005452,-0.616780,-0.401202,0.015145,-3.518561,-0.280468,0.999996,0.001623,-0.002094,-0.000519,-0.002099,0.002223,0.000646
1.570000,0.004923,-2.103718,0.603996,-0.004935,1.688811,0.149319,0.004897,1.729154,0.015276,-0.004017,-0.653876,-0.404459,0.180628,-3.752330,-0.333081,0.999996,0.001612,-0.002083,-0.000515,-0.002086,0.002212,0.000643
1.580000,0.004874,-2.086743,0.605490,-0.004886,1.706069,0.149451,0.004861,1.722436,0.011217,-0.003753,-0.688717,-0.407072,-0.130725,-3.211528,-0.188308,0.999996,0.001602,-0.002072,-0.000512,-0.002074,0.002201,0.000640
1.590000,0.004825,-2.069597,0.606985,-0.004837,1.723259,0.149543,0.004817,1.715389,0.007137,-0.004790,-0.721106,-0.408985,0.015182,-3.416053,-0.232285,0.999996,0.001591,-0.002061,-0.000509,-0.002063,0.002190,0.000637
1.600000,0.004777,-2.052278,0.608481,-0.004789,1.740376,0.149594,0.004772,1.708003,0.003035,-0.004230,-0.755781,-0.411395,0.005314,-3.370570,-0.211764,0.999997,0.001581,-0.002050,-0.000506,-0.002051,0.002179,0.000634
1.610000,0.004729,-2.034789,0.609977,-0.004742,1.757418,0.149604,0.004732,1.700262,-0.001091,-0.003759,-0.793014,-0.413642,0.010363,-3.412670,-0.198041,0.999997,0.001571,-0.002039,-0.000503,-0.002039,0.002168,0.000631
1.620000,0.004682,-2.017130,0.611473,-0.004695,1.774380,0.149572,0.004691,1.692196,-0.005235,-0.004743,-0.817938,-0.414992,-0.130945,-2.217044,-0.110429,0.999997,0.001561,-0.002029,-0.000499,-0.002027,0.002157,0.000628
1.630000,0.004636,-1.999302,0.612968,-0.004648,1.791261,0.149499,0.004641,1.683871,-0.009392,-0.004778,-0.850893,-0.416657,0.126516,-4.394461,-0.223707,0.999997,0.001551,-0.002018,-0.000496,-0.002014,0.002145,0.000625
1.640000,0.004589,-1.981305,0.614463,-0.004602,1.808056,0.149384,0.004599,1.675143,-0.013569,-0.003753,-0.892794,-0.418690,0.001526,-3.335283,-0.144152,0.999997,0.001541,-0.002007,-0.000493,-0.002002,0.002134,0.000622
1.650000,0.004543,-1.963141,0.615956,-0.004556,1.824763,0.149228,0.004560,1.666065,-0.017762,-0.004094,-0.923122,-0.419870,0.007016,-3.378127,-0.130363,0.999997,0.001531,-0.001996,-0.000490,-0.001989,0.002123,0.000619
1.660000,0.004498,-1.944810,0.617447,-0.004511,1.841376,0.149029,0.004519,1.656674,-0.021967,-0.004169,-0.954766,-0.421084,0.004623,-3.334090,-0.113908,0.999997,0.001521,-0.001986,-0.000487,-0.001976,0.002112,0.000616
1.670000,0.004453,-1.926314,0.618936,-0.004466,1.857895,0.148788,0.004479,1.646940,-0.026183,-0.003756,-0.993325,-0.422161,0.052039,-4.004612,-0.100097,0.999997,0.001511,-0.001975,-0.000484,-0.001963,0.002102,0.000613
1.680000,0.004409,-1.907653,0.620423,-0.004421,1.874314,0.148505,0.004442,1.636827,-0.030410,-0.003672,-1.027023,-0.423056,-0.036024,-2.722762,-0.078851,0.999997,0.001501,-0.001965,-0.000481,-0.001950,0.002091,0.000610
1.690000,0.004365,-1.888828,0.621906,-0.004377,1.890630,0.148180,0.004404,1.626421,-0.034644,-0.003953,-1.055308,-0.423766,0.005943,-3.309808,-0.064527,0.999997,0.001491,-0.001954,-0.000478,-0.001937,0.002080,0.000607
1.700000,0.004321,-1.869841,0.623386,-0.004333,1.906841,0.147812,0.004365,1.615693,-0.038884,-0.003775,-1.090015,-0.424334,0.003594,-3.256294,-0.047621,0.999997,0.001482,-0.001944,-0.000475,-0.001924,0.002069,0.000604
1.710000,0.004278,-1.850692,0.624862,-0.004290,1.922943,0.147402,0.004328,1.604630,-0.043130,-0.003710,-1.122455,-0.424711,0.003575,-3.225564,-0.030640,0.999997,0.001472,-0.001934,-0.000472,-0.001911,0.002058,0.000601
1.720000,0.004235,-1.831382,0.626334,-0.004247,1.938933,0.146950,0.004291,1.593245,-0.047378,-0.003756,-1.154481,-0.424980,-0.007119,-3.183977,-0.019819,0.999997,0.001463,-0.001923,-0.000469,-0.001898,0.002047,0.000599
1.730000,0.004193,-1.811913,0.627801,-0.004204,1.954807,0.146455,0.004253,1.581541,-0.051629,-0.003736,-1.186225,-0.425036,0.011354,-3.164596,0.008781,0.999997,0.001453,-0.001913,-0.000466,-0.001886,0.002037,0.000596
1.740000,0.004151,-1.792286,0.629263,-0.004162,1.970563,0.145917,0.004216,1.569522,-0.055878,-0.003641,-1.217677,-0.424873,0.001907,-3.121053,0.020564,0.999997,0.001444,-0.001903,-0.000463,-0.001873,0.002026,0.000593
1.750000,0.004110,-1.772502,0.630719,-0.004120,1.986196,0.145337,0.004180,1.557189,-0.060126,-0.003650,-1.248685,-0.424596,0.002029,-3.084570,0.038225,0.999997,0.001434,-0.001893,-0.000460,-0.001860,0.002015,0.000590
1.760000,0.004069,-1.752563,0.632170,-0.004078,2.001705,0.144715,0.004142,1.544551,-0.064369,-0.003963,-1.278832,-0.424054,-0.004752,-3.036795,0.057226,0.999997,0.001425,-0.001883,-0.000457,-0.001847,0.002005,0.000587
1.770000,0.004028,-1.732469,0.633614,-0.004037,2.017086,0.144050,0.004105,1.531607,-0.068607,-0.003192,-1.310267,-0.423570,0.100931,-3.161031,0.052044,0.999997,0.001416,-0.001873,-0.000454,-0.001833,0.001994,0.000584
1.780000,0.003988,-1.712221,0.635051,-0.003996,2.032337,0.143343,0.004075,1.518352,-0.072839,-0.003165,-1.340180,-0.422749,-0.097236,-2.818815,0.112658,0.999997,0.001407,-0.001863,-0.000451,-0.001819,0.001984,0.000581
1.790000,0.003949,-1.691822,0.636480,-0.003955,2.047453,0.142593,0.004039,1.504809,-0.077061,-0.003956,-1.368454,-0.421572,-0.002079,-2.926557,0.109997,0.999997,0.001398,-0.001853,-0.000448,-0.001804,0.001973,0.000578
1.800000,0.003909,-1.671273,0.637902,-0.003915,2.062432,0.141801,0.004001,1.490977,-0.081271,-0.003701,-1.397955,-0.420441,-0.005313,-2.883837,0.128741,0.999997,0.001389,-0.001843,-0.000445,-0.001788,0.001963,0.000575
1.810000,0.003870,-1.650574,0.639316,-0.003875,2.077271,0.140968,0.003969,1.476850,-0.085469,-0.002478,-1.427498,-0.419039,0.021835,-2.867041,0.146966,0.999997,0.001380,-0.001834,-0.000443,-0.001771,0.001952,0.000572
1.820000,0.003832,-1.629728,0.640721,-0.003836,2.091968,0.140092,0.003933,1.462440,-0.089652,-0.005363,-1.453851,-0.417547,-0.377100,-2.557596,0.155933,0.999997,0.001371,-0.001824,-0.000440,-0.001753,0.001942,0.000569
1.830000,0.003794,-1.608735,0.642118,-0.003797,2.106519,0.139175,0.003873,1.447766,-0.093819,-0.005368,-1.481882,-0.415824,0.382973,-3.053765,0.188747,0.999997,0.001362,-0.001814,-0.000437,-0.001734,0.001932,0.000566
1.840000,0.003756,-1.587598,0.643505,-0.003758,2.120922,0.138216,0.003838,1.432795,-0.097967,-0.002188,-1.511833,-0.413868,0.029091,-2.782003,0.197744,0.999997,0.001354,-0.001804,-0.000434,-0.001714,0.001921,0.000563
1.850000,0.003718,-1.566317,0.644882,-0.003720,2.135174,0.137215,0.003812,1.417542,-0.102096,-0.002892,-1.538844,-0.411831,0.052698,-2.775480,0.214106,0.999997,0.001345,-0.001795,-0.000431,-0.001693,0.001911,0.000561
1.860000,0.003681,-1.544895,0.646249,-0.003682,2.149272,0.136174,0.003779,1.402003,-0.106205,-0.003873,-1.569202,-0.409941,0.028770,-2.814664,0.222968,0.999997,0.001337,-0.001785,-0.000428,-0.001671,0.001900,0.000559
1.870000,0.003645,-1.523333,0.647605,-0.003644,2.163213,0.135091,0.003756,1.386196,-0.110290,0.000233,-1.590706,-0.406829,0.522228,-1.953419,0.341828,0.999997,0.001329,-0.001776,-0.000426,-0.001648,0.001889,0.000557
1.880000,0.003608,-1.501631,0.648951,-0.003607,2.176995,0.133968,0.003770,1.370166,-0.114344,0.000900,-1.618077,-0.404309,-0.397487,-3.534779,0.160340,0.999997,0.001320,-0.001766,-0.000423,-0.001626,0.001878,0.000554
1.890000,0.003573,-1.479793,0.650285,-0.003569,2.190615,0.132805,0.003760,1.353809,-0.118379,-0.002264,-1.651931,-0.402463,0.036733,-2.763076,0.266862,0.999998,0.001312,-0.001757,-0.000420,-0.001603,0.001867,0.000552
1.900000,0.003537,-1.457820,0.651607,-0.003531,2.204070,0.131601,0.003746,1.337164,-0.122388,-0.000681,-1.677323,-0.399463,0.008354,-2.783972,0.275403,0.999998,0.001304,-0.001748,-0.000417,-0.001581,0.001856,0.000550
1.910000,0.003502,-1.435712,0.652916,-0.003494,2.217358,0.130357,0.003739,1.320273,-0.126368,-0.000629,-1.700188,-0.396336,-0.002297,-2.667693,0.294085,0.999998,0.001296,-0.001739,-0.000415,-0.001559,0.001846,0.000547
1.920000,0.003467,-1.413473,0.654214,-0.003457,2.230475,0.129073,0.003732,1.303093,-0.130319,-0.000764,-1.738743,-0.394094,-0.020283,-4.187812,0.208661,0.999998,0.001289,-0.001729,-0.000412,-0.001538,0.001836,0.000543
1.930000,0.003433,-1.391103,0.655498,-0.003419,2.243418,0.127751,0.003724,1.285542,-0.134246,-0.000945,-1.765988,-0.391024,-0.015647,-1.233374,0.407052,0.999998,0.001281,-0.001720,-0.000409,-0.001517,0.001826,0.000540
1.940000,0.003399,-1.368605,0.656769,-0.003382,2.256185,0.126389,0.003714,1.267822,-0.138136,-0.001154,-1.780667,-0.387049,-0.029956,-2.563840,0.333309,0.999998,0.001274,-0.001711,-0.000407,-0.001496,0.001816,0.000537
1.950000,0.003365,-1.345980,0.658025,-0.003345,2.268774,0.124988,0.003700,1.249865,-0.141991,-0.001502,-1.809932,-0.383893,-0.034987,-2.429177,0.352432,0.999998,0.001266,-0.001702,-0.000404,-0.001475,0.001806,0.000533
1.960000,0.003332,-1.323230,0.659268,-0.003308,2.281182,0.123549,0.003690,1.231644,-0.145812,-0.000369,-1.834249,-0.380225,-0.007880,-2.356811,0.369534,0.999998,0.001259,-0.001693,-0.000401,-0.001454,0.001796,0.000530
1.970000,0.003299,-1.300357,0.660496,-0.003271,2.293406,0.122072,0.003672,1.213189,-0.149596,-0.004134,-1.856349,-0.376603,-0.483074,-2.139328,0.365707,0.999998,0.001252,-0.001684,-0.000399,-0.001432,0.001785,0.000527
1.980000,0.003266,-1.277363,0.661709,-0.003235,2.305445,0.120557,0.003620,1.194516,-0.153343,-0.004530,-1.878641,-0.372687,0.412277,-2.322124,0.417656,0.999998,0.001244,-0.001675,-0.000396,-0.001411,0.001775,0.000524
1.990000,0.003234,-1.254249,0.662907,-0.003199,2.317296,0.119005,0.003596,1.175615,-0.157048,-0.001182,-1.901269,-0.368468,-0.006971,-2.127560,0.415346,0.999998,0.001237,-0.001666,-0.000393,-0.001390,0.001765,0.000521
2.000000,0.003203,-1.231018,0.664089,-0.003163,2.328956,0.117416,0.003577,1.156499,-0.160712,-0.002426,-1.921860,-0.364289,0.021389,-2.068731,0.430964,0.999998,0.001231,-0.001658,-0.000391,-0.001369,0.001754,0.000519
2.010000,0.003171,-1.207671,0.665256,-0.003127,2.340425,0.115791,0.003548,1.137160,-0.164335,-0.003459,-1.946210,-0.360239,0.005775,-2.090759,0.438583,0.999998,0.001224,-0.001649,-0.000388,-0.001349,0.001744,0.000516
2.020000,0.003140,-1.184210,0.666405,-0.003092,2.351699,0.114130,0.003526,1.117631,-0.167912,-0.000162,-1.957148,-0.354969,0.426339,-0.788011,0.557441,0.999998,0.001217,-0.001640,-0.000386,-0.001329,0.001733,0.000513
2.030000,0.003109,-1.160637,0.667538,-0.003057,2.362777,0.112433,0.003534,1.097984,-0.171437,0.000296,-1.976482,-0.350310,-0.341881,-3.100975,0.372513,0.999998,0.001210,-0.001631,-0.000383,-0.001310,0.001723,0.000510
2.040000,0.003079,-1.136955,0.668654,-0.003021,2.373658,0.110701,0.003520,1.078065,-0.174921,-0.002409,-2.005205,-0.346346,0.029914,-1.946713,0.478838,0.999998,0.001204,-0.001623,-0.000380,-0.001290,0.001713,0.000507
2.050000,0.003049,-1.113165,0.669752,-0.002986,2.384338,0.108935,0.003503,1.057934,-0.178359,-0.001053,-2.021335,-0.341230,0.012728,-1.973880,0.485920,0.999998,0.001198,-0.001614,-0.000378,-0.001269,0.001702,0.000504
2.060000,0.003019,-1.089269,0.670832,-0.002951,2.394816,0.107134,0.003495,1.037660,-0.181743,-0.000515,-2.032346,-0.335547,0.018681,-1.782877,0.511896,0.999998,0.001191,-0.001606,-0.000375,-0.001244,0.001692,0.000501
2.070000,0.002990,-1.065269,0.671894,-0.002916,2.405090,0.105300,0.003487,1.017167,-0.185080,-0.001380,-2.071300,-0.332276,-0.117641,-4.500338,0.277384,0.999998,0.001185,-0.001597,-0.000373,-0.001220,0.001682,0.000498
2.080000,0.002961,-1.041168,0.672938,-0.002882,2.415158,0.103433,0.003471,0.996311,-0.188382,-0.001314,-2.090703,-0.327164,0.133251,0.665357,0.749094,0.999998,0.001179,-0.001589,-0.000370,-0.001198,0.001672,0.000494
2.090000,0.002932,-1.016967,0.673963,-0.002847,2.425017,0.101533,0.003465,0.975437,-0.191616,-0.000211,-2.088551,-0.320033,0.012725,-1.760472,0.540455,0.999998,0.001173,-0.001581,-0.000368,-0.001179,0.001662,0.000491
2.100000,0.002904,-0.992668,0.674969,-0.002812,2.434666,0.099601,0.003461,0.954424,-0.194792,-0.000425,-2.113044,-0.315202,0.019002,-1.623799,0.561355,0.999998,0.001167,-0.001572,-0.000366,-0.001161,0.001652,0.000488
2.110000,0.002876,-0.968274,0.675955,-0.002778,2.444104,0.097637,0.003460,0.933153,-0.197922,0.000158,-2.142989,-0.310960,0.028219,-1.883269,0.542890,0.999998,0.001161,-0.001564,-0.000363,-0.001157,0.001641,0.000484
2.120000,0.002848,-0.943787,0.676921,-0.002743,2.453329,0.095642,0.003459,0.911757,-0.200991,-0.000498,-2.127914,-0.301993,-0.092274,2.483280,1.001699,0.999998,0.001156,-0.001556,-0.000361,-0.001144,0.001631,0.000480
2.130000,0.002821,-0.919208,0.677868,-0.002708,2.462340,0.093617,0.003453,0.890473,-0.203974,-0.000280,-2.144017,-0.296152,0.137888,-5.781542,0.158433,0.999998,0.001150,-0.001548,-0.000358,-0.001114,0.001621,0.000477
2.140000,0.002794,-0.894541,0.678794,-0.002674,2.471136,0.091563,0.003457,0.868742,-0.206928,0.000897,-2.194783,-0.293795,0.029557,-1.937766,0.564077,0.999998,0.001145,-0.001540,-0.000356,-0.001059,0.001611,0.000473
2.150000,0.002768,-0.869786,0.679699,-0.002639,2.479714,0.089479,0.003466,0.846760,-0.209831,0.000882,-2.203453,-0.287000,0.034708,-2.223148,0.544556,0.999998,0.001141,-0.001532,-0.000354,-0.000973,0.001601,0.000469
2.160000,0.002741,-0.844947,0.680583,-0.002605,2.488071,0.087367,0.003477,0.824618,-0.212672,0.001324,-2.224857,-0.281160,0.035564,-2.317290,0.550343,0.999998,0.001137,-0.001524,-0.000351,-0.000831,0.001591,0.000465
2.170000,0.002715,-0.820025,0.681446,-0.002570,2.496206,0.085226,0.003491,0.802238,-0.215460,0.001422,-2.252158,-0.276662,0.000777,-2.886241,0.420922,0.999998,0.001133,-0.001516,-0.000349,-0.000663,0.001582,0.000461
2.180000,0.002690,-0.795024,0.682288,-0.002535,2.504115,0.083057,0.003506,0.779585,-0.218202,0.001692,-2.277184,-0.271240,0.053203,-2.107231,0.665987,0.999998,0.001131,-0.001508,-0.000347,-0.000478,0.001573,0.000457
2.190000,0.002665,-0.769944,0.683107,-0.002500,2.511797,0.080862,0.003525,0.756706,-0.220881,0.002126,-2.299352,-0.264772,0.015625,-2.577723,0.556318,0.999998,0.001128,-0.001500,-0.000344,-0.000288,0.001563,0.000452
2.200000,0.002640,-0.744788,0.683905,-0.002464,2.519248,0.078640,0.003547,0.733577,-0.223503,0.002139,-2.326456,-0.259492,0.003617,-2.582009,0.571689,0.999998,0.001127,-0.001492,-0.000342,-0.000105,0.001553,0.000447
2.210000,0.002615,-0.719560,0.684680,-0.002429,2.526467,0.076392,0.003561,0.710241,-0.226062,0.000520,-2.339054,-0.252291,-0.044992,-2.305197,0.613937,0.999998,0.001127,-0.001485,-0.000340,0.000045,0.001542,0.000442
2.220000,0.002591,-0.694260,0.685432,-0.002393,2.533452,0.074119,0.003579,0.686612,-0.228568,0.003831,-2.394287,-0.249551,0.431993,-6.433819,0.181938,0.999998,0.001127,-0.001477,-0.000338,0.000174,0.001531,0.000435
2.230000,0.002568,-0.668891,0.686162,-0.002357,2.540198,0.071821,0.003623,0.662473,-0.231040,0.003384,-2.419295,-0.243449,-0.530347,1.508107,1.046581,0.999998,0.001128,-0.001469,-0.000335,0.000283,0.001518,0.000428
2.240000,0.002544,-0.643457,0.686869,-0.002321,2.546702,0.069498,0.003630,0.638357,-0.233422,-0.001226,-2.410642,-0.233624,-0.114653,-2.099452,0.668675,0.999998,0.001130,-0.001462,-0.000333,0.000372,0.001504,0.000419
2.250000,0.002521,-0.617958,0.687552,-0.002284,2.552964,0.067153,0.003619,0.614088,-0.235731,-0.001266,-2.441503,-0.227955,-0.169764,-1.753859,0.714269,0.999998,0.001131,-0.001454,-0.000331,0.000444,0.001489,0.000410
2.260000,0.002499,-0.592398,0.688212,-0.002248,2.558983,0.064784,0.003595,0.589565,-0.237978,-0.003625,-2.463447,-0.221538,-0.216154,-1.659634,0.725724,0.999998,0.001133,-0.001447,-0.000329,0.000506,0.001471,0.000399
2.270000,0.002476,-0.566779,0.688848,-0.002213,2.564755,0.062393,0.003552,0.564901,-0.240149,-0.004795,-2.465725,-0.212003,-0.100541,0.257904,1.028935,0.999998,0.001136,-0.001440,-0.000327,0.000554,0.001453,0.000388
2.280000,0.002454,-0.541104,0.689460,-0.002177,2.570281,0.059981,0.003494,0.540209,-0.242225,-0.007368,-2.478158,-0.204159,-0.415998,-2.774678,0.534737,0.999998,0.001139,-0.001432,-0.000325,0.000587,0.001434,0.000376
2.290000,0.002433,-0.515375,0.690047,-0.002143,2.575558,0.057549,0.003399,0.515292,-0.244240,-0.011419,-2.502093,-0.198236,-0.309357,-1.057974,0.803222,0.999998,0.001142,-0.001425,-0.000324,0.000607,0.001415,0.000364
2.300000,0.002411,-0.489594,0.690610,-0.002110,2.580586,0.055097,0.003271,0.490246,-0.246177,-0.014246,-2.507445,-0.189406,-0.338587,-0.965494,0.809440,0.999998,0.001144,-0.001418,-0.000322,0.000613,0.001397,0.000351
2.310000,0.002390,-0.463764,0.691149,-0.002078,2.585363,0.052626,0.003106,0.465095,-0.248031,-0.018879,-2.523368,-0.181272,-0.377598,-0.956898,0.823014,0.999998,0.001147,-0.001411,-0.000320,0.000605,0.001383,0.000340
2.320000,0.002370,-0.437887,0.691663,-0.002048,2.589888,0.050137,0.002909,0.439881,-0.249802,-0.019843,-2.514971,-0.172897,-0.015819,1.411181,0.845819,0.999998,0.001150,-0.001404,-0.000318,0.000582,0.001369,0.000329
2.330000,0.002350,-0.411967,0.692152,-0.002019,2.594161,0.047630,0.002699,0.414739,-0.251489,-0.023409,-2.520863,-0.164482,-0.701438,-2.627078,0.836684,0.999998,0.001153,-0.001398,-0.000317,0.000542,0.001354,0.000319
2.340000,0.002329,-0.386005,0.692615,-0.001994,2.598182,0.045107,0.002430,0.389401,-0.253092,-0.029721,-2.542700,-0.156054,-0.353564,-0.501681,0.854392,0.999998,0.001155,-0.001391,-0.000315,0.000485,0.001340,0.000311
2.350000,0.002310,-0.360004,0.693054,-0.001971,2.601949,0.042568,0.002121,0.363984,-0.254609,-0.032158,-2.541360,-0.147450,-0.334727,-0.460661,0.860235,0.999998,0.001157,-0.001384,-0.000313,0.000409,0.001324,0.000305
2.360000,0.002290,-0.333967,0.693467,-0.001951,2.605462,0.040015,0.001837,0.338600,-0.256046,-0.022989,-2.533747,-0.140088,-0.039703,-0.093878,0.839347,0.999998,0.001159,-0.001378,-0.000312,0.000312,0.001303,0.000300
2.370000,0.002271,-0.307896,0.693854,-0.001934,2.608721,0.037448,0.001492,0.313152,-0.257393,-0.053250,-2.562324,-0.128575,-3.865789,-3.601344,1.242404,0.999998,0.001160,-0.001371,-0.000310,0.000199,0.001283,0.000297
2.380000,0.002251,-0.281793,0.694216,-0.001922,2.611724,0.034868,0.000882,0.287460,-0.258629,-0.055242,-2.563368,-0.119872,3.534745,3.456730,0.491403,0.999998,0.001160,-0.001365,-0.000309,0.000071,0.001270,0.000294
2.390000,0.002232,-0.255662,0.694551,-0.001916,2.614471,0.032275,0.000508,0.262002,-0.259803,-0.025969,-2.534002,-0.114281,0.152617,0.379367,0.849740,0.999998,0.001160,-0.001358,-0.000307,-0.000068,0.001264,0.000292
2.400000,0.002213,-0.229505,0.694861,-0.001912,2.616964,0.029672,0.000202,0.236632,-0.260897,-0.033842,-2.538488,-0.104761,0.428798,0.753400,0.832667,0.999998,0.001160,-0.001352,-0.000306,-0.000215,0.001268,0.000289
2.410000,0.002194,-0.203324,0.695145,-0.001912,2.619204,0.027058,-0.000172,0.211308,-0.261898,-0.042378,-2.525270,-0.095151,0.277498,1.076504,0.858416,0.999998,0.001158,-0.001345,-0.000305,-0.000368,0.001293,0.000285
2.420000,0.002175,-0.177121,0.695402,-0.001915,2.621190,0.024434,-0.000455,0.186071,-0.262818,-0.006128,-2.524490,-0.089717,4.623089,-0.137740,0.454108,0.999998,0.001156,-0.001339,-0.000303,-0.000520,0.001323,0.000280
2.430000,0.002156,-0.150901,0.695633,-0.001920,2.622925,0.021802,-0.000410,0.160864,-0.263680,0.000764,-2.511600,-0.081331,-3.321179,2.734334,1.230760,0.999998,0.001153,-0.001332,-0.000302,-0.000668,0.001351,0.000275
2.440000,0.002136,-0.124664,0.695838,-0.001924,2.624409,0.019161,-0.000568,0.135888,-0.264432,-0.025158,-2.485862,-0.069644,0.502135,1.611156,0.880004,0.999998,0.001149,-0.001325,-0.000300,-0.000807,0.001372,0.000269
2.450000,0.002117,-0.098413,0.696017,-0.001931,2.625643,0.016513,-0.000733,0.111091,-0.265090,-0.009347,-2.472801,-0.061790,0.297684,1.783764,0.917794,0.999998,0.001145,-0.001319,-0.000299,-0.000935,0.001380,0.000264
2.460000,0.002098,-0.072152,0.696169,-0.001939,2.626631,0.013860,-0.000845,0.086369,-0.265647,-0.014228,-2.473933,-0.049161,0.086951,1.461554,1.009883,0.999998,0.001141,-0.001312,-0.000298,-0.001042,0.001358,0.000259
2.470000,0.002078,-0.045881,0.696294,-0.001948,2.627371,0.011201,-0.000914,0.061884,-0.266119,0.004924,-2.411729,-0.047099,2.424140,7.592144,-0.016975,0.999998,0.001135,-0.001306,-0.000297,-0.001140,0.001323,0.000255
2.480000,0.002059,-0.019605,0.696393,-0.001957,2.627871,0.008537,-0.000815,0.037964,-0.266559,0.006570,-2.393187,-0.037316,-2.133178,-3.997370,1.990924,0.999998,0.001129,-0.001299,-0.000295,-0.001232,0.001279,0.000254
2.490000,0.002039,0.006675,0.696465,-0.001965,2.628130,0.005870,-0.000856,0.013830,-0.266832,-0.010944,-2.423481,-0.019048,-0.031440,1.342642,1.075063,0.999998,0.001123,-0.001293,-0.000294,-0.001322,0.001232,0.000255
2.500000,0.002019,0.032957,0.696510,-0.001974,2.628147,0.003201,-0.000933,-0.010252,-0.266984,-0.005264,-2.395410,-0.010867,-0.154899,0.867056,1.143726,0.999999,0.001116,-0.001287,-0.000293,-0.001413,0.001188,0.000260
2.510000,0.002000,0.059237,0.696529,-0.001983,2.627925,0.000531,-0.000823,-0.034181,-0.267058,0.032291,-2.391245,-0.004568,0.626528,0.523935,1.058266,0.999999,0.001109,-0.001281,-0.000291,-0.001515,0.001158,0.000265
2.520000,0.001980,0.085514,0.696521,-0.001990,2.627464,-0.002140,-0.000833,-0.058043,-0.267002,-0.057463,-2.379810,0.018945,-11.739015,1.218085,2.726156,0.999999,0.001101,-0.001275,-0.000290,-0.001617,0.001140,0.000278
2.530000,0.001960,0.111786,0.696486,-0.002003,2.626765,-0.004809,-0.001627,-0.081814,-0.266725,-0.058946,-2.378309,0.030680,11.654771,-0.934219,-0.409642,0.999999,0.001092,-0.001269,-0.000288,-0.001714,0.001135,0.000303
2.540000,0.001940,0.138049,0.696424,-0.002020,2.625827,-0.007474,-0.001633,-0.105649,-0.266439,0.037268,-2.387452,0.029257,0.680805,-0.342226,1.048699,0.999999,0.001084,-0.001263,-0.000286,-0.001799,0.001144,0.000340
2.550000,0.001919,0.164302,0.696336,-0.002035,2.624652,-0.010137,-0.001403,-0.129531,-0.266071,0.013108,-2.389746,0.043771,1.356111,-0.659682,0.931144,0.999999,0.001075,-0.001257,-0.000284,-0.001866,0.001164,0.000390
2.560000,0.001899,0.190541,0.696222,-0.002048,2.623237,-0.012795,-0.001414,-0.153441,-0.265597,-0.020974,-2.391996,0.050564,0.551129,-0.797624,0.823963,0.999999,0.001066,-0.001251,-0.000282,-0.001917,0.001200,0.000468
2.570000,0.001879,0.216765,0.696080,-0.002062,2.621582,-0.015449,-0.001141,-0.177457,-0.265031,0.104270,-2.414891,0.063899,16.010212,-2.790724,1.458005,0.999999,0.001057,-0.001245,-0.000279,-0.001930,0.001239,0.000547
2.580000,0.001858,0.242972,0.695913,-0.002067,2.619687,-0.018096,0.000248,-0.201695,-0.264341,0.121055,-2.427007,0.071643,-12.926231,0.406397,0.079332,0.999999,0.001047,-0.001239,-0.000277,-0.001894,0.001274,0.000619
2.590000,0.001837,0.269158,0.695719,-0.002061,2.617549,-0.020735,0.000811,-0.225947,-0.263621,0.017109,-2.426484,0.073300,0.690413,-1.285502,0.642475,0.999999,0.001039,-0.001233,-0.000274,-0.001803,0.001300,0.000673
2.600000,0.001817,0.295322,0.695498,-0.002051,2.615167,-0.023368,0.001236,-0.250303,-0.262847,0.062137,-2.444095,0.081225,-0.216580,-1.236726,0.556581,0.999999,0.001031,-0.001226,-0.000271,-0.001655,0.001310,0.000701
2.610000,0.001796,0.321461,0.695251,-0.002035,2.612542,-0.025992,0.001878,-0.274718,-0.261979,0.066865,-2.436451,0.093169,-0.396144,-0.796775,0.640620,0.999999,0.001024,-0.001220,-0.000268,-0.001416,0.001287,0.000676
2.620000,0.001776,0.347572,0.694978,-0.002014,2.609673,-0.028607,0.002440,-0.299306,-0.261078,0.039935,-2.492717,0.083098,-3.468888,-6.983342,-1.494545,0.999999,0.001019,-0.001214,-0.000265,-0.001144,0.001250,0.000625
2.630000,0.001756,0.373654,0.694679,-0.001988,2.606554,-0.031214,0.002743,-0.324395,-0.260259,0.029436,-2.503221,0.087634,1.423942,4.996617,2.439655,0.999999,0.001013,-0.001208,-0.000262,-0.000866,0.001203,0.000558
2.640000,0.001736,0.399702,0.694354,-0.001958,2.603186,-0.033812,0.003104,-0.349174,-0.259261,0.037929,-2.462799,0.108488,-1.245725,-0.407309,0.563079,0.999999,0.001009,-0.001202,-0.000259,-0.000607,0.001154,0.000485
2.650000,0.001717,0.425716,0.694003,-0.001926,2.599571,-0.036399,0.003379,-0.373909,-0.258178,0.017720,-2.481612,0.108845,-1.259615,0.133211,0.674771,0.999999,0.001005,-0.001196,-0.000257,-0.000391,0.001108,0.000415
2.660000,0.001698,0.451693,0.693626,-0.001891,2.595708,-0.038975,0.003648,-0.398745,-0.257060,0.040507,-2.486037,0.114767,-0.593782,0.303321,0.693899,0.999999,0.001003,-0.001191,-0.000255,-0.000280,0.001084,0.000376
2.670000,0.001679,0.477630,0.693223,-0.001853,2.591596,-0.041540,0.003691,-0.423517,-0.255868,-0.053049,-2.463413,0.124411,-11.879743,2.935666,1.056844,0.999999,0.001001,-0.001185,-0.000253,-0.000227,0.001069,0.000351
2.680000,0.001661,0.503524,0.692795,-0.001820,2.587238,-0.044092,0.002901,-0.448068,-0.254580,-0.066155,-2.454332,0.132159,9.457622,-1.163057,0.486794,0.999999,0.000999,-0.001180,-0.000251,-0.000219,0.001062,0.000337
2.690000,0.001643,0.529374,0.692342,-0.001793,2.582634,-0.046631,0.002715,-0.472665,-0.253233,0.010110,-2.460791,0.137741,-0.494250,1.162383,0.808827,0.999999,0.000998,-0.001174,-0.000249,-0.000243,0.001060,0.000333
2.700000,0.001625,0.555176,0.691863,-0.001766,2.577785,-0.049157,0.002630,-0.497178,-0.251810,-0.022660,-2.442189,0.146796,0.206461,1.261052,0.821845,0.999999,0.000997,-0.001169,-0.000247,-0.000283,0.001061,0.000334
2.710000,0.001607,0.580929,0.691359,-0.001741,2.572691,-0.051667,0.002279,-0.521596,-0.250312,-0.051241,-2.442886,0.152507,-0.163822,1.128901,0.789041,0.999999,0.000995,-0.001164,-0.000246,-0.000295,0.001056,0.000327
2.720000,0.001590,0.606629,0.690829,-0.001720,2.567354,-0.054163,0.002061,-0.545835,-0.248723,0.026979,-2.396391,0.166880,10.208632,5.706413,1.629279,0.999999,0.000994,-0.001159,-0.000244,-0.000304,0.001050,0.000322
2.730000,0.001573,0.632275,0.690275,-0.001697,2.561776,-0.056641,0.002544,-0.569644,-0.246997,0.035380,-2.380472,0.175511,-8.708194,-2.602882,0.082054,0.999999,0.000993,-0.001153,-0.000243,-0.000307,0.001042,0.000316
2.740000,0.001556,0.657864,0.689697,-0.001671,2.555960,-0.059102,0.002465,-0.593577,-0.245238,-0.034106,-2.398753,0.177728,0.454860,1.427153,0.820736,0.999999,0.000991,-0.001148,-0.000241,-0.000305,0.001033,0.000310
2.750000,0.001539,0.683393,0.689093,-0.001648,2.549905,-0.061546,0.002294,-0.617429,-0.243407,-0.003527,-2.373042,0.188011,0.029974,1.239479,0.777250,0.999999,0.000990,-0.001143,-0.000240,-0.000302,0.001024,0.000303
2.760000,0.001523,0.708861,0.688466,-0.001625,2.543612,-0.063970,0.002296,-0.641065,-0.241484,0.004892,-2.353447,0.196705,0.129910,1.355664,0.781886,0.999999,0.000988,-0.001138,-0.000238,-0.000309,0.001017,0.000299
2.770000,0.001507,0.734265,0.687814,-0.001602,2.537084,-0.066375,0.002272,-0.664601,-0.239488,-0.014947,-2.358103,0.201995,-2.618665,-1.001535,0.450135,0.999999,0.000986,-0.001133,-0.000236,-0.000317,0.001010,0.000296
2.780000,0.001491,0.759602,0.687138,-0.001580,2.530320,-0.068760,0.002070,-0.688164,-0.237436,-0.016424,-2.346488,0.209365,2.369801,3.365288,1.029295,0.999999,0.000985,-0.001128,-0.000235,-0.000326,0.001002,0.000292
2.790000,0.001475,0.784870,0.686439,-0.001560,2.523322,-0.071124,0.002023,-0.711461,-0.235291,0.002541,-2.316776,0.219054,-0.069461,1.280598,0.732523,0.999999,0.000983,-0.001123,-0.000234,-0.000335,0.000995,0.000289
2.800000,0.001460,0.810068,0.685716,-0.001540,2.516091,-0.073465,0.002005,-0.734598,-0.233069,-0.005129,-2.309851,0.225508,0.024067,1.398483,0.733529,0.999999,0.000981,-0.001118,-0.000232,-0.000345,0.000988,0.000286
2.810000,0.001444,0.835191,0.684970,-0.001520,2.508630,-0.075785,0.001955,-0.757623,-0.230778,-0.004884,-2.295080,0.232722,0.023355,1.448651,0.721362,0.999999,0.000980,-0.001113,-0.000231,-0.000355,0.000981,0.000283
2.820000,0.001429,0.860239,0.684200,-0.001501,2.500939,-0.078081,0.001908,-0.780507,-0.228414,-0.004676,-2.281859,0.240047,0.019811,1.300089,0.731617,0.999999,0.000978,-0.001108,-0.000229,-0.000364,0.000974,0.000280
2.830000,0.001414,0.885209,0.683408,-0.001482,2.493020,-0.080353,0.001862,-0.803254,-0.225978,-0.004456,-2.266882,0.247101,0.024294,1.698874,0.678890,0.999999,0.000976,-0.001103,-0.000228,-0.000374,0.000966,0.000277
2.840000,0.001400,0.910099,0.682593,-0.001463,2.484875,-0.082600,0.001819,-0.825837,-0.223473,-0.004221,-2.249986,0.253865,0.021228,1.575299,0.685731,0.999999,0.000974,-0.001098,-0.000227,-0.000383,0.000959,0.000274
2.850000,0.001385,0.934906,0.681756,-0.001445,2.476504,-0.084822,0.001777,-0.848260,-0.220900,-0.004018,-2.234478,0.260713,0.020830,1.631492,0.671789,0.999999,0.000972,-0.001094,-0.000225,-0.000392,0.000952,0.000271
2.860000,0.001371,0.959628,0.680897,-0.001428,2.467910,-0.087018,0.001738,-0.870523,-0.218259,-0.003811,-2.217976,0.267413,0.020421,1.680457,0.659340,0.999999,0.000970,-0.001089,-0.000224,-0.000401,0.000945,0.000268
2.870000,0.001357,0.984264,0.680016,-0.001411,2.459094,-0.089187,0.001701,-0.892617,-0.215553,-0.003611,-2.200760,0.273816,0.019654,1.751539,0.629974,0.999999,0.000968,-0.001084,-0.000222,-0.000409,0.000937,0.000265
2.880000,0.001343,1.008810,0.679113,-0.001394,2.450058,-0.091329,0.001666,-0.914537,-0.212783,-0.003413,-2.183181,0.280194,0.020044,1.763970,0.645805,0.999999,0.000966,-0.001079,-0.000221,-0.000417,0.000930,0.000262
2.890000,0.001329,1.033264,0.678189,-0.001377,2.440804,-0.093442,0.001633,-0.936279,-0.209949,-0.003215,-2.165254,0.286557,0.019399,1.832688,0.617937,0.999999,0.000964,-0.001075,-0.000220,-0.000424,0.000923,0.000259
2.900000,0.001315,1.057625,0.677245,-0.001361,2.431333,-0.095527,0.001602,-0.957839,-0.207053,-0.003023,-2.146625,0.292627,0.019144,1.881601,0.604796,0.999999,0.000962,-0.001070,-0.000219,-0.000431,0.000916,0.000256
2.910000,0.001302,1.081890,0.676279,-0.001345,2.421648,-0.097583,0.001572,-0.979211,-0.204097,-0.002834,-2.127707,0.298637,0.018875,1.928135,0.591671,0.999999,0.000960,-0.001066,-0.000217,-0.000437,0.000909,0.000253
2.920000,0.001288,1.106057,0.675293,-0.001330,2.411750,-0.099609,0.001545,-1.000390,-0.201081,-0.002644,-2.107818,0.304408,0.018902,2.023513,0.567900,0.999999,0.000958,-0.001061,-0.000216,-0.000443,0.000901,0.000250
2.930000,0.001275,1.130124,0.674287,-0.001314,2.401641,-0.101605,0.001520,-1.021367,-0.198009,-0.002459,-2.087784,0.310110,0.018148,1.982190,0.572817,0.999999,0.000955,-0.001057,-0.000215,-0.000448,0.000894,0.000247
2.940000,0.001262,1.154089,0.673261,-0.001299,2.391323,-0.103569,0.001496,-1.042145,-0.194879,-0.002278,-2.067653,0.315753,0.018136,2.069990,0.550117,0.999999,0.000953,-0.001052,-0.000214,-0.000453,0.000887,0.000244
2.950000,0.001249,1.177950,0.672216,-0.001285,2.380799,-0.105502,0.001474,-1.062717,-0.191694,-0.002097,-2.046610,0.321159,0.017852,2.112214,0.536708,0.999999,0.000951,-0.001048,-0.000212,-0.000456,0.000880,0.000241
2.960000,0.001236,1.201705,0.671151,-0.001270,2.370070,-0.107403,0.001454,-1.083076,-0.188456,-0.001917,-2.025164,0.326442,0.017623,2.156818,0.522653,0.999999,0.000949,-0.001043,-0.000211,-0.000460,0.000873,0.000238
2.970000,0.001224,1.225351,0.670068,-0.001255,2.359138,-0.109271,0.001436,-1.103220,-0.185166,-0.001751,-2.003663,0.331637,0.016184,2.162510,0.513610,0.999999,0.000946,-0.001039,-0.000210,-0.000462,0.000865,0.000235
2.980000,0.001211,1.248887,0.668966,-0.001241,2.348006,-0.111106,0.001419,-1.123147,-0.181824,-0.001581,-1.981514,0.336660,0.017887,2.267451,0.490889,0.999999,0.000944,-0.001035,-0.000209,-0.000464,0.000858,0.000232
2.990000,0.001199,1.272310,0.667846,-0.001227,2.336676,-0.112907,0.001404,-1.142848,-0.178433,-0.001406,-1.958712,0.341507,0.016470,2.273038,0.481325,0.999999,0.000942,-0.001031,-0.000208,-0.000466,0.000851,0.000229
3.000000,0.001187,1.295620,0.666708,-0.001213,2.325150,-0.114675,0.001391,-1.162322,-0.174994,-0.001246,-1.935894,0.346264,0.016027,2.309489,0.467354,0.999999,0.000939,-0.001026,-0.000206,-0.000467,0.000844,0.000226
3.010000,0.001174,1.318813,0.665552,-0.001199,2.313430,-0.116407,0.001380,-1.181566,-0.171508,-0.000976,-1.912872,0.350876,0.017698,2.337273,0.453731,0.999999,0.000937,-0.001022,-0.000205,-0.000467,0.000837,0.000223
3.020000,0.001163,1.341888,0.664380,-0.001185,2.301519,-0.118105,0.001370,-1.200575,-0.167977,-0.001080,-1.888764,0.355328,-0.018895,2.442242,0.437803,0.999999,0.000935,-0.001018,-0.000204,-0.000467,0.000830,0.000220
3.030000,0.001151,1.364842,0.663190,-0.001172,2.289419,-0.119766,0.001359,-1.219342,-0.164402,-0.000940,-1.864907,0.359659,0.047575,2.327565,0.428434,0.999999,0.000932,-0.001014,-0.000203,-0.000467,0.000822,0.000217
3.040000,0.001139,1.387675,0.661985,-0.001158,2.277133,-0.121392,0.001352,-1.237874,-0.160784,-0.000530,-1.841384,0.363872,0.014353,2.418423,0.412945,0.999999,0.000930,-0.001010,-0.000202,-0.000466,0.000815,0.000215
3.050000,0.001128,1.410384,0.660763,-0.001145,2.264663,-0.122982,0.001347,-1.256166,-0.157125,-0.000485,-1.816903,0.367929,0.014416,2.435501,0.399720,0.999999,0.000928,-0.001006,-0.000201,-0.000465,0.000808,0.000212
3.060000,0.001116,1.432968,0.659525,-0.001131,2.252011,-0.124535,0.001342,-1.274226,-0.153426,-0.000490,-1.795407,0.371986,0.009760,2.394215,0.389016,0.999999,0.000925,-0.001002,-0.000200,-0.000464,0.000801,0.000209
3.070000,0.001105,1.455424,0.658272,-0.001118,2.239179,-0.126050,0.001339,-1.292032,-0.149688,-0.000059,-1.764137,0.375501,0.051758,3.345005,0.336016,0.999999,0.000923,-0.000998,-0.000199,-0.000463,0.000795,0.000206
3.080000,0.001094,1.477751,0.657004,-0.001105,2.226171,-0.127528,0.001339,-1.309534,-0.145915,0.000027,-1.739314,0.379167,-0.035406,1.604062,0.397883,0.999999,0.000921,-0.000994,-0.000198,-0.000461,0.000788,0.000203
3.090000,0.001083,1.499947,0.655722,-0.001091,2.212989,-0.128969,0.001338,-1.326846,-0.142104,-0.000272,-1.721621,0.383014,0.000176,2.455533,0.349218,0.999999,0.000918,-0.000990,-0.000197,-0.000460,0.000781,0.000201
3.100000,0.001072,1.522010,0.654425,-0.001078,2.199635,-0.130370,0.001336,-1.343926,-0.138257,-0.000182,-1.694592,0.386339,-0.006930,2.433390,0.337863,0.999999,0.000916,-0.000986,-0.000196,-0.000458,0.000774,0.000198
3.110000,0.001061,1.543939,0.653114,-0.001064,2.186111,-0.131734,0.001330,-1.360727,-0.134378,-0.001122,-1.664885,0.389452,-0.029677,2.559538,0.320756,0.999999,0.000914,-0.000982,-0.000195,-0.000457,0.000767,0.000196
3.120000,0.001051,1.565732,0.651790,-0.001051,2.172421,-0.133058,0.001325,-1.377296,-0.130466,0.000617,-1.652111,0.393085,0.230676,0.918634,0.370791,0.999999,0.000912,-0.000978,-0.000194,-0.000456,0.000761,0.000194
3.130000,0.001040,1.587387,0.650453,-0.001038,2.158566,-0.134343,0.001335,-1.393721,-0.126518,0.000411,-1.627128,0.396131,-0.276277,4.108059,0.237375,0.999999,0.000909,-0.000974,-0.000193,-0.000454,0.000755,0.000192
3.140000,0.001030,1.608903,0.649104,-0.001025,2.144548,-0.135588,0.001325,-1.409786,-0.122545,-0.001932,-1.588582,0.398540,-0.043747,2.671086,0.279727,0.999999,0.000907,-0.000971,-0.000192,-0.000453,0.000749,0.000190
3.150000,0.001020,1.630277,0.647742,-0.001011,2.130371,-0.136794,0.001307,-1.425562,-0.118545,-0.001715,-1.565790,0.401425,-0.060071,2.815431,0.262089,0.999999,0.000905,-0.000967,-0.000191,-0.000451,0.000743,0.000189
3.160000,0.001010,1.651509,0.646368,-0.000998,2.116038,-0.137959,0.001294,-1.441075,-0.114518,-0.000618,-1.536579,0.404010,-0.029573,2.912656,0.247419,0.999999,0.000902,-0.000963,-0.000190,-0.000449,0.000739,0.000188
3.170000,0.001000,1.672598,0.644983,-0.000986,2.101550,-0.139084,0.001271,-1.456300,-0.110466,-0.005144,-1.508617,0.406303,-0.574863,2.791235,0.218592,0.999999,0.000900,-0.000959,-0.000189,-0.000448,0.000734,0.000188
3.180000,0.000990,1.693540,0.643586,-0.000973,2.086913,-0.140168,0.001207,-1.471239,-0.106392,-0.005803,-1.478416,0.408538,0.452753,3.251351,0.228686,0.999999,0.000898,-0.000956,-0.000188,-0.000448,0.000730,0.000187
3.190000,0.000980,1.714335,0.642179,-0.000961,2.072127,-0.141212,0.001171,-1.485859,-0.102296,-0.002159,-1.445890,0.410727,-0.026925,3.138896,0.201630,0.999999,0.000896,-0.000952,-0.000187,-0.000451,0.000725,0.000186
3.200000,0.000971,1.734982,0.640762,-0.000950,2.057196,-0.142214,0.001141,-1.500163,-0.098179,-0.003765,-1.414712,0.412637,0.007876,3.207310,0.187611,0.999999,0.000893,-0.000949,-0.000186,-0.000455,0.000720,0.000185
3.210000,0.000961,1.755479,0.639335,-0.000939,2.042124,-0.143175,0.001102,-1.514178,-0.094042,-0.004021,-1.388898,0.414678,0.014737,3.125520,0.177975,0.999999,0.000891,-0.000945,-0.000185,-0.000464,0.000714,0.000183
3.220000,0.000952,1.775824,0.637899,-0.000928,2.026914,-0.144095,0.001066,-1.527849,-0.089889,-0.002794,-1.341458,0.415804,0.158716,5.223542,0.088587,0.999999,0.000889,-0.000941,-0.000185,-0.000475,0.000707,0.000180
3.230000,0.000943,1.796017,0.636454,-0.000917,2.011569,-0.144973,0.001043,-1.541063,-0.085724,-0.002358,-1.308338,0.417320,-0.074117,1.363556,0.215889,0.999999,0.000886,-0.000938,-0.000184,-0.000488,0.000701,0.000177
3.240000,0.000934,1.816055,0.635000,-0.000907,1.996093,-0.145809,0.001016,-1.554078,-0.081541,-0.002832,-1.291198,0.419283,0.051440,3.211934,0.134817,0.999999,0.000884,-0.000934,-0.000183,-0.000500,0.000694,0.000173
3.250000,0.000925,1.835938,0.633537,-0.000897,1.980489,-0.146604,0.000992,-1.566799,-0.077342,-0.001952,-1.253860,0.420368,0.051778,3.111294,0.124055,0.999999,0.000881,-0.000931,-0.000182,-0.000513,0.000688,0.000170
3.260000,0.000916,1.855664,0.632068,-0.000887,1.964758,-0.147356,0.000969,-1.579170,-0.073134,-0.002736,-1.219823,0.421286,0.027923,3.146233,0.105086,0.999999,0.000879,-0.000928,-0.000181,-0.000523,0.000682,0.000167
3.270000,0.000907,1.875233,0.630590,-0.000877,1.948906,-0.148066,0.000956,-1.591239,-0.068914,0.000778,-1.195988,0.422886,0.444764,2.155329,0.170585,0.999999,0.000876,-0.000924,-0.000180,-0.000532,0.000676,0.000165
3.280000,0.000898,1.894642,0.629106,-0.000868,1.932934,-0.148734,0.000973,-1.603063,-0.064679,0.001329,-1.165491,0.423769,-0.341833,3.961534,0.004473,0.999999,0.000873,-0.000921,-0.000179,-0.000540,0.000671,0.000163
3.290000,0.000890,1.913891,0.627616,-0.000858,1.916846,-0.149360,0.000969,-1.614520,-0.060441,-0.001412,-1.127546,0.423867,0.025505,3.089111,0.059695,0.999999,0.000871,-0.000917,-0.000179,-0.000546,0.000666,0.000161
3.300000,0.000881,1.932979,0.626119,-0.000848,1.900645,-0.149943,0.000962,-1.625655,-0.056199,-0.000130,-1.099112,0.424583,-0.000226,3.135582,0.038886,0.999999,0.000868,-0.000914,-0.000178,-0.000551,0.000661,0.000159
3.310000,0.000873,1.951904,0.624617,-0.000839,1.884334,-0.150484,0.000966,-1.636483,-0.051951,0.000895,-1.066133,0.424828,0.011358,3.182886,0.019485,0.999999,0.000865,-0.000911,-0.000177,-0.000555,0.000656,0.000157
3.320000,0.000864,1.970665,0.623110,-0.000829,1.867916,-0.150982,0.000965,-1.646999,-0.047702,-0.001685,-1.038001,0.425058,-0.338828,2.713978,0.017338,0.999999,0.000862,-0.000908,-0.000176,-0.000559,0.000651,0.000155
3.330000,0.000856,1.989262,0.621598,-0.000820,1.851395,-0.151438,0.000941,-1.657228,-0.043451,-0.001922,-1.006179,0.424984,0.297523,3.659155,-0.032519,0.999999,0.000860,-0.000904,-0.000175,-0.000561,0.000646,0.000152
3.340000,0.000848,2.007693,0.620081,-0.000810,1.834773,-0.151851,0.000937,-1.667107,-0.039203,0.000458,-0.970270,0.424591,-0.011661,3.250513,-0.036741,0.999999,0.000857,-0.000901,-0.000175,-0.000564,0.000641,0.000150
3.350000,0.000840,2.025957,0.618561,-0.000801,1.818054,-0.152222,0.000936,-1.676653,-0.034959,-0.000538,-0.938852,0.424170,0.002304,3.304497,-0.056504,0.999999,0.000854,-0.000898,-0.000174,-0.000566,0.000636,0.000148
3.360000,0.000832,2.044053,0.617037,-0.000791,1.801241,-0.152550,0.000930,-1.685880,-0.030720,-0.000626,-0.906430,0.423608,0.002108,3.324651,-0.073553,0.999999,0.000851,-0.000895,-0.000173,-0.000567,0.000631,0.000146
3.370000,0.000824,2.061981,0.615510,-0.000782,1.784338,-0.152836,0.000925,-1.694770,-0.026489,-0.000292,-0.871030,0.422538,0.043332,3.614582,-0.123352,0.999999,0.000848,-0.000892,-0.000172,-0.000569,0.000626,0.000144
3.380000,0.000816,2.079740,0.613980,-0.000773,1.767347,-0.153080,0.000923,-1.703306,-0.022269,-0.000208,-0.837093,0.421501,-0.027246,3.168117,-0.083458,0.999999,0.000846,-0.000888,-0.000172,-0.000570,0.000620,0.000142
3.390000,0.000809,2.097328,0.612449,-0.000764,1.750273,-0.153282,0.000920,-1.711518,-0.018059,-0.000404,-0.804831,0.420524,0.009663,3.425845,-0.129233,0.999999,0.000843,-0.000885,-0.000171,-0.000571,0.000615,0.000140
3.400000,0.000801,2.114745,0.610915,-0.000755,1.733118,-0.153441,0.000917,-1.719391,-0.013861,-0.000199,-0.769789,0.419064,0.009879,3.440748,-0.145471,0.999999,0.000840,-0.000882,-0.000170,-0.000572,0.000610,0.000137
3.410000,0.000793,2.131990,0.609380,-0.000745,1.715886,-0.153559,0.000917,-1.726916,-0.009678,0.000335,-0.735135,0.417525,0.019774,3.466515,-0.162577,0.999999,0.000837,-0.000879,-0.000170,-0.000574,0.000605,0.000135
3.420000,0.000786,2.149062,0.607844,-0.000736,1.698581,-0.153635,0.000918,-1.734095,-0.005511,-0.000514,-0.700650,0.415807,-0.114982,3.450244,-0.180379,0.999999,0.000834,-0.000876,-0.000169,-0.000575,0.000600,0.000133
3.430000,0.000779,2.165961,0.606307,-0.000727,1.681205,-0.153669,0.000911,-1.740927,-0.001362,-0.000398,-0.665717,0.413930,0.140270,3.536448,-0.195122,0.999999,0.000831,-0.000873,-0.000168,-0.000576,0.000594,0.000131
3.440000,0.000772,2.182686,0.604771,-0.000718,1.663763,-0.153662,0.000914,-1.747407,0.002767,0.000774,-0.630338,0.411895,0.018375,3.518468,-0.212265,0.999999,0.000828,-0.000870,-0.000168,-0.000577,0.000589,0.000128
3.450000,0.000764,2.199236,0.603234,-0.000709,1.646258,-0.153614,0.000920,-1.753535,0.006875,0.000604,-0.595186,0.409690,0.022392,3.531533,-0.228145,0.999999,0.000825,-0.000867,-0.000167,-0.000578,0.000584,0.000126
3.460000,0.000757,2.215611,0.601698,-0.000700,1.628694,-0.153525,0.000920,-1.759318,0.010961,-0.000823,-0.561638,0.407396,-0.013327,3.503591,-0.242471,0.999999,0.000823,-0.000865,-0.000166,-0.000579,0.000579,0.000124
3.470000,0.000750,2.231810,0.600164,-0.000690,1.611073,-0.153395,0.000927,-1.764742,0.015022,0.003042,-0.522124,0.404733,0.500193,4.082550,-0.278600,0.999999,0.000820,-0.000862,-0.000166,-0.000580,0.000574,0.000123
3.480000,0.000744,2.247833,0.598631,-0.000681,1.593400,-0.153225,0.000967,-1.769776,0.019055,0.003174,-0.486635,0.402065,-0.482779,3.005004,-0.254603,0.999999,0.000817,-0.000859,-0.000165,-0.000580,0.000569,0.000122
3.490000,0.000737,2.263678,0.597099,-0.000671,1.575678,-0.153014,0.000974,-1.774492,0.023063,-0.000828,-0.455624,0.399410,-0.028956,3.516673,-0.288014,0.999999,0.000814,-0.000856,-0.000165,-0.000580,0.000565,0.000122
3.500000,0.000730,2.279346,0.595571,-0.000661,1.557911,-0.152763,0.000972,-1.778865,0.027042,0.000148,-0.419007,0.396406,-0.063215,3.488251,-0.301527,0.999999,0.000811,-0.000853,-0.000164,-0.000578,0.000560,0.000122
3.510000,0.000724,2.294836,0.594044,-0.000652,1.540102,-0.152473,0.000974,-1.782871,0.030990,0.000363,-0.382113,0.393184,-0.058392,3.523117,-0.318469,0.999999,0.000808,-0.000850,-0.000163,-0.000575,0.000556,0.000124
3.520000,0.000717,2.310148,0.592521,-0.000642,1.522255,-0.152144,0.000966,-1.786535,0.034907,-0.002528,-0.351922,0.390261,-0.359184,2.872558,-0.289824,0.999999,0.000805,-0.000848,-0.000163,-0.000572,0.000552,0.000127
3.530000,0.000711,2.325281,0.591002,-0.000633,1.504373,-0.151775,0.000931,-1.789892,0.038794,-0.003447,-0.317159,0.386893,0.181006,4.091412,-0.384401,0.999999,0.000802,-0.000845,-0.000162,-0.000569,0.000548,0.000129
3.540000,0.000704,2.340235,0.589486,-0.000623,1.486459,-0.151368,0.000906,-1.792859,0.042643,-0.002136,-0.277310,0.383051,-0.079964,3.518155,-0.360206,0.999999,0.000800,-0.000842,-0.000161,-0.000566,0.000544,0.000131
3.550000,0.000698,2.355010,0.587974,-0.000614,1.468517,-0.150922,0.000876,-1.795465,0.046456,-0.003661,-0.243734,0.379489,-0.063188,3.556678,-0.375903,0.999999,0.000797,-0.000839,-0.000161,-0.000563,0.000540,0.000132
3.560000,0.000692,2.369605,0.586467,-0.000606,1.450550,-0.150439,0.000844,-1.797723,0.050233,-0.002405,-0.207756,0.375782,-0.016630,3.578856,-0.387317,0.999999,0.000794,-0.000837,-0.000160,-0.000563,0.000535,0.000132
3.570000,0.000686,2.384021,0.584966,-0.000598,1.432563,-0.149918,0.000803,-1.799625,0.053970,-0.007035,-0.172712,0.371544,-0.587520,3.487864,-0.439042,0.999999,0.000791,-0.000834,-0.000160,-0.000562,0.000530,0.000130
3.580000,0.000680,2.398257,0.583469,-0.000590,1.414559,-0.149360,0.000720,-1.801174,0.057664,-0.007400,-0.136783,0.367447,0.524778,3.699318,-0.379727,0.999999,0.000788,-0.000831,-0.000159,-0.000561,0.000524,0.000127
3.590000,0.000674,2.412312,0.581979,-0.000583,1.396541,-0.148765,0.000673,-1.802357,0.061319,-0.003048,-0.099912,0.363523,0.020585,3.615611,-0.426260,0.999999,0.000785,-0.000829,-0.000158,-0.000557,0.000519,0.000124
3.600000,0.000669,2.426187,0.580494,-0.000576,1.378513,-0.148133,0.000635,-1.803176,0.064933,-0.004238,-0.063987,0.359103,0.064603,3.627568,-0.436331,0.999999,0.000783,-0.000826,-0.000158,-0.000552,0.000515,0.000121
3.610000,0.000663,2.439882,0.579016,-0.000570,1.360479,-0.147466,0.000587,-1.803645,0.068502,-0.005745,-0.030071,0.354784,0.039346,3.584040,-0.445454,0.999999,0.000780,-0.000824,-0.000157,-0.000541,0.000510,0.000118
3.620000,0.000657,2.453397,0.577545,-0.000565,1.342442,-0.146764,0.000552,-1.803745,0.072027,0.000271,0.011630,0.350028,0.769217,4.339227,-0.488149,0.999999,0.000777,-0.000821,-0.000156,-0.000528,0.000506,0.000115
3.630000,0.000651,2.466731,0.576081,-0.000559,1.324405,-0.146026,0.000573,-1.803434,0.075503,0.001358,0.047961,0.345389,-0.564641,2.913736,-0.439252,0.999999,0.000775,-0.000819,-0.000156,-0.000513,0.000503,0.000112
3.640000,0.000646,2.479885,0.574624,-0.000553,1.306374,-0.145254,0.000558,-1.802808,0.078935,-0.003064,0.078324,0.340889,0.077463,3.579153,-0.478407,0.999999,0.000772,-0.000816,-0.000155,-0.000496,0.000499,0.000109
3.650000,0.000640,2.492859,0.573176,-0.000548,1.288350,-0.144447,0.000542,-1.801836,0.082319,-0.000477,0.115975,0.335970,0.043150,3.532187,-0.487875,0.999999,0.000770,-0.000814,-0.000155,-0.000480,0.000496,0.000107
3.660000,0.000635,2.505652,0.571736,-0.000542,1.270338,-0.143607,0.000539,-1.800492,0.085653,-0.000098,0.152959,0.330812,0.032739,3.548231,-0.503178,0.999999,0.000768,-0.000811,-0.000154,-0.000465,0.000492,0.000105
3.670000,0.000630,2.518266,0.570304,-0.000537,1.252342,-0.142734,0.000539,-1.798802,0.088938,0.000176,0.184030,0.326280,0.021918,2.973769,-0.442718,0.999999,0.000765,-0.000809,-0.000154,-0.000451,0.000488,0.000104
3.680000,0.000624,2.530699,0.568881,-0.000532,1.234363,-0.141829,0.000542,-1.796796,0.092177,0.000337,0.218897,0.321127,0.010306,4.009571,-0.589284,0.999999,0.000763,-0.000806,-0.000153,-0.000438,0.000483,0.000103
3.690000,0.000619,2.542953,0.567467,-0.000526,1.216407,-0.140891,0.000546,-1.794407,0.095358,0.000387,0.258005,0.315294,-0.000128,3.501722,-0.537463,0.999999,0.000761,-0.000804,-0.000153,-0.000426,0.000479,0.000101
3.700000,0.000614,2.555027,0.566063,-0.000521,1.198476,-0.139922,0.000549,-1.791660,0.098485,0.000337,0.291573,0.310039,-0.009708,3.521364,-0.553303,0.999999,0.000759,-0.000801,-0.000152,-0.000416,0.000475,0.000100
3.710000,0.000609,2.566923,0.564669,-0.000515,1.180575,-0.138922,0.000556,-1.788568,0.101558,0.001165,0.326878,0.304471,0.001479,3.523451,-0.566002,0.999999,0.000757,-0.000799,-0.000152,-0.000407,0.000471,0.000099
3.720000,0.000603,2.578639,0.563285,-0.000510,1.162706,-0.137891,0.000559,-1.785124,0.104574,-0.001229,0.361892,0.298667,-0.311147,3.495024,-0.589301,0.999999,0.000755,-0.000797,-0.000151,-0.000399,0.000467,0.000098
3.730000,0.000598,2.590177,0.561911,-0.000504,1.144874,-0.136830,0.000540,-1.781329,0.107531,-0.001510,0.397109,0.292802,0.260343,3.548897,-0.583414,0.999999,0.000753,-0.000794,-0.000151,-0.000393,0.000463,0.000097
3.740000,0.000593,2.601537,0.560548,-0.000499,1.127081,-0.135740,0.000538,-1.777181,0.110430,0.000566,0.432546,0.286887,-0.015339,3.522346,-0.605198,0.999999,0.000751,-0.000792,-0.000150,-0.000387,0.000458,0.000096
3.750000,0.000588,2.612719,0.559197,-0.000493,1.109331,-0.134622,0.000538,-1.772680,0.113268,-0.000368,0.467690,0.280746,-0.001604,3.521858,-0.617268,0.999999,0.000749,-0.000790,-0.000150,-0.000383,0.000454,0.000095
3.760000,0.000583,2.623723,0.557856,-0.000488,1.091628,-0.133475,0.000533,-1.767829,0.116044,-0.000721,0.502465,0.274555,-0.005614,3.510076,-0.628532,0.999999,0.000747,-0.000788,-0.000149,-0.000379,0.000450,0.000094
3.770000,0.000579,2.634551,0.556527,-0.000483,1.073976,-0.132301,0.000529,-1.762624,0.118758,0.000102,0.538596,0.268107,0.108698,3.640873,-0.653688,0.999999,0.000745,-0.000785,-0.000149,-0.000376,0.000446,0.000093
3.780000,0.000574,2.645203,0.555210,-0.000477,1.056377,-0.131100,0.000532,-1.757061,0.121407,0.000163,0.573704,0.261637,-0.098394,3.378110,-0.639934,0.999999,0.000743,-0.000783,-0.000148,-0.000374,0.000442,0.000093
3.790000,0.000569,2.655679,0.553905,-0.000472,1.038836,-0.129873,0.000529,-1.751155,0.123991,-0.000623,0.607667,0.255160,0.003055,3.489773,-0.662885,0.999999,0.000741,-0.000781,-0.000148,-0.000372,0.000438,0.000092
3.800000,0.000564,2.665980,0.552613,-0.000467,1.021355,-0.128621,0.000525,-1.744902,0.126509,-0.000303,0.642854,0.248444,-0.000716,3.471675,-0.672821,0.999999,0.000739,-0.000779,-0.000147,-0.000371,0.000434,0.000091
3.810000,0.000560,2.676106,0.551333,-0.000462,1.003939,-0.127343,0.000522,-1.738300,0.128960,-0.000310,0.677436,0.241682,-0.000601,3.455358,-0.682565,0.999999,0.000737,-0.000777,-0.000147,-0.000370,0.000430,0.000090
3.820000,0.000555,2.686059,0.550066,-0.000456,0.986590,-0.126042,0.000518,-1.731353,0.131342,-0.000312,0.712055,0.234768,-0.000049,3.457652,-0.697292,0.999999,0.000736,-0.000774,-0.000147,-0.000369,0.000426,0.000089
3.830000,0.000551,2.695838,0.548812,-0.000451,0.969313,-0.124717,0.000515,-1.724060,0.133655,-0.000316,0.746363,0.227795,-0.000727,3.403377,-0.697153,0.999999,0.000734,-0.000772,-0.000146,-0.000368,0.000422,0.000088
3.840000,0.000546,2.705445,0.547572,-0.000446,0.952110,-0.123369,0.000512,-1.716427,0.135898,-0.000322,0.780331,0.220770,-0.000246,3.400457,-0.710611,0.999999,0.000732,-0.000770,-0.000146,-0.000367,0.000418,0.000087
3.850000,0.000542,2.714881,0.546345,-0.000441,0.934986,-0.121999,0.000509,-1.708454,0.138070,-0.000323,0.814274,0.213609,-0.000176,3.377756,-0.718849,0.999999,0.000730,-0.000768,-0.000145,-0.000367,0.000414,0.000087
3.860000,0.000537,2.724145,0.545132,-0.000436,0.917942,-0.120608,0.000506,-1.700142,0.140170,-0.000326,0.847927,0.206384,-0.000121,3.354285,-0.726894,0.999999,0.000728,-0.000766,-0.000145,-0.000366,0.000411,0.000086
3.870000,0.000533,2.733240,0.543933,-0.000431,0.900984,-0.119196,0.000502,-1.691496,0.142197,-0.000324,0.881370,0.199066,0.000284,3.332551,-0.735912,0.999999,0.000726,-0.000764,-0.000144,-0.000365,0.000407,0.000085
3.880000,0.000529,2.742165,0.542748,-0.000426,0.884114,-0.117764,0.000499,-1.682516,0.144151,-0.000324,0.914540,0.191681,-0.000293,3.301140,-0.740972,0.999999,0.000725,-0.000762,-0.000144,-0.000364,0.000403,0.000084
3.890000,0.000524,2.750923,0.541578,-0.000421,0.867335,-0.116313,0.000496,-1.673206,0.146030,-0.000326,0.947422,0.184234,0.000061,3.276667,-0.749159,0.999999,0.000723,-0.000760,-0.000143,-0.000363,0.000399,0.000083
3.900000,0.000520,2.759512,0.540422,-0.000416,0.850650,-0.114844,0.000493,-1.663568,0.147835,-0.000324,0.980056,0.176705,0.000092,3.248512,-0.755868,0.999999,0.000721,-0.000758,-0.000143,-0.000362,0.000395,0.000083
3.910000,0.000516,2.767936,0.539281,-0.000411,0.834064,-0.113357,0.000489,-1.653605,0.149564,-0.000320,1.012457,0.169104,0.000193,3.219811,-0.762441,0.999999,0.000719,-0.000756,-0.000143,-0.000361,0.000391,0.000082
3.920000,0.000512,2.776194,0.538155,-0.000406,0.817579,-0.111853,0.000486,-1.643321,0.151217,-0.000325,1.044320,0.161474,-0.000741,3.165587,-0.765235,0.999999,0.000717,-0.000754,-0.000142,-0.000359,0.000387,0.000081
3.930000,0.000508,2.784288,0.537044,-0.000401,0.801199,-0.110333,0.000483,-1.632719,0.152793,-0.000324,1.076038,0.153763,0.001123,3.178241,-0.777092,0.999999,0.000716,-0.000752,-0.000142,-0.000358,0.000383,0.000080
3.940000,0.000504,2.792218,0.535948,-0.000397,0.784926,-0.108797,0.000480,-1.621801,0.154292,-0.000314,1.107619,0.145970,0.000289,3.124621,-0.779550,0.999999,0.000714,-0.000750,-0.000141,-0.000356,0.000380,0.000079
3.950000,0.000500,2.799987,0.534868,-0.000392,0.768764,-0.107247,0.000477,-1.610569,0.155713,-0.000313,1.138633,0.138156,0.000365,3.091675,-0.784830,0.999999,0.000712,-0.000748,-0.000141,-0.000355,0.000376,0.000079
3.960000,0.000496,2.807594,0.533803,-0.000387,0.752716,-0.105683,0.000473,-1.599029,0.157055,-0.000311,1.169388,0.130282,0.000365,3.057215,-0.789630,0.999999,0.000710,-0.000746,-0.000141,-0.000354,0.000372,0.000078
3.970000,0.000492,2.815041,0.532754,-0.000382,0.736784,-0.104106,0.000470,-1.587183,0.158318,-0.000303,1.199755,0.122368,0.000915,3.017951,-0.793505,0.999999,0.000708,-0.000745,-0.000140,-0.000353,0.000368,0.000077
3.980000,0.000489,2.822330,0.531721,-0.000378,0.720973,-0.102517,0.000467,-1.575035,0.159502,-0.000299,1.229783,0.114407,-0.000061,2.987423,-0.798574,0.999999,0.000707,-0.000743,-0.000140,-0.000351,0.000364,0.000076
3.990000,0.000485,2.829461,0.530704,-0.000373,0.705285,-0.100916,0.000464,-1.562588,0.160606,-0.000299,1.259462,0.106403,0.000412,2.946287,-0.801783,0.999999,0.000705,-0.000741,-0.000140,-0.000350,0.000361,0.000075
4.000000,0.000481,2.836436,0.529703,-0.000368,0.689722,-0.099305,0.000461,-1.549847,0.161630,-0.000293,1.288716,0.098370,0.000379,2.906829,-0.805126,0.999999,0.000703,-0.000739,-0.000139,-0.000348,0.000357,0.000074
4.010000,0.000477,2.843256,0.528718,-0.000364,0.674289,-0.097684,0.000459,-1.536815,0.162574,-0.000293,1.317530,0.090305,0.000288,2.865167,-0.808042,0.999999,0.000701,-0.000737,-0.000139,-0.000345,0.000353,0.000074
4.020000,0.000474,2.849922,0.527749,-0.000359,0.658987,-0.096054,0.000456,-1.523497,0.163436,-0.000282,1.346102,0.082208,0.001386,2.839913,-0.811161,0.999999,0.000700,-0.000736,-0.000138,-0.000343,0.000349,0.000073
4.030000,0.000470,2.856436,0.526797,-0.000355,0.643820,-0.094416,0.000453,-1.509895,0.164218,-0.000278,1.374133,0.074090,-0.000761,2.765628,-0.812307,0.999999,0.000698,-0.000734,-0.000138,-0.000339,0.000346,0.000072
4.040000,0.000467,2.862799,0.525861,-0.000350,0.628790,-0.092770,0.000450,-1.496016,0.164918,-0.000284,1.401596,0.065957,0.000211,2.736232,-0.814593,0.999999,0.000696,-0.000732,-0.000138,-0.000336,0.000342,0.000071
4.050000,0.000463,2.869013,0.524942,-0.000346,0.613900,-0.091117,0.000447,-1.481864,0.165537,-0.000279,1.428773,0.057802,0.000126,2.689850,-0.815966,0.999999,0.000695,-0.000730,-0.000137,-0.000332,0.000338,0.000071
4.060000,0.000460,2.875078,0.524039,-0.000341,0.599154,-0.089459,0.000444,-1.467443,0.166074,-0.000273,1.455480,0.049638,0.000192,2.643902,-0.816945,0.999999,0.000693,-0.000729,-0.000137,-0.000328,0.000334,0.000070
4.070000,0.000456,2.880996,0.523152,-0.000337,0.584552,-0.087796,0.000442,-1.452757,0.166530,-0.000284,1.481578,0.041463,-0.001437,2.582769,-0.817772,0.999999,0.000691,-0.000727,-0.000137,-0.000324,0.000331,0.000069
4.080000,0.000453,2.886769,0.522283,-0.000332,0.570099,-0.086129,0.000439,-1.437812,0.166903,-0.000283,1.507286,0.033286,0.001568,2.558821,-0.817514,0.999999,0.000690,-0.000726,-0.000136,-0.000320,0.000327,0.000068
4.090000,0.000450,2.892399,0.521430,-0.000328,0.555797,-0.084458,0.000436,-1.422612,0.167195,-0.000270,1.532602,0.025112,0.000138,2.496962,-0.817492,0.999999,0.000688,-0.000724,-0.000136,-0.000316,0.000323,0.000067
4.100000,0.000446,2.897886,0.520594,-0.000324,0.541648,-0.082785,0.000433,-1.407162,0.167405,-0.000273,1.557283,0.016939,0.000228,2.446374,-0.816845,0.999999,0.000687,-0.000722,-0.000136,-0.000312,0.000319,0.000067
4.110000,0.000443,2.903232,0.519774,-0.000319,0.527655,-0.081111,0.000431,-1.391468,0.167534,-0.000270,1.581508,0.008775,0.000276,2.394925,-0.815829,0.999999,0.000685,-0.000721,-0.000135,-0.000308,0.000316,0.000066
4.120000,0.000440,2.908439,0.518971,-0.000315,0.513819,-0.079435,0.000428,-1.375534,0.167581,-0.000268,1.605152,0.000623,0.000152,2.336527,-0.814428,0.999999,0.000684,-0.000719,-0.000135,-0.000305,0.000312,0.000065
4.130000,0.000437,2.913509,0.518185,-0.000311,0.500145,-0.077759,0.000425,-1.359367,0.167547,-0.000265,1.628296,-0.007512,0.000502,2.292170,-0.812466,1.000000,0.000682,-0.000718,-0.000135,-0.000301,0.000308,0.000064
4.140000,0.000434,2.918443,0.517416,-0.000306,0.486633,-0.076084,0.000423,-1.342970,0.167431,-0.000260,1.650932,-0.015626,0.000397,2.232093,-0.810285,1.000000,0.000681,-0.000716,-0.000134,-0.000298,0.000305,0.000064
4.150000,0.000431,2.923242,0.516664,-0.000302,0.473286,-0.074411,0.000420,-1.326350,0.167234,-0.000256,1.672955,-0.023714,0.000443,2.175533,-0.807462,1.000000,0.000679,-0.000715,-0.000134,-0.000294,0.000301,0.000063
4.160000,0.000428,2.927909,0.515928,-0.000298,0.460107,-0.072740,0.000417,-1.309513,0.166957,-0.000254,1.694409,-0.031779,0.000434,2.117426,-0.804416,1.000000,0.000678,-0.000713,-0.000134,-0.000291,0.000297,0.000062
4.170000,0.000425,2.932445,0.515209,-0.000294,0.447096,-0.071072,0.000415,-1.292464,0.166599,-0.000244,1.715321,-0.039792,0.001197,2.062448,-0.799067,1.000000,0.000676,-0.000712,-0.000133,-0.000287,0.000294,0.000061
4.180000,0.000422,2.936852,0.514506,-0.000290,0.434258,-0.069408,0.000413,-1.275209,0.166161,-0.000239,1.735606,-0.047779,-0.000150,1.994301,-0.798345,1.000000,0.000675,-0.000710,-0.000133,-0.000284,0.000290,0.000060
4.190000,0.000419,2.941131,0.513821,-0.000286,0.421593,-0.067749,0.000410,-1.257754,0.165643,-0.000239,1.755249,-0.055737,0.000522,1.936317,-0.792315,1.000000,0.000673,-0.000709,-0.000133,-0.000280,0.000286,0.000060
4.200000,0.000416,2.945284,0.513151,-0.000282,0.409103,-0.066096,0.000408,-1.240105,0.165046,-0.000232,1.774308,-0.063632,0.000502,1.873095,-0.787452,1.000000,0.000672,-0.000707,-0.000132,-0.000277,0.000283,0.000059
4.210000,0.000413,2.949313,0.512499,-0.000277,0.396791,-0.064448,0.000406,-1.222270,0.164371,-0.000226,1.792714,-0.071476,0.000514,1.808672,-0.782007,1.000000,0.000671,-0.000706,-0.000132,-0.000273,0.000279,0.000058
4.220000,0.000411,2.953220,0.511862,-0.000273,0.384659,-0.062808,0.000403,-1.204253,0.163617,-0.000222,1.810483,-0.079276,0.000393,1.744234,-0.777203,1.000000,0.000669,-0.000704,-0.000132,-0.000269,0.000276,0.000057
4.230000,0.000408,2.957007,0.511243,-0.000269,0.372707,-0.061176,0.000401,-1.186062,0.162786,-0.000217,1.827581,-0.087007,0.000625,1.675039,-0.768896,1.000000,0.000668,-0.000703,-0.000132,-0.000266,0.000272,0.000057
4.240000,0.000405,2.960675,0.510639,-0.000265,0.360938,-0.059553,0.000399,-1.167704,0.161877,-0.000211,1.843994,-0.094664,0.000515,1.607950,-0.763027,1.000000,0.000667,-0.000702,-0.000131,-0.000262,0.000268,0.000056
4.250000,0.000403,2.964227,0.510051,-0.000261,0.349353,-0.057939,0.000397,-1.149185,0.160892,-0.000206,1.859725,-0.102260,0.000519,1.538019,-0.755623,1.000000,0.000665,-0.000700,-0.000131,-0.000259,0.000265,0.000055
4.260000,0.000400,2.967663,0.509480,-0.000257,0.337955,-0.056335,0.000395,-1.130512,0.159832,-0.000201,1.874750,-0.109777,0.000519,1.466995,-0.747789,1.000000,0.000664,-0.000699,-0.000131,-0.000255,0.000261,0.000054
4.270000,0.000398,2.970986,0.508925,-0.000254,0.326744,-0.054743,0.000393,-1.111692,0.158697,-0.000196,1.889061,-0.117214,0.000503,1.394860,-0.739465,1.000000,0.000663,-0.000698,-0.000131,-0.000252,0.000258,0.000054
4.280000,0.000395,2.974198,0.508385,-0.000250,0.315721,-0.053162,0.000391,-1.092733,0.157488,-0.000191,1.902640,-0.124565,0.000524,1.320698,-0.730620,1.000000,0.000661,-0.000696,-0.000130,-0.000249,0.000254,0.000053
4.290000,0.000393,2.977301,0.507861,-0.000246,0.304889,-0.051593,0.000389,-1.073642,0.156206,-0.000185,1.915473,-0.131825,0.000508,1.245742,-0.721321,1.000000,0.000660,-0.000695,-0.000130,-0.000245,0.000250,0.000052
4.300000,0.000390,2.980297,0.507353,-0.000242,0.294249,-0.050038,0.000387,-1.054426,0.154852,-0.000180,1.927552,-0.138988,0.000503,1.169377,-0.711388,1.000000,0.000659,-0.000694,-0.000130,-0.000242,0.000247,0.000051
4.310000,0.000388,2.983187,0.506861,-0.000238,0.283801,-0.048496,0.000385,-1.035093,0.153427,-0.000175,1.938857,-0.146051,0.000497,1.091535,-0.700995,1.000000,0.000658,-0.000693,-0.000129,-0.000238,0.000243,0.000051
4.320000,0.000385,2.985974,0.506383,-0.000234,0.273548,-0.046970,0.000384,-1.015652,0.151931,-0.000171,1.949378,-0.153006,0.000479,1.012426,-0.690085,1.000000,0.000657,-0.000692,-0.000129,-0.000235,0.000240,0.000050
4.330000,0.000383,2.988659,0.505921,-0.000230,0.263489,-0.045458,0.000382,-0.996108,0.150367,-0.000166,1.959099,-0.159850,0.000491,0.931480,-0.678620,1.000000,0.000655,-0.000690,-0.000129,-0.000231,0.000236,0.000049
4.340000,0.000381,2.991244,0.505474,-0.000226,0.253626,-0.043962,0.000380,-0.976472,0.148735,-0.000161,1.968004,-0.166577,0.000472,0.849307,-0.666646,1.000000,0.000654,-0.000689,-0.000129,-0.000228,0.000233,0.000048
4.350000,0.000378,2.993732,0.505042,-0.000223,0.243959,-0.042483,0.000379,-0.956751,0.147036,-0.000156,1.976088,-0.173181,0.000463,0.766273,-0.654099,1.000000,0.000653,-0.000688,-0.000128,-0.000224,0.000229,0.000047
4.360000,0.000376,2.996124,0.504624,-0.000219,0.234491,-0.041022,0.000377,-0.936953,0.145272,-0.000151,1.983325,-0.179656,0.000458,0.681372,-0.641002,1.000000,0.000652,-0.000687,-0.000128,-0.000221,0.000226,0.000047
4.370000,0.000374,2.998422,0.504221,-0.000215,0.225221,-0.039578,0.000376,-0.917087,0.143443,-0.000147,1.989717,-0.186001,0.000367,0.596306,-0.627623,1.000000,0.000651,-0.000686,-0.000128,-0.000217,0.000222,0.000046
4.380000,0.000372,3.000629,0.503833,-0.000211,0.216149,-0.038153,0.000374,-0.897162,0.141552,-0.000143,1.995233,-0.192204,0.000505,0.506482,-0.612959,1.000000,0.000650,-0.000685,-0.000128,-0.000214,0.000219,0.000045
4.390000,0.000370,3.002746,0.503458,-0.000208,0.207278,-0.036747,0.000373,-0.877186,0.139600,-0.000138,1.999855,-0.198261,0.000421,0.418464,-0.598450,1.000000,0.000649,-0.000684,-0.000128,-0.000210,0.000215,0.000044
4.400000,0.000368,3.004775,0.503098,-0.000204,0.198606,-0.035361,0.000372,-0.857168,0.137587,-0.000134,2.003589,-0.204170,0.000410,0.327787,-0.583096,1.000000,0.000648,-0.000683,-0.000127,-0.000207,0.000212,0.000044
4.410000,0.000366,3.006719,0.502751,-0.000200,0.190134,-0.033996,0.000370,-0.837117,0.135517,-0.000130,2.006410,-0.209922,0.000394,0.235845,-0.567221,1.000000,0.000647,-0.000681,-0.000127,-0.000203,0.000208,0.000043
4.420000,0.000364,3.008578,0.502418,-0.000197,0.181864,-0.032651,0.000369,-0.817043,0.133389,-0.000126,2.008299,-0.215511,0.000394,0.141979,-0.550460,1.000000,0.000646,-0.000680,-0.000127,-0.000200,0.000205,0.000042
4.430000,0.000362,3.010357,0.502098,-0.000193,0.173794,-0.031328,0.000368,-0.796954,0.131207,-0.000123,2.009250,-0.220933,0.000345,0.048033,-0.533961,1.000000,0.000645,-0.000679,-0.000127,-0.000197,0.000201,0.000042
4.440000,0.000360,3.012055,0.501791,-0.000189,0.165924,-0.030027,0.000367,-0.776861,0.128971,-0.000119,2.009250,-0.226185,0.000338,-0.048521,-0.516062,1.000000,0.000644,-0.000678,-0.000127,-0.000193,0.000198,0.000041
4.450000,0.000358,3.013676,0.501497,-0.000186,0.158256,-0.028749,0.000365,-0.756772,0.126684,-0.000116,2.008274,-0.231254,0.000314,-0.146395,-0.497861,1.000000,0.000643,-0.000677,-0.000126,-0.000190,0.000194,0.000040
4.460000,0.000356,3.015221,0.501216,-0.000182,0.150789,-0.027494,0.000364,-0.736699,0.124347,-0.000114,2.006329,-0.236142,0.000273,-0.245302,-0.479103,1.000000,0.000642,-0.000677,-0.000126,-0.000186,0.000191,0.000039
4.470000,0.000354,3.016692,0.500947,-0.000178,0.143522,-0.026262,0.000363,-0.716649,0.121962,-0.000109,2.003340,-0.240829,0.000494,-0.350293,-0.458774,1.000000,0.000641,-0.000676,-0.000126,-0.000183,0.000187,0.000039
4.480000,0.000353,3.018092,0.500691,-0.000175,0.136456,-0.025055,0.000362,-0.696635,0.119531,-0.000107,1.999368,-0.245326,-0.000003,-0.444334,-0.440458,1.000000,0.000640,-0.000675,-0.000126,-0.000180,0.000184,0.000038
4.490000,0.000351,3.019422,0.500446,-0.000171,0.129589,-0.023872,0.000361,-0.676665,0.117056,-0.000107,1.994399,-0.249626,0.000187,-0.552054,-0.418990,1.000000,0.000639,-0.000674,-0.000126,-0.000177,0.000180,0.000037
4.500000,0.000349,3.020684,0.500213,-0.000167,0.122922,-0.022714,0.000360,-0.656751,0.114539,-0.000104,1.988349,-0.253708,0.000143,-0.656622,-0.397775,1.000000,0.000638,-0.000673,-0.000125,-0.000174,0.000177,0.000036
4.510000,0.000348,3.021881,0.499992,-0.000164,0.116454,-0.021581,0.000359,-0.636902,0.111982,-0.000102,1.981231,-0.257572,0.000136,-0.763630,-0.375789,1.000000,0.000637,-0.000672,-0.000125,-0.000171,0.000173,0.000036
4.520000,0.000346,3.023014,0.499782,-0.000160,0.110184,-0.020474,0.000358,-0.617129,0.109388,-0.000104,1.973106,-0.261229,-0.000338,-0.865178,-0.354720,1.000000,0.000637,-0.000671,-0.000125,-0.000168,0.000170,0.000035
4.530000,0.000344,3.024085,0.499582,-0.000157,0.104111,-0.019393,0.000357,-0.597444,0.106759,-0.000103,1.963846,-0.264647,0.000454,-0.987154,-0.328781,1.000000,0.000636,-0.000670,-0.000125,-0.000165,0.000166,0.000034
4.540000,0.000343,3.025097,0.499394,-0.000153,0.098235,-0.018339,0.000356,-0.577856,0.104096,-0.000100,1.953432,-0.267819,0.000029,-1.092189,-0.306245,1.000000,0.000635,-0.000669,-0.000125,-0.000162,0.000163,0.000034
4.550000,0.000341,3.026051,0.499215,-0.000150,0.092554,-0.017312,0.000355,-0.558378,0.101403,-0.000101,1.941956,-0.270763,0.000016,-1.205797,-0.281686,1.000000,0.000634,-0.000669,-0.000124,-0.000159,0.000159,0.000033
4.560000,0.000340,3.026949,0.499047,-0.000146,0.087067,-0.016311,0.000354,-0.539021,0.098682,-0.000100,1.929318,-0.273454,-0.000000,-1.320419,-0.256508,1.000000,0.000633,-0.000668,-0.000124,-0.000156,0.000156,0.000032
4.570000,0.000338,3.027793,0.498889,-0.000142,0.081773,-0.015338,0.000353,-0.519796,0.095935,-0.000102,1.915558,-0.275892,-0.000278,-1.433442,-0.230860,1.000000,0.000633,-0.000667,-0.000124,-0.000153,0.000153,0.000031
4.580000,0.000337,3.028585,0.498740,-0.000139,0.076670,-0.014393,0.000352,-0.500714,0.093165,-0.000103,1.900610,-0.278067,0.000137,-1.556494,-0.204036,1.000000,0.000632,-0.000666,-0.000124,-0.000150,0.000149,0.000031
4.590000,0.000336,3.029327,0.498601,-0.000135,0.071758,-0.013475,0.000351,-0.481788,0.090374,-0.000102,1.884456,-0.279973,-0.000127,-1.672853,-0.177021,1.000000,0.000631,-0.000666,-0.000124,-0.000146,0.000146,0.000030
4.600000,0.000334,3.030021,0.498471,-0.000132,0.067034,-0.012585,0.000350,-0.463029,0.087566,-0.000104,1.867135,-0.281605,-0.000170,-1.793439,-0.149223,1.000000,0.000630,-0.000665,-0.000124,-0.000143,0.000142,0.000029
4.610000,0.000333,3.030668,0.498349,-0.000128,0.062497,-0.011724,0.000349,-0.444449,0.084743,-0.000107,1.848606,-0.282959,-0.000243,-1.915170,-0.120805,1.000000,0.000630,-0.000664,-0.000124,-0.000139,0.000139,0.000029
4.620000,0.000332,3.031271,0.498236,-0.000125,0.058145,-0.010890,0.000348,-0.426061,0.081908,-0.000108,1.828804,-0.284013,-0.000135,-2.043001,-0.090480,1.000000,0.000629,-0.000663,-0.000123,-0.000136,0.000136,0.000028
4.630000,0.000331,3.031832,0.498131,-0.000121,0.053975,-0.010085,0.000346,-0.407877,0.079064,-0.000111,1.807791,-0.284780,-0.000560,-2.159766,-0.062819,1.000000,0.000628,-0.000663,-0.000123,-0.000133,0.000132,0.000027
4.640000,0.000329,3.032351,0.498034,-0.000118,0.049986,-0.009309,0.000345,-0.389909,0.076213,-0.000117,1.785555,-0.285254,-0.000498,-2.290139,-0.031271,1.000000,0.000628,-0.000662,-0.000123,-0.000130,0.000129,0.000026
4.650000,0.000328,3.032832,0.497945,-0.000115,0.046176,-0.008561,0.000344,-0.372170,0.073360,-0.000122,1.762006,-0.285408,-0.000620,-2.417726,-0.000084,1.000000,0.000627,-0.000662,-0.000123,-0.000126,0.000125,0.000026
4.660000,0.000327,3.033275,0.497863,-0.000111,0.042542,-0.007842,0.000343,-0.354673,0.070506,-0.000128,1.737172,-0.285249,-0.000727,-2.547255,0.031856,1.000000,0.000626,-0.000661,-0.000123,-0.000123,0.000122,0.000025
4.670000,0.000326,3.033683,0.497788,-0.000108,0.039082,-0.007151,0.000342,-0.337431,0.067656,-0.000139,1.711074,-0.284771,-0.001248,-2.674576,0.063989,1.000000,0.000626,-0.000660,-0.000123,-0.000120,0.000118,0.000024
4.680000,0.000325,3.034058,0.497720,-0.000104,0.035793,-0.006489,0.000340,-0.320456,0.064812,-0.000149,1.683635,-0.283961,-0.000709,-2.813399,0.098230,1.000000,0.000625,-0.000660,-0.000123,-0.000116,0.000115,0.000024
4.690000,0.000324,3.034400,0.497658,-0.000101,0.032672,-0.005855,0.000339,-0.303763,0.061978,-0.000157,1.654840,-0.282810,-0.001226,-2.943994,0.131848,1.000000,0.000625,-0.000659,-0.000123,-0.000113,0.000112,0.000023
4.700000,0.000323,3.034712,0.497603,-0.000098,0.029716,-0.005249,0.000337,-0.287364,0.059157,-0.000171,1.624734,-0.281319,-0.001413,-3.079424,0.166654,1.000000,0.000624,-0.000659,-0.000122,-0.000110,0.000108,0.000022
4.710000,0.000322,3.034995,0.497553,-0.000094,0.026923,-0.004672,0.000335,-0.271273,0.056353,-0.000185,1.593247,-0.279476,-0.001607,-3.216333,0.202165,1.000000,0.000623,-0.000658,-0.000122,-0.000106,0.000105,0.000021
4.720000,0.000321,3.035251,0.497509,-0.000091,0.024290,-0.004122,0.000333,-0.255503,0.053569,-0.000206,1.560419,-0.277273,-0.002353,-3.351307,0.238420,1.000000,0.000623,-0.000658,-0.000122,-0.000103,0.000102,0.000021
4.730000,0.000320,3.035481,0.497471,-0.000087,0.021812,-0.003600,0.000331,-0.240069,0.050808,-0.000227,1.526180,-0.274705,-0.001709,-3.496784,0.275379,1.000000,0.000622,-0.000657,-0.000122,-0.000100,0.000098,0.000020
4.740000,0.000319,3.035687,0.497437,-0.000084,0.019487,-0.003106,0.000329,-0.224984,0.048076,-0.000246,1.490514,-0.271763,-0.002465,-3.634841,0.313089,1.000000,0.000622,-0.000657,-0.000122,-0.000096,0.000095,0.000019
4.750000,0.000318,3.035871,0.497408,-0.000081,0.017311,-0.002639,0.000326,-0.210263,0.045374,-0.000274,1.453460,-0.268440,-0.002795,-3.777479,0.351600,1.000000,0.000621,-0.000656,-0.000122,-0.000093,0.000091,0.000019
4.760000,0.000318,3.036034,0.497384,-0.000078,0.015281,-0.002198,0.000323,-0.195920,0.042708,-0.000301,1.414954,-0.264728,-0.003135,-3.921504,0.390831,1.000000,0.000621,-0.000656,-0.000122,-0.000090,0.000088,0.000018
4.770000,0.000317,3.036177,0.497364,-0.000074,0.013392,-0.001784,0.000320,-0.181969,0.040081,-0.000341,1.375049,-0.260621,-0.004362,-4.062238,0.430811,1.000000,0.000621,-0.000655,-0.000122,-0.000086,0.000085,0.000017
4.780000,0.000316,3.036302,0.497349,-0.000071,0.011640,-0.001396,0.000316,-0.168424,0.037497,-0.000379,1.333655,-0.256109,-0.003365,-4.216839,0.471587,1.000000,0.000620,-0.000655,-0.000122,-0.000083,0.000081,0.000017
4.790000,0.000315,3.036411,0.497336,-0.000068,0.010022,-0.001034,0.000312,-0.155301,0.034960,-0.000417,1.290756,-0.251186,-0.004615,-4.360732,0.513125,1.000000,0.000620,-0.000654,-0.000122,-0.000080,0.000078,0.000016
4.800000,0.000315,3.036503,0.497328,-0.000065,0.008533,-0.000697,0.000308,-0.142614,0.032475,-0.000468,1.246415,-0.245844,-0.005186,-4.510185,0.555510,1.000000,0.000619,-0.000654,-0.000121,-0.000076,0.000075,0.000015
4.810000,0.000314,3.036582,0.497322,-0.000062,0.007168,-0.000384,0.000303,-0.130378,0.030045,-0.000519,1.200550,-0.240076,-0.005774,-4.660332,0.598477,1.000000,0.000619,-0.000654,-0.000121,-0.000073,0.000071,0.000015
4.820000,0.000314,3.036647,0.497320,-0.000059,0.005923,-0.000096,0.000298,-0.118607,0.027675,-0.000591,1.153242,-0.233873,-0.007834,-4.805167,0.642311,1.000000,0.000619,-0.000653,-0.000121,-0.000070,0.000068,0.000014
4.830000,0.000313,3.036700,0.497320,-0.000056,0.004794,0.000169,0.000291,-0.107318,0.025369,-0.000661,1.104368,-0.227227,-0.006209,-4.969917,0.687011,1.000000,0.000618,-0.000653,-0.000121,-0.000066,0.000064,0.000013
4.840000,0.000312,3.036743,0.497323,-0.000053,0.003775,0.000412,0.000284,-0.096525,0.023132,-0.000730,1.053912,-0.220130,-0.008312,-5.117722,0.732414,1.000000,0.000618,-0.000653,-0.000121,-0.000063,0.000061,0.000013
4.850000,0.000312,3.036776,0.497329,-0.000050,0.002862,0.000632,0.000277,-0.086245,0.020968,-0.000821,1.001982,-0.212575,-0.009289,-5.272486,0.778688,1.000000,0.000618,-0.000652,-0.000121,-0.000060,0.000058,0.000012
4.860000,0.000311,3.036801,0.497336,-0.000048,0.002049,0.000831,0.000268,-0.076491,0.018882,-0.000920,0.948480,-0.204554,-0.010433,-5.428088,0.825740,1.000000,0.000617,-0.000652,-0.000121,-0.000056,0.000054,0.000011
4.870000,0.000311,3.036818,0.497345,-0.000045,0.001330,0.001010,0.000258,-0.067280,0.016878,-0.001030,0.893417,-0.196058,-0.011708,-5.584596,0.873602,1.000000,0.000617,-0.000652,-0.000121,-0.000053,0.000051,0.000011
4.880000,0.000310,3.036828,0.497356,-0.000042,0.000701,0.001169,0.000247,-0.058628,0.014962,-0.001155,0.836785,-0.187079,-0.013123,-5.742001,0.922280,1.000000,0.000617,-0.000652,-0.000121,-0.000049,0.000048,0.000010
4.890000,0.000310,3.036832,0.497368,-0.000040,0.000156,0.001310,0.000235,-0.050550,0.013138,-0.001293,0.778574,-0.177609,-0.014689,-5.900390,0.971781,1.000000,0.000617,-0.000651,-0.000121,-0.000046,0.000044,0.000009
4.900000,0.000310,3.036831,0.497382,-0.000038,-0.000312,0.001432,0.000221,-0.043062,0.011412,-0.001449,0.718781,-0.167641,-0.016415,-6.058996,1.022098,1.000000,0.000616,-0.000651,-0.000121,-0.000043,0.000041,0.000009
4.910000,0.000309,3.036826,0.497397,-0.000036,-0.000707,0.001538,0.000206,-0.036179,0.009787,-0.001622,0.657393,-0.157165,-0.018311,-6.218594,1.073250,1.000000,0.000616,-0.000651,-0.000121,-0.000039,0.000038,0.000008
4.920000,0.000309,3.036817,0.497413,-0.000034,-0.001037,0.001628,0.000189,-0.029919,0.008270,-0.001816,0.594407,-0.146173,-0.020387,-6.378842,1.125236,1.000000,0.000616,-0.000651,-0.000121,-0.000036,0.000034,0.000008
4.930000,0.000309,3.036805,0.497430,-0.000032,-0.001308,0.001704,0.000170,-0.024297,0.006866,-0.002031,0.529814,-0.134657,-0.022652,-6.539692,1.178064,1.000000,0.000616,-0.000651,-0.000121,-0.000032,0.000031,0.000007
4.940000,0.000308,3.036791,0.497447,-0.000030,-0.001525,0.001766,0.000148,-0.019328,0.005579,-0.002269,0.463611,-0.122609,-0.025117,-6.701099,1.231745,1.000000,0.000616,-0.000650,-0.000121,-0.000028,0.000028,0.000007
4.950000,0.000308,3.036775,0.497465,-0.000029,-0.001697,0.001816,0.000124,-0.015030,0.004415,-0.002534,0.395791,-0.110020,-0.027792,-6.862960,1.286257,1.000000,0.000616,-0.000650,-0.000121,-0.000024,0.000025,0.000007
4.960000,0.000308,3.036757,0.497483,-0.000028,-0.001828,0.001855,0.000097,-0.011418,0.003380,-0.002826,0.326350,-0.096881,-0.030686,-7.025292,1.341634,1.000000,0.000615,-0.000650,-0.000121,-0.000019,0.000022,0.000006
4.970000,0.000307,3.036739,0.497502,-0.000027,-0.001927,0.001884,0.000067,-0.008508,0.002479,-0.003148,0.255284,-0.083184,-0.033809,-7.188006,1.397870,1.000000,0.000615,-0.000650,-0.000121,-0.000014,0.000019,0.000006
4.980000,0.000307,3.036719,0.497521,-0.000026,-0.002001,0.001905,0.000034,-0.006318,0.001718,-0.003503,0.182589,-0.068921,-0.037170,-7.351028,1.454963,1.000000,0.000615,-0.000650,-0.000121,-0.000007,0.000017,0.000006
4.990000,0.000307,3.036699,0.497540,-0.000026,-0.002056,0.001919,-0.000003,-0.004862,0.001103,-0.003892,0.108263,-0.054082,-0.040780,-7.514303,1.512901,1.000000,0.000615,-0.000650,-0.000121,0.000002,0.000015,0.000007
5.000000,0.000307,3.036678,0.497559,-0.000027,-0.002101,0.001927,-0.000044,-0.004158,0.000639,-0.004319,0.032302,-0.038660,-0.044649,-7.677846,1.571651,1.000000,0.000615,-0.000650,-0.000121,0.000013,0.000015,0.000007
