time,x,y,z,vx,vy,vz,ax,ay,az,jx,jy,jz,sx,sy,sz,roll,pitch,yaw,p,q,r
0.000000,-2.531032,-1.971206,-1.433900,-0.023084,-0.004065,0.025584,0.147772,-0.001193,-0.076570,6.872570,0.139540,-3.378182,-53.532919,32.025129,44.504137,-0.000121,-0.014946,0.000000,0.014155,-0.689881,0.000000
0.010000,-2.531263,-1.971247,-1.433644,-0.021607,-0.004077,0.024818,0.216498,0.000202,-0.110352,6.337241,0.459791,-2.933141,-253.759521,55.863982,150.711908,0.000020,-0.021820,0.000000,0.046331,-0.632059,0.000000
0.020000,-2.531464,-1.971287,-1.433403,-0.018754,-0.004061,0.023377,0.274517,0.008003,-0.135233,1.797380,1.256819,-0.363944,-429.978573,84.795497,233.720830,0.000804,-0.027596,0.000000,0.126292,-0.179581,0.000000
0.030000,-2.531638,-1.971328,-1.433176,-0.016116,-0.003917,0.022113,0.252446,0.025339,-0.117631,-2.262330,2.155701,1.741276,-207.496837,84.221647,103.449611,0.002552,-0.025423,0.000000,0.217532,0.223277,0.000000
0.040000,-2.531787,-1.971366,-1.432961,-0.013705,-0.003554,0.021024,0.229271,0.051117,-0.100408,-2.352557,2.941252,1.705048,-7.124852,72.916232,-3.495983,0.005156,-0.023130,0.000000,0.297612,0.233274,0.000000
0.050000,-2.531912,-1.971399,-1.432756,-0.011531,-0.002895,0.020105,0.205395,0.084164,-0.083530,-2.404827,3.614025,1.671356,-3.553100,62.082763,-3.314087,0.008505,-0.020758,0.000000,0.366666,0.239452,0.000000
0.060000,-2.532017,-1.971424,-1.432559,-0.009598,-0.001871,0.019353,0.181174,0.123397,-0.066981,-2.423619,4.182907,1.638766,-0.416059,52.119189,-3.268470,0.012491,-0.018341,0.000000,0.425491,0.242237,0.000000
0.070000,-2.532104,-1.971436,-1.432369,-0.007907,-0.000427,0.018766,0.156922,0.167822,-0.050755,-2.413148,4.656409,1.605987,2.312171,42.987988,-3.345126,0.017015,-0.015912,0.000000,0.474856,0.242034,-0.000000
0.080000,-2.532175,-1.971432,-1.432184,-0.006459,0.001485,0.018338,0.132911,0.216526,-0.034861,-2.377375,5.042667,1.571864,4.657447,34.651655,-3.530098,0.021988,-0.013500,0.000000,0.515499,0.239227,0.000000
0.090000,-2.532233,-1.971407,-1.432002,-0.005249,0.003904,0.018068,0.109375,0.268675,-0.019317,-2.319999,5.349442,1.535385,6.645646,27.072678,-3.809376,0.027326,-0.011127,0.000000,0.548131,0.234174,0.000000
0.100000,-2.532280,-1.971354,-1.431822,-0.004272,0.006859,0.017952,0.086511,0.323514,-0.004153,-2.244462,5.584121,1.495676,8.302645,20.213547,-4.168939,0.032951,-0.008815,0.000000,0.573431,0.227212,0.000000
0.110000,-2.532319,-1.971269,-1.431643,-0.003519,0.010374,0.017985,0.064486,0.380358,0.010596,-2.153947,5.753713,1.452006,9.654342,14.036745,-4.594816,0.038794,-0.006580,0.000000,0.592052,0.218655,0.000000
0.120000,-2.532351,-1.971147,-1.431463,-0.002982,0.014466,0.018164,0.043432,0.438589,0.024887,-2.051376,5.864856,1.403780,10.726634,8.504727,-5.073031,0.044792,-0.004439,0.000000,0.604616,0.208792,0.000000
0.130000,-2.532378,-1.970980,-1.431280,-0.002650,0.019146,0.018483,0.023458,0.497655,0.038672,-1.939414,5.923808,1.350545,11.545384,3.579990,-5.589567,0.050886,-0.002401,0.000000,0.611719,0.197891,-0.000000
0.140000,-2.532404,-1.970764,-1.431093,-0.002513,0.024419,0.018937,0.004644,0.557065,0.051898,-1.820468,5.936455,1.291989,12.136452,-0.774897,-6.130387,0.057026,-0.000476,0.000000,0.613924,0.186193,-0.000000
0.150000,-2.532429,-1.970492,-1.430901,-0.002557,0.030287,0.019521,-0.012951,0.616384,0.064511,-1.696685,5.908310,1.227938,12.525754,-4.597519,-6.681541,0.063164,0.001329,0.000000,0.611768,0.173919,0.000000
0.160000,-2.532455,-1.970158,-1.430702,-0.002772,0.036747,0.020228,-0.029290,0.675231,0.076457,-1.569953,5.844505,1.158358,12.739194,-7.925487,-7.229083,0.069260,0.003009,0.000000,0.605754,0.161262,0.000000
0.170000,-2.532484,-1.969757,-1.430496,-0.003143,0.043792,0.021050,-0.044350,0.733274,0.087679,-1.441901,5.749800,1.083356,12.805875,-10.798241,-7.755421,0.075278,0.004562,0.000000,0.596357,0.148392,-0.000000
0.180000,-2.532518,-1.969282,-1.430281,-0.003659,0.051412,0.021981,-0.058128,0.790227,0.098124,-1.313835,5.628540,1.003249,12.808634,-13.289060,-8.184917,0.081187,0.005985,0.000000,0.584015,0.135447,0.000000
0.190000,-2.532557,-1.968729,-1.430057,-0.004306,0.059596,0.023013,-0.070627,0.845845,0.107744,-1.185728,5.484019,0.919658,12.753686,-15.423167,-8.524938,0.086958,0.007279,0.000000,0.569077,0.122431,0.000000
0.200000,-2.532604,-1.968090,-1.429821,-0.005071,0.068329,0.024136,-0.081842,0.899907,0.116517,-1.058762,5.320077,0.832751,12.246577,-16.973923,-9.216193,0.092568,0.008443,0.000000,0.551943,0.109471,0.000000
0.210000,-2.532659,-1.967362,-1.429574,-0.005943,0.077594,0.025343,-0.091802,0.952246,0.124399,-0.940797,5.144541,0.735334,11.358225,-18.007130,-10.195955,0.097996,0.009478,0.000000,0.533347,0.097375,0.000000
0.220000,-2.532723,-1.966538,-1.429314,-0.006907,0.087374,0.026624,-0.100658,1.002798,0.131224,-0.831597,4.959934,0.628832,11.320071,-19.319005,-10.147218,0.103234,0.010400,0.000000,0.513553,0.086125,0.000000
0.230000,-2.532797,-1.965614,-1.429042,-0.007956,0.097650,0.027967,-0.108434,1.051445,0.136975,-0.714395,4.758160,0.532389,12.185443,-20.983927,-9.046332,0.108267,0.011209,0.000000,0.491949,0.074026,-0.000000
0.240000,-2.532882,-1.964585,-1.428755,-0.009076,0.108403,0.029363,-0.114946,1.097961,0.141871,-0.587888,4.540256,0.447905,12.305056,-21.979944,-8.684581,0.113073,0.011889,0.000000,0.468711,0.060957,0.000000
0.250000,-2.532978,-1.963446,-1.428454,-0.010255,0.119610,0.030805,-0.120192,1.142250,0.145933,-0.468294,4.318562,0.358698,11.487442,-22.063274,-9.134995,0.117641,0.012436,0.000000,0.444933,0.048573,0.000000
0.260000,-2.533087,-1.962193,-1.428139,-0.011480,0.131248,0.032282,-0.124312,1.184333,0.149045,-0.358139,4.098990,0.265205,10.873798,-21.987816,-9.192843,0.121971,0.012867,0.000000,0.421226,0.037140,0.000000
0.270000,-2.533208,-1.960821,-1.427809,-0.012741,0.143296,0.033786,-0.127355,1.224230,0.151237,-0.250818,3.878805,0.174841,10.695393,-22.335760,-9.047407,0.126065,0.013185,0.000000,0.397416,0.025994,-0.000000
0.280000,-2.533342,-1.959327,-1.427463,-0.014027,0.155733,0.035307,-0.129328,1.261909,0.152542,-0.144232,3.652275,0.084257,10.571936,-22.909070,-9.143119,0.129919,0.013391,0.000000,0.372896,0.014922,-0.000000
0.290000,-2.533488,-1.957707,-1.427102,-0.015327,0.168534,0.036837,-0.130239,1.297276,0.152923,-0.039380,3.420624,-0.008022,10.302326,-23.022404,-9.117764,0.133523,0.013486,0.000000,0.347783,0.004030,0.000000
0.300000,-2.533648,-1.955957,-1.426726,-0.016632,0.181678,0.038365,-0.130116,1.330321,0.152382,0.061815,3.191827,-0.098098,9.904028,-22.557560,-8.821213,0.136875,0.013472,0.000000,0.322955,-0.006475,0.000000
0.310000,-2.533821,-1.954073,-1.426335,-0.017930,0.195141,0.039884,-0.129003,1.361112,0.150961,0.158701,2.969473,-0.184446,9.506825,-22.009388,-8.527678,0.139982,0.013355,0.000000,0.298810,-0.016519,-0.000000
0.320000,-2.534007,-1.952054,-1.425929,-0.019212,0.208900,0.041385,-0.126942,1.389711,0.148693,0.251952,2.751639,-0.268652,9.187117,-21.734987,-8.437942,0.142851,0.013138,0.000000,0.275144,-0.026170,0.000000
0.330000,-2.534205,-1.949895,-1.425507,-0.020469,0.222935,0.042858,-0.123964,1.416145,0.145588,0.342443,2.534773,-0.353205,8.908108,-21.603608,-8.470434,0.145485,0.012826,0.000000,0.251569,-0.035517,0.000000
0.340000,-2.534416,-1.947595,-1.425072,-0.021691,0.237223,0.044296,-0.120093,1.440406,0.141629,0.430114,2.319567,-0.438061,8.581134,-21.199360,-8.380307,0.147882,0.012421,0.000000,0.228165,-0.044551,0.000000
0.350000,-2.534639,-1.945151,-1.424622,-0.022871,0.251743,0.045691,-0.115362,1.462536,0.136826,0.514066,2.110786,-0.520811,8.194188,-20.449624,-8.131410,0.150048,0.011925,0.000000,0.205456,-0.053174,-0.000000
0.360000,-2.534874,-1.942560,-1.424158,-0.023998,0.266474,0.047033,-0.109812,1.482622,0.131213,0.593997,1.910575,-0.600689,7.809819,-19.656007,-7.891550,0.151991,0.011345,0.000000,0.183678,-0.061352,0.000000
0.370000,-2.535119,-1.939821,-1.423681,-0.025067,0.281396,0.048315,-0.103482,1.500748,0.124813,0.670262,1.717666,-0.678642,7.466769,-19.045798,-7.754845,0.153722,0.010684,0.000000,0.162693,-0.069121,-0.000000
0.380000,-2.535375,-1.936932,-1.423191,-0.026068,0.296489,0.049529,-0.096406,1.516975,0.117640,0.743333,1.529659,-0.755786,7.147283,-18.541392,-7.667543,0.155245,0.009946,0.000000,0.142246,-0.076529,0.000000
0.390000,-2.535640,-1.933892,-1.422690,-0.026995,0.311735,0.050668,-0.088615,1.531341,0.109697,0.813208,1.346838,-0.831993,6.806606,-17.877641,-7.516505,0.156567,0.009135,0.000000,0.122372,-0.083575,-0.000000
0.400000,-2.535915,-1.930698,-1.422178,-0.027840,0.327116,0.051723,-0.080142,1.543912,0.101000,0.879465,1.172106,-0.906116,6.438593,-17.004802,-7.295643,0.157693,0.008254,0.000000,0.103385,-0.090213,0.000000
0.410000,-2.536197,-1.927349,-1.421656,-0.028598,0.342613,0.052688,-0.071026,1.554783,0.091575,0.941980,1.006742,-0.977906,6.075095,-16.116219,-7.079640,0.158635,0.007308,0.000000,0.085419,-0.096431,0.000000
0.420000,-2.536487,-1.923845,-1.421124,-0.029261,0.358211,0.053555,-0.061303,1.564047,0.081442,1.000967,0.849781,-1.047709,5.736272,-15.366195,-6.883379,0.159401,0.006301,0.000000,0.068372,-0.102251,0.000000
0.430000,-2.536782,-1.920185,-1.420585,-0.029824,0.373894,0.054317,-0.051007,1.571779,0.070620,1.056705,0.699418,-1.115573,5.413366,-14.706268,-6.679239,0.160002,0.005237,0.000000,0.052064,-0.107702,0.000000
0.440000,-2.537083,-1.916367,-1.420038,-0.030281,0.389647,0.054967,-0.040169,1.578035,0.059130,1.109234,0.555656,-1.181293,5.083305,-13.955148,-6.452675,0.160443,0.004119,0.000000,0.036499,-0.112787,-0.000000
0.450000,-2.537388,-1.912392,-1.419485,-0.030627,0.405455,0.055499,-0.028822,1.582892,0.046994,1.158371,0.420315,-1.244627,4.742568,-13.075868,-6.216103,0.160732,0.002952,0.000000,0.021865,-0.117490,-0.000000
0.460000,-2.537696,-1.908258,-1.418928,-0.030857,0.421305,0.055907,-0.017001,1.586441,0.034238,1.204086,0.294139,-1.305615,4.407856,-12.200786,-5.976450,0.160880,0.001739,0.000000,0.008233,-0.121809,0.000000
0.470000,-2.538005,-1.903966,-1.418367,-0.030967,0.437184,0.056184,-0.004740,1.588775,0.020882,1.246529,0.176299,-1.364156,4.091013,-11.441841,-5.702460,0.160897,0.000484,0.000000,-0.004480,-0.125760,-0.000000
0.480000,-2.538315,-1.899515,-1.417804,-0.030952,0.453080,0.056324,0.007929,1.589967,0.006955,1.285906,0.065302,-1.419665,3.787759,-10.766354,-5.387693,0.160791,-0.000809,0.000000,-0.016412,-0.129366,-0.000000
0.490000,-2.538624,-1.894904,-1.417241,-0.030809,0.468983,0.056323,0.020978,1.590081,-0.007511,1.322284,-0.039028,-1.471909,3.484510,-10.041095,-5.075096,0.160569,-0.002137,0.000000,-0.027581,-0.132637,0.000000
0.500000,-2.538931,-1.890135,-1.416678,-0.030533,0.484882,0.056174,0.034375,1.589187,-0.022484,1.355596,-0.135520,-1.521167,3.178548,-9.236574,-4.784413,0.160239,-0.003496,0.000000,-0.037876,-0.135567,0.000000
0.510000,-2.539235,-1.885207,-1.416117,-0.030121,0.500767,0.055873,0.048090,1.587370,-0.037934,1.385855,-0.223760,-1.567598,2.879897,-8.449561,-4.484560,0.159812,-0.004883,0.000000,-0.047261,-0.138161,-0.000000
0.520000,-2.539534,-1.880120,-1.415560,-0.029571,0.516629,0.055416,0.062092,1.584712,-0.053836,1.413194,-0.304511,-1.610858,2.597399,-7.766032,-4.127771,0.159294,-0.006295,0.000000,-0.055811,-0.140436,-0.000000
0.530000,-2.539826,-1.874874,-1.415009,-0.028879,0.532461,0.054797,0.076354,1.581280,-0.070152,1.437803,-0.379080,-1.650153,2.328733,-7.161855,-3.721195,0.158696,-0.007728,0.000000,-0.063645,-0.142413,0.000000
0.540000,-2.540111,-1.869470,-1.414465,-0.028044,0.548255,0.054013,0.090848,1.577130,-0.086839,1.459769,-0.447748,-1.685282,2.063461,-6.532851,-3.328279,0.158022,-0.009179,0.000000,-0.070790,-0.144105,0.000000
0.550000,-2.540387,-1.863909,-1.413929,-0.027062,0.564004,0.053060,0.105549,1.572325,-0.103857,1.479072,-0.509737,-1.716719,1.798896,-5.854731,-2.967788,0.157280,-0.010646,0.000000,-0.077183,-0.145514,0.000000
0.560000,-2.540653,-1.858190,-1.413403,-0.025933,0.579702,0.051935,0.120430,1.566935,-0.121173,1.495747,-0.564843,-1.744637,1.542719,-5.202128,-2.596505,0.156478,-0.012126,0.000000,-0.082810,-0.146645,0.000000
0.570000,-2.540906,-1.852315,-1.412890,-0.024654,0.595343,0.050636,0.135464,1.561028,-0.138750,1.509926,-0.613780,-1.768649,1.303037,-4.642646,-2.171327,0.155624,-0.013615,0.000000,-0.087739,-0.147518,-0.000000
0.580000,-2.541146,-1.846283,-1.412391,-0.023224,0.610922,0.049160,0.150628,1.554660,-0.156546,1.521807,-0.657696,-1.788064,1.078192,-4.156867,-1.705588,0.154723,-0.015112,0.000000,-0.092078,-0.148155,-0.000000
0.590000,-2.541370,-1.840097,-1.411907,-0.021641,0.626436,0.047505,0.165900,1.547874,-0.174511,1.531490,-0.696917,-1.802761,0.858119,-3.661166,-1.256676,0.153782,-0.016614,0.000000,-0.095861,-0.148571,0.000000
0.600000,-2.541578,-1.833755,-1.411440,-0.019906,0.641880,0.045670,0.181258,1.540721,-0.192601,1.538970,-0.730919,-1.813197,0.639798,-3.136207,-0.836844,0.152806,-0.018119,0.000000,-0.099049,-0.148769,0.000000
0.610000,-2.541768,-1.827259,-1.410993,-0.018016,0.657250,0.043653,0.196680,1.533256,-0.210775,1.544286,-0.759641,-1.819497,0.430593,-2.640697,-0.408788,0.151801,-0.019625,0.000000,-0.101642,-0.148756,-0.000000
0.620000,-2.541939,-1.820610,-1.410567,-0.015972,0.672545,0.041455,0.212144,1.525529,-0.228991,1.547581,-0.783733,-1.821373,0.238908,-2.225498,0.052376,0.150773,-0.021129,0.000000,-0.103704,-0.148551,0.000000
0.630000,-2.542088,-1.813808,-1.410164,-0.013773,0.687761,0.039074,0.227631,1.517581,-0.247203,1.549064,-0.804151,-1.818450,0.062968,-1.874147,0.533077,0.149727,-0.022630,0.000000,-0.105328,-0.148180,0.000000
0.640000,-2.542214,-1.806855,-1.409786,-0.011419,0.702896,0.036511,0.243125,1.509446,-0.265360,1.548841,-0.821216,-1.810712,-0.108063,-1.522540,0.999280,0.148667,-0.024126,0.000000,-0.106550,-0.147655,0.000000
0.650000,-2.542316,-1.799750,-1.409434,-0.008911,0.717950,0.033766,0.258608,1.501157,-0.283417,1.546903,-0.834602,-1.798464,-0.277042,-1.156657,1.446509,0.147596,-0.025616,0.000000,-0.107345,-0.146980,0.000000
0.660000,-2.542392,-1.792496,-1.409111,-0.006247,0.732919,0.030842,0.274063,1.492753,-0.301329,1.543300,-0.844349,-1.781782,-0.436355,-0.820310,1.894988,0.146520,-0.027098,0.000000,-0.107725,-0.146163,0.000000
0.670000,-2.542441,-1.785092,-1.408817,-0.003429,0.747805,0.027740,0.289474,1.484270,-0.319053,1.538176,-0.851008,-1.760565,-0.579016,-0.547987,2.349696,0.145442,-0.028571,0.000000,-0.107744,-0.145221,0.000000
0.680000,-2.542461,-1.777539,-1.408556,-0.000458,0.762605,0.024461,0.304827,1.475733,-0.336541,1.531720,-0.855309,-1.734788,-0.707251,-0.326128,2.800891,0.144365,-0.030033,0.000000,-0.107478,-0.144176,0.000000
0.690000,-2.542450,-1.769840,-1.408328,0.002667,0.777319,0.021009,0.320108,1.467164,-0.353748,1.524031,-0.857531,-1.704547,-0.830014,-0.110436,3.240004,0.143292,-0.031485,0.000000,-0.106957,-0.143041,0.000000
0.700000,-2.542408,-1.761993,-1.408136,0.005945,0.791948,0.017386,0.335307,1.458583,-0.370632,1.515119,-0.857518,-1.669988,-0.948947,0.107455,3.670952,0.142226,-0.032924,0.000000,-0.106172,-0.141819,-0.000000
0.710000,-2.542331,-1.754001,-1.407980,0.009373,0.806491,0.013596,0.350411,1.450013,-0.387148,1.505052,-0.855382,-1.631128,-1.058031,0.298480,4.096019,0.141169,-0.034350,0.000000,-0.105137,-0.140519,-0.000000
0.720000,-2.542220,-1.745863,-1.407864,0.012953,0.820948,0.009643,0.365408,1.441475,-0.403254,1.493959,-0.851548,-1.588067,-1.153716,0.444133,4.498749,0.140123,-0.035763,0.000000,-0.103897,-0.139156,0.000000
0.730000,-2.542072,-1.737582,-1.407787,0.016682,0.835321,0.005531,0.380290,1.432982,-0.418909,1.481978,-0.846499,-1.541153,-1.237957,0.554696,4.874271,0.139091,-0.037161,0.000000,-0.102506,-0.137744,-0.000000
0.740000,-2.541887,-1.729157,-1.407753,0.020559,0.849608,0.001265,0.395048,1.424545,-0.434077,1.469200,-0.840454,-1.490582,-1.315314,0.654758,5.242066,0.138073,-0.038544,0.000000,-0.100989,-0.136294,0.000000
0.750000,-2.541661,-1.720590,-1.407762,0.024582,0.863811,-0.003150,0.409674,1.416173,-0.448721,1.455671,-0.833404,-1.436311,-1.387113,0.746816,5.612366,0.137071,-0.039913,0.000000,-0.099346,-0.134811,0.000000
0.760000,-2.541395,-1.711881,-1.407816,0.028752,0.877931,-0.007709,0.424161,1.407877,-0.462803,1.441457,-0.825518,-1.378334,-1.450450,0.815979,5.968563,0.136086,-0.041266,0.000000,-0.097595,-0.133305,0.000000
0.770000,-2.541086,-1.703031,-1.407916,0.033066,0.891969,-0.012406,0.438503,1.399663,-0.476288,1.426662,-0.817084,-1.316940,-1.502068,0.859708,6.280338,0.135119,-0.042604,0.000000,-0.095768,-0.131784,0.000000
0.780000,-2.540734,-1.694041,-1.408064,0.037522,0.905925,-0.017235,0.452694,1.391535,-0.489142,1.411416,-0.808324,-1.252728,-1.542968,0.884781,6.549102,0.134171,-0.043926,0.000000,-0.093896,-0.130260,0.000000
0.790000,-2.540336,-1.684912,-1.408261,0.042120,0.919800,-0.022189,0.466731,1.383496,-0.501342,1.395803,-0.799389,-1.185958,-1.577733,0.895442,6.812454,0.133241,-0.045233,0.000000,-0.091997,-0.128742,0.000000
0.800000,-2.539891,-1.675645,-1.408508,0.046857,0.933595,-0.027262,0.480611,1.375548,-0.512861,1.379861,-0.790415,-1.116479,-1.607392,0.889224,7.083261,0.132330,-0.046524,0.000000,-0.090082,-0.127234,0.000000
0.810000,-2.539399,-1.666241,-1.408806,0.051732,0.947311,-0.032446,0.494329,1.367688,-0.523672,1.363655,-0.781604,-1.044293,-1.629117,0.865360,7.333445,0.131439,-0.047800,0.000000,-0.088171,-0.125744,0.000000
0.820000,-2.538857,-1.656699,-1.409157,0.056743,0.960948,-0.037735,0.507884,1.359915,-0.533747,1.347279,-0.773108,-0.969810,-1.641164,0.833414,7.527936,0.130567,-0.049061,0.000000,-0.086284,-0.124278,0.000000
0.830000,-2.538264,-1.647022,-1.409561,0.061889,0.974509,-0.043121,0.521274,1.352226,-0.543068,1.330832,-0.764936,-0.893734,-1.644742,0.795960,7.672481,0.129713,-0.050307,0.000000,-0.084429,-0.122843,-0.000000
0.840000,-2.537619,-1.637209,-1.410019,0.067169,0.987993,-0.048597,0.534500,1.344617,-0.551622,1.314384,-0.757188,-0.816360,-1.642467,0.741788,7.811354,0.128878,-0.051539,0.000000,-0.082621,-0.121446,0.000000
0.850000,-2.536920,-1.627262,-1.410533,0.072579,1.001401,-0.054154,0.547562,1.337082,-0.559395,1.297983,-0.750100,-0.737507,-1.634382,0.665570,7.958786,0.128061,-0.052757,0.000000,-0.080878,-0.120090,0.000000
0.860000,-2.536167,-1.617181,-1.411102,0.078120,1.014735,-0.059785,0.560460,1.329615,-0.566372,1.281697,-0.743877,-0.657184,-1.619083,0.576848,8.083117,0.127261,-0.053961,0.000000,-0.079220,-0.118782,0.000000
0.870000,-2.535358,-1.606967,-1.411729,0.083789,1.027994,-0.065481,0.573196,1.322205,-0.572539,1.265601,-0.738563,-0.575845,-1.597296,0.491571,8.147115,0.126477,-0.055152,0.000000,-0.077655,-0.117528,0.000000
0.880000,-2.534491,-1.596621,-1.412412,0.089584,1.041179,-0.071235,0.585772,1.314844,-0.577889,1.249751,-0.734046,-0.494242,-1.569814,0.408775,8.158649,0.125708,-0.056330,0.000000,-0.076183,-0.116327,0.000000
0.890000,-2.533566,-1.586143,-1.413153,0.095504,1.054290,-0.077039,0.598191,1.307524,-0.582424,1.234205,-0.730388,-0.412672,-1.536072,0.309025,8.165893,0.124953,-0.057497,0.000000,-0.074811,-0.115185,0.000000
0.900000,-2.532581,-1.575535,-1.413953,0.101548,1.067329,-0.082884,0.610456,1.300236,-0.586142,1.219029,-0.727865,-0.330924,-1.496062,0.186103,8.182126,0.124211,-0.058652,0.000000,-0.073563,-0.114106,0.000000
0.910000,-2.531535,-1.564797,-1.414811,0.107713,1.080295,-0.088762,0.622571,1.292967,-0.589042,1.204283,-0.726666,-0.249029,-1.450507,0.054651,8.174194,0.123481,-0.059797,0.000000,-0.072456,-0.113097,0.000000
0.920000,-2.530427,-1.553929,-1.415728,0.113999,1.093189,-0.094665,0.634542,1.285702,-0.591123,1.190019,-0.726772,-0.167440,-1.399937,-0.067906,8.110154,0.122762,-0.060932,0.000000,-0.071493,-0.112159,0.000000
0.930000,-2.529255,-1.542933,-1.416704,0.120404,1.106009,-0.100584,0.646372,1.278431,-0.592391,1.176285,-0.728024,-0.086826,-1.344395,-0.184698,7.999713,0.122052,-0.062057,0.000000,-0.070667,-0.111293,0.000000
0.940000,-2.528019,-1.531809,-1.417740,0.126927,1.118757,-0.106513,0.658067,1.271142,-0.592860,1.163131,-0.730466,-0.007446,-1.283677,-0.317312,7.884747,0.121349,-0.063174,0.000000,-0.069983,-0.110499,0.000000
0.950000,-2.526717,-1.520558,-1.418835,0.133565,1.131432,-0.112442,0.669634,1.263822,-0.592540,1.150611,-0.734370,0.070869,-1.218015,-0.471073,7.775721,0.120652,-0.064284,0.000000,-0.069465,-0.109785,0.000000
0.960000,-2.525348,-1.509180,-1.419989,0.140319,1.144034,-0.118363,0.681080,1.256455,-0.591442,1.138771,-0.739887,0.148068,-1.147885,-0.630459,7.644903,0.119959,-0.065386,0.000000,-0.069129,-0.109153,0.000000
0.970000,-2.523910,-1.497677,-1.421202,0.147187,1.156561,-0.124270,0.692410,1.249024,-0.589579,1.127653,-0.746979,0.223767,-1.073378,-0.781394,7.468687,0.119269,-0.066482,0.000000,-0.068973,-0.108603,0.000000
0.980000,-2.522404,-1.486049,-1.422474,0.154167,1.169014,-0.130155,0.703633,1.241515,-0.586967,1.117303,-0.755515,0.297442,-0.994558,-0.928046,7.256246,0.118580,-0.067574,0.000000,-0.068991,-0.108137,0.000000
0.990000,-2.520827,-1.474297,-1.423805,0.161260,1.181391,-0.136010,0.714756,1.233914,-0.583630,1.107762,-0.765540,0.368892,-0.911821,-1.087804,7.039457,0.117889,-0.068661,0.000000,-0.069191,-0.107755,0.000000
1.000000,-2.519179,-1.462421,-1.425194,0.168463,1.193692,-0.141828,0.725788,1.226204,-0.579589,1.099067,-0.777271,0.438231,-0.825706,-1.263723,6.825234,0.117196,-0.069744,0.000000,-0.069590,-0.107462,0.000000
1.010000,-2.517458,-1.450423,-1.426641,0.175775,1.205916,-0.147601,0.736737,1.218368,-0.574865,1.091248,-0.790815,0.505396,-0.736258,-1.443667,6.593523,0.116498,-0.070825,0.000000,-0.070200,-0.107258,0.000000
1.020000,-2.515663,-1.438303,-1.428146,0.183197,1.218060,-0.153325,0.747613,1.210388,-0.569481,1.084342,-0.806145,0.570102,-0.642801,-1.619920,6.330977,0.115792,-0.071904,0.000000,-0.071021,-0.107144,-0.000000
1.030000,-2.513794,-1.426062,-1.429708,0.190728,1.230123,-0.158991,0.758424,1.202245,-0.563463,1.078392,-0.823213,0.632016,-0.545396,-1.796203,6.045483,0.115077,-0.072982,0.000000,-0.072053,-0.107122,0.000000
1.040000,-2.511849,-1.413701,-1.431326,0.198366,1.242105,-0.164594,0.769181,1.193924,-0.556841,1.073434,-0.842069,0.691011,-0.445503,-1.981799,5.756107,0.114351,-0.074061,0.000000,-0.073301,-0.107192,0.000000
1.050000,-2.509827,-1.401220,-1.433000,0.206111,1.254002,-0.170128,0.779893,1.185404,-0.549643,1.069482,-0.862849,0.747138,-0.344744,-2.177611,5.465050,0.113611,-0.075140,0.000000,-0.074780,-0.107356,0.000000
1.060000,-2.507727,-1.388621,-1.434729,0.213964,1.265813,-0.175587,0.790570,1.176667,-0.541898,1.066539,-0.885621,0.800312,-0.242404,-2.377363,5.161638,0.112855,-0.076222,0.000000,-0.076496,-0.107612,0.000000
1.070000,-2.505547,-1.375904,-1.436512,0.221923,1.277535,-0.180966,0.801224,1.167692,-0.533637,1.064634,-0.910396,0.850371,-0.134892,-2.578644,4.845230,0.112081,-0.077306,0.000000,-0.078452,-0.107961,0.000000
1.080000,-2.503288,-1.363070,-1.438348,0.229988,1.289166,-0.186260,0.811863,1.158459,-0.524891,1.063841,-0.937194,0.897217,-0.022480,-2.783742,4.521410,0.111286,-0.078395,0.000000,-0.080653,-0.108409,0.000000
1.090000,-2.500948,-1.350120,-1.440237,0.238160,1.300704,-0.191464,0.822500,1.148948,-0.515692,1.064184,-0.966071,0.940799,0.089346,-2.995328,4.192907,0.110468,-0.079488,0.000000,-0.083104,-0.108956,0.000000
1.100000,-2.498525,-1.337056,-1.442177,0.246438,1.312145,-0.196574,0.833147,1.139137,-0.506075,1.065628,-0.997100,0.981075,0.198870,-3.211703,3.858820,0.109624,-0.080587,0.000000,-0.085814,-0.109597,0.000000
1.110000,-2.496019,-1.323877,-1.444168,0.254823,1.323487,-0.201585,0.843813,1.129006,-0.496071,1.068162,-1.030305,1.017975,0.309462,-3.431259,3.519740,0.108752,-0.081693,0.000000,-0.088787,-0.110331,0.000000
1.120000,-2.493428,-1.310586,-1.446209,0.263314,1.334726,-0.206495,0.854510,1.118531,-0.485715,1.071817,-1.065726,1.051470,0.423911,-3.658711,3.181926,0.107848,-0.082807,0.000000,-0.092026,-0.111160,-0.000000
1.130000,-2.490753,-1.297183,-1.448298,0.271913,1.345858,-0.211299,0.865249,1.107691,-0.475041,1.076640,-1.103479,1.081614,0.541008,-3.895257,2.847847,0.106911,-0.083929,0.000000,-0.095543,-0.112086,0.000000
1.140000,-2.487990,-1.283669,-1.450435,0.280619,1.356879,-0.215996,0.876043,1.096462,-0.464083,1.082637,-1.143631,1.108427,0.656487,-4.134096,2.511605,0.105937,-0.085061,0.000000,-0.099346,-0.113110,0.000000
1.150000,-2.485140,-1.270045,-1.452618,0.289434,1.367787,-0.220581,0.886902,1.084819,-0.452873,1.089770,-1.186161,1.131846,0.767883,-4.370933,2.167824,0.104924,-0.086204,0.000000,-0.103433,-0.114227,0.000000
1.160000,-2.482201,-1.256313,-1.454847,0.298357,1.378576,-0.225053,0.897838,1.072738,-0.441446,1.097995,-1.231049,1.151783,0.877664,-4.610593,1.823023,0.103868,-0.087359,0.000000,-0.107804,-0.115431,0.000000
1.170000,-2.479173,-1.242474,-1.457119,0.307391,1.389242,-0.229410,0.908862,1.060198,-0.429837,1.107323,-1.278373,1.168307,0.991345,-4.863589,1.495830,0.102768,-0.088525,0.000000,-0.112465,-0.116722,0.000000
1.180000,-2.476054,-1.228528,-1.459435,0.316535,1.399780,-0.233650,0.919985,1.047171,-0.418080,1.117822,-1.328321,1.181700,1.108071,-5.128871,1.187105,0.101619,-0.089706,0.000000,-0.117435,-0.118109,-0.000000
1.190000,-2.472842,-1.214478,-1.461792,0.325790,1.410185,-0.237772,0.931218,1.033631,-0.406203,1.129484,-1.380950,1.192049,1.219533,-5.392030,0.874038,0.100419,-0.090900,0.000000,-0.122716,-0.119590,0.000000
1.200000,-2.469538,-1.200325,-1.464190,0.335159,1.420452,-0.241774,0.942574,1.019552,-0.394239,1.142213,-1.436162,1.199181,1.322699,-5.648922,0.548479,0.099165,-0.092109,0.000000,-0.128302,-0.121153,0.000000
1.210000,-2.466139,-1.186069,-1.466628,0.344642,1.430576,-0.245656,0.954063,1.004908,-0.382220,1.155938,-1.493929,1.203018,1.422692,-5.909139,0.228074,0.097853,-0.093335,0.000000,-0.134191,-0.122791,0.000000
1.220000,-2.462645,-1.171713,-1.469103,0.354240,1.440550,-0.249418,0.965693,0.989673,-0.370178,1.170666,-1.554345,1.203742,1.525375,-6.181377,-0.064350,0.096481,-0.094577,0.000000,-0.140391,-0.124504,0.000000
1.230000,-2.459054,-1.157258,-1.471616,0.363956,1.450370,-0.253060,0.977476,0.973821,-0.358145,1.186446,-1.617556,1.201731,1.628589,-6.462736,-0.332195,0.095045,-0.095837,0.000000,-0.146911,-0.126299,-0.000000
1.240000,-2.455366,-1.142706,-1.474164,0.373790,1.460027,-0.256581,0.989422,0.957322,-0.346144,1.203238,-1.683599,1.197098,1.723609,-6.741391,-0.603690,0.093542,-0.097115,0.000000,-0.153756,-0.128172,0.000000
1.250000,-2.451579,-1.128058,-1.476748,0.383744,1.469516,-0.259983,1.001541,0.940149,-0.334203,1.220918,-1.752384,1.189657,1.809334,-7.012830,-0.886289,0.091970,-0.098411,0.000000,-0.160916,-0.130109,-0.000000
1.260000,-2.447691,-1.113315,-1.479364,0.393821,1.478830,-0.263265,1.013840,0.922275,-0.322351,1.239425,-1.823856,1.179372,1.890799,-7.284644,-1.159456,0.090324,-0.099728,0.000000,-0.168388,-0.132101,-0.000000
1.270000,-2.443702,-1.098481,-1.482013,0.404021,1.487961,-0.266430,1.026329,0.903672,-0.310615,1.258734,-1.898077,1.166468,1.968138,-7.567349,-1.403238,0.088602,-0.101064,0.000000,-0.176173,-0.134148,0.000000
1.280000,-2.439611,-1.083556,-1.484693,0.414347,1.496903,-0.269478,1.039015,0.884313,-0.299021,1.278788,-1.975203,1.151308,2.038881,-7.858622,-1.622540,0.086801,-0.102421,0.000000,-0.184283,-0.136246,0.000000
1.290000,-2.435415,-1.068543,-1.487402,0.424801,1.505648,-0.272410,1.051905,0.864168,-0.287589,1.299512,-2.055250,1.134017,2.102111,-8.143544,-1.842120,0.084916,-0.103799,0.000000,-0.192719,-0.138387,0.000000
1.300000,-2.431115,-1.053443,-1.490141,0.435385,1.514187,-0.275229,1.065005,0.843208,-0.276341,1.320830,-2.138074,1.114465,2.157707,-8.417005,-2.069671,0.082946,-0.105199,0.000000,-0.201465,-0.140562,0.000000
1.310000,-2.426707,-1.038259,-1.492907,0.446101,1.522512,-0.277937,1.078322,0.821406,-0.265300,1.342666,-2.223590,1.092624,2.205317,-8.688452,-2.287584,0.080887,-0.106620,0.000000,-0.210512,-0.142761,0.000000
1.320000,-2.422193,-1.022993,-1.495700,0.456952,1.530615,-0.280535,1.091859,0.798736,-0.254488,1.364936,-2.311843,1.068714,2.243872,-8.968541,-2.475153,0.078736,-0.108064,0.000000,-0.219861,-0.144977,0.000000
1.330000,-2.417568,-1.007647,-1.498518,0.467939,1.538487,-0.283027,1.105620,0.775170,-0.243926,1.387543,-2.402960,1.043121,2.272584,-9.253850,-2.637024,0.076490,-0.109529,0.000000,-0.229520,-0.147203,0.000000
1.340000,-2.412834,-0.992223,-1.501360,0.479064,1.546118,-0.285414,1.119609,0.750677,-0.233626,1.410388,-2.496920,1.015973,2.291725,-9.529096,-2.799902,0.074145,-0.111016,0.000000,-0.239482,-0.149429,-0.000000
1.350000,-2.407987,-0.976724,-1.504226,0.490331,1.553500,-0.287699,1.133828,0.725231,-0.223606,1.433378,-2.593542,0.987123,2.302030,-9.790707,-2.969268,0.071700,-0.112526,0.000000,-0.249730,-0.151643,0.000000
1.360000,-2.403027,-0.961153,-1.507114,0.501741,1.560623,-0.289886,1.148277,0.698806,-0.213884,1.456428,-2.692734,0.956588,2.302314,-10.047929,-3.126920,0.069151,-0.114057,0.000000,-0.260252,-0.153836,0.000000
1.370000,-2.397952,-0.945512,-1.510024,0.513296,1.567476,-0.291977,1.162957,0.671376,-0.204474,1.479424,-2.794501,0.924585,2.288629,-10.306516,-3.260543,0.066495,-0.115610,0.000000,-0.271042,-0.155996,0.000000
1.380000,-2.392761,-0.929804,-1.512954,0.525000,1.574050,-0.293976,1.177865,0.642916,-0.195392,1.502201,-2.898864,0.891377,2.260310,-10.562611,-3.376027,0.063730,-0.117184,0.000000,-0.282099,-0.158110,0.000000
1.390000,-2.387452,-0.914031,-1.515903,0.536854,1.580335,-0.295885,1.193001,0.613399,-0.186647,1.524630,-3.005753,0.857064,2.221578,-10.807355,-3.489021,0.060853,-0.118778,0.000000,-0.293411,-0.160164,0.000000
1.400000,-2.382024,-0.898197,-1.518871,0.548860,1.586318,-0.297709,1.208358,0.582801,-0.178251,1.546633,-3.115011,0.821597,2.174439,-11.038498,-3.601511,0.057862,-0.120393,0.000000,-0.304960,-0.162147,0.000000
1.410000,-2.376475,-0.882305,-1.521857,0.561021,1.591991,-0.299450,1.223933,0.551099,-0.170215,1.568119,-3.226523,0.785034,2.115079,-11.260658,-3.703390,0.054754,-0.122027,0.000000,-0.316730,-0.164052,0.000000
1.420000,-2.370804,-0.866357,-1.524860,0.573339,1.597340,-0.301113,1.239720,0.518271,-0.162550,1.588934,-3.340225,0.747529,2.036694,-11.476751,-3.790715,0.051527,-0.123679,0.000000,-0.328708,-0.165862,0.000000
1.430000,-2.365008,-0.850358,-1.527880,0.585815,1.602356,-0.302701,1.255712,0.484294,-0.155264,1.608853,-3.456058,0.709220,1.939398,-11.684161,-3.867496,0.048180,-0.125348,0.000000,-0.340885,-0.167556,0.000000
1.440000,-2.359087,-0.834310,-1.530914,0.598453,1.607026,-0.304218,1.271898,0.449149,-0.148366,1.627722,-3.573908,0.670179,1.831317,-11.877343,-3.938830,0.044709,-0.127034,0.000000,-0.353243,-0.169117,0.000000
1.450000,-2.353039,-0.818217,-1.533964,0.611253,1.611339,-0.305668,1.288266,0.412816,-0.141861,1.645479,-3.693605,0.630443,1.715461,-12.055220,-4.003086,0.041115,-0.128734,0.000000,-0.365760,-0.170540,-0.000000
1.460000,-2.346862,-0.802083,-1.537028,0.624218,1.615283,-0.307055,1.304807,0.375277,-0.135757,1.662031,-3.815012,0.590117,1.585487,-12.219999,-4.057618,0.037394,-0.130447,0.000000,-0.378417,-0.171814,0.000000
1.470000,-2.340555,-0.785912,-1.540105,0.637349,1.618845,-0.308383,1.321507,0.336516,-0.130058,1.677189,-3.938005,0.549291,1.432623,-12.371065,-4.108026,0.033547,-0.132173,0.000000,-0.391197,-0.172922,0.000000
1.480000,-2.334115,-0.769706,-1.543195,0.650648,1.622013,-0.309656,1.338351,0.296517,-0.124771,1.690684,-4.062433,0.507957,1.257857,-12.506307,-4.156466,0.029571,-0.133908,0.000000,-0.404077,-0.173834,0.000000
1.490000,-2.327542,-0.753471,-1.546298,0.664116,1.624775,-0.310879,1.355321,0.255267,-0.119899,1.702346,-4.188131,0.466161,1.072062,-12.624780,-4.195521,0.025465,-0.135651,0.000000,-0.417036,-0.174535,-0.000000
1.500000,-2.320833,-0.737211,-1.549413,0.677755,1.627118,-0.312054,1.372398,0.212755,-0.115448,1.712125,-4.314929,0.424046,0.879148,-12.726741,-4.219953,0.021230,-0.137399,0.000000,-0.430050,-0.175020,-0.000000
1.510000,-2.313987,-0.720929,-1.552539,0.691564,1.629030,-0.313188,1.389563,0.168969,-0.111418,1.719929,-4.442666,0.381762,0.671102,-12.811196,-4.235641,0.016864,-0.139152,0.000000,-0.443096,-0.175281,0.000000
1.520000,-2.307002,-0.704630,-1.555677,0.705546,1.630498,-0.314283,1.406796,0.123901,-0.107812,1.725547,-4.571153,0.339333,0.437238,-12.874344,-4.256677,0.012368,-0.140905,0.000000,-0.456150,-0.175297,-0.000000
1.530000,-2.299876,-0.688319,-1.558825,0.719700,1.631508,-0.315344,1.424074,0.077546,-0.104632,1.728674,-4.700153,0.296629,0.179149,-12.914987,-4.282639,0.007742,-0.142658,0.000000,-0.469181,-0.175037,0.000000
1.540000,-2.292608,-0.672000,-1.561984,0.734027,1.632048,-0.316375,1.441370,0.029898,-0.101880,1.729130,-4.829453,0.253681,-0.089440,-12.936314,-4.294820,0.002985,-0.144406,0.000000,-0.482162,-0.174482,0.000000
1.550000,-2.285195,-0.655678,-1.565153,0.748528,1.632106,-0.317382,1.458657,-0.019043,-0.099558,1.726885,-4.958879,0.210732,-0.363536,-12.939616,-4.285363,-0.001901,-0.146147,0.000000,-0.495069,-0.173632,0.000000
1.560000,-2.277637,-0.639358,-1.568331,0.763201,1.631668,-0.318367,1.475908,-0.069279,-0.097665,1.721859,-5.088245,0.167973,-0.652856,-12.921135,-4.267512,-0.006916,-0.147879,0.000000,-0.507877,-0.172484,-0.000000
1.570000,-2.269931,-0.623045,-1.571520,0.778046,1.630720,-0.319335,1.493094,-0.120808,-0.096199,1.713828,-5.217302,0.125382,-0.970238,-12.874685,-4.260900,-0.012058,-0.149597,0.000000,-0.520554,-0.171016,0.000000
1.580000,-2.262076,-0.606744,-1.574718,0.793062,1.629251,-0.320291,1.510184,-0.173625,-0.095158,1.702455,-5.345739,0.082755,-1.313466,-12.799953,-4.262462,-0.017327,-0.151299,0.000000,-0.533065,-0.169190,0.000000
1.590000,-2.254070,-0.590460,-1.577926,0.808249,1.627248,-0.321238,1.527143,-0.227723,-0.094544,1.687559,-5.473301,0.040133,-1.665554,-12.703316,-4.245936,-0.022719,-0.152981,0.000000,-0.545377,-0.166993,0.000000
1.600000,-2.245911,-0.574199,-1.581143,0.823605,1.624697,-0.322181,1.543935,-0.283091,-0.094355,1.669144,-5.599805,-0.002163,-2.020203,-12.586794,-4.202582,-0.028234,-0.154640,0.000000,-0.557466,-0.164429,0.000000
1.610000,-2.237598,-0.557966,-1.584369,0.839128,1.621586,-0.323125,1.560526,-0.339719,-0.094587,1.647155,-5.725037,-0.043919,-2.389052,-12.444597,-4.150210,-0.033868,-0.156271,0.000000,-0.569309,-0.161500,0.000000
1.620000,-2.229129,-0.541767,-1.587605,0.854816,1.617903,-0.324073,1.576878,-0.397592,-0.095233,1.621362,-5.848697,-0.085168,-2.787527,-12.269022,-4.109241,-0.039620,-0.157872,0.000000,-0.580870,-0.158182,0.000000
1.630000,-2.220502,-0.525608,-1.590851,0.870666,1.613634,-0.325030,1.592953,-0.456693,-0.096290,1.591404,-5.970417,-0.126104,-3.212705,-12.060501,-4.074400,-0.045485,-0.159437,0.000000,-0.592108,-0.154441,-0.000000
1.640000,-2.211715,-0.509494,-1.594106,0.886675,1.608769,-0.325999,1.608707,-0.517000,-0.097755,1.557108,-6.089907,-0.166656,-3.643662,-11.827538,-4.018087,-0.051461,-0.160964,0.000000,-0.602991,-0.150263,0.000000
1.650000,-2.202768,-0.493432,-1.597371,0.902840,1.603294,-0.326985,1.624095,-0.578491,-0.099623,1.518531,-6.206968,-0.206465,-4.072497,-11.572560,-3.933076,-0.057545,-0.162447,0.000000,-0.613498,-0.145663,0.000000
1.660000,-2.193659,-0.477428,-1.600646,0.919157,1.597199,-0.327991,1.639077,-0.641140,-0.101885,1.475658,-6.321358,-0.245317,-4.513188,-11.288521,-3.837359,-0.063731,-0.163882,0.000000,-0.623604,-0.140645,0.000000
1.670000,-2.184385,-0.461488,-1.603931,0.935621,1.590471,-0.329023,1.653608,-0.704918,-0.104530,1.428267,-6.432738,-0.283213,-4.984277,-10.967111,-3.746089,-0.070016,-0.165265,0.000000,-0.633276,-0.135192,-0.000000
1.680000,-2.174946,-0.445619,-1.607226,0.952229,1.583101,-0.330082,1.667642,-0.769795,-0.107549,1.375973,-6.540700,-0.320239,-5.481962,-10.609341,-3.652796,-0.076396,-0.166592,0.000000,-0.642473,-0.129268,0.000000
1.690000,-2.165341,-0.429826,-1.610532,0.968974,1.575076,-0.331174,1.681128,-0.835732,-0.110934,1.318628,-6.644925,-0.356269,-5.980651,-10.224698,-3.536652,-0.082865,-0.167858,0.000000,-0.651165,-0.122865,-0.000000
1.700000,-2.155567,-0.414117,-1.613850,0.985851,1.566386,-0.332301,1.694015,-0.902693,-0.114674,1.256360,-6.745194,-0.390972,-6.470482,-9.815681,-3.394653,-0.089419,-0.169058,0.000000,-0.659335,-0.116007,0.000000
1.710000,-2.145623,-0.398499,-1.617178,1.002855,1.557022,-0.333467,1.706255,-0.970636,-0.118754,1.189218,-6.841239,-0.424162,-6.968120,-9.374796,-3.239383,-0.096051,-0.170188,0.000000,-0.666963,-0.108705,0.000000
1.720000,-2.135510,-0.382977,-1.620519,1.019977,1.546973,-0.334676,1.717799,-1.039518,-0.123158,1.116997,-6.932690,-0.455760,-7.495929,-8.893986,-3.074355,-0.102757,-0.171242,0.000000,-0.674017,-0.100946,0.000000
1.730000,-2.125224,-0.367559,-1.623872,1.037211,1.536231,-0.335930,1.728595,-1.109290,-0.127869,1.039300,-7.019119,-0.485649,-8.049048,-8.374613,-2.893508,-0.109531,-0.172217,0.000000,-0.680465,-0.092699,0.000000
1.740000,-2.114765,-0.352252,-1.627237,1.054548,1.524787,-0.337233,1.738585,-1.179900,-0.132870,0.956017,-7.100183,-0.513630,-8.596121,-7.826049,-2.691354,-0.116366,-0.173107,0.000000,-0.686281,-0.083962,0.000000
1.750000,-2.104133,-0.337063,-1.630616,1.071982,1.512633,-0.338588,1.747715,-1.251294,-0.138142,0.867377,-7.175640,-0.539476,-9.125372,-7.250706,-2.471898,-0.123256,-0.173908,0.000000,-0.691455,-0.074766,0.000000
1.760000,-2.093326,-0.322000,-1.634009,1.089503,1.499762,-0.339996,1.755933,-1.323413,-0.143660,0.773509,-7.245197,-0.563068,-9.656835,-6.641400,-2.236749,-0.130195,-0.174614,0.000000,-0.695968,-0.065131,-0.000000
1.770000,-2.082343,-0.307068,-1.637416,1.107101,1.486165,-0.341461,1.763186,-1.396198,-0.149403,0.674240,-7.308468,-0.584211,-10.216453,-5.990669,-1.971584,-0.137175,-0.175222,0.000000,-0.699799,-0.055050,-0.000000
1.780000,-2.071184,-0.292276,-1.640838,1.124767,1.471838,-0.342984,1.769418,-1.469582,-0.155344,0.569180,-7.365010,-0.602499,-10.797991,-5.299909,-1.672538,-0.144191,-0.175726,0.000000,-0.702923,-0.044497,0.000000
1.790000,-2.059848,-0.277631,-1.644276,1.142489,1.456773,-0.344568,1.774569,-1.543498,-0.161453,0.458281,-7.414466,-0.617662,-11.364390,-4.577983,-1.357949,-0.151234,-0.176121,0.000000,-0.705327,-0.033477,0.000000
1.800000,-2.048334,-0.263141,-1.647730,1.160258,1.440968,-0.346213,1.778583,-1.617872,-0.167697,0.341892,-7.456570,-0.629658,-11.901993,-3.827541,-1.040951,-0.158297,-0.176403,0.000000,-0.707001,-0.022029,0.000000
1.810000,-2.036642,-0.248812,-1.651200,1.178061,1.424416,-0.347922,1.781407,-1.692629,-0.174046,0.220241,-7.491017,-0.638481,-12.434105,-3.041922,-0.706831,-0.165373,-0.176567,0.000000,-0.707934,-0.010180,0.000000
1.820000,-2.024773,-0.234653,-1.654688,1.195886,1.407115,-0.349694,1.782988,-1.767692,-0.180467,0.093210,-7.517408,-0.643795,-12.989665,-2.213321,-0.319229,-0.172455,-0.176610,0.000000,-0.708110,0.002073,0.000000
1.830000,-2.012725,-0.220670,-1.658194,1.213721,1.389062,-0.351531,1.783271,-1.842977,-0.186922,-0.039553,-7.535283,-0.644865,-13.560820,-1.342914,0.121455,-0.179535,-0.176525,0.000000,-0.707520,0.014746,0.000000
1.840000,-2.000498,-0.206871,-1.661719,1.231551,1.370255,-0.353433,1.782197,-1.918398,-0.193364,-0.178006,-7.544266,-0.641366,-14.105667,-0.440395,0.566980,-0.186606,-0.176310,0.000000,-0.706157,0.027827,-0.000000
1.850000,-1.988094,-0.193265,-1.665263,1.249365,1.350694,-0.355398,1.779711,-1.993863,-0.199749,-0.321666,-7.544091,-0.633526,-14.609585,0.490032,0.993947,-0.193659,-0.175959,0.000000,-0.704014,0.041272,-0.000000
1.860000,-1.975511,-0.179857,-1.668827,1.267146,1.330378,-0.357428,1.775764,-2.069280,-0.206035,-0.470198,-7.534466,-0.621487,-15.098307,1.455497,1.436900,-0.200686,-0.175469,0.000000,-0.701082,0.055052,0.000000
1.870000,-1.962751,-0.166657,-1.672411,1.284880,1.309309,-0.359519,1.770307,-2.144552,-0.212179,-0.623632,-7.514981,-0.604788,-15.601312,2.467642,1.955740,-0.207680,-0.174835,0.000000,-0.697355,0.069160,-0.000000
1.880000,-1.949813,-0.153671,-1.676017,1.302552,1.287487,-0.361671,1.763291,-2.219579,-0.218131,-0.782224,-7.485113,-0.582372,-16.109102,3.525599,2.544073,-0.214633,-0.174055,0.000000,-0.692831,0.083605,-0.000000
1.890000,-1.936700,-0.140907,-1.679645,1.320146,1.264917,-0.363882,1.754663,-2.294254,-0.223827,-0.945814,-7.444469,-0.553906,-16.578148,4.613963,3.121154,-0.221537,-0.173124,0.000000,-0.687507,0.098368,0.000000
1.900000,-1.923411,-0.128373,-1.683295,1.337645,1.241602,-0.366148,1.744375,-2.368469,-0.229209,-1.113787,-7.392834,-0.519949,-16.994781,5.724067,3.653887,-0.228384,-0.172039,0.000000,-0.681376,0.113405,0.000000
1.910000,-1.909947,-0.116075,-1.686968,1.355033,1.217548,-0.368466,1.732387,-2.442111,-0.234225,-1.285710,-7.329988,-0.480828,-17.384868,6.866912,4.197702,-0.235165,-0.170796,0.000000,-0.674434,0.128683,0.000000
1.920000,-1.896310,-0.104022,-1.690664,1.372293,1.192760,-0.370832,1.718661,-2.515068,-0.238825,-1.461485,-7.255495,-0.435995,-17.773233,8.065224,4.832759,-0.241873,-0.169392,0.000000,-0.666677,0.144192,0.000000
1.930000,-1.882501,-0.092220,-1.694384,1.389406,1.167246,-0.373242,1.703157,-2.587221,-0.242945,-1.641174,-7.168683,-0.384173,-18.148950,9.317627,5.545127,-0.248499,-0.167825,0.000000,-0.658098,0.159924,-0.000000
1.940000,-1.868522,-0.080677,-1.698129,1.406356,1.141015,-0.375691,1.685837,-2.658442,-0.246509,-1.824464,-7.069143,-0.325093,-18.473979,10.593026,6.225524,-0.255035,-0.166092,0.000000,-0.648691,0.175855,0.000000
1.950000,-1.854374,-0.069400,-1.701898,1.423123,1.114077,-0.378172,1.666668,-2.728604,-0.249447,-2.010654,-6.956823,-0.259663,-18.738881,11.875670,6.835028,-0.261473,-0.164190,0.000000,-0.638453,0.191946,0.000000
1.960000,-1.840059,-0.058396,-1.705692,1.439689,1.086443,-0.380680,1.645624,-2.797578,-0.251702,-2.199241,-6.831630,-0.188392,-18.964700,13.187037,7.446318,-0.267805,-0.162118,0.000000,-0.627383,0.208169,-0.000000
1.970000,-1.825580,-0.047671,-1.709512,1.456036,1.058126,-0.383207,1.622683,-2.865236,-0.253215,-2.389948,-6.693082,-0.110736,-19.163512,14.566044,8.148587,-0.274022,-0.159873,0.000000,-0.615469,0.224504,0.000000
1.980000,-1.810939,-0.037233,-1.713357,1.472143,1.029139,-0.385744,1.597825,-2.931440,-0.253917,-2.582511,-6.540309,-0.025420,-19.321011,16.006157,8.920666,-0.280115,-0.157454,0.000000,-0.602684,0.240922,0.000000
1.990000,-1.796137,-0.027088,-1.717227,1.487992,0.999497,-0.388285,1.571033,-2.996042,-0.253723,-2.776368,-6.372959,0.067677,-19.416520,17.454294,9.639244,-0.286076,-0.154859,0.000000,-0.589018,0.257387,0.000000
2.000000,-1.781179,-0.017243,-1.721122,1.503564,0.969218,-0.390819,1.542298,-3.058899,-0.252563,-2.970842,-6.191223,0.167365,-19.471945,18.903726,10.262205,-0.291896,-0.152087,0.000000,-0.574471,0.273873,-0.000000
2.010000,-1.766066,-0.007704,-1.725043,1.518838,0.938319,-0.393336,1.511616,-3.119867,-0.250376,-3.165807,-5.994884,0.272921,-19.493834,20.388918,10.869234,-0.297566,-0.149139,0.000000,-0.559017,0.290398,0.000000
2.020000,-1.750802,0.001523,-1.728989,1.533796,0.906820,-0.395826,1.478982,-3.178797,-0.247105,-3.360718,-5.783444,0.384749,-19.406622,21.918043,11.552807,-0.303078,-0.146012,0.000000,-0.542630,0.306926,0.000000
2.030000,-1.735390,0.010433,-1.732960,1.548418,0.874743,-0.398278,1.444402,-3.235536,-0.242681,-3.553939,-5.556523,0.503977,-19.205036,23.490188,12.285436,-0.308420,-0.142707,0.000000,-0.525309,0.323312,0.000000
2.040000,-1.719834,0.019018,-1.736955,1.562684,0.842110,-0.400680,1.407903,-3.289927,-0.237025,-3.744819,-5.313641,0.630458,-18.986575,25.091634,12.936976,-0.313585,-0.139225,0.000000,-0.507011,0.339521,0.000000
2.050000,-1.704136,0.027275,-1.740973,1.576576,0.808945,-0.403019,1.369505,-3.341809,-0.230072,-3.933671,-5.054691,0.762717,-18.733060,26.632038,13.478628,-0.318561,-0.135567,0.000000,-0.487689,0.355627,0.000000
2.060000,-1.688302,0.035197,-1.745015,1.590074,0.775274,-0.405281,1.329229,-3.391021,-0.221771,-4.119480,-4.781000,0.900031,-18.376276,28.125184,13.990969,-0.323339,-0.131735,0.000000,-0.467432,0.371568,-0.000000
2.070000,-1.672335,0.042780,-1.749079,1.603160,0.741124,-0.407454,1.287116,-3.437429,-0.212071,-4.301197,-4.492187,1.042536,-17.982938,29.829270,14.522168,-0.327910,-0.127729,0.000000,-0.446199,0.387270,0.000000
2.080000,-1.656239,0.050020,-1.753164,1.615816,0.706525,-0.409523,1.243205,-3.480865,-0.200920,-4.479139,-4.184414,1.190474,-17.572129,31.753163,15.038050,-0.332264,-0.123552,0.000000,-0.423649,0.402782,0.000000
2.090000,-1.640019,0.056911,-1.757269,1.628024,0.671507,-0.411473,1.197533,-3.521117,-0.188262,-4.652639,-3.857124,1.343297,-17.041075,33.534245,15.467371,-0.336384,-0.119206,0.000000,-0.399699,0.418076,0.000000
2.100000,-1.623678,0.063450,-1.761393,1.639767,0.636103,-0.413288,1.150153,-3.558007,-0.174054,-4.819961,-3.513730,1.499821,-16.404722,35.081305,15.808081,-0.340258,-0.114693,0.000000,-0.374590,0.433028,-0.000000
2.110000,-1.607223,0.069633,-1.765535,1.651028,0.600347,-0.414954,1.101134,-3.591392,-0.158266,-4.980734,-3.155498,1.659459,-15.726587,36.637110,16.097331,-0.343876,-0.110018,0.000000,-0.348387,0.447631,0.000000
2.120000,-1.590658,0.075457,-1.769693,1.661790,0.564275,-0.416453,1.050538,-3.621117,-0.140865,-5.134492,-2.780987,1.821768,-14.920121,38.369452,16.315531,-0.347227,-0.105183,0.000000,-0.320918,0.461868,0.000000
2.130000,-1.573987,0.080918,-1.773864,1.672038,0.527924,-0.417771,0.998444,-3.647011,-0.121830,-5.279136,-2.388109,1.985769,-13.939453,40.186575,16.436729,-0.350295,-0.100193,0.000000,-0.291923,0.475572,0.000000
2.140000,-1.557217,0.086015,-1.778048,1.681759,0.491335,-0.418890,0.944955,-3.668879,-0.101150,-5.413281,-1.977256,2.150503,-12.908307,41.866787,16.479063,-0.353065,-0.095055,0.000000,-0.261360,0.488638,0.000000
2.150000,-1.540352,0.090745,-1.782242,1.690937,0.454547,-0.419794,0.890178,-3.686556,-0.078820,-5.537302,-1.550773,2.315351,-11.963528,43.431253,16.474292,-0.355522,-0.089777,0.000000,-0.229370,0.501119,0.000000
2.160000,-1.523398,0.095106,-1.786444,1.699562,0.417603,-0.420466,0.834209,-3.699895,-0.054843,-5.652552,-1.108631,2.479988,-11.007331,45.011969,16.397230,-0.357652,-0.084363,0.000000,-0.195889,0.513158,0.000000
2.170000,-1.506361,0.099097,-1.790651,1.707622,0.380549,-0.420891,0.777127,-3.708729,-0.029220,-5.757449,-0.650533,2.643295,-9.674825,46.506413,16.144519,-0.359439,-0.078819,0.000000,-0.160789,0.524623,0.000000
2.180000,-1.489246,0.102717,-1.794862,1.715105,0.343429,-0.421051,0.719060,-3.712906,-0.001977,-5.846048,-0.178503,2.802879,-7.982677,47.862452,15.703682,-0.360867,-0.073153,0.000000,-0.124090,0.534973,0.000000
2.190000,-1.472059,0.105966,-1.799072,1.722003,0.306291,-0.420930,0.660206,-3.712299,0.026837,-5.917102,0.306716,2.957369,-6.426437,49.214304,15.205680,-0.361920,-0.067382,0.000000,-0.085741,0.544088,-0.000000
2.200000,-1.454806,0.108843,-1.803280,1.728309,0.269183,-0.420514,0.600718,-3.706771,0.057171,-5.974577,0.805784,3.106992,-5.080908,50.519016,14.735252,-0.362581,-0.061517,0.000000,-0.045625,0.552329,-0.000000
2.210000,-1.437493,0.111349,-1.807483,1.734017,0.232155,-0.419787,0.540715,-3.696183,0.088977,-6.018720,1.317096,3.252074,-3.613113,51.676213,14.190157,-0.362831,-0.055566,0.000000,-0.003816,0.559707,0.000000
2.220000,-1.420125,0.113486,-1.811676,1.739123,0.195259,-0.418734,0.480344,-3.680429,0.122212,-6.046839,1.839308,3.390796,-1.914920,52.833154,13.334953,-0.362656,-0.049542,0.000000,0.039713,0.565957,0.000000
2.230000,-1.402710,0.115254,-1.815857,1.743624,0.158547,-0.417343,0.419778,-3.659397,0.156793,-6.057019,2.373759,3.518773,-0.115997,54.019284,12.172175,-0.362035,-0.043458,0.000000,0.085326,0.570885,-0.000000
2.240000,-1.385253,0.116657,-1.820023,1.747519,0.122071,-0.415599,0.359203,-3.632954,0.192588,-6.049159,2.919693,3.634239,1.657998,55.005435,11.015634,-0.360947,-0.037332,0.000000,0.133105,0.574445,0.000000
2.250000,-1.367760,0.117696,-1.824169,1.750808,0.085888,-0.413491,0.298795,-3.601003,0.229478,-6.023859,3.473868,3.739086,3.489990,55.768881,10.039352,-0.359371,-0.031178,0.000000,0.182783,0.576639,0.000000
2.260000,-1.350237,0.118375,-1.828293,1.753495,0.050051,-0.411009,0.238726,-3.563477,0.267369,-5.979360,4.035071,3.835026,5.445502,56.451260,9.017836,-0.357288,-0.025012,0.000000,0.234283,0.577244,-0.000000
2.270000,-1.332690,0.118697,-1.832389,1.755583,0.014618,-0.408144,0.179208,-3.520302,0.306178,-5.914949,4.602893,3.919442,7.291369,57.020940,7.501258,-0.354682,-0.018854,0.000000,0.287746,0.576140,0.000000
2.280000,-1.315125,0.118667,-1.836456,1.757079,-0.020355,-0.404885,0.120427,-3.471419,0.345758,-5.833532,5.175490,3.985051,9.103543,57.382814,5.552913,-0.351530,-0.012724,0.000000,0.343336,0.573560,0.000000
2.290000,-1.297548,0.118290,-1.840487,1.757991,-0.054810,-0.401228,0.062537,-3.416792,0.385879,-5.732878,5.750549,4.030501,11.168743,57.581951,3.776824,-0.347811,-0.006636,0.000000,0.400966,0.569201,0.000000
2.300000,-1.279965,0.117571,-1.844480,1.758330,-0.088691,-0.397168,0.005770,-3.356408,0.426368,-5.610157,6.327129,4.060588,12.680122,57.861446,2.231391,-0.343507,-0.000615,0.000000,0.460449,0.562688,0.000000
2.310000,-1.262382,0.116516,-1.848430,1.758107,-0.121938,-0.392701,-0.049666,-3.290250,0.467091,-5.479275,6.907778,4.075128,13.500214,58.155789,0.517305,-0.338598,0.005316,0.000000,0.522100,0.555336,0.000000
2.320000,-1.244803,0.115132,-1.852334,1.757336,-0.154496,-0.387826,-0.103816,-3.218252,0.507871,-5.340153,7.490245,4.070934,15.997572,57.771472,-1.413525,-0.333060,0.011160,0.000000,0.585886,0.547078,0.000000
2.330000,-1.227235,0.113426,-1.856187,1.756030,-0.186303,-0.382544,-0.156469,-3.140445,0.548510,-5.159324,8.063208,4.046858,20.015315,56.826832,-3.438645,-0.326876,0.016893,0.000000,0.650776,0.534415,-0.000000
2.340000,-1.209683,0.111406,-1.859985,1.754207,-0.217305,-0.376856,-0.207002,-3.056988,0.588808,-4.939847,8.626781,4.002161,22.312674,56.226505,-5.506436,-0.320040,0.022445,0.000000,0.716774,0.517492,0.000000
2.350000,-1.192151,0.109080,-1.863724,1.751890,-0.247443,-0.370767,-0.255266,-2.967909,0.628553,-4.713071,9.187738,3.936729,24.566895,55.111072,-7.445915,-0.312536,0.027795,0.000000,0.784552,0.499416,0.000000
2.360000,-1.174645,0.106457,-1.867400,1.749101,-0.276663,-0.364285,-0.301264,-2.873234,0.667542,-4.448509,9.729003,3.853243,28.774108,52.937979,-9.288020,-0.304345,0.032940,0.000000,0.852282,0.476948,-0.000000
2.370000,-1.157169,0.103547,-1.871010,1.745865,-0.304908,-0.357417,-0.344236,-2.773329,0.705618,-4.137588,10.246497,3.750969,29.271162,52.357998,-11.543212,-0.295486,0.037792,0.000000,0.919441,0.449026,0.000000
2.380000,-1.139728,0.100359,-1.874549,1.742217,-0.332129,-0.350172,-0.384015,-2.668304,0.742562,-3.863086,10.776163,3.622378,25.443960,53.390849,-14.217287,-0.285952,0.042326,0.000000,0.989867,0.424210,0.000000
2.390000,-1.122325,0.096904,-1.878013,1.738185,-0.358274,-0.342565,-0.421498,-2.557806,0.778065,-3.628709,11.314314,3.466623,25.184324,52.370063,-16.582254,-0.275685,0.046634,0.000000,1.063206,0.402951,0.000000
2.400000,-1.104964,0.093193,-1.881400,1.733787,-0.383285,-0.334611,-0.456590,-2.442017,0.811894,-3.359399,11.823564,3.290733,27.083458,50.762507,-18.479294,-0.264684,0.050699,0.000000,1.135174,0.377283,-0.000000
2.410000,-1.087649,0.089238,-1.884705,1.729053,-0.407114,-0.326327,-0.488686,-2.321334,0.843880,-3.087040,12.329564,3.097037,25.978538,50.871913,-20.384576,-0.252978,0.054450,0.000000,1.208154,0.350528,0.000000
2.420000,-1.070383,0.085051,-1.887927,1.724013,-0.429712,-0.317734,-0.518330,-2.195426,0.873835,-2.839828,12.841002,2.883042,28.063090,47.476210,-22.546630,-0.240519,0.057939,0.000000,1.283020,0.325722,0.000000
2.430000,-1.053169,0.080644,-1.891060,1.718686,-0.451023,-0.308851,-0.545483,-2.064514,0.901541,-2.525778,13.279089,2.646105,35.339501,39.573093,-24.774504,-0.227316,0.061156,0.000000,1.351087,0.292854,0.000000
2.440000,-1.036009,0.076031,-1.894104,1.713103,-0.471002,-0.299703,-0.568846,-1.929844,0.926757,-2.133038,13.632464,2.387552,38.836166,34.548049,-26.733103,-0.213497,0.063949,0.000000,1.410482,0.250461,0.000000
2.450000,-1.018907,0.071224,-1.897054,1.707309,-0.489620,-0.290316,-0.588143,-1.791865,0.949292,-1.749055,13.970050,2.111443,37.862515,33.116952,-28.478443,-0.199108,0.066279,0.000000,1.468150,0.208082,0.000000
2.460000,-1.001863,0.066238,-1.899910,1.701341,-0.506840,-0.280717,-0.603827,-1.650443,0.968986,-1.375788,14.294803,1.817983,38.500650,30.283810,-30.193186,-0.184137,0.068192,0.000000,1.524098,0.166016,-0.000000
2.470000,-0.984880,0.061087,-1.902669,1.695233,-0.522629,-0.270936,-0.615659,-1.505969,0.985652,-0.979042,14.575726,1.507579,39.907387,26.052234,-31.637501,-0.168630,0.069655,0.000000,1.574489,0.120538,-0.000000
2.480000,-0.967958,0.055786,-1.905329,1.689027,-0.536959,-0.261004,-0.623408,-1.358929,0.999138,-0.577640,14.815848,1.185233,39.559939,22.413117,-32.675435,-0.152652,0.070637,0.000000,1.619143,0.073835,-0.000000
2.490000,-0.951099,0.050348,-1.907889,1.682765,-0.549807,-0.250953,-0.627212,-1.209652,1.009356,-0.187843,15.023988,0.854070,39.171216,18.942353,-33.621307,-0.136253,0.071149,0.000000,1.658620,0.027857,-0.000000
2.500000,-0.934303,0.044790,-1.910348,1.676483,-0.561152,-0.240817,-0.627165,-1.058449,1.016219,0.205784,15.194695,0.512807,41.390143,14.027439,-34.781972,-0.119487,0.071199,0.000000,1.691960,-0.019008,-0.000000
2.510000,-0.917570,0.039125,-1.912705,1.670221,-0.570976,-0.230629,-0.623096,-0.905758,1.019612,0.639960,15.304537,0.158431,44.741070,8.197687,-35.890423,-0.102422,0.070765,0.000000,1.716195,-0.070794,-0.000000
2.520000,-0.900899,0.033370,-1.914960,1.664021,-0.579267,-0.220424,-0.614366,-0.752358,1.019388,1.100605,15.358649,-0.205002,42.710815,5.447242,-36.094906,-0.085172,0.069775,0.000000,1.731529,-0.125758,0.000000
2.530000,-0.884289,0.027540,-1.917113,1.657934,-0.586023,-0.210241,-0.601084,-0.598585,1.015512,1.494176,15.413482,-0.563467,35.865063,5.605151,-35.402811,-0.067801,0.068242,0.000000,1.744054,-0.173069,0.000000
2.540000,-0.867740,0.021650,-1.919165,1.651999,-0.591239,-0.200114,-0.584482,-0.444089,1.008118,1.817907,15.470752,-0.913058,32.966735,3.308102,-34.945904,-0.050300,0.066307,0.000000,1.753869,-0.212219,0.000000
2.550000,-0.851249,0.015715,-1.921116,1.646244,-0.594905,-0.190079,-0.564726,-0.289170,0.997251,2.153511,15.479644,-1.262386,32.675240,-0.746956,-35.092775,-0.032734,0.063993,0.000000,1.755189,-0.252370,0.000000
2.560000,-0.834815,0.009752,-1.922967,1.640705,-0.597022,-0.180169,-0.541412,-0.134496,0.982870,2.471411,15.455813,-1.614913,29.295196,-3.022893,-35.046159,-0.015207,0.061258,0.000000,1.749767,-0.290075,-0.000000
2.570000,-0.818435,0.003775,-1.924719,1.635416,-0.597595,-0.170421,-0.515298,0.019946,0.964953,2.739415,15.419186,-1.963309,28.580856,-6.660513,-33.938299,0.002251,0.058193,0.000000,1.739839,-0.321551,0.000000
2.580000,-0.802107,-0.002200,-1.926375,1.630399,-0.596623,-0.160870,-0.486624,0.173888,0.943604,3.043029,15.322602,-2.293679,32.651918,-12.937077,-32.020644,0.019580,0.054829,0.000000,1.720226,-0.356266,0.000000
2.590000,-0.785827,-0.008158,-1.927936,1.625684,-0.594117,-0.151549,-0.454437,0.326398,0.919079,3.392453,15.160444,-2.603722,33.161184,-17.217896,-30.417471,0.036647,0.051068,0.000000,1.690669,-0.395233,-0.000000
2.600000,-0.769593,-0.014083,-1.929406,1.621310,-0.590095,-0.142489,-0.418774,0.477097,0.891530,3.706252,14.978244,-2.902029,30.031908,-19.466781,-29.174377,0.053386,0.046921,0.000000,1.656575,-0.429289,-0.000000
2.610000,-0.753401,-0.019960,-1.930786,1.617308,-0.584575,-0.133719,-0.380312,0.625963,0.861039,3.993091,14.771109,-3.187209,28.926783,-22.799756,-27.552734,0.069772,0.042472,0.000000,1.617683,-0.459391,0.000000
2.620000,-0.737247,-0.025774,-1.932080,1.613704,-0.577576,-0.125268,-0.338913,0.772519,0.827786,4.284788,14.522249,-3.453084,27.406084,-25.727934,-25.586434,0.085734,0.037714,0.000000,1.572565,-0.489034,0.000000
2.630000,-0.721127,-0.031511,-1.933292,1.610530,-0.569125,-0.117163,-0.294617,0.916408,0.791977,4.541213,14.256550,-3.698938,23.417525,-27.070690,-23.528528,0.101218,0.032658,0.000000,1.524382,-0.513777,0.000000
2.640000,-0.705036,-0.037157,-1.934424,1.607812,-0.559248,-0.109428,-0.248088,1.057650,0.753807,4.753138,13.980835,-3.923654,20.824815,-29.123532,-21.292574,0.116218,0.027387,0.000000,1.474251,-0.532698,-0.000000
2.650000,-0.688970,-0.042696,-1.935480,1.605568,-0.547972,-0.102087,-0.199554,1.196025,0.713504,4.957709,13.674079,-4.124789,20.002402,-32.265571,-18.986389,0.130701,0.021934,0.000000,1.420315,-0.549963,-0.000000
2.660000,-0.672925,-0.048116,-1.936465,1.603821,-0.535328,-0.095158,-0.148934,1.331132,0.671311,5.153186,13.335524,-4.303382,18.285999,-34.875550,-16.684804,0.144623,0.016296,0.000000,1.362911,-0.565444,-0.000000
2.670000,-0.656894,-0.053403,-1.937383,1.602589,-0.521349,-0.088660,-0.096490,1.462735,0.627436,5.323429,12.976568,-4.458485,16.274663,-36.765897,-13.992023,0.157959,0.010508,0.000000,1.303660,-0.577490,0.000000
2.680000,-0.640873,-0.058543,-1.938239,1.601891,-0.506073,-0.082609,-0.042466,1.590663,0.582141,5.478680,12.600206,-4.583222,14.947333,-38.481469,-10.879309,0.170697,0.004602,0.000000,1.243354,-0.587322,0.000000
2.690000,-0.624856,-0.063524,-1.939036,1.601740,-0.489536,-0.077018,0.013084,1.714739,0.535772,5.622376,12.206939,-4.676072,13.254376,-40.117217,-7.929266,0.182828,-0.001411,0.000000,1.182418,-0.595432,0.000000
2.700000,-0.608838,-0.068334,-1.939779,1.602152,-0.471778,-0.071894,0.069982,1.834802,0.488620,5.743767,11.797862,-4.741808,10.947888,-41.671456,-5.238981,0.194348,-0.007508,0.000000,1.121170,-0.600811,0.000000
2.710000,-0.592813,-0.072960,-1.940473,1.603140,-0.452840,-0.067245,0.127959,1.950697,0.440936,5.841334,11.373510,-4.780851,8.791105,-43.087033,-2.435869,0.205255,-0.013657,0.000000,1.059905,-0.603448,0.000000
2.720000,-0.576775,-0.077391,-1.941124,1.604712,-0.432764,-0.063075,0.186809,2.062272,0.393003,5.919589,10.936121,-4.790525,6.918875,-44.142892,0.564170,0.215550,-0.019835,0.000000,0.999123,-0.603965,0.000000
2.730000,-0.560719,-0.081615,-1.941735,1.606876,-0.411595,-0.059385,0.246351,2.169419,0.345125,5.979711,10.490652,-4.769568,5.057246,-44.781011,3.601430,0.225242,-0.026022,0.000000,0.939526,-0.602628,0.000000
2.740000,-0.544638,-0.085623,-1.942312,1.609639,-0.389376,-0.056173,0.306403,2.272085,0.297612,6.020734,10.040501,-4.718496,3.109822,-45.312027,6.557660,0.234345,-0.032200,0.000000,0.881569,-0.599473,-0.000000
2.750000,-0.528526,-0.089403,-1.942858,1.613004,-0.366153,-0.053433,0.366765,2.370229,0.250755,6.041907,9.584411,-4.638415,1.234466,-46.235652,9.495971,0.242878,-0.038349,0.000000,0.825190,-0.594552,0.000000
2.760000,-0.512378,-0.092946,-1.943380,1.616974,-0.341971,-0.051158,0.427241,2.463773,0.204843,6.045424,9.115788,-4.528577,-0.514740,-47.303438,12.455809,0.250854,-0.044451,0.000000,0.769826,-0.588215,0.000000
2.770000,-0.496187,-0.096242,-1.943882,1.621549,-0.316877,-0.049336,0.487674,2.552545,0.160184,6.031613,8.638343,-4.389298,-2.488345,-47.136526,15.216584,0.258280,-0.050494,0.000000,0.715896,-0.580609,0.000000
2.780000,-0.479947,-0.099283,-1.944367,1.626727,-0.290920,-0.047954,0.547873,2.636540,0.117057,5.995657,8.173057,-4.224245,-4.683760,-45.812679,17.720403,0.265177,-0.056463,0.000000,0.665342,-0.571341,0.000000
2.790000,-0.463652,-0.102060,-1.944841,1.632506,-0.264147,-0.046995,0.607587,2.716006,0.075699,5.937937,7.722089,-4.034890,-6.605540,-45.217202,20.238851,0.271591,-0.062336,0.000000,0.618261,-0.560534,-0.000000
2.800000,-0.447297,-0.104566,-1.945307,1.638879,-0.236600,-0.046440,0.666632,2.790982,0.036360,5.863546,7.268713,-3.819468,-8.387231,-45.282965,22.884118,0.277547,-0.068102,0.000000,0.573044,-0.548788,0.000000
2.810000,-0.430875,-0.106792,-1.945769,1.645839,-0.208327,-0.046268,0.724858,2.861380,-0.000690,5.770193,6.816430,-3.577208,-10.336957,-44.779634,25.436759,0.283057,-0.073750,0.000000,0.530014,-0.535955,0.000000
2.820000,-0.414380,-0.108733,-1.946232,1.653376,-0.179373,-0.046454,0.782036,2.927310,-0.035185,5.656807,6.373121,-3.310733,-11.921438,-44.347064,27.582813,0.288151,-0.079267,0.000000,0.489781,-0.521983,0.000000
2.830000,-0.397807,-0.110380,-1.946698,1.661480,-0.149781,-0.046971,0.837994,2.988843,-0.066905,5.531764,5.929489,-3.025552,-12.989216,-44.498571,29.355821,0.292856,-0.084641,0.000000,0.451234,-0.507687,0.000000
2.840000,-0.381150,-0.111728,-1.947172,1.670136,-0.119596,-0.047792,0.892671,3.045900,-0.095696,5.397022,5.483149,-2.723617,-14.292233,-44.269102,31.140673,0.297180,-0.089874,0.000000,0.414028,-0.493260,0.000000
2.850000,-0.364404,-0.112772,-1.947654,1.679333,-0.088863,-0.048885,0.945934,3.098506,-0.121377,5.245919,5.044106,-2.402738,-16.019475,-43.258927,33.052681,0.301140,-0.094961,0.000000,0.379088,-0.478103,0.000000
2.860000,-0.347564,-0.113506,-1.948149,1.689055,-0.057626,-0.050219,0.997589,3.146782,-0.143750,5.076633,4.617971,-2.062563,-17.642491,-42.182718,34.806181,0.304765,-0.099889,0.000000,0.346855,-0.462067,0.000000
2.870000,-0.330623,-0.113924,-1.948659,1.699285,-0.025927,-0.051760,1.047467,3.190865,-0.162629,4.893070,4.200452,-1.706615,-18.817160,-41.852120,36.083370,0.308080,-0.104650,0.000000,0.316740,-0.445506,-0.000000
2.880000,-0.313578,-0.114024,-1.949184,1.710004,0.006192,-0.053472,1.095451,3.230791,-0.177883,4.700290,3.780928,-1.340896,-19.736272,-42.026232,36.946977,0.311102,-0.109241,0.000000,0.287515,-0.428833,-0.000000
2.890000,-0.296423,-0.113801,-1.949728,1.721194,0.038689,-0.055318,1.141473,3.266484,-0.189447,4.498344,3.359927,-0.967675,-20.820218,-41.678100,37.792105,0.313833,-0.113662,0.000000,0.259094,-0.412011,0.000000
2.900000,-0.279154,-0.113250,-1.950291,1.732834,0.071521,-0.057261,1.185418,3.297990,-0.197236,4.283885,2.947366,-0.585054,-21.936224,-40.969506,38.735848,0.316286,-0.117907,0.000000,0.232357,-0.394724,0.000000
2.910000,-0.261766,-0.112370,-1.950873,1.744902,0.104649,-0.059263,1.227151,3.325431,-0.201148,4.059620,2.540537,-0.192958,-22.821512,-40.575024,39.494864,0.318482,-0.121970,0.000000,0.206979,-0.377206,0.000000
2.920000,-0.244256,-0.111157,-1.951476,1.757377,0.138030,-0.061284,1.266610,3.348801,-0.201095,3.827455,2.135866,0.204844,-23.887474,-39.907860,39.756756,0.320427,-0.125852,0.000000,0.182452,-0.359563,0.000000
2.930000,-0.226619,-0.109610,-1.952099,1.770234,0.171625,-0.063285,1.303700,3.368148,-0.197051,3.581870,1.742380,0.602177,-25.233091,-38.740143,39.590075,0.322132,-0.129548,0.000000,0.159351,-0.341169,0.000000
2.940000,-0.208851,-0.107725,-1.952742,1.783451,0.205393,-0.065225,1.338248,3.383648,-0.189052,3.322793,1.361063,0.996645,-26.273415,-37.941763,39.394020,0.323615,-0.133047,0.000000,0.137622,-0.321942,0.000000
2.950000,-0.190950,-0.105502,-1.953404,1.796999,0.239298,-0.067066,1.370156,3.395369,-0.177118,3.056402,0.983545,1.390057,-27.014576,-37.437680,39.290420,0.324885,-0.136341,0.000000,0.116486,-0.302429,0.000000
2.960000,-0.172911,-0.102939,-1.954083,1.810854,0.273300,-0.068767,1.399376,3.403319,-0.161251,2.782502,0.612309,1.782454,-27.849762,-36.653743,39.001497,0.325945,-0.139430,0.000000,0.096105,-0.282561,0.000000
2.970000,-0.154733,-0.100036,-1.954779,1.824987,0.307364,-0.070291,1.425806,3.407616,-0.141469,2.499407,0.250470,2.170087,-28.591029,-36.115907,38.219953,0.326808,-0.142307,0.000000,0.076592,-0.262076,0.000000
2.980000,-0.136412,-0.096792,-1.955489,1.839370,0.341453,-0.071597,1.449364,3.408329,-0.117849,2.210681,-0.110009,2.546853,-29.095423,-36.063272,37.021984,0.327478,-0.144966,0.000000,0.056976,-0.241163,0.000000
2.990000,-0.117945,-0.093207,-1.956211,1.853974,0.375530,-0.072648,1.470019,3.405415,-0.090532,1.917498,-0.470795,2.910527,-29.654563,-35.726214,35.810930,0.327947,-0.147402,0.000000,0.036973,-0.219831,-0.000000
3.000000,-0.099332,-0.089281,-1.956942,1.868770,0.409561,-0.073407,1.487714,3.398913,-0.059638,1.617590,-0.824533,3.263071,-30.287257,-34.925932,34.692179,0.328217,-0.149610,0.000000,0.017250,-0.197827,0.000000
3.010000,-0.080570,-0.085015,-1.957679,1.883728,0.443509,-0.073840,1.502371,3.388925,-0.025270,1.311753,-1.169314,3.604371,-30.792146,-34.201688,33.395039,0.328292,-0.151582,0.000000,-0.002085,-0.175153,0.000000
3.020000,-0.061658,-0.080411,-1.958419,1.898818,0.477339,-0.073913,1.513949,3.375526,0.012449,1.001747,-1.508567,3.930972,-31.234242,-33.823066,31.678811,0.328175,-0.153311,0.000000,-0.021505,-0.151851,-0.000000
3.030000,-0.042594,-0.075469,-1.959157,1.914007,0.511019,-0.073591,1.522406,3.358753,0.053349,0.687068,-1.845775,4.237947,-31.687441,-33.614507,29.627555,0.327861,-0.154790,0.000000,-0.041531,-0.127727,-0.000000
3.040000,-0.023377,-0.070190,-1.959891,1.929266,0.544515,-0.072846,1.527690,3.338611,0.097208,0.367998,-2.180857,4.523523,-32.043202,-33.250087,27.563513,0.327343,-0.156008,0.000000,-0.062277,-0.102698,0.000000
3.050000,-0.004008,-0.064578,-1.960614,1.944561,0.577791,-0.071647,1.529766,3.315136,0.143820,0.046204,-2.510777,4.789217,-32.276951,-32.683538,25.575273,0.326614,-0.156958,0.000000,-0.083490,-0.076868,-0.000000
3.060000,0.015514,-0.058635,-1.961323,1.959861,0.610817,-0.069969,1.528614,3.288395,0.192992,-0.277541,-2.834528,5.035029,-32.464714,-32.126540,23.455200,0.325672,-0.157630,0.000000,-0.105140,-0.050233,0.000000
3.070000,0.035189,-0.052362,-1.962014,1.975134,0.643559,-0.067787,1.524215,3.258446,0.244520,-0.603090,-3.153308,5.258321,-32.623535,-31.702733,21.008707,0.324510,-0.158017,0.000000,-0.127478,-0.022689,-0.000000
3.080000,0.055016,-0.045763,-1.962679,1.990346,0.675986,-0.065079,1.516552,3.225329,0.298159,-0.930012,-3.468582,5.455203,-32.725344,-31.333387,18.306502,0.323121,-0.158108,0.000000,-0.150824,0.005857,0.000000
3.090000,0.074996,-0.038842,-1.963315,2.005465,0.708066,-0.061824,1.505615,3.189074,0.353624,-1.257597,-3.779976,5.624451,-32.752543,-30.856930,15.621113,0.321492,-0.157892,0.000000,-0.175248,0.035431,-0.000000
3.100000,0.095126,-0.031602,-1.963916,2.020458,0.739768,-0.058006,1.491400,3.149730,0.410648,-1.585062,-4.085721,5.767625,-32.714266,-30.287141,13.027442,0.319613,-0.157359,0.000000,-0.200603,0.066001,0.000000
3.110000,0.115405,-0.024047,-1.964475,2.035293,0.771061,-0.053611,1.473914,3.107360,0.468977,-1.911882,-4.385718,5.885000,-32.619542,-29.719134,10.357770,0.317477,-0.156499,0.000000,-0.226928,0.097576,0.000000
3.120000,0.135832,-0.016181,-1.964988,2.049936,0.801915,-0.048627,1.453163,3.062015,0.528348,-2.237453,-4.680104,5.974780,-32.446043,-29.084620,7.466900,0.315072,-0.155302,0.000000,-0.254350,0.130183,-0.000000
3.130000,0.156404,-0.008009,-1.965448,2.064356,0.832301,-0.043044,1.429165,3.013758,0.588472,-2.560803,-4.967411,6.034338,-32.189704,-28.325903,4.421981,0.312387,-0.153758,0.000000,-0.282862,0.163816,-0.000000
3.140000,0.177119,0.000465,-1.965849,2.078519,0.862190,-0.036858,1.401947,2.962667,0.649035,-2.881247,-5.246622,6.063220,-31.880196,-27.535777,1.436845,0.309412,-0.151857,0.000000,-0.312422,0.198454,-0.000000
3.150000,0.197974,0.009235,-1.966185,2.092395,0.891554,-0.030064,1.371540,2.908825,0.709737,-3.198407,-5.518126,6.063075,-31.514026,-26.826217,-1.448024,0.306136,-0.149588,0.000000,-0.343050,0.234060,0.000000
3.160000,0.218967,0.018296,-1.966450,2.105950,0.920366,-0.022663,1.337979,2.852305,0.770296,-3.511528,-5.783146,6.034260,-31.070386,-26.115519,-4.353867,0.302548,-0.146944,0.000000,-0.374881,0.270571,-0.000000
3.170000,0.240093,0.027643,-1.966638,2.119154,0.948600,-0.014658,1.301309,2.793162,0.830422,-3.819815,-6.040437,5.975997,-30.564708,-25.094604,-7.324310,0.298635,-0.143917,0.000000,-0.407838,0.307918,0.000000
3.180000,0.261350,0.037268,-1.966743,2.131976,0.976230,-0.006054,1.261582,2.731496,0.889816,-4.122822,-6.285038,5.887773,-29.997719,-23.763885,-10.292959,0.294388,-0.140498,0.000000,-0.441431,0.346050,-0.000000
3.190000,0.282733,0.047167,-1.966759,2.144386,1.003230,0.003139,1.218853,2.667461,0.948177,-4.419769,-6.515714,5.770138,-29.346472,-22.536312,-13.179572,0.289803,-0.136682,0.000000,-0.475483,0.384844,0.000000
3.200000,0.304237,0.057333,-1.966680,2.156353,1.029579,0.012909,1.173187,2.601182,1.005219,-4.709751,-6.735764,5.624182,-28.653770,-21.530985,-16.019295,0.284875,-0.132464,0.000000,-0.510253,0.424138,0.000000
3.210000,0.325860,0.067759,-1.966501,2.167850,1.055254,0.023243,1.124658,2.532746,1.060661,-4.992845,-6.946334,5.449752,-27.930715,-20.459152,-18.835995,0.279595,-0.127841,0.000000,-0.545805,0.463873,-0.000000
3.220000,0.347594,0.078438,-1.966216,2.178847,1.080234,0.034122,1.073330,2.462255,1.114214,-5.268366,-7.144947,5.247462,-27.043076,-19.052657,-21.474165,0.273956,-0.122810,0.000000,-0.581785,0.503876,0.000000
3.230000,0.369437,0.089363,-1.965819,2.189316,1.104499,0.045527,1.019290,2.389847,1.165610,-5.533706,-7.327387,5.020269,-25.973555,-17.400189,-23.888013,0.267957,-0.117372,0.000000,-0.617556,0.543711,0.000000
3.240000,0.391381,0.100528,-1.965305,2.199232,1.128031,0.057435,0.962656,2.315707,1.214619,-5.787837,-7.492951,4.769702,-24.910399,-15.847422,-26.264687,0.261603,-0.111532,0.000000,-0.652853,0.583107,-0.000000
3.250000,0.413421,0.111924,-1.964670,2.208569,1.150813,0.069820,0.903534,2.239988,1.261004,-6.031914,-7.644336,4.494975,-23.933619,-14.439186,-28.706048,0.254899,-0.105298,0.000000,-0.687821,0.622049,0.000000
3.260000,0.435552,0.123544,-1.963909,2.217303,1.172831,0.082655,0.842018,2.162820,1.304519,-6.266509,-7.781735,4.195581,-22.912092,-12.947269,-31.054820,0.247846,-0.098676,0.000000,-0.722316,0.660435,0.000000
3.270000,0.457767,0.135381,-1.963017,2.225410,1.194070,0.095910,0.778203,2.084353,1.344916,-6.490156,-7.903281,3.873879,-21.662159,-11.289088,-33.014858,0.240452,-0.091673,0.000000,-0.755863,0.697882,0.000000
3.280000,0.480060,0.147426,-1.961990,2.232867,1.214518,0.109553,0.712214,2.004755,1.381996,-6.699752,-8.007517,3.535284,-20.225295,-9.542194,-34.600997,0.232729,-0.084305,0.000000,-0.787939,0.733776,0.000000
3.290000,0.502425,0.159671,-1.960826,2.239654,1.234165,0.123550,0.644208,1.924203,1.415622,-6.894662,-8.094125,3.181859,-18.848079,-7.809997,-36.184693,0.224694,-0.076593,0.000000,-0.818217,0.767816,-0.000000
3.300000,0.524853,0.172109,-1.959519,2.245751,1.253002,0.137865,0.574321,1.842872,1.445633,-7.076714,-8.163717,2.811590,-17.554857,-6.127512,-37.889234,0.216366,-0.068555,0.000000,-0.846569,0.800015,0.000000
3.310000,0.547340,0.184731,-1.958068,2.251140,1.271022,0.152463,0.502674,1.760929,1.471853,-7.245759,-8.216675,2.424074,-16.185731,-4.433150,-39.440585,0.207765,-0.060213,0.000000,-0.872792,0.830134,-0.000000
3.320000,0.569876,0.197529,-1.956470,2.255805,1.288220,0.167303,0.429406,1.678539,1.494115,-7.400429,-8.252380,2.022778,-14.720385,-2.634319,-40.511200,0.198913,-0.051591,0.000000,-0.896475,0.857768,0.000000
3.330000,0.592456,0.210495,-1.954722,2.259729,1.304593,0.182345,0.354665,1.595881,1.512309,-7.540167,-8.269362,1.613850,-13.221097,-0.752211,-41.162414,0.189839,-0.042717,0.000000,-0.917062,0.882605,-0.000000
3.340000,0.615071,0.223621,-1.952823,2.262898,1.320138,0.197549,0.278603,1.513152,1.526392,-7.664851,-8.267424,1.199530,-11.710836,1.077100,-41.808770,0.180576,-0.033620,0.000000,-0.934261,0.904444,-0.000000
3.350000,0.637714,0.236898,-1.950771,2.265301,1.334856,0.212873,0.201368,1.430533,1.536299,-7.774383,-8.247820,0.777675,-10.177765,2.808120,-42.570518,0.171159,-0.024334,0.000000,-0.948064,0.923119,0.000000
3.360000,0.660377,0.250318,-1.948566,2.266925,1.348749,0.228275,0.123115,1.348195,1.541945,-7.868406,-8.211262,0.348119,-8.616991,4.523985,-43.154789,0.161621,-0.014889,0.000000,-0.958371,0.938434,-0.000000
3.370000,0.683052,0.263873,-1.946206,2.267763,1.361820,0.243712,0.044000,1.266308,1.543262,-7.946723,-8.157340,-0.085421,-7.061981,6.311053,-43.253893,0.151997,-0.005323,0.000000,-0.964911,0.950233,0.000000
3.380000,0.705732,0.277555,-1.943692,2.267805,1.374075,0.259140,-0.035819,1.185048,1.540237,-8.009645,-8.085040,-0.516958,-5.522531,8.128965,-42.944672,0.142329,0.004331,0.000000,-0.967349,0.958466,-0.000000
3.390000,0.728408,0.291355,-1.941023,2.267047,1.385521,0.274516,-0.116193,1.104607,1.532923,-8.057174,-7.994761,-0.944314,-3.962344,9.851207,-42.623755,0.132657,0.014037,0.000000,-0.965646,0.963102,0.000000
3.400000,0.751073,0.305265,-1.938201,2.265482,1.396167,0.289798,-0.196963,1.025153,1.521351,-8.088892,-7.888016,-1.369434,-2.374604,11.500730,-42.400976,0.123022,0.023758,0.000000,-0.960002,0.964084,0.000000
3.410000,0.773718,0.319278,-1.935227,2.263107,1.406024,0.304943,-0.277970,0.946846,1.505534,-8.104666,-7.764746,-1.792334,-0.791995,13.146189,-42.005170,0.113463,0.033460,0.000000,-0.950429,0.961410,0.000000
3.420000,0.796335,0.333386,-1.932102,2.259922,1.415104,0.319909,-0.359056,0.869858,1.485504,-8.104732,-7.625093,-2.209537,0.759001,14.676556,-41.169601,0.104020,0.043106,0.000000,-0.936954,0.955174,0.000000
3.430000,0.818916,0.347580,-1.928829,2.255926,1.423421,0.334653,-0.440065,0.794345,1.461343,-8.089486,-7.471215,-2.615726,2.282069,16.044354,-39.973310,0.094730,0.052662,0.000000,-0.919881,0.945544,-0.000000
3.440000,0.841454,0.361854,-1.925409,2.251121,1.430991,0.349136,-0.520846,0.720434,1.433190,-8.059091,-7.304205,-3.009003,3.801460,17.394039,-38.768756,0.085628,0.062097,0.000000,-0.899477,0.932688,0.000000
3.450000,0.863939,0.376200,-1.921846,2.245509,1.437830,0.363317,-0.601247,0.648260,1.401163,-8.013457,-7.123334,-3.391101,5.323722,18.805179,-37.651259,0.076745,0.071380,0.000000,-0.875855,0.916738,0.000000
3.460000,0.886364,0.390611,-1.918143,2.239096,1.443956,0.377159,-0.681115,0.577967,1.365368,-7.952616,-6.928102,-3.762028,6.825281,20.161813,-36.388101,0.068115,0.080482,0.000000,-0.849151,0.897863,0.000000
3.470000,0.908721,0.405079,-1.914303,2.231887,1.449389,0.390625,-0.760299,0.509698,1.325923,-7.876951,-6.720098,-4.118863,8.274132,21.251565,-34.763679,0.059766,0.089376,0.000000,-0.819744,0.876315,0.000000
3.480000,0.931002,0.419598,-1.910331,2.223890,1.454150,0.403678,-0.838654,0.443565,1.282990,-7.787134,-6.503071,-4.457302,9.674066,22.088375,-32.857135,0.051723,0.098037,0.000000,-0.788276,0.852422,0.000000
3.490000,0.953199,0.434162,-1.906230,2.215114,1.458260,0.416284,-0.916042,0.379637,1.236777,-7.683470,-6.278330,-4.776006,11.057886,22.944815,-30.961618,0.044003,0.106445,0.000000,-0.755131,0.826448,0.000000
3.500000,0.975304,0.448764,-1.902005,2.205569,1.461743,0.428413,-0.992323,0.317999,1.187470,-7.565976,-6.044174,-5.076534,12.411627,23.922249,-29.126000,0.036622,0.114581,0.000000,-0.720351,0.798590,0.000000
3.510000,0.997310,0.463397,-1.897661,2.195267,1.464620,0.440034,-1.067361,0.258753,1.135246,-7.435237,-5.799885,-5.358526,13.708209,24.823809,-27.167209,0.029596,0.122427,0.000000,-0.684080,0.769121,0.000000
3.520000,1.019209,0.478056,-1.893204,2.184222,1.466918,0.451118,-1.141028,0.202001,1.080300,-7.291812,-5.547698,-5.619878,14.978888,25.387911,-25.008914,0.022940,0.129970,0.000000,-0.646782,0.738332,0.000000
3.530000,1.040994,0.492735,-1.888639,2.172447,1.468660,0.461640,-1.213198,0.147800,1.022848,-7.135659,-5.292127,-5.858704,16.223426,25.664818,-22.727291,0.016660,0.137198,0.000000,-0.609163,0.706437,0.000000
3.540000,1.062658,0.507429,-1.883971,2.159958,1.469874,0.471575,-1.283741,0.096158,0.963126,-6.967343,-5.034402,-6.074424,17.389391,25.994257,-20.433125,0.010756,0.144101,0.000000,-0.571533,0.673691,0.000000
3.550000,1.084193,0.522133,-1.879207,2.146772,1.470583,0.480902,-1.352545,0.047112,0.901360,-6.787872,-4.772242,-6.267366,18.511551,26.444072,-18.122526,0.005228,0.150673,0.000000,-0.533790,0.640362,0.000000
3.560000,1.105594,0.536841,-1.874353,2.132907,1.470816,0.489602,-1.419499,0.000714,0.837778,-6.597112,-4.505520,-6.436875,19.615857,26.782522,-15.741865,0.000079,0.156910,0.000000,-0.496058,0.606595,0.000000
3.570000,1.126852,0.551549,-1.869415,2.118382,1.470598,0.497658,-1.484487,-0.042999,0.772622,-6.395554,-4.236592,-6.582204,20.574388,26.863368,-13.338983,-0.004695,0.162807,0.000000,-0.458715,0.572586,-0.000000
3.580000,1.147961,0.566253,-1.864400,2.103217,1.469956,0.505055,-1.547410,-0.084018,0.706134,-6.185625,-3.968253,-6.703654,21.392671,26.776982,-10.941790,-0.009098,0.168364,0.000000,-0.422156,0.538704,-0.000000
3.590000,1.168916,0.580948,-1.859314,2.087434,1.468917,0.511781,-1.608199,-0.122364,0.638549,-5.967701,-3.701052,-6.801040,22.235482,26.703870,-8.505935,-0.013141,0.173584,0.000000,-0.386501,0.505079,0.000000
3.600000,1.189710,0.595631,-1.854165,2.071053,1.467509,0.517826,-1.666764,-0.158039,0.570113,-5.740915,-3.434176,-6.873773,22.942003,26.557792,-6.082817,-0.016831,0.178469,0.000000,-0.351711,0.471706,0.000000
3.610000,1.210337,0.610298,-1.848958,2.054099,1.465757,0.523183,-1.723018,-0.191047,0.501074,-5.508861,-3.169896,-6.922696,23.409056,26.230904,-3.717442,-0.020178,0.183022,0.000000,-0.318058,0.439004,0.000000
3.620000,1.230792,0.624946,-1.843701,2.036593,1.463688,0.527847,-1.776941,-0.221437,0.431659,-5.272734,-2.909557,-6.948122,24.125243,25.989561,-1.282134,-0.023195,0.187253,0.000000,-0.285688,0.407121,0.000000
3.630000,1.251069,0.639572,-1.838401,2.018560,1.461328,0.531816,-1.828472,-0.249239,0.362111,-5.026356,-2.650105,-6.948339,25.037385,25.891147,1.224284,-0.025894,0.191169,0.000000,-0.254286,0.375483,-0.000000
3.640000,1.271163,0.654173,-1.833065,2.000024,1.458703,0.535089,-1.877468,-0.274439,0.292693,-4.771986,-2.391735,-6.923636,25.478244,25.560545,3.597116,-0.028283,0.194768,0.000000,-0.223870,0.344349,0.000000
3.650000,1.291069,0.668746,-1.827699,1.981010,1.455839,0.537670,-1.923912,-0.297073,0.223639,-4.516791,-2.138894,-6.876396,26.119168,24.902156,5.838946,-0.030374,0.198061,0.000000,-0.194864,0.314396,0.000000
3.660000,1.310783,0.683290,-1.822311,1.961545,1.452761,0.539562,-1.967804,-0.317217,0.155165,-4.249603,-1.893691,-6.806857,27.344257,24.176312,8.066163,-0.032183,0.201062,0.000000,-0.167449,0.284487,0.000000
3.670000,1.330300,0.697801,-1.816908,1.941654,1.449495,0.540773,-2.008904,-0.334947,0.087501,-3.969906,-1.655368,-6.715073,27.035037,23.555120,10.174614,-0.033725,0.203757,0.000000,-0.141501,0.254591,-0.000000
3.680000,1.349616,0.712279,-1.811496,1.921367,1.446063,0.541312,-2.047202,-0.350325,0.020863,-3.708902,-1.422589,-6.603365,25.076607,22.873494,12.069438,-0.035015,0.206159,0.000000,-0.116804,0.227704,0.000000
3.690000,1.368728,0.726723,-1.806082,1.900710,1.442488,0.541190,-2.083082,-0.363399,-0.044566,-3.468374,-1.197898,-6.473684,24.404045,21.934969,13.886417,-0.036063,0.208316,0.000000,-0.093551,0.203847,-0.000000
3.700000,1.387631,0.741129,-1.800672,1.879706,1.438795,0.540421,-2.116570,-0.374283,-0.108610,-3.220821,-0.983890,-6.325637,24.613078,21.304840,15.886089,-0.036888,0.210240,0.000000,-0.071957,0.180294,0.000000
3.710000,1.406322,0.755498,-1.795273,1.858379,1.435003,0.539018,-2.147498,-0.383077,-0.171079,-2.976112,-0.771801,-6.155962,23.787094,21.064443,17.936105,-0.037504,0.211926,0.000000,-0.051106,0.158042,-0.000000
3.720000,1.424798,0.769829,-1.789892,1.836756,1.431133,0.536999,-2.176092,-0.389719,-0.231730,-2.745079,-0.562601,-5.966915,23.856235,19.570411,19.292196,-0.037911,0.213405,0.000000,-0.031037,0.138013,-0.000000
3.730000,1.443057,0.784121,-1.784533,1.814857,1.427208,0.534384,-2.202400,-0.394329,-0.290417,-2.498988,-0.380393,-5.770119,25.600429,16.774896,19.957470,-0.038126,0.214690,0.000000,-0.014010,0.117186,0.000000
3.740000,1.461095,0.798373,-1.779204,1.792708,1.423246,0.531191,-2.226072,-0.397326,-0.347132,-2.233071,-0.227103,-5.567765,26.204325,14.954162,20.930924,-0.038192,0.215752,0.000000,-0.000098,0.095076,0.000000
3.750000,1.478911,0.812586,-1.773909,1.770336,1.419262,0.527441,-2.247061,-0.398871,-0.401772,-1.974901,-0.081310,-5.351500,25.167003,14.081757,22.341417,-0.038129,0.216594,0.000000,0.012821,0.074419,0.000000
3.760000,1.496502,0.826759,-1.768655,1.747766,1.415269,0.523156,-2.265570,-0.398953,-0.454162,-1.729731,0.054532,-5.120937,24.436345,12.658557,23.505371,-0.037937,0.217243,0.000000,0.024555,0.055645,-0.000000
3.770000,1.513866,0.840891,-1.763446,1.725024,1.411283,0.518358,-2.281656,-0.397780,-0.504191,-1.486174,0.171862,-4.881393,24.553384,11.341827,24.249226,-0.037638,0.217709,0.000000,0.034355,0.037531,0.000000
3.780000,1.531002,0.854984,-1.758288,1.702133,1.407313,0.513072,-2.295293,-0.395515,-0.551790,-1.238663,0.281369,-4.635952,24.725721,10.766851,24.811477,-0.037250,0.217995,0.000000,0.043286,0.019464,0.000000
3.790000,1.547909,0.869038,-1.753185,1.679118,1.403372,0.507322,-2.306429,-0.392153,-0.596910,-0.991660,0.387199,-4.385163,24.399513,9.914371,25.369903,-0.036773,0.218100,0.000000,0.051771,0.001812,-0.000000
3.800000,1.564585,0.883052,-1.748141,1.656005,1.399470,0.501134,-2.315126,-0.387771,-0.639493,-0.750673,0.479656,-4.128554,24.470515,8.176339,25.879487,-0.036215,0.218032,0.000000,0.058933,-0.014953,0.000000
3.810000,1.581029,0.897027,-1.743162,1.632816,1.395617,0.494532,-2.321443,-0.382560,-0.679481,-0.502250,0.550725,-3.867573,25.201590,6.323425,26.235243,-0.035594,0.217801,0.000000,0.064057,-0.032124,0.000000
3.820000,1.597241,0.910964,-1.738251,1.609576,1.391819,0.487544,-2.325171,-0.376757,-0.716845,-0.246641,0.606125,-3.603849,24.120470,5.719151,26.520572,-0.034934,0.217390,0.000000,0.067721,-0.049730,-0.000000
3.830000,1.613221,0.924863,-1.733411,1.586312,1.388082,0.480195,-2.326376,-0.370437,-0.751558,-0.019840,0.665108,-3.337162,21.126295,6.108782,26.769162,-0.034240,0.216806,0.000000,0.071752,-0.064549,0.000000
3.840000,1.628967,0.938726,-1.728647,1.563048,1.384410,0.472513,-2.325568,-0.363455,-0.783588,0.175885,0.728300,-3.068466,19.625006,5.707471,26.865698,-0.033498,0.216098,0.000000,0.076208,-0.076460,0.000000
3.850000,1.644482,0.952552,-1.723961,1.539801,1.380813,0.464523,-2.322858,-0.355871,-0.812927,0.372660,0.779258,-2.799848,19.339161,4.689192,26.865708,-0.032715,0.215276,0.000000,0.079570,-0.088435,0.000000
3.860000,1.659763,0.966342,-1.719356,1.516591,1.377293,0.456254,-2.318115,-0.347870,-0.839585,0.562668,0.822084,-2.531152,18.025050,4.225570,26.847702,-0.031907,0.214329,0.000000,0.082236,-0.099789,-0.000000
3.870000,1.674813,0.980098,-1.714836,1.493439,1.373855,0.447732,-2.311605,-0.339429,-0.863550,0.733161,0.863769,-2.262894,17.329022,3.511075,26.620474,-0.031070,0.213279,0.000000,0.084863,-0.109418,0.000000
3.880000,1.689632,0.993819,-1.710402,1.470359,1.370504,0.438983,-2.303452,-0.330594,-0.884843,0.909249,0.892306,-1.998743,18.104696,2.113114,26.155461,-0.030209,0.212139,0.000000,0.086352,-0.119661,0.000000
3.890000,1.704221,1.007508,-1.706056,1.447370,1.367243,0.430035,-2.293420,-0.321583,-0.903525,1.095255,0.906031,-1.739785,17.909626,1.237306,25.730500,-0.029343,0.210885,0.000000,0.086564,-0.130935,0.000000
3.900000,1.718580,1.021164,-1.701801,1.424491,1.364073,0.420913,-2.281547,-0.312474,-0.919638,1.267441,0.917052,-1.484133,16.500196,0.959832,25.365104,-0.028478,0.209519,0.000000,0.086615,-0.141098,0.000000
3.910000,1.732710,1.034789,-1.697638,1.401739,1.360994,0.411642,-2.268071,-0.303242,-0.933208,1.425259,0.925228,-1.232483,15.563411,0.455150,24.878403,-0.027611,0.208062,0.000000,0.086491,-0.150134,0.000000
3.920000,1.746614,1.048384,-1.693568,1.379129,1.358008,0.402249,-2.253042,-0.293969,-0.944288,1.578709,0.926155,-0.986565,14.956646,-0.061744,24.303311,-0.026748,0.206515,0.000000,0.085791,-0.158980,-0.000000
3.930000,1.760293,1.061949,-1.689593,1.356678,1.355115,0.392756,-2.236497,-0.284719,-0.952939,1.724392,0.923993,-0.746416,14.079556,-0.282736,23.711919,-0.025895,0.204880,0.000000,0.084892,-0.167342,0.000000
3.940000,1.773748,1.075486,-1.685713,1.334399,1.352314,0.383190,-2.218554,-0.275489,-0.959216,1.860300,0.920500,-0.512326,13.285031,-0.578532,23.053288,-0.025050,0.203167,0.000000,0.083953,-0.175056,-0.000000
3.950000,1.786981,1.088996,-1.681929,1.312307,1.349605,0.373572,-2.199291,-0.266309,-0.963186,1.990092,0.912423,-0.285351,12.700141,-1.077531,22.311599,-0.024215,0.201378,0.000000,0.082673,-0.182473,0.000000
3.960000,1.799994,1.102478,-1.678242,1.290413,1.346987,0.363926,-2.178752,-0.257241,-0.964923,2.114303,0.898950,-0.066094,12.062215,-1.511827,21.532579,-0.023396,0.199516,0.000000,0.080976,-0.189656,-0.000000
3.970000,1.812789,1.115935,-1.674651,1.268732,1.344460,0.354274,-2.157004,-0.248330,-0.964508,2.231337,0.882186,0.145301,11.319033,-1.706873,20.742678,-0.022596,0.197583,0.000000,0.079050,-0.196468,-0.000000
3.980000,1.825369,1.129367,-1.671156,1.247273,1.342021,0.344636,-2.134125,-0.239597,-0.962017,2.340684,0.864812,0.348759,10.563744,-1.751362,19.935846,-0.021815,0.195585,0.000000,0.077132,-0.202866,-0.000000
3.990000,1.837735,1.142776,-1.667758,1.226049,1.339668,0.335033,-2.110191,-0.231034,-0.957532,2.442611,0.847159,0.544018,9.844124,-1.862679,19.089910,-0.021053,0.193525,0.000000,0.075249,-0.208878,0.000000
4.000000,1.849890,1.156161,-1.664456,1.205070,1.337400,0.325485,-2.085273,-0.222654,-0.951137,2.537566,0.827558,0.730558,9.144684,-2.052072,18.187273,-0.020310,0.191406,0.000000,0.073244,-0.214551,0.000000
4.010000,1.861836,1.169524,-1.661248,1.184344,1.335215,0.316011,-2.059439,-0.214483,-0.942921,2.625505,0.806117,0.907763,8.438406,-2.178682,17.251752,-0.019588,0.189232,0.000000,0.071123,-0.219889,0.000000
4.020000,1.873577,1.182865,-1.658135,1.163881,1.333110,0.306627,-2.032763,-0.206531,-0.932982,2.706335,0.783985,1.075593,7.746276,-2.228336,16.351625,-0.018887,0.187007,0.000000,0.068984,-0.224879,0.000000
4.030000,1.885114,1.196186,-1.655116,1.143689,1.331084,0.297351,-2.005313,-0.198803,-0.921409,2.780431,0.761551,1.234796,7.079087,-2.254509,15.488831,-0.018208,0.184733,0.000000,0.066858,-0.229537,0.000000
4.040000,1.896450,1.209487,-1.652188,1.123775,1.329134,0.288199,-1.977154,-0.191300,-0.908286,2.847916,0.738895,1.385369,6.407684,-2.269660,14.580269,-0.017550,0.182415,0.000000,0.064748,-0.233868,0.000000
4.050000,1.907589,1.222769,-1.649352,1.104145,1.327258,0.279185,-1.948354,-0.184025,-0.893702,2.908584,0.716157,1.526401,5.731741,-2.260643,13.605810,-0.016913,0.180055,0.000000,0.062663,-0.237862,-0.000000
4.060000,1.918533,1.236032,-1.646605,1.084807,1.325454,0.270325,-1.918983,-0.176977,-0.877758,2.962551,0.693682,1.657485,5.072513,-2.226498,12.629057,-0.016297,0.177657,0.000000,0.060632,-0.241527,-0.000000
4.070000,1.929285,1.249278,-1.643945,1.065766,1.323719,0.261630,-1.889103,-0.170152,-0.860552,3.010035,0.671627,1.778982,4.423574,-2.198668,11.705779,-0.015700,0.175223,0.000000,0.058665,-0.244866,-0.000000
4.080000,1.939849,1.262506,-1.641372,1.047025,1.322051,0.253114,-1.858782,-0.163545,-0.842178,3.051023,0.649708,1.891601,3.778251,-2.183810,10.821601,-0.015123,0.172758,0.000000,0.056732,-0.247859,0.000000
4.090000,1.950226,1.275719,-1.638883,1.028590,1.320448,0.244786,-1.828083,-0.157157,-0.822720,3.085600,0.627951,1.995414,3.149206,-2.144563,9.912346,-0.014566,0.170265,0.000000,0.054832,-0.250501,-0.000000
4.100000,1.960420,1.288915,-1.636476,1.010464,1.318908,0.236659,-1.797070,-0.150986,-0.802270,3.114007,0.606817,2.089848,2.539207,-2.068059,8.965804,-0.014027,0.167748,0.000000,0.053005,-0.252812,0.000000
4.110000,1.970435,1.302097,-1.634150,0.992649,1.317428,0.228741,-1.765803,-0.145021,-0.780923,3.136384,0.586590,2.174730,1.940714,-1.985018,8.030362,-0.013506,0.165208,0.000000,0.051275,-0.254796,0.000000
4.120000,1.980273,1.315264,-1.631901,0.975148,1.316007,0.221041,-1.734342,-0.139254,-0.758775,3.152821,0.567117,2.250455,1.354349,-1.933507,7.145621,-0.013001,0.162651,0.000000,0.049627,-0.256444,0.000000
4.130000,1.989938,1.328417,-1.629729,0.957962,1.314643,0.213566,-1.702746,-0.133679,-0.735914,3.163471,0.547920,2.317643,0.784902,-1.909937,6.301495,-0.012513,0.160079,0.000000,0.048013,-0.257748,-0.000000
4.140000,1.999433,1.341557,-1.627630,0.941093,1.313334,0.206322,-1.671073,-0.128295,-0.712422,3.168519,0.528918,2.376485,0.232570,-1.869301,5.452783,-0.012041,0.157495,0.000000,0.046423,-0.258709,0.000000
4.150000,2.008760,1.354684,-1.625603,0.924541,1.312077,0.199317,-1.639376,-0.123100,-0.688385,3.168122,0.510534,2.426699,-0.309694,-1.791062,4.583750,-0.011585,0.154904,0.000000,0.044894,-0.259336,0.000000
4.160000,2.017923,1.367798,-1.623644,0.908305,1.310872,0.192555,-1.607710,-0.118085,-0.663888,3.162325,0.493097,2.468160,-0.839983,-1.710415,3.729297,-0.011143,0.152308,0.000000,0.043458,-0.259620,0.000000
4.170000,2.026926,1.380901,-1.621751,0.892386,1.309715,0.186039,-1.576130,-0.113238,-0.639021,3.151323,0.476326,2.501284,-1.335964,-1.688152,2.938890,-0.010716,0.149711,0.000000,0.042086,-0.259561,0.000000
4.180000,2.035771,1.393993,-1.619923,0.876783,1.308607,0.179774,-1.544684,-0.108558,-0.613863,3.135606,0.459334,2.526938,-1.796096,-1.718802,2.205908,-0.010302,0.147117,0.000000,0.040692,-0.259181,0.000000
4.190000,2.044462,1.407073,-1.618156,0.861493,1.307544,0.173762,-1.513417,-0.104052,-0.588483,3.115401,0.441950,2.545403,-2.249462,-1.724922,1.469011,-0.009902,0.144527,0.000000,0.039258,-0.258486,0.000000
4.200000,2.053001,1.420143,-1.616448,0.846514,1.306526,0.168005,-1.482376,-0.099719,-0.562955,3.090617,0.424835,2.556318,-2.701210,-1.684484,0.715028,-0.009516,0.141947,0.000000,0.037845,-0.257461,-0.000000
4.210000,2.061392,1.433204,-1.614796,0.831845,1.305550,0.162503,-1.451605,-0.095555,-0.537356,3.061376,0.408260,2.559703,-3.130404,-1.653030,-0.011659,-0.009145,0.139378,0.000000,0.036479,-0.256106,0.000000
4.220000,2.069638,1.446254,-1.613198,0.817482,1.304615,0.157257,-1.421148,-0.091554,-0.511761,3.028009,0.391775,2.556085,-3.526388,-1.685938,-0.676969,-0.008787,0.136824,0.000000,0.035115,-0.254432,0.000000
4.230000,2.077742,1.459296,-1.611651,0.803422,1.303719,0.152268,-1.391045,-0.087720,-0.486234,2.990849,0.374541,2.546164,-3.894813,-1.768418,-1.292544,-0.008443,0.134289,0.000000,0.033671,-0.252453,-0.000000
4.240000,2.085706,1.472329,-1.610152,0.789661,1.302860,0.147533,-1.361331,-0.084063,-0.460837,2.950112,0.356406,2.530234,-4.247582,-1.830493,-1.899140,-0.008114,0.131775,0.000000,0.032130,-0.250176,0.000000
4.250000,2.093535,1.485353,-1.608700,0.776196,1.302038,0.143051,-1.332043,-0.080591,-0.435630,2.905897,0.337931,2.508181,-4.589534,-1.856922,-2.506344,-0.007800,0.129286,0.000000,0.030545,-0.247603,-0.000000
4.260000,2.101230,1.498370,-1.607291,0.763020,1.301249,0.138820,-1.303213,-0.077305,-0.410674,2.858322,0.319268,2.480107,-4.911844,-1.895960,-3.084989,-0.007503,0.126823,0.000000,0.028930,-0.244734,-0.000000
4.270000,2.108795,1.511378,-1.605924,0.750131,1.300491,0.134838,-1.274876,-0.074206,-0.386028,2.807660,0.300012,2.446481,-5.198951,-1.984772,-3.607461,-0.007222,0.124391,0.000000,0.027245,-0.241583,0.000000
4.280000,2.116233,1.524379,-1.604595,0.737523,1.299764,0.131100,-1.247060,-0.071304,-0.361744,2.754343,0.279573,2.407958,-5.452178,-2.108878,-4.081059,-0.006958,0.121992,0.000000,0.025429,-0.238175,0.000000
4.290000,2.123546,1.537373,-1.603302,0.725190,1.299065,0.127603,-1.219789,-0.068615,-0.337869,2.698617,0.257835,2.364860,-5.691816,-2.221082,-4.540160,-0.006713,0.119628,0.000000,0.023471,-0.234524,0.000000
4.300000,2.130737,1.550361,-1.602043,0.713127,1.298392,0.124342,-1.193088,-0.066148,-0.314447,2.640506,0.235151,2.317155,-5.925286,-2.311368,-4.994306,-0.006488,0.117301,0.000000,0.021404,-0.230627,-0.000000
4.310000,2.137808,1.563341,-1.600815,0.701328,1.297742,0.121314,-1.166979,-0.063912,-0.291525,2.580111,0.211607,2.264974,-6.138222,-2.411184,-5.419295,-0.006285,0.115015,0.000000,0.019235,-0.226488,-0.000000
4.320000,2.144763,1.576316,-1.599616,0.689788,1.297114,0.118512,-1.141486,-0.061916,-0.269147,2.517742,0.186927,2.208769,-6.312006,-2.544363,-5.789926,-0.006104,0.112772,0.000000,0.016936,-0.222126,0.000000
4.330000,2.151604,1.589284,-1.598445,0.678499,1.296504,0.115931,-1.116624,-0.060173,-0.247350,2.453871,0.160720,2.149175,-6.450210,-2.700451,-6.112602,-0.005946,0.110573,0.000000,0.014468,-0.217577,0.000000
4.340000,2.158333,1.602246,-1.597298,0.667455,1.295910,0.113565,-1.092408,-0.058701,-0.226164,2.388738,0.132918,2.086517,-6.577399,-2.848026,-6.419759,-0.005815,0.108420,0.000000,0.011822,-0.212858,-0.000000
4.350000,2.164953,1.615202,-1.596173,0.656650,1.295330,0.111407,-1.068850,-0.057515,-0.205620,2.322323,0.103759,2.020780,-6.700869,-2.982138,-6.719989,-0.005710,0.106316,0.000000,0.009022,-0.207966,-0.000000
4.360000,2.171466,1.628152,-1.595070,0.646078,1.294760,0.109452,-1.045962,-0.056626,-0.185748,2.254720,0.073275,1.952117,-6.803935,-3.122634,-6.991141,-0.005634,0.104261,0.000000,0.006071,-0.202907,-0.000000
4.370000,2.177875,1.641097,-1.593984,0.635731,1.294198,0.107693,-1.023755,-0.056049,-0.166577,2.186244,0.041307,1.880957,-6.869553,-3.278357,-7.212474,-0.005589,0.102258,0.000000,0.002952,-0.197706,-0.000000
4.380000,2.184181,1.654036,-1.592916,0.625603,1.293639,0.106121,-1.002237,-0.055800,-0.148129,2.117329,0.007708,1.807868,-6.902736,-3.441361,-7.390533,-0.005575,0.100307,0.000000,-0.000350,-0.192399,-0.000000
4.390000,2.190387,1.666970,-1.591862,0.615686,1.293082,0.104730,-0.981409,-0.055895,-0.130420,2.048189,-0.027521,1.733147,-6.926265,-3.599249,-7.552623,-0.005596,0.098410,0.000000,-0.003834,-0.187007,0.000000
4.400000,2.196495,1.679898,-1.590821,0.605975,1.292521,0.103512,-0.961273,-0.056350,-0.113466,1.978804,-0.064277,1.656815,-6.946127,-3.752181,-7.705792,-0.005652,0.096567,0.000000,-0.007490,-0.181527,0.000000
4.410000,2.202506,1.692820,-1.589792,0.596461,1.291955,0.102461,-0.941833,-0.057181,-0.097284,1.909267,-0.102564,1.579031,-6.947480,-3.906568,-7.832043,-0.005746,0.094780,0.000000,-0.011317,-0.175969,0.000000
4.420000,2.208424,1.705737,-1.588772,0.587138,1.291378,0.101567,-0.923088,-0.058402,-0.081886,1.839854,-0.142408,1.500174,-6.917270,-4.058428,-7.915502,-0.005878,0.093048,0.000000,-0.015319,-0.170358,0.000000
4.430000,2.214249,1.718648,-1.587760,0.577999,1.290786,0.100823,-0.905036,-0.060029,-0.067280,1.770921,-0.183733,1.420721,-6.860598,-4.203539,-7.962150,-0.006052,0.091373,0.000000,-0.019485,-0.164727,0.000000
4.440000,2.219984,1.731553,-1.586755,0.569037,1.290177,0.100221,-0.887669,-0.062076,-0.053471,1.702642,-0.226479,1.340931,-6.795471,-4.345832,-7.993588,-0.006268,0.089754,0.000000,-0.023810,-0.159094,0.000000
4.450000,2.225630,1.744451,-1.585756,0.560246,1.289545,0.099753,-0.870983,-0.064558,-0.040462,1.635012,-0.270649,1.260849,-6.725634,-4.488980,-8.014766,-0.006528,0.088191,0.000000,-0.028292,-0.153462,0.000000
4.460000,2.231189,1.757344,-1.584760,0.551618,1.288886,0.099412,-0.854969,-0.067489,-0.028254,1.568130,-0.316258,1.180636,-6.639986,-4.628258,-8.012145,-0.006834,0.086685,0.000000,-0.032931,-0.147842,-0.000000
4.470000,2.236662,1.770229,-1.583768,0.543146,1.288195,0.099188,-0.839620,-0.070883,-0.016849,1.502212,-0.363215,1.100606,-6.532039,-4.751374,-7.976142,-0.007187,0.085234,0.000000,-0.037718,-0.142257,-0.000000
4.480000,2.242052,1.783107,-1.582777,0.534825,1.287468,0.099075,-0.824925,-0.074753,-0.006242,1.437489,-0.411286,1.021113,-6.406204,-4.857465,-7.911790,-0.007588,0.083840,0.000000,-0.042625,-0.136729,0.000000
4.490000,2.247359,1.795978,-1.581786,0.526648,1.286700,0.099064,-0.810870,-0.079109,0.003573,1.374088,-0.460364,0.942370,-6.272145,-4.961169,-7.832948,-0.008039,0.082500,0.000000,-0.047642,-0.131273,-0.000000
4.500000,2.252585,1.808841,-1.580795,0.518608,1.285886,0.099146,-0.797443,-0.083961,0.012605,1.312046,-0.510509,0.864454,-6.132427,-5.069368,-7.743675,-0.008541,0.081214,0.000000,-0.052772,-0.125898,0.000000
4.510000,2.257731,1.821696,-1.579803,0.510699,1.285021,0.099316,-0.784629,-0.089319,0.020862,1.251440,-0.561751,0.787497,-5.981871,-5.170291,-7.635990,-0.009095,0.079982,0.000000,-0.058017,-0.120612,0.000000
4.520000,2.262799,1.834542,-1.578809,0.502915,1.284100,0.099564,-0.772414,-0.095196,0.028355,1.192409,-0.613915,0.711734,-5.816489,-5.243703,-7.502467,-0.009702,0.078802,0.000000,-0.063356,-0.115432,0.000000
4.530000,2.267789,1.847378,-1.577812,0.495251,1.283117,0.099883,-0.760781,-0.101598,0.035097,1.135110,-0.666625,0.637448,-5.639272,-5.291276,-7.346928,-0.010362,0.077673,0.000000,-0.068749,-0.110375,0.000000
4.540000,2.272704,1.860204,-1.576811,0.487700,1.282068,0.100266,-0.749712,-0.108528,0.041104,1.079623,-0.719741,0.564796,-5.457123,-5.338455,-7.181009,-0.011077,0.076595,0.000000,-0.074182,-0.105452,0.000000
4.550000,2.277543,1.873019,-1.575807,0.480257,1.280946,0.100705,-0.739189,-0.115992,0.046393,1.025967,-0.773394,0.493827,-5.269593,-5.392294,-7.005781,-0.011846,0.075564,0.000000,-0.079664,-0.100667,0.000000
4.560000,2.282309,1.885823,-1.574797,0.472916,1.279748,0.101193,-0.729193,-0.123996,0.050981,0.974231,-0.827587,0.424680,-5.073702,-5.434316,-6.815194,-0.012670,0.074581,0.000000,-0.085195,-0.096033,0.000000
4.570000,2.287001,1.898614,-1.573783,0.465673,1.278466,0.101724,-0.719704,-0.132544,0.054887,0.924493,-0.882081,0.357523,-4.874644,-5.446249,-6.611170,-0.013549,0.073644,0.000000,-0.090749,-0.091559,-0.000000
4.580000,2.291622,1.911392,-1.572763,0.458522,1.277097,0.102291,-0.710703,-0.141638,0.058131,0.876738,-0.936512,0.292457,-4.675200,-5.432668,-6.397506,-0.014485,0.072750,0.000000,-0.096286,-0.087246,0.000000
4.590000,2.296172,1.924156,-1.571737,0.451459,1.275634,0.102887,-0.702169,-0.151274,0.060736,0.830989,-0.990734,0.229573,-4.469847,-5.416362,-6.173279,-0.015475,0.071899,0.000000,-0.101792,-0.083099,0.000000
4.600000,2.300651,1.936905,-1.570705,0.444478,1.274071,0.103506,-0.694083,-0.161452,0.062723,0.787341,-1.044839,0.168991,-4.255603,-5.403259,-5.937069,-0.016521,0.071088,0.000000,-0.107272,-0.079129,0.000000
4.610000,2.305061,1.949638,-1.569667,0.437577,1.272405,0.104142,-0.686423,-0.172171,0.064116,0.745877,-1.098799,0.110832,-4.037917,-5.377295,-5.691477,-0.017621,0.070316,0.000000,-0.112725,-0.075346,0.000000
4.620000,2.309403,1.962353,-1.568622,0.430750,1.270628,0.104788,-0.679166,-0.183428,0.064939,0.706583,-1.152385,0.055162,-3.826778,-5.323042,-5.443128,-0.018775,0.069581,0.000000,-0.118126,-0.071751,-0.000000
4.630000,2.313676,1.975050,-1.567571,0.423994,1.268736,0.105440,-0.672291,-0.195219,0.065219,0.669342,-1.205260,0.001969,-3.622025,-5.244696,-5.192866,-0.019983,0.068881,0.000000,-0.123438,-0.068334,0.000000
4.640000,2.317883,1.987728,-1.566513,0.417304,1.266724,0.106093,-0.665779,-0.207534,0.064979,0.634143,-1.257279,-0.048696,-3.412093,-5.161961,-4.934016,-0.021244,0.068214,0.000000,-0.128648,-0.065096,0.000000
4.650000,2.322022,2.000385,-1.565449,0.410678,1.264585,0.106740,-0.659608,-0.220364,0.064245,0.601100,-1.308499,-0.096711,-3.194265,-5.080934,-4.665367,-0.022556,0.067579,0.000000,-0.133760,-0.062050,0.000000
4.660000,2.326096,2.013020,-1.564379,0.404112,1.262316,0.107377,-0.653757,-0.233704,0.063045,0.570257,-1.358897,-0.142003,-2.977724,-4.988051,-4.393163,-0.023919,0.066973,0.000000,-0.138772,-0.059200,-0.000000
4.670000,2.330105,2.025631,-1.563302,0.397603,1.259911,0.108001,-0.648203,-0.247542,0.061405,0.541545,-1.408260,-0.184574,-2.771035,-4.867902,-4.123118,-0.025331,0.066394,0.000000,-0.143663,-0.056542,0.000000
4.680000,2.334048,2.038218,-1.562219,0.391148,1.257366,0.108606,-0.642926,-0.261869,0.059353,0.514837,-1.456255,-0.224465,-2.572609,-4.724391,-3.854886,-0.026792,0.065841,0.000000,-0.148398,-0.054064,0.000000
4.690000,2.337928,2.050778,-1.561130,0.384744,1.254674,0.109188,-0.637906,-0.276668,0.056916,0.490093,-1.502748,-0.261672,-2.372830,-4.577930,-3.583136,-0.028299,0.065313,0.000000,-0.152965,-0.051763,0.000000
4.700000,2.341743,2.063311,-1.560035,0.378390,1.251832,0.109744,-0.633124,-0.291924,0.054120,0.467380,-1.547814,-0.296128,-2.168593,-4.433131,-3.305188,-0.029851,0.064806,0.000000,-0.157371,-0.049646,0.000000
4.710000,2.345495,2.075815,-1.558935,0.372082,1.248836,0.110270,-0.628559,-0.307624,0.050993,0.446721,-1.591411,-0.327776,-1.967562,-4.276473,-3.026295,-0.031446,0.064319,0.000000,-0.161614,-0.047717,-0.000000
4.720000,2.349185,2.088288,-1.557829,0.365819,1.245680,0.110764,-0.624190,-0.323752,0.047564,0.428029,-1.633343,-0.356654,-1.779831,-4.098225,-2.756991,-0.033083,0.063851,0.000000,-0.165675,-0.045967,-0.000000
4.730000,2.352812,2.100729,-1.556719,0.359598,1.242360,0.111222,-0.619998,-0.340291,0.043860,0.411125,-1.673375,-0.382915,-1.604259,-3.903023,-2.497397,-0.034760,0.063399,0.000000,-0.169530,-0.044380,-0.000000
4.740000,2.356377,2.113135,-1.555605,0.353419,1.238874,0.111641,-0.615967,-0.357220,0.039906,0.395944,-1.711404,-0.406602,-1.428676,-3.703882,-2.235173,-0.036474,0.062963,0.000000,-0.173170,-0.042950,-0.000000
4.750000,2.359880,2.125506,-1.554487,0.347279,1.235216,0.112020,-0.612079,-0.374519,0.035728,0.382551,-1.747453,-0.427619,-1.249108,-3.503212,-1.966418,-0.038223,0.062540,0.000000,-0.176600,-0.041684,0.000000
4.760000,2.363322,2.137840,-1.553365,0.341177,1.231384,0.112356,-0.608316,-0.392169,0.031353,0.370961,-1.781468,-0.445930,-1.074752,-3.292980,-1.700972,-0.040006,0.062129,0.000000,-0.179816,-0.040583,-0.000000
4.770000,2.366704,2.150134,-1.552239,0.335113,1.227373,0.112647,-0.604660,-0.410148,0.026809,0.361056,-1.813312,-0.461638,-0.916952,-3.068729,-1.450626,-0.041820,0.061727,0.000000,-0.182805,-0.039636,-0.000000
4.780000,2.370025,2.162387,-1.551112,0.329084,1.223181,0.112892,-0.601095,-0.428435,0.022121,0.352622,-1.842843,-0.474943,-0.773881,-2.833724,-1.213754,-0.043662,0.061335,0.000000,-0.185554,-0.038823,0.000000
4.790000,2.373285,2.174597,-1.549982,0.323091,1.218804,0.113089,-0.597607,-0.447005,0.017310,0.345579,-1.869987,-0.485913,-0.631372,-2.594451,-0.976356,-0.045531,0.060950,0.000000,-0.188058,-0.038136,0.000000
4.800000,2.376486,2.186763,-1.548850,0.317132,1.214240,0.113238,-0.594183,-0.465835,0.012402,0.339995,-1.894732,-0.494470,-0.485025,-2.351560,-0.734179,-0.047423,0.060572,0.000000,-0.190317,-0.037582,0.000000
4.810000,2.379628,2.198882,-1.547717,0.311207,1.209487,0.113337,-0.590808,-0.484900,0.007421,0.335878,-1.917018,-0.500597,-0.345132,-2.101699,-0.497834,-0.049337,0.060198,0.000000,-0.192329,-0.037162,0.000000
4.820000,2.382711,2.210953,-1.546583,0.305316,1.204542,0.113386,-0.587466,-0.504175,0.002390,0.333092,-1.936766,-0.504427,-0.223525,-1.845304,-0.279783,-0.051270,0.059827,0.000000,-0.194086,-0.036862,0.000000
4.830000,2.385734,2.222973,-1.545449,0.299458,1.199404,0.113385,-0.584146,-0.523635,-0.002668,0.331408,-1.953924,-0.506193,-0.117538,-1.584341,-0.077840,-0.053219,0.059460,0.000000,-0.195584,-0.036662,0.000000
4.840000,2.388700,2.234941,-1.544315,0.293633,1.194070,0.113333,-0.580838,-0.543253,-0.007733,0.330742,-1.968452,-0.505983,-0.012032,-1.319034,0.123241,-0.055181,0.059093,0.000000,-0.196822,-0.036553,-0.000000
4.850000,2.391607,2.246855,-1.543182,0.287841,1.188539,0.113230,-0.577531,-0.563004,-0.012787,0.331167,-1.980305,-0.503728,0.095735,-1.049150,0.327306,-0.057155,0.058727,0.000000,-0.197797,-0.036543,-0.000000
4.860000,2.394457,2.258712,-1.542051,0.282082,1.182810,0.113077,-0.574214,-0.582860,-0.017808,0.332656,-1.989435,-0.499437,0.195283,-0.775574,0.523262,-0.059137,0.058361,0.000000,-0.198507,-0.036628,0.000000
4.870000,2.397249,2.270511,-1.540921,0.276357,1.176882,0.112874,-0.570878,-0.602793,-0.022776,0.335073,-1.995816,-0.493263,0.280448,-0.500448,0.700641,-0.061125,0.057994,0.000000,-0.198950,-0.036797,-0.000000
4.880000,2.399984,2.282249,-1.539793,0.270665,1.170754,0.112622,-0.567513,-0.622776,-0.027673,0.338265,-1.999444,-0.485425,0.354472,-0.224422,0.862185,-0.063116,0.057624,0.000000,-0.199128,-0.037034,0.000000
4.890000,2.402662,2.293926,-1.538668,0.265006,1.164426,0.112321,-0.564112,-0.642782,-0.032484,0.342162,-2.000305,-0.476019,0.424888,0.054192,1.020768,-0.065108,0.057251,0.000000,-0.199039,-0.037334,0.000000
4.900000,2.405284,2.305538,-1.537547,0.259382,1.157898,0.111972,-0.560670,-0.662782,-0.037194,0.346763,-1.998361,-0.465009,0.493346,0.336257,1.179671,-0.067097,0.056876,0.000000,-0.198683,-0.037696,0.000000
4.910000,2.407850,2.317084,-1.536429,0.253793,1.151170,0.111577,-0.557177,-0.682749,-0.041785,0.352029,-1.993580,-0.452425,0.554831,0.619633,1.329745,-0.069081,0.056496,0.000000,-0.198058,-0.038116,0.000000
4.920000,2.410360,2.328561,-1.535315,0.248239,1.144243,0.111136,-0.553629,-0.702654,-0.046242,0.357860,-1.985968,-0.438414,0.604886,0.900315,1.462123,-0.071058,0.056111,0.000000,-0.197166,-0.038587,-0.000000
4.930000,2.412814,2.339969,-1.534206,0.242720,1.137117,0.110652,-0.550020,-0.722468,-0.050553,0.364127,-1.975573,-0.423183,0.645012,1.178017,1.579184,-0.073025,0.055722,0.000000,-0.196012,-0.039095,0.000000
4.940000,2.415214,2.351304,-1.533102,0.237238,1.129794,0.110125,-0.546346,-0.742165,-0.054706,0.370760,-1.962408,-0.406831,0.681134,1.456968,1.692124,-0.074978,0.055327,0.000000,-0.194597,-0.039635,-0.000000
4.950000,2.417559,2.362564,-1.532004,0.231793,1.122274,0.109558,-0.542605,-0.761716,-0.058689,0.377749,-1.946434,-0.389341,0.714983,1.738725,1.803838,-0.076917,0.054927,0.000000,-0.192920,-0.040206,0.000000
4.960000,2.419850,2.373749,-1.530911,0.226386,1.114560,0.108951,-0.538791,-0.781094,-0.062493,0.385059,-1.927633,-0.370754,0.742705,2.019494,1.906564,-0.078837,0.054521,0.000000,-0.190981,-0.040804,0.000000
4.970000,2.422087,2.384856,-1.529825,0.221018,1.106652,0.108308,-0.534904,-0.800269,-0.066105,0.392603,-1.906044,-0.351209,0.760343,2.293782,1.992989,-0.080736,0.054109,0.000000,-0.188782,-0.041422,-0.000000
4.980000,2.424270,2.395882,-1.528745,0.215688,1.098554,0.107629,-0.530939,-0.819215,-0.069517,0.400266,-1.881757,-0.330894,0.769206,2.561951,2.065263,-0.082613,0.053690,0.000000,-0.186333,-0.042049,0.000000
4.990000,2.426401,2.406827,-1.527672,0.210399,1.090268,0.106918,-0.526898,-0.837904,-0.072722,0.407988,-1.854805,-0.309904,0.774778,2.830259,2.132862,-0.084463,0.053265,0.000000,-0.183638,-0.042680,0.000000
5.000000,2.428478,2.417688,-1.526607,0.205150,1.081796,0.106175,-0.522780,-0.856311,-0.075715,0.415762,-1.825152,-0.288237,0.778047,3.100192,2.198592,-0.086285,0.052833,0.000000,-0.180692,-0.043315,0.000000
5.010000,2.430504,2.428463,-1.525549,0.199943,1.073142,0.105403,-0.518583,-0.874407,-0.078487,0.423548,-1.792801,-0.265932,0.775594,3.366757,2.256074,-0.088077,0.052395,0.000000,-0.177498,-0.043950,-0.000000
5.020000,2.432477,2.439150,-1.524499,0.194779,1.064308,0.104605,-0.514309,-0.892167,-0.081033,0.431274,-1.757817,-0.243115,0.765940,3.625126,2.298454,-0.089835,0.051951,0.000000,-0.174062,-0.044579,0.000000
5.030000,2.434399,2.449749,-1.523457,0.189657,1.055298,0.103783,-0.509958,-0.909563,-0.083349,0.438867,-1.720299,-0.219963,0.750522,3.876216,2.327671,-0.091558,0.051500,0.000000,-0.170391,-0.045195,0.000000
5.040000,2.436270,2.460256,-1.522423,0.184579,1.046117,0.102938,-0.505531,-0.926573,-0.085433,0.446284,-1.680293,-0.196562,0.731635,4.125408,2.352931,-0.093243,0.051043,0.000000,-0.166490,-0.045795,0.000000
5.050000,2.438091,2.470671,-1.521398,0.179546,1.036767,0.102074,-0.501032,-0.943169,-0.087281,0.453500,-1.637791,-0.172904,0.709359,4.373967,2.376358,-0.094888,0.050580,0.000000,-0.162358,-0.046376,0.000000
5.060000,2.439861,2.480992,-1.520381,0.174559,1.027253,0.101193,-0.496461,-0.959328,-0.088891,0.460471,-1.592813,-0.149035,0.682450,4.617691,2.391984,-0.096490,0.050111,0.000000,-0.157998,-0.046935,0.000000
5.070000,2.441582,2.491216,-1.519374,0.169617,1.017580,0.100296,-0.491822,-0.975026,-0.090261,0.467149,-1.545437,-0.125065,0.651243,4.852340,2.395524,-0.098048,0.049637,0.000000,-0.153414,-0.047466,0.000000
5.080000,2.443254,2.501343,-1.518376,0.164722,1.007753,0.099387,-0.487118,-0.990237,-0.091392,0.473496,-1.495767,-0.101124,0.616467,5.078657,2.389129,-0.099559,0.049157,0.000000,-0.148618,-0.047968,0.000000
5.090000,2.444876,2.511371,-1.517386,0.159875,0.997776,0.098468,-0.482352,-1.004941,-0.092284,0.479478,-1.443864,-0.077282,0.578278,5.301443,2.378679,-0.101021,0.048673,0.000000,-0.143612,-0.048437,0.000000
5.100000,2.446451,2.521299,-1.516406,0.155075,0.987654,0.097542,-0.477529,-1.019114,-0.092938,0.485062,-1.389738,-0.053551,0.536898,5.521801,2.365199,-0.102431,0.048184,0.000000,-0.138398,-0.048871,0.000000
5.110000,2.447978,2.531124,-1.515435,0.150324,0.977393,0.096610,-0.472651,-1.032736,-0.093355,0.490216,-1.333428,-0.029978,0.492526,5.735984,2.345184,-0.103789,0.047690,0.000000,-0.132979,-0.049265,0.000000
5.120000,2.449458,2.540847,-1.514474,0.145622,0.966999,0.095675,-0.467724,-1.045783,-0.093537,0.494912,-1.275018,-0.006647,0.445340,5.940458,2.317064,-0.105091,0.047193,0.000000,-0.127361,-0.049618,0.000000
5.130000,2.450890,2.550464,-1.513522,0.140970,0.956478,0.094739,-0.462753,-1.058236,-0.093488,0.499123,-1.214618,0.016363,0.395679,6.136100,2.282336,-0.106336,0.046692,0.000000,-0.121554,-0.049928,0.000000
5.140000,2.452277,2.559976,-1.512579,0.136367,0.945835,0.093805,-0.457742,-1.070075,-0.093210,0.502826,-1.152296,0.039000,0.343783,6.326887,2.243515,-0.107522,0.046189,0.000000,-0.115562,-0.050193,0.000000
5.150000,2.453618,2.569381,-1.511646,0.131815,0.935076,0.092875,-0.452696,-1.081282,-0.092708,0.505999,-1.088081,0.061233,0.289237,6.512926,2.201175,-0.108647,0.045683,0.000000,-0.109388,-0.050409,-0.000000
5.160000,2.454913,2.578678,-1.510722,0.127313,0.924209,0.091951,-0.447622,-1.091837,-0.091985,0.508611,-1.022038,0.083023,0.232306,6.691202,2.154140,-0.109710,0.045175,0.000000,-0.103037,-0.050576,0.000000
5.170000,2.456164,2.587865,-1.509807,0.122863,0.913239,0.091035,-0.442524,-1.101723,-0.091047,0.510645,-0.954257,0.104316,0.175080,6.861014,2.101913,-0.110708,0.044665,0.000000,-0.096515,-0.050690,0.000000
5.180000,2.457371,2.596943,-1.508901,0.118463,0.902174,0.090130,-0.437409,-1.110922,-0.089899,0.512112,-0.884817,0.125061,0.117952,7.023198,2.045345,-0.111640,0.044154,0.000000,-0.089829,-0.050753,0.000000
5.190000,2.458533,2.605909,-1.508004,0.114114,0.891021,0.089237,-0.432282,-1.119419,-0.088546,0.513004,-0.813793,0.145223,0.058525,7.177974,1.985710,-0.112504,0.043644,0.000000,-0.082985,-0.050765,0.000000
5.200000,2.459653,2.614763,-1.507116,0.109817,0.879786,0.088359,-0.427149,-1.127198,-0.086995,0.513283,-0.741258,0.164776,-0.004097,7.324625,1.922975,-0.113300,0.043133,0.000000,-0.075989,-0.050722,0.000000
5.210000,2.460730,2.623504,-1.506237,0.105571,0.868477,0.087497,-0.422016,-1.134244,-0.085251,0.512922,-0.667300,0.183683,-0.067880,7.462768,1.856857,-0.114024,0.042623,0.000000,-0.068847,-0.050620,0.000000
5.220000,2.461764,2.632132,-1.505366,0.101377,0.857101,0.086654,-0.416891,-1.140544,-0.083321,0.511925,-0.592002,0.201913,-0.130024,7.593396,1.788698,-0.114677,0.042114,0.000000,-0.061566,-0.050461,0.000000
5.230000,2.462757,2.640646,-1.504504,0.097234,0.845666,0.085831,-0.411778,-1.146084,-0.081212,0.510321,-0.515432,0.219457,-0.190860,7.716355,1.719147,-0.115256,0.041607,0.000000,-0.054152,-0.050247,0.000000
5.240000,2.463709,2.649046,-1.503650,0.093141,0.834179,0.085030,-0.406684,-1.150853,-0.078932,0.508108,-0.437675,0.236296,-0.253651,7.829840,1.647026,-0.115760,0.041102,0.000000,-0.046611,-0.049977,0.000000
5.250000,2.464620,2.657330,-1.502803,0.089100,0.822649,0.084252,-0.401616,-1.154838,-0.076487,0.505248,-0.358835,0.252397,-0.318675,7.933698,1.571808,-0.116188,0.040600,0.000000,-0.038952,-0.049648,0.000000
5.260000,2.465491,2.665499,-1.501965,0.085109,0.811083,0.083500,-0.396579,-1.158029,-0.073884,0.501734,-0.279001,0.267732,-0.383445,8.028772,1.494862,-0.116539,0.040102,0.000000,-0.031182,-0.049260,0.000000
5.270000,2.466322,2.673552,-1.501133,0.081168,0.799488,0.082774,-0.391581,-1.160418,-0.071132,0.497580,-0.198260,0.282294,-0.447012,8.114433,1.418520,-0.116811,0.039608,0.000000,-0.023309,-0.048812,0.000000
5.280000,2.467114,2.681489,-1.500309,0.077277,0.787874,0.082077,-0.386628,-1.161995,-0.068238,0.492794,-0.116713,0.296102,-0.509974,8.190173,1.342941,-0.117005,0.039119,0.000000,-0.015341,-0.048307,0.000000
5.290000,2.467868,2.689309,-1.499492,0.073436,0.776249,0.081410,-0.381725,-1.162752,-0.065210,0.487380,-0.034457,0.309153,-0.573137,8.256480,1.265665,-0.117118,0.038636,0.000000,-0.007288,-0.047743,0.000000
5.300000,2.468583,2.697014,-1.498681,0.069643,0.764619,0.080773,-0.376880,-1.162684,-0.062055,0.481331,0.048417,0.321416,-0.636599,8.312814,1.185572,-0.117151,0.038158,0.000000,0.000844,-0.047120,-0.000000
5.310000,2.469261,2.704602,-1.497876,0.065898,0.752995,0.080169,-0.372099,-1.161784,-0.058782,0.474648,0.131800,0.332865,-0.699507,8.358477,1.104880,-0.117101,0.037687,0.000000,0.009045,-0.046437,0.000000
5.320000,2.469901,2.712073,-1.497078,0.062201,0.741384,0.079597,-0.367387,-1.160048,-0.055398,0.467341,0.215586,0.343513,-0.760765,8.394423,1.027429,-0.116970,0.037223,0.000000,0.017306,-0.045697,-0.000000
5.330000,2.470505,2.719429,-1.496284,0.058550,0.729794,0.079061,-0.362752,-1.157472,-0.051911,0.459433,0.299688,0.353413,-0.820419,8.420721,0.953115,-0.116755,0.036767,0.000000,0.025617,-0.044899,0.000000
5.340000,2.471072,2.726669,-1.495496,0.054946,0.718234,0.078559,-0.358198,-1.154054,-0.048329,0.450933,0.384001,0.362575,-0.879726,8.435589,0.877375,-0.116457,0.036319,0.000000,0.033970,-0.044046,0.000000
5.350000,2.471603,2.733794,-1.494713,0.051386,0.706713,0.078094,-0.353733,-1.149792,-0.044660,0.441838,0.468400,0.370961,-0.938849,8.438227,0.798677,-0.116076,0.035880,0.000000,0.042353,-0.043136,0.000000
5.360000,2.472100,2.740804,-1.493934,0.047871,0.695238,0.077666,-0.349362,-1.144686,-0.040910,0.432156,0.552765,0.378549,-0.996645,8.429490,0.720577,-0.115610,0.035450,0.000000,0.050756,-0.042170,0.000000
5.370000,2.472561,2.747699,-1.493160,0.044399,0.683819,0.077276,-0.345090,-1.138737,-0.037089,0.421905,0.636990,0.385372,-1.052461,8.410481,0.647595,-0.115061,0.035031,0.000000,0.059167,-0.041149,0.000000
5.380000,2.472988,2.754480,-1.492389,0.040969,0.672464,0.076924,-0.340924,-1.131946,-0.033203,0.411107,0.720975,0.391501,-1.106599,8.380608,0.579096,-0.114427,0.034622,0.000000,0.067578,-0.040076,0.000000
5.390000,2.473380,2.761148,-1.491621,0.037581,0.661180,0.076612,-0.336868,-1.124317,-0.029259,0.399773,0.804602,0.396954,-1.159521,8.337910,0.509565,-0.113709,0.034224,0.000000,0.075975,-0.038950,0.000000
5.400000,2.473739,2.767704,-1.490857,0.034232,0.649977,0.076339,-0.332928,-1.115854,-0.025264,0.387916,0.887733,0.401692,-1.210710,8.282410,0.437452,-0.112907,0.033838,0.000000,0.084347,-0.037773,0.000000
5.410000,2.474065,2.774148,-1.490095,0.030922,0.638863,0.076106,-0.329109,-1.106563,-0.021225,0.375559,0.970250,0.405703,-1.259717,8.214993,0.366835,-0.112022,0.033463,0.000000,0.092682,-0.036547,0.000000
5.420000,2.474358,2.780481,-1.489335,0.027650,0.627846,0.075914,-0.325417,-1.096449,-0.017150,0.362722,1.052033,0.409029,-1.307471,8.134458,0.302002,-0.111054,0.033102,0.000000,0.100967,-0.035274,0.000000
5.430000,2.474618,2.786704,-1.488576,0.024414,0.616934,0.075763,-0.321855,-1.085522,-0.013044,0.349410,1.132939,0.411743,-1.354023,8.040094,0.242023,-0.110003,0.032754,0.000000,0.109188,-0.033954,0.000000
5.440000,2.474846,2.792820,-1.487819,0.021213,0.606136,0.075654,-0.318429,-1.073790,-0.008915,0.335642,1.212835,0.413869,-1.397770,7.933108,0.181605,-0.108870,0.032419,0.000000,0.117330,-0.032588,-0.000000
5.450000,2.475042,2.798827,-1.487063,0.018045,0.595458,0.075585,-0.315142,-1.061265,-0.004767,0.321454,1.291601,0.415375,-1.438255,7.813978,0.119239,-0.107656,0.032098,0.000000,0.125383,-0.031179,0.000000
5.460000,2.475207,2.804729,-1.486308,0.014910,0.584910,0.075558,-0.312000,-1.047958,-0.000607,0.306876,1.369115,0.416254,-1.476378,7.681467,0.058721,-0.106362,0.031792,0.000000,0.133333,-0.029732,0.000000
5.470000,2.475340,2.810525,-1.485552,0.011805,0.574499,0.075573,-0.309005,-1.033883,0.003558,0.291927,1.445231,0.416550,-1.512544,7.533706,0.004115,-0.104989,0.031500,0.000000,0.141165,-0.028246,0.000000
5.480000,2.475443,2.816219,-1.484796,0.008730,0.564233,0.075629,-0.306161,-1.019054,0.007724,0.276626,1.519789,0.416336,-1.546286,7.370644,-0.045512,-0.103539,0.031224,0.000000,0.148861,-0.026724,0.000000
5.490000,2.475515,2.821810,-1.484039,0.005682,0.554118,0.075727,-0.303472,-1.003487,0.011885,0.261001,1.592644,0.415639,-1.576815,7.194289,-0.095335,-0.102012,0.030963,0.000000,0.156406,-0.025168,0.000000
5.500000,2.475557,2.827301,-1.483282,0.002660,0.544163,0.075867,-0.300941,-0.987201,0.016037,0.245089,1.663674,0.414430,-1.603912,7.005595,-0.146716,-0.100410,0.030718,0.000000,0.163788,-0.023583,0.000000
5.510000,2.475568,2.832693,-1.482522,-0.000337,0.534374,0.076048,-0.298570,-0.970214,0.020173,0.228923,1.732756,0.412705,-1.627879,6.802823,-0.196045,-0.098736,0.030489,0.000000,0.170993,-0.021970,0.000000
5.520000,2.475550,2.837988,-1.481761,-0.003311,0.524759,0.076271,-0.296363,-0.952546,0.024291,0.212532,1.799731,0.410509,-1.648772,6.582690,-0.239970,-0.096991,0.030276,0.000000,0.178003,-0.020333,-0.000000
5.530000,2.475502,2.843188,-1.480997,-0.006264,0.515323,0.076534,-0.294320,-0.934219,0.028384,0.195947,1.864409,0.407906,-1.666225,6.345255,-0.279550,-0.095176,0.030080,0.000000,0.184798,-0.018676,0.000000
5.540000,2.475425,2.848295,-1.480230,-0.009197,0.506074,0.076838,-0.292444,-0.915257,0.032449,0.179207,1.926636,0.404918,-1.679874,6.094596,-0.319112,-0.093295,0.029901,0.000000,0.191361,-0.017000,0.000000
5.550000,2.475318,2.853310,-1.479460,-0.012113,0.497018,0.077183,-0.290736,-0.895686,0.036482,0.162350,1.986301,0.401523,-1.690101,5.832128,-0.359574,-0.091349,0.029739,0.000000,0.197679,-0.015311,-0.000000
5.560000,2.475182,2.858235,-1.478686,-0.015012,0.488161,0.077568,-0.289197,-0.875531,0.040479,0.145405,2.043279,0.397726,-1.696880,5.554684,-0.398005,-0.089341,0.029593,0.000000,0.203739,-0.013612,0.000000
5.570000,2.475018,2.863073,-1.477909,-0.017897,0.479507,0.077993,-0.287827,-0.854821,0.044437,0.128412,2.097395,0.393563,-1.698578,5.258181,-0.432291,-0.087274,0.029465,0.000000,0.209520,-0.011906,-0.000000
5.580000,2.474824,2.867825,-1.477126,-0.020769,0.471064,0.078457,-0.286628,-0.833584,0.048351,0.111434,2.148442,0.389081,-1.694912,4.943069,-0.463467,-0.085151,0.029354,0.000000,0.215001,-0.010199,0.000000
5.590000,2.474602,2.872494,-1.476339,-0.023629,0.462836,0.078960,-0.285599,-0.811852,0.052218,0.094514,2.196256,0.384294,-1.687804,4.614610,-0.494317,-0.082974,0.029260,0.000000,0.220162,-0.008497,0.000000
5.600000,2.474352,2.877082,-1.475547,-0.026481,0.454827,0.079501,-0.284738,-0.789658,0.056036,0.077677,2.240734,0.379194,-1.677737,4.275427,-0.524988,-0.080747,0.029184,0.000000,0.224992,-0.006801,0.000000
5.610000,2.474073,2.881591,-1.474749,-0.029324,0.447043,0.080080,-0.284045,-0.767037,0.059802,0.060959,2.281765,0.373794,-1.663188,3.921576,-0.553752,-0.078474,0.029124,0.000000,0.229478,-0.005115,-0.000000
5.620000,2.473765,2.886023,-1.473946,-0.032162,0.439486,0.080697,-0.283519,-0.744023,0.063512,0.044414,2.319166,0.368119,-1.642686,3.546021,-0.580584,-0.076158,0.029081,0.000000,0.233598,-0.003445,0.000000
5.630000,2.473430,2.890381,-1.473136,-0.034995,0.432162,0.081351,-0.283157,-0.720654,0.067164,0.028106,2.352685,0.362183,-1.616408,3.149440,-0.606297,-0.073802,0.029055,0.000000,0.237327,-0.001798,0.000000
5.640000,2.473065,2.894666,-1.472319,-0.037825,0.425073,0.082040,-0.282957,-0.696969,0.070756,0.012086,2.382155,0.355993,-1.586034,2.741140,-0.630920,-0.071411,0.029045,0.000000,0.240644,-0.000178,-0.000000
5.650000,2.472673,2.898882,-1.471495,-0.040654,0.418223,0.082766,-0.282915,-0.673011,0.074284,-0.003615,2.407508,0.349564,-1.552482,2.324770,-0.653510,-0.068989,0.029051,0.000000,0.243541,0.001410,0.000000
5.660000,2.472252,2.903031,-1.470663,-0.043483,0.411613,0.083526,-0.283029,-0.648819,0.077747,-0.018964,2.428650,0.342923,-1.514355,1.893841,-0.674268,-0.066540,0.029073,0.000000,0.246006,0.002964,-0.000000
5.670000,2.471803,2.907114,-1.469824,-0.046314,0.405246,0.084321,-0.283295,-0.624438,0.081143,-0.033902,2.445385,0.336079,-1.468873,1.439339,-0.695973,-0.064069,0.029111,0.000000,0.248019,0.004478,-0.000000
5.680000,2.471326,2.911136,-1.468977,-0.049149,0.399124,0.085149,-0.283707,-0.599912,0.084469,-0.048342,2.457437,0.329004,-1.416072,0.962792,-0.718935,-0.061580,0.029163,0.000000,0.249548,0.005941,0.000000
5.690000,2.470820,2.915097,-1.468121,-0.051988,0.393248,0.086010,-0.284261,-0.575289,0.087723,-0.062224,2.464641,0.321700,-1.359500,0.476331,-0.739431,-0.059078,0.029230,0.000000,0.250575,0.007348,0.000000
