time,x,y,z,vx,vy,vz,ax,ay,az,jx,jy,jz,sx,sy,sz,roll,pitch,yaw,p,q,r
0.000000,-2.956729,-2.704754,-1.443561,-0.022998,-0.004114,0.025712,0.162293,-0.010240,-0.039522,7.371857,-0.129346,-2.206454,-73.896803,50.191243,-20.688545,-0.001039,-0.016476,0.000000,-0.012885,-0.744555,0.000000
0.010000,-2.956959,-2.704795,-1.443304,-0.021375,-0.004217,0.025317,0.236012,-0.011533,-0.061586,6.632889,0.372567,-2.413340,-294.692099,89.700285,26.228984,-0.001168,-0.023904,0.000000,0.038035,-0.665691,0.000000
0.020000,-2.957156,-2.704839,-1.443054,-0.018278,-0.004345,0.024480,0.294951,-0.002788,-0.087788,1.478015,1.664660,-1.681875,-477.509393,125.028307,87.229334,-0.000282,-0.029791,0.000000,0.168159,-0.144136,0.000000
0.030000,-2.957324,-2.704882,-1.442814,-0.015476,-0.004273,0.023561,0.265572,0.021760,-0.095224,-2.917299,2.873133,-0.668753,-217.453868,99.462047,57.274312,0.002196,-0.026805,0.000000,0.289826,0.296118,-0.000000
0.040000,-2.957466,-2.704924,-1.442583,-0.012966,-0.003910,0.022576,0.236605,0.054674,-0.101164,-2.871062,3.653901,-0.536388,5.112151,72.689927,11.646004,0.005515,-0.023868,0.000000,0.368289,0.290801,-0.000000
0.050000,-2.957584,-2.704960,-1.442363,-0.010744,-0.003179,0.021538,0.208151,0.094838,-0.105951,-2.815056,4.326931,-0.435833,6.055866,62.298520,8.710959,0.009562,-0.020988,0.000000,0.435862,0.284676,0.000000
0.060000,-2.957681,-2.704988,-1.442153,-0.008803,-0.002013,0.020457,0.180304,0.141213,-0.109880,-2.749945,4.899871,-0.362169,6.933495,52.657729,6.250370,0.014232,-0.018174,0.000000,0.493315,0.277759,0.000000
0.070000,-2.957760,-2.705001,-1.441953,-0.007138,-0.000355,0.019340,0.153152,0.192836,-0.113195,-2.676386,5.380086,-0.310826,7.745937,43.739397,4.229598,0.019428,-0.015432,0.000000,0.541376,0.270078,0.000000
0.080000,-2.957823,-2.704995,-1.441766,-0.005740,0.001844,0.018193,0.126776,0.248815,-0.116097,-2.595026,5.774659,-0.277577,8.494047,35.515361,2.613991,0.025059,-0.012771,0.000000,0.580736,0.261667,-0.000000
0.090000,-2.957874,-2.704964,-1.441590,-0.004602,0.004621,0.017018,0.101251,0.308329,-0.118746,-2.506505,6.090393,-0.258546,9.178735,27.957503,1.368913,0.031043,-0.010197,0.000000,0.612059,0.252567,-0.000000
0.100000,-2.957915,-2.704902,-1.441425,-0.003715,0.008010,0.015818,0.076646,0.370623,-0.121268,-2.411451,6.333809,-0.250199,9.800923,21.037725,0.459734,0.037300,-0.007717,0.000000,0.635990,0.242825,0.000000
0.110000,-2.957949,-2.704804,-1.441273,-0.003069,0.012034,0.014593,0.053022,0.435005,-0.123750,-2.310486,6.511148,-0.249351,10.361482,14.727821,-0.148199,0.043762,-0.005338,0.000000,0.653151,0.232494,0.000000
0.120000,-2.957977,-2.704662,-1.441133,-0.002655,0.016710,0.013343,0.030436,0.500845,-0.126255,-2.204222,6.628366,-0.253163,10.861241,8.999615,-0.489514,0.050363,-0.003063,0.000000,0.664148,0.221631,0.000000
0.130000,-2.958002,-2.704469,-1.441006,-0.002461,0.022051,0.012068,0.008938,0.567572,-0.128814,-2.093262,6.691140,-0.259141,11.301121,3.825013,-0.598848,0.057045,-0.000899,0.000000,0.669571,0.210295,0.000000
0.140000,-2.958026,-2.704221,-1.440892,-0.002476,0.028062,0.010767,-0.011429,0.634668,-0.131437,-1.978199,6.704866,-0.265140,11.682184,-0.824104,-0.510897,0.063754,0.001150,0.000000,0.669988,0.198550,0.000000
0.150000,-2.958051,-2.703908,-1.440791,-0.002689,0.034744,0.009439,-0.030626,0.701670,-0.134116,-1.859618,6.674658,-0.269359,12.005183,-4.975929,-0.260256,0.070444,0.003080,0.000000,0.665946,0.186458,-0.000000
0.160000,-2.958080,-2.703526,-1.440703,-0.003089,0.042095,0.008084,-0.048622,0.768161,-0.136825,-1.738096,6.605347,-0.270345,12.270805,-8.658635,0.118499,0.077073,0.004888,0.000000,0.657969,0.174083,0.000000
0.170000,-2.958113,-2.703066,-1.440629,-0.003662,0.050107,0.006703,-0.065388,0.833776,-0.139523,-1.614202,6.501485,-0.266989,12.479664,-11.900426,0.585274,0.083604,0.006572,0.000000,0.646555,0.161490,0.000000
0.180000,-2.958153,-2.702524,-1.440569,-0.004396,0.058771,0.005294,-0.080906,0.898191,-0.142164,-1.488502,6.367339,-0.258640,12.623528,-14.731444,1.011540,0.090004,0.008129,0.000000,0.632169,0.148740,-0.000000
0.190000,-2.958201,-2.701891,-1.440523,-0.005280,0.068071,0.003859,-0.095158,0.961123,-0.144696,-1.361731,6.206856,-0.246759,12.706284,-17.179175,1.395180,0.096247,0.009559,0.000000,0.615228,0.135911,0.000000
0.200000,-2.958259,-2.701162,-1.440492,-0.006299,0.077993,0.002400,-0.108140,1.022328,-0.147100,-1.234377,6.023755,-0.230736,12.796773,-19.257047,2.394123,0.102309,0.010860,0.000000,0.596135,0.123056,0.000000
0.210000,-2.958327,-2.700331,-1.440475,-0.007443,0.088518,0.000917,-0.119846,1.081598,-0.149311,-1.105796,5.821715,-0.198876,12.888658,-20.994789,3.899490,0.108170,0.012033,0.000000,0.575409,0.110128,-0.000000
0.220000,-2.958407,-2.699392,-1.440474,-0.008696,0.099625,-0.000586,-0.130256,1.138763,-0.151077,-0.976604,5.603860,-0.152746,12.788295,-22.464373,3.890584,0.113817,0.013076,0.000000,0.553397,0.097192,0.000000
0.230000,-2.958501,-2.698339,-1.440487,-0.010048,0.111293,-0.002104,-0.139378,1.193676,-0.152366,-0.850030,5.372428,-0.121064,12.497416,-23.724165,2.292718,0.119238,0.013990,0.000000,0.530013,0.084533,-0.000000
0.240000,-2.958608,-2.697166,-1.440516,-0.011484,0.123499,-0.003634,-0.147257,1.246211,-0.153498,-0.726655,5.129376,-0.106892,12.285798,-24.733635,1.829598,0.124418,0.014779,0.000000,0.505380,0.072195,0.000000
0.250000,-2.958731,-2.695869,-1.440560,-0.012993,0.136217,-0.005174,-0.153911,1.296263,-0.154504,-0.604314,4.877755,-0.084472,12.150529,-25.297325,2.786406,0.129346,0.015445,0.000000,0.480108,0.059996,0.000000
0.260000,-2.958868,-2.694442,-1.440619,-0.014562,0.149424,-0.006724,-0.159343,1.343766,-0.155188,-0.483645,4.623430,-0.051164,11.916441,-25.505512,3.294895,0.134021,0.015989,0.000000,0.454834,0.048005,0.000000
0.270000,-2.959022,-2.692880,-1.440694,-0.016180,0.163093,-0.008278,-0.163584,1.388732,-0.155527,-0.365985,4.367645,-0.018575,11.662949,-26.013897,3.092007,0.138443,0.016414,0.000000,0.429534,0.036334,-0.000000
0.280000,-2.959192,-2.691180,-1.440785,-0.017834,0.177198,-0.009834,-0.166663,1.431119,-0.155559,-0.250386,4.103152,0.010676,11.460762,-26.865368,2.815718,0.142612,0.016722,0.000000,0.403451,0.024881,0.000000
0.290000,-2.959379,-2.689336,-1.440891,-0.019513,0.191715,-0.011389,-0.168592,1.470795,-0.155313,-0.136770,3.830338,0.037740,11.191861,-27.214162,2.652306,0.146513,0.016916,0.000000,0.376634,0.013637,-0.000000
0.300000,-2.959582,-2.687345,-1.441013,-0.021206,0.206614,-0.012940,-0.169398,1.507726,-0.154805,-0.026549,3.558869,0.063723,10.826241,-26.867026,2.554946,0.150145,0.016998,0.000000,0.350041,0.002741,0.000000
0.310000,-2.959803,-2.685204,-1.441150,-0.022901,0.221869,-0.014485,-0.169123,1.541972,-0.154039,0.079755,3.292997,0.088839,10.452446,-26.440595,2.420185,0.153514,0.016972,0.000000,0.324082,-0.007758,0.000000
0.320000,-2.960040,-2.682908,-1.441302,-0.024588,0.237454,-0.016021,-0.167803,1.573586,-0.153028,0.182500,3.030057,0.112126,10.116941,-26.384484,2.166776,0.156627,0.016841,0.000000,0.298469,-0.017901,0.000000
0.330000,-2.960294,-2.680455,-1.441470,-0.026257,0.253341,-0.017546,-0.165473,1.602573,-0.151796,0.282094,2.765307,0.132174,9.794778,-26.530627,1.827653,0.159484,0.016609,0.000000,0.272707,-0.027733,0.000000
0.340000,-2.960565,-2.677841,-1.441653,-0.027898,0.269505,-0.019057,-0.162161,1.628892,-0.150384,0.378396,2.499444,0.148679,9.436017,-26.348008,1.511092,0.162081,0.016279,0.000000,0.246847,-0.037242,-0.000000
0.350000,-2.960852,-2.675065,-1.441851,-0.029500,0.285919,-0.020553,-0.157905,1.652562,-0.148823,0.470814,2.238347,0.162396,9.034633,-25.746948,1.234100,0.164421,0.015854,0.000000,0.221465,-0.046372,-0.000000
0.360000,-2.961155,-2.672123,-1.442064,-0.031056,0.302556,-0.022034,-0.152745,1.673659,-0.147136,0.559089,1.984505,0.173361,8.627775,-25.106447,0.928349,0.166510,0.015339,0.000000,0.196793,-0.055097,0.000000
0.370000,-2.961474,-2.669014,-1.442292,-0.032555,0.319392,-0.023496,-0.146723,1.692252,-0.145356,0.643370,1.736218,0.180963,8.242265,-24.694117,0.565214,0.168357,0.014737,0.000000,0.172645,-0.063434,0.000000
0.380000,-2.961806,-2.665735,-1.442534,-0.033990,0.336402,-0.024941,-0.139877,1.708383,-0.143517,0.723934,1.490623,0.184666,7.869834,-24.405988,0.172608,0.169963,0.014052,0.000000,0.148722,-0.071412,0.000000
0.390000,-2.962153,-2.662286,-1.442791,-0.035353,0.353560,-0.026367,-0.132244,1.722065,-0.141662,0.800766,1.248099,0.184415,7.481198,-23.927090,-0.209192,0.171331,0.013288,0.000000,0.125052,-0.079031,-0.000000
0.400000,-2.962513,-2.658664,-1.443062,-0.036635,0.370843,-0.027774,-0.123862,1.733345,-0.139829,0.873558,1.012081,0.180482,7.069672,-23.206847,-0.583655,0.172465,0.012448,0.000000,0.101966,-0.086258,-0.000000
0.410000,-2.962886,-2.654869,-1.443346,-0.037830,0.388227,-0.029163,-0.114773,1.742306,-0.138053,0.942160,0.783962,0.172742,6.658305,-22.469843,-0.970881,0.173371,0.011537,0.000000,0.079591,-0.093078,0.000000
0.420000,-2.963270,-2.650899,-1.443645,-0.038930,0.405689,-0.030535,-0.105019,1.749025,-0.136374,1.006724,0.562684,0.161064,6.271351,-21.869030,-1.348967,0.174056,0.010558,0.000000,0.057816,-0.099506,0.000000
0.430000,-2.963665,-2.646755,-1.443957,-0.039930,0.423207,-0.031891,-0.094639,1.753560,-0.134831,1.067587,0.346581,0.145763,5.904900,-21.342392,-1.703058,0.174527,0.009516,0.000000,0.036479,-0.105573,0.000000
0.440000,-2.964069,-2.642435,-1.444283,-0.040823,0.440760,-0.033232,-0.083667,1.755956,-0.133459,1.124822,0.135836,0.127003,5.531025,-20.711307,-2.057924,0.174786,0.008414,0.000000,0.015597,-0.111285,0.000000
0.450000,-2.964481,-2.637940,-1.444622,-0.041604,0.458326,-0.034560,-0.072142,1.756277,-0.132291,1.178207,-0.067645,0.104604,5.141297,-19.948712,-2.432156,0.174839,0.007256,0.000000,-0.004648,-0.116617,-0.000000
0.460000,-2.964901,-2.633269,-1.444974,-0.042266,0.475886,-0.035877,-0.060103,1.754603,-0.131367,1.227648,-0.263138,0.078360,4.757445,-19.182244,-2.801584,0.174693,0.006046,0.000000,-0.024192,-0.121558,0.000000
0.470000,-2.965326,-2.628422,-1.445339,-0.042806,0.493418,-0.037187,-0.047589,1.751014,-0.130724,1.273356,-0.451290,0.048573,4.405861,-18.496440,-3.109059,0.174355,0.004787,0.000000,-0.043092,-0.126127,0.000000
0.480000,-2.965757,-2.623400,-1.445718,-0.043218,0.510906,-0.038492,-0.034636,1.745577,-0.130395,1.315765,-0.633067,0.016179,4.082762,-17.856430,-3.353810,0.173831,0.003484,0.000000,-0.061425,-0.130363,0.000000
0.490000,-2.966191,-2.618204,-1.446109,-0.043498,0.528330,-0.039795,-0.021274,1.738353,-0.130401,1.355011,-0.808419,-0.018504,3.756265,-17.164630,-3.606333,0.173126,0.002140,0.000000,-0.079179,-0.134279,-0.000000
0.500000,-2.966627,-2.612834,-1.446514,-0.043643,0.545673,-0.041100,-0.007536,1.729409,-0.130765,1.390890,-0.976359,-0.055948,3.416471,-16.406067,-3.893212,0.172247,0.000758,0.000000,-0.096265,-0.137851,-0.000000
0.510000,-2.967064,-2.607290,-1.446931,-0.043649,0.562918,-0.042410,0.006544,1.718825,-0.131519,1.423341,-1.136540,-0.096368,3.087184,-15.651194,-4.160680,0.171201,-0.000658,0.000000,-0.112647,-0.141072,0.000000
0.520000,-2.967500,-2.601575,-1.447362,-0.043512,0.580050,-0.043730,0.020931,1.706678,-0.132693,1.452634,-1.289383,-0.139162,2.796585,-14.948773,-4.335100,0.169994,-0.002105,0.000000,-0.128355,-0.143965,0.000000
0.530000,-2.967934,-2.595689,-1.447806,-0.043231,0.597052,-0.045064,0.035597,1.693038,-0.134303,1.479273,-1.435515,-0.183070,2.539690,-14.280413,-4.426615,0.168634,-0.003580,0.000000,-0.143422,-0.146579,0.000000
0.540000,-2.968364,-2.589634,-1.448263,-0.042801,0.613910,-0.046416,0.050517,1.677968,-0.136354,1.503428,-1.574991,-0.227694,2.281365,-13.590161,-4.527938,0.167126,-0.005079,0.000000,-0.157846,-0.148929,0.000000
0.550000,-2.968790,-2.583411,-1.448734,-0.042220,0.630611,-0.047791,0.065665,1.661538,-0.138857,1.524900,-1.707319,-0.273629,2.011363,-12.867665,-4.667160,0.165477,-0.006600,0.000000,-0.171582,-0.150995,0.000000
0.560000,-2.969209,-2.577022,-1.449219,-0.041487,0.647141,-0.049194,0.081015,1.643822,-0.141827,1.543655,-1.832345,-0.321037,1.754951,-12.154018,-4.777609,0.163694,-0.008140,0.000000,-0.184615,-0.152770,0.000000
0.570000,-2.969620,-2.570468,-1.449718,-0.040600,0.663488,-0.050628,0.096538,1.624891,-0.145277,1.559999,-1.950399,-0.369181,1.539263,-11.482999,-4.786131,0.161785,-0.009697,0.000000,-0.196960,-0.154285,0.000000
0.580000,-2.970021,-2.563752,-1.450231,-0.039556,0.679639,-0.052099,0.112215,1.604814,-0.149210,1.574440,-2.062005,-0.416760,1.358146,-10.844938,-4.709355,0.159755,-0.011267,0.000000,-0.208644,-0.155591,0.000000
0.590000,-2.970411,-2.556876,-1.450760,-0.038356,0.695584,-0.053612,0.128027,1.583651,-0.153613,1.587162,-2.167298,-0.463368,1.177091,-10.200375,-4.640631,0.157612,-0.012849,0.000000,-0.219670,-0.156705,0.000000
0.600000,-2.970788,-2.549841,-1.451304,-0.036996,0.711312,-0.055171,0.143958,1.561468,-0.158478,1.597982,-2.266012,-0.509572,0.985702,-9.538976,-4.605191,0.155362,-0.014440,0.000000,-0.230019,-0.157611,0.000000
0.610000,-2.971151,-2.542649,-1.451863,-0.035476,0.726813,-0.056782,0.159987,1.538331,-0.163804,1.606876,-2.358077,-0.555472,0.808059,-8.889893,-4.538310,0.153012,-0.016039,0.000000,-0.239681,-0.158304,0.000000
0.620000,-2.971497,-2.535304,-1.452439,-0.033796,0.742079,-0.058447,0.176095,1.514306,-0.169587,1.614143,-2.443810,-0.600339,0.670584,-8.284317,-4.377433,0.150568,-0.017644,0.000000,-0.248676,-0.158816,0.000000
0.630000,-2.971827,-2.527808,-1.453032,-0.031955,0.757099,-0.060173,0.192270,1.489455,-0.175811,1.620287,-2.523764,-0.643020,0.566597,-7.715945,-4.141168,0.148038,-0.019252,0.000000,-0.257037,-0.159199,0.000000
0.640000,-2.972137,-2.520162,-1.453643,-0.029951,0.771868,-0.061964,0.208501,1.463831,-0.182447,1.625475,-2.598129,-0.683162,0.461565,-7.146689,-3.910771,0.145428,-0.020863,0.000000,-0.264779,-0.159472,0.000000
0.650000,-2.972426,-2.512370,-1.454272,-0.027785,0.786376,-0.063822,0.224779,1.437492,-0.189474,1.629519,-2.666697,-0.721236,0.347317,-6.565701,-3.705233,0.142743,-0.022475,0.000000,-0.271888,-0.159618,-0.000000
0.660000,-2.972692,-2.504435,-1.454919,-0.025455,0.800617,-0.065753,0.241091,1.410497,-0.196872,1.632422,-2.729443,-0.757267,0.247032,-6.000572,-3.470244,0.139990,-0.024088,0.000000,-0.278361,-0.159636,0.000000
0.670000,-2.972935,-2.496358,-1.455587,-0.022963,0.814586,-0.067760,0.257428,1.382903,-0.204619,1.634459,-2.786709,-0.790641,0.179056,-5.481088,-3.162576,0.137176,-0.025700,0.000000,-0.284226,-0.159558,-0.000000
0.680000,-2.973151,-2.488143,-1.456274,-0.020307,0.828275,-0.069845,0.273781,1.354763,-0.212685,1.636003,-2.839065,-0.820518,0.135885,-5.000747,-2.800071,0.134306,-0.027309,0.000000,-0.289528,-0.159425,-0.000000
0.690000,-2.973341,-2.479793,-1.456983,-0.017487,0.841681,-0.072013,0.290148,1.326122,-0.221030,1.637177,-2.886724,-0.846642,0.093250,-4.522023,-2.440100,0.131385,-0.028917,0.000000,-0.294288,-0.159251,-0.000000
0.700000,-2.973501,-2.471309,-1.457715,-0.014504,0.854798,-0.074266,0.306524,1.297028,-0.229618,1.637868,-2.929505,-0.869320,0.046084,-4.033669,-2.093605,0.128420,-0.030522,0.000000,-0.298495,-0.159027,0.000000
0.710000,-2.973631,-2.462697,-1.458469,-0.011357,0.867622,-0.076606,0.322905,1.267532,-0.238416,1.638099,-2.967397,-0.888514,0.009860,-3.562122,-1.724231,0.125416,-0.032124,0.000000,-0.302151,-0.158757,0.000000
0.720000,-2.973728,-2.453957,-1.459247,-0.008046,0.880149,-0.079034,0.339286,1.237680,-0.247388,1.638065,-3.000748,-0.903805,-0.005020,-3.136647,-1.310791,0.122377,-0.033722,0.000000,-0.305290,-0.158464,0.000000
0.730000,-2.973792,-2.445094,-1.460049,-0.004571,0.892375,-0.081554,0.355666,1.207517,-0.256492,1.637998,-3.030130,-0.914730,-0.004171,-2.750330,-0.867144,0.119310,-0.035317,0.000000,-0.307966,-0.158176,-0.000000
0.740000,-2.973820,-2.436109,-1.460878,-0.000932,0.904299,-0.084164,0.372046,1.177078,-0.265683,1.637982,-3.055754,-0.921148,-0.002180,-2.365209,-0.423142,0.116218,-0.036908,0.000000,-0.310204,-0.157903,-0.000000
0.750000,-2.973811,-2.427008,-1.461733,0.002870,0.915917,-0.086867,0.388426,1.146402,-0.274915,1.637955,-3.077434,-0.923193,-0.002538,-1.971172,0.016675,0.113106,-0.038497,0.000000,-0.311993,-0.157641,0.000000
0.760000,-2.973762,-2.417791,-1.462615,0.006836,0.927227,-0.089663,0.404805,1.115529,-0.284147,1.637931,-3.095178,-0.920814,0.003307,-1.594095,0.469083,0.109978,-0.040081,0.000000,-0.313338,-0.157396,0.000000
0.770000,-2.973674,-2.408463,-1.463526,0.010966,0.938227,-0.092550,0.421185,1.084498,-0.293331,1.638021,-3.109316,-0.913811,0.021557,-1.257886,0.938818,0.106839,-0.041664,0.000000,-0.314277,-0.157180,0.000000
0.780000,-2.973543,-2.399027,-1.464466,0.015260,0.948917,-0.095529,0.437566,1.053343,-0.302423,1.638362,-3.120335,-0.902038,0.048268,-0.954527,1.417211,0.103693,-0.043243,0.000000,-0.314860,-0.157012,0.000000
0.790000,-2.973369,-2.389485,-1.465437,0.019717,0.959294,-0.098599,0.453952,1.022091,-0.311372,1.638986,-3.128407,-0.885467,0.073742,-0.652550,1.894814,0.100542,-0.044821,0.000000,-0.315111,-0.156896,0.000000
0.800000,-2.973149,-2.379841,-1.466438,0.024339,0.969359,-0.101757,0.470345,0.990775,-0.320132,1.639837,-3.133386,-0.864141,0.097300,-0.345572,2.372515,0.097390,-0.046397,0.000000,-0.315023,-0.156830,-0.000000
0.810000,-2.972882,-2.370098,-1.467472,0.029124,0.979110,-0.105001,0.486748,0.959424,-0.328655,1.640932,-3.135318,-0.838017,0.123847,-0.054072,2.852832,0.094241,-0.047972,0.000000,-0.314605,-0.156819,0.000000
0.820000,-2.972566,-2.360259,-1.468538,0.034074,0.988547,-0.108330,0.503164,0.928068,-0.336892,1.642314,-3.134468,-0.807085,0.151128,0.208730,3.326147,0.091098,-0.049547,0.000000,-0.313890,-0.156869,0.000000
0.830000,-2.972200,-2.350327,-1.469638,0.039188,0.997671,-0.111739,0.519595,0.896734,-0.344797,1.643955,-3.131144,-0.771494,0.175796,0.450200,3.787768,0.087964,-0.051123,0.000000,-0.312916,-0.156980,-0.000000
0.840000,-2.971782,-2.340305,-1.470773,0.044466,1.006482,-0.115226,0.536043,0.865445,-0.352322,1.645830,-3.125464,-0.731329,0.199357,0.688237,4.246795,0.084840,-0.052699,0.000000,-0.311700,-0.157152,0.000000
0.850000,-2.971311,-2.330197,-1.471943,0.049909,1.014980,-0.118785,0.552511,0.834225,-0.359423,1.647942,-3.117379,-0.686558,0.223893,0.925270,4.708340,0.081729,-0.054277,0.000000,-0.310244,-0.157387,0.000000
0.860000,-2.970784,-2.320006,-1.473149,0.055516,1.023166,-0.122414,0.569002,0.803098,-0.366053,1.650308,-3.106958,-0.637163,0.246614,1.150656,5.162325,0.078635,-0.055858,0.000000,-0.308559,-0.157691,0.000000
0.870000,-2.970201,-2.309734,-1.474391,0.061289,1.031042,-0.126107,0.585518,0.772086,-0.372167,1.652874,-3.094366,-0.583311,0.259364,1.361338,5.589248,0.075558,-0.057441,0.000000,-0.306669,-0.158060,-0.000000
0.880000,-2.969559,-2.299385,-1.475671,0.067226,1.038608,-0.129857,0.602059,0.741210,-0.377720,1.655495,-3.079732,-0.525378,0.261147,1.562369,5.988445,0.072501,-0.059028,0.000000,-0.304593,-0.158479,0.000000
0.890000,-2.968856,-2.288962,-1.476988,0.073330,1.045866,-0.133661,0.618627,0.710491,-0.382674,1.658097,-3.063118,-0.463542,0.261025,1.758785,6.381989,0.069466,-0.060619,0.000000,-0.302343,-0.158944,-0.000000
0.900000,-2.968092,-2.278467,-1.478344,0.079599,1.052818,-0.137511,0.635221,0.679948,-0.386991,1.660715,-3.044556,-0.397738,0.262847,1.948531,6.777424,0.066454,-0.062215,0.000000,-0.299926,-0.159461,-0.000000
0.910000,-2.967264,-2.267905,-1.479738,0.086034,1.059465,-0.141401,0.651842,0.649600,-0.390629,1.663354,-3.024148,-0.327994,0.258843,2.130012,7.156337,0.063467,-0.063815,0.000000,-0.297357,-0.160032,0.000000
0.920000,-2.966371,-2.257278,-1.481172,0.092636,1.065810,-0.145323,0.668488,0.619465,-0.393550,1.665892,-3.001956,-0.254611,0.236589,2.311938,7.494420,0.060507,-0.065422,0.000000,-0.294647,-0.160646,-0.000000
0.930000,-2.965411,-2.246589,-1.482645,0.099404,1.071854,-0.149272,0.685160,0.589561,-0.395721,1.668086,-2.977909,-0.178106,0.196679,2.497053,7.794055,0.057574,-0.067034,0.000000,-0.291794,-0.161279,-0.000000
0.940000,-2.964383,-2.235841,-1.484157,0.106339,1.077601,-0.153238,0.701850,0.559907,-0.397112,1.669826,-2.952015,-0.098730,0.154038,2.674932,8.083777,0.054671,-0.068653,0.000000,-0.288805,-0.161920,0.000000
0.950000,-2.963285,-2.225037,-1.485710,0.113441,1.083053,-0.157214,0.718556,0.530521,-0.397696,1.671167,-2.924410,-0.016430,0.114081,2.839487,8.372305,0.051798,-0.070278,0.000000,-0.285693,-0.162578,-0.000000
0.960000,-2.962114,-2.214180,-1.487302,0.120710,1.088212,-0.161192,0.735274,0.501419,-0.397441,1.672107,-2.895225,0.068716,0.065267,2.999562,8.637521,0.048957,-0.071909,0.000000,-0.282475,-0.163254,0.000000
0.970000,-2.960870,-2.203273,-1.488934,0.128146,1.093081,-0.165163,0.751998,0.472616,-0.396321,1.672472,-2.864419,0.156320,-0.008001,3.173039,8.853177,0.046148,-0.073547,0.000000,-0.279149,-0.163929,0.000000
0.980000,-2.959551,-2.192318,-1.490605,0.135750,1.097664,-0.169118,0.768723,0.444130,-0.394315,1.671947,-2.831764,0.245780,-0.103728,3.359393,9.023329,0.043374,-0.075191,0.000000,-0.275696,-0.164572,0.000000
0.990000,-2.958155,-2.181319,-1.492316,0.143521,1.101964,-0.173049,0.785437,0.415981,-0.391406,1.670398,-2.797231,0.336787,-0.202505,3.536036,9.179724,0.040634,-0.076841,0.000000,-0.272117,-0.165167,0.000000
1.000000,-2.956681,-2.170279,-1.494066,0.151459,1.105984,-0.176946,0.802131,0.388186,-0.387579,1.667897,-2.761043,0.429374,-0.297741,3.694322,9.331772,0.037931,-0.078497,0.000000,-0.268432,-0.165725,0.000000
1.010000,-2.955126,-2.159200,-1.495855,0.159563,1.109727,-0.180801,0.818795,0.360760,-0.382818,1.664443,-2.723345,0.523422,-0.403610,3.850967,9.455861,0.035265,-0.080158,0.000000,-0.264655,-0.166244,0.000000
1.020000,-2.953490,-2.148084,-1.497682,0.167835,1.113199,-0.184603,0.835420,0.333719,-0.377111,1.659825,-2.684024,0.618491,-0.537927,4.029026,9.525352,0.032638,-0.081824,0.000000,-0.260777,-0.166702,0.000000
1.030000,-2.951770,-2.136936,-1.499547,0.176272,1.116402,-0.188343,0.851992,0.307080,-0.370448,1.653684,-2.642764,0.713929,-0.697590,4.225121,9.545390,0.030050,-0.083494,0.000000,-0.256768,-0.167060,-0.000000
1.040000,-2.949964,-2.125756,-1.501449,0.184875,1.119340,-0.192012,0.868493,0.280864,-0.362832,1.645873,-2.599522,0.809399,-0.859759,4.409555,9.549032,0.027502,-0.085167,0.000000,-0.252623,-0.167301,0.000000
1.050000,-2.948072,-2.114549,-1.503387,0.193642,1.122019,-0.195600,0.884909,0.255089,-0.354260,1.636489,-2.554573,0.904910,-1.017123,4.572254,9.545836,0.024997,-0.086842,0.000000,-0.248365,-0.167433,0.000000
1.060000,-2.946091,-2.103316,-1.505361,0.202573,1.124442,-0.199097,0.901223,0.229772,-0.344734,1.625531,-2.508077,1.000316,-1.185724,4.734149,9.512069,0.022535,-0.088517,0.000000,-0.244010,-0.167457,0.000000
1.070000,-2.944021,-2.092060,-1.507369,0.211666,1.126614,-0.202494,0.917420,0.204928,-0.334254,1.612775,-2.459890,1.095152,-1.384051,4.920700,9.422113,0.020117,-0.090192,0.000000,-0.239541,-0.167345,0.000000
1.080000,-2.941858,-2.080784,-1.509411,0.220921,1.128541,-0.205782,0.933479,0.180574,-0.322831,1.597850,-2.409663,1.188758,-1.608134,5.126317,9.281551,0.017744,-0.091865,0.000000,-0.234922,-0.167054,0.000000
1.090000,-2.939602,-2.069489,-1.511485,0.230336,1.130226,-0.208951,0.949377,0.156734,-0.310479,1.580612,-2.357364,1.280783,-1.833689,5.317601,9.123037,0.015418,-0.093534,0.000000,-0.230147,-0.166565,0.000000
1.100000,-2.937251,-2.058179,-1.513590,0.239909,1.131675,-0.211992,0.965091,0.133427,-0.297215,1.561176,-2.303311,1.371219,-2.052082,5.486425,8.957507,0.013141,-0.095197,0.000000,-0.225242,-0.165889,0.000000
1.110000,-2.934804,-2.046856,-1.515725,0.249638,1.132894,-0.214895,0.980600,0.110668,-0.283055,1.539570,-2.247635,1.459933,-2.279877,5.655284,8.762090,0.010913,-0.096852,0.000000,-0.220218,-0.165023,0.000000
1.120000,-2.932259,-2.035521,-1.517888,0.259521,1.133889,-0.217653,0.995882,0.088474,-0.268016,1.515578,-2.190205,1.546461,-2.538304,5.842445,8.508639,0.008736,-0.098498,0.000000,-0.215056,-0.163941,0.000000
1.130000,-2.929614,-2.024178,-1.520078,0.269555,1.134664,-0.220255,1.010912,0.066864,-0.252125,1.488804,-2.130786,1.630105,-2.822781,6.040522,8.203045,0.006612,-0.100131,0.000000,-0.209730,-0.162593,0.000000
1.140000,-2.926868,-2.012828,-1.522293,0.279739,1.135226,-0.222695,1.025658,0.045859,-0.235414,1.459123,-2.069394,1.710522,-3.104596,6.225442,7.882445,0.004541,-0.101750,0.000000,-0.204236,-0.160959,-0.000000
1.150000,-2.924019,-2.001474,-1.524532,0.290068,1.135581,-0.224964,1.040094,0.025476,-0.217915,1.426712,-2.006278,1.787754,-3.375482,6.393651,7.557568,0.002527,-0.103350,0.000000,-0.198592,-0.159053,0.000000
1.160000,-2.921066,-1.990116,-1.526792,0.300541,1.135735,-0.227053,1.054193,0.005733,-0.199659,1.391613,-1.941521,1.861673,-3.654376,6.560484,7.203308,0.000570,-0.104931,0.000000,-0.192801,-0.156875,0.000000
1.170000,-2.918008,-1.978759,-1.529073,0.311152,1.135696,-0.228957,1.067926,-0.013354,-0.180682,1.353625,-1.875068,1.931821,-3.959301,6.732053,6.794785,-0.001329,-0.106488,0.000000,-0.186853,-0.154393,0.000000
1.180000,-2.914843,-1.967403,-1.531371,0.321899,1.135468,-0.230667,1.081265,-0.031768,-0.161023,1.312427,-1.806880,1.997569,-4.284112,6.902493,6.339387,-0.003167,-0.108019,0.000000,-0.180738,-0.151566,-0.000000
1.190000,-2.911570,-1.956049,-1.533686,0.332778,1.135060,-0.232177,1.094175,-0.049492,-0.140730,1.267942,-1.737018,2.058608,-4.603995,7.063369,5.870563,-0.004944,-0.109519,0.000000,-0.174454,-0.148375,0.000000
1.200000,-2.908188,-1.944701,-1.536015,0.343783,1.134479,-0.233482,1.106624,-0.066509,-0.119851,1.220347,-1.665613,2.114980,-4.912075,7.213562,5.398898,-0.006657,-0.110986,0.000000,-0.168009,-0.144832,0.000000
1.210000,-2.904694,-1.933360,-1.538356,0.354910,1.133730,-0.234574,1.118582,-0.082804,-0.098431,1.169701,-1.592747,2.166586,-5.224047,7.357492,4.902495,-0.008304,-0.112416,0.000000,-0.161405,-0.140935,0.000000
1.220000,-2.901089,-1.922027,-1.540706,0.366154,1.132822,-0.235450,1.130018,-0.098364,-0.076519,1.115866,-1.518463,2.213030,-5.554159,7.496226,4.357121,-0.009885,-0.113805,0.000000,-0.154639,-0.136660,-0.000000
1.230000,-2.897371,-1.910703,-1.543065,0.377510,1.131763,-0.236105,1.140899,-0.113173,-0.054170,1.058618,-1.442822,2.253729,-5.896789,7.626970,3.769500,-0.011397,-0.115149,0.000000,-0.147711,-0.131971,-0.000000
1.240000,-2.893539,-1.899391,-1.545428,0.388972,1.130559,-0.236534,1.151190,-0.127220,-0.031444,0.997930,-1.365924,2.288420,-6.231356,7.747168,3.173477,-0.012839,-0.116445,0.000000,-0.140625,-0.126854,-0.000000
1.250000,-2.889592,-1.888092,-1.547795,0.400534,1.129219,-0.236734,1.160858,-0.140492,-0.008402,0.933991,-1.287879,2.317198,-6.551762,7.858908,2.580944,-0.014209,-0.117687,0.000000,-0.133385,-0.121322,-0.000000
1.260000,-2.885529,-1.876807,-1.550163,0.412190,1.127749,-0.236702,1.169870,-0.152978,0.014900,0.866895,-1.208746,2.340039,-6.870342,7.962428,1.970342,-0.015506,-0.118871,0.000000,-0.125993,-0.115376,0.000000
1.270000,-2.881348,-1.865537,-1.552529,0.423932,1.126159,-0.236436,1.178196,-0.164667,0.038399,0.796584,-1.128630,2.356605,-7.198517,8.049213,1.315763,-0.016729,-0.119994,0.000000,-0.118452,-0.108999,0.000000
1.280000,-2.877050,-1.854284,-1.554892,0.435753,1.124456,-0.235934,1.185802,-0.175550,0.062032,0.722925,-1.047761,2.366354,-7.530956,8.117186,0.624575,-0.017875,-0.121051,0.000000,-0.110781,-0.102163,-0.000000
1.290000,-2.872633,-1.843048,-1.557248,0.447648,1.122648,-0.235195,1.192654,-0.185622,0.085726,0.645965,-0.966287,2.369097,-7.850361,8.176745,-0.066231,-0.018944,-0.122038,0.000000,-0.102988,-0.094864,-0.000000
1.300000,-2.868097,-1.831831,-1.559596,0.459607,1.120743,-0.234219,1.198721,-0.194876,0.109414,0.565918,-0.884226,2.365029,-8.154183,8.234197,-0.746182,-0.019935,-0.122949,0.000000,-0.095072,-0.087118,0.000000
1.310000,-2.863441,-1.820633,-1.561932,0.471622,1.118750,-0.233007,1.203973,-0.203307,0.133027,0.482881,-0.801603,2.354173,-8.451942,8.280978,-1.438069,-0.020846,-0.123780,0.000000,-0.087032,-0.078928,-0.000000
1.320000,-2.858664,-1.809456,-1.564256,0.483686,1.116677,-0.231559,1.208379,-0.210908,0.156497,0.396879,-0.718607,2.336268,-8.744293,8.298973,-2.161459,-0.021675,-0.124527,0.000000,-0.078882,-0.070288,0.000000
1.330000,-2.853767,-1.798300,-1.566564,0.495790,1.114532,-0.229877,1.211910,-0.217679,0.179752,0.307995,-0.635623,2.310944,-9.025860,8.288826,-2.907651,-0.022423,-0.125186,0.000000,-0.070660,-0.061196,0.000000
1.340000,-2.848749,-1.787165,-1.568853,0.507924,1.112324,-0.227964,1.214539,-0.223621,0.202716,0.216362,-0.552830,2.278115,-9.293733,8.273833,-3.647616,-0.023088,-0.125751,0.000000,-0.062380,-0.051658,0.000000
1.350000,-2.843609,-1.776053,-1.571123,0.520080,1.110060,-0.225822,1.216237,-0.228735,0.225315,0.122120,-0.470147,2.237991,-9.549404,8.262831,-4.372391,-0.023670,-0.126219,0.000000,-0.054034,-0.041687,-0.000000
1.360000,-2.838347,-1.764964,-1.573370,0.532249,1.107749,-0.223457,1.216981,-0.233023,0.247476,0.025374,-0.387574,2.190667,-9.792277,8.238905,-5.098656,-0.024169,-0.126585,0.000000,-0.045621,-0.031292,0.000000
1.370000,-2.832964,-1.753898,-1.575592,0.544420,1.105399,-0.220873,1.216745,-0.236487,0.269128,-0.073725,-0.305368,2.136018,-10.014079,8.179201,-5.842277,-0.024583,-0.126845,0.000000,-0.037167,-0.020485,0.000000
1.380000,-2.827459,-1.742856,-1.577787,0.556584,1.103019,-0.218075,1.215507,-0.239131,0.290196,-0.174908,-0.223990,2.073821,-10.212301,8.087256,-6.595848,-0.024912,-0.126995,0.000000,-0.028720,-0.009287,0.000000
1.390000,-2.821832,-1.731838,-1.579953,0.568730,1.100617,-0.215069,1.213247,-0.240967,0.310604,-0.277971,-0.143623,2.004101,-10.395505,7.992897,-7.334203,-0.025157,-0.127031,0.000000,-0.020300,0.002279,0.000000
1.400000,-2.816084,-1.720844,-1.582089,0.580849,1.098200,-0.211863,1.209947,-0.242003,0.330278,-0.382818,-0.064132,1.927137,-10.568665,7.907243,-8.050228,-0.025318,-0.126949,0.000000,-0.011897,0.014200,0.000000
1.410000,-2.810215,-1.709874,-1.584191,0.592929,1.095777,-0.208463,1.205590,-0.242249,0.349147,-0.489344,0.014521,1.843097,-10.723468,7.809492,-8.757396,-0.025395,-0.126746,0.000000,-0.003509,0.026460,0.000000
1.420000,-2.804225,-1.698928,-1.586258,0.604961,1.093355,-0.204880,1.200160,-0.241713,0.367140,-0.597287,0.092058,1.751989,-10.842875,7.671754,-9.465189,-0.025388,-0.126419,0.000000,0.004831,0.039028,-0.000000
1.430000,-2.798116,-1.688007,-1.588288,0.616932,1.090942,-0.201121,1.193645,-0.240408,0.384187,-0.706202,0.167957,1.653793,-10.926593,7.499230,-10.166293,-0.025298,-0.125965,0.000000,0.013063,0.051855,0.000000
1.440000,-2.791887,-1.677109,-1.590280,0.628834,1.088547,-0.197196,1.186036,-0.238354,0.400216,-0.815819,0.242043,1.548664,-10.995208,7.329224,-10.843590,-0.025126,-0.125382,0.000000,0.021165,0.064903,0.000000
1.450000,-2.785539,-1.666236,-1.592232,0.640653,1.086175,-0.193116,1.177328,-0.235567,0.415160,-0.926106,0.314541,1.436921,-11.057154,7.173919,-11.493577,-0.024874,-0.124667,0.000000,0.029153,0.078157,0.000000
1.460000,-2.779074,-1.655386,-1.594143,0.652380,1.083835,-0.188893,1.167514,-0.232063,0.428954,-1.036962,0.385521,1.318792,-11.096037,7.008194,-12.123700,-0.024543,-0.123818,0.000000,0.037028,0.091595,0.000000
1.470000,-2.772492,-1.644559,-1.596010,0.664003,1.081534,-0.184537,1.156589,-0.227857,0.441536,-1.148027,0.454705,1.194447,-11.086967,6.803746,-12.733672,-0.024134,-0.122834,0.000000,0.044753,0.105167,0.000000
1.480000,-2.765794,-1.633755,-1.597833,0.675512,1.079278,-0.180062,1.144554,-0.222969,0.452843,-1.258702,0.521596,1.064119,-11.032282,6.568080,-13.317213,-0.023648,-0.121714,0.000000,0.052268,0.118796,-0.000000
1.490000,-2.758981,-1.622974,-1.599611,0.686894,1.077075,-0.175480,1.131415,-0.217425,0.462818,-1.368672,0.586067,0.928103,-10.963557,6.339654,-13.869925,-0.023088,-0.120457,0.000000,0.059551,0.132431,0.000000
1.500000,-2.752056,-1.612214,-1.601343,0.698140,1.074930,-0.170806,1.117180,-0.211247,0.471405,-1.477973,0.648389,0.786720,-10.892341,6.129370,-14.393031,-0.022457,-0.119065,0.000000,0.066621,0.146059,-0.000000
1.510000,-2.745019,-1.601475,-1.603027,0.709238,1.072850,-0.166052,1.101856,-0.204457,0.478553,-1.586519,0.708654,0.640242,-10.795371,5.912288,-14.884992,-0.021756,-0.117536,0.000000,0.073481,0.159653,0.000000
1.520000,-2.737871,-1.590757,-1.604664,0.720177,1.070841,-0.161235,1.085450,-0.197074,0.484210,-1.693880,0.766635,0.489020,-10.641978,5.665088,-15.333626,-0.020987,-0.115871,0.000000,0.080096,0.173146,0.000000
1.530000,-2.730615,-1.580058,-1.606252,0.730947,1.068908,-0.156368,1.067978,-0.189124,0.488333,-1.799359,0.821956,0.333570,-10.437229,5.396441,-15.734776,-0.020154,-0.114072,0.000000,0.086417,0.186444,-0.000000
1.540000,-2.723252,-1.569379,-1.607791,0.741537,1.067058,-0.151468,1.049463,-0.180635,0.490882,-1.902625,0.874564,0.174325,-10.220616,5.138832,-16.099846,-0.019259,-0.112141,0.000000,0.092429,0.199490,0.000000
1.550000,-2.715784,-1.558717,-1.609281,0.751936,1.065296,-0.146550,1.029925,-0.171633,0.491820,-2.003771,0.924732,0.011573,-10.004696,4.899478,-16.435694,-0.018306,-0.110082,0.000000,0.098154,0.212272,0.000000
1.560000,-2.708213,-1.548073,-1.610722,0.762135,1.063626,-0.141632,1.009387,-0.162141,0.491113,-2.102719,0.972553,-0.154389,-9.761824,4.658456,-16.730011,-0.017296,-0.107896,0.000000,0.103591,0.224764,0.000000
1.570000,-2.700542,-1.537445,-1.612114,0.772124,1.062053,-0.136728,0.987871,-0.152182,0.488732,-2.199008,1.017901,-0.323027,-9.460660,4.403224,-16.957026,-0.016234,-0.105586,0.000000,0.108720,0.236893,-0.000000
1.580000,-2.692771,-1.526832,-1.613457,0.781893,1.060582,-0.131857,0.965407,-0.141783,0.484653,-2.291932,1.060618,-0.493530,-9.108604,4.142266,-17.115500,-0.015122,-0.103158,0.000000,0.113516,0.248561,0.000000
1.590000,-2.684904,-1.516233,-1.614751,0.791432,1.059217,-0.127035,0.942032,-0.130970,0.478861,-2.381180,1.100747,-0.665337,-8.746776,3.894257,-17.235269,-0.013964,-0.100615,0.000000,0.117975,0.259712,-0.000000
1.600000,-2.676942,-1.505647,-1.615998,0.800733,1.057962,-0.122280,0.917783,-0.119768,0.471346,-2.466868,1.138503,-0.838235,-8.386549,3.660176,-17.329321,-0.012763,-0.097963,0.000000,0.122115,0.270345,0.000000
1.610000,-2.668889,-1.495074,-1.617197,0.809788,1.056822,-0.117608,0.892695,-0.108200,0.462097,-2.548911,1.173950,-1.011924,-8.000201,3.430250,-17.373170,-0.011522,-0.095208,0.000000,0.125938,0.280433,0.000000
1.620000,-2.660747,-1.484511,-1.618350,0.818587,1.055798,-0.113038,0.866805,-0.096289,0.451107,-2.626872,1.207108,-1.185698,-7.561324,3.208543,-17.327132,-0.010244,-0.092355,0.000000,0.129439,0.289914,-0.000000
1.630000,-2.652517,-1.473958,-1.619458,0.827124,1.054896,-0.108586,0.840158,-0.084057,0.438383,-2.700137,1.238121,-1.358466,-7.078605,3.001787,-17.193730,-0.008933,-0.089410,0.000000,0.132631,0.298701,-0.000000
1.640000,-2.644204,-1.463413,-1.620522,0.835390,1.054117,-0.104270,0.812802,-0.071526,0.423938,-2.768444,1.267144,-1.529573,-6.587338,2.806739,-17.022031,-0.007592,-0.086381,0.000000,0.135527,0.306755,0.000000
1.650000,-2.635809,-1.452875,-1.621543,0.843380,1.053465,-0.100107,0.784789,-0.058715,0.407791,-2.831884,1.294256,-1.698907,-6.095381,2.615697,-16.830918,-0.006223,-0.083276,0.000000,0.138133,0.314081,0.000000
1.660000,-2.627336,-1.442344,-1.622524,0.851086,1.052943,-0.096114,0.756165,-0.045641,0.389960,-2.890351,1.319458,-1.866191,-5.579984,2.434240,-16.583631,-0.004830,-0.080100,0.000000,0.140449,0.320663,0.000000
1.670000,-2.618788,-1.431816,-1.623465,0.858503,1.052553,-0.092308,0.726982,-0.032325,0.370467,-2.943484,1.342941,-2.030580,-5.025159,2.288001,-16.228030,-0.003414,-0.076863,0.000000,0.142495,0.326454,-0.000000
1.680000,-2.610166,-1.421293,-1.624370,0.865626,1.052297,-0.088705,0.697295,-0.018782,0.349348,-2.990854,1.365218,-2.190752,-4.439374,2.180040,-15.770880,-0.001980,-0.073572,0.000000,0.144324,0.331403,0.000000
1.690000,-2.601475,-1.410771,-1.625239,0.872449,1.052177,-0.085321,0.667165,-0.005021,0.326652,-3.032271,1.386542,-2.345997,-3.844764,2.078162,-15.278949,-0.000528,-0.070235,0.000000,0.145966,0.335490,-0.000000
1.700000,-2.592717,-1.400249,-1.626076,0.878969,1.052196,-0.082172,0.636650,0.008949,0.302428,-3.067750,1.406781,-2.496331,-3.243818,1.964361,-14.776156,0.000939,-0.066863,0.000000,0.147408,0.338727,0.000000
1.710000,-2.583896,-1.389727,-1.626883,0.885182,1.052356,-0.079273,0.605810,0.023115,0.276726,-3.097147,1.425829,-2.641520,-2.623478,1.863772,-14.214946,0.002420,-0.063462,0.000000,0.148643,0.341107,0.000000
1.720000,-2.575014,-1.379202,-1.627662,0.891085,1.052658,-0.076637,0.574707,0.037465,0.249598,-3.120219,1.444056,-2.780630,-1.982012,1.826377,-13.533680,0.003912,-0.060041,0.000000,0.149714,0.342612,0.000000
1.730000,-2.566074,-1.368673,-1.628416,0.896676,1.053105,-0.074281,0.543405,0.051996,0.221113,-3.136788,1.462356,-2.912194,-1.325925,1.849726,-12.743403,0.005414,-0.056610,0.000000,0.150718,0.343231,0.000000
1.740000,-2.557080,-1.358140,-1.629147,0.901953,1.053698,-0.072215,0.511971,0.066712,0.191354,-3.146738,1.481051,-3.035498,-0.658907,1.868374,-11.925034,0.006926,-0.053177,0.000000,0.151693,0.342967,-0.000000
1.750000,-2.548035,-1.347599,-1.629860,0.906916,1.054440,-0.070454,0.480471,0.081617,0.160403,-3.149966,1.499724,-3.150695,0.022183,1.853629,-11.106144,0.008447,-0.049751,0.000000,0.152601,0.341833,0.000000
1.760000,-2.538942,-1.337051,-1.630556,0.911563,1.055331,-0.069007,0.448972,0.096707,0.128340,-3.146294,1.518123,-3.257621,0.717459,1.852373,-10.231156,0.009978,-0.046340,0.000000,0.153420,0.339830,0.000000
1.770000,-2.529804,-1.326493,-1.631240,0.915895,1.056374,-0.067887,0.417545,0.111979,0.095251,-3.135617,1.536771,-3.355318,1.414775,1.938219,-9.232834,0.011516,-0.042954,0.000000,0.154212,0.336969,-0.000000
1.780000,-2.520624,-1.315924,-1.631914,0.919914,1.057570,-0.067102,0.386259,0.127442,0.061234,-3.117999,1.556888,-3.442277,2.111299,2.101633,-8.125990,0.013062,-0.039601,0.000000,0.155110,0.333274,0.000000
1.790000,-2.511406,-1.305341,-1.632582,0.923620,1.058922,-0.066662,0.355185,0.143117,0.026405,-3.093391,1.578804,-3.517838,2.821510,2.244304,-7.000931,0.014618,-0.036288,0.000000,0.156151,0.328767,0.000000
1.800000,-2.502152,-1.294745,-1.633247,0.927017,1.060433,-0.066574,0.324392,0.159018,-0.009123,-3.061568,1.601774,-3.582296,3.552467,2.328548,-5.887753,0.016185,-0.033025,0.000000,0.157266,0.323454,-0.000000
1.810000,-2.492865,-1.284133,-1.633914,0.930108,1.062103,-0.066845,0.293953,0.175152,-0.045241,-3.022341,1.625375,-3.635593,4.292087,2.421907,-4.726309,0.017763,-0.029818,0.000000,0.158416,0.317344,0.000000
1.820000,-2.483549,-1.273503,-1.634584,0.932897,1.063936,-0.067479,0.263945,0.191526,-0.081835,-2.975727,1.650212,-3.676822,5.019664,2.615713,-3.446876,0.019353,-0.026677,0.000000,0.159673,0.310466,0.000000
1.830000,-2.474207,-1.262854,-1.635263,0.935387,1.065933,-0.068481,0.234439,0.208157,-0.118777,-2.921948,1.677689,-3.704530,5.736729,2.892462,-2.067124,0.020956,-0.023608,0.000000,0.161184,0.302865,0.000000
1.840000,-2.464842,-1.252184,-1.635954,0.937585,1.068099,-0.069854,0.205506,0.225079,-0.155925,-2.860992,1.708061,-3.718165,6.468893,3.128336,-0.682928,0.022576,-0.020618,0.000000,0.162983,0.294570,-0.000000
1.850000,-2.455456,-1.241492,-1.636660,0.939497,1.070435,-0.071600,0.177219,0.242318,-0.193141,-2.792570,1.740256,-3.718189,7.222960,3.281121,0.673570,0.024216,-0.017714,0.000000,0.164967,0.285581,0.000000
1.860000,-2.446052,-1.230776,-1.637386,0.941130,1.072945,-0.073717,0.149654,0.259885,-0.230289,-2.716533,1.773684,-3.704693,7.980002,3.433138,2.064374,0.025876,-0.014904,0.000000,0.167082,0.275909,0.000000
1.870000,-2.436633,-1.220033,-1.638135,0.942490,1.075633,-0.076206,0.122888,0.277792,-0.267234,-2.632970,1.808919,-3.676901,8.721870,3.680978,3.560504,0.027557,-0.012194,0.000000,0.169395,0.265588,-0.000000
1.880000,-2.427202,-1.209263,-1.638910,0.943587,1.078501,-0.079062,0.096995,0.296063,-0.303827,-2.542096,1.847303,-3.633483,9.453774,3.999582,5.142275,0.029263,-0.009590,0.000000,0.172051,0.254661,-0.000000
1.890000,-2.417761,-1.198463,-1.639716,0.944430,1.081554,-0.082282,0.072046,0.314738,-0.339904,-2.443895,1.888910,-3.574056,10.197644,4.255924,6.709511,0.030998,-0.007098,0.000000,0.175063,0.243150,-0.000000
1.900000,-2.408313,-1.187632,-1.640556,0.945028,1.084796,-0.085860,0.048117,0.333841,-0.375308,-2.338143,1.932422,-3.499293,10.953997,4.410938,8.227850,0.032765,-0.004724,0.000000,0.178308,0.231054,-0.000000
1.910000,-2.398861,-1.176767,-1.641433,0.945393,1.088231,-0.089788,0.025283,0.353386,-0.409890,-2.224815,1.977129,-3.409499,11.707445,4.550034,9.760238,0.034564,-0.002474,0.000000,0.181724,0.218388,0.000000
1.920000,-2.389405,-1.165867,-1.642351,0.945534,1.091863,-0.094058,0.003621,0.373384,-0.443498,-2.103994,2.023422,-3.304088,12.457199,4.754957,11.379276,0.036399,-0.000353,0.000000,0.185362,0.205175,0.000000
1.930000,-2.379950,-1.154930,-1.643314,0.945465,1.095698,-0.098658,-0.016796,0.393854,-0.475972,-1.975671,2.072228,-3.181913,13.209583,4.994752,13.063467,0.038272,0.001633,0.000000,0.189327,0.191428,0.000000
1.940000,-2.370496,-1.143953,-1.644325,0.945198,1.099741,-0.103577,-0.035893,0.414828,-0.507137,-1.839802,2.123317,-3.042819,13.963078,5.154343,14.707784,0.040186,0.003479,0.000000,0.193608,0.177154,-0.000000
1.950000,-2.361046,-1.132935,-1.645386,0.944747,1.103995,-0.108801,-0.053592,0.436321,-0.536828,-1.696409,2.175315,-2.887758,14.705380,5.211805,16.276362,0.042144,0.005180,0.000000,0.198080,0.162360,-0.000000
1.960000,-2.351601,-1.121873,-1.646501,0.944126,1.108467,-0.114314,-0.069821,0.458335,-0.564892,-1.545694,2.227553,-2.717292,15.437807,5.236571,17.833350,0.044148,0.006730,0.000000,0.202692,0.147071,0.000000
1.970000,-2.342163,-1.110766,-1.647672,0.943351,1.113162,-0.120099,-0.084506,0.480872,-0.591174,-1.387653,2.280046,-2.531091,16.192115,5.260050,19.450268,0.046198,0.008125,0.000000,0.207460,0.131287,-0.000000
1.980000,-2.332734,-1.099610,-1.648903,0.942436,1.118084,-0.126137,-0.097574,0.503936,-0.615513,-1.221852,2.332754,-2.328286,16.974362,5.246884,21.103488,0.048297,0.009359,0.000000,0.212402,0.114964,0.000000
1.990000,-2.323315,-1.088404,-1.650195,0.941399,1.123240,-0.132409,-0.108943,0.527527,-0.637740,-1.048166,2.384984,-2.109021,17.738188,5.149162,22.686827,0.050446,0.010427,0.000000,0.217467,0.098084,-0.000000
2.000000,-2.313906,-1.077145,-1.651551,0.940257,1.128635,-0.138892,-0.118537,0.551635,-0.657694,-0.867088,2.435738,-1.874550,18.433967,4.998805,24.163465,0.052647,0.011324,0.000000,0.222573,0.080684,0.000000
2.010000,-2.304510,-1.065831,-1.652973,0.939028,1.134273,-0.145563,-0.126285,0.576242,-0.675231,-0.679486,2.484960,-1.625751,19.095154,4.814833,25.596210,0.054898,0.012044,0.000000,0.227729,0.062833,-0.000000
2.020000,-2.295126,-1.054460,-1.654462,0.937732,1.140160,-0.152397,-0.132127,0.601334,-0.690209,-0.485185,2.532034,-1.362626,19.851767,4.484161,27.054987,0.057202,0.012583,0.000000,0.232895,0.044494,0.000000
2.030000,-2.285755,-1.043028,-1.656020,0.936386,1.146300,-0.159367,-0.135989,0.626882,-0.702483,-0.282451,2.574643,-1.084652,20.693861,3.989004,28.513806,0.059557,0.012935,0.000000,0.237875,0.025484,0.000000
2.040000,-2.276398,-1.031534,-1.657649,0.935012,1.152697,-0.166446,-0.137776,0.652827,-0.711902,-0.071308,2.611814,-0.792350,21.441823,3.474942,29.865945,0.061960,0.013093,0.000000,0.242595,0.005779,0.000000
2.050000,-2.267055,-1.019974,-1.659349,0.933630,1.159356,-0.173605,-0.137415,0.679119,-0.718330,0.146385,2.644142,-0.487333,22.085906,2.952877,31.082046,0.064409,0.013051,0.000000,0.247123,-0.014476,0.000000
2.060000,-2.257725,-1.008347,-1.661121,0.932263,1.166280,-0.180813,-0.134848,0.705710,-0.721649,0.370410,2.670872,-0.170709,22.742825,2.316004,32.222604,0.066903,0.012803,0.000000,0.251399,-0.035294,0.000000
2.070000,-2.248409,-0.996649,-1.662966,0.930933,1.173471,-0.188038,-0.130007,0.732536,-0.721744,0.601242,2.690462,0.157119,23.396607,1.551461,33.331168,0.069438,0.012344,0.000000,0.255294,-0.056759,0.000000
2.080000,-2.239107,-0.984877,-1.664882,0.929663,1.180931,-0.195248,-0.122823,0.759519,-0.718506,0.838342,2.701901,0.495915,24.006294,0.679917,34.376622,0.072010,0.011665,0.000000,0.258728,-0.078861,0.000000
2.090000,-2.229816,-0.973030,-1.666871,0.928477,1.188661,-0.202408,-0.113240,0.786574,-0.711826,1.081368,2.704061,0.844652,24.596951,-0.297430,35.286836,0.074613,0.010762,0.000000,0.261601,-0.101614,0.000000
2.100000,-2.220537,-0.961104,-1.668930,0.927399,1.196662,-0.209484,-0.101196,0.813601,-0.701613,1.330281,2.695953,1.201651,25.142990,-1.309593,36.060499,0.077243,0.009627,0.000000,0.263823,-0.125067,0.000000
2.110000,-2.211268,-0.949097,-1.671060,0.926453,1.204933,-0.216440,-0.086634,0.840493,-0.687793,1.584228,2.677869,1.565862,25.623478,-2.368882,36.731135,0.079891,0.008252,0.000000,0.265420,-0.149192,-0.000000
2.120000,-2.202008,-0.937006,-1.673259,0.925666,1.213472,-0.223240,-0.069512,0.867158,-0.670296,1.842751,2.648575,1.936274,26.124594,-3.710030,37.265457,0.082552,0.006632,0.000000,0.266273,-0.174002,0.000000
2.130000,-2.192755,-0.924827,-1.675525,0.925063,1.222276,-0.229846,-0.049779,0.893465,-0.649068,2.106719,2.603668,2.311171,26.666721,-5.368860,37.634045,0.085217,0.004759,0.000000,0.265953,-0.199642,0.000000
2.140000,-2.183507,-0.912560,-1.677856,0.924670,1.231341,-0.236222,-0.027377,0.919231,-0.624073,2.376085,2.541198,2.688955,27.117784,-7.021718,37.868428,0.087872,0.002624,0.000000,0.264253,-0.226170,-0.000000
2.150000,-2.174262,-0.900201,-1.680250,0.924515,1.240661,-0.242328,-0.002258,0.944289,-0.595288,2.649075,2.463234,3.068539,27.357603,-8.436658,38.007505,0.090503,0.000217,0.000000,0.261344,-0.253484,0.000000
2.160000,-2.165017,-0.887747,-1.682703,0.924625,1.250227,-0.248127,0.025604,0.968496,-0.562702,2.923237,2.372465,3.449105,27.477371,-9.850667,38.012531,0.093099,-0.002468,0.000000,0.257459,-0.281415,0.000000
2.170000,-2.155769,-0.875196,-1.685212,0.925027,1.260031,-0.253582,0.056207,0.991738,-0.526306,3.198622,2.266221,3.828790,27.776532,-11.865534,37.753890,0.095653,-0.005438,0.000000,0.252301,-0.310036,-0.000000
2.180000,-2.146516,-0.862546,-1.687774,0.925749,1.270062,-0.258653,0.089577,1.013820,-0.486126,3.478768,2.135154,4.204183,28.221811,-14.431226,37.217670,0.098146,-0.008700,0.000000,0.244905,-0.339755,0.000000
2.190000,-2.137254,-0.849795,-1.690385,0.926819,1.280307,-0.263304,0.125782,1.034441,-0.442223,3.763059,1.977596,4.573143,28.396661,-16.729472,36.565541,0.100551,-0.012268,0.000000,0.235030,-0.370583,0.000000
2.200000,-2.127980,-0.836940,-1.693040,0.928265,1.290750,-0.267498,0.164838,1.053372,-0.394663,4.046701,1.800564,4.935494,28.295382,-18.584657,35.900459,0.102847,-0.016152,0.000000,0.223288,-0.402125,0.000000
2.210000,-2.118689,-0.823980,-1.695735,0.930116,1.301374,-0.271198,0.206717,1.070452,-0.343513,4.328966,1.605903,5.291153,28.183403,-20.545175,35.094839,0.105017,-0.020356,0.000000,0.209790,-0.434374,0.000000
2.220000,-2.109377,-0.810913,-1.698464,0.932399,1.312160,-0.274368,0.251417,1.085490,-0.288840,4.610369,1.389661,5.637391,27.968531,-22.943217,33.858751,0.107043,-0.024891,0.000000,0.194048,-0.467440,0.000000
2.230000,-2.100041,-0.797737,-1.701222,0.935144,1.323084,-0.276974,0.298924,1.098246,-0.230765,4.888337,1.147039,5.968328,27.539606,-25.613548,32.197117,0.108898,-0.029762,0.000000,0.175437,-0.501112,0.000000
2.240000,-2.090674,-0.784451,-1.704004,0.938378,1.334124,-0.278983,0.349184,1.108431,-0.169474,5.161161,0.877390,6.281333,27.029713,-28.115991,30.493511,0.110551,-0.034976,0.000000,0.153748,-0.535255,-0.000000
2.250000,-2.081273,-0.771054,-1.706802,0.942128,1.345253,-0.280364,0.402147,1.115793,-0.105138,5.428931,0.584719,6.578198,26.484233,-30.214279,28.943504,0.111972,-0.040537,0.000000,0.129274,-0.569914,0.000000
2.260000,-2.071832,-0.757546,-1.709611,0.946421,1.356440,-0.281086,0.457763,1.120126,-0.037910,5.690846,0.273104,6.860203,25.793653,-32.193145,27.271191,0.113135,-0.046450,0.000000,0.102315,-0.605046,0.000000
2.270000,-2.062345,-0.743925,-1.712424,0.951283,1.367655,-0.281122,0.515964,1.121255,0.032066,5.944804,-0.059144,7.123622,24.862469,-34.659306,24.971056,0.114016,-0.052719,0.000000,0.072540,-0.640445,0.000000
2.280000,-2.052806,-0.730193,-1.715234,0.956740,1.378865,-0.280445,0.576659,1.118943,0.104563,6.188095,-0.420082,7.359624,23.664476,-37.457158,22.096592,0.114583,-0.059346,0.000000,0.038897,-0.675784,0.000000
2.290000,-2.043210,-0.716348,-1.718033,0.962816,1.390034,-0.279031,0.639726,1.112854,0.179258,6.418094,-0.808287,7.565553,22.318044,-39.749424,19.328742,0.114791,-0.066328,0.000000,0.001334,-0.710733,0.000000
2.300000,-2.033550,-0.702392,-1.720814,0.969534,1.401123,-0.276860,0.705021,1.102777,0.255874,6.634456,-1.215070,7.746199,21.202478,-41.858906,16.909595,0.114607,-0.073659,0.000000,-0.039355,-0.745230,-0.000000
2.310000,-2.023819,-0.688326,-1.723570,0.976917,1.412090,-0.273913,0.772415,1.088552,0.334182,6.842143,-1.645465,7.903745,20.198685,-44.281365,14.374081,0.114001,-0.081335,0.000000,-0.083800,-0.779745,0.000000
2.320000,-2.014012,-0.674150,-1.726292,0.984983,1.422894,-0.270176,0.841863,1.069868,0.413949,7.038430,-2.100697,8.033681,18.203046,-45.861706,11.156484,0.112927,-0.089359,0.000000,-0.132336,-0.813897,0.000000
2.330000,-2.004120,-0.659868,-1.728973,0.993754,1.433487,-0.265634,0.913184,1.046538,0.494856,7.206204,-2.562700,8.126875,15.225081,-46.377377,7.422209,0.111350,-0.097720,0.000000,-0.183286,-0.845680,0.000000
2.340000,-1.994136,-0.645480,-1.731605,1.003246,1.443824,-0.260279,0.985988,1.018614,0.576486,7.342931,-3.028245,8.182125,12.772007,-47.419728,3.927102,0.109257,-0.106380,0.000000,-0.236367,-0.874594,0.000000
2.350000,-1.984055,-0.630991,-1.734179,1.013474,1.453859,-0.254105,1.060042,0.985974,0.658498,7.461644,-3.511094,8.205417,10.912787,-49.017444,0.646169,0.106618,-0.115319,0.000000,-0.293043,-0.901884,0.000000
2.360000,-1.973867,-0.616403,-1.736687,1.024447,1.463544,-0.247109,1.135220,0.948392,0.740595,7.561187,-4.008594,8.195048,8.643165,-50.075281,-2.898267,0.103391,-0.124523,0.000000,-0.353116,-0.927222,-0.000000
2.370000,-1.963566,-0.601720,-1.739121,1.036178,1.472827,-0.239293,1.211266,0.905802,0.822399,7.634508,-4.512600,8.147452,6.111040,-50.898320,-6.485151,0.099550,-0.133964,0.000000,-0.415747,-0.949564,0.000000
2.380000,-1.953143,-0.586947,-1.741473,1.048673,1.481660,-0.230661,1.287911,0.858140,0.903544,7.683408,-5.026560,8.065345,3.704442,-51.906456,-9.978484,0.095071,-0.143609,0.000000,-0.481255,-0.968880,0.000000
2.390000,-1.942592,-0.572087,-1.743734,1.061936,1.489990,-0.221222,1.364934,0.805270,0.983706,7.708597,-5.550729,7.947882,1.144725,-52.547226,-13.678546,0.089921,-0.153429,0.000000,-0.549629,-0.984974,-0.000000
2.400000,-1.931905,-0.557147,-1.745897,1.075971,1.497765,-0.210987,1.442083,0.747125,1.062501,7.706302,-6.077505,7.791774,-1.765642,-52.439073,-17.197424,0.084074,-0.163387,0.000000,-0.619951,-0.997088,0.000000
2.410000,-1.921073,-0.542132,-1.747954,1.090778,1.504933,-0.199972,1.519060,0.683720,1.139542,7.673284,-6.599510,7.603934,-4.798377,-51.973428,-20.334982,0.077518,-0.173439,0.000000,-0.691154,-1.004683,0.000000
2.420000,-1.910089,-0.527048,-1.749897,1.106352,1.511440,-0.188196,1.595548,0.615135,1.214580,7.610335,-7.116973,7.385075,-7.557867,-51.929272,-24.293748,0.070248,-0.183539,0.000000,-0.763049,-1.007587,0.000000
2.430000,-1.898946,-0.511903,-1.751718,1.122689,1.517235,-0.175680,1.671267,0.541381,1.287243,7.522126,-7.638096,7.118059,-10.186084,-52.075439,-29.158485,0.062254,-0.193638,0.000000,-0.836457,-1.005670,-0.000000
2.440000,-1.887635,-0.496704,-1.753411,1.139778,1.522267,-0.162451,1.745991,0.462373,1.356941,7.406613,-8.158482,6.801905,-13.168230,-51.364981,-33.209642,0.053517,-0.203687,0.000000,-0.910544,-0.998326,0.000000
2.450000,-1.876150,-0.481458,-1.754967,1.157609,1.526483,-0.148541,1.819399,0.378211,1.423281,7.258762,-8.665395,6.453866,-15.907401,-50.446714,-36.292981,0.044043,-0.213628,0.000000,-0.983344,-0.985087,0.000000
2.460000,-1.864483,-0.466174,-1.756381,1.176166,1.529831,-0.133986,1.891166,0.289065,1.486019,7.088465,-9.167416,6.076045,-18.117252,-49.933446,-39.528897,0.033851,-0.223403,0.000000,-1.055471,-0.966918,0.000000
2.470000,-1.852627,-0.450861,-1.757647,1.195432,1.532264,-0.118821,1.961169,0.194863,1.544802,6.896417,-9.664064,5.663288,-21.575835,-47.699491,-42.846388,0.022935,-0.232972,0.000000,-1.126487,-0.943588,0.000000
2.480000,-1.840575,-0.435529,-1.758758,1.215389,1.533729,-0.103090,2.029094,0.095784,1.599284,6.656949,-10.121406,5.219117,-26.419030,-43.368782,-45.707394,0.011325,-0.242273,0.000000,-1.191907,-0.912085,0.000000
2.490000,-1.828319,-0.420187,-1.759709,1.236014,1.534180,-0.086835,2.094307,-0.007565,1.649185,6.368036,-10.531440,4.749140,-30.143053,-39.917539,-48.268915,-0.000898,-0.251209,0.000000,-1.250304,-0.872219,0.000000
2.500000,-1.815854,-0.404845,-1.760494,1.257275,1.533577,-0.070106,2.156455,-0.114845,1.694267,6.054088,-10.919757,4.253739,-32.581174,-38.138113,-51.321772,-0.013675,-0.259712,0.000000,-1.304301,-0.826782,0.000000
2.510000,-1.803174,-0.389515,-1.761111,1.279143,1.531883,-0.052950,2.215389,-0.225960,1.734259,5.716413,-11.294202,3.722705,-35.387158,-35.967682,-54.634629,-0.026977,-0.267740,0.000000,-1.354415,-0.775633,0.000000
2.520000,-1.790271,-0.374207,-1.761553,1.301583,1.529058,-0.035421,2.270783,-0.340729,1.768721,5.346344,-11.639111,3.161047,-38.350939,-31.880916,-56.011182,-0.040755,-0.275224,0.000000,-1.398376,-0.717972,0.000000
2.530000,-1.777142,-0.358934,-1.761819,1.324559,1.525068,-0.017576,2.322316,-0.458743,1.797480,4.949394,-11.931821,2.602481,-40.786412,-26.569332,-55.425976,-0.054935,-0.282106,0.000000,-1.433343,-0.655692,0.000000
2.540000,-1.763780,-0.343706,-1.761905,1.348029,1.519883,0.000529,2.369771,-0.579365,1.820771,4.530616,-12.170497,2.052527,-43.084176,-21.982393,-55.840336,-0.069413,-0.288354,0.000000,-1.459084,-0.589850,0.000000
2.550000,-1.750181,-0.328536,-1.761809,1.371954,1.513481,0.018840,2.412928,-0.702152,1.838531,4.087710,-12.371468,1.485674,-45.776487,-18.197875,-57.510682,-0.084107,-0.293928,0.000000,-1.477316,-0.519588,0.000000
2.560000,-1.736341,-0.313436,-1.761528,1.396288,1.505840,0.037300,2.451525,-0.826795,1.850484,3.615086,-12.534455,0.902313,-48.493840,-13.968558,-58.421551,-0.098949,-0.298779,0.000000,-1.487939,-0.444537,-0.000000
2.570000,-1.722256,-0.298419,-1.761063,1.420984,1.496945,0.055849,2.485230,-0.952842,1.856577,3.117834,-12.650840,0.317243,-49.916784,-9.319940,-58.446124,-0.113856,-0.302860,0.000000,-1.490132,-0.366110,0.000000
2.580000,-1.707921,-0.283497,-1.760411,1.445993,1.486784,0.074431,2.513882,-1.079812,1.856829,2.616751,-12.720854,-0.266609,-50.069224,-4.761331,-58.279774,-0.128742,-0.306148,0.000000,-1.484039,-0.287104,0.000000
2.590000,-1.693336,-0.268684,-1.759574,1.471262,1.475349,0.092986,2.537565,-1.207259,1.851245,2.116449,-12.746066,-0.848352,-50.693652,-0.211530,-57.920404,-0.143527,-0.308650,0.000000,-1.470025,-0.208373,-0.000000
2.600000,-1.678496,-0.253991,-1.758552,1.496744,1.462638,0.111456,2.556211,-1.334733,1.839862,1.602878,-12.725084,-1.425017,-52.136911,4.586154,-57.342515,-0.158134,-0.310359,0.000000,-1.448308,-0.128731,-0.000000
2.610000,-1.663401,-0.239431,-1.757345,1.522386,1.448654,0.129783,2.569623,-1.461760,1.822745,1.073711,-12.654343,-1.995203,-53.182786,9.486222,-56.576458,-0.172487,-0.311258,0.000000,-1.418859,-0.048266,0.000000
2.620000,-1.648049,-0.225017,-1.755956,1.548136,1.433403,0.147911,2.577685,-1.587820,1.799958,0.539222,-12.535360,-2.556546,-53.123392,13.818699,-55.430630,-0.186506,-0.311341,0.000000,-1.382222,0.031515,0.000000
2.630000,-1.632438,-0.210763,-1.754387,1.573940,1.416898,0.165782,2.580407,-1.712468,1.771614,0.011243,-12.377969,-3.103815,-52.322009,17.541358,-53.864881,-0.200126,-0.310619,0.000000,-1.339948,0.108885,-0.000000
2.640000,-1.616570,-0.196679,-1.752640,1.599745,1.399154,0.183343,2.577910,-1.835379,1.737882,-0.507218,-12.184533,-3.633844,-51.639349,21.501270,-52.169479,-0.213301,-0.309122,0.000000,-1.292729,0.183233,0.000000
2.650000,-1.600443,-0.182780,-1.750720,1.625498,1.380190,0.200540,2.570263,-1.956158,1.698937,-1.021544,-11.947944,-4.147205,-51.314444,25.959243,-50.593990,-0.225978,-0.306873,0.000000,-1.240189,0.255037,-0.000000
2.660000,-1.584060,-0.169076,-1.748629,1.651150,1.360031,0.217322,2.557479,-2.074338,1.654938,-1.533507,-11.665348,-4.645724,-50.763155,30.281207,-48.938155,-0.238103,-0.303892,0.000000,-1.182395,0.324443,0.000000
2.670000,-1.567420,-0.155579,-1.746373,1.676648,1.338703,0.233639,2.539593,-2.189465,1.606022,-2.036807,-11.342320,-5.125968,-49.322578,33.789783,-46.581480,-0.249625,-0.300201,0.000000,-1.120404,0.390570,0.000000
2.680000,-1.550527,-0.142302,-1.743957,1.701942,1.316241,0.249442,2.516743,-2.301184,1.552418,-2.519959,-10.989552,-5.577353,-47.169704,36.616420,-43.585205,-0.260512,-0.295836,0.000000,-1.055939,0.451812,0.000000
2.690000,-1.533381,-0.129254,-1.741385,1.726983,1.292680,0.264687,2.489193,-2.409256,1.494475,-2.980201,-10.609991,-5.997672,-45.182983,39.599055,-40.814143,-0.270746,-0.290854,0.000000,-0.989688,0.507866,-0.000000
2.700000,-1.515987,-0.116448,-1.738663,1.751725,1.268056,0.279332,2.457139,-2.513384,1.432465,-3.423618,-10.197571,-6.393636,-43.502580,43.049462,-38.364040,-0.280308,-0.285300,0.000000,-0.921167,0.559677,0.000000
2.710000,-1.498347,-0.103893,-1.735798,1.776125,1.242412,0.293336,2.420721,-2.613208,1.366602,-3.850253,-9.749002,-6.764953,-41.553327,46.358658,-35.677338,-0.289172,-0.279211,0.000000,-0.850327,0.607324,0.000000
2.720000,-1.480465,-0.091600,-1.732796,1.800140,1.215792,0.306664,2.380134,-2.708364,1.297166,-4.254685,-9.270398,-7.107183,-39.087789,48.672792,-32.702624,-0.297318,-0.272632,0.000000,-0.778167,0.650224,-0.000000
2.730000,-1.462344,-0.079577,-1.729665,1.823728,1.188245,0.319280,2.335627,-2.798616,1.224459,-4.632009,-8.775546,-7.419005,-36.314642,50.172973,-29.676999,-0.304740,-0.265614,0.000000,-0.706320,0.687987,0.000000
2.740000,-1.443990,-0.067835,-1.726411,1.846852,1.159820,0.331153,2.287494,-2.883875,1.148786,-4.980978,-8.266938,-7.700723,-33.557707,51.955996,-26.657977,-0.311449,-0.258212,0.000000,-0.635155,0.720676,0.000000
2.750000,-1.425407,-0.056381,-1.723042,1.869478,1.130567,0.342256,2.236008,-2.963954,1.070444,-5.303163,-7.736426,-7.952165,-30.855576,53.999890,-23.499639,-0.317448,-0.250476,0.000000,-0.563996,0.748643,-0.000000
2.760000,-1.406601,-0.045224,-1.719565,1.891573,1.100541,0.352562,2.181431,-3.038604,0.989742,-5.598089,-7.186941,-8.170716,-28.023455,55.569411,-20.214073,-0.322734,-0.242455,0.000000,-0.493342,0.771977,0.000000
2.770000,-1.387576,-0.034370,-1.715990,1.913107,1.069795,0.362050,2.124046,-3.107693,0.907030,-5.863632,-6.625038,-8.356446,-25.004415,56.874860,-17.226536,-0.327320,-0.234199,0.000000,-0.423905,0.790685,0.000000
2.780000,-1.368338,-0.023828,-1.712324,1.934054,1.038387,0.370703,2.064158,-3.171104,0.822613,-6.098178,-6.049443,-8.515246,-21.894363,58.137638,-14.584155,-0.331218,-0.225758,0.000000,-0.355405,0.804964,0.000000
2.790000,-1.348895,-0.013602,-1.708576,1.954390,1.006373,0.378503,2.002083,-3.228682,0.736725,-6.301519,-5.462285,-8.648129,-18.795044,59.007559,-11.739005,-0.334434,-0.217177,0.000000,-0.288049,0.815018,0.000000
2.800000,-1.329251,-0.003700,-1.704754,1.974095,0.973813,0.385437,1.938128,-3.280350,0.649651,-6.474078,-4.869292,-8.750026,-15.654553,59.718633,-8.559983,-0.336984,-0.208503,0.000000,-0.222560,0.820982,0.000000
2.810000,-1.309413,0.005874,-1.700868,1.993152,0.940766,0.391496,1.872601,-3.326068,0.561725,-6.614610,-4.267913,-8.819329,-12.444024,60.490604,-5.451347,-0.338890,-0.199780,0.000000,-0.158718,0.822916,0.000000
2.820000,-1.289388,0.015115,-1.696924,2.011547,0.907292,0.396672,1.805835,-3.365708,0.473264,-6.722959,-3.659480,-8.859053,-9.378714,60.459064,-2.723166,-0.340164,-0.191053,0.000000,-0.096529,0.821081,0.000000
2.830000,-1.269182,0.024020,-1.692934,2.029269,0.873452,0.400961,1.738142,-3.399257,0.384543,-6.802184,-3.058731,-8.873792,-6.515027,59.486199,-0.271892,-0.340826,-0.182361,0.000000,-0.037182,0.816048,0.000000
2.840000,-1.248802,0.032584,-1.688905,2.046310,0.839307,0.404362,1.669792,-3.426883,0.295788,-6.853259,-2.469756,-8.864491,-3.592012,58.795883,2.268009,-0.340912,-0.173736,0.000000,0.019072,0.808083,0.000000
2.850000,-1.228256,0.040806,-1.684847,2.062665,0.804914,0.406877,1.601077,-3.448653,0.207254,-6.874025,-1.882814,-8.828432,-0.494472,58.738819,4.980727,-0.340449,-0.165211,0.000000,0.073153,0.797084,-0.000000
2.860000,-1.207549,0.048682,-1.680768,2.078332,0.770334,0.408507,1.532311,-3.464539,0.119220,-6.863149,-1.294980,-8.764877,2.563095,58.476950,7.600777,-0.339453,-0.156822,0.000000,0.125388,0.783075,-0.000000
2.870000,-1.186689,0.056213,-1.676677,2.093311,0.735623,0.409261,1.463814,-3.474552,0.031956,-6.822763,-0.713275,-8.676417,5.250352,57.332763,9.875944,-0.337945,-0.148601,0.000000,0.175301,0.766444,0.000000
2.880000,-1.165683,0.063395,-1.672582,2.107608,0.700843,0.409147,1.395856,-3.478805,-0.054309,-6.758142,-0.148325,-8.567358,7.597922,55.625481,11.862967,-0.335950,-0.140572,0.000000,0.222158,0.747866,0.000000
2.890000,-1.144537,0.070229,-1.668494,2.121228,0.666047,0.408175,1.328651,-3.477519,-0.139391,-6.670804,0.399235,-8.439157,10.010945,54.234819,13.872664,-0.333505,-0.132755,0.000000,0.266072,0.727585,0.000000
2.900000,-1.123258,0.076716,-1.664419,2.134181,0.631292,0.406359,1.262440,-3.470820,-0.223092,-6.557923,0.936372,-8.289905,12.599711,52.977979,16.038794,-0.330632,-0.125170,0.000000,0.307733,0.705394,-0.000000
2.910000,-1.101853,0.082855,-1.660367,2.146477,0.596631,0.403713,1.197492,-3.458791,-0.305189,-6.418810,1.458795,-8.118381,15.063586,51.318874,18.134803,-0.327352,-0.117837,0.000000,0.346837,0.681295,0.000000
2.920000,-1.080329,0.088649,-1.656345,2.158131,0.562116,0.400255,1.134064,-3.441644,-0.385459,-6.256651,1.962749,-7.927208,17.100829,49.930785,19.788111,-0.323697,-0.110777,0.000000,0.383243,0.655682,0.000000
2.930000,-1.058691,0.094098,-1.652361,2.169158,0.527798,0.396004,1.072359,-3.419536,-0.463733,-6.076793,2.457410,-7.722619,18.777017,49.055766,21.055072,-0.319689,-0.104002,0.000000,0.418030,0.629150,0.000000
2.940000,-1.036945,0.099204,-1.648425,2.179578,0.493726,0.390980,1.012528,-3.392496,-0.539912,-5.881111,2.943865,-7.506107,20.461783,47.755057,22.423635,-0.315338,-0.097519,0.000000,0.451424,0.601900,0.000000
2.950000,-1.015099,0.103972,-1.644542,2.189409,0.459948,0.385206,0.954737,-3.360659,-0.613855,-5.667558,3.412511,-7.274147,22.280009,45.878371,23.965791,-0.310661,-0.091337,0.000000,0.482592,0.573727,0.000000
2.960000,-0.993157,0.108403,-1.640721,2.198673,0.426512,0.378703,0.899177,-3.324246,-0.685395,-5.435511,3.861432,-7.026791,23.962959,44.096658,25.349953,-0.305686,-0.085465,0.000000,0.511479,0.544589,0.000000
2.970000,-0.971126,0.112502,-1.636968,2.207392,0.393463,0.371498,0.846027,-3.283430,-0.754391,-5.188299,4.294445,-6.767147,25.164189,42.607136,26.445858,-0.300432,-0.079912,0.000000,0.538590,0.514813,0.000000
2.980000,-0.949009,0.116273,-1.633291,2.215593,0.360844,0.363615,0.795411,-3.238357,-0.820738,-4.932227,4.713575,-6.497874,25.949376,41.207477,27.364707,-0.294915,-0.074683,0.000000,0.564244,0.484973,-0.000000
2.990000,-0.926814,0.119719,-1.629695,2.223301,0.328696,0.355083,0.747382,-3.189159,-0.884349,-4.669311,5.118594,-6.219853,26.762465,39.708785,28.260141,-0.289147,-0.069772,0.000000,0.588523,0.455225,0.000000
3.000000,-0.904543,0.122847,-1.626189,2.230541,0.297061,0.345928,0.702024,-3.135985,-0.945135,-4.396978,5.507751,-5.932671,27.693657,38.045828,29.148758,-0.283144,-0.065181,0.000000,0.611347,0.425307,0.000000
3.010000,-0.882203,0.125660,-1.622777,2.237341,0.265976,0.336180,0.659443,-3.079004,-1.003002,-4.115438,5.879511,-5.636878,28.435919,36.359978,29.934098,-0.276920,-0.060911,0.000000,0.632672,0.395212,0.000000
3.020000,-0.859796,0.128166,-1.619465,2.243730,0.235481,0.325868,0.619716,-3.018395,-1.057872,-3.828259,6.234950,-5.333989,28.782467,34.922261,30.566870,-0.270489,-0.056961,0.000000,0.652691,0.365229,0.000000
3.030000,-0.837328,0.130370,-1.616260,2.249735,0.205609,0.315023,0.582878,-2.954305,-1.109682,-3.539789,6.577956,-5.025541,28.826077,33.714264,31.086288,-0.263865,-0.053328,0.000000,0.671825,0.335706,-0.000000
3.040000,-0.814802,0.132278,-1.613165,2.255387,0.176394,0.303675,0.548920,-2.886836,-1.158383,-3.251738,6.909235,-4.712264,28.824790,32.387683,31.558946,-0.257052,-0.050004,0.000000,0.690204,0.306750,0.000000
3.050000,-0.792220,0.133898,-1.610186,2.260714,0.147872,0.291855,0.517843,-2.816120,-1.203927,-2.963293,7.225710,-4.394362,28.836412,30.837295,31.968700,-0.250059,-0.046982,0.000000,0.707622,0.278242,0.000000
3.060000,-0.769588,0.135236,-1.607328,2.265744,0.120072,0.279596,0.489654,-2.742321,-1.246270,-2.675009,7.525981,-4.072890,28.688350,29.312484,32.279959,-0.242898,-0.044259,0.000000,0.724028,0.250188,0.000000
3.070000,-0.746906,0.136299,-1.604594,2.270507,0.093025,0.266930,0.464343,-2.665600,-1.285385,-2.389526,7.811959,-3.748763,28.233731,28.075466,32.555107,-0.235577,-0.041826,0.000000,0.739640,0.222773,-0.000000
3.080000,-0.724177,0.137096,-1.601989,2.275031,0.066760,0.253889,0.441864,-2.586082,-1.321246,-2.110335,8.087491,-3.421787,27.525666,27.060106,32.818409,-0.228103,-0.039675,0.000000,0.754814,0.196253,0.000000
3.090000,-0.701405,0.137635,-1.599516,2.279344,0.041304,0.240505,0.422136,-2.503851,-1.353821,-1.839013,8.353161,-3.092395,26.758758,25.931829,32.988247,-0.220479,-0.037795,0.000000,0.769641,0.170719,-0.000000
3.100000,-0.678590,0.137922,-1.597179,2.283474,0.016683,0.226812,0.405083,-2.419019,-1.383093,-1.575160,8.606127,-2.762022,25.985207,24.614899,33.025310,-0.212709,-0.036175,0.000000,0.783935,0.146092,0.000000
3.110000,-0.655736,0.137968,-1.594980,2.287446,-0.007077,0.212843,0.390633,-2.331728,-1.409061,-1.319308,8.845459,-2.431888,25.078854,23.338890,32.993884,-0.204798,-0.034805,0.000000,0.797660,0.122379,0.000000
3.120000,-0.632842,0.137781,-1.592922,2.291286,-0.029951,0.198631,0.378697,-2.242110,-1.431731,-1.073583,9.072905,-2.102145,23.922583,22.284554,32.996256,-0.196753,-0.033674,0.000000,0.810984,0.099722,-0.000000
3.130000,-0.609910,0.137369,-1.591008,2.295020,-0.051919,0.184208,0.369161,-2.150270,-1.451104,-0.840857,9.291150,-1.771963,22.554648,21.381715,33.017549,-0.188577,-0.032770,0.000000,0.824137,0.078328,0.000000
3.140000,-0.586941,0.136742,-1.589238,2.298670,-0.072957,0.169609,0.361880,-2.056287,-1.467170,-0.622490,9.500539,-1.441794,21.138840,20.398503,32.928987,-0.180268,-0.032079,0.000000,0.837172,0.058281,-0.000000
3.150000,-0.563936,0.135910,-1.587615,2.302257,-0.093045,0.154865,0.356711,-1.960259,-1.479940,-0.418080,9.699121,-1.113383,19.749337,19.287913,32.721868,-0.171831,-0.031585,0.000000,0.849962,0.039516,0.000000
3.160000,-0.540896,0.134882,-1.586141,2.305804,-0.112162,0.140010,0.353518,-1.862304,-1.489438,-0.227503,9.886297,-0.787356,18.282257,18.202861,32.486358,-0.163267,-0.031276,0.000000,0.862468,0.021996,0.000000
3.170000,-0.517820,0.133667,-1.584815,2.309328,-0.130291,0.125076,0.352161,-1.762533,-1.495687,-0.052435,10.063178,-0.463656,16.564487,17.249749,32.235176,-0.154579,-0.031139,0.000000,0.874789,0.005839,-0.000000
3.180000,-0.494709,0.132276,-1.583639,2.312847,-0.147413,0.110096,0.352470,-1.661041,-1.498711,0.103787,10.231292,-0.142653,14.635131,16.370473,31.945102,-0.145769,-0.031158,0.000000,0.887061,-0.008683,0.000000
3.190000,-0.471563,0.130719,-1.582613,2.316377,-0.163511,0.095102,0.354237,-1.557907,-1.498540,0.240268,10.390587,0.175246,12.740422,15.425011,31.609306,-0.136836,-0.031314,0.000000,0.899285,-0.021508,-0.000000
3.200000,-0.448382,0.129005,-1.581737,2.319932,-0.178571,0.080125,0.357275,-1.453229,-1.495206,0.358595,10.539793,0.489533,10.909014,14.432692,31.191389,-0.127781,-0.031592,0.000000,0.911357,-0.032785,0.000000
3.210000,-0.425165,0.127147,-1.581011,2.323523,-0.192576,0.065198,0.361409,-1.347112,-1.488749,0.458448,10.679241,0.799074,8.989590,13.476798,30.700563,-0.118606,-0.031976,0.000000,0.923311,-0.042493,-0.000000
3.220000,-0.401911,0.125154,-1.580433,2.327160,-0.205513,0.050350,0.366444,-1.239644,-1.479225,0.538387,10.809329,1.103544,6.971170,12.475276,30.258235,-0.109312,-0.032448,0.000000,0.935175,-0.050507,0.000000
3.230000,-0.378622,0.123037,-1.580004,2.330852,-0.217369,0.035613,0.372177,-1.130925,-1.466679,0.597871,10.928747,1.404238,4.922266,11.382388,29.869922,-0.099901,-0.032992,0.000000,0.946813,-0.056782,0.000000
3.240000,-0.355294,0.120807,-1.579721,2.334603,-0.228132,0.021017,0.378401,-1.021069,-1.451140,0.636832,11.036976,1.700943,2.864675,10.310791,29.370167,-0.090374,-0.033590,0.000000,0.958172,-0.061306,0.000000
3.250000,-0.331929,0.118474,-1.579583,2.338420,-0.237790,0.006591,0.384913,-0.910185,-1.432660,0.655165,11.134962,1.991642,0.774458,9.328919,28.721945,-0.080735,-0.034223,0.000000,0.969340,-0.064055,0.000000
3.260000,-0.308526,0.116051,-1.579589,2.342302,-0.246335,-0.007636,0.391505,-0.798370,-1.411307,0.652322,11.223555,2.275382,-1.342862,8.348129,28.039176,-0.070985,-0.034875,0.000000,0.980379,-0.064964,-0.000000
3.270000,-0.285083,0.113548,-1.579736,2.346250,-0.253758,-0.021636,0.397960,-0.685714,-1.387152,0.628308,11.301925,2.552425,-3.400576,7.194002,27.392441,-0.061125,-0.035526,0.000000,0.991196,-0.064014,0.000000
3.280000,-0.261601,0.110976,-1.580022,2.350261,-0.260050,-0.035379,0.404071,-0.572332,-1.360259,0.584310,11.367435,2.823231,-5.385912,5.884971,26.737489,-0.051159,-0.036158,0.000000,1.001533,-0.061292,0.000000
3.290000,-0.238078,0.108347,-1.580444,2.354331,-0.265204,-0.048841,0.409646,-0.458366,-1.330687,0.520589,11.419624,3.087175,-7.396398,4.647564,25.987376,-0.041092,-0.036754,0.000000,1.011328,-0.056793,-0.000000
3.300000,-0.214514,0.105672,-1.580999,2.358454,-0.269217,-0.061993,0.414483,-0.343939,-1.298515,0.436382,11.460386,3.342978,-9.428700,3.515480,25.182710,-0.030930,-0.037295,0.000000,1.020728,-0.050418,-0.000000
3.310000,-0.190909,0.102962,-1.581684,2.362621,-0.272083,-0.074811,0.418374,-0.229158,-1.263828,0.332016,11.489934,3.590829,-11.402141,2.331976,24.375499,-0.020676,-0.037762,0.000000,1.029723,-0.042164,0.000000
3.320000,-0.167262,0.100230,-1.582495,2.366821,-0.273800,-0.087270,0.421123,-0.114140,-1.226699,0.208339,11.507026,3.830488,-13.316265,1.032643,23.440408,-0.010334,-0.038138,0.000000,1.038172,-0.032071,0.000000
3.330000,-0.143573,0.097486,-1.583429,2.371043,-0.274366,-0.099345,0.422540,0.000983,-1.187218,0.065690,11.510587,4.059637,-15.186569,-0.332170,22.349229,0.000089,-0.038404,0.000000,1.045943,-0.020127,0.000000
3.340000,-0.119841,0.094743,-1.584482,2.375272,-0.273780,-0.111014,0.422437,0.116071,-1.145506,-0.095392,11.500382,4.277473,-16.986977,-1.689360,21.278704,0.010587,-0.038540,0.000000,1.052969,-0.006338,-0.000000
3.350000,-0.096067,0.092011,-1.585649,2.379492,-0.272045,-0.122255,0.420633,0.230990,-1.101669,-0.274049,11.476800,4.485211,-18.714496,-3.031378,20.279194,0.021150,-0.038530,0.000000,1.059239,0.009254,0.000000
3.360000,-0.072251,0.089302,-1.586927,2.383685,-0.269161,-0.133047,0.416956,0.345607,-1.055802,-0.469682,11.439755,4.683057,-20.372486,-4.406769,19.227575,0.031773,-0.038354,0.000000,1.064703,0.026635,-0.000000
3.370000,-0.048394,0.086627,-1.588310,2.387831,-0.265132,-0.143371,0.411239,0.459785,-1.008008,-0.681499,11.388664,4.869763,-21.921899,-5.843689,18.025099,0.042446,-0.037996,0.000000,1.069255,0.045777,-0.000000
3.380000,-0.024495,0.083999,-1.589794,2.391910,-0.259965,-0.153208,0.403326,0.573381,-0.958406,-0.908120,11.322881,5.043559,-23.342594,-7.333424,16.708038,0.053159,-0.037437,0.000000,1.072771,0.066602,0.000000
3.390000,-0.000555,0.081428,-1.591374,2.395898,-0.253665,-0.162539,0.393076,0.686243,-0.907136,-1.148351,11.241996,5.203924,-24.671089,-8.839147,15.404422,0.063902,-0.036661,0.000000,1.075147,0.089039,0.000000
3.400000,0.023423,0.078926,-1.593045,2.399771,-0.246240,-0.171350,0.380359,0.798220,-0.854328,-1.401542,11.146098,5.351647,-25.950422,-10.305205,14.153676,0.074663,-0.035651,0.000000,1.076329,0.113065,0.000000
3.410000,0.047440,0.076503,-1.594801,2.403505,-0.237700,-0.179626,0.365046,0.909165,-0.800103,-1.667359,11.035892,5.486997,-27.138251,-11.759364,12.870717,0.085429,-0.034392,0.000000,1.076319,0.138683,0.000000
3.420000,0.071493,0.074172,-1.596638,2.407072,-0.228057,-0.187352,0.347012,1.018938,-0.744588,-1.944307,10.910911,5.609061,-28.089705,-13.359217,11.458949,0.096190,-0.032866,0.000000,1.074999,0.165792,0.000000
3.430000,0.095581,0.071942,-1.598548,2.410445,-0.217322,-0.194518,0.326159,1.127383,-0.687922,-2.229153,10.768707,5.716176,-28.793634,-15.107596,9.943640,0.106930,-0.031059,0.000000,1.072046,0.194122,0.000000
3.440000,0.119702,0.069825,-1.600528,2.413595,-0.205509,-0.201111,0.302429,1.234312,-0.630265,-2.520180,10.608759,5.807934,-29.431827,-16.784310,8.457083,0.117631,-0.028959,0.000000,1.067319,0.223531,-0.000000
3.450000,0.143853,0.067832,-1.602571,2.416494,-0.192635,-0.207123,0.275756,1.339558,-0.571764,-2.817790,10.433021,5.885318,-30.093395,-18.305906,7.040434,0.128276,-0.026555,0.000000,1.060930,0.254074,0.000000
3.460000,0.168032,0.065973,-1.604670,2.419110,-0.178718,-0.212546,0.246073,1.442973,-0.512558,-3.122047,10.242641,5.948743,-30.638483,-19.822021,5.608107,0.138849,-0.023834,0.000000,1.052910,0.285770,0.000000
3.470000,0.192236,0.064258,-1.606821,2.421415,-0.163776,-0.217374,0.213315,1.544411,-0.452789,-3.430560,10.036581,5.997480,-30.821705,-21.519210,4.070694,0.149334,-0.020782,0.000000,1.043067,0.318402,0.000000
3.480000,0.216460,0.062697,-1.609018,2.423377,-0.147830,-0.221602,0.177462,1.643704,-0.392609,-3.738482,9.812256,6.030157,-30.660238,-23.355230,2.458096,0.159710,-0.017392,0.000000,1.031045,0.351505,0.000000
3.490000,0.240703,0.061301,-1.611254,2.424964,-0.130902,-0.225226,0.138545,1.740656,-0.332186,-4.043764,9.569476,6.046642,-30.473162,-25.075144,0.895541,0.169954,-0.013659,0.000000,1.016728,0.384864,0.000000
3.500000,0.264960,0.060079,-1.613522,2.426147,-0.113017,-0.228246,0.096586,1.835094,-0.271676,-4.347945,9.310754,6.048068,-30.401696,-26.595494,-0.590736,0.180043,-0.009580,0.000000,1.000285,0.418608,-0.000000
3.510000,0.289226,0.059041,-1.615818,2.426896,-0.094200,-0.230660,0.051586,1.926871,-0.211224,-4.651798,9.037566,6.034827,-30.216784,-28.082988,-2.077730,0.189958,-0.005148,0.000000,0.981780,0.452789,-0.000000
3.520000,0.313498,0.058195,-1.618136,2.427179,-0.074479,-0.232470,0.003550,2.015845,-0.150979,-4.952280,8.749094,6.006513,-29.552392,-29.722975,-3.608229,0.199677,-0.000356,0.000000,0.961045,0.487079,0.000000
3.530000,0.337770,0.057551,-1.620468,2.426967,-0.053883,-0.233679,-0.047459,2.101853,-0.091094,-5.242846,8.443107,5.962662,-28.458135,-31.461827,-5.151886,0.209177,0.004793,0.000000,0.937775,0.520791,0.000000
3.540000,0.362037,0.057117,-1.622809,2.426230,-0.032442,-0.234292,-0.101307,2.184707,-0.031726,-5.521443,8.119857,5.903475,-27.421548,-33.041204,-6.644100,0.218431,0.010293,0.000000,0.911921,0.553662,0.000000
3.550000,0.386294,0.056902,-1.625154,2.424941,-0.010189,-0.234314,-0.157888,2.264250,0.026976,-5.791277,7.782283,5.829780,-26.600534,-34.386254,-8.063432,0.227414,0.016138,0.000000,0.883715,0.585948,-0.000000
3.560000,0.410536,0.056914,-1.627495,2.423072,0.012843,-0.233752,-0.217132,2.340353,0.084870,-6.053454,7.432132,5.742207,-25.661886,-35.659743,-9.444187,0.236103,0.022323,0.000000,0.853282,0.617695,0.000000
3.570000,0.434756,0.057159,-1.629829,2.420598,0.036618,-0.232616,-0.278957,2.412893,0.141820,-6.304515,7.069088,5.640897,-24.236296,-37.010200,-10.823818,0.244477,0.028845,0.000000,0.820541,0.648493,0.000000
3.580000,0.458948,0.057646,-1.632148,2.417493,0.061101,-0.230916,-0.343222,2.481735,0.197688,-6.538180,6.691928,5.525730,-22.425745,-38.331777,-12.175293,0.252511,0.035691,0.000000,0.785334,0.677629,0.000000
3.590000,0.483106,0.058381,-1.634447,2.413734,0.086253,-0.228663,-0.409721,2.546732,0.252334,-6.753030,6.302452,5.397391,-20.723853,-39.422796,-13.438429,0.260181,0.042842,0.000000,0.747822,0.704875,0.000000
3.600000,0.507222,0.059371,-1.636721,2.409299,0.112035,-0.225869,-0.478283,2.607784,0.305635,-6.952657,5.903472,5.256962,-19.227345,-40.567537,-14.666153,0.267465,0.050280,0.000000,0.708285,0.730507,-0.000000
3.610000,0.531292,0.060622,-1.638964,2.404168,0.138409,-0.222550,-0.548774,2.664801,0.357473,-7.137577,5.491102,5.104068,-17.615041,-41.858800,-15.883272,0.274344,0.057991,0.000000,0.666321,0.754492,0.000000
3.620000,0.555306,0.062139,-1.641172,2.398323,0.165331,-0.218720,-0.621035,2.717606,0.407717,-7.304958,5.066296,4.939296,-15.704621,-42.416328,-16.905602,0.280789,0.065956,0.000000,0.622039,0.776460,0.000000
3.630000,0.579258,0.063928,-1.643339,2.391747,0.192761,-0.214396,-0.694873,2.766127,0.456259,-7.451669,4.642775,4.765956,-13.659461,-42.161008,-17.698847,0.286782,0.074152,0.000000,0.576899,0.796028,0.000000
3.640000,0.603141,0.065994,-1.645460,2.384426,0.220654,-0.209595,-0.770068,2.810461,0.503036,-7.578147,4.223076,4.585319,-11.714114,-42.300454,-18.509459,0.292324,0.082553,0.000000,0.531221,0.813170,0.000000
3.650000,0.626946,0.068342,-1.647531,2.376346,0.248970,-0.204335,-0.846436,2.850588,0.547966,-7.685951,3.796766,4.395767,-9.561569,-42.985387,-19.441954,0.297404,0.091135,0.000000,0.483970,0.827958,0.000000
3.660000,0.650668,0.070974,-1.649547,2.367497,0.277666,-0.198635,-0.923787,2.886397,0.590951,-7.769378,3.363368,4.196480,-7.091857,-43.390279,-20.314902,0.302001,0.099871,0.000000,0.435132,0.839729,-0.000000
3.670000,0.674296,0.073895,-1.651503,2.357870,0.306698,-0.192516,-1.001824,2.917856,0.631895,-7.827789,2.928960,3.989468,-5.235633,-43.362242,-20.870471,0.306105,0.108723,0.000000,0.385425,0.848363,0.000000
3.680000,0.697825,0.077108,-1.653397,2.347461,0.336023,-0.185997,-1.080343,2.944976,0.670741,-7.874091,2.496123,3.779071,-4.012568,-43.224807,-21.157091,0.309708,0.117663,0.000000,0.335257,0.855181,0.000000
3.690000,0.721246,0.080615,-1.655223,2.336263,0.365597,-0.179101,-1.159305,2.967778,0.707477,-7.908040,2.064464,3.566327,-2.164205,-43.108640,-21.508505,0.312808,0.126679,0.000000,0.284684,0.860141,0.000000
3.700000,0.744550,0.084420,-1.656979,2.324274,0.395378,-0.171848,-1.238504,2.986265,0.742067,-7.917375,1.633951,3.348901,-0.037447,-42.719588,-21.963503,0.315400,0.135741,0.000000,0.233745,0.861923,0.000000
3.710000,0.767731,0.088523,-1.658660,2.311493,0.425323,-0.164260,-1.317653,3.000457,0.774455,-7.908789,1.210072,3.127057,1.544662,-42.006912,-22.295558,0.317482,0.144809,0.000000,0.183042,0.861187,0.000000
3.720000,0.790780,0.092926,-1.660264,2.297921,0.455388,-0.156359,-1.396679,3.010467,0.804608,-7.886482,0.793812,2.902989,3.870589,-41.743104,-22.439876,0.319060,0.153868,0.000000,0.132791,0.858378,-0.000000
3.730000,0.813690,0.097631,-1.661788,2.283560,0.485532,-0.148168,-1.475382,3.016333,0.832515,-7.831377,0.375210,2.678259,7.260443,-41.924923,-22.468552,0.320137,0.162886,0.000000,0.082230,0.851552,0.000000
3.740000,0.836451,0.102637,-1.663228,2.268414,0.515714,-0.139709,-1.553307,3.017971,0.858173,-7.741273,-0.044686,2.453618,9.850941,-41.497086,-22.452892,0.320704,0.171808,0.000000,0.031593,0.840507,0.000000
3.750000,0.859058,0.107945,-1.664582,2.252494,0.545891,-0.131004,-1.630208,3.015440,0.881587,-7.634358,-0.454731,2.229201,11.482431,-40.720816,-22.429593,0.320769,0.180597,0.000000,-0.018033,0.827137,-0.000000
3.760000,0.881501,0.113555,-1.665848,2.235810,0.576023,-0.122077,-1.705994,3.008876,0.902757,-7.511624,-0.859102,2.005027,13.401768,-40.277426,-22.352118,0.320344,0.189237,0.000000,-0.067005,0.811564,0.000000
3.770000,0.903774,0.119465,-1.667023,2.218374,0.606069,-0.112949,-1.780440,2.998258,0.921688,-7.366323,-1.260280,1.782159,15.483740,-39.154782,-22.103171,0.319429,0.197696,0.000000,-0.115432,0.793149,0.000000
3.780000,0.925869,0.125676,-1.668107,2.200201,0.635988,-0.103643,-1.853321,2.983671,0.938401,-7.201949,-1.642198,1.562963,17.182307,-37.053327,-21.692343,0.318035,0.205943,0.000000,-0.161603,0.772340,0.000000
3.790000,0.947778,0.132185,-1.669096,2.181307,0.665742,-0.094181,-1.924479,2.965414,0.952947,-7.022677,-2.001346,1.348312,18.766903,-35.433169,-21.283139,0.316197,0.213956,0.000000,-0.205117,0.749629,0.000000
3.800000,0.969495,0.138991,-1.669990,2.161711,0.695296,-0.084584,-1.993774,2.943644,0.965367,-6.826611,-2.350861,1.137300,20.903277,-34.620389,-20.926257,0.313933,0.221716,0.000000,-0.247254,0.724850,0.000000
3.810000,0.991012,0.146091,-1.670788,2.141432,0.724615,-0.074874,-2.061012,2.918397,0.975693,-6.604611,-2.693754,0.929787,23.317716,-33.611391,-20.513492,0.311253,0.229197,0.000000,-0.288219,0.697119,0.000000
3.820000,1.012324,0.153483,-1.671488,2.120491,0.753664,-0.065070,-2.125866,2.889769,0.983963,-6.360257,-3.023089,0.727030,24.268506,-31.907413,-19.939367,0.308170,0.236361,0.000000,-0.327274,0.666892,-0.000000
3.830000,1.033422,0.161164,-1.672089,2.098915,0.782411,-0.055194,-2.188217,2.857935,0.990233,-6.119241,-3.331902,0.531000,23.813169,-29.891876,-19.243310,0.304708,0.243193,0.000000,-0.363834,0.636894,0.000000
3.840000,1.054302,0.169131,-1.672592,2.076727,0.810823,-0.045266,-2.248251,2.823131,0.994583,-5.883994,-3.620927,0.342164,24.300138,-28.174627,-18.569540,0.300894,0.249713,0.000000,-0.397975,0.607424,0.000000
3.850000,1.074957,0.177381,-1.672994,2.053949,0.838873,-0.035303,-2.305897,2.785516,0.997077,-5.633238,-3.895395,0.159609,25.674069,-26.512461,-17.927269,0.296749,0.255912,0.000000,-0.430082,0.576339,-0.000000
3.860000,1.095381,0.185909,-1.673298,2.030609,0.866533,-0.025324,-2.360916,2.745223,0.997775,-5.370512,-4.151176,-0.016381,26.371028,-24.549210,-17.228144,0.292293,0.261766,0.000000,-0.459756,0.544061,0.000000
3.870000,1.115569,0.194711,-1.673501,2.006731,0.893778,-0.015347,-2.413307,2.702493,0.996749,-5.105818,-4.386379,-0.184954,27.050224,-23.033492,-16.479514,0.287555,0.267275,0.000000,-0.486864,0.511671,0.000000
3.880000,1.135515,0.203784,-1.673605,1.982343,0.920583,-0.005389,-2.463032,2.657495,0.994076,-4.829508,-4.611846,-0.345971,28.284230,-22.139583,-15.723122,0.282557,0.272438,0.000000,-0.512427,0.478235,-0.000000
3.890000,1.155216,0.213123,-1.673609,1.957471,0.946928,0.004534,-2.509897,2.610256,0.989830,-4.540133,-4.829171,-0.499417,29.035857,-20.829554,-14.951227,0.277307,0.277235,0.000000,-0.536611,0.443656,0.000000
3.900000,1.174665,0.222723,-1.673514,1.932145,0.972788,0.014408,-2.553835,2.560912,0.984087,-4.248791,-5.028437,-0.644996,29.190786,-18.951211,-14.133620,0.271825,0.281664,0.000000,-0.558516,0.409101,0.000000
3.910000,1.193859,0.232579,-1.673321,1.906394,0.998146,0.024216,-2.594873,2.509687,0.976930,-3.956317,-5.208195,-0.782089,29.473355,-17.230216,-13.287465,0.266138,0.285730,0.000000,-0.578004,0.374698,0.000000
3.920000,1.212793,0.242686,-1.673030,1.880247,1.022982,0.033946,-2.632961,2.456748,0.968446,-3.659324,-5.373041,-0.910745,29.772300,-15.850699,-12.503722,0.260266,0.289432,0.000000,-0.595537,0.340134,0.000000
3.930000,1.231463,0.253039,-1.672642,1.853735,1.047281,0.043585,-2.668059,2.402226,0.958715,-3.360871,-5.525209,-1.032163,29.824869,-14.571134,-11.789494,0.254228,0.292770,0.000000,-0.611422,0.305703,-0.000000
3.940000,1.249867,0.263631,-1.672158,1.826886,1.071027,0.053120,-2.700179,2.346244,0.947802,-3.062826,-5.664464,-1.146535,29.856017,-13.214644,-11.030613,0.248038,0.295749,0.000000,-0.625676,0.271603,-0.000000
3.950000,1.268001,0.274459,-1.671579,1.799731,1.094206,0.062541,-2.729316,2.288937,0.935784,-2.763751,-5.789502,-1.252776,29.960591,-11.799998,-10.193211,0.241715,0.298374,0.000000,-0.638153,0.237739,0.000000
3.960000,1.285862,0.285516,-1.670907,1.772300,1.116805,0.071836,-2.755454,2.230454,0.922747,-2.463614,-5.900464,-1.350399,29.976406,-10.442810,-9.363430,0.235275,0.300647,0.000000,-0.648883,0.204135,0.000000
3.970000,1.303447,0.296795,-1.670143,1.744622,1.138815,0.080996,-2.778588,2.170928,0.908776,-2.164223,-5.998358,-1.440044,29.787761,-9.160471,-8.629992,0.228737,0.302573,0.000000,-0.658023,0.170960,0.000000
3.980000,1.320754,0.308292,-1.669287,1.716728,1.160224,0.090012,-2.798738,2.110486,0.893946,-1.867859,-6.083673,-1.522999,29.451717,-7.920184,-7.973198,0.222115,0.304159,0.000000,-0.665692,0.138408,0.000000
3.990000,1.337782,0.320000,-1.668342,1.688647,1.181024,0.098875,-2.815945,2.049254,0.878316,-1.575189,-6.156762,-1.599508,29.118307,-6.712088,-7.285384,0.215423,0.305412,0.000000,-0.671954,0.106538,-0.000000
4.000000,1.354527,0.331912,-1.667310,1.660409,1.201209,0.107578,-2.830242,1.987351,0.861956,-1.285493,-6.217915,-1.668707,28.792559,-5.515146,-6.542120,0.208676,0.306341,0.000000,-0.676835,0.075305,0.000000
4.010000,1.370990,0.344024,-1.666191,1.632042,1.220771,0.116114,-2.841655,1.924896,0.844942,-0.999337,-6.267065,-1.730351,28.380852,-4.339786,-5.821455,0.201887,0.306952,0.000000,-0.680348,0.044772,0.000000
4.020000,1.387168,0.356328,-1.664987,1.603576,1.239707,0.124477,-2.850229,1.862010,0.827349,-0.717876,-6.304711,-1.785136,27.891464,-3.266783,-5.191099,0.195069,0.307255,0.000000,-0.682585,0.015027,0.000000
4.030000,1.403061,0.368818,-1.663701,1.575038,1.258012,0.132661,-2.856013,1.798802,0.809239,-0.441508,-6.332400,-1.834173,27.362704,-2.299683,-4.632122,0.188235,0.307259,0.000000,-0.683741,-0.013930,0.000000
4.040000,1.418669,0.381488,-1.662334,1.546456,1.275683,0.140662,-2.859059,1.735362,0.790665,-0.170622,-6.350704,-1.877778,26.783184,-1.330534,-4.062083,0.181394,0.306972,0.000000,-0.683898,-0.042078,-0.000000
4.050000,1.433991,0.394332,-1.660888,1.517857,1.292719,0.148474,-2.859425,1.671788,0.771684,0.094156,-6.359011,-1.915414,26.147900,-0.333610,-3.455202,0.174557,0.306404,0.000000,-0.682996,-0.069345,0.000000
4.060000,1.449026,0.407342,-1.659365,1.489267,1.309119,0.156095,-2.857176,1.608182,0.752357,0.352336,-6.357377,-1.946882,25.472487,0.615273,-2.870795,0.167734,0.305564,0.000000,-0.681052,-0.095683,0.000000
4.070000,1.463776,0.420514,-1.657766,1.460713,1.324883,0.163521,-2.852378,1.544640,0.732746,0.603605,-6.346706,-1.972830,24.769437,1.461897,-2.380822,0.160936,0.304463,0.000000,-0.678182,-0.121092,-0.000000
4.080000,1.478240,0.433840,-1.656094,1.432220,1.340011,0.170750,-2.845104,1.481248,0.712900,0.847725,-6.328139,-1.994499,24.040552,2.229532,-1.970270,0.154170,0.303111,0.000000,-0.674530,-0.145596,-0.000000
4.090000,1.492420,0.447314,-1.654351,1.403811,1.354507,0.177779,-2.835424,1.418077,0.692856,1.084416,-6.302115,-2.012236,23.278279,2.985579,-1.546989,0.147445,0.301517,0.000000,-0.670151,-0.169184,-0.000000
4.100000,1.506317,0.460930,-1.652539,1.375511,1.368373,0.184607,-2.823415,1.355205,0.672656,1.313290,-6.268427,-2.025439,22.471603,3.739427,-1.092238,0.140767,0.299691,0.000000,-0.665020,-0.191809,-0.000000
4.110000,1.519931,0.474682,-1.650659,1.347343,1.381612,0.191233,-2.809158,1.292709,0.652347,1.533848,-6.227326,-2.034080,21.632768,4.446048,-0.669488,0.134144,0.297643,0.000000,-0.659168,-0.213429,-0.000000
4.120000,1.533263,0.488562,-1.648714,1.319328,1.394227,0.197654,-2.792738,1.230659,0.631974,1.745946,-6.179506,-2.038828,20.807134,5.083433,-0.321730,0.127583,0.295384,0.000000,-0.652679,-0.234059,0.000000
4.130000,1.546317,0.502566,-1.646706,1.291488,1.406225,0.203872,-2.774239,1.169119,0.611571,1.949991,-6.125658,-2.040515,19.999216,5.666236,-0.029016,0.121091,0.292923,0.000000,-0.645631,-0.253771,-0.000000
4.140000,1.559093,0.516687,-1.644637,1.263843,1.417610,0.209886,-2.753738,1.108146,0.591164,2.145930,-6.066181,-2.039409,19.154934,6.221904,0.262437,0.114671,0.290271,0.000000,-0.638068,-0.272574,0.000000
4.150000,1.571594,0.530918,-1.642508,1.236413,1.428388,0.215695,-2.731321,1.047795,0.570783,2.333090,-6.001220,-2.035266,18.253875,6.757355,0.560202,0.108329,0.287436,0.000000,-0.630004,-0.290401,-0.000000
4.160000,1.583821,0.545255,-1.640323,1.209217,1.438565,0.221301,-2.707077,0.988121,0.550458,2.511008,-5.931034,-2.028205,17.339357,7.255149,0.828865,0.102070,0.284429,0.000000,-0.621465,-0.307215,0.000000
4.170000,1.595778,0.559690,-1.638082,1.182272,1.448150,0.226704,-2.681100,0.929174,0.530218,2.679877,-5.856117,-2.018689,16.471020,7.697489,1.051226,0.095899,0.281260,0.000000,-0.612504,-0.323055,-0.000000
4.180000,1.607467,0.574218,-1.635789,1.155595,1.457149,0.231906,-2.653479,0.870999,0.510085,2.840428,-5.777085,-2.007180,15.640769,8.090667,1.239197,0.089820,0.277938,0.000000,-0.603183,-0.338009,0.000000
4.190000,1.618890,0.588833,-1.633444,1.129202,1.465570,0.236906,-2.624292,0.813633,0.490075,2.992692,-5.694303,-1.993905,14.776267,8.459528,1.414890,0.083836,0.274472,0.000000,-0.593538,-0.352092,0.000000
4.200000,1.630051,0.603529,-1.631050,1.103109,1.473422,0.241707,-2.593625,0.757113,0.470207,3.135953,-5.607894,-1.978882,13.865627,8.807581,1.584065,0.077949,0.270871,0.000000,-0.583580,-0.365236,-0.000000
4.210000,1.640952,0.618301,-1.628610,1.077330,1.480712,0.246310,-2.561573,0.701475,0.450497,3.270005,-5.518152,-1.962224,12.962022,9.119686,1.733153,0.072164,0.267145,0.000000,-0.573337,-0.377427,0.000000
4.220000,1.651598,0.633143,-1.626124,1.051877,1.487451,0.250717,-2.528225,0.646750,0.430962,3.395194,-5.425500,-1.944219,12.097787,9.392236,1.848367,0.066482,0.263303,0.000000,-0.562849,-0.388709,0.000000
4.230000,1.661990,0.648050,-1.623596,1.026765,1.493647,0.254930,-2.493669,0.592965,0.411613,3.511961,-5.330307,-1.925256,11.259415,9.631929,1.935149,0.060907,0.259354,0.000000,-0.552152,-0.399137,-0.000000
4.240000,1.672133,0.663016,-1.621026,1.002004,1.499310,0.258949,-2.457986,0.540144,0.392457,3.620382,-5.232862,-1.905516,10.411369,9.844657,2.013404,0.055439,0.255305,0.000000,-0.541272,-0.408725,0.000000
4.250000,1.682030,0.678036,-1.618417,0.977605,1.504450,0.262779,-2.421261,0.488308,0.373503,3.720188,-5.133414,-1.884988,9.544954,10.029811,2.084938,0.050081,0.251166,0.000000,-0.530232,-0.417447,0.000000
4.260000,1.691685,0.693105,-1.615770,0.953579,1.509077,0.266419,-2.383582,0.437475,0.354757,3.811281,-5.032265,-1.863818,8.687256,10.185515,2.138163,0.044834,0.246946,0.000000,-0.519058,-0.425296,0.000000
4.270000,1.701102,0.708218,-1.613088,0.929934,1.513200,0.269874,-2.345036,0.387662,0.336226,3.893933,-4.929704,-1.842225,7.868895,10.316498,2.174209,0.039700,0.242652,0.000000,-0.507778,-0.432306,-0.000000
4.280000,1.710284,0.723369,-1.610373,0.906678,1.516830,0.273144,-2.305704,0.338881,0.317913,3.968659,-4.825935,-1.820333,7.084503,10.425148,2.198948,0.034679,0.238293,0.000000,-0.496408,-0.438531,0.000000
4.290000,1.719235,0.738554,-1.607625,0.883820,1.519977,0.276232,-2.265662,0.291144,0.299819,4.035623,-4.721201,-1.798246,6.297437,10.507184,2.212127,0.029772,0.233876,0.000000,-0.484971,-0.443988,-0.000000
4.300000,1.727960,0.753769,-1.604848,0.861365,1.522653,0.279140,-2.224991,0.244457,0.281948,4.094608,-4.615792,-1.776091,5.499366,10.561806,2.211697,0.024979,0.229409,0.000000,-0.473494,-0.448658,-0.000000
4.310000,1.736462,0.769008,-1.602042,0.839320,1.524866,0.281871,-2.183770,0.198828,0.264298,4.145610,-4.509965,-1.754012,4.717498,10.593808,2.200026,0.020302,0.224900,0.000000,-0.462000,-0.452545,0.000000
4.320000,1.744746,0.784266,-1.599211,0.817689,1.526629,0.284426,-2.142079,0.154258,0.246868,4.188958,-4.403916,-1.732090,3.975838,10.607982,2.185158,0.015739,0.220356,0.000000,-0.450507,-0.455680,0.000000
4.330000,1.752816,0.799540,-1.596354,0.796478,1.527952,0.286808,-2.099991,0.110749,0.229656,4.225127,-4.297805,-1.710309,3.267924,10.604300,2.168439,0.011291,0.215785,0.000000,-0.439029,-0.458110,0.000000
4.340000,1.760676,0.814825,-1.593474,0.775690,1.528844,0.289019,-2.057576,0.068302,0.212661,4.254316,-4.191830,-1.688722,2.565316,10.578881,2.141295,0.006959,0.211193,0.000000,-0.427583,-0.459856,0.000000
4.350000,1.768330,0.830117,-1.590574,0.755327,1.529318,0.291062,-2.014905,0.026913,0.195881,4.276433,-4.086227,-1.667483,1.861660,10.531461,2.100212,0.002740,0.206588,0.000000,-0.416194,-0.460911,0.000000
4.360000,1.775783,0.845412,-1.587653,0.735392,1.529382,0.292937,-1.972048,-0.013423,0.179312,4.291549,-3.981200,-1.646717,1.177818,10.466368,2.052970,-0.001365,0.201975,0.000000,-0.404878,-0.461282,-0.000000
4.370000,1.783038,0.860705,-1.584715,0.715886,1.529049,0.294648,-1.929074,-0.052711,0.162947,4.299990,-3.876900,-1.626424,0.532560,10.387623,2.011679,-0.005358,0.197362,0.000000,-0.393652,-0.461003,0.000000
4.380000,1.790100,0.875993,-1.581760,0.696810,1.528328,0.296196,-1.886048,-0.090961,0.146783,4.302201,-3.773448,-1.606484,-0.079145,10.295220,1.975880,-0.009238,0.192755,0.000000,-0.382525,-0.460114,0.000000
4.390000,1.796974,0.891271,-1.578791,0.678165,1.527230,0.297583,-1.843030,-0.128180,0.130817,4.298407,-3.670996,-1.586906,-0.679853,10.186188,1.931547,-0.013008,0.188159,0.000000,-0.371514,-0.458637,0.000000
4.400000,1.803664,0.906537,-1.575808,0.659949,1.525765,0.298812,-1.800080,-0.164381,0.115045,4.288604,-3.569724,-1.567853,-1.274947,10.060504,1.874185,-0.016669,0.183581,0.000000,-0.360634,-0.456575,-0.000000
4.410000,1.810173,0.921787,-1.572815,0.642163,1.523942,0.299884,-1.757258,-0.199575,0.099460,4.272908,-3.469785,-1.549422,-1.848087,9.921773,1.814992,-0.020221,0.179026,0.000000,-0.349902,-0.453941,0.000000
4.420000,1.816507,0.937016,-1.569811,0.624804,1.521773,0.300802,-1.714622,-0.233776,0.084057,4.251642,-3.371289,-1.531553,-2.383942,9.773303,1.767800,-0.023667,0.174501,0.000000,-0.339328,-0.450766,0.000000
4.430000,1.822669,0.952222,-1.566799,0.607871,1.519267,0.301566,-1.672225,-0.267000,0.068829,4.225229,-3.274319,-1.514066,-2.886522,9.615204,1.730672,-0.027008,0.170009,0.000000,-0.328921,-0.447088,-0.000000
4.440000,1.828664,0.967401,-1.563779,0.591360,1.516433,0.302178,-1.630117,-0.299263,0.053775,4.193911,-3.178985,-1.496940,-3.374684,9.445321,1.687137,-0.030245,0.165556,0.000000,-0.318693,-0.442933,-0.000000
4.450000,1.834496,0.982551,-1.560755,0.575268,1.513282,0.302641,-1.588347,-0.330580,0.038891,4.157736,-3.085413,-1.480324,-3.853273,9.264061,1.633062,-0.033382,0.161146,0.000000,-0.308655,-0.438308,-0.000000
4.460000,1.840170,0.997667,-1.557727,0.559593,1.509822,0.302956,-1.546962,-0.360971,0.024169,4.116846,-2.993703,-1.464278,-4.308857,9.074377,1.580859,-0.036419,0.156784,0.000000,-0.298818,-0.433228,0.000000
4.470000,1.845688,1.012747,-1.554696,0.544329,1.506062,0.303124,-1.506010,-0.390454,0.009605,4.071558,-2.903925,-1.448706,-4.728393,8.878294,1.542601,-0.039358,0.152476,0.000000,-0.289190,-0.427724,0.000000
4.480000,1.851056,1.027788,-1.551664,0.529473,1.502012,0.303148,-1.465531,-0.419049,-0.004805,4.022278,-2.816138,-1.433426,-5.115247,8.676295,1.515805,-0.042202,0.148223,0.000000,-0.279777,-0.421835,-0.000000
4.490000,1.856278,1.042787,-1.548633,0.515019,1.497681,0.303028,-1.425564,-0.446777,-0.019064,3.969253,-2.730400,-1.418390,-5.485898,8.467797,1.486010,-0.044954,0.144031,0.000000,-0.270587,-0.415587,0.000000
4.500000,1.861357,1.057742,-1.545604,0.500961,1.493077,0.302767,-1.386146,-0.473657,-0.033173,3.912560,-2.646782,-1.403706,-5.845629,8.251603,1.447742,-0.047614,0.139903,0.000000,-0.261626,-0.408988,-0.000000
4.510000,1.866297,1.072649,-1.542578,0.487296,1.488208,0.302365,-1.347313,-0.499713,-0.047138,3.852341,-2.565367,-1.389435,-6.182935,8.029706,1.411814,-0.050186,0.135842,0.000000,-0.252903,-0.402056,-0.000000
4.520000,1.871102,1.087506,-1.539556,0.474015,1.483083,0.301824,-1.309099,-0.524965,-0.060962,3.788901,-2.486188,-1.375470,-6.484086,7.808892,1.394083,-0.052672,0.131852,0.000000,-0.244421,-0.394821,-0.000000
4.530000,1.875777,1.102311,-1.536541,0.461114,1.477709,0.301146,-1.271535,-0.549436,-0.074647,3.722659,-2.409190,-1.361554,-6.752185,7.589977,1.392161,-0.055075,0.127935,0.000000,-0.236178,-0.387322,-0.000000
4.540000,1.880325,1.117060,-1.533533,0.448584,1.472094,0.300331,-1.234646,-0.573149,-0.088193,3.653858,-2.334388,-1.347627,-7.005290,7.365658,1.385841,-0.057396,0.124094,0.000000,-0.228175,-0.379585,0.000000
4.550000,1.884749,1.131752,-1.530535,0.436421,1.466246,0.299382,-1.198458,-0.596124,-0.101600,3.582553,-2.261876,-1.333837,-7.247901,7.134843,1.371259,-0.059638,0.120331,0.000000,-0.220421,-0.371618,0.000000
4.560000,1.889053,1.146385,-1.527546,0.424615,1.460171,0.298299,-1.162995,-0.618386,-0.114870,3.508900,-2.191691,-1.320201,-7.467888,6.903905,1.362580,-0.061805,0.116648,0.000000,-0.212921,-0.363438,0.000000
4.570000,1.893241,1.160956,-1.524569,0.413161,1.453878,0.297084,-1.128280,-0.639958,-0.128004,3.433196,-2.123798,-1.306585,-7.655158,6.677438,1.368677,-0.063897,0.113048,0.000000,-0.205671,-0.355076,0.000000
4.580000,1.897316,1.175463,-1.521604,0.402050,1.447372,0.295739,-1.094331,-0.660862,-0.141001,3.355797,-2.058142,-1.292828,-7.813483,6.454574,1.385342,-0.065918,0.109532,0.000000,-0.198667,-0.346565,0.000000
4.590000,1.901282,1.189903,-1.518654,0.391274,1.440661,0.294264,-1.061164,-0.681121,-0.153860,3.276926,-1.994707,-1.278879,-7.956307,6.231245,1.401859,-0.067870,0.106101,0.000000,-0.191909,-0.337929,-0.000000
4.600000,1.905142,1.204276,-1.515719,0.380826,1.433750,0.292662,-1.028793,-0.700756,-0.166579,3.196670,-1.933517,-1.264791,-8.087327,6.006461,1.415980,-0.069756,0.102758,0.000000,-0.185398,-0.329179,0.000000
4.610000,1.908899,1.218578,-1.512801,0.370698,1.426646,0.290933,-0.997231,-0.719791,-0.179156,3.115179,-1.874578,-1.250559,-8.197868,5.784235,1.435021,-0.071578,0.099502,0.000000,-0.179135,-0.320331,0.000000
4.620000,1.912556,1.232809,-1.509900,0.360882,1.419354,0.289079,-0.966489,-0.738248,-0.191590,3.032713,-1.817833,-1.236090,-8.279745,5.570014,1.465285,-0.073339,0.096334,0.000000,-0.173114,-0.311411,0.000000
4.630000,1.916116,1.246965,-1.507019,0.351369,1.411881,0.287101,-0.936576,-0.756148,-0.203878,2.949584,-1.763177,-1.221253,-8.335828,5.364056,1.504862,-0.075041,0.093257,0.000000,-0.167326,-0.302449,0.000000
4.640000,1.919583,1.261046,-1.504158,0.342150,1.404231,0.285001,-0.907497,-0.773511,-0.216015,2.865996,-1.710552,-1.205993,-8.377589,5.160634,1.545586,-0.076686,0.090268,0.000000,-0.161766,-0.293467,0.000000
4.650000,1.922959,1.275050,-1.501319,0.333219,1.396410,0.282781,-0.879256,-0.790359,-0.227998,2.782033,-1.659965,-1.190342,-8.408747,4.955983,1.583978,-0.078276,0.087370,0.000000,-0.156434,-0.284474,0.000000
4.660000,1.926248,1.288975,-1.498503,0.324565,1.388424,0.280441,-0.851857,-0.806711,-0.239822,2.697822,-1.611432,-1.174313,-8.422172,4.755349,1.625611,-0.079814,0.084561,0.000000,-0.151331,-0.275484,0.000000
4.670000,1.929451,1.302818,-1.495710,0.316181,1.380276,0.277984,-0.825300,-0.822587,-0.251484,2.613589,-1.564858,-1.157829,-8.410140,4.571143,1.679487,-0.081303,0.081842,0.000000,-0.146447,-0.266519,0.000000
4.680000,1.932571,1.316580,-1.492943,0.308059,1.371972,0.275411,-0.799585,-0.838008,-0.262978,2.529619,-1.520009,-1.140724,-8.375234,4.403227,1.744047,-0.082743,0.079213,0.000000,-0.141761,-0.257605,0.000000
4.690000,1.935612,1.330258,-1.490202,0.300190,1.363516,0.272725,-0.774708,-0.852988,-0.274298,2.446085,-1.476793,-1.122948,-8.328726,4.236152,1.807028,-0.084138,0.076673,0.000000,-0.137264,-0.248762,-0.000000
4.700000,1.938575,1.343850,-1.487488,0.292565,1.354912,0.269926,-0.750663,-0.867544,-0.285437,2.363044,-1.435286,-1.104583,-8.274182,4.065633,1.865861,-0.085489,0.074220,0.000000,-0.132962,-0.239995,0.000000
4.710000,1.941463,1.357356,-1.484803,0.285177,1.346165,0.267016,-0.727447,-0.881693,-0.296390,2.280601,-1.395481,-1.085631,-8.204851,3.903192,1.928595,-0.086797,0.071855,0.000000,-0.128854,-0.231314,0.000000
4.720000,1.944279,1.370774,-1.482148,0.278016,1.337279,0.263998,-0.705051,-0.895453,-0.307150,2.198947,-1.357222,-1.066011,-8.114061,3.760173,1.999929,-0.088066,0.069576,0.000000,-0.124925,-0.222739,0.000000
4.730000,1.947023,1.384102,-1.479523,0.271075,1.328256,0.260873,-0.683468,-0.908838,-0.317710,2.118320,-1.320277,-1.045633,-8.004735,3.633985,2.076967,-0.089296,0.067383,0.000000,-0.121152,-0.214291,-0.000000
4.740000,1.949700,1.397339,-1.476931,0.264347,1.319102,0.257644,-0.662685,-0.921859,-0.328063,2.038852,-1.284543,-1.024472,-7.886959,3.510815,2.153374,-0.090489,0.065273,0.000000,-0.117525,-0.205984,0.000000
4.750000,1.952310,1.410484,-1.474371,0.257822,1.309819,0.254312,-0.642691,-0.934529,-0.338200,1.960581,-1.250061,-1.002565,-7.762319,3.386452,2.228185,-0.091647,0.063246,0.000000,-0.114048,-0.197821,0.000000
4.760000,1.954856,1.423535,-1.471844,0.251493,1.300411,0.250880,-0.623473,-0.946860,-0.348114,1.883606,-1.216814,-0.979908,-7.625232,3.270930,2.305157,-0.092770,0.061300,0.000000,-0.110718,-0.189812,-0.000000
4.770000,1.957340,1.436492,-1.469353,0.245352,1.290882,0.247349,-0.605019,-0.958865,-0.357798,1.808076,-1.184642,-0.956462,-7.474930,3.176020,2.385704,-0.093861,0.059433,0.000000,-0.107519,-0.181969,-0.000000
4.780000,1.959763,1.449353,-1.466897,0.239393,1.281234,0.243724,-0.587312,-0.970553,-0.367243,1.734107,-1.153293,-0.932194,-7.314514,3.099392,2.468043,-0.094921,0.057644,0.000000,-0.104427,-0.174305,0.000000
4.790000,1.962128,1.462117,-1.464478,0.233606,1.271471,0.240004,-0.570336,-0.981931,-0.376442,1.661786,-1.122654,-0.907101,-7.146179,3.026088,2.549915,-0.095950,0.055931,0.000000,-0.101431,-0.166827,0.000000
4.800000,1.964436,1.474782,-1.462097,0.227986,1.261595,0.236195,-0.554076,-0.993006,-0.385385,1.591184,-1.092771,-0.881196,-6.968956,2.951974,2.631758,-0.096949,0.054292,0.000000,-0.098534,-0.159540,0.000000
4.810000,1.966688,1.487349,-1.459755,0.222525,1.251611,0.232297,-0.538513,-1.003786,-0.394066,1.522406,-1.063615,-0.854466,-6.782813,2.887557,2.714409,-0.097920,0.052725,0.000000,-0.095734,-0.152455,0.000000
4.820000,1.968886,1.499814,-1.457451,0.217216,1.241520,0.228313,-0.523628,-1.014278,-0.402475,1.455528,-1.035020,-0.826908,-6.592910,2.843261,2.795400,-0.098864,0.051228,0.000000,-0.093013,-0.145577,0.000000
4.830000,1.971032,1.512179,-1.455188,0.212052,1.231325,0.224247,-0.509402,-1.024487,-0.410604,1.390548,-1.006750,-0.798558,-6.400503,2.816261,2.873903,-0.099781,0.049800,0.000000,-0.090349,-0.138906,0.000000
4.840000,1.973127,1.524441,-1.452966,0.207028,1.221030,0.220101,-0.495817,-1.034413,-0.418446,1.327518,-0.978695,-0.769430,-6.200145,2.793100,2.952722,-0.100671,0.048436,0.000000,-0.087729,-0.132446,0.000000
4.850000,1.975173,1.536600,-1.450786,0.202136,1.210637,0.215878,-0.482852,-1.044061,-0.425992,1.266545,-0.950888,-0.739503,-5.991319,2.769906,3.032020,-0.101535,0.047137,0.000000,-0.085158,-0.126207,0.000000
4.860000,1.977170,1.548654,-1.448649,0.197370,1.200149,0.211581,-0.470486,-1.053431,-0.433236,1.207691,-0.923297,-0.708789,-5.778971,2.755833,3.109314,-0.102374,0.045899,0.000000,-0.082632,-0.120192,-0.000000
4.870000,1.979120,1.560603,-1.446555,0.192726,1.189568,0.207214,-0.458698,-1.062526,-0.440168,1.150966,-0.895771,-0.677317,-5.565849,2.760353,3.183835,-0.103188,0.044720,0.000000,-0.080134,-0.114402,0.000000
4.880000,1.981024,1.572445,-1.444505,0.188197,1.178898,0.202778,-0.447467,-1.071346,-0.446782,1.096374,-0.868090,-0.645112,-5.351451,2.780809,3.255909,-0.103977,0.043599,0.000000,-0.077645,-0.108837,-0.000000
4.890000,1.982884,1.584180,-1.442499,0.183777,1.168141,0.198278,-0.436770,-1.079888,-0.453070,1.043937,-0.840155,-0.612199,-5.133950,2.804575,3.325699,-0.104741,0.042532,0.000000,-0.075152,-0.103498,0.000000
4.900000,1.984700,1.595808,-1.440539,0.179461,1.157300,0.193717,-0.426588,-1.088150,-0.459026,0.993695,-0.811998,-0.578598,-4.912215,2.828240,3.393830,-0.105480,0.041517,0.000000,-0.072660,-0.098386,0.000000
4.910000,1.986473,1.607326,-1.438625,0.175245,1.146378,0.189098,-0.416897,-1.096128,-0.464642,0.945693,-0.783590,-0.544322,-4.688680,2.860123,3.459656,-0.106194,0.040553,0.000000,-0.070164,-0.093506,0.000000
4.920000,1.988205,1.618735,-1.436757,0.171123,1.135378,0.184424,-0.407674,-1.103821,-0.469913,0.899922,-0.754796,-0.509405,-4.469258,2.907728,3.519983,-0.106883,0.039637,0.000000,-0.067651,-0.088856,0.000000
4.930000,1.989896,1.630034,-1.434936,0.167091,1.124302,0.179699,-0.398898,-1.111224,-0.474831,0.856307,-0.725435,-0.473923,-4.254514,2.968238,3.574315,-0.107547,0.038766,0.000000,-0.065103,-0.084428,-0.000000
4.940000,1.991547,1.641221,-1.433163,0.163145,1.113153,0.174927,-0.390548,-1.118330,-0.479391,0.814831,-0.695431,-0.437919,-4.037863,3.031408,3.626430,-0.108185,0.037938,0.000000,-0.062511,-0.080219,-0.000000
4.950000,1.993159,1.652297,-1.431438,0.159280,1.101935,0.170111,-0.382602,-1.125133,-0.483589,0.775550,-0.664807,-0.401394,-3.816619,3.095029,3.678069,-0.108797,0.037152,0.000000,-0.059878,-0.076233,0.000000
4.960000,1.994732,1.663260,-1.429761,0.155493,1.090651,0.165255,-0.375037,-1.131626,-0.487419,0.738499,-0.633530,-0.364358,-3.596436,3.165486,3.726110,-0.109383,0.036404,0.000000,-0.057198,-0.072473,0.000000
4.970000,1.996268,1.674110,-1.428133,0.151780,1.079303,0.160363,-0.367832,-1.137803,-0.490876,0.703622,-0.601498,-0.326872,-3.386008,3.246848,3.765394,-0.109941,0.035694,0.000000,-0.054463,-0.068933,-0.000000
4.980000,1.997768,1.684846,-1.426554,0.148137,1.067895,0.155438,-0.360964,-1.143656,-0.493956,0.670779,-0.568594,-0.289050,-3.184711,3.336643,3.796285,-0.110472,0.035017,0.000000,-0.051657,-0.065599,-0.000000
4.990000,1.999231,1.695468,-1.425024,0.144560,1.056430,0.150484,-0.354416,-1.149175,-0.496657,0.639927,-0.534765,-0.250946,-2.982215,3.428934,3.825166,-0.110975,0.034374,0.000000,-0.048777,-0.062465,-0.000000
5.000000,2.000659,1.705975,-1.423544,0.141048,1.044911,0.145505,-0.348166,-1.154351,-0.498975,0.611134,-0.500015,-0.212546,-2.775673,3.522367,3.854087,-0.111448,0.033760,0.000000,-0.045820,-0.059538,-0.000000
5.010000,2.002052,1.716366,-1.422114,0.137597,1.033343,0.140504,-0.342193,-1.159176,-0.500908,0.584414,-0.464317,-0.173864,-2.573006,3.620242,3.878298,-0.111891,0.033175,0.000000,-0.042785,-0.056818,0.000000
5.020000,2.003411,1.726642,-1.420734,0.134204,1.021728,0.135487,-0.336478,-1.163638,-0.502453,0.559674,-0.427610,-0.134981,-2.382610,3.724542,3.892230,-0.112304,0.032617,0.000000,-0.039664,-0.054296,-0.000000
5.030000,2.004736,1.736801,-1.419404,0.130868,1.010070,0.130455,-0.331000,-1.167728,-0.503608,0.536762,-0.389827,-0.096020,-2.202921,3.833578,3.896928,-0.112684,0.032082,0.000000,-0.036447,-0.051957,0.000000
5.040000,2.006028,1.746843,-1.418125,0.127584,0.998373,0.125414,-0.325742,-1.171434,-0.504373,0.515616,-0.350938,-0.057042,-2.023957,3.943839,3.899372,-0.113033,0.031571,0.000000,-0.033132,-0.049795,0.000000
5.050000,2.007288,1.756768,-1.416896,0.124353,0.986641,0.120368,-0.320687,-1.174747,-0.504748,0.496283,-0.310950,-0.018032,-1.842848,4.054940,3.901564,-0.113347,0.031080,0.000000,-0.029718,-0.047813,0.000000
5.060000,2.008515,1.766576,-1.415717,0.121171,0.974878,0.115320,-0.315817,-1.177653,-0.504734,0.478759,-0.269840,0.020989,-1.666999,4.168488,3.898518,-0.113627,0.030608,0.000000,-0.026201,-0.046011,-0.000000
5.070000,2.009711,1.776266,-1.414589,0.118036,0.963088,0.110273,-0.311112,-1.180143,-0.504329,0.462943,-0.227580,0.059938,-1.504666,4.283750,3.884976,-0.113871,0.030154,0.000000,-0.022578,-0.044378,-0.000000
5.080000,2.010876,1.785838,-1.413512,0.114948,0.951275,0.105233,-0.306558,-1.182205,-0.503535,0.448666,-0.184165,0.098689,-1.354264,4.399399,3.862179,-0.114078,0.029715,0.000000,-0.018845,-0.042899,-0.000000
5.090000,2.012010,1.795291,-1.412485,0.111905,0.939444,0.100203,-0.302139,-1.183827,-0.502355,0.435857,-0.139592,0.137181,-1.205720,4.515409,3.836869,-0.114248,0.029290,0.000000,-0.015000,-0.041567,0.000000
5.100000,2.013114,1.804627,-1.411508,0.108906,0.927599,0.095186,-0.297841,-1.184997,-0.500791,0.424551,-0.093856,0.175426,-1.056204,4.632401,3.811105,-0.114378,0.028878,0.000000,-0.011043,-0.040384,0.000000
5.110000,2.014188,1.813843,-1.410581,0.105948,0.915744,0.090187,-0.293648,-1.185704,-0.498846,0.414733,-0.046944,0.213404,-0.912979,4.749562,3.780195,-0.114469,0.028477,0.000000,-0.006970,-0.039350,0.000000
5.120000,2.015233,1.822941,-1.409704,0.103033,0.903885,0.085209,-0.289546,-1.185936,-0.496523,0.406292,0.001135,0.251030,-0.783789,4.863526,3.738992,-0.114518,0.028086,0.000000,-0.002780,-0.038452,-0.000000
5.130000,2.016249,1.831921,-1.408877,0.100157,0.892025,0.080256,-0.285522,-1.185681,-0.493826,0.399057,0.050327,0.288183,-0.666852,4.973723,3.688851,-0.114524,0.027703,0.000000,0.001524,-0.037676,0.000000
5.140000,2.017236,1.840782,-1.408099,0.097322,0.880171,0.075332,-0.281565,-1.184929,-0.490760,0.392955,0.100609,0.324807,-0.552424,5.083723,3.636521,-0.114487,0.027328,0.000000,0.005942,-0.037014,0.000000
5.150000,2.018195,1.849524,-1.407370,0.094526,0.868327,0.070441,-0.277663,-1.183669,-0.487330,0.388009,0.152001,0.360914,-0.438046,5.194313,3.583569,-0.114406,0.026958,0.000000,0.010476,-0.036469,-0.000000
5.160000,2.019127,1.858148,-1.406690,0.091769,0.856498,0.065586,-0.273805,-1.181889,-0.483541,0.384194,0.204495,0.396479,-0.330547,5.302272,3.525519,-0.114278,0.026593,0.000000,0.015128,-0.036037,0.000000
5.170000,2.020031,1.866654,-1.406058,0.089050,0.844689,0.060770,-0.269979,-1.179579,-0.479400,0.381398,0.258046,0.431424,-0.236184,5.404480,3.458867,-0.114103,0.026233,0.000000,0.019896,-0.035708,0.000000
5.180000,2.020908,1.875042,-1.405475,0.086369,0.832906,0.055998,-0.266177,-1.176728,-0.474913,0.379470,0.312585,0.465656,-0.153067,5.501270,3.385065,-0.113880,0.025875,0.000000,0.024774,-0.035469,-0.000000
5.190000,2.021758,1.883312,-1.404938,0.083727,0.821154,0.051272,-0.262390,-1.173327,-0.470087,0.378337,0.368072,0.499126,-0.073216,5.595738,3.308808,-0.113607,0.025519,0.000000,0.029762,-0.035311,0.000000
5.200000,2.022582,1.891465,-1.404449,0.081122,0.809439,0.046596,-0.258610,-1.169367,-0.464930,0.378006,0.424500,0.531832,0.005376,5.688705,3.231216,-0.113285,0.025164,0.000000,0.034859,-0.035237,0.000000
5.210000,2.023381,1.899501,-1.404007,0.078554,0.797767,0.041973,-0.254830,-1.164837,-0.459450,0.378444,0.481846,0.563750,0.077286,5.777372,3.149322,-0.112910,0.024809,0.000000,0.040066,-0.035242,-0.000000
5.220000,2.024153,1.907421,-1.403610,0.076025,0.786143,0.037407,-0.251041,-1.159730,-0.453655,0.379551,0.540047,0.594818,0.137594,5.858196,3.060772,-0.112483,0.024454,0.000000,0.045378,-0.035317,-0.000000
5.230000,2.024901,1.915224,-1.403258,0.073534,0.774572,0.032900,-0.247239,-1.154036,-0.447554,0.381196,0.599010,0.624965,0.187870,5.931304,2.966586,-0.112003,0.024098,0.000000,0.050788,-0.035450,0.000000
5.240000,2.025624,1.922912,-1.402952,0.071080,0.763062,0.028456,-0.243417,-1.147750,-0.441156,0.383309,0.658673,0.654150,0.234607,6.000544,2.870125,-0.111467,0.023741,0.000000,0.056292,-0.035634,0.000000
5.250000,2.026323,1.930485,-1.402689,0.068665,0.751617,0.024077,-0.239572,-1.140863,-0.434471,0.385888,0.719021,0.682368,0.279716,6.067660,2.772723,-0.110877,0.023381,0.000000,0.061890,-0.035869,-0.000000
5.260000,2.026997,1.937944,-1.402470,0.066289,0.740245,0.019767,-0.235699,-1.133369,-0.427509,0.388903,0.780027,0.709605,0.318902,6.129382,2.672368,-0.110230,0.023019,0.000000,0.067581,-0.036152,0.000000
5.270000,2.027649,1.945290,-1.402294,0.063951,0.728950,0.015527,-0.231794,-1.125262,-0.420279,0.392266,0.841608,0.735815,0.347725,6.179867,2.566138,-0.109525,0.022654,0.000000,0.073358,-0.036475,0.000000
5.280000,2.028276,1.952523,-1.402160,0.061653,0.717740,0.011361,-0.227854,-1.116537,-0.412792,0.395858,0.903624,0.760927,0.367598,6.219557,2.454839,-0.108762,0.022285,0.000000,0.079209,-0.036827,0.000000
5.290000,2.028882,1.959645,-1.402067,0.059394,0.706619,0.007271,-0.223877,-1.107190,-0.405060,0.399618,0.966000,0.784912,0.384608,6.255600,2.342772,-0.107941,0.021913,0.000000,0.085129,-0.037201,-0.000000
5.300000,2.029464,1.966656,-1.402014,0.057175,0.695596,0.003260,-0.219862,-1.097217,-0.397094,0.403550,1.028736,0.807783,0.400036,6.288749,2.230734,-0.107060,0.021537,0.000000,0.091118,-0.037597,0.000000
5.310000,2.030025,1.973557,-1.402002,0.054997,0.684675,-0.000671,-0.215806,-1.086615,-0.388905,0.407619,1.091775,0.829527,0.410022,6.313658,2.116201,-0.106118,0.021157,0.000000,0.097172,-0.038014,0.000000
5.320000,2.030564,1.980349,-1.402028,0.052859,0.673863,-0.004518,-0.211709,-1.075382,-0.380504,0.411750,1.155009,0.850107,0.412201,6.328319,1.998398,-0.105116,0.020772,0.000000,0.103281,-0.038442,0.000000
5.330000,2.031082,1.987034,-1.402092,0.050763,0.663167,-0.008281,-0.207571,-1.063515,-0.371903,0.415863,1.218341,0.869495,0.408035,6.334280,1.878496,-0.104053,0.020383,0.000000,0.109438,-0.038875,-0.000000
5.340000,2.031580,1.993613,-1.402193,0.048708,0.652593,-0.011956,-0.203392,-1.051015,-0.363114,0.419911,1.281695,0.887677,0.400947,6.333337,1.757837,-0.102927,0.019990,0.000000,0.115635,-0.039307,0.000000
5.350000,2.032056,2.000086,-1.402331,0.046695,0.642147,-0.015543,-0.199173,-1.037881,-0.354149,0.423882,1.345008,0.904651,0.391640,6.324858,1.636614,-0.101740,0.019593,0.000000,0.121866,-0.039738,0.000000
5.360000,2.032513,2.006456,-1.402504,0.044724,0.631835,-0.019039,-0.194915,-1.024115,-0.345021,0.427744,1.408192,0.920409,0.378163,6.307328,1.514382,-0.100490,0.019192,0.000000,0.128124,-0.040163,0.000000
5.370000,2.032951,2.012723,-1.402712,0.042797,0.621665,-0.022444,-0.190618,-1.009717,-0.335741,0.431445,1.471154,0.934939,0.359560,6.281460,1.391370,-0.099177,0.018786,0.000000,0.134400,-0.040579,0.000000
5.380000,2.033369,2.018889,-1.402953,0.040912,0.611641,-0.025754,-0.186286,-0.994691,-0.326322,0.434935,1.533821,0.948236,0.336742,6.247519,1.268075,-0.097802,0.018376,0.000000,0.140687,-0.040979,0.000000
5.390000,2.033769,2.024956,-1.403227,0.039071,0.601771,-0.028970,-0.181919,-0.979041,-0.316776,0.438180,1.596105,0.960300,0.311399,6.203888,1.144718,-0.096363,0.017962,0.000000,0.146975,-0.041360,-0.000000
5.400000,2.034151,2.030924,-1.403532,0.037274,0.592060,-0.032090,-0.177522,-0.962769,-0.307116,0.441163,1.657899,0.971131,0.284109,6.150075,1.021434,-0.094862,0.017545,0.000000,0.153255,-0.041720,0.000000
5.410000,2.034515,2.036797,-1.403869,0.035520,0.582516,-0.035112,-0.173096,-0.945883,-0.297353,0.443862,1.719106,0.980729,0.254130,6.086816,0.898519,-0.093298,0.017124,0.000000,0.159516,-0.042057,0.000000
5.420000,2.034861,2.042575,-1.404235,0.033812,0.573143,-0.038037,-0.168645,-0.928387,-0.287501,0.446246,1.779635,0.989101,0.220803,6.014223,0.776442,-0.091672,0.016700,0.000000,0.165749,-0.042367,0.000000
5.430000,2.035191,2.048260,-1.404629,0.032147,0.563948,-0.040862,-0.164171,-0.910290,-0.277571,0.448278,1.839391,0.996258,0.184711,5.931781,0.655537,-0.089983,0.016273,0.000000,0.171945,-0.042647,0.000000
5.440000,2.035504,2.053854,-1.405052,0.030528,0.554937,-0.043588,-0.159679,-0.891599,-0.267576,0.449940,1.898271,1.002212,0.147264,5.838877,0.535741,-0.088233,0.015844,0.000000,0.178091,-0.042894,-0.000000
5.450000,2.035801,2.059358,-1.405501,0.028954,0.546116,-0.046214,-0.155172,-0.872325,-0.257527,0.451223,1.956168,1.006973,0.108761,5.734914,0.416479,-0.086421,0.015412,0.000000,0.184176,-0.043106,0.000000
5.460000,2.036083,2.064776,-1.405976,0.027425,0.537490,-0.048739,-0.150655,-0.852476,-0.247437,0.452115,2.012969,1.010542,0.068702,5.619920,0.298257,-0.084549,0.014978,0.000000,0.190188,-0.043283,0.000000
5.470000,2.036350,2.070108,-1.406476,0.025941,0.529066,-0.051163,-0.146130,-0.832065,-0.237316,0.452598,2.068566,1.012938,0.027340,5.494812,0.183681,-0.082617,0.014543,0.000000,0.196115,-0.043422,0.000000
5.480000,2.036602,2.075357,-1.406999,0.024502,0.520849,-0.053485,-0.141603,-0.811105,-0.227178,0.452662,2.122865,1.014215,-0.014789,5.359339,0.073147,-0.080627,0.014107,0.000000,0.201946,-0.043522,0.000000
5.490000,2.036840,2.080525,-1.407546,0.023109,0.512844,-0.055706,-0.137077,-0.789608,-0.217032,0.452302,2.175753,1.014401,-0.057469,5.211668,-0.036409,-0.078578,0.013670,0.000000,0.207668,-0.043582,0.000000
5.500000,2.037064,2.085614,-1.408114,0.021761,0.505057,-0.057826,-0.132557,-0.767590,-0.206890,0.451512,2.227099,1.013487,-0.100558,5.051257,-0.146207,-0.076473,0.013233,0.000000,0.213266,-0.043601,0.000000
5.510000,2.037275,2.090626,-1.408702,0.020458,0.497492,-0.059844,-0.128047,-0.745066,-0.196762,0.450291,2.276778,1.011477,-0.143743,4.878939,-0.253706,-0.074313,0.012795,0.000000,0.218726,-0.043577,0.000000
5.520000,2.037473,2.095564,-1.409310,0.019200,0.490156,-0.061761,-0.123551,-0.722054,-0.186660,0.448638,2.324677,1.008413,-0.186506,4.695004,-0.355282,-0.072099,0.012359,0.000000,0.224034,-0.043512,0.000000
5.530000,2.037659,2.100429,-1.409937,0.017987,0.483051,-0.063577,-0.119074,-0.698572,-0.176594,0.446560,2.370678,1.004371,-0.228480,4.498777,-0.451183,-0.069832,0.011923,0.000000,0.229177,-0.043405,-0.000000
5.540000,2.037833,2.105225,-1.410582,0.016818,0.476184,-0.065293,-0.114620,-0.674641,-0.166573,0.444068,2.414653,0.999389,-0.269777,4.289335,-0.545746,-0.067515,0.011488,0.000000,0.234139,-0.043256,-0.000000
5.550000,2.037996,2.109953,-1.411243,0.015694,0.469558,-0.066909,-0.110193,-0.650279,-0.156606,0.441165,2.456465,0.993456,-0.310950,4.066856,-0.641026,-0.065150,0.011056,0.000000,0.238903,-0.043065,0.000000
5.560000,2.038147,2.114616,-1.411920,0.014614,0.463179,-0.068425,-0.105796,-0.625511,-0.146704,0.437849,2.495990,0.986569,-0.351427,3.831520,-0.733735,-0.062737,0.010625,0.000000,0.243456,-0.042833,0.000000
5.570000,2.038288,2.119217,-1.412612,0.013578,0.457048,-0.069843,-0.101436,-0.600360,-0.136875,0.434136,2.533096,0.978781,-0.388688,3.581883,-0.818060,-0.060280,0.010197,0.000000,0.247782,-0.042560,0.000000
5.580000,2.038419,2.123757,-1.413317,0.012586,0.451171,-0.071162,-0.097114,-0.574849,-0.127128,0.430075,2.567628,0.970207,-0.422492,3.317298,-0.894563,-0.057781,0.009773,0.000000,0.251861,-0.042251,-0.000000
5.590000,2.038540,2.128240,-1.414035,0.011636,0.445551,-0.072385,-0.092834,-0.549007,-0.117471,0.425687,2.599441,0.960890,-0.455688,3.039168,-0.970627,-0.055243,0.009351,0.000000,0.255676,-0.041907,0.000000
5.600000,2.038651,2.132668,-1.414765,0.010729,0.440191,-0.073512,-0.088600,-0.522861,-0.107910,0.420961,2.628411,0.950795,-0.488465,2.748950,-1.048258,-0.052668,0.008933,0.000000,0.259212,-0.041527,0.000000
5.610000,2.038754,2.137044,-1.415505,0.009864,0.435094,-0.074543,-0.084415,-0.496439,-0.098455,0.415917,2.654420,0.939925,-0.518488,2.445200,-1.122268,-0.050059,0.008519,0.000000,0.262456,-0.041113,-0.000000
5.620000,2.038849,2.141370,-1.416256,0.009041,0.430262,-0.075481,-0.080282,-0.469772,-0.089112,0.410592,2.677315,0.928350,-0.544951,2.123080,-1.187683,-0.047419,0.008110,0.000000,0.265388,-0.040669,-0.000000
5.630000,2.038935,2.145649,-1.417015,0.008258,0.425699,-0.076326,-0.076203,-0.442893,-0.079888,0.405018,2.696882,0.916171,-0.568326,1.782206,-1.245853,-0.044751,0.007705,0.000000,0.267983,-0.040196,0.000000
5.640000,2.039014,2.149884,-1.417782,0.007517,0.421405,-0.077079,-0.072181,-0.415834,-0.070788,0.399225,2.712959,0.903432,-0.589005,1.428748,-1.303143,-0.042059,0.007305,0.000000,0.270223,-0.039699,0.000000
5.650000,2.039085,2.154077,-1.418556,0.006815,0.417382,-0.077741,-0.068219,-0.388633,-0.061819,0.393238,2.725457,0.890109,-0.606896,1.066041,-1.361446,-0.039347,0.006910,0.000000,0.272096,-0.039179,-0.000000
5.660000,2.039150,2.158232,-1.419337,0.006152,0.413632,-0.078315,-0.064317,-0.361325,-0.052986,0.387087,2.734280,0.876204,-0.621376,0.689383,-1.416385,-0.036617,0.006521,0.000000,0.273590,-0.038640,-0.000000
5.670000,2.039208,2.162350,-1.420123,0.005528,0.410155,-0.078801,-0.060477,-0.333948,-0.044295,0.380811,2.739245,0.861781,-0.631704,0.289666,-1.463190,-0.033875,0.006137,0.000000,0.274683,-0.038084,-0.000000
5.680000,2.039261,2.166435,-1.420913,0.004943,0.406953,-0.079201,-0.056700,-0.306540,-0.035751,0.374453,2.740073,0.846940,-0.637721,-0.132672,-1.503025,-0.031124,0.005759,0.000000,0.275344,-0.037517,-0.000000
5.690000,2.039307,2.170489,-1.421707,0.004394,0.404025,-0.079516,-0.052988,-0.279146,-0.027356,0.368056,2.736591,0.831720,-0.639914,-0.565584,-1.542216,-0.028368,0.005386,0.000000,0.275553,-0.036943,0.000000
5.700000,2.039348,2.174515,-1.422503,0.003883,0.401370,-0.079748,-0.049339,-0.251809,-0.019116,0.361655,2.728762,0.816095,-0.638722,-1.003169,-1.582937,-0.025613,0.005020,0.000000,0.275304,-0.036365,0.000000
