time,x,y,z,vx,vy,vz,ax,ay,az,jx,jy,jz,sx,sy,sz,roll,pitch,yaw,p,q,r
0.000000,-2.114185,-2.707721,-1.450699,-0.024716,-0.004099,0.025931,0.354908,0.022101,-0.113711,-3.028942,-1.610144,0.172198,11.870012,148.893892,-14.960449,0.002226,-0.035748,0.000000,-0.162085,0.304212,0.000000
0.010000,-2.114415,-2.707761,-1.450446,-0.021316,-0.003934,0.024800,0.325213,0.013137,-0.112707,-2.910204,-0.212824,0.031520,11.876334,130.800765,-13.188912,0.001323,-0.032763,0.000000,-0.021420,0.292868,0.000000
0.020000,-2.114613,-2.707800,-1.450203,-0.018208,-0.003792,0.023673,0.296704,0.017265,-0.113023,-2.791439,1.010391,-0.091856,11.875371,114.063607,-11.500123,0.001739,-0.029892,0.000000,0.101776,0.281334,-0.000000
0.030000,-2.114780,-2.707837,-1.449972,-0.015378,-0.003551,0.022536,0.269384,0.032809,-0.114489,-2.672723,2.072786,-0.198756,11.866497,98.627597,-9.893443,0.003305,-0.027137,0.000000,0.208734,0.269649,0.000000
0.040000,-2.114921,-2.707870,-1.449753,-0.012816,-0.003103,0.021380,0.243250,0.058227,-0.116946,-2.554138,2.987098,-0.289996,11.849020,84.437982,-8.368195,0.005864,-0.024499,0.000000,0.300673,0.257850,0.000000
0.050000,-2.115038,-2.707898,-1.449545,-0.010509,-0.002358,0.020194,0.218300,0.092098,-0.120239,-2.435769,3.765510,-0.366391,11.822797,71.439220,-6.924016,0.009272,-0.021980,0.000000,0.378780,0.245970,0.000000
0.060000,-2.115132,-2.707916,-1.449349,-0.008446,-0.001237,0.018973,0.194533,0.133123,-0.124227,-2.317713,4.419669,-0.428745,11.786701,59.577261,-5.559988,0.013397,-0.019580,0.000000,0.444211,0.234040,-0.000000
0.070000,-2.115207,-2.707921,-1.449166,-0.006615,0.000324,0.017708,0.171945,0.180114,-0.128770,-2.200069,4.960661,-0.477856,11.740319,48.796938,-4.275584,0.018118,-0.017299,0.000000,0.498082,0.222091,0.000000
0.080000,-2.115265,-2.707908,-1.448995,-0.005003,0.002381,0.016396,0.150530,0.231994,-0.133742,-2.082943,5.399030,-0.514520,11.683043,39.043364,-3.070134,0.023324,-0.015137,0.000000,0.541468,0.210151,0.000000
0.090000,-2.115308,-2.707872,-1.448838,-0.003600,0.004977,0.015032,0.130284,0.287786,-0.139022,-1.966447,5.744768,-0.539520,11.614242,30.261632,-1.942892,0.028916,-0.013094,0.000000,0.575396,0.198246,0.000000
0.100000,-2.115338,-2.707806,-1.448694,-0.002394,0.008147,0.013615,0.111199,0.346612,-0.144496,-1.850698,6.007323,-0.553643,11.533429,22.397244,-0.893975,0.034803,-0.011170,0.000000,0.600848,0.186401,0.000000
0.110000,-2.115356,-2.707707,-1.448566,-0.001372,0.011917,0.012142,0.093267,0.407685,-0.150061,-1.735821,6.195588,-0.557659,11.439883,15.394880,0.078123,0.040907,-0.009364,0.000000,0.618755,0.174641,0.000000
0.120000,-2.115366,-2.707566,-1.448452,-0.000524,0.016306,0.010613,0.076479,0.470304,-0.155618,-1.621945,6.317912,-0.552336,11.333056,9.199858,0.973710,0.047156,-0.007674,0.000000,0.629993,0.162988,0.000000
0.130000,-2.115368,-2.707378,-1.448354,0.000161,0.021326,0.009030,0.060824,0.533850,-0.161079,-1.509206,6.382094,-0.538437,11.212380,3.757373,1.793424,0.053488,-0.006100,0.000000,0.635386,0.151465,0.000000
0.140000,-2.115363,-2.707137,-1.448271,0.000696,0.026984,0.007393,0.046290,0.597776,-0.166361,-1.397745,6.395385,-0.516718,11.077338,-0.987282,2.537897,0.059847,-0.004640,0.000000,0.635700,0.140092,-0.000000
0.150000,-2.115354,-2.706837,-1.448206,0.001091,0.033281,0.005704,0.032864,0.661610,-0.171390,-1.287708,6.364492,-0.487928,10.927495,-5.088658,3.207742,0.066187,-0.003293,0.000000,0.631645,0.128888,0.000000
0.160000,-2.115342,-2.706470,-1.448158,0.001357,0.040215,0.003966,0.020531,0.724939,-0.176099,-1.179264,6.295544,-0.452814,10.760724,-8.604251,3.803324,0.072468,-0.002056,0.000000,0.623868,0.117873,-0.000000
0.170000,-2.115327,-2.706030,-1.448127,0.001505,0.047777,0.002183,0.009273,0.787413,-0.180428,-1.072555,6.194174,-0.412108,10.578399,-11.585563,4.325674,0.078654,-0.000928,0.000000,0.612959,0.107064,0.000000
0.180000,-2.115312,-2.705512,-1.448114,0.001546,0.055959,0.000359,-0.000927,0.848732,-0.184325,-0.967752,6.065427,-0.366543,10.379172,-14.088648,4.775255,0.084718,0.000093,0.000000,0.599449,0.096480,0.000000
0.190000,-2.115297,-2.704909,-1.448120,0.001490,0.064747,-0.001502,-0.010089,0.908645,-0.187745,-0.865030,5.913812,-0.316844,10.162412,-16.168240,5.152695,0.090636,0.001009,0.000000,0.583804,0.086135,0.000000
0.200000,-2.115282,-2.704215,-1.448144,0.001347,0.074126,-0.003395,-0.018235,0.966945,-0.190650,-0.764564,5.743281,-0.263729,9.927607,-17.880108,5.458543,0.096388,0.001823,0.000000,0.566431,0.076048,-0.000000
0.210000,-2.115270,-2.703424,-1.448188,0.001128,0.084080,-0.005313,-0.025407,1.023327,-0.193022,-0.670755,5.527031,-0.210696,9.590740,-19.875412,5.638441,0.101947,0.002540,0.000000,0.544662,0.066653,0.000000
0.220000,-2.115260,-2.702532,-1.448250,0.000842,0.094587,-0.007253,-0.031600,1.077866,-0.194818,-0.565815,5.396809,-0.146568,10.658046,-11.406851,6.688965,0.107320,0.003158,0.000000,0.531650,0.056182,0.000000
0.230000,-2.115253,-2.701531,-1.448333,0.000500,0.105633,-0.009208,-0.036769,1.130965,-0.195974,-0.473109,5.188820,-0.087360,7.858203,-30.316118,5.126800,0.112551,0.003675,0.000000,0.511034,0.046951,-0.000000
0.240000,-2.115250,-2.700417,-1.448435,0.000110,0.117197,-0.011171,-0.041112,1.181325,-0.196590,-0.393775,4.898119,-0.034385,8.751188,-22.454798,5.950044,0.117510,0.004108,0.000000,0.482338,0.039066,0.000000
0.250000,-2.115251,-2.699185,-1.448556,-0.000320,0.129251,-0.013137,-0.044598,1.229313,-0.196624,-0.304423,4.695108,0.027272,8.377055,-23.431926,5.881442,0.122236,0.004457,0.000000,0.462533,0.030207,0.000000
0.260000,-2.115257,-2.697831,-1.448697,-0.000779,0.141775,-0.015101,-0.047219,1.275037,-0.196060,-0.220078,4.447605,0.085392,8.092302,-24.100677,5.783904,0.126742,0.004719,0.000000,0.438441,0.021858,-0.000000
0.270000,-2.115267,-2.696348,-1.448858,-0.001261,0.154744,-0.017057,-0.049042,1.318403,-0.194916,-0.146254,4.231488,0.143240,7.060374,-20.977726,5.728999,0.131019,0.004902,0.000000,0.417562,0.014562,-0.000000
0.280000,-2.115282,-2.694734,-1.449038,-0.001758,0.168136,-0.018998,-0.050136,1.359565,-0.193203,-0.070724,3.989046,0.198794,8.057985,-27.545933,5.372505,0.135084,0.005012,0.000000,0.394187,0.007104,0.000000
0.290000,-2.115302,-2.692984,-1.449238,-0.002261,0.181926,-0.020919,-0.050446,1.398077,-0.190950,0.007072,3.719074,0.251527,7.110362,-24.528138,5.216140,0.138893,0.005044,0.000000,0.368188,-0.000575,-0.000000
0.300000,-2.115327,-2.691095,-1.449457,-0.002764,0.196089,-0.022815,-0.050035,1.434092,-0.188177,0.074820,3.482748,0.302565,6.830279,-24.611914,4.936148,0.142462,0.005004,0.000000,0.345570,-0.007257,-0.000000
0.310000,-2.115357,-2.689061,-1.449694,-0.003260,0.210600,-0.024681,-0.048945,1.467662,-0.184911,0.142766,3.230693,0.350033,6.553356,-24.601016,4.615751,0.145797,0.004897,0.000000,0.321452,-0.013962,0.000000
0.320000,-2.115392,-2.686882,-1.449950,-0.003741,0.225434,-0.026512,-0.047205,1.498804,-0.181182,0.204014,3.001900,0.395366,5.896804,-22.288228,4.382991,0.148901,0.004725,0.000000,0.299659,-0.020008,0.000000
0.330000,-2.115432,-2.684552,-1.450224,-0.004202,0.240569,-0.028303,-0.044864,1.527652,-0.177019,0.264912,2.761159,0.436280,6.289877,-25.882575,3.793390,0.151786,0.004492,0.000000,0.276698,-0.026026,0.000000
0.340000,-2.115476,-2.682069,-1.450516,-0.004636,0.255979,-0.030051,-0.041906,1.553975,-0.172473,0.325793,2.507669,0.472417,5.685894,-23.647486,3.493369,0.154430,0.004198,0.000000,0.252475,-0.032051,-0.000000
0.350000,-2.115525,-2.679431,-1.450825,-0.005038,0.271640,-0.031751,-0.038373,1.577907,-0.167580,0.380363,2.278606,0.505541,5.429737,-23.307669,3.064988,0.156845,0.003846,0.000000,0.230639,-0.037461,0.000000
0.360000,-2.115577,-2.676636,-1.451151,-0.005402,0.287529,-0.033401,-0.034300,1.599518,-0.162378,0.433821,2.043936,0.534148,5.176191,-22.914627,2.626226,0.159039,0.003440,0.000000,0.208217,-0.042771,0.000000
0.370000,-2.115633,-2.673680,-1.451493,-0.005722,0.303623,-0.034998,-0.029712,1.618856,-0.156914,0.483111,1.826947,0.557767,4.766716,-21.156967,2.122347,0.161016,0.002981,0.000000,0.187468,-0.047679,0.000000
0.380000,-2.115691,-2.670563,-1.451851,-0.005995,0.319899,-0.036539,-0.024642,1.636041,-0.151236,0.530936,1.606629,0.577124,4.801805,-22.920975,1.748647,0.162787,0.002474,0.000000,0.166338,-0.052454,0.000000
0.390000,-2.115752,-2.667282,-1.452224,-0.006214,0.336336,-0.038022,-0.019097,1.650971,-0.145386,0.577467,1.382449,0.592178,4.420459,-21.220756,1.234461,0.164341,0.001918,0.000000,0.144766,-0.057111,0.000000
0.400000,-2.115815,-2.663835,-1.452611,-0.006375,0.352912,-0.039446,-0.013108,1.663762,-0.139411,0.620088,1.176483,0.602033,4.188356,-20.654063,0.763654,0.165689,0.001317,0.000000,0.124886,-0.061392,0.000000
0.410000,-2.115880,-2.660223,-1.453012,-0.006474,0.369605,-0.040810,-0.006701,1.674495,-0.133357,0.660868,0.970855,0.608054,3.956687,-20.060458,0.307262,0.166838,0.000674,0.000000,0.104967,-0.065500,0.000000
0.420000,-2.115945,-2.656443,-1.453427,-0.006508,0.386395,-0.042113,0.000101,1.683233,-0.127276,0.699128,0.779096,0.606964,3.707454,-18.682217,-0.394542,0.167793,-0.000010,0.000000,0.086272,-0.069367,0.000000
0.430000,-2.116010,-2.652495,-1.453854,-0.006471,0.403263,-0.043356,0.007275,1.690080,-0.121226,0.735271,0.588992,0.602912,3.522258,-19.347774,-0.410322,0.168563,-0.000733,0.000000,0.067669,-0.073031,0.000000
0.440000,-2.116074,-2.648378,-1.454294,-0.006361,0.420190,-0.044538,0.014800,1.695014,-0.115225,0.769354,0.400179,0.596169,3.283479,-18.014105,-1.067099,0.169146,-0.001491,0.000000,0.049125,-0.076497,0.000000
0.450000,-2.116137,-2.644091,-1.454745,-0.006174,0.437157,-0.045661,0.022654,1.698137,-0.109328,0.801050,0.225375,0.582729,3.067776,-17.342368,-1.488111,0.169551,-0.002284,0.000000,0.031814,-0.079730,-0.000000
0.460000,-2.116197,-2.639634,-1.455207,-0.005907,0.454147,-0.046725,0.030813,1.699530,-0.103577,0.830512,0.054189,0.566901,2.851724,-16.661125,-1.878522,0.169783,-0.003108,0.000000,0.014790,-0.082745,0.000000
0.470000,-2.116254,-2.635008,-1.455679,-0.005557,0.471142,-0.047733,0.039259,1.699262,-0.098019,0.858339,-0.105688,0.543344,2.688454,-15.538447,-2.631635,0.169850,-0.003962,0.000000,-0.001283,-0.085597,-0.000000
0.480000,-2.116308,-2.630211,-1.456161,-0.005121,0.488127,-0.048686,0.047972,1.697428,-0.092713,0.883749,-0.261293,0.518492,2.393196,-15.589049,-2.328875,0.169759,-0.004844,0.000000,-0.016986,-0.088208,0.000000
0.490000,-2.116357,-2.625245,-1.456653,-0.004597,0.505086,-0.049588,0.056926,1.694048,-0.087650,0.906734,-0.412904,0.492838,2.230341,-14.505439,-2.997800,0.169511,-0.005751,0.000000,-0.032337,-0.090577,0.000000
0.500000,-2.116400,-2.620110,-1.457153,-0.003982,0.522003,-0.050440,0.066102,1.689212,-0.082882,0.928139,-0.553337,0.460317,2.025575,-13.807652,-3.303192,0.169115,-0.006682,0.000000,-0.046732,-0.092783,-0.000000
0.510000,-2.116436,-2.614806,-1.457662,-0.003274,0.538865,-0.051247,0.075480,1.682996,-0.078444,0.947178,-0.688642,0.427063,1.820884,-13.112803,-3.570120,0.168578,-0.007633,0.000000,-0.060657,-0.094748,0.000000
0.520000,-2.116465,-2.609333,-1.458178,-0.002471,0.555659,-0.052010,0.085042,1.675473,-0.074368,0.964917,-0.814309,0.386919,1.690147,-12.158148,-4.233846,0.167905,-0.008603,0.000000,-0.073769,-0.096573,-0.000000
0.530000,-2.116485,-2.603693,-1.458702,-0.001573,0.572371,-0.052735,0.094770,1.666727,-0.070703,0.980210,-0.934696,0.347100,1.367729,-11.924694,-3.718432,0.167104,-0.009591,0.000000,-0.086372,-0.098146,0.000000
0.540000,-2.116496,-2.597886,-1.459232,-0.000576,0.588989,-0.053426,0.104637,1.656795,-0.067421,0.993030,-1.050059,0.308195,1.234171,-11.011090,-4.279769,0.166179,-0.010593,0.000000,-0.098478,-0.099465,-0.000000
0.550000,-2.116496,-2.591913,-1.459770,0.000521,0.605503,-0.054085,0.114627,1.645759,-0.064562,1.004586,-1.156121,0.263491,1.039873,-10.340517,-4.434729,0.165138,-0.011608,0.000000,-0.109774,-0.100643,0.000000
0.560000,-2.116485,-2.585776,-1.460314,0.001717,0.621901,-0.054718,0.124721,1.633689,-0.062146,1.013841,-1.256743,0.219564,0.846595,-9.682869,-4.551185,0.163986,-0.012633,0.000000,-0.120527,-0.101580,0.000000
0.570000,-2.116461,-2.579476,-1.460864,0.003015,0.638174,-0.055330,0.134900,1.620654,-0.060191,1.021849,-1.348870,0.170678,0.721548,-8.844345,-5.021780,0.162730,-0.013667,0.000000,-0.130524,-0.102375,-0.000000
0.580000,-2.116424,-2.573013,-1.461421,0.004416,0.654311,-0.055924,0.145150,1.606729,-0.058726,1.027570,-1.435769,0.123412,0.421942,-8.540876,-4.420210,0.161377,-0.014707,0.000000,-0.139975,-0.102930,-0.000000
0.590000,-2.116373,-2.566390,-1.461983,0.005918,0.670305,-0.056506,0.155444,1.591954,-0.057714,1.030986,-1.517713,0.078340,0.296127,-7.749530,-4.790622,0.159932,-0.015751,0.000000,-0.148898,-0.103245,0.000000
0.600000,-2.116306,-2.559607,-1.462551,0.007525,0.686148,-0.057080,0.165766,1.576403,-0.057175,1.033213,-1.591666,0.029405,0.115659,-7.144021,-4.790969,0.158402,-0.016798,0.000000,-0.157083,-0.103421,0.000000
0.610000,-2.116222,-2.552667,-1.463124,0.009234,0.701831,-0.057651,0.176101,1.560137,-0.057117,1.033422,-1.660586,-0.017554,-0.060213,-6.557486,-4.757732,0.156792,-0.017845,0.000000,-0.164728,-0.103385,0.000000
0.620000,-2.116121,-2.545571,-1.463704,0.011047,0.717348,-0.058224,0.186430,1.543217,-0.057538,1.032145,-1.722090,-0.067143,-0.207381,-5.828626,-4.999072,0.155109,-0.018891,0.000000,-0.171665,-0.103180,0.000000
0.630000,-2.116001,-2.538321,-1.464289,0.012962,0.732693,-0.058803,0.196738,1.525710,-0.058450,1.029019,-1.778948,-0.114159,-0.417518,-5.548557,-4.394873,0.153360,-0.019933,0.000000,-0.178084,-0.102781,-0.000000
0.640000,-2.115861,-2.530918,-1.464880,0.014981,0.747861,-0.059394,0.207004,1.507652,-0.059810,1.024070,-1.831452,-0.158126,-0.558401,-4.872080,-4.552633,0.151549,-0.020970,0.000000,-0.184006,-0.102191,0.000000
0.650000,-2.115701,-2.523364,-1.465477,0.017102,0.762845,-0.060001,0.217215,1.489105,-0.061621,1.017756,-1.877159,-0.203786,-0.716487,-4.355543,-4.418229,0.149683,-0.022000,0.000000,-0.189260,-0.101448,0.000000
0.660000,-2.115519,-2.515662,-1.466080,0.019325,0.777641,-0.060628,0.227354,1.470122,-0.063875,1.009785,-1.918641,-0.246750,-0.869329,-3.861952,-4.261518,0.147766,-0.023022,0.000000,-0.194032,-0.100531,0.000000
0.670000,-2.115314,-2.507812,-1.466689,0.021649,0.792246,-0.061280,0.237406,1.450755,-0.066558,1.000456,-1.953709,-0.289781,-1.002714,-3.234570,-4.253419,0.145804,-0.024033,0.000000,-0.198146,-0.099466,0.000000
0.680000,-2.115085,-2.499818,-1.467306,0.024073,0.806655,-0.061960,0.247358,1.431060,-0.069660,0.989598,-1.985069,-0.329908,-1.168109,-3.043141,-3.766039,0.143804,-0.025032,0.000000,-0.201825,-0.098242,0.000000
0.690000,-2.114832,-2.491680,-1.467929,0.026596,0.820866,-0.062674,0.257193,1.411064,-0.073144,0.977261,-2.013029,-0.366823,-1.291001,-2.471924,-3.703040,0.141769,-0.026018,0.000000,-0.205097,-0.096868,0.000000
0.700000,-2.114553,-2.483401,-1.468559,0.029216,0.834876,-0.063425,0.266899,1.390820,-0.076996,0.963741,-2.035261,-0.403157,-1.419556,-2.057500,-3.473238,0.139704,-0.026988,0.000000,-0.207769,-0.095366,-0.000000
0.710000,-2.114247,-2.474983,-1.469197,0.031933,0.848682,-0.064215,0.276464,1.370369,-0.081197,0.948945,-2.054222,-0.436582,-1.540658,-1.666086,-3.232599,0.137615,-0.027943,0.000000,-0.210051,-0.093736,-0.000000
0.720000,-2.113914,-2.466428,-1.469844,0.034745,0.862283,-0.065050,0.285874,1.349754,-0.085722,0.932930,-2.067988,-0.467979,-1.658859,-1.160340,-3.022509,0.135505,-0.028881,0.000000,-0.211768,-0.091982,0.000000
0.730000,-2.113552,-2.457738,-1.470498,0.037650,0.875676,-0.065931,0.295119,1.329018,-0.090547,0.915840,-2.078964,-0.496529,-1.757927,-1.040258,-2.685355,0.133381,-0.029799,0.000000,-0.213147,-0.090121,-0.000000
0.740000,-2.113161,-2.448915,-1.471162,0.040647,0.888863,-0.066861,0.304187,1.308182,-0.095642,0.897753,-2.087447,-0.522107,-1.860378,-0.589240,-2.451376,0.131243,-0.030699,0.000000,-0.214219,-0.088163,-0.000000
0.750000,-2.112739,-2.439961,-1.471836,0.043733,0.901840,-0.067844,0.313070,1.287285,-0.100982,0.878680,-2.091411,-0.545339,-1.950775,-0.277481,-2.171995,0.129098,-0.031578,0.000000,-0.214794,-0.086110,-0.000000
0.760000,-2.112286,-2.430879,-1.472519,0.046908,0.914608,-0.068882,0.321759,1.266361,-0.106540,0.858872,-2.092962,-0.565796,-2.030569,0.013560,-1.891931,0.126948,-0.032435,0.000000,-0.215076,-0.083988,-0.000000
0.770000,-2.111801,-2.421670,-1.473214,0.050168,0.927167,-0.069976,0.330244,1.245440,-0.112286,0.837901,-2.090749,-0.582920,-2.141429,0.377825,-1.558322,0.124798,-0.033271,0.000000,-0.214927,-0.081759,0.000000
0.780000,-2.111282,-2.412336,-1.473919,0.053512,0.939517,-0.071128,0.338515,1.224553,-0.118190,0.816506,-2.086476,-0.597501,-2.135505,0.472151,-1.358594,0.122651,-0.034083,0.000000,-0.214530,-0.079494,0.000000
0.790000,-2.110730,-2.402880,-1.474636,0.056937,0.951658,-0.072340,0.346573,1.203716,-0.124228,0.794804,-2.080397,-0.609566,-2.224177,0.789054,-1.028266,0.120508,-0.034873,0.000000,-0.213912,-0.077207,-0.000000
0.800000,-2.110143,-2.393304,-1.475366,0.060443,0.963592,-0.073613,0.354408,1.182956,-0.130370,0.772234,-2.071164,-0.618294,-2.267970,1.006035,-0.743807,0.118374,-0.035638,0.000000,-0.212932,-0.074846,0.000000
0.810000,-2.109521,-2.383609,-1.476109,0.064025,0.975318,-0.074948,0.362017,1.162298,-0.136587,0.749477,-2.060245,-0.624705,-2.301555,1.205047,-0.468443,0.116250,-0.036380,0.000000,-0.211751,-0.072475,0.000000
0.820000,-2.108863,-2.373798,-1.476865,0.067682,0.986838,-0.076345,0.369395,1.141760,-0.142849,0.726053,-2.046841,-0.627030,-2.362416,1.443613,-0.065846,0.114140,-0.037098,0.000000,-0.210271,-0.070055,0.000000
0.830000,-2.108167,-2.363873,-1.477636,0.071412,0.998154,-0.077805,0.376538,1.121365,-0.149122,0.702663,-2.032044,-0.627474,-2.313394,1.512111,-0.026148,0.112045,-0.037790,0.000000,-0.208630,-0.067648,0.000000
0.840000,-2.107434,-2.353836,-1.478422,0.075212,1.009266,-0.079327,0.383449,1.101123,-0.155393,0.679431,-2.016058,-0.626195,-2.350699,1.712240,0.349726,0.109968,-0.038459,0.000000,-0.206852,-0.065267,0.000000
0.850000,-2.106663,-2.343688,-1.479223,0.079080,1.020177,-0.080912,0.390126,1.081051,-0.161632,0.655846,-1.998102,-0.621093,-2.345202,1.846878,0.600519,0.107909,-0.039104,0.000000,-0.204837,-0.062870,0.000000
0.860000,-2.105852,-2.333433,-1.480040,0.083014,1.030887,-0.082560,0.396567,1.061164,-0.167811,0.632578,-1.979051,-0.614356,-2.328696,1.967928,0.836108,0.105871,-0.039724,0.000000,-0.202700,-0.060514,-0.000000
0.870000,-2.105002,-2.323071,-1.480874,0.087011,1.041400,-0.084268,0.402776,1.041475,-0.173904,0.609104,-1.958721,-0.603573,-2.343102,2.088556,1.230922,0.103856,-0.040321,0.000000,-0.200398,-0.058159,0.000000
0.880000,-2.104112,-2.312606,-1.481726,0.091069,1.051718,-0.086037,0.408752,1.021993,-0.179879,0.586196,-1.937474,-0.591621,-2.236144,2.158513,1.154818,0.101864,-0.040894,0.000000,-0.198001,-0.055871,0.000000
0.890000,-2.103181,-2.302038,-1.482595,0.095185,1.061841,-0.087866,0.414502,1.002728,-0.185734,0.563984,-1.915449,-0.578738,-2.226258,2.251430,1.508468,0.099896,-0.041444,0.000000,-0.195525,-0.053660,0.000000
0.900000,-2.102208,-2.291369,-1.483483,0.099358,1.071773,-0.089752,0.420031,0.983687,-0.191440,0.541891,-1.892552,-0.562248,-2.169572,2.319581,1.698853,0.097953,-0.041972,0.000000,-0.192936,-0.051481,0.000000
0.910000,-2.101193,-2.280603,-1.484390,0.103585,1.081516,-0.091694,0.425343,0.964879,-0.196977,0.520637,-1.869005,-0.544860,-2.102038,2.377866,1.871120,0.096037,-0.042479,0.000000,-0.190284,-0.049395,-0.000000
0.920000,-2.100136,-2.269740,-1.485317,0.107864,1.091071,-0.093690,0.430445,0.946308,-0.202324,0.499678,-1.845124,-0.524002,-2.066397,2.406263,2.206409,0.094148,-0.042965,0.000000,-0.187578,-0.047358,0.000000
0.930000,-2.099036,-2.258782,-1.486264,0.112193,1.100443,-0.095740,0.435341,0.927978,-0.207456,0.479796,-1.820709,-0.502705,-1.907744,2.475334,2.047713,0.092286,-0.043431,0.000000,-0.184827,-0.045435,-0.000000
0.940000,-2.097892,-2.247732,-1.487232,0.116570,1.109632,-0.097839,0.440045,0.909895,-0.212378,0.461116,-1.795847,-0.481240,-1.848470,2.485532,2.335538,0.090451,-0.043878,0.000000,-0.182043,-0.043637,0.000000
0.950000,-2.096704,-2.236590,-1.488221,0.120993,1.118641,-0.099986,0.444565,0.892061,-0.217069,0.443047,-1.770952,-0.456831,-1.742326,2.502537,2.451581,0.088645,-0.044307,0.000000,-0.179243,-0.041917,0.000000
0.960000,-2.095472,-2.225359,-1.489232,0.125461,1.127474,-0.102179,0.448910,0.874477,-0.221515,0.426306,-1.745768,-0.432235,-1.626055,2.512618,2.549396,0.086867,-0.044720,0.000000,-0.176426,-0.040335,0.000000
0.970000,-2.094195,-2.214041,-1.490265,0.129971,1.136132,-0.104416,0.453093,0.857144,-0.225704,0.410357,-1.720914,-0.405117,-1.541175,2.476435,2.789898,0.085116,-0.045117,0.000000,-0.173635,-0.038847,-0.000000
0.980000,-2.092872,-2.202637,-1.491321,0.134522,1.144617,-0.106693,0.457123,0.840060,-0.229619,0.395953,-1.695852,-0.378202,-1.337637,2.535281,2.588257,0.083394,-0.045500,0.000000,-0.170840,-0.037515,0.000000
0.990000,-2.091504,-2.191149,-1.492399,0.139113,1.152934,-0.109007,0.461018,0.823228,-0.233270,0.383208,-1.670631,-0.351747,-1.231031,2.487974,2.782799,0.081700,-0.045871,0.000000,-0.168047,-0.036350,0.000000
1.000000,-2.090090,-2.179579,-1.493501,0.143742,1.161083,-0.111357,0.464790,0.806645,-0.236646,0.371542,-1.645953,-0.323298,-1.079994,2.466935,2.822755,0.080033,-0.046230,0.000000,-0.165305,-0.035304,0.000000
1.010000,-2.088629,-2.167928,-1.494626,0.148409,1.169067,-0.113739,0.468455,0.790309,-0.239739,0.361633,-1.621295,-0.295258,-0.920136,2.440794,2.846939,0.078393,-0.046580,0.000000,-0.162583,-0.034434,0.000000
1.020000,-2.087122,-2.156198,-1.495776,0.153111,1.176890,-0.116151,0.472027,0.774216,-0.242545,0.352983,-1.597367,-0.265815,-0.789487,2.365883,2.977290,0.076781,-0.046921,0.000000,-0.159937,-0.033698,0.000000
1.030000,-2.085567,-2.144391,-1.496949,0.157849,1.184553,-0.118589,0.475521,0.758362,-0.245058,0.346271,-1.573533,-0.237063,-0.551130,2.400565,2.769025,0.075195,-0.047257,0.000000,-0.157319,-0.033154,0.000000
1.040000,-2.083965,-2.132508,-1.498148,0.162621,1.192058,-0.121051,0.478959,0.742746,-0.247290,0.341596,-1.549821,-0.209219,-0.402095,2.318747,2.860443,0.073634,-0.047587,0.000000,-0.154733,-0.032811,0.000000
1.050000,-2.082314,-2.120550,-1.499370,0.167428,1.199408,-0.123534,0.482358,0.727362,-0.249238,0.338416,-1.526985,-0.180425,-0.213469,2.269626,2.833390,0.072100,-0.047915,0.000000,-0.152240,-0.032622,0.000000
1.060000,-2.080616,-2.108520,-1.500618,0.172268,1.206606,-0.126035,0.485735,0.712205,-0.250902,0.337351,-1.504434,-0.152481,-0.017687,2.216639,2.794046,0.070590,-0.048242,0.000000,-0.149793,-0.032641,0.000000
1.070000,-2.078869,-2.096419,-1.501891,0.177143,1.213653,-0.128551,0.489110,0.697269,-0.252286,0.337907,-1.482879,-0.124208,0.148440,2.115912,2.819411,0.069103,-0.048570,0.000000,-0.147455,-0.032825,0.000000
1.080000,-2.077073,-2.084248,-1.503189,0.182051,1.220552,-0.131080,0.492501,0.682547,-0.253390,0.340725,-1.461662,-0.096952,0.416568,2.127629,2.628857,0.067640,-0.048901,0.000000,-0.145169,-0.033230,-0.000000
1.090000,-2.075228,-2.072008,-1.504513,0.186993,1.227305,-0.133618,0.495932,0.668035,-0.254229,0.345883,-1.440793,-0.070869,0.597150,2.022873,2.625993,0.066200,-0.049237,0.000000,-0.142936,-0.033864,-0.000000
1.100000,-2.073333,-2.059702,-1.505862,0.191969,1.233913,-0.136163,0.499424,0.653727,-0.254806,0.352836,-1.421028,-0.044795,0.813403,1.952156,2.547321,0.064781,-0.049580,0.000000,-0.140822,-0.034677,0.000000
1.110000,-2.071388,-2.047330,-1.507236,0.196981,1.240380,-0.138713,0.502997,0.639613,-0.255129,0.362100,-1.401821,-0.019860,1.033520,1.877468,2.460366,0.063383,-0.049933,0.000000,-0.138781,-0.035716,0.000000
1.120000,-2.069393,-2.034895,-1.508636,0.202030,1.246706,-0.141265,0.506673,0.625687,-0.255205,0.373459,-1.383593,0.004591,1.245078,1.778318,2.407310,0.062005,-0.050297,0.000000,-0.136849,-0.036962,0.000000
1.130000,-2.067348,-2.022397,-1.510061,0.207115,1.252894,-0.143817,0.510474,0.611939,-0.255041,0.387144,-1.366040,0.027814,1.492742,1.732035,2.235700,0.060646,-0.050674,0.000000,-0.135000,-0.038435,0.000000
1.140000,-2.065251,-2.009837,-1.511512,0.212240,1.258946,-0.146365,0.514423,0.598364,-0.254653,0.403195,-1.349181,0.049719,1.711377,1.628330,2.165891,0.059305,-0.051067,0.000000,-0.133236,-0.040137,0.000000
1.150000,-2.063103,-1.997218,-1.512989,0.217404,1.264862,-0.148909,0.518545,0.584952,-0.254049,0.421433,-1.333396,0.070933,1.942884,1.539478,2.054623,0.057981,-0.051479,0.000000,-0.131589,-0.042056,0.000000
1.160000,-2.060903,-1.984541,-1.514490,0.222611,1.270645,-0.151446,0.522860,0.571693,-0.253238,0.442071,-1.318477,0.090994,2.176590,1.446714,1.942221,0.056673,-0.051911,0.000000,-0.130042,-0.044208,-0.000000
1.170000,-2.058650,-1.971806,-1.516018,0.227862,1.276296,-0.153973,0.527393,0.558579,-0.252234,0.464891,-1.304445,0.109632,2.395735,1.356473,1.799133,0.055380,-0.052365,0.000000,-0.128596,-0.046573,0.000000
1.180000,-2.056345,-1.959015,-1.517570,0.233160,1.281817,-0.156490,0.532166,0.545601,-0.251049,0.490158,-1.291417,0.127267,2.657999,1.248614,1.727909,0.054100,-0.052844,0.000000,-0.127262,-0.049178,-0.000000
1.190000,-2.053987,-1.946170,-1.519147,0.238507,1.287209,-0.158994,0.537205,0.532747,-0.249692,0.517886,-1.279424,0.143897,2.879296,1.152366,1.583651,0.052834,-0.053351,0.000000,-0.126040,-0.052024,-0.000000
1.200000,-2.051575,-1.933271,-1.520750,0.243905,1.292472,-0.161483,0.542531,0.520009,-0.248176,0.547811,-1.268402,0.159059,3.113690,1.048778,1.463101,0.051579,-0.053887,0.000000,-0.124928,-0.055083,0.000000
1.210000,-2.049109,-1.920321,-1.522377,0.249358,1.297609,-0.163957,0.548169,0.507376,-0.246514,0.580149,-1.258433,0.173163,3.348322,0.943461,1.341559,0.050335,-0.054455,0.000000,-0.123929,-0.058380,0.000000
1.220000,-2.046588,-1.907320,-1.524029,0.254869,1.302620,-0.166413,0.554142,0.494837,-0.244718,0.614750,-1.249544,0.185706,3.574736,0.834638,1.185732,0.049100,-0.055057,0.000000,-0.123049,-0.061895,0.000000
1.230000,-2.044011,-1.894269,-1.525705,0.260442,1.307506,-0.168851,0.560472,0.482381,-0.242803,0.651700,-1.241734,0.197270,3.814929,0.727119,1.127737,0.047874,-0.055695,0.000000,-0.122284,-0.065642,0.000000
1.240000,-2.041379,-1.881170,-1.527406,0.266080,1.312268,-0.171268,0.567183,0.469998,-0.240776,0.690979,-1.235021,0.207892,4.037278,0.614559,0.978208,0.046654,-0.056372,0.000000,-0.121636,-0.069618,-0.000000
1.250000,-2.038689,-1.868024,-1.529130,0.271787,1.316907,-0.173666,0.574299,0.457677,-0.238651,0.732460,-1.229438,0.217003,4.261544,0.501850,0.862882,0.045441,-0.057090,0.000000,-0.121109,-0.073808,0.000000
1.260000,-2.035943,-1.854832,-1.530879,0.277568,1.321422,-0.176041,0.581840,0.445406,-0.236439,0.776119,-1.225045,0.225193,4.480726,0.386337,0.751716,0.044232,-0.057850,0.000000,-0.120706,-0.078212,0.000000
1.270000,-2.033138,-1.841596,-1.532651,0.283426,1.325815,-0.178394,0.589829,0.433173,-0.234152,0.822162,-1.221624,0.231829,4.716417,0.288130,0.599286,0.043026,-0.058656,0.000000,-0.120409,-0.082848,0.000000
1.280000,-2.030274,-1.828316,-1.534447,0.289366,1.330085,-0.180724,0.598290,0.420969,-0.231805,0.870206,-1.219488,0.237679,4.891139,0.138573,0.572049,0.041823,-0.059510,0.000000,-0.120244,-0.087680,0.000000
1.290000,-2.027350,-1.814995,-1.536266,0.295393,1.334234,-0.183030,0.607240,0.408779,-0.229401,0.920186,-1.218660,0.242816,5.114789,0.036589,0.432889,0.040621,-0.060412,0.000000,-0.120213,-0.092704,0.000000
1.300000,-2.024366,-1.801632,-1.538107,0.301512,1.338261,-0.185312,0.616701,0.396592,-0.226953,0.972388,-1.218842,0.246549,5.314088,-0.082598,0.338122,0.039418,-0.061366,0.000000,-0.120289,-0.097944,0.000000
1.310000,-2.021319,-1.788230,-1.539972,0.307729,1.342166,-0.187569,0.626694,0.384398,-0.224471,1.026475,-1.220345,0.249736,5.507489,-0.203094,0.252665,0.038215,-0.062373,0.000000,-0.120498,-0.103370,0.000000
1.320000,-2.018211,-1.774789,-1.541859,0.314048,1.345949,-0.189801,0.637237,0.372183,-0.221965,1.082562,-1.222768,0.251185,5.703726,-0.295847,0.084107,0.037008,-0.063435,0.000000,-0.120806,-0.108987,0.000000
1.330000,-2.015038,-1.761311,-1.543768,0.320475,1.349610,-0.192008,0.648351,0.359938,-0.219448,1.140423,-1.226564,0.252406,5.867191,-0.463929,0.162695,0.035798,-0.064555,0.000000,-0.121251,-0.114781,0.000000
1.340000,-2.011801,-1.747797,-1.545699,0.327017,1.353148,-0.194190,0.660051,0.347647,-0.216917,1.199980,-1.231752,0.253527,6.047871,-0.558907,0.015946,0.034583,-0.065733,0.000000,-0.121834,-0.120745,0.000000
1.350000,-2.008497,-1.734249,-1.547651,0.333678,1.356562,-0.196347,0.672356,0.335300,-0.214383,1.261309,-1.237865,0.253145,6.211889,-0.677942,-0.045177,0.033361,-0.066972,0.000000,-0.122514,-0.126876,0.000000
1.360000,-2.005127,-1.720666,-1.549626,0.340466,1.359853,-0.198478,0.685283,0.322885,-0.211854,1.324159,-1.245268,0.252608,6.366777,-0.795620,-0.098471,0.032132,-0.068273,0.000000,-0.123321,-0.133159,0.000000
1.370000,-2.001688,-1.707052,-1.551621,0.347386,1.363020,-0.200584,0.698845,0.310391,-0.209336,1.388708,-1.253711,0.250853,6.531590,-0.899255,-0.214943,0.030894,-0.069637,0.000000,-0.124235,-0.139603,0.000000
1.380000,-1.998179,-1.693406,-1.553637,0.354445,1.366061,-0.202665,0.713061,0.297807,-0.206837,1.454556,-1.263385,0.249096,6.636117,-1.035370,-0.134308,0.029647,-0.071066,0.000000,-0.125269,-0.146176,0.000000
1.390000,-1.994598,-1.679731,-1.555674,0.361650,1.368976,-0.204721,0.727940,0.285119,-0.204353,1.521595,-1.274279,0.247456,6.780060,-1.136483,-0.229199,0.028388,-0.072562,0.000000,-0.126422,-0.152868,0.000000
1.400000,-1.990945,-1.666027,-1.557731,0.369006,1.371763,-0.206752,0.743498,0.272318,-0.201892,1.590034,-1.286163,0.244844,6.896810,-1.246445,-0.255078,0.027118,-0.074125,0.000000,-0.127675,-0.159691,0.000000
1.410000,-1.987218,-1.652296,-1.559809,0.376522,1.374421,-0.208759,0.759744,0.259392,-0.199456,1.659466,-1.299195,0.242355,7.002309,-1.353820,-0.272601,0.025835,-0.075757,0.000000,-0.129040,-0.166612,0.000000
1.420000,-1.983414,-1.638539,-1.561907,0.384203,1.376950,-0.210741,0.776692,0.246331,-0.197048,1.730178,-1.313177,0.239128,7.124073,-1.447523,-0.341359,0.024537,-0.077459,0.000000,-0.130498,-0.173652,0.000000
1.430000,-1.979533,-1.624758,-1.564024,0.392058,1.379348,-0.212700,0.794350,0.233125,-0.194672,1.801615,-1.328249,0.236186,7.161059,-1.566421,-0.244959,0.023224,-0.079232,0.000000,-0.132060,-0.180763,0.000000
1.440000,-1.975572,-1.610953,-1.566160,0.400093,1.381612,-0.214635,0.812726,0.219762,-0.192322,1.873645,-1.344382,0.233641,7.257233,-1.653989,-0.293454,0.021895,-0.081076,0.000000,-0.133724,-0.187933,0.000000
1.450000,-1.971530,-1.597126,-1.568316,0.408315,1.383742,-0.216546,0.831826,0.206234,-0.190001,1.946600,-1.361362,0.230600,7.317548,-1.746875,-0.283017,0.020550,-0.082992,0.000000,-0.135470,-0.195186,0.000000
1.460000,-1.967405,-1.583278,-1.570491,0.416732,1.385736,-0.218435,0.851659,0.192532,-0.187709,2.019950,-1.379266,0.227944,7.364840,-1.834404,-0.267125,0.019186,-0.084980,0.000000,-0.137303,-0.202477,0.000000
1.470000,-1.963195,-1.569412,-1.572685,0.425351,1.387592,-0.220300,0.872228,0.178646,-0.185444,2.093985,-1.398040,0.225063,7.426355,-1.918782,-0.286059,0.017803,-0.087042,0.000000,-0.139219,-0.209828,0.000000
1.480000,-1.958898,-1.555527,-1.574897,0.434179,1.389309,-0.222144,0.893539,0.164569,-0.183206,2.168146,-1.417607,0.222704,7.403136,-1.993660,-0.184070,0.016401,-0.089177,0.000000,-0.141208,-0.217189,0.000000
1.490000,-1.954511,-1.541626,-1.577128,0.443224,1.390883,-0.223965,0.915591,0.150292,-0.180987,2.242283,-1.437911,0.220958,7.436100,-2.067025,-0.186133,0.014979,-0.091386,0.000000,-0.143265,-0.224546,0.000000
1.500000,-1.950032,-1.527710,-1.579376,0.452493,1.392314,-0.225763,0.938386,0.135808,-0.178787,2.316707,-1.458919,0.219183,7.432463,-2.132885,-0.145352,0.013536,-0.093669,0.000000,-0.145387,-0.231924,0.000000
1.510000,-1.945460,-1.513780,-1.581643,0.461994,1.393598,-0.227540,0.961924,0.121111,-0.176602,2.390887,-1.480511,0.218010,7.414705,-2.191728,-0.099034,0.012071,-0.096025,0.000000,-0.147560,-0.239275,0.000000
1.520000,-1.940792,-1.499838,-1.583927,0.471734,1.394735,-0.229296,0.986204,0.106195,-0.174426,2.465079,-1.502799,0.217121,7.408384,-2.257709,-0.067477,0.010584,-0.098455,0.000000,-0.149796,-0.246620,0.000000
1.530000,-1.936025,-1.485886,-1.586229,0.481721,1.395722,-0.231029,1.011224,0.091054,-0.172257,2.538736,-1.525491,0.216895,7.320247,-2.279271,0.023329,0.009075,-0.100958,0.000000,-0.152066,-0.253910,-0.000000
1.540000,-1.931157,-1.471924,-1.588548,0.491961,1.396556,-0.232741,1.036976,0.075684,-0.170086,2.611701,-1.548506,0.217393,7.283519,-2.329549,0.066717,0.007543,-0.103533,0.000000,-0.154360,-0.261128,0.000000
1.550000,-1.926185,-1.457955,-1.590884,0.502463,1.397235,-0.234431,1.063456,0.060082,-0.167908,2.684244,-1.571994,0.218333,7.210051,-2.359848,0.132296,0.005988,-0.106180,0.000000,-0.156695,-0.268298,0.000000
1.560000,-1.921106,-1.443980,-1.593236,0.513233,1.397756,-0.236099,1.090658,0.044244,-0.165717,2.755859,-1.595640,0.219995,7.121979,-2.381272,0.201270,0.004409,-0.108899,0.000000,-0.159037,-0.275374,0.000000
1.570000,-1.915919,-1.430001,-1.595605,0.524278,1.398119,-0.237745,1.118571,0.028168,-0.163505,2.826740,-1.619716,0.222377,7.040647,-2.419596,0.275148,0.002807,-0.111688,0.000000,-0.161415,-0.282373,0.000000
1.580000,-1.910620,-1.416018,-1.597991,0.535606,1.398319,-0.239369,1.147188,0.011850,-0.161267,2.896392,-1.643730,0.225498,6.887085,-2.381408,0.349762,0.001181,-0.114546,0.000000,-0.163779,-0.289247,0.000000
1.590000,-1.905206,-1.402035,-1.600393,0.547224,1.398355,-0.240970,1.176494,-0.004706,-0.158993,2.964655,-1.667578,0.229394,6.774154,-2.399862,0.430358,-0.000469,-0.117472,0.000000,-0.166118,-0.295981,0.000000
1.600000,-1.899674,-1.388052,-1.602810,0.559138,1.398224,-0.242548,1.206478,-0.021502,-0.156676,3.031730,-1.691588,0.234113,6.627362,-2.387296,0.513255,-0.002142,-0.120465,0.000000,-0.168465,-0.302595,-0.000000
1.610000,-1.894022,-1.374071,-1.605244,0.571356,1.397924,-0.244103,1.237123,-0.038537,-0.154308,3.097162,-1.715261,0.239623,6.465400,-2.364275,0.597890,-0.003838,-0.123523,0.000000,-0.170771,-0.309045,-0.000000
1.620000,-1.888246,-1.360094,-1.607692,0.583883,1.397452,-0.245634,1.268416,-0.055808,-0.151880,3.161069,-1.739014,0.246160,6.304973,-2.366755,0.701514,-0.005557,-0.126645,0.000000,-0.173078,-0.315345,0.000000
1.630000,-1.882343,-1.346123,-1.610156,0.596726,1.396807,-0.247141,1.300338,-0.073315,-0.149382,3.223030,-1.762185,0.253482,6.084372,-2.265298,0.762813,-0.007299,-0.129830,0.000000,-0.175318,-0.321452,0.000000
1.640000,-1.876311,-1.332158,-1.612635,0.609892,1.395985,-0.248622,1.332869,-0.091049,-0.146808,3.282880,-1.784653,0.261596,5.891926,-2.245045,0.869077,-0.009063,-0.133074,0.000000,-0.177481,-0.327349,0.000000
1.650000,-1.870145,-1.318203,-1.615129,0.623386,1.394985,-0.250077,1.365989,-0.109008,-0.144147,3.340740,-1.806896,0.270796,5.669123,-2.183928,0.962566,-0.010849,-0.136376,0.000000,-0.179615,-0.333054,0.000000
1.660000,-1.863842,-1.304259,-1.617637,0.637214,1.393805,-0.251504,1.399676,-0.127184,-0.141389,3.396218,-1.828266,0.280833,5.430917,-2.111642,1.056963,-0.012655,-0.139735,0.000000,-0.181654,-0.338525,-0.000000
1.670000,-1.857399,-1.290328,-1.620159,0.651381,1.392441,-0.252904,1.433906,-0.145572,-0.138526,3.449370,-1.849309,0.292049,5.190192,-2.072728,1.175018,-0.014482,-0.143147,0.000000,-0.183655,-0.343774,0.000000
1.680000,-1.850813,-1.276411,-1.622695,0.665893,1.390892,-0.254275,1.468655,-0.164166,-0.135546,3.499830,-1.869216,0.304096,4.898963,-1.906337,1.234260,-0.016328,-0.146610,0.000000,-0.185537,-0.348762,-0.000000
1.690000,-1.844080,-1.262511,-1.625244,0.680756,1.389157,-0.255615,1.503893,-0.182952,-0.132441,3.547433,-1.887857,0.316971,4.625860,-1.842846,1.352634,-0.018192,-0.150122,0.000000,-0.187288,-0.353472,0.000000
1.700000,-1.837197,-1.248629,-1.627807,0.695973,1.387233,-0.256923,1.539594,-0.201922,-0.129202,3.592238,-1.905847,0.331055,4.325783,-1.730920,1.452709,-0.020074,-0.153680,0.000000,-0.188970,-0.357919,-0.000000
1.710000,-1.830159,-1.234767,-1.630382,0.711549,1.385118,-0.258198,1.575727,-0.221064,-0.125817,3.633900,-1.922409,0.346021,4.009978,-1.607290,1.551721,-0.021971,-0.157281,0.000000,-0.190506,-0.362065,0.000000
1.720000,-1.822965,-1.220927,-1.632971,0.727489,1.382811,-0.259439,1.612262,-0.240368,-0.122277,3.672446,-1.938210,0.362158,3.690385,-1.524918,1.667826,-0.023883,-0.160922,0.000000,-0.191964,-0.365919,-0.000000
1.730000,-1.815608,-1.207111,-1.635571,0.743796,1.380310,-0.260643,1.649165,-0.259822,-0.118571,3.707526,-1.952318,0.379212,3.322877,-1.294093,1.742823,-0.025810,-0.164600,0.000000,-0.193251,-0.369445,-0.000000
1.740000,-1.808087,-1.193321,-1.638183,0.760473,1.377614,-0.261810,1.686400,-0.279408,-0.114690,3.738976,-1.964596,0.397177,2.970711,-1.186759,1.858256,-0.027748,-0.168312,0.000000,-0.194356,-0.372628,-0.000000
1.750000,-1.800398,-1.179560,-1.640807,0.777525,1.374722,-0.262936,1.723932,-0.299111,-0.110624,3.766838,-1.975794,0.416312,2.592596,-1.024488,1.960575,-0.029697,-0.172054,0.000000,-0.195355,-0.375481,0.000000
1.760000,-1.792536,-1.165828,-1.643442,0.794953,1.371632,-0.264021,1.761724,-0.318917,-0.106361,3.790765,-1.985023,0.436447,2.198247,-0.851081,2.063818,-0.031654,-0.175824,0.000000,-0.196160,-0.377968,-0.000000
1.770000,-1.784497,-1.152128,-1.646087,0.812760,1.368343,-0.265063,1.799735,-0.338808,-0.101891,3.810826,-1.993072,0.457565,1.803525,-0.726974,2.162206,-0.033619,-0.179616,0.000000,-0.196851,-0.380099,-0.000000
1.780000,-1.776279,-1.138461,-1.648743,0.830948,1.364855,-0.266059,1.837926,-0.358771,-0.097206,3.826618,-1.998896,0.479745,1.351976,-0.435369,2.273997,-0.035591,-0.183429,0.000000,-0.197327,-0.381838,0.000000
1.790000,-1.767877,-1.124831,-1.651408,0.849519,1.361167,-0.267006,1.876252,-0.378778,-0.092293,3.837973,-2.002365,0.502992,0.924543,-0.287571,2.372724,-0.037565,-0.187257,0.000000,-0.197577,-0.383172,0.000000
1.800000,-1.759288,-1.111239,-1.654083,0.868473,1.357279,-0.267904,1.914671,-0.398813,-0.087143,3.844990,-2.004358,0.527221,0.468182,-0.079456,2.475553,-0.039542,-0.191096,0.000000,-0.197688,-0.384113,0.000000
1.810000,-1.750506,-1.097686,-1.656766,0.887812,1.353191,-0.268748,1.953136,-0.418857,-0.081745,3.847255,-2.003896,0.552597,-0.004572,0.138448,2.579930,-0.041518,-0.194944,0.000000,-0.197568,-0.384626,0.000000
1.820000,-1.741530,-1.084176,-1.659458,0.907536,1.348902,-0.269538,1.991601,-0.438887,-0.076089,3.844968,-2.001884,0.578637,-0.468135,0.298935,2.646870,-0.043493,-0.198794,0.000000,-0.197304,-0.384726,0.000000
1.830000,-1.732354,-1.070709,-1.662157,0.927644,1.344413,-0.270269,2.030019,-0.458885,-0.070168,3.837574,-1.997186,0.605932,-1.013487,0.642779,2.812731,-0.045463,-0.202644,0.000000,-0.196791,-0.384372,0.000000
1.840000,-1.722976,-1.057288,-1.664863,0.948136,1.339725,-0.270940,2.068335,-0.478821,-0.063966,3.824905,-1.989688,0.634501,-1.510033,0.823844,2.881586,-0.047428,-0.206488,0.000000,-0.196019,-0.383553,0.000000
1.850000,-1.713390,-1.043915,-1.667575,0.969010,1.334837,-0.271548,2.106500,-0.498673,-0.057476,3.807214,-1.980397,0.663724,-2.043415,1.068944,2.981781,-0.049383,-0.210322,0.000000,-0.195086,-0.382284,0.000000
1.860000,-1.703594,-1.030592,-1.670294,0.990265,1.329752,-0.272089,2.144460,-0.518419,-0.050687,3.783929,-1.968264,0.694247,-2.593352,1.321484,3.083400,-0.051328,-0.214141,0.000000,-0.193896,-0.380528,-0.000000
1.870000,-1.693584,-1.017321,-1.673017,1.011899,1.324469,-0.272560,2.182162,-0.538033,-0.043591,3.755507,-1.954293,0.725025,-3.115569,1.509471,3.109715,-0.053261,-0.217941,0.000000,-0.192544,-0.378308,-0.000000
1.880000,-1.683355,-1.004103,-1.675745,1.033908,1.318992,-0.272959,2.219551,-0.557494,-0.036181,3.721107,-1.937302,0.757232,-3.767423,1.890562,3.332432,-0.055178,-0.221717,0.000000,-0.190922,-0.375574,0.000000
1.890000,-1.672904,-0.990941,-1.678476,1.056288,1.313320,-0.273283,2.256563,-0.576769,-0.028441,3.680556,-1.917200,0.790895,-4.323001,2.093957,3.361297,-0.057078,-0.225462,0.000000,-0.189025,-0.372312,0.000000
1.900000,-1.662228,-0.977837,-1.681210,1.079037,1.307457,-0.273527,2.293143,-0.595832,-0.020363,3.634414,-1.895102,0.824770,-4.930075,2.362289,3.451696,-0.058958,-0.229173,0.000000,-0.186958,-0.368553,0.000000
1.910000,-1.651323,-0.964793,-1.683946,1.102150,1.301404,-0.273689,2.329230,-0.614660,-0.011940,3.581805,-1.869930,0.860020,-5.554027,2.634658,3.541995,-0.060816,-0.232844,0.000000,-0.184623,-0.364242,-0.000000
1.920000,-1.640184,-0.951810,-1.686683,1.125620,1.295165,-0.273765,2.364762,-0.633225,-0.003164,3.523658,-1.842750,0.895085,-6.116448,2.838116,3.523993,-0.062650,-0.236470,0.000000,-0.182119,-0.359435,0.000000
1.930000,-1.628809,-0.938890,-1.689421,1.149443,1.288741,-0.273751,2.399680,-0.651504,0.005967,3.458617,-1.812399,0.931613,-6.895086,3.233209,3.782451,-0.064458,-0.240045,0.000000,-0.179343,-0.354042,0.000000
1.940000,-1.617194,-0.926036,-1.692158,1.173611,1.282136,-0.273644,2.433910,-0.669462,0.015473,3.386501,-1.778825,0.969625,-7.490887,3.444604,3.764572,-0.066236,-0.243564,0.000000,-0.176295,-0.348050,0.000000
1.950000,-1.605336,-0.913248,-1.694894,1.198119,1.275353,-0.273440,2.467391,-0.687074,0.025357,3.308426,-1.743197,1.007345,-8.164995,3.717453,3.832542,-0.067983,-0.247020,0.000000,-0.173078,-0.341527,-0.000000
1.960000,-1.593230,-0.900529,-1.697627,1.222957,1.268395,-0.273136,2.500053,-0.704316,0.035623,3.222980,-1.704573,1.046011,-8.856605,3.987841,3.889160,-0.069697,-0.250408,0.000000,-0.169612,-0.334368,0.000000
1.970000,-1.580875,-0.887881,-1.700356,1.248117,1.261268,-0.272726,2.531832,-0.721158,0.046278,3.131882,-1.663631,1.084970,-9.430916,4.218877,3.913882,-0.071375,-0.253722,0.000000,-0.165958,-0.326723,-0.000000
1.980000,-1.568267,-0.875304,-1.703081,1.273590,1.253974,-0.272209,2.562664,-0.737578,0.057325,3.032938,-1.619811,1.124527,-10.361646,4.545101,3.996349,-0.073015,-0.256956,0.000000,-0.162067,-0.318390,0.000000
1.990000,-1.555403,-0.862802,-1.705800,1.299367,1.246518,-0.271579,2.592464,-0.753545,0.068771,2.925958,-1.573128,1.164605,-10.968949,4.771312,4.004586,-0.074615,-0.260104,0.000000,-0.157943,-0.309351,0.000000
2.000000,-1.542279,-0.850375,-1.708512,1.325436,1.238904,-0.270832,2.621165,-0.769034,0.080617,2.812961,-1.524245,1.204693,-11.698151,5.023789,4.023978,-0.076174,-0.263159,0.000000,-0.153644,-0.299785,-0.000000
2.010000,-1.528893,-0.838024,-1.711216,1.351786,1.231139,-0.269965,2.648699,-0.784026,0.092869,2.692797,-1.473906,1.245893,-12.421287,5.246033,4.049044,-0.077688,-0.266115,0.000000,-0.149255,-0.289609,0.000000
2.020000,-1.515242,-0.825752,-1.713911,1.378405,1.223226,-0.268973,2.674989,-0.798488,0.105522,2.563727,-1.417477,1.284112,-13.311085,5.841458,3.752556,-0.079156,-0.268966,0.000000,-0.144291,-0.278548,-0.000000
2.030000,-1.501324,-0.813560,-1.716595,1.405281,1.215171,-0.267853,2.699953,-0.812378,0.118559,2.428290,-1.361242,1.324255,-13.774795,5.398254,4.278436,-0.080574,-0.271702,0.000000,-0.139405,-0.266971,0.000000
2.040000,-1.487136,-0.801449,-1.719268,1.432400,1.206980,-0.266601,2.723535,-0.825717,0.132015,2.286535,-1.305544,1.366389,-14.660767,5.939233,3.983908,-0.081945,-0.274321,0.000000,-0.134631,-0.254882,-0.000000
2.050000,-1.472675,-0.789421,-1.721927,1.459747,1.198658,-0.265212,2.745652,-0.838466,0.145873,2.135764,-1.244170,1.405246,-15.411281,6.135987,3.945415,-0.083265,-0.276814,0.000000,-0.129320,-0.241878,0.000000
2.060000,-1.457940,-0.777477,-1.724571,1.487308,1.190213,-0.263682,2.766213,-0.850586,0.160120,1.974734,-1.179003,1.443943,-16.234285,6.394058,3.867525,-0.084530,-0.279172,0.000000,-0.123683,-0.227919,-0.000000
2.070000,-1.442928,-0.765617,-1.727200,1.515066,1.181649,-0.262008,2.785165,-0.862079,0.174755,1.816233,-1.120936,1.483217,-16.010838,5.704902,3.910258,-0.085742,-0.281390,0.000000,-0.118773,-0.214239,0.000000
2.080000,-1.427638,-0.753844,-1.729811,1.543006,1.172973,-0.260186,2.802485,-0.872973,0.189777,1.643082,-1.054713,1.520532,-18.636082,7.552877,3.546382,-0.086903,-0.283467,0.000000,-0.113099,-0.199122,-0.000000
2.090000,-1.412068,-0.742158,-1.732403,1.571110,1.164192,-0.258211,2.817971,-0.883140,0.205157,1.454541,-0.979777,1.555550,-18.521603,6.940078,3.527416,-0.088001,-0.285382,0.000000,-0.106600,-0.182477,-0.000000
2.100000,-1.396215,-0.730561,-1.734975,1.599359,1.155312,-0.256081,2.831592,-0.892601,0.220889,1.268005,-0.911787,1.590364,-19.332415,7.145108,3.357425,-0.089038,-0.287132,0.000000,-0.100802,-0.166014,0.000000
2.110000,-1.380080,-0.719052,-1.737524,1.627735,1.146342,-0.253792,2.843287,-0.901358,0.236951,1.069595,-0.839474,1.621720,-20.122394,7.301271,3.140464,-0.090015,-0.288711,0.000000,-0.094590,-0.148306,0.000000
2.120000,-1.363660,-0.707634,-1.740050,1.656218,1.137288,-0.251341,2.852976,-0.909386,0.253334,0.867677,-0.765953,1.655211,-20.476667,7.411603,3.328916,-0.090929,-0.290110,0.000000,-0.088296,-0.130298,0.000000
2.130000,-1.346955,-0.696307,-1.742550,1.684788,1.128157,-0.248725,2.860605,-0.916673,0.270037,0.655544,-0.691060,1.683502,-21.953146,7.563097,2.317925,-0.091780,-0.291324,0.000000,-0.081855,-0.111127,0.000000
2.140000,-1.329964,-0.685071,-1.745024,1.713423,1.118957,-0.245940,2.866051,-0.923204,0.286983,0.433109,-0.615034,1.706015,-22.309023,7.624772,2.406618,-0.092566,-0.292338,0.000000,-0.075279,-0.090751,0.000000
2.150000,-1.312687,-0.673928,-1.747469,1.742101,1.109695,-0.242984,2.869261,-0.928972,0.304165,0.207588,-0.538556,1.729616,-23.009858,7.678292,2.084135,-0.093286,-0.293146,0.000000,-0.068674,-0.070044,-0.000000
2.160000,-1.295122,-0.662877,-1.749883,1.770800,1.100380,-0.239856,2.870190,-0.933994,0.321562,-0.022393,-0.466308,1.749369,-23.595977,7.606597,1.760716,-0.093941,-0.293743,0.000000,-0.062462,-0.048717,0.000000
2.170000,-1.277271,-0.651920,-1.752265,1.799497,1.091018,-0.236552,2.868744,-0.938233,0.339132,-0.269875,-0.378794,1.763807,-25.297492,9.075621,1.220667,-0.094529,-0.294117,0.000000,-0.054709,-0.025455,0.000000
2.180000,-1.259132,-0.641057,-1.754613,1.828167,1.081618,-0.233073,2.864803,-0.941611,0.356830,-0.515687,-0.302019,1.775753,-23.839928,6.249032,1.166941,-0.095040,-0.294255,0.000000,-0.047984,-0.002166,0.000000
2.190000,-1.240708,-0.630288,-1.756926,1.856785,1.072188,-0.229415,2.858445,-0.944320,0.374639,-0.758625,-0.237407,1.785063,-25.343877,7.492432,0.591042,-0.095493,-0.294161,0.000000,-0.042426,0.021050,0.000000
2.200000,-1.221997,-0.619613,-1.759201,1.885327,1.062734,-0.225580,2.849567,-0.946300,0.392510,-1.017313,-0.159252,1.788321,-25.786866,7.313902,0.154456,-0.095882,-0.293824,0.000000,-0.035469,0.046111,0.000000
2.210000,-1.203001,-0.609033,-1.761437,1.913768,1.053264,-0.221565,2.838090,-0.947525,0.410386,-1.279130,-0.085904,1.785990,-26.262298,7.183121,-0.348532,-0.096204,-0.293233,0.000000,-0.028918,0.071803,0.000000
2.220000,-1.183722,-0.598548,-1.763632,1.942080,1.043786,-0.217372,2.823994,-0.948037,0.428235,-1.539591,-0.017216,1.783803,-26.120876,6.714637,-0.362385,-0.096462,-0.292382,0.000000,-0.022796,0.097538,0.000000
2.230000,-1.164160,-0.588158,-1.765784,1.970239,1.034306,-0.213001,2.807270,-0.947867,0.446032,-1.807659,0.051759,1.773002,-27.494224,7.082203,-1.810872,-0.096659,-0.291269,0.000000,-0.016544,0.124458,0.000000
2.240000,-1.144318,-0.577862,-1.767891,1.998217,1.024831,-0.208452,2.787814,-0.946999,0.463662,-2.083284,0.121047,1.752934,-27.321593,6.606622,-1.935796,-0.096792,-0.289877,0.000000,-0.010144,0.152597,0.000000
2.250000,-1.124197,-0.567661,-1.769952,2.025986,1.015368,-0.203728,2.765618,-0.945466,0.481092,-2.356478,0.185232,1.731890,-27.608598,6.392275,-2.547676,-0.096864,-0.288203,0.000000,-0.004194,0.180751,-0.000000
2.260000,-1.103799,-0.557555,-1.771965,2.053520,1.005924,-0.198831,2.740679,-0.943278,0.498272,-2.631303,0.252521,1.703012,-27.775557,6.239444,-3.173888,-0.096874,-0.286243,0.000000,0.002200,0.209527,0.000000
2.270000,-1.083127,-0.547542,-1.773928,2.080790,0.996505,-0.193764,2.712952,-0.940488,0.515135,-2.915747,0.302380,1.668865,-28.688557,4.526894,-3.715862,-0.096827,-0.283987,0.000000,0.006898,0.239649,0.000000
2.280000,-1.062184,-0.537624,-1.775840,2.107769,0.987116,-0.188529,2.682381,-0.937200,0.531624,-3.196161,0.359742,1.627437,-27.371910,6.966285,-4.575122,-0.096733,-0.281427,0.000000,0.012504,0.269839,0.000000
2.290000,-1.040973,-0.527800,-1.777698,2.134429,0.977763,-0.183133,2.649050,-0.933259,0.547658,-3.471406,0.425462,1.578428,-28.087197,5.366792,-5.173497,-0.096573,-0.278566,0.000000,0.019125,0.299991,0.000000
2.300000,-1.019497,-0.518069,-1.779502,2.160741,0.968452,-0.177578,2.612920,-0.928763,0.563174,-3.754147,0.473821,1.523415,-28.033819,5.102751,-5.888964,-0.096357,-0.275395,0.000000,0.024070,0.331316,0.000000
2.310000,-0.997759,-0.508431,-1.781249,2.186678,0.959189,-0.171871,2.573926,-0.923958,0.578034,-4.046214,0.481273,1.445489,-28.189378,3.924858,-6.924510,-0.096109,-0.271901,0.000000,0.025047,0.364476,0.000000
2.320000,-0.975765,-0.498885,-1.782939,2.212210,0.949975,-0.166019,2.532169,-0.918564,0.592274,-4.297656,0.621672,1.410424,-24.201881,16.840885,-2.779446,-0.095798,-0.268093,0.000000,0.039553,0.392630,0.000000
2.330000,-0.953517,-0.489431,-1.784569,2.237313,0.940822,-0.160027,2.487873,-0.911904,0.606083,-4.574395,0.664572,1.333422,-31.197848,-8.482304,-12.702408,-0.095355,-0.263997,0.000000,0.044410,0.424731,0.000000
2.340000,-0.931020,-0.480068,-1.786139,2.261958,0.931735,-0.153902,2.440573,-0.905688,0.618770,-4.878528,0.600242,1.210901,-27.477605,3.016136,-9.079292,-0.094952,-0.259544,0.000000,0.038510,0.461057,0.000000
2.350000,-0.908279,-0.470796,-1.787647,2.286115,0.922709,-0.147655,2.390476,-0.899348,0.630483,-5.141734,0.662511,1.128897,-27.273754,2.095154,-10.021520,-0.094529,-0.254756,0.000000,0.045563,0.492358,0.000000
2.360000,-0.885299,-0.461614,-1.789092,2.309758,0.913751,-0.141295,2.337769,-0.892078,0.641420,-5.396902,0.806589,1.061795,-26.512741,4.255813,-10.005836,-0.094003,-0.249657,0.000000,0.061164,0.522654,0.000000
2.370000,-0.862086,-0.452521,-1.790473,2.332861,0.904868,-0.134830,2.282340,-0.884969,0.651183,-5.697105,0.541052,0.868070,-30.818316,-35.540843,-22.314010,-0.093484,-0.244222,0.000000,0.034964,0.560968,-0.000000
2.380000,-0.838644,-0.443516,-1.791788,2.355395,0.896042,-0.128278,2.223983,-0.880168,0.659082,-5.956398,0.553847,0.750390,-20.936944,38.777684,-1.017691,-0.093192,-0.238412,0.000000,0.037289,0.593202,0.000000
2.390000,-0.814980,-0.434600,-1.793038,2.377334,0.887275,-0.121650,2.163386,-0.872692,0.666525,-6.169883,0.875059,0.717901,-24.457152,3.422494,-11.959926,-0.092614,-0.232332,0.000000,0.071566,0.618757,-0.000000
2.400000,-0.791099,-0.425771,-1.794221,2.398655,0.878590,-0.114951,2.100409,-0.864343,0.672930,-6.422108,0.808798,0.566193,-23.262349,5.245816,-11.925196,-0.091933,-0.225952,0.000000,0.066132,0.651293,0.000000
2.410000,-0.767009,-0.417028,-1.795337,2.419334,0.869986,-0.108196,2.035127,-0.856651,0.677821,-6.629871,0.710797,0.406706,-21.753048,2.413614,-13.092898,-0.091305,-0.219269,0.000000,0.057492,0.679344,0.000000
2.420000,-0.742715,-0.408371,-1.796385,2.439350,0.861460,-0.101399,1.967581,-0.848007,0.681584,-6.888896,1.107479,0.367568,-26.662938,50.401567,-1.415307,-0.090563,-0.212297,0.000000,0.100162,0.709945,0.000000
2.430000,-0.718224,-0.399798,-1.797365,2.458677,0.853040,-0.094565,1.897561,-0.835837,0.684823,-7.092013,1.162081,0.238157,-13.845157,-40.334489,-24.676076,-0.089439,-0.205026,0.000000,0.107679,0.736818,0.000000
2.440000,-0.693544,-0.391310,-1.798276,2.477296,0.844733,-0.087710,1.825971,-0.826242,0.685962,-7.233945,0.836250,0.009158,-17.943788,1.895399,-14.379676,-0.088564,-0.197518,0.000000,0.075643,0.759133,0.000000
2.450000,-0.668681,-0.382903,-1.799119,2.495191,0.836514,-0.080851,1.752669,-0.817105,0.685501,-7.421857,0.972737,-0.106604,-16.238484,-1.257307,-15.486818,-0.087717,-0.189772,0.000000,0.091723,0.783595,-0.000000
2.460000,-0.643642,-0.374579,-1.799893,2.512344,0.828392,-0.074004,1.677561,-0.807408,0.683626,-7.600321,0.965869,-0.269998,-15.213918,-2.418795,-16.221906,-0.086793,-0.181785,0.000000,0.092991,0.807776,-0.000000
2.470000,-0.618436,-0.366335,-1.800599,2.528737,0.820365,-0.067184,1.601042,-0.798013,0.680155,-7.687127,0.903390,-0.421970,-6.261842,-7.811480,-15.090062,-0.085882,-0.173598,0.000000,0.088335,0.821681,-0.000000
2.480000,-0.593070,-0.358171,-1.801237,2.544362,0.812429,-0.060406,1.523661,-0.789269,0.675123,-7.811954,0.857276,-0.591041,-18.832707,-1.312323,-18.735674,-0.085019,-0.165275,0.000000,0.085484,0.839488,0.000000
2.490000,-0.567552,-0.350086,-1.801807,2.559205,0.804579,-0.053688,1.444624,-0.780779,0.668269,-7.980549,0.832374,-0.777455,-10.732454,-5.898006,-17.585626,-0.084162,-0.156729,0.000000,0.084977,0.861762,-0.000000
2.500000,-0.541889,-0.342079,-1.802311,2.573251,0.796812,-0.047047,1.364413,-0.772822,0.659636,-8.061870,0.759387,-0.950276,-9.672262,-6.394575,-17.890777,-0.083341,-0.148020,0.000000,0.079280,0.873985,0.000000
2.510000,-0.516089,-0.334150,-1.802749,2.586490,0.789122,-0.040500,1.283352,-0.764927,0.649468,-8.147682,0.836941,-1.076629,-8.257032,-3.904796,-16.924035,-0.082507,-0.139190,0.000000,0.089296,0.885439,-0.000000
2.520000,-0.490162,-0.326297,-1.803121,2.598915,0.781511,-0.034064,1.201445,-0.758097,0.637360,-8.234058,0.444196,-1.376325,-8.272199,-49.528638,-33.708821,-0.081765,-0.130240,0.000000,0.050294,0.898844,-0.000000
2.530000,-0.464114,-0.318519,-1.803430,2.610516,0.773947,-0.027763,1.118753,-0.754784,0.622412,-8.297464,0.373560,-1.555459,-4.385077,36.204771,-1.809968,-0.081370,-0.121171,0.000000,0.044831,0.907224,0.000000
2.540000,-0.437954,-0.310818,-1.803677,2.621288,0.766424,-0.021617,1.035581,-0.749233,0.606773,-8.336834,0.661061,-1.600058,-4.241427,-4.024988,-16.470800,-0.080724,-0.112052,0.000000,0.076623,0.910876,0.000000
2.550000,-0.411691,-0.303191,-1.803863,2.631227,0.758962,-0.015633,0.952004,-0.743473,0.589713,-8.375908,0.508030,-1.805072,-2.823744,-1.349181,-15.180514,-0.080037,-0.102886,0.000000,0.062499,0.915898,-0.000000
2.560000,-0.385332,-0.295638,-1.803990,2.640328,0.751551,-0.009829,0.868161,-0.739008,0.570771,-8.389540,0.370241,-1.986349,-1.304874,-2.971113,-15.116282,-0.079467,-0.093690,0.000000,0.049817,0.917208,-0.000000
2.570000,-0.358887,-0.288160,-1.804060,2.648589,0.744182,-0.004222,0.784150,-0.734234,0.550472,-8.414939,0.662178,-2.052546,-2.418951,38.772398,-3.897836,-0.078848,-0.084484,0.000000,0.082098,0.918093,0.000000
2.580000,-0.332363,-0.280754,-1.804075,2.656010,0.736877,0.001179,0.699975,-0.726874,0.529454,-8.409459,0.671510,-2.185560,3.552760,-37.626203,-22.882320,-0.077942,-0.075281,0.000000,0.084617,0.915886,0.000000
2.590000,-0.305770,-0.273422,-1.804038,2.662590,0.729635,0.006360,0.616080,-0.722032,0.506467,-8.371488,0.365977,-2.393228,2.663007,-0.704955,-12.814055,-0.077285,-0.066123,0.000000,0.054166,0.910125,-0.000000
2.600000,-0.279114,-0.266162,-1.803949,2.668333,0.722435,0.011303,0.532484,-0.717812,0.482057,-8.344692,0.463848,-2.491286,4.056044,-2.432930,-12.607786,-0.076677,-0.057023,0.000000,0.065799,0.904217,0.000000
2.610000,-0.252406,-0.258973,-1.803812,2.673241,0.715280,0.015997,0.449227,-0.713084,0.456539,-8.305626,0.487642,-2.610876,5.153168,-1.704267,-11.927075,-0.076003,-0.047991,0.000000,0.069638,0.896709,0.000000
2.620000,-0.225652,-0.251856,-1.803630,2.677319,0.708172,0.020430,0.366521,-0.708758,0.429812,-8.228893,0.347978,-2.735435,8.819793,-17.586538,-12.374045,-0.075358,-0.039054,0.000000,0.056149,0.884785,0.000000
2.630000,-0.198862,-0.244809,-1.803405,2.680574,0.701100,0.024590,0.284619,-0.705697,0.401883,-8.158069,0.317349,-2.845538,5.291713,11.734503,-9.621407,-0.074835,-0.030243,0.000000,0.054103,0.873029,0.000000
2.640000,-0.172043,-0.237834,-1.803139,2.683013,0.694061,0.028465,0.203321,-0.701938,0.372958,-8.095685,0.407996,-2.939968,8.550849,-2.322744,-9.868546,-0.074227,-0.021542,0.000000,0.064648,0.861794,-0.000000
2.650000,-0.145204,-0.230928,-1.802836,2.684643,0.687061,0.032045,0.122844,-0.698201,0.343062,-7.998966,0.344952,-3.037602,9.409362,-1.594573,-9.043630,-0.073612,-0.012975,0.000000,0.058964,0.846658,-0.000000
2.660000,-0.118353,-0.224092,-1.802499,2.685473,0.680095,0.035323,0.043329,-0.694901,0.312266,-7.902823,0.313224,-3.119718,10.240170,-1.764349,-8.137345,-0.073034,-0.004562,0.000000,0.056430,0.831334,0.000000
2.670000,-0.091498,-0.217326,-1.802131,2.685513,0.673162,0.038288,-0.035151,-0.691700,0.280636,-7.790410,0.337118,-3.207269,11.811335,3.640213,-8.626299,-0.072459,0.003689,0.000000,0.059710,0.814122,-0.000000
2.680000,-0.064646,-0.210629,-1.801734,2.684774,0.666262,0.040933,-0.112474,-0.688300,0.248187,-7.675635,0.325082,-3.276583,11.119170,-6.140011,-5.208911,-0.071855,0.011762,0.000000,0.059031,0.796536,0.000000
2.690000,-0.037805,-0.204001,-1.801313,2.683267,0.659395,0.043250,-0.188663,-0.685355,0.215176,-7.559768,0.272973,-3.326358,12.466243,-1.354172,-5.490547,-0.071295,0.019660,0.000000,0.054024,0.778798,0.000000
2.700000,-0.010983,-0.197441,-1.800871,2.681005,0.652555,0.045234,-0.263616,-0.682615,0.181634,-7.430137,0.273122,-3.379968,13.026155,-1.535346,-4.482512,-0.070751,0.027372,0.000000,0.054438,0.759605,0.000000
2.710000,0.015813,-0.190950,-1.800410,2.677999,0.645742,0.046881,-0.337273,-0.679978,0.147627,-7.300787,0.253816,-3.419668,13.473701,-1.604504,-3.500979,-0.070215,0.034892,0.000000,0.052705,0.740502,0.000000
2.720000,0.042575,-0.184526,-1.799934,2.674264,0.638955,0.048186,-0.409566,-0.677483,0.113270,-7.154985,0.247697,-3.450371,15.053957,-0.314565,-2.593583,-0.069692,0.042212,0.000000,0.052233,0.719808,-0.000000
2.730000,0.069296,-0.178170,-1.799447,2.669813,0.632192,0.049146,-0.480390,-0.675058,0.078655,-7.012982,0.232937,-3.470581,13.316822,-2.654938,-1.446266,-0.069175,0.049325,0.000000,0.050773,0.699667,0.000000
2.740000,0.095969,-0.171882,-1.798952,2.664661,0.625453,0.049758,-0.549848,-0.672861,0.043894,-6.876264,0.208824,-3.480187,14.645117,-1.457085,-0.519592,-0.068680,0.056242,0.000000,0.048274,0.680262,0.000000
2.750000,0.122587,-0.165661,-1.798453,2.658821,0.618734,0.050023,-0.617858,-0.670825,0.009081,-6.725603,0.197939,-3.480596,14.851715,-1.415334,0.481823,-0.068204,0.062958,0.000000,0.047043,0.659669,0.000000
2.760000,0.149143,-0.159507,-1.797953,2.652309,0.612036,0.049940,-0.684369,-0.668799,-0.025695,-6.576410,0.210899,-3.473295,15.038362,-0.757189,1.425264,-0.067729,0.069468,0.000000,0.048148,0.639483,0.000000
2.770000,0.175631,-0.153421,-1.797456,2.645139,0.605358,0.049510,-0.749376,-0.666973,-0.060317,-6.424447,0.139016,-3.447994,15.287842,-8.985244,3.198555,-0.067278,0.075777,0.000000,0.040573,0.619381,-0.000000
2.780000,0.202044,-0.147400,-1.796964,2.637326,0.598694,0.048735,-0.812857,-0.665780,-0.094644,-6.272034,0.128467,-3.418491,15.185687,7.022331,2.686613,-0.066894,0.081885,0.000000,0.039177,0.599526,-0.000000
2.790000,0.228375,-0.141447,-1.796482,2.628886,0.592044,0.047618,-0.874817,-0.664140,-0.128678,-6.119695,0.185824,-3.385505,15.334083,-0.225237,4.347241,-0.066468,0.087795,0.000000,0.044509,0.579975,-0.000000
2.800000,0.254619,-0.135559,-1.796013,2.619835,0.585411,0.046163,-0.935246,-0.662410,-0.162289,-5.965983,0.163608,-3.335322,15.343253,0.437205,5.249203,-0.066039,0.093511,0.000000,0.041757,0.560722,0.000000
2.810000,0.280770,-0.129738,-1.795560,2.610187,0.578795,0.044374,-0.994140,-0.660827,-0.195366,-5.812939,0.151252,-3.278725,15.314385,0.404205,6.153630,-0.065629,0.099036,0.000000,0.039954,0.541892,0.000000
2.820000,0.306821,-0.123983,-1.795126,2.599957,0.572195,0.042257,-1.051501,-0.659117,-0.227827,-5.659301,0.202098,-3.211514,15.355362,6.538821,7.201756,-0.065213,0.104373,0.000000,0.044317,0.523412,0.000000
2.830000,0.332767,-0.118294,-1.794716,2.589162,0.565615,0.039820,-1.107331,-0.656938,-0.259571,-5.507037,0.214298,-3.136509,15.091353,-4.205891,7.793370,-0.064758,0.109528,0.000000,0.044777,0.505459,0.000000
2.840000,0.358602,-0.112671,-1.794331,2.577816,0.559055,0.037069,-1.161648,-0.655002,-0.290532,-5.356486,0.182991,-3.054024,15.068455,1.188956,8.784424,-0.064335,0.114506,0.000000,0.040931,0.488062,0.000000
2.850000,0.384322,-0.107113,-1.793975,2.565934,0.552515,0.034012,-1.214460,-0.653026,-0.320617,-5.206190,0.210353,-2.961604,14.934250,1.037274,9.610811,-0.063915,0.119311,0.000000,0.042774,0.471112,0.000000
2.860000,0.409919,-0.101621,-1.793652,2.553531,0.545995,0.030659,-1.265776,-0.650928,-0.349738,-5.057087,0.207528,-2.861146,14.796008,0.796451,10.424458,-0.063492,0.123949,0.000000,0.041615,0.454682,0.000000
2.870000,0.435391,-0.096193,-1.793363,2.540623,0.539497,0.027021,-1.315614,-0.648688,-0.377818,-4.911124,0.248323,-2.753682,14.479900,5.028825,11.114867,-0.063065,0.128425,0.000000,0.044651,0.438945,0.000000
2.880000,0.460730,-0.090831,-1.793112,2.527224,0.533023,0.023107,-1.364000,-0.646079,-0.404783,-4.765735,0.259129,-2.637872,14.599128,-2.940523,12.044018,-0.062611,0.132747,0.000000,0.044713,0.423668,0.000000
2.890000,0.485933,-0.085533,-1.792902,2.513348,0.526575,0.018929,-1.410930,-0.643635,-0.430548,-4.620888,0.236696,-2.513926,14.283233,0.809730,12.688879,-0.062183,0.136917,0.000000,0.041535,0.408844,0.000000
2.900000,0.510996,-0.080299,-1.792735,2.499010,0.520150,0.014500,-1.456430,-0.641167,-0.455042,-4.479352,0.255404,-2.383761,14.109413,0.590049,13.389940,-0.061763,0.140942,0.000000,0.042303,0.394707,0.000000
2.910000,0.535912,-0.075130,-1.792613,2.484224,0.513752,0.009833,-1.500515,-0.638489,-0.478203,-4.337673,0.282827,-2.247410,13.958835,0.985445,14.037658,-0.061334,0.144827,0.000000,0.043870,0.380921,-0.000000
2.920000,0.560679,-0.070024,-1.792539,2.469004,0.507381,0.004941,-1.543210,-0.635815,-0.499956,-4.202635,0.239203,-2.101610,13.308944,-5.906841,14.957836,-0.060915,0.148578,0.000000,0.038602,0.368169,0.000000
2.930000,0.585291,-0.064982,-1.792515,2.453364,0.501034,-0.000161,-1.584560,-0.633514,-0.520223,-4.066025,0.244536,-1.951708,14.021999,7.096293,15.011721,-0.060543,0.152204,0.000000,0.038023,0.355590,-0.000000
2.940000,0.609745,-0.060003,-1.792543,2.437318,0.494712,-0.005459,-1.624522,-0.630712,-0.538980,-3.927435,0.304354,-1.798278,13.434601,1.035144,15.828756,-0.060135,0.155704,0.000000,0.042609,0.343132,0.000000
2.950000,0.634036,-0.055088,-1.792624,2.420879,0.488420,-0.010936,-1.663134,-0.627714,-0.556158,-3.795081,0.297846,-1.636617,13.299208,1.487322,16.337226,-0.059718,0.159083,0.000000,0.040850,0.331629,-0.000000
2.960000,0.658161,-0.050235,-1.792762,2.404060,0.482158,-0.016576,-1.700424,-0.624695,-0.571700,-3.663088,0.305431,-1.471089,13.150524,1.532483,16.812941,-0.059312,0.162349,0.000000,0.040427,0.320455,0.000000
2.970000,0.682116,-0.045444,-1.792956,2.386874,0.475927,-0.022364,-1.736397,-0.621482,-0.585560,-3.531579,0.342322,-1.300016,13.105223,4.387727,17.345840,-0.058898,0.165505,0.000000,0.042760,0.309640,-0.000000
2.980000,0.705897,-0.040716,-1.793209,2.369336,0.469730,-0.028282,-1.771062,-0.617914,-0.597689,-3.401948,0.362572,-1.125338,12.821661,-0.383286,17.581620,-0.058463,0.168554,0.000000,0.043509,0.299276,-0.000000
2.990000,0.729501,-0.036050,-1.793522,2.351457,0.463569,-0.034312,-1.804442,-0.614305,-0.608057,-3.274124,0.364156,-0.947516,12.794403,2.172363,18.026095,-0.058035,0.171502,0.000000,0.042499,0.289339,0.000000
3.000000,0.752925,-0.031444,-1.793896,2.333251,0.457444,-0.040437,-1.836544,-0.610513,-0.616624,-3.146413,0.393525,-0.765369,12.702316,2.234601,18.346351,-0.057602,0.174351,0.000000,0.044102,0.279681,0.000000
3.010000,0.776165,-0.026900,-1.794331,2.314731,0.451359,-0.046638,-1.867369,-0.606459,-0.623356,-3.018498,0.417575,-0.580586,12.657465,2.412521,18.626386,-0.057155,0.177105,0.000000,0.045205,0.270240,0.000000
3.020000,0.799219,-0.022417,-1.794829,2.295908,0.445316,-0.052898,-1.896933,-0.602169,-0.628225,-2.895279,0.440286,-0.392768,12.209606,2.289283,18.907968,-0.056698,0.179768,0.000000,0.046189,0.261465,0.000000
3.030000,0.822083,-0.017994,-1.795389,2.276796,0.439317,-0.059197,-1.925264,-0.597640,-0.631205,-2.769620,0.466707,-0.203032,12.932798,3.000537,19.031671,-0.056230,0.182343,0.000000,0.047528,0.252669,0.000000
3.040000,0.844754,-0.013631,-1.796013,2.257407,0.433364,-0.065516,-1.952314,-0.592820,-0.632281,-2.640994,0.497103,-0.011827,12.574298,2.919161,19.224560,-0.055746,0.184829,0.000000,0.049251,0.243788,0.000000
3.050000,0.867230,-0.009327,-1.796700,2.237754,0.427461,-0.071836,-1.978101,-0.587704,-0.631435,-2.516171,0.526465,0.181125,12.615370,3.113746,19.336493,-0.055246,0.187228,0.000000,0.050895,0.235443,0.000000
3.060000,0.889508,-0.005081,-1.797450,2.217850,0.421611,-0.078138,-2.002625,-0.582280,-0.628655,-2.388469,0.558649,0.375076,12.692375,3.304439,19.410405,-0.054727,0.189544,0.000000,0.052821,0.226996,0.000000
3.070000,0.911586,-0.000894,-1.798262,2.197706,0.415817,-0.084402,-2.025886,-0.576527,-0.623935,-2.264421,0.592391,0.568856,12.350855,3.463237,19.373095,-0.054189,0.191777,0.000000,0.054926,0.219019,-0.000000
3.080000,0.933461,0.003235,-1.799138,2.177336,0.410082,-0.090610,-2.047899,-0.570425,-0.617276,-2.136553,0.628317,0.763119,13.233913,3.723195,19.473026,-0.053628,0.193930,0.000000,0.057260,0.210826,0.000000
3.090000,0.955132,0.007308,-1.800074,2.156752,0.404410,-0.096741,-2.068601,-0.563953,-0.608672,-2.004309,0.666490,0.957461,12.986864,3.893253,19.352518,-0.053043,0.195999,0.000000,0.059834,0.202350,-0.000000
3.100000,0.976596,0.011324,-1.801072,2.135968,0.398804,-0.102777,-2.087999,-0.557090,-0.598132,-1.874770,0.706353,1.150312,13.155805,4.098602,19.245070,-0.052431,0.197984,0.000000,0.062615,0.194203,0.000000
3.110000,0.997851,0.015284,-1.802130,2.114997,0.393269,-0.108698,-2.106080,-0.549818,-0.585670,-1.741036,0.748490,1.341998,13.358421,4.308289,19.087955,-0.051790,0.199887,0.000000,0.065652,0.185747,0.000000
3.120000,1.018895,0.019189,-1.803246,2.093851,0.387809,-0.114484,-2.122831,-0.542115,-0.571298,-1.609705,0.792336,1.531945,13.140321,4.481683,18.889818,-0.051117,0.201705,0.000000,0.068906,0.177567,0.000000
3.130000,1.039727,0.023040,-1.804419,2.072545,0.382428,-0.120117,-2.138255,-0.533963,-0.555039,-1.473351,0.838560,1.719558,14.140856,4.764251,18.624587,-0.050411,0.203441,0.000000,0.072440,0.168956,0.000000
3.140000,1.060346,0.026838,-1.805647,2.051091,0.377131,-0.125579,-2.152278,-0.525335,-0.536917,-1.331465,0.887216,1.904344,14.007664,4.946882,18.327913,-0.049667,0.205087,0.000000,0.076268,0.159845,0.000000
3.150000,1.080749,0.030583,-1.806930,2.029504,0.371923,-0.130850,-2.164894,-0.516213,-0.516962,-1.191177,0.937679,2.085920,14.283194,5.166438,17.975273,-0.048884,0.206643,0.000000,0.080342,0.150871,-0.000000
3.160000,1.100935,0.034277,-1.808264,2.007798,0.366809,-0.135912,-2.176087,-0.506570,-0.495219,-1.046946,0.991348,2.261757,14.559403,5.404343,17.533289,-0.048059,0.208106,0.000000,0.084809,0.141461,-0.000000
3.170000,1.120904,0.037920,-1.809647,1.985987,0.361794,-0.140748,-2.185824,-0.496391,-0.471714,-0.899999,1.044267,2.439621,14.837611,5.337886,17.693235,-0.047189,0.209475,0.000000,0.089266,0.131864,0.000000
3.180000,1.140655,0.041513,-1.811078,1.964086,0.356883,-0.145340,-2.194077,-0.485670,-0.446460,-0.750037,1.101428,2.608360,15.156783,6.099150,16.036030,-0.046272,0.210745,0.000000,0.094243,0.121820,-0.000000
3.190000,1.160186,0.045058,-1.812553,1.942110,0.352082,-0.149672,-2.200814,-0.474347,-0.419583,-0.596945,1.163042,2.767021,15.457323,6.063499,16.029471,-0.045302,0.211912,0.000000,0.099770,0.111279,-0.000000
3.200000,1.179497,0.048555,-1.814070,1.920075,0.347398,-0.153727,-2.206006,-0.462413,-0.391113,-0.440816,1.224047,2.925895,15.775621,6.296107,15.397569,-0.044277,0.212972,0.000000,0.105329,0.100438,0.000000
3.210000,1.198587,0.052006,-1.815627,1.897995,0.342836,-0.157489,-2.209610,-0.449857,-0.361093,-0.279230,1.287447,3.077054,16.143862,6.501584,14.750567,-0.043194,0.213920,0.000000,0.111246,0.088894,-0.000000
3.220000,1.217457,0.055412,-1.817219,1.875888,0.338403,-0.160944,-2.211611,-0.436648,-0.329600,-0.121593,1.355151,3.220056,15.770367,6.923472,13.916503,-0.042050,0.214753,0.000000,0.117721,0.077501,0.000000
3.230000,1.236105,0.058775,-1.818844,1.853769,0.334105,-0.164076,-2.212012,-0.422753,-0.296712,0.044291,1.423491,3.356794,17.418267,6.740052,13.426103,-0.040839,0.215468,0.000000,0.124393,0.065134,-0.000000
3.240000,1.254532,0.062095,-1.820499,1.831654,0.329950,-0.166873,-2.210692,-0.408178,-0.262486,0.218939,1.492253,3.486937,17.120123,7.127216,12.520688,-0.039561,0.216053,0.000000,0.131248,0.051710,-0.000000
3.250000,1.272738,0.065374,-1.822181,1.809560,0.325944,-0.169322,-2.207652,-0.392893,-0.227006,0.389981,1.565031,3.607706,17.475608,7.311740,11.700153,-0.038212,0.216504,0.000000,0.138664,0.038322,-0.000000
3.260000,1.290723,0.068614,-1.823885,1.787506,0.322095,-0.171410,-2.202864,-0.376878,-0.190359,0.568329,1.638010,3.720205,17.833666,7.475746,10.829169,-0.036788,0.216816,0.000000,0.146265,0.023936,0.000000
3.270000,1.308488,0.071817,-1.825608,1.765509,0.318409,-0.173125,-2.196303,-0.360111,-0.152628,0.743303,1.716297,3.824487,17.505074,7.993688,9.985272,-0.035284,0.216983,0.000000,0.154565,0.009549,0.000000
3.280000,1.326034,0.074983,-1.827346,1.743586,0.314895,-0.174459,-2.187971,-0.342556,-0.113902,0.925647,1.793938,3.919040,18.970298,7.527718,8.917616,-0.033696,0.217003,0.000000,0.162989,-0.005916,0.000000
3.290000,1.343360,0.078115,-1.829096,1.721756,0.311561,-0.175401,-2.177762,-0.324237,-0.074282,1.115589,1.870615,4.003420,18.662194,7.995612,7.987589,-0.032024,0.216861,0.000000,0.171509,-0.022521,0.000000
3.300000,1.360469,0.081215,-1.830853,1.700037,0.308413,-0.175942,-2.165678,-0.305124,-0.033864,1.301756,1.952231,4.078370,18.914493,8.138552,6.959960,-0.030263,0.216553,0.000000,0.180719,-0.039177,0.000000
3.310000,1.377362,0.084284,-1.832613,1.678449,0.305461,-0.176076,-2.151718,-0.285185,0.007237,1.490424,2.036051,4.139652,19.075579,8.322351,5.837299,-0.028408,0.216074,0.000000,0.190365,-0.056596,0.000000
3.320000,1.394039,0.087325,-1.834373,1.657009,0.302712,-0.175795,-2.135843,-0.264421,0.048935,1.685543,2.115879,4.200033,19.684857,7.935621,5.703065,-0.026457,0.215417,0.000000,0.199797,-0.074914,0.000000
3.330000,1.410502,0.090339,-1.836128,1.635738,0.300175,-0.175095,-2.118015,-0.242848,0.091174,1.878590,2.200904,4.242478,18.907984,9.077382,2.764662,-0.024409,0.214574,0.000000,0.209983,-0.093685,-0.000000
3.340000,1.426754,0.093329,-1.837873,1.614655,0.297858,-0.173971,-2.098283,-0.220383,0.133717,2.068698,2.291467,4.265967,19.362470,8.737887,2.464576,-0.022255,0.213542,0.000000,0.220967,-0.112853,0.000000
3.350000,1.442796,0.096297,-1.839606,1.593779,0.295770,-0.172420,-2.076621,-0.197036,0.176495,2.263461,2.378149,4.287148,19.322493,8.892153,1.234391,-0.019991,0.212314,0.000000,0.231756,-0.132827,0.000000
3.360000,1.458630,0.099245,-1.841320,1.573129,0.293920,-0.170440,-2.053032,-0.172798,0.219401,2.454044,2.470059,4.292015,19.192641,9.064322,-0.007930,-0.017616,0.210884,0.000000,0.243307,-0.153042,0.000000
3.370000,1.474259,0.102176,-1.843013,1.552725,0.292317,-0.168032,-2.027513,-0.147664,0.262314,2.650865,2.555495,4.289297,19.764026,8.431463,-0.785325,-0.015127,0.209248,0.000000,0.254403,-0.174360,-0.000000
3.380000,1.489686,0.105092,-1.844679,1.532585,0.290970,-0.165194,-2.000041,-0.121664,0.305134,2.840772,2.647266,4.271074,18.193932,9.932733,-2.867984,-0.012525,0.207397,0.000000,0.266362,-0.195642,-0.000000
3.390000,1.504912,0.107997,-1.846315,1.512730,0.289887,-0.161930,-1.970728,-0.094693,0.347680,3.022545,2.745769,4.236945,18.549829,9.349348,-3.707472,-0.009797,0.205336,0.000000,0.279227,-0.216759,0.000000
3.400000,1.519941,0.110891,-1.847917,1.493177,0.289079,-0.158242,-1.939570,-0.066778,0.389850,3.208134,2.837701,4.194806,18.156772,9.446717,-4.969268,-0.006943,0.203058,0.000000,0.291601,-0.238748,0.000000
3.410000,1.534777,0.113779,-1.849479,1.473945,0.288555,-0.154135,-1.906598,-0.037930,0.431527,3.385288,2.931919,4.138425,17.672590,9.481450,-6.216575,-0.003963,0.200562,0.000000,0.304392,-0.260488,0.000000
3.420000,1.549421,0.116663,-1.850998,1.455051,0.288324,-0.149614,-1.871848,-0.008131,0.472585,3.565126,3.028054,4.071343,17.884689,9.653664,-7.283867,-0.000854,0.197845,0.000000,0.317545,-0.283028,0.000000
3.430000,1.563879,0.119547,-1.852470,1.436514,0.288396,-0.144685,-1.835333,0.022627,0.512909,3.734376,3.123064,3.990991,15.940945,9.339878,-8.785488,0.002388,0.194903,0.000000,0.330725,-0.305040,-0.000000
3.440000,1.578153,0.122432,-1.853890,1.418350,0.288780,-0.139358,-1.797203,0.054324,0.552360,3.891767,3.216488,3.897468,15.927474,9.426315,-9.827051,0.005760,0.191747,0.000000,0.343853,-0.326350,0.000000
3.450000,1.592247,0.125323,-1.855256,1.400575,0.289485,-0.133642,-1.757491,0.086961,0.590826,4.049276,3.310719,3.793807,15.161059,9.326126,-10.986847,0.009266,0.188374,0.000000,0.357157,-0.348109,0.000000
3.460000,1.606166,0.128223,-1.856562,1.383205,0.290522,-0.127545,-1.716263,0.120524,0.628197,4.194531,3.401484,3.678554,14.302601,9.153805,-12.100342,0.012902,0.184788,0.000000,0.370150,-0.369019,0.000000
3.470000,1.619913,0.131135,-1.857805,1.366254,0.291899,-0.121082,-1.673595,0.155011,0.664357,4.339002,3.496725,3.551542,14.168665,9.563312,-13.252983,0.016671,0.180991,0.000000,0.383651,-0.390247,0.000000
3.480000,1.633492,0.134062,-1.858982,1.349738,0.293625,-0.114263,-1.629534,0.190436,0.699195,4.469040,3.585804,3.414528,11.815130,8.234807,-14.140200,0.020573,0.176986,0.000000,0.396483,-0.410275,0.000000
3.490000,1.646909,0.137008,-1.860089,1.333668,0.295710,-0.107102,-1.584270,0.226701,0.732617,4.583418,3.667825,3.268066,11.465467,8.488964,-15.185165,0.024597,0.172789,0.000000,0.408497,-0.428895,0.000000
3.500000,1.660167,0.139978,-1.861123,1.318056,0.298162,-0.099615,-1.537869,0.263808,0.764521,4.694616,3.752653,3.111376,10.349677,8.142834,-16.100946,0.028744,0.168405,0.000000,0.420726,-0.447399,0.000000
3.510000,1.673272,0.142973,-1.862081,1.302914,0.300989,-0.091817,-1.490432,0.301720,0.794821,4.790662,3.828678,2.947368,9.166512,7.699987,-16.930066,0.033008,0.163843,0.000000,0.431866,-0.464396,-0.000000
3.520000,1.686227,0.145999,-1.862959,1.288251,0.304199,-0.083725,-1.442071,0.340418,0.823423,4.880675,3.912441,2.770787,8.520054,8.419098,-18.141395,0.037385,0.159113,0.000000,0.443665,-0.480902,0.000000
3.530000,1.699038,0.149058,-1.863754,1.274075,0.307800,-0.075355,-1.392875,0.379922,0.850224,4.954445,3.983769,2.589677,6.216185,5.819924,-18.061086,0.041875,0.154224,0.000000,0.453896,-0.495609,0.000000
3.540000,1.711710,0.152156,-1.864465,1.260395,0.311800,-0.066726,-1.343042,0.420043,0.875207,5.011054,4.041372,2.405099,5.408148,6.326410,-19.076955,0.046456,0.149199,0.000000,0.462365,-0.508337,0.000000
3.550000,1.724248,0.155296,-1.865088,1.247216,0.316203,-0.057857,-1.292675,0.460780,0.898288,5.059827,4.104801,2.210400,4.031116,5.723030,-19.614079,0.051125,0.144049,0.000000,0.471161,-0.520155,0.000000
3.560000,1.736656,0.158481,-1.865621,1.234543,0.321017,-0.048767,-1.241910,0.502101,0.919415,5.090447,4.158270,2.014651,2.581050,5.108795,-20.026907,0.055874,0.138790,0.000000,0.478541,-0.529731,0.000000
3.570000,1.748940,0.161717,-1.866063,1.222379,0.326247,-0.039476,-1.190875,0.543936,0.938528,5.115886,4.208192,1.805499,2.022606,4.730981,-21.298984,0.060693,0.133439,0.000000,0.485112,-0.538630,0.000000
3.580000,1.761106,0.165008,-1.866410,1.210726,0.331897,-0.030004,-1.139665,0.586236,0.955539,5.120745,4.249866,1.599255,-1.069762,3.595036,-19.919702,0.065572,0.128007,0.000000,0.490403,-0.544857,0.000000
3.590000,1.773157,0.168357,-1.866662,1.199585,0.337973,-0.020371,-1.088535,0.628903,0.970531,5.104126,4.282825,1.397482,-1.772581,3.133193,-20.914897,0.070497,0.122528,0.000000,0.494357,-0.548256,0.000000
3.600000,1.785099,0.171769,-1.866817,1.188955,0.344476,-0.010600,-1.037595,0.671880,0.983446,5.081146,4.311259,1.185463,-3.308105,2.409825,-20.980807,0.075456,0.117017,0.000000,0.497321,-0.550675,-0.000000
3.610000,1.796937,0.175248,-1.866874,1.178832,0.351411,-0.000710,-0.986984,0.715098,0.994265,5.038260,4.330967,0.978749,-4.863122,1.661053,-20.923968,0.080438,0.111493,0.000000,0.498918,-0.550372,0.000000
3.620000,1.808677,0.178798,-1.866831,1.169214,0.358779,0.009278,-0.936848,0.758485,1.002977,4.987631,4.345643,0.761974,-5.655576,1.143490,-21.856272,0.085431,0.105977,0.000000,0.499426,-0.548878,-0.000000
3.630000,1.820323,0.182425,-1.866688,1.160093,0.366581,0.019343,-0.887301,0.801979,1.009536,4.916914,4.351100,0.553673,-8.497351,-0.057839,-19.771803,0.090422,0.100485,0.000000,0.498528,-0.544575,0.000000
3.640000,1.831881,0.186131,-1.866444,1.151465,0.374819,0.029463,-0.838582,0.845474,1.014089,4.825724,4.347054,0.355502,-9.338695,-0.622999,-20.413293,0.095397,0.095050,0.000000,0.496231,-0.537418,0.000000
3.650000,1.843354,0.189923,-1.866099,1.143319,0.383491,0.039618,-0.790805,0.888904,1.016614,4.726860,4.337524,0.150491,-10.824921,-1.412716,-20.011431,0.100343,0.089691,0.000000,0.492830,-0.529033,0.000000
3.660000,1.854749,0.193803,-1.865652,1.135645,0.392596,0.049788,-0.744161,0.932269,1.017147,4.597920,4.336323,-0.042604,-12.515061,-1.862302,-19.466766,0.105258,0.084431,0.000000,0.490072,-0.516728,0.000000
3.670000,1.866069,0.197776,-1.865103,1.128431,0.402135,0.059954,-0.698704,0.975369,1.015710,4.499198,4.272331,-0.246614,-9.584938,-7.995305,-20.476223,0.110114,0.079283,0.000000,0.479801,-0.507517,0.000000
3.680000,1.877319,0.201847,-1.864453,1.121667,0.412101,0.070096,-0.654340,1.017837,1.012276,4.356785,4.238149,-0.434114,-18.956795,1.246394,-16.985838,0.114867,0.074239,0.000000,0.472678,-0.492873,0.000000
3.690000,1.888504,0.206019,-1.863701,1.115339,0.422492,0.080194,-0.611741,1.060267,1.007096,4.168283,4.237599,-0.603239,-16.335333,-4.334791,-17.683471,0.119582,0.069382,0.000000,0.469195,-0.472577,-0.000000
3.700000,1.899627,0.210298,-1.862849,1.109427,0.433306,0.090232,-0.570832,1.102335,1.000169,4.010197,4.176534,-0.780334,-17.641937,-4.924833,-16.873588,0.124221,0.064704,0.000000,0.458588,-0.455471,0.000000
3.710000,1.910693,0.214687,-1.861897,1.103917,0.444536,0.100192,-0.531482,1.143687,0.991539,3.862363,4.087917,-0.944227,-17.982618,-6.461770,-16.049099,0.128741,0.060196,0.000000,0.444862,-0.439166,0.000000
3.720000,1.921707,0.219190,-1.860845,1.098791,0.456177,0.110057,-0.494087,1.184557,0.981301,3.595064,4.105526,-1.102566,-29.553316,3.820419,-15.464225,0.133169,0.055905,0.000000,0.442715,-0.409242,0.000000
3.730000,1.932670,0.223812,-1.859696,1.094026,0.468228,0.119813,-0.459310,1.225458,0.969524,3.395645,4.034954,-1.250285,-10.124270,-18.130381,-14.069296,0.137558,0.051909,0.000000,0.430778,-0.386708,0.000000
3.740000,1.943588,0.228556,-1.858450,1.089601,0.480681,0.129443,-0.425870,1.264885,0.956333,3.273616,3.867451,-1.386835,-20.218939,-9.153679,-13.385195,0.141744,0.048064,0.000000,0.408233,-0.372636,0.000000
3.750000,1.954464,0.233427,-1.857108,1.085502,0.493522,0.138935,-0.394306,1.303246,0.941808,3.042231,3.799146,-1.516642,-20.101704,-10.699194,-12.424482,0.145771,0.044434,0.000000,0.396607,-0.346250,-0.000000
3.760000,1.965299,0.238428,-1.855671,1.081708,0.506743,0.148275,-0.364874,1.340726,0.926026,2.844529,3.696214,-1.638429,-20.183201,-11.616533,-11.503482,0.149661,0.041048,0.000000,0.381252,-0.323552,-0.000000
3.770000,1.976099,0.243563,-1.854143,1.078198,0.520333,0.157451,-0.337479,1.376999,0.909105,2.631853,3.551020,-1.742745,-21.603048,-15.725537,-9.772573,0.153378,0.037897,0.000000,0.361530,-0.299119,0.000000
3.780000,1.986864,0.248836,-1.852523,1.074951,0.534278,0.166454,-0.312201,1.411797,0.891183,2.428159,3.417339,-1.842557,-19.102797,-10.945173,-10.202060,0.156897,0.034991,0.000000,0.343200,-0.275712,0.000000
3.790000,1.997598,0.254249,-1.850814,1.071947,0.548565,0.175272,-0.288875,1.445408,0.872263,2.235071,3.298284,-1.938400,-20.250797,-14.553187,-8.548286,0.160249,0.032310,0.000000,0.326590,-0.253522,0.000000
3.800000,2.008304,0.259808,-1.849018,1.069167,0.563181,0.183896,-0.267554,1.477606,0.852479,2.029580,3.141045,-2.017085,-20.100452,-15.181171,-7.606513,0.163413,0.029860,0.000000,0.306198,-0.229991,0.000000
3.810000,2.018982,0.265514,-1.847137,1.066589,0.578112,0.192319,-0.248374,1.508391,0.831943,1.803419,3.019122,-2.088615,-20.483839,-15.157340,-6.650938,0.166392,0.027658,0.000000,0.289866,-0.204286,-0.000000
3.820000,2.029636,0.271371,-1.845172,1.064193,0.593344,0.200533,-0.231121,1.537506,0.810743,1.662722,2.783272,-2.149682,-12.155526,-26.206669,-5.613378,0.169160,0.025677,0.000000,0.261585,-0.188048,0.000000
3.830000,2.040267,0.277382,-1.843127,1.061962,0.608855,0.208532,-0.215340,1.564331,0.788978,1.465831,2.616857,-2.201958,-27.356774,-6.884435,-4.846494,0.171654,0.023866,0.000000,0.241135,-0.165749,-0.000000
3.840000,2.050876,0.283549,-1.841003,1.059877,0.624628,0.216311,-0.202047,1.590149,0.766732,1.206889,2.528580,-2.245697,-19.874315,-16.611462,-3.856034,0.174016,0.022339,0.000000,0.229343,-0.136838,-0.000000
3.850000,2.061465,0.289875,-1.838801,1.057914,0.640652,0.223865,-0.190850,1.614448,0.744098,1.029904,2.334400,-2.279578,-20.045698,-16.391308,-2.973953,0.176193,0.021048,0.000000,0.206566,-0.117003,0.000000
3.860000,2.072035,0.296363,-1.836526,1.056054,0.656910,0.231192,-0.181474,1.636852,0.721160,0.847839,2.142822,-2.306814,-19.509685,-17.067198,-2.154125,0.178150,0.019964,0.000000,0.184392,-0.096756,-0.000000
3.870000,2.082586,0.303014,-1.834178,1.054278,0.673384,0.238288,-0.174131,1.657676,0.698015,0.610923,2.037760,-2.319786,-24.802250,-8.654497,-0.760652,0.179922,0.019108,0.000000,0.171852,-0.070725,0.000000
3.880000,2.093120,0.309831,-1.831761,1.052564,0.690060,0.245152,-0.169092,1.677366,0.674775,0.416264,1.870853,-2.328753,-14.023602,-24.871740,-1.048776,0.181562,0.018508,0.000000,0.152976,-0.049442,0.000000
3.890000,2.103638,0.316816,-1.829276,1.050891,0.706923,0.251783,-0.165624,1.694829,0.651448,0.268732,1.635699,-2.334524,-18.563399,-17.398978,0.205462,0.182955,0.018082,0.000000,0.127166,-0.033374,0.000000
3.900000,2.114138,0.323970,-1.826726,1.049245,0.723951,0.258181,-0.163937,1.710436,0.628133,0.071400,1.482569,-2.327480,-17.815502,-17.963435,0.879685,0.184144,0.017853,0.000000,0.110438,-0.012090,0.000000
3.910000,2.124622,0.331296,-1.824113,1.047606,0.741127,0.264346,-0.164113,1.724388,0.604902,-0.105721,1.308130,-2.317918,-17.259632,-18.063114,1.481212,0.185155,0.017827,0.000000,0.091683,0.006874,0.000000
3.920000,2.135090,0.338793,-1.821440,1.045957,0.758433,0.270279,-0.166005,1.736503,0.581831,-0.270500,1.110904,-2.293790,-16.025203,-20.264746,2.893073,0.185970,0.017987,0.000000,0.070999,0.024405,0.000000
3.930000,2.145542,0.346465,-1.818708,1.044281,0.775850,0.275983,-0.169518,1.746656,0.559024,-0.433144,0.926293,-2.269525,-16.509278,-16.615906,1.938583,0.186580,0.018322,0.000000,0.051808,0.041577,0.000000
3.940000,2.155976,0.354311,-1.815921,1.042561,0.793360,0.281460,-0.174664,1.755086,0.536434,-0.593838,0.756244,-2.246191,-15.288351,-18.508754,3.168573,0.187012,0.018832,0.000000,0.034263,0.058416,0.000000
3.950000,2.166393,0.362332,-1.813080,1.040782,0.810946,0.286713,-0.181346,1.761693,0.514150,-0.741709,0.565775,-2.210108,-14.619107,-18.460460,3.593519,0.187258,0.019506,0.000000,0.014987,0.073809,0.000000
3.960000,2.176791,0.370530,-1.810188,1.038929,0.828588,0.291745,-0.189491,1.766436,0.492229,-0.886392,0.383089,-2.173554,-13.952040,-18.407562,3.972513,0.187316,0.020334,0.000000,-0.003337,0.088768,0.000000
3.970000,2.187171,0.378904,-1.807246,1.036988,0.846268,0.296559,-0.199022,1.769330,0.470712,-1.017368,0.194647,-2.128391,-12.593335,-18.947695,4.797885,0.187190,0.021307,0.000000,-0.021960,0.102213,0.000000
3.980000,2.197531,0.387455,-1.804257,1.034945,0.863968,0.301160,-0.209832,1.770348,0.449660,-1.145618,0.011121,-2.083091,-13.066375,-17.741384,4.246919,0.186879,0.022413,0.000000,-0.039961,0.115300,0.000000
3.990000,2.207869,0.396183,-1.801223,1.032787,0.881669,0.305554,-0.221929,1.769574,0.429046,-1.271548,-0.166683,-2.038441,-11.763154,-18.144160,4.933403,0.186393,0.023653,0.000000,-0.057286,0.128075,-0.000000
4.000000,2.218186,0.405088,-1.798147,1.030502,0.899354,0.309743,-0.235212,1.766994,0.408919,-1.383885,-0.348850,-1.986748,-11.058177,-17.954752,5.142051,0.185732,0.025014,0.000000,-0.074829,0.139389,0.000000
4.010000,2.228479,0.414170,-1.795029,1.028079,0.917003,0.313734,-0.249594,1.762611,0.389309,-1.491521,-0.527508,-1.935101,-10.342621,-17.757472,5.312357,0.184898,0.026488,0.000000,-0.091935,0.150170,-0.000000
4.020000,2.238747,0.423428,-1.791873,1.025507,0.934600,0.317531,-0.265008,1.756452,0.370233,-1.589579,-0.703770,-1.879420,-9.391616,-17.504292,5.689923,0.183895,0.028066,0.000000,-0.108646,0.159931,0.000000
4.030000,2.248989,0.432862,-1.788679,1.022776,0.952126,0.321140,-0.281368,1.748543,0.351718,-1.681931,-0.877798,-1.824105,-9.083248,-17.297465,5.363004,0.182726,0.029740,0.000000,-0.125078,0.169075,0.000000
4.040000,2.259202,0.442471,-1.785450,1.019877,0.969565,0.324567,-0.298629,1.738904,0.333747,-1.768784,-1.049349,-1.769696,-8.164855,-16.994311,5.641950,0.181394,0.031503,0.000000,-0.141225,0.177627,-0.000000
4.050000,2.269385,0.452253,-1.782188,1.016800,0.986899,0.327817,-0.316710,1.727567,0.316336,-1.846302,-1.217726,-1.712472,-7.463018,-16.691218,5.668957,0.179903,0.033348,0.000000,-0.156952,0.185212,0.000000
4.060000,2.279537,0.462208,-1.778895,1.013540,1.004111,0.330896,-0.335540,1.714559,0.299494,-1.918568,-1.383272,-1.656081,-6.784984,-16.369602,5.665703,0.178256,0.035266,0.000000,-0.172376,0.192249,0.000000
4.070000,2.289656,0.472335,-1.775571,1.010087,1.021184,0.333809,-0.355042,1.699916,0.283219,-1.980134,-1.544634,-1.598690,-5.730575,-15.942945,5.748028,0.176457,0.037251,0.000000,-0.187328,0.198190,0.000000
4.080000,2.299738,0.482631,-1.772219,1.006437,1.038104,0.336562,-0.375129,1.683676,0.267515,-2.037431,-1.702979,-1.542468,-5.737146,-15.724218,5.489952,0.174510,0.039291,0.000000,-0.201979,0.203696,0.000000
4.090000,2.309784,0.493096,-1.768840,1.002583,1.054853,0.339161,-0.395780,1.665866,0.252364,-2.090860,-1.858177,-1.487766,-4.748307,-15.268301,5.506716,0.172419,0.041386,0.000000,-0.216328,0.208811,0.000000
4.100000,2.319789,0.503728,-1.765436,0.998520,1.071416,0.341611,-0.416909,1.646529,0.237762,-2.134163,-2.008661,-1.432925,-4.116735,-14.869753,5.397572,0.170186,0.043527,0.000000,-0.230188,0.212903,0.000000
4.110000,2.329753,0.514524,-1.762009,0.994243,1.087778,0.343918,-0.438449,1.625706,0.223700,-2.172723,-2.155179,-1.379518,-3.497150,-14.450530,5.271891,0.167816,0.045705,0.000000,-0.243671,0.216523,-0.000000
4.120000,2.339674,0.525483,-1.758558,0.989750,1.103925,0.346087,-0.460335,1.603438,0.210166,-2.203216,-2.297802,-1.327629,-2.702783,-14.052945,5.110972,0.165313,0.047916,0.000000,-0.256788,0.219331,0.000000
4.130000,2.349548,0.536602,-1.755087,0.985036,1.119842,0.348123,-0.482498,1.579766,0.197143,-2.228906,-2.435802,-1.277184,-2.441051,-13.544394,4.975570,0.162682,0.050151,0.000000,-0.269470,0.221667,-0.000000
4.140000,2.359374,0.547879,-1.751596,0.980099,1.135516,0.350031,-0.504899,1.554738,0.184617,-2.250092,-2.569030,-1.228335,-1.699182,-13.118350,4.783677,0.159926,0.052407,0.000000,-0.281706,0.223560,-0.000000
4.150000,2.369149,0.559311,-1.748087,0.974937,1.150933,0.351817,-0.527473,1.528399,0.172570,-2.263790,-2.697976,-1.181487,-1.143033,-12.650270,4.592281,0.157049,0.054677,0.000000,-0.293553,0.224704,-0.000000
4.160000,2.378872,0.570896,-1.744560,0.969549,1.166080,0.353484,-0.550159,1.500793,0.160983,-2.272653,-2.822391,-1.136148,-0.601404,-12.180270,4.397459,0.154056,0.056955,0.000000,-0.304981,0.225376,0.000000
4.170000,2.388539,0.582632,-1.741018,0.963934,1.180945,0.355038,-0.572906,1.471971,0.149834,-2.275590,-2.941086,-1.094272,-0.019148,-11.607243,4.050383,0.150951,0.059237,0.000000,-0.315900,0.225451,0.000000
4.180000,2.398149,0.594514,-1.737460,0.958091,1.195515,0.356482,-0.595655,1.441985,0.139094,-2.273732,-3.055556,-1.053614,0.386823,-11.287387,4.082142,0.147739,0.061515,0.000000,-0.326426,0.225058,0.000000
4.190000,2.407700,0.606541,-1.733888,0.952021,1.209781,0.357821,-0.618365,1.410874,0.128758,-2.267303,-3.165814,-1.014147,0.926369,-10.713250,3.735757,0.144424,0.063786,0.000000,-0.336561,0.224221,0.000000
4.200000,2.417189,0.618709,-1.730304,0.945724,1.223729,0.359059,-0.640983,1.378689,0.118798,-2.255531,-3.270234,-0.978279,1.394969,-10.220088,3.511271,0.141010,0.066045,0.000000,-0.346175,0.222845,0.000000
4.210000,2.426614,0.631015,-1.726708,0.939202,1.237351,0.360198,-0.663463,1.345483,0.109188,-2.239747,-3.370244,-0.943900,1.837777,-9.726929,3.287070,0.137502,0.068286,0.000000,-0.355381,0.221077,0.000000
4.220000,2.435972,0.643455,-1.723100,0.932455,1.250636,0.361244,-0.685757,1.311306,0.099906,-2.218110,-3.464263,-0.913254,2.409433,-9.129587,2.916728,0.133904,0.070506,0.000000,-0.364046,0.218715,0.000000
4.230000,2.445262,0.656026,-1.719483,0.925487,1.263574,0.362198,-0.707815,1.276212,0.090919,-2.193236,-3.553947,-0.883999,2.559758,-8.808882,2.936436,0.130222,0.072699,0.000000,-0.372305,0.216039,-0.000000
4.240000,2.454481,0.668725,-1.715857,0.918300,1.276157,0.363063,-0.729613,1.240240,0.082222,-2.165425,-3.639366,-0.856036,3.076857,-8.221400,2.580790,0.126459,0.074863,0.000000,-0.380164,0.213079,0.000000
4.250000,2.463628,0.681548,-1.712222,0.910896,1.288376,0.363843,-0.751105,1.203445,0.073785,-2.132416,-3.718832,-0.831731,3.443726,-7.725459,2.355109,0.122621,0.076993,0.000000,-0.387478,0.209586,0.000000
4.260000,2.472699,0.694491,-1.708580,0.903279,1.300223,0.364539,-0.772252,1.165878,0.065584,-2.096392,-3.793736,-0.808900,3.792363,-7.230474,2.135363,0.118711,0.079085,0.000000,-0.394357,0.205799,0.000000
4.270000,2.481692,0.707551,-1.704932,0.895452,1.311691,0.365155,-0.793019,1.127589,0.057594,-2.056315,-3.863218,-0.789715,4.186511,-6.690891,1.776380,0.114735,0.081137,0.000000,-0.400738,0.201591,-0.000000
4.280000,2.490607,0.720724,-1.701277,0.887420,1.322773,0.365692,-0.813369,1.088629,0.049786,-2.013425,-3.928075,-0.771803,4.387191,-6.281755,1.809130,0.110698,0.083143,0.000000,-0.406670,0.197108,0.000000
4.290000,2.499440,0.734005,-1.697618,0.879186,1.333462,0.366152,-0.833279,1.049043,0.042154,-1.967956,-3.988374,-0.755013,4.737337,-5.754087,1.474947,0.106603,0.085102,0.000000,-0.412157,0.192373,0.000000
4.300000,2.508190,0.747392,-1.693954,0.870756,1.343752,0.366536,-0.852716,1.008880,0.034673,-1.919028,-4.043382,-0.741653,5.011864,-5.272727,1.273141,0.102456,0.087011,0.000000,-0.417146,0.187275,0.000000
4.310000,2.516855,0.760879,-1.690287,0.862134,1.353638,0.366845,-0.871652,0.968190,0.027318,-1.867718,-4.093915,-0.729544,5.268281,-4.798997,1.080899,0.098262,0.088867,0.000000,-0.421694,0.181943,0.000000
4.320000,2.525432,0.774463,-1.686618,0.853325,1.363114,0.367082,-0.890060,0.927020,0.020070,-1.813526,-4.139051,-0.720645,5.546609,-4.264016,0.766972,0.094024,0.090667,0.000000,-0.425724,0.176306,-0.000000
4.330000,2.533921,0.788140,-1.682946,0.844334,1.372177,0.367247,-0.907916,0.885422,0.012902,-1.757276,-4.179948,-0.712776,5.700064,-3.917612,0.810033,0.089749,0.092408,0.000000,-0.429329,0.170466,0.000000
4.340000,2.542318,0.801905,-1.679273,0.835168,1.380821,0.367341,-0.925200,0.843435,0.005812,-1.699166,-4.216722,-0.705769,5.939762,-3.403139,0.525350,0.085439,0.094089,0.000000,-0.432518,0.164445,0.000000
4.350000,2.550623,0.815755,-1.675599,0.825832,1.389044,0.367363,-0.941891,0.801106,-0.001224,-1.638715,-4.248338,-0.701668,6.127326,-2.956080,0.363440,0.081100,0.095708,0.000000,-0.435202,0.158175,-0.000000
4.360000,2.558834,0.829685,-1.671926,0.816333,1.396842,0.367316,-0.957969,0.758481,-0.008224,-1.576630,-4.275879,-0.698533,6.298665,-2.518538,0.211800,0.076736,0.097263,0.000000,-0.437472,0.151743,0.000000
4.370000,2.566949,0.843690,-1.668253,0.806675,1.404213,0.367199,-0.973417,0.715606,-0.015204,-1.512689,-4.298415,-0.697893,6.475712,-2.024023,-0.030571,0.072352,0.098751,0.000000,-0.439243,0.145114,0.000000
4.380000,2.574967,0.857768,-1.664582,0.796866,1.411154,0.367012,-0.988218,0.672525,-0.022184,-1.447405,-4.317102,-0.698028,6.578058,-1.715965,0.006628,0.067953,0.100172,0.000000,-0.440617,0.138354,0.000000
4.390000,2.582886,0.871912,-1.660913,0.786913,1.417663,0.366755,-1.002361,0.629276,-0.029166,-1.380950,-4.332078,-0.698775,6.721746,-1.246603,-0.206632,0.063541,0.101524,0.000000,-0.441607,0.131484,-0.000000
4.400000,2.590705,0.886119,-1.657247,0.776821,1.423739,0.366429,-1.015832,0.585900,-0.036168,-1.313111,-4.342353,-0.701691,6.831671,-0.844654,-0.322396,0.059122,0.102807,0.000000,-0.442122,0.124465,0.000000
4.410000,2.598422,0.900385,-1.653585,0.766599,1.429381,0.366032,-1.028620,0.542440,-0.043202,-1.244333,-4.349008,-0.705270,6.926996,-0.454274,-0.427872,0.054700,0.104018,0.000000,-0.442260,0.117358,0.000000
4.420000,2.606037,0.914706,-1.649927,0.756251,1.434587,0.365565,-1.040716,0.498936,-0.050279,-1.174567,-4.351163,-0.710548,7.018613,-0.011171,-0.591166,0.050279,0.105157,0.000000,-0.441937,0.110147,0.000000
4.430000,2.613547,0.929076,-1.646274,0.745787,1.439359,0.365026,-1.052109,0.455428,-0.057414,-1.104119,-4.349950,-0.716330,7.068560,0.251053,-0.562552,0.045862,0.106223,0.000000,-0.441261,0.102876,0.000000
4.440000,2.620952,0.943491,-1.642627,0.735211,1.443696,0.364416,-1.062796,0.411947,-0.064607,-1.033131,-4.345518,-0.722473,7.132341,0.666613,-0.699903,0.041455,0.107216,0.000000,-0.440247,0.095560,-0.000000
4.450000,2.628251,0.957948,-1.638986,0.724533,1.447598,0.363734,-1.072770,0.368532,-0.071869,-0.961565,-4.336934,-0.729998,7.173774,1.015630,-0.768241,0.037059,0.108136,0.000000,-0.438805,0.088186,0.000000
4.460000,2.635442,0.972442,-1.635352,0.713758,1.451067,0.362978,-1.082027,0.325218,-0.079208,-0.889682,-4.325244,-0.737871,7.203108,1.352399,-0.827153,0.032679,0.108981,0.000000,-0.437037,0.080790,0.000000
4.470000,2.642526,0.986968,-1.631727,0.702895,1.454103,0.362149,-1.090563,0.282041,-0.086630,-0.817521,-4.309628,-0.746715,7.224884,1.737897,-0.918616,0.028320,0.109753,0.000000,-0.434862,0.073371,-0.000000
4.480000,2.649500,1.001522,-1.628110,0.691950,1.456708,0.361246,-1.098377,0.239035,-0.094143,-0.745271,-4.291172,-0.755760,7.223277,1.950622,-0.888232,0.023983,0.110449,0.000000,-0.432388,0.065955,-0.000000
4.490000,2.656364,1.016101,-1.624502,0.680930,1.458885,0.360266,-1.105468,0.196226,-0.101745,-0.673046,-4.270027,-0.764888,7.222176,2.307847,-0.957614,0.019673,0.111072,0.000000,-0.429631,0.058557,-0.000000
4.500000,2.663118,1.030699,-1.620904,0.669843,1.460634,0.359210,-1.111838,0.153647,-0.109443,-0.600891,-4.245317,-0.774698,7.205849,2.601137,-0.981375,0.015392,0.111621,0.000000,-0.426505,0.051174,-0.000000
4.510000,2.669761,1.045312,-1.617318,0.658695,1.461958,0.358077,-1.117487,0.111328,-0.117239,-0.528914,-4.217987,-0.784529,7.180582,2.883228,-0.996727,0.011144,0.112096,0.000000,-0.423107,0.043825,0.000000
4.520000,2.676292,1.059937,-1.613743,0.647495,1.462861,0.356865,-1.122418,0.069298,-0.125135,-0.457378,-4.187502,-0.794726,7.131958,3.192263,-1.028573,0.006931,0.112498,0.000000,-0.419383,0.036532,0.000000
4.530000,2.682711,1.074568,-1.610181,0.636249,1.463345,0.355574,-1.126635,0.027586,-0.133133,-0.386160,-4.154590,-0.804805,7.110416,3.387791,-0.985527,0.002757,0.112827,0.000000,-0.415408,0.029289,-0.000000
4.540000,2.689017,1.089202,-1.606632,0.624965,1.463414,0.354202,-1.130142,-0.013786,-0.141230,-0.315342,-4.119385,-0.814670,7.044550,3.671241,-0.999026,-0.001377,0.113084,0.000000,-0.411196,0.022106,0.000000
4.550000,2.695210,1.103835,-1.603097,0.613649,1.463071,0.352749,-1.132945,-0.054792,-0.149427,-0.245232,-4.081369,-0.824653,6.982367,3.910435,-0.983297,-0.005466,0.113269,0.000000,-0.406699,0.015010,0.000000
4.560000,2.701290,1.118462,-1.599577,0.602308,1.462320,0.351213,-1.135049,-0.095407,-0.157722,-0.175753,-4.041232,-0.834369,6.911283,4.137884,-0.960844,-0.009510,0.113384,0.000000,-0.401987,0.007996,0.000000
4.570000,2.707256,1.133080,-1.596073,0.590950,1.461164,0.349594,-1.136462,-0.135607,-0.166114,-0.107041,-3.998439,-0.843867,6.830669,4.397130,-0.935457,-0.013505,0.113429,0.000000,-0.397009,0.001079,0.000000
4.580000,2.713109,1.147684,-1.592586,0.579581,1.459609,0.347891,-1.137192,-0.175370,-0.174598,-0.039148,-3.953782,-0.853011,6.746786,4.531839,-0.892316,-0.017449,0.113406,0.000000,-0.391846,-0.005734,0.000000
4.590000,2.718848,1.162271,-1.589116,0.568209,1.457658,0.346102,-1.137248,-0.214677,-0.183172,0.027853,-3.907393,-0.861734,6.651347,4.766501,-0.853191,-0.021341,0.113315,0.000000,-0.386512,-0.012437,0.000000
4.600000,2.724473,1.176836,-1.585664,0.556839,1.455317,0.344227,-1.136639,-0.253509,-0.191832,0.093872,-3.858672,-0.870039,6.551270,4.953948,-0.804453,-0.025179,0.113158,0.000000,-0.380951,-0.019019,0.000000
4.610000,2.729985,1.191376,-1.582231,0.545478,1.452590,0.342265,-1.135374,-0.291846,-0.200572,0.158866,-3.808327,-0.877818,6.444564,5.131353,-0.749774,-0.028960,0.112935,0.000000,-0.375236,-0.025477,0.000000
4.620000,2.735383,1.205886,-1.578819,0.534133,1.449482,0.340215,-1.133465,-0.329669,-0.209386,0.222726,-3.755912,-0.885011,6.328322,5.332839,-0.688418,-0.032683,0.112648,0.000000,-0.369324,-0.031798,0.000000
4.630000,2.740667,1.220364,-1.575427,0.522811,1.445998,0.338077,-1.130923,-0.366959,-0.218270,0.285452,-3.702063,-0.891578,6.216030,5.434965,-0.624125,-0.036346,0.112299,0.000000,-0.363280,-0.037983,0.000000
4.640000,2.745839,1.234805,-1.572058,0.511517,1.442144,0.335850,-1.127760,-0.403706,-0.227215,0.346992,-3.646892,-0.897467,6.089221,5.615229,-0.552276,-0.039948,0.111889,0.000000,-0.357119,-0.044026,0.000000
4.650000,2.750898,1.249206,-1.568711,0.500258,1.437926,0.333533,-1.123988,-0.439891,-0.236216,0.407237,-3.589932,-0.902606,5.960749,5.757795,-0.475802,-0.043488,0.111418,0.000000,-0.350795,-0.049916,0.000000
4.660000,2.755844,1.263562,-1.565387,0.489039,1.433348,0.331125,-1.119619,-0.475500,-0.245265,0.466230,-3.531683,-0.906955,5.828552,5.893064,-0.394608,-0.046964,0.110890,0.000000,-0.344362,-0.055658,0.000000
4.670000,2.760679,1.277872,-1.562088,0.477867,1.428418,0.328627,-1.114668,-0.510520,-0.254353,0.523715,-3.472074,-0.910495,5.676141,6.025166,-0.311436,-0.050375,0.110305,0.000000,-0.337813,-0.061226,0.000000
4.680000,2.765402,1.292130,-1.558815,0.466748,1.423140,0.326038,-1.109149,-0.544937,-0.263472,0.579915,-3.411254,-0.913142,5.563484,6.137531,-0.217064,-0.053720,0.109664,0.000000,-0.331166,-0.066644,0.000000
4.690000,2.770014,1.306333,-1.555568,0.455686,1.417521,0.323358,-1.103074,-0.578741,-0.272613,0.634805,-3.349299,-0.914850,5.405591,6.254600,-0.125317,-0.056998,0.108970,0.000000,-0.324431,-0.071908,0.000000
4.700000,2.774516,1.320479,-1.552348,0.444688,1.411567,0.320586,-1.096459,-0.611920,-0.281766,0.688082,-3.286202,-0.915623,5.258371,6.361063,-0.027472,-0.060208,0.108224,0.000000,-0.317609,-0.076990,0.000000
4.710000,2.778908,1.334564,-1.549157,0.433759,1.405285,0.317722,-1.089317,-0.644462,-0.290922,0.739996,-3.222060,-0.915361,5.109561,6.461624,0.074452,-0.063350,0.107428,0.000000,-0.310711,-0.081914,0.000000
4.720000,2.783191,1.348584,-1.545994,0.422903,1.398680,0.314767,-1.081665,-0.676358,-0.300070,0.790132,-3.157033,-0.914179,4.931222,6.547266,0.168300,-0.066422,0.106583,0.000000,-0.303753,-0.086642,-0.000000
4.730000,2.787366,1.362536,-1.542862,0.412127,1.391760,0.311721,-1.073519,-0.707599,-0.309201,0.838906,-3.091039,-0.911862,4.823641,6.650753,0.295845,-0.069424,0.105692,0.000000,-0.296732,-0.091213,0.000000
4.740000,2.791434,1.376418,-1.539760,0.401435,1.384531,0.308583,-1.064891,-0.738176,-0.318303,0.886316,-3.024129,-0.908372,4.643761,6.725746,0.396547,-0.072356,0.104755,0.000000,-0.289653,-0.095628,0.000000
4.750000,2.795395,1.390226,-1.536690,0.390831,1.376999,0.305355,-1.055799,-0.768079,-0.327365,0.931895,-2.956499,-0.903871,4.485924,6.803533,0.509816,-0.075217,0.103775,0.000000,-0.282537,-0.099844,-0.000000
4.760000,2.799251,1.403957,-1.533653,0.380320,1.369171,0.302036,-1.046258,-0.797303,-0.336377,0.975982,-2.888064,-0.898199,4.326178,6.876513,0.624777,-0.078007,0.102753,0.000000,-0.275376,-0.103894,0.000000
4.770000,2.803002,1.417608,-1.530650,0.369907,1.361055,0.298628,-1.036285,-0.825839,-0.345326,1.018367,-2.819042,-0.891370,4.155512,6.933072,0.741425,-0.080725,0.101692,0.000000,-0.268195,-0.107758,0.000000
4.780000,2.806649,1.431177,-1.527681,0.359596,1.352657,0.295130,-1.025896,-0.853681,-0.354200,1.059192,-2.749290,-0.883364,4.009594,7.016802,0.860085,-0.083371,0.100592,0.000000,-0.260979,-0.111452,-0.000000
4.790000,2.810194,1.444660,-1.524747,0.349390,1.343984,0.291544,-1.015106,-0.880822,-0.362989,1.098455,-2.678843,-0.874165,3.837863,7.065877,0.979659,-0.085944,0.099455,0.000000,-0.253733,-0.114977,0.000000
4.800000,2.813637,1.458056,-1.521850,0.339295,1.335043,0.287871,-1.003933,-0.907257,-0.371680,1.135990,-2.607934,-0.863766,3.673878,7.121336,1.100481,-0.088445,0.098284,0.000000,-0.246481,-0.118318,0.000000
4.810000,2.816980,1.471360,-1.518990,0.329313,1.325841,0.284111,-0.992392,-0.932979,-0.380260,1.171888,-2.536431,-0.852184,3.508904,7.173187,1.221043,-0.090874,0.097080,0.000000,-0.239211,-0.121485,0.000000
4.820000,2.820224,1.484572,-1.516168,0.319448,1.316385,0.280266,-0.980500,-0.957984,-0.388719,1.206200,-2.464534,-0.839309,3.350108,7.211083,1.349948,-0.093230,0.095845,0.000000,-0.231944,-0.124483,0.000000
4.830000,2.823370,1.497687,-1.513385,0.309704,1.306684,0.276337,-0.968274,-0.982268,-0.397043,1.238819,-2.392106,-0.825267,3.173575,7.274220,1.458491,-0.095513,0.094580,0.000000,-0.224665,-0.127305,0.000000
4.840000,2.826419,1.510705,-1.510642,0.300084,1.296743,0.272325,-0.955730,-1.005824,-0.405220,1.269741,-2.319170,-0.810060,3.014381,7.306908,1.586701,-0.097723,0.093288,0.000000,-0.217378,-0.129952,0.000000
4.850000,2.829372,1.523621,-1.507939,0.290591,1.286570,0.268233,-0.942884,-1.028650,-0.413240,1.299080,-2.245932,-0.793568,2.849872,7.345992,1.707799,-0.099860,0.091969,0.000000,-0.210104,-0.132435,0.000000
4.860000,2.832231,1.536435,-1.505278,0.281227,1.276172,0.264061,-0.929753,-1.050741,-0.421088,1.326837,-2.172204,-0.775869,2.687846,7.383849,1.828922,-0.101925,0.090626,0.000000,-0.202824,-0.134757,-0.000000
4.870000,2.834997,1.549144,-1.502658,0.271996,1.265557,0.259812,-0.916354,-1.072094,-0.428753,1.352712,-2.098404,-0.757021,2.500750,7.390571,1.943444,-0.103917,0.089261,0.000000,-0.195578,-0.136889,0.000000
4.880000,2.837671,1.561746,-1.500082,0.262901,1.254733,0.255487,-0.902704,-1.092708,-0.436224,1.377140,-2.024088,-0.736941,2.385438,7.472803,2.072375,-0.105836,0.087874,0.000000,-0.188324,-0.138876,0.000000
4.890000,2.840255,1.574238,-1.497549,0.253943,1.243706,0.251088,-0.888816,-1.112574,-0.443488,1.400152,-1.949256,-0.715638,2.203714,7.478170,2.184944,-0.107683,0.086468,0.000000,-0.181062,-0.140720,0.000000
4.900000,2.842751,1.586619,-1.495060,0.245125,1.232484,0.246618,-0.874707,-1.131693,-0.450533,1.421328,-1.874406,-0.693223,2.046021,7.506804,2.300897,-0.109458,0.085044,0.000000,-0.173839,-0.142385,0.000000
4.910000,2.845158,1.598887,-1.492616,0.236450,1.221074,0.242078,-0.860394,-1.150061,-0.457348,1.441053,-1.799129,-0.669650,1.890368,7.534206,2.414546,-0.111160,0.083604,0.000000,-0.166615,-0.143908,-0.000000
4.920000,2.847480,1.611040,-1.490219,0.227918,1.209485,0.237472,-0.845892,-1.167676,-0.463922,1.459058,-1.723857,-0.644928,1.719595,7.533589,2.528280,-0.112790,0.082149,0.000000,-0.159431,-0.145264,-0.000000
4.930000,2.849717,1.623076,-1.487867,0.219532,1.197723,0.232801,-0.831217,-1.184537,-0.470243,1.475635,-1.648178,-0.619118,1.596520,7.602298,2.633154,-0.114349,0.080680,0.000000,-0.152248,-0.146483,0.000000
4.940000,2.851871,1.634994,-1.485563,0.211294,1.185797,0.228068,-0.816384,-1.200638,-0.476301,1.490819,-1.572091,-0.592249,1.431661,7.601106,2.741312,-0.115835,0.079200,0.000000,-0.145063,-0.147571,0.000000
4.950000,2.853944,1.646792,-1.483306,0.203205,1.173713,0.223275,-0.801407,-1.215979,-0.482085,1.504343,-1.496045,-0.564313,1.283242,7.621464,2.844329,-0.117250,0.077710,0.000000,-0.137920,-0.148501,0.000000
4.960000,2.855936,1.658468,-1.481098,0.195267,1.161480,0.218427,-0.786302,-1.230558,-0.487584,1.516466,-1.419680,-0.535384,1.137335,7.640612,2.943779,-0.118594,0.076210,0.000000,-0.130782,-0.149301,0.000000
4.970000,2.857849,1.670021,-1.478938,0.187480,1.149104,0.213525,-0.771083,-1.244373,-0.492789,1.527057,-1.343337,-0.505423,0.985449,7.638114,3.044989,-0.119866,0.074703,0.000000,-0.123681,-0.149959,0.000000
4.980000,2.859686,1.681449,-1.476827,0.179845,1.136595,0.208572,-0.755765,-1.257423,-0.497690,1.536274,-1.266704,-0.474555,0.858515,7.688643,3.127753,-0.121067,0.073190,0.000000,-0.116586,-0.150492,0.000000
4.990000,2.861447,1.692752,-1.474766,0.172364,1.123958,0.203572,-0.740362,-1.269706,-0.502277,1.544148,-1.189780,-0.442825,0.712466,7.685205,3.220268,-0.122198,0.071671,0.000000,-0.109494,-0.150904,-0.000000
5.000000,2.863134,1.703928,-1.472756,0.165038,1.111203,0.198528,-0.724887,-1.281219,-0.506543,1.550568,-1.112914,-0.410183,0.576398,7.698243,3.304091,-0.123257,0.070149,0.000000,-0.102440,-0.151185,0.000000
5.010000,2.864748,1.714976,-1.470796,0.157867,1.098337,0.193442,-0.709354,-1.291963,-0.510479,1.555701,-1.035819,-0.376820,0.443545,7.710175,3.381702,-0.124246,0.068625,0.000000,-0.095391,-0.151352,0.000000
5.020000,2.866292,1.725894,-1.468887,0.150851,1.085366,0.188319,-0.693778,-1.301936,-0.514076,1.559384,-0.958810,-0.342437,0.300369,7.701284,3.480574,-0.125165,0.067099,0.000000,-0.088380,-0.151390,0.000000
5.030000,2.867766,1.736683,-1.467030,0.143991,1.072300,0.183162,-0.678171,-1.311138,-0.517326,1.561861,-0.881588,-0.307509,0.195593,7.743109,3.503722,-0.126014,0.065573,0.000000,-0.081372,-0.151324,0.000000
5.040000,2.869172,1.747340,-1.465224,0.137288,1.059146,0.177974,-0.662544,-1.319567,-0.520224,1.563168,-0.804156,-0.272106,0.059507,7.732930,3.589661,-0.126793,0.064049,0.000000,-0.074365,-0.151159,0.000000
5.050000,2.870512,1.757866,-1.463470,0.130741,1.045912,0.172759,-0.646912,-1.327222,-0.522765,1.563118,-0.726851,-0.235849,-0.062133,7.737864,3.647141,-0.127501,0.062526,0.000000,-0.067394,-0.150876,0.000000
5.060000,2.871787,1.768258,-1.461769,0.124350,1.032604,0.167520,-0.631286,-1.334103,-0.524940,1.561943,-0.649402,-0.199186,-0.179888,7.742497,3.698311,-0.128141,0.061007,0.000000,-0.060426,-0.150499,0.000000
5.070000,2.872999,1.778517,-1.460120,0.118115,1.019232,0.162261,-0.615678,-1.340211,-0.526746,1.559473,-0.572067,-0.161778,-0.307208,7.731094,3.769260,-0.128710,0.059492,0.000000,-0.053490,-0.150011,0.000000
5.080000,2.874150,1.788643,-1.458524,0.112036,1.005803,0.156986,-0.600100,-1.345544,-0.528175,1.555943,-0.494639,-0.124096,-0.398094,7.754462,3.765794,-0.129210,0.057982,0.000000,-0.046556,-0.149437,-0.000000
5.090000,2.875241,1.798633,-1.456980,0.106113,0.992324,0.151699,-0.584562,-1.350103,-0.529227,1.551392,-0.417126,-0.086216,-0.517904,7.740642,3.822523,-0.129641,0.056478,0.000000,-0.039625,-0.148782,0.000000
5.100000,2.876273,1.808489,-1.455490,0.100345,0.978803,0.146403,-0.569076,-1.353888,-0.529897,1.545651,-0.339771,-0.047782,-0.623609,7.736900,3.850515,-0.130003,0.054981,0.000000,-0.032721,-0.148027,0.000000
5.110000,2.877248,1.818209,-1.454052,0.094731,0.965249,0.141102,-0.553652,-1.356898,-0.530182,1.538922,-0.262411,-0.009212,-0.726094,7.730949,3.872358,-0.130296,0.053493,0.000000,-0.025823,-0.147193,0.000000
5.120000,2.878168,1.827794,-1.452668,0.089271,0.951668,0.135801,-0.538301,-1.359136,-0.530080,1.531098,-0.185195,0.029736,-0.833795,7.715583,3.906597,-0.130520,0.052013,0.000000,-0.018945,-0.146270,0.000000
5.130000,2.879034,1.837243,-1.451336,0.083965,0.938069,0.130502,-0.523033,-1.360602,-0.529588,1.522348,-0.108029,0.068698,-0.915555,7.717453,3.884355,-0.130675,0.050542,0.000000,-0.012074,-0.145275,0.000000
5.140000,2.879848,1.846555,-1.450058,0.078810,0.924458,0.125210,-0.507857,-1.361297,-0.528706,1.512709,-0.030930,0.107597,-1.016083,7.698134,3.904170,-0.130761,0.049082,0.000000,-0.005206,-0.144211,0.000000
5.150000,2.880611,1.855732,-1.448832,0.073807,0.910845,0.119929,-0.492783,-1.361222,-0.527435,1.502076,0.045957,0.146677,-1.105818,7.682660,3.901185,-0.130779,0.047634,0.000000,0.001641,-0.143068,0.000000
5.160000,2.881324,1.864772,-1.447659,0.068954,0.897237,0.114663,-0.477819,-1.360378,-0.525774,1.490606,0.122725,0.185551,-1.192215,7.664944,3.890517,-0.130728,0.046197,0.000000,0.008484,-0.141862,0.000000
5.170000,2.881990,1.873676,-1.446539,0.064250,0.883640,0.109415,-0.462974,-1.358768,-0.523723,1.478199,0.199196,0.224631,-1.284154,7.634241,3.906980,-0.130609,0.044772,0.000000,0.015303,-0.140580,0.000000
5.180000,2.882610,1.882445,-1.445471,0.059694,0.870064,0.104189,-0.448257,-1.356395,-0.521282,1.465028,0.275511,0.263305,-1.349344,7.628414,3.826297,-0.130422,0.043361,0.000000,0.022120,-0.139242,-0.000000
5.190000,2.883185,1.891078,-1.444455,0.055285,0.856515,0.098990,-0.433676,-1.353259,-0.518459,1.451131,0.351647,0.301487,-1.434166,7.592894,3.826568,-0.130167,0.041964,0.000000,0.028935,-0.137851,0.000000
5.200000,2.883716,1.899575,-1.443491,0.051020,0.843001,0.093822,-0.419237,-1.349363,-0.515252,1.436397,0.427406,0.339668,-1.507940,7.563424,3.790986,-0.129843,0.040581,0.000000,0.035726,-0.136395,0.000000
5.210000,2.884206,1.907938,-1.442578,0.046900,0.829530,0.088687,-0.404950,-1.344711,-0.511667,1.420977,0.502907,0.377290,-1.578686,7.530872,3.748522,-0.129452,0.039213,0.000000,0.042512,-0.134888,-0.000000
5.220000,2.884655,1.916166,-1.441717,0.042921,0.816109,0.083590,-0.390820,-1.339307,-0.507707,1.404803,0.577962,0.414767,-1.652520,7.484680,3.730114,-0.128993,0.037861,0.000000,0.049272,-0.133322,0.000000
5.230000,2.885064,1.924260,-1.440906,0.039083,0.802746,0.078534,-0.376856,-1.333153,-0.503374,1.388004,0.652700,0.451545,-1.706756,7.462589,3.624023,-0.128467,0.036524,0.000000,0.056027,-0.131711,0.000000
5.240000,2.885437,1.932221,-1.440146,0.035383,0.789449,0.073523,-0.363062,-1.326254,-0.498679,1.370613,0.727094,0.487544,-1.774084,7.410130,3.590642,-0.127873,0.035205,0.000000,0.062776,-0.130058,0.000000
5.250000,2.885773,1.940050,-1.439436,0.031821,0.776224,0.068561,-0.349446,-1.318613,-0.493624,1.352563,0.800937,0.523204,-1.832738,7.362927,3.524782,-0.127211,0.033902,0.000000,0.069496,-0.128354,0.000000
5.260000,2.886074,1.947746,-1.438775,0.028394,0.763079,0.063652,-0.336013,-1.310237,-0.488217,1.333947,0.874308,0.558031,-1.888990,7.311201,3.452924,-0.126483,0.032617,0.000000,0.076202,-0.126608,0.000000
5.270000,2.886341,1.955311,-1.438163,0.025100,0.750022,0.058798,-0.322769,-1.301129,-0.482465,1.314801,0.947151,0.592367,-1.940530,7.256198,3.400584,-0.125687,0.031349,0.000000,0.082885,-0.124823,0.000000
5.280000,2.886576,1.962747,-1.437599,0.021938,0.737059,0.054004,-0.309719,-1.291296,-0.476373,1.295126,1.019407,0.625754,-1.994171,7.194307,3.275556,-0.124825,0.030101,0.000000,0.089546,-0.122998,0.000000
5.290000,2.886780,1.970053,-1.437082,0.018905,0.724198,0.049272,-0.296868,-1.280743,-0.469954,1.274947,1.091033,0.658123,-2.040063,7.130475,3.210515,-0.123897,0.028870,0.000000,0.096184,-0.121136,-0.000000
5.300000,2.886954,1.977231,-1.436613,0.016000,0.711446,0.044606,-0.284221,-1.269477,-0.463213,1.254326,1.161998,0.689839,-2.084549,7.061440,3.118849,-0.122902,0.027659,0.000000,0.102793,-0.119241,0.000000
5.310000,2.887100,1.984282,-1.436190,0.013220,0.698811,0.040009,-0.271783,-1.257505,-0.456161,1.233251,1.232253,0.720481,-2.127675,6.986710,3.021189,-0.121841,0.026467,0.000000,0.109372,-0.117311,0.000000
5.320000,2.887219,1.991208,-1.435813,0.010563,0.686299,0.035484,-0.259557,-1.244835,-0.448806,1.211770,1.301670,0.750340,-2.167791,6.899919,2.939701,-0.120714,0.025296,0.000000,0.115908,-0.115349,0.000000
5.330000,2.887312,1.998009,-1.435480,0.008028,0.673916,0.031033,-0.247549,-1.231474,-0.441158,1.189911,1.370320,0.779045,-2.203613,6.829234,2.800129,-0.119523,0.024144,0.000000,0.122412,-0.113359,-0.000000
5.340000,2.887380,2.004687,-1.435192,0.005612,0.661671,0.026661,-0.235760,-1.217431,-0.433229,1.167700,1.438155,0.806539,-2.238362,6.732758,2.708574,-0.118266,0.023012,0.000000,0.128881,-0.111342,0.000000
5.350000,2.887425,2.011243,-1.434947,0.003312,0.649570,0.022370,-0.224196,-1.202715,-0.425030,1.145153,1.504989,0.833115,-2.270101,6.637524,2.595712,-0.116945,0.021901,0.000000,0.135294,-0.109298,0.000000
5.360000,2.887447,2.017678,-1.434744,0.001127,0.637619,0.018162,-0.212858,-1.187334,-0.416571,1.122305,1.570904,0.858466,-2.299232,6.537183,2.479567,-0.115561,0.020811,0.000000,0.141663,-0.107230,0.000000
5.370000,2.887448,2.023996,-1.434583,-0.000946,0.625826,0.014039,-0.201751,-1.171301,-0.407864,1.099176,1.635646,0.882748,-2.326084,6.417264,2.370862,-0.114112,0.019742,0.000000,0.147961,-0.105139,0.000000
5.380000,2.887428,2.030195,-1.434463,-0.002909,0.614195,0.010005,-0.190876,-1.154625,-0.398920,1.075794,1.699377,0.905760,-2.349845,6.328157,2.230823,-0.112602,0.018695,0.000000,0.154207,-0.103026,0.000000
5.390000,2.887390,2.036280,-1.434383,-0.004764,0.602735,0.006062,-0.180236,-1.137317,-0.389753,1.052184,1.762045,0.927466,-2.371760,6.197187,2.115654,-0.111028,0.017669,0.000000,0.160396,-0.100894,0.000000
5.400000,2.887333,2.042251,-1.434341,-0.006514,0.591451,0.002211,-0.169833,-1.119389,-0.380375,1.028369,1.823358,0.948020,-2.391014,6.071614,1.989010,-0.109394,0.016664,0.000000,0.166497,-0.098744,0.000000
5.410000,2.887260,2.048110,-1.434338,-0.008162,0.580349,-0.001545,-0.159669,-1.100854,-0.370797,1.004355,1.883433,0.967269,-2.408274,5.939135,1.860707,-0.107699,0.015682,0.000000,0.172522,-0.096575,0.000000
5.420000,2.887170,2.053858,-1.434372,-0.009709,0.569436,-0.005205,-0.149746,-1.081725,-0.361034,0.980239,1.942090,0.985229,-2.417484,5.794066,1.730824,-0.105944,0.014722,0.000000,0.178455,-0.094397,0.000000
5.430000,2.887066,2.059499,-1.434442,-0.011157,0.558717,-0.008765,-0.140065,-1.062016,-0.351097,0.955951,1.999350,1.001880,-2.439766,5.656686,1.599328,-0.104130,0.013784,0.000000,0.184296,-0.092201,0.000000
5.440000,2.886948,2.065033,-1.434547,-0.012511,0.548198,-0.012226,-0.130627,-1.041743,-0.341000,0.931512,2.055141,1.017213,-2.444719,5.497353,1.466984,-0.102258,0.012868,0.000000,0.190037,-0.089988,0.000000
5.450000,2.886816,2.070464,-1.434686,-0.013771,0.537884,-0.015585,-0.121435,-1.020919,-0.330757,0.907033,2.109297,1.031216,-2.452973,5.335284,1.333623,-0.100330,0.011974,0.000000,0.195661,-0.087770,0.000000
5.460000,2.886673,2.075792,-1.434858,-0.014940,0.527781,-0.018841,-0.112487,-0.999562,-0.320380,0.882456,2.161818,1.043907,-2.458819,5.165213,1.200245,-0.098345,0.011103,0.000000,0.201167,-0.085540,0.000000
5.470000,2.886518,2.081020,-1.435062,-0.016021,0.517894,-0.021992,-0.103785,-0.977689,-0.309884,0.857894,2.212553,1.055180,-2.456288,4.982717,1.058612,-0.096307,0.010255,0.000000,0.206539,-0.083307,0.000000
5.480000,2.886352,2.086150,-1.435298,-0.017017,0.508229,-0.025038,-0.095329,-0.955317,-0.299281,0.833271,2.261489,1.065165,-2.467938,4.803074,0.938538,-0.094215,0.009430,0.000000,0.211774,-0.081064,-0.000000
5.490000,2.886178,2.091185,-1.435563,-0.017929,0.498790,-0.027977,-0.087120,-0.932465,-0.288585,0.808608,2.308542,1.073868,-2.461206,4.603758,0.797891,-0.092072,0.008627,0.000000,0.216862,-0.078813,0.000000
5.500000,2.885994,2.096127,-1.435857,-0.018760,0.489581,-0.030809,-0.079157,-0.909153,-0.277808,0.784018,2.353555,1.081162,-2.458411,4.399357,0.664957,-0.089878,0.007847,0.000000,0.221785,-0.076563,0.000000
5.510000,2.885803,2.100978,-1.436179,-0.019513,0.480608,-0.033533,-0.071440,-0.885401,-0.266966,0.759433,2.396474,1.087195,-2.453247,4.185234,0.533327,-0.087637,0.007089,0.000000,0.226536,-0.074308,0.000000
5.520000,2.885604,2.105740,-1.436527,-0.020190,0.471874,-0.036149,-0.063968,-0.861231,-0.256070,0.735007,2.437251,1.091754,-2.436465,3.966201,0.386843,-0.085348,0.006355,0.000000,0.231110,-0.072063,0.000000
5.530000,2.885399,2.110416,-1.436901,-0.020793,0.463385,-0.038655,-0.056740,-0.836664,-0.245134,0.710609,2.475716,1.095108,-2.442867,3.725162,0.284451,-0.083015,0.005643,0.000000,0.235485,-0.069813,0.000000
5.540000,2.885188,2.115008,-1.437300,-0.021325,0.455142,-0.041051,-0.049756,-0.811724,-0.234171,0.686255,2.511769,1.097282,-2.422687,3.486024,0.142308,-0.080639,0.004954,0.000000,0.239648,-0.067561,0.000000
5.550000,2.884973,2.119520,-1.437722,-0.021789,0.447151,-0.043338,-0.043014,-0.786436,-0.223194,0.662121,2.545382,1.098031,-2.408658,3.232631,0.015988,-0.078223,0.004287,0.000000,0.243597,-0.065322,0.000000
5.560000,2.884753,2.123952,-1.438166,-0.022186,0.439415,-0.045515,-0.036512,-0.760825,-0.212214,0.638136,2.576369,1.097635,-2.390593,2.968568,-0.108184,-0.075768,0.003643,0.000000,0.247307,-0.063091,0.000000
5.570000,2.884529,2.128309,-1.438632,-0.022520,0.431936,-0.047582,-0.030250,-0.734918,-0.201246,0.614328,2.604773,1.095739,-2.370758,2.704813,-0.256687,-0.073277,0.003022,0.000000,0.250784,-0.060869,0.000000
5.580000,2.884303,2.132592,-1.439118,-0.022792,0.424717,-0.049540,-0.024225,-0.708740,-0.190303,0.590727,2.630309,1.092798,-2.349163,2.400385,-0.330708,-0.070753,0.002422,0.000000,0.253992,-0.058659,-0.000000
5.590000,2.884074,2.136804,-1.439622,-0.023005,0.417762,-0.051388,-0.018435,-0.682321,-0.179394,0.567356,2.652860,1.088853,-2.324449,2.113675,-0.472063,-0.068199,0.001845,0.000000,0.256916,-0.056463,0.000000
5.600000,2.883843,2.140948,-1.440145,-0.023162,0.411072,-0.053128,-0.012877,-0.655692,-0.168531,0.544245,2.672498,1.083484,-2.297454,1.806077,-0.587328,-0.065616,0.001290,0.000000,0.259564,-0.054284,0.000000
5.610000,2.883611,2.145026,-1.440685,-0.023264,0.404649,-0.054759,-0.007549,-0.628883,-0.157727,0.521377,2.688859,1.077109,-2.268717,1.485123,-0.699669,-0.063008,0.000757,0.000000,0.261894,-0.052121,-0.000000
5.620000,2.883378,2.149042,-1.441240,-0.023313,0.398494,-0.056283,-0.002448,-0.601924,-0.146993,0.498944,2.702354,1.069386,-2.224378,1.191666,-0.832546,-0.060379,0.000246,0.000000,0.263945,-0.049992,0.000000
5.630000,2.883145,2.152997,-1.441810,-0.023313,0.392611,-0.057699,0.002430,-0.574848,-0.136342,0.476756,2.712229,1.060718,-2.212907,0.780801,-0.900135,-0.057731,-0.000244,0.000000,0.265636,-0.047879,0.000000
5.640000,2.882912,2.156895,-1.442393,-0.023265,0.386998,-0.059010,0.007088,-0.547692,-0.125782,0.454831,2.718340,1.051150,-2.164963,0.459831,-1.025216,-0.055067,-0.000713,0.000000,0.266950,-0.045783,-0.000000
5.650000,2.882679,2.160738,-1.442990,-0.023172,0.381657,-0.060215,0.011529,-0.520491,-0.115324,0.433418,2.721215,1.040327,-2.125066,0.092643,-1.126928,-0.052393,-0.001162,0.000000,0.267938,-0.043729,0.000000
5.660000,2.882448,2.164529,-1.443597,-0.023036,0.376588,-0.061317,0.015757,-0.493282,-0.104978,0.412341,2.720069,1.028613,-2.083092,-0.288977,-1.225524,-0.049710,-0.001589,0.000000,0.268516,-0.041701,0.000000
5.670000,2.882219,2.168271,-1.444216,-0.022858,0.371791,-0.062315,0.019778,-0.466100,-0.094756,0.391827,2.715715,1.015733,-2.025777,-0.617521,-1.340139,-0.047023,-0.001997,0.000000,0.268765,-0.039720,0.000000
5.680000,2.881991,2.171966,-1.444843,-0.022641,0.367266,-0.063212,0.023595,-0.438982,-0.084666,0.371700,2.706974,1.002025,-1.999148,-1.133732,-1.400657,-0.044336,-0.002385,0.000000,0.268561,-0.037770,-0.000000
5.690000,2.881766,2.175617,-1.445480,-0.022386,0.363011,-0.064009,0.027213,-0.411976,-0.074718,0.351985,2.693682,0.987532,-1.936936,-1.492435,-1.507510,-0.041654,-0.002753,0.000000,0.267884,-0.035853,0.000000
5.700000,2.881544,2.179227,-1.446123,-0.022097,0.359026,-0.064707,0.030637,-0.385120,-0.064919,0.332914,2.676797,0.971971,-1.882800,-1.920362,-1.594562,-0.038980,-0.003102,0.000000,0.266829,-0.033992,-0.000000
5.710000,2.881324,2.182798,-1.446773,-0.021774,0.355308,-0.065308,0.033873,-0.358457,-0.055280,0.314367,2.655109,0.955683,-1.824940,-2.363523,-1.677727,-0.036319,-0.003434,0.000000,0.265269,-0.032177,0.000000
5.720000,2.881108,2.186334,-1.447429,-0.021420,0.351856,-0.065813,0.036926,-0.332028,-0.045810,0.296438,2.630001,0.938286,-1.761346,-2.713771,-1.786397,-0.033676,-0.003747,0.000000,0.263344,-0.030417,0.000000
