time,x,y,z,vx,vy,vz,ax,ay,az,jx,jy,jz,sx,sy,sz,qw,qx,qy,qz,wx,wy,wz
0.000000,-2.517462,-2.480673,0.476305,0.008559,0.001228,-0.003143,0.266750,0.082183,0.085010,-3.979435,-0.799027,-0.323657,67.768950,3.024617,2.798275,0.999990,0.001409,0.004008,-0.001000,0.000037,-0.000427,0.002096
0.010000,-2.517364,-2.480656,0.476278,0.011039,0.002010,-0.002309,0.230263,0.074341,0.081912,-3.325936,-0.769873,-0.296035,62.977278,2.809397,2.726359,0.999991,0.001405,0.003998,-0.000993,-0.000665,-0.001882,0.001405
0.020000,-2.517243,-2.480633,0.476259,0.013185,0.002716,-0.001504,0.200076,0.066779,0.079087,-2.718977,-0.742776,-0.269128,58.459208,2.613048,2.655039,0.999991,0.001402,0.003988,-0.000986,-0.001114,-0.002809,0.000959
0.030000,-2.517101,-2.480602,0.476248,0.015060,0.003347,-0.000726,0.175737,0.059479,0.076528,-2.155872,-0.717551,-0.242932,54.204882,2.434848,2.584337,0.999991,0.001399,0.003979,-0.000979,-0.001383,-0.003365,0.000685
0.040000,-2.516942,-2.480566,0.476244,0.016718,0.003906,0.000027,0.156821,0.052422,0.074226,-1.634033,-0.694021,-0.217439,50.204479,2.274061,2.514280,0.999991,0.001394,0.003968,-0.000973,-0.001531,-0.003669,0.000530
0.050000,-2.516767,-2.480524,0.476248,0.018213,0.004396,0.000759,0.142927,0.045594,0.072176,-1.150969,-0.672014,-0.192644,46.448095,2.130020,2.444856,0.999991,0.001389,0.003955,-0.000968,-0.001600,-0.003809,0.000450
0.060000,-2.516578,-2.480478,0.476260,0.019592,0.004819,0.001472,0.133680,0.038978,0.070371,-0.704290,-0.651367,-0.168540,42.925850,2.001968,2.376113,0.999991,0.001383,0.003938,-0.000964,-0.001621,-0.003850,0.000417
0.070000,-2.516376,-2.480428,0.476278,0.020901,0.005176,0.002167,0.128728,0.032562,0.068803,-0.291704,-0.631924,-0.145120,39.627905,1.889192,2.308063,0.999991,0.001375,0.003920,-0.000962,-0.001616,-0.003837,0.000409
0.080000,-2.516160,-2.480375,0.476303,0.022180,0.005471,0.002848,0.127740,0.026336,0.067466,0.088983,-0.613535,-0.122376,36.544395,1.790942,2.240734,0.999991,0.001366,0.003900,-0.000960,-0.001600,-0.003800,0.000413
0.090000,-2.515932,-2.480319,0.476335,0.023468,0.005704,0.003517,0.130408,0.020288,0.066354,0.439866,-0.596060,-0.100302,33.665429,1.706420,2.174165,0.999991,0.001358,0.003880,-0.000959,-0.001582,-0.003758,0.000419
0.100000,-2.515691,-2.480261,0.476373,0.024799,0.005877,0.004176,0.136444,0.014412,0.065458,0.762940,-0.579358,-0.078892,30.981134,1.635427,2.108223,0.999991,0.001350,0.003861,-0.000957,-0.001565,-0.003720,0.000424
0.110000,-2.515436,-2.480202,0.476418,0.026207,0.005992,0.004827,0.145580,0.008699,0.064774,1.060104,-0.563308,-0.058136,28.481699,1.576625,2.043114,0.999991,0.001342,0.003842,-0.000955,-0.001552,-0.003689,0.000425
0.120000,-2.515166,-2.480141,0.476470,0.027720,0.006051,0.005472,0.157566,0.003144,0.064293,1.333157,-0.547787,-0.038027,26.157227,1.529531,1.978787,0.999991,0.001334,0.003824,-0.000953,-0.001543,-0.003668,0.000423
0.130000,-2.514881,-2.480081,0.476528,0.029367,0.006056,0.006114,0.172169,-0.002258,0.064011,1.583799,-0.532681,-0.018557,23.997852,1.493430,1.915265,0.999991,0.001326,0.003805,-0.000951,-0.001537,-0.003652,0.000417
0.140000,-2.514578,-2.480020,0.476592,0.031172,0.006007,0.006753,0.189173,-0.007511,0.063920,1.813632,-0.517884,0.000281,21.993735,1.467572,1.852568,0.999992,0.001319,0.003787,-0.000949,-0.001534,-0.003641,0.000410
0.150000,-2.514257,-2.479961,0.476663,0.033158,0.005906,0.007393,0.208377,-0.012616,0.064014,2.024159,-0.503298,0.018497,20.135103,1.451118,1.790708,0.999992,0.001311,0.003769,-0.000947,-0.001530,-0.003630,0.000403
0.160000,-2.513915,-2.479902,0.476740,0.035346,0.005755,0.008034,0.229596,-0.017577,0.064288,2.216784,-0.488830,0.036097,18.411779,1.443779,1.729663,0.999992,0.001303,0.003751,-0.000945,-0.001526,-0.003618,0.000396
0.170000,-2.513549,-2.479846,0.476823,0.037756,0.005555,0.008679,0.252658,-0.022393,0.064734,2.392813,-0.474396,0.053092,16.814192,1.444419,1.669520,0.999992,0.001296,0.003733,-0.000943,-0.001520,-0.003603,0.000390
0.180000,-2.513159,-2.479792,0.476913,0.040405,0.005308,0.009329,0.277401,-0.027065,0.065348,2.553454,-0.459917,0.069491,15.332389,1.452468,1.610258,0.999992,0.001288,0.003715,-0.000941,-0.001513,-0.003585,0.000386
0.190000,-2.512740,-2.479740,0.477010,0.043309,0.005014,0.009987,0.303679,-0.031591,0.066122,2.699814,-0.445324,0.085301,13.956493,1.467280,1.551872,0.999992,0.001281,0.003697,-0.000939,-0.001505,-0.003564,0.000383
0.200000,-2.512292,-2.479691,0.477113,0.046483,0.004676,0.010652,0.331353,-0.035971,0.067052,2.832904,-0.430553,0.100532,12.676674,1.487900,1.494523,0.999992,0.001273,0.003679,-0.000937,-0.001496,-0.003542,0.000381
0.210000,-2.511810,-2.479646,0.477223,0.049940,0.004295,0.011328,0.360278,-0.040202,0.068131,2.949628,-0.415776,0.115233,11.403834,1.509344,1.438825,0.999992,0.001266,0.003661,-0.000935,-0.001489,-0.003525,0.000377
0.220000,-2.511292,-2.479606,0.477340,0.053692,0.003873,0.012015,0.390363,-0.044282,0.069354,3.067887,-0.399973,0.129248,11.560192,1.612253,1.371041,0.999992,0.001258,0.003644,-0.000933,-0.001483,-0.003508,0.000373
0.230000,-2.510735,-2.479569,0.477463,0.057751,0.003410,0.012716,0.421565,-0.048203,0.070715,3.166371,-0.384353,0.142799,8.126509,1.511113,1.339510,0.999992,0.001251,0.003626,-0.000931,-0.001476,-0.003491,0.000369
0.240000,-2.510136,-2.479538,0.477594,0.062127,0.002909,0.013430,0.453618,-0.051970,0.072209,3.244808,-0.368932,0.155904,8.278547,1.613826,1.274909,0.999992,0.001243,0.003609,-0.000929,-0.001470,-0.003474,0.000364
0.250000,-2.509491,-2.479511,0.477732,0.066826,0.002371,0.014160,0.486483,-0.055577,0.073830,3.326146,-0.352411,0.168359,7.293433,1.651263,1.222825,0.999992,0.001236,0.003592,-0.000928,-0.001463,-0.003457,0.000360
0.260000,-2.508798,-2.479490,0.477877,0.071859,0.001798,0.014907,0.520084,-0.059019,0.075574,3.392151,-0.335843,0.180322,6.360219,1.691085,1.171006,0.999992,0.001229,0.003574,-0.000926,-0.001456,-0.003440,0.000356
0.270000,-2.508053,-2.479475,0.478030,0.077230,0.001191,0.015672,0.554332,-0.062290,0.077435,3.457604,-0.318321,0.191792,6.308393,1.786253,1.122053,0.999993,0.001221,0.003557,-0.000924,-0.001450,-0.003423,0.000352
0.280000,-2.507252,-2.479466,0.478191,0.082947,0.000553,0.016456,0.589187,-0.065385,0.079408,3.509442,-0.300689,0.202744,4.053335,1.739678,1.068449,0.999993,0.001214,0.003540,-0.000922,-0.001444,-0.003406,0.000348
0.290000,-2.506393,-2.479464,0.478359,0.089015,-0.000116,0.017261,0.624472,-0.068304,0.081488,3.547526,-0.282966,0.213185,4.005175,1.832812,1.020963,0.999993,0.001207,0.003523,-0.000921,-0.001437,-0.003389,0.000343
0.300000,-2.505471,-2.479469,0.478536,0.095438,-0.000813,0.018086,0.660147,-0.071040,0.083670,3.585992,-0.264264,0.223157,3.261362,1.880126,0.972563,0.999993,0.001200,0.003506,-0.000919,-0.001431,-0.003373,0.000339
0.310000,-2.504483,-2.479481,0.478721,0.102219,-0.001536,0.018934,0.696151,-0.073589,0.085950,3.613653,-0.245331,0.232637,2.551553,1.928132,0.924657,0.999993,0.001193,0.003489,-0.000917,-0.001424,-0.003356,0.000335
0.320000,-2.503425,-2.479500,0.478915,0.109362,-0.002284,0.019806,0.732419,-0.075944,0.088322,3.639646,-0.225495,0.241657,2.387797,2.017831,0.878864,0.999993,0.001186,0.003473,-0.000915,-0.001418,-0.003339,0.000331
0.330000,-2.502294,-2.479526,0.479117,0.116868,-0.003054,0.020701,0.768910,-0.078098,0.090781,3.655957,-0.205421,0.250204,0.871422,1.996408,0.830716,0.999993,0.001178,0.003456,-0.000914,-0.001412,-0.003323,0.000327
0.340000,-2.501087,-2.479561,0.479329,0.124740,-0.003845,0.021622,0.805503,-0.080051,0.093324,3.662533,-0.185134,0.258286,0.715978,2.082608,0.786359,0.999993,0.001171,0.003439,-0.000912,-0.001406,-0.003307,0.000323
0.350000,-2.499798,-2.479603,0.479550,0.132979,-0.004654,0.022568,0.842162,-0.081797,0.095946,3.668104,-0.163954,0.265928,0.135775,2.132098,0.741668,0.999993,0.001164,0.003423,-0.000911,-0.001399,-0.003290,0.000319
0.360000,-2.498426,-2.479654,0.479780,0.141584,-0.005480,0.023541,0.878837,-0.083330,0.098641,3.665845,-0.142445,0.273118,-0.419376,2.181599,0.697664,0.999993,0.001157,0.003407,-0.000909,-0.001393,-0.003274,0.000315
0.370000,-2.496966,-2.479713,0.480021,0.150555,-0.006320,0.024541,0.915474,-0.084644,0.101407,3.661307,-0.120213,0.279895,-0.643311,2.253113,0.656626,0.999993,0.001150,0.003390,-0.000907,-0.001387,-0.003258,0.000311
0.380000,-2.495414,-2.479780,0.480271,0.159893,-0.007172,0.025569,0.952038,-0.085733,0.104238,3.649718,-0.097628,0.286229,-1.675695,2.263420,0.610280,0.999993,0.001144,0.003374,-0.000906,-0.001381,-0.003242,0.000307
0.390000,-2.493766,-2.479856,0.480532,0.169596,-0.008034,0.026626,0.988444,-0.086595,0.107130,3.631083,-0.074713,0.292126,-1.887300,2.331234,0.570475,0.999993,0.001137,0.003358,-0.000904,-0.001375,-0.003226,0.000303
0.400000,-2.492020,-2.479941,0.480804,0.179661,-0.008903,0.027712,1.024657,-0.087225,0.110079,3.610679,-0.051103,0.297631,-2.350321,2.378597,0.529421,0.999993,0.001130,0.003342,-0.000903,-0.001369,-0.003210,0.000299
0.410000,-2.490172,-2.480035,0.481087,0.190088,-0.009778,0.028828,1.060636,-0.087616,0.113081,3.584434,-0.027152,0.302728,-2.794912,2.424153,0.489262,0.999993,0.001123,0.003326,-0.000901,-0.001363,-0.003194,0.000295
0.420000,-2.488218,-2.480137,0.481381,0.200873,-0.010655,0.029974,1.096339,-0.087765,0.116132,3.555767,-0.002506,0.307411,-3.033001,2.492509,0.448255,0.999993,0.001116,0.003310,-0.000900,-0.001357,-0.003178,0.000291
0.430000,-2.486153,-2.480248,0.481686,0.212014,-0.011532,0.031150,1.131733,-0.087665,0.119228,3.521784,0.022433,0.311712,-3.763771,2.494711,0.412214,0.999994,0.001109,0.003294,-0.000898,-0.001351,-0.003162,0.000287
0.440000,-2.483976,-2.480367,0.482004,0.223506,-0.012407,0.032358,1.166756,-0.087316,0.122365,3.482522,0.047635,0.315641,-3.987466,2.557985,0.372790,0.999994,0.001103,0.003278,-0.000897,-0.001345,-0.003146,0.000283
0.450000,-2.481682,-2.480496,0.482333,0.235347,-0.013278,0.033598,1.201379,-0.086710,0.125539,3.441241,0.073481,0.319178,-4.363010,2.598530,0.335474,0.999994,0.001096,0.003263,-0.000896,-0.001339,-0.003131,0.000279
0.460000,-2.479268,-2.480633,0.482676,0.247533,-0.014141,0.034869,1.235565,-0.085845,0.128747,3.395494,0.099614,0.322353,-4.723370,2.637319,0.298867,0.999994,0.001089,0.003247,-0.000894,-0.001333,-0.003115,0.000275
0.470000,-2.476730,-2.480779,0.483031,0.260057,-0.014994,0.036173,1.269282,-0.084716,0.131985,3.347380,0.126311,0.325151,-4.955902,2.692588,0.261554,0.999994,0.001083,0.003231,-0.000893,-0.001327,-0.003100,0.000271
0.480000,-2.474066,-2.480933,0.483399,0.272917,-0.015834,0.037509,1.302499,-0.083318,0.135249,3.295189,0.153263,0.327601,-5.481827,2.697256,0.228677,0.999994,0.001076,0.003216,-0.000891,-0.001322,-0.003084,0.000267
0.490000,-2.471271,-2.481095,0.483781,0.286105,-0.016659,0.038878,1.335172,-0.081650,0.138536,3.238977,0.180440,0.329712,-5.699069,2.747374,0.192845,0.999994,0.001069,0.003201,-0.000890,-0.001316,-0.003069,0.000263
0.500000,-2.468343,-2.481266,0.484177,0.299618,-0.017466,0.040280,1.367273,-0.079708,0.141842,3.180749,0.208122,0.331466,-6.003757,2.779517,0.158864,0.999994,0.001063,0.003185,-0.000889,-0.001310,-0.003053,0.000259
0.510000,-2.465277,-2.481444,0.484587,0.313449,-0.018252,0.041715,1.398774,-0.077487,0.145164,3.119066,0.236060,0.332880,-6.296055,2.810326,0.125338,0.999994,0.001056,0.003170,-0.000888,-0.001305,-0.003038,0.000255
0.520000,-2.462073,-2.481631,0.485011,0.327591,-0.019015,0.043183,1.429647,-0.074985,0.148499,3.055186,0.264346,0.333987,-6.511536,2.844177,0.094957,0.999994,0.001050,0.003155,-0.000886,-0.001299,-0.003023,0.000252
0.530000,-2.458725,-2.481825,0.485451,0.342040,-0.019751,0.044685,1.459867,-0.072199,0.151843,2.988170,0.292884,0.334753,-6.890725,2.862991,0.058374,0.999994,0.001043,0.003140,-0.000885,-0.001293,-0.003008,0.000248
0.540000,-2.455231,-2.482026,0.485905,0.356787,-0.020458,0.046220,1.489400,-0.069127,0.155193,2.918089,0.321651,0.335183,-7.089841,2.892535,0.029008,0.999994,0.001037,0.003125,-0.000884,-0.001288,-0.002993,0.000244
0.550000,-2.451588,-2.482234,0.486375,0.371825,-0.021133,0.047789,1.518224,-0.065765,0.158546,2.846120,0.350709,0.335323,-7.335476,2.916001,-0.002080,0.999994,0.001030,0.003110,-0.000883,-0.001282,-0.002978,0.000240
0.560000,-2.447793,-2.482448,0.486861,0.387149,-0.021772,0.049391,1.546314,-0.062112,0.161898,2.771478,0.379954,0.335152,-7.570349,2.937100,-0.032384,0.999994,0.001024,0.003095,-0.000881,-0.001277,-0.002963,0.000236
0.570000,-2.443844,-2.482669,0.487363,0.402749,-0.022374,0.051027,1.573647,-0.058165,0.165248,2.694941,0.409485,0.334675,-7.755549,2.964489,-0.062679,0.999994,0.001017,0.003080,-0.000880,-0.001271,-0.002948,0.000232
0.580000,-2.439737,-2.482896,0.487882,0.418619,-0.022935,0.052696,1.600204,-0.053922,0.168591,2.615975,0.439147,0.333907,-8.036671,2.967361,-0.090753,0.999994,0.001011,0.003066,-0.000879,-0.001266,-0.002933,0.000228
0.590000,-2.435471,-2.483128,0.488417,0.434750,-0.023452,0.054398,1.625959,-0.049382,0.171925,2.534652,0.468912,0.332855,-8.205794,2.989622,-0.119772,0.999994,0.001005,0.003051,-0.000878,-0.001260,-0.002919,0.000224
0.600000,-2.431042,-2.483364,0.488970,0.451135,-0.023921,0.056134,1.650892,-0.044543,0.175247,2.451717,0.498894,0.331516,-8.399994,3.002106,-0.147639,0.999995,0.000998,0.003036,-0.000877,-0.001255,-0.002904,0.000221
0.610000,-2.426447,-2.483606,0.489540,0.467765,-0.024341,0.057903,1.674986,-0.039403,0.178554,2.366736,0.528979,0.329901,-8.583838,3.014286,-0.175096,0.999995,0.000992,0.003022,-0.000876,-0.001250,-0.002889,0.000217
0.620000,-2.421685,-2.483851,0.490128,0.484632,-0.024708,0.059705,1.698222,-0.033963,0.181844,2.280186,0.559208,0.328016,-8.736313,3.028569,-0.201800,0.999995,0.000986,0.003007,-0.000875,-0.001244,-0.002875,0.000213
0.630000,-2.416754,-2.484100,0.490734,0.501727,-0.025020,0.061540,1.720584,-0.028219,0.185114,2.191797,0.589487,0.325866,-8.940274,3.026822,-0.228205,0.999995,0.000980,0.002993,-0.000874,-0.001239,-0.002860,0.000209
0.640000,-2.411650,-2.484351,0.491359,0.519041,-0.025272,0.063408,1.742052,-0.022173,0.188361,2.101645,0.619792,0.323455,-9.076871,3.036619,-0.253833,0.999995,0.000974,0.002979,-0.000872,-0.001234,-0.002846,0.000205
0.650000,-2.406372,-2.484605,0.492002,0.536565,-0.025462,0.065307,1.762612,-0.015823,0.191582,2.010195,0.650186,0.320792,-9.224021,3.039502,-0.278875,0.999995,0.000967,0.002965,-0.000871,-0.001229,-0.002832,0.000201
0.660000,-2.400918,-2.484860,0.492665,0.554290,-0.025587,0.067239,1.782251,-0.009169,0.194776,1.917220,0.680576,0.317881,-9.362616,3.040480,-0.303397,0.999995,0.000961,0.002951,-0.000870,-0.001224,-0.002817,0.000198
0.670000,-2.395286,-2.485117,0.493347,0.572207,-0.025644,0.069203,1.800953,-0.002211,0.197939,1.823034,0.711009,0.314723,-9.479776,3.043547,-0.327917,0.999995,0.000955,0.002937,-0.000869,-0.001218,-0.002803,0.000194
0.680000,-2.389473,-2.485373,0.494049,0.590306,-0.025630,0.071198,1.818707,0.005051,0.201069,1.727514,0.741396,0.311331,-9.623160,3.033498,-0.350404,0.999995,0.000949,0.002923,-0.000869,-0.001213,-0.002789,0.000190
0.690000,-2.383479,-2.485629,0.494771,0.608578,-0.025542,0.073224,1.835499,0.012616,0.204165,1.630733,0.771715,0.307711,-9.724783,3.031982,-0.373751,0.999995,0.000943,0.002909,-0.000868,-0.001208,-0.002775,0.000186
0.700000,-2.377301,-2.485884,0.495514,0.627013,-0.025377,0.075281,1.851318,0.020485,0.207223,1.532990,0.802015,0.303858,-9.829445,3.025223,-0.396219,0.999995,0.000937,0.002895,-0.000867,-0.001203,-0.002761,0.000182
0.710000,-2.370938,-2.486136,0.496277,0.645601,-0.025132,0.077368,1.866155,0.028656,0.210241,1.434190,0.832222,0.299781,-9.925959,3.016412,-0.418224,0.999995,0.000931,0.002881,-0.000866,-0.001198,-0.002747,0.000178
0.720000,-2.364389,-2.486386,0.497061,0.664333,-0.024803,0.079486,1.879999,0.037129,0.213218,1.334527,0.862341,0.295505,-10.008547,3.006531,-0.437885,0.999995,0.000925,0.002867,-0.000865,-0.001193,-0.002733,0.000174
0.730000,-2.357651,-2.486632,0.497867,0.683198,-0.024388,0.081632,1.892843,0.045903,0.216150,1.233982,0.892337,0.291005,-10.099248,2.992438,-0.462014,0.999995,0.000919,0.002854,-0.000864,-0.001188,-0.002719,0.000171
0.740000,-2.350724,-2.486873,0.498694,0.702186,-0.023884,0.083808,1.904676,0.054976,0.219037,1.132630,0.922192,0.286285,-10.166681,2.978777,-0.480876,0.999995,0.000913,0.002840,-0.000863,-0.001183,-0.002706,0.000167
0.750000,-2.343607,-2.487109,0.499543,0.721288,-0.023288,0.086013,1.915493,0.064346,0.221875,1.030643,0.951898,0.281381,-10.232000,2.962110,-0.500819,0.999995,0.000907,0.002827,-0.000862,-0.001178,-0.002692,0.000163
0.760000,-2.336298,-2.487339,0.500415,0.740492,-0.022596,0.088246,1.925287,0.074013,0.224664,0.928020,0.981425,0.276275,-10.289604,2.943706,-0.520235,0.999995,0.000901,0.002813,-0.000862,-0.001174,-0.002678,0.000159
0.770000,-2.328797,-2.487561,0.501308,0.759790,-0.021806,0.090506,1.934052,0.083974,0.227400,0.824893,1.010774,0.270979,-10.336296,2.925040,-0.538910,0.999995,0.000895,0.002800,-0.000861,-0.001169,-0.002665,0.000155
0.780000,-2.321102,-2.487775,0.502225,0.779170,-0.020916,0.092794,1.941783,0.094228,0.230083,0.721281,1.039902,0.265496,-10.385049,2.900181,-0.557752,0.999995,0.000890,0.002787,-0.000860,-0.001164,-0.002651,0.000151
0.790000,-2.313213,-2.487979,0.503164,0.798622,-0.019921,0.095108,1.948476,0.104771,0.232710,0.617253,1.068788,0.259829,-10.417484,2.877646,-0.575501,0.999995,0.000884,0.002773,-0.000859,-0.001159,-0.002638,0.000147
0.800000,-2.305130,-2.488173,0.504127,0.818136,-0.018819,0.097448,1.954127,0.115603,0.235279,0.512937,1.097443,0.253988,-10.446037,2.852016,-0.592853,0.999995,0.000878,0.002760,-0.000858,-0.001155,-0.002625,0.000143
0.810000,-2.296851,-2.488355,0.505113,0.837701,-0.017608,0.099813,1.958734,0.126719,0.237789,0.408356,1.125817,0.247983,-10.467530,2.824365,-0.609603,0.999995,0.000872,0.002747,-0.000858,-0.001150,-0.002611,0.000140
0.820000,-2.288376,-2.488524,0.506123,0.857307,-0.016284,0.102203,1.962294,0.138118,0.240238,0.303624,1.153943,0.241784,-10.479328,2.798691,-0.628652,0.999996,0.000866,0.002734,-0.000857,-0.001145,-0.002598,0.000136
0.830000,-2.279704,-2.488680,0.507157,0.876944,-0.014845,0.104618,1.964806,0.149797,0.242624,0.198762,1.181744,0.235441,-10.491904,2.761073,-0.639668,0.999996,0.000861,0.002721,-0.000856,-0.001141,-0.002585,0.000132
0.840000,-2.270837,-2.488821,0.508216,0.896600,-0.013287,0.107055,1.966269,0.161752,0.244946,0.093837,1.209198,0.228963,-10.490578,2.731355,-0.657472,0.999996,0.000855,0.002708,-0.000856,-0.001136,-0.002572,0.000128
0.850000,-2.261772,-2.488946,0.509299,0.916266,-0.011609,0.109516,1.966683,0.173980,0.247203,-0.011040,1.236347,0.222306,-10.485291,2.696257,-0.672332,0.999996,0.000849,0.002695,-0.000855,-0.001131,-0.002559,0.000124
0.860000,-2.252511,-2.489053,0.510406,0.935930,-0.009807,0.111999,1.966049,0.186478,0.249392,-0.115827,1.263152,0.215506,-10.472551,2.661353,-0.686916,0.999996,0.000844,0.002683,-0.000854,-0.001127,-0.002546,0.000120
0.870000,-2.243054,-2.489141,0.511539,0.955583,-0.007878,0.114504,1.964367,0.199242,0.251512,-0.220466,1.289576,0.208576,-10.454045,2.623455,-0.699776,0.999996,0.000838,0.002670,-0.000854,-0.001122,-0.002533,0.000116
0.880000,-2.233400,-2.489210,0.512696,0.975214,-0.005821,0.117029,1.961640,0.212268,0.253563,-0.324886,1.315620,0.201498,-10.428831,2.584980,-0.715688,0.999996,0.000832,0.002657,-0.000853,-0.001118,-0.002521,0.000112
0.890000,-2.223550,-2.489257,0.513879,0.994812,-0.003632,0.119575,1.957870,0.225553,0.255542,-0.429024,1.341267,0.194277,-10.397860,2.543886,-0.727834,0.999996,0.000827,0.002645,-0.000853,-0.001113,-0.002508,0.000108
0.900000,-2.213504,-2.489282,0.515088,1.014368,-0.001309,0.122140,1.953061,0.239092,0.257448,-0.532818,1.366498,0.186937,-10.360347,2.501922,-0.740662,0.999996,0.000821,0.002632,-0.000852,-0.001109,-0.002495,0.000104
0.910000,-2.203262,-2.489283,0.516322,1.033870,0.001151,0.124724,1.947215,0.252881,0.259280,-0.636212,1.391298,0.179470,-10.317016,2.458247,-0.753026,0.999996,0.000816,0.002620,-0.000852,-0.001105,-0.002483,0.000100
0.920000,-2.192826,-2.489259,0.517582,1.053309,0.003750,0.127325,1.940338,0.266917,0.261037,-0.739134,1.415662,0.171877,-10.266853,2.413963,-0.765299,0.999996,0.000810,0.002607,-0.000851,-0.001100,-0.002470,0.000097
0.930000,-2.182196,-2.489208,0.518869,1.072673,0.006490,0.129944,1.932434,0.281193,0.262717,-0.841540,1.439563,0.164168,-10.213284,2.365994,-0.776278,0.999996,0.000805,0.002595,-0.000851,-0.001096,-0.002458,0.000093
0.940000,-2.171373,-2.489128,0.520181,1.091954,0.009374,0.132579,1.923509,0.295706,0.264320,-0.943372,1.462986,0.156349,-10.151695,2.318888,-0.787685,0.999996,0.000799,0.002583,-0.000850,-0.001092,-0.002445,0.000089
0.950000,-2.160358,-2.489020,0.521520,1.111140,0.012405,0.135230,1.913569,0.310451,0.265844,-1.044558,1.485931,0.148417,-10.085122,2.269537,-0.798472,0.999996,0.000794,0.002571,-0.000850,-0.001087,-0.002433,0.000085
0.960000,-2.149151,-2.488880,0.522886,1.130222,0.015584,0.137896,1.902620,0.325423,0.267288,-1.145052,1.508383,0.140368,-10.013005,2.219129,-0.809078,0.999996,0.000788,0.002559,-0.000849,-0.001083,-0.002421,0.000081
0.970000,-2.137754,-2.488707,0.524278,1.149189,0.018914,0.140576,1.890670,0.340617,0.268651,-1.244802,1.530296,0.132256,-9.935900,2.164703,-0.815363,0.999996,0.000783,0.002547,-0.000849,-0.001079,-0.002408,0.000077
0.980000,-2.126167,-2.488501,0.525698,1.168032,0.022397,0.143269,1.877727,0.356027,0.269933,-1.343746,1.551702,0.124019,-9.852143,2.116428,-0.831929,0.999996,0.000778,0.002535,-0.000849,-0.001075,-0.002396,0.000073
0.990000,-2.114393,-2.488259,0.527144,1.186741,0.026035,0.145974,1.863798,0.371649,0.271131,-1.441832,1.572592,0.115660,-9.764352,2.059911,-0.837844,0.999996,0.000772,0.002523,-0.000848,-0.001071,-0.002384,0.000069
1.000000,-2.102433,-2.487980,0.528617,1.205305,0.029831,0.148691,1.848893,0.387477,0.272246,-1.539015,1.592905,0.107246,-9.671045,2.004283,-0.846846,0.999996,0.000767,0.002511,-0.000848,-0.001066,-0.002372,0.000065
1.010000,-2.090288,-2.487662,0.530118,1.223715,0.033785,0.151419,1.833021,0.403506,0.273276,-1.635240,1.612663,0.098735,-9.572677,1.947496,-0.855307,0.999996,0.000761,0.002499,-0.000848,-0.001062,-0.002360,0.000061
1.020000,-2.077959,-2.487303,0.531645,1.241962,0.037901,0.154156,1.816192,0.419729,0.274220,-1.730449,1.631854,0.090141,-9.468745,1.890158,-0.863420,0.999996,0.000756,0.002487,-0.000847,-0.001058,-0.002349,0.000057
1.030000,-2.065449,-2.486903,0.533201,1.260036,0.042181,0.156903,1.798416,0.436141,0.275078,-1.824605,1.650456,0.081469,-9.361544,1.830062,-0.870914,0.999996,0.000751,0.002475,-0.000847,-0.001054,-0.002337,0.000053
1.040000,-2.052759,-2.486459,0.534784,1.277927,0.046625,0.159658,1.779703,0.452736,0.275849,-1.917658,1.668459,0.072724,-9.248023,1.770580,-0.878140,0.999996,0.000746,0.002464,-0.000847,-0.001050,-0.002325,0.000049
1.050000,-2.039891,-2.485970,0.536394,1.295627,0.051236,0.162420,1.760066,0.469508,0.276532,-2.009553,1.685855,0.063907,-9.130364,1.708951,-0.884988,0.999996,0.000740,0.002452,-0.000847,-0.001047,-0.002314,0.000045
1.060000,-2.026847,-2.485434,0.538032,1.313126,0.056016,0.165188,1.739516,0.486451,0.277127,-2.100234,1.702620,0.055045,-9.007788,1.646299,-0.890935,0.999996,0.000735,0.002441,-0.000846,-0.001043,-0.002302,0.000041
1.070000,-2.013629,-2.484849,0.539698,1.330414,0.060966,0.167962,1.718066,0.503558,0.277633,-2.189718,1.718799,0.046055,-8.885778,1.587035,-0.903404,0.999996,0.000730,0.002429,-0.000846,-0.001039,-0.002291,0.000037
1.080000,-2.000240,-2.484214,0.541391,1.347484,0.066087,0.170740,1.695726,0.520825,0.278048,-2.277880,1.734309,0.037054,-8.745691,1.514639,-0.896636,0.999996,0.000725,0.002418,-0.000846,-0.001035,-0.002279,0.000033
1.090000,-1.986681,-2.483527,0.543113,1.364326,0.071383,0.173522,1.672513,0.538242,0.278374,-2.364671,1.749135,0.028051,-8.614443,1.452735,-0.907564,0.999996,0.000720,0.002406,-0.000846,-0.001031,-0.002268,0.000029
1.100000,-1.972954,-2.482786,0.544862,1.380931,0.076853,0.176307,1.648437,0.555805,0.278609,-2.450134,1.763348,0.018935,-8.474720,1.386520,-0.911957,0.999997,0.000714,0.002395,-0.000846,-0.001027,-0.002256,0.000025
1.110000,-1.959063,-2.481989,0.546639,1.397292,0.082499,0.179094,1.623515,0.573507,0.278753,-2.534149,1.776881,0.009798,-8.330713,1.319296,-0.916149,0.999997,0.000709,0.002384,-0.000846,-0.001024,-0.002245,0.000021
1.120000,-1.945009,-2.481135,0.548444,1.413399,0.088323,0.181882,1.597759,0.591341,0.278805,-2.616763,1.789726,0.000607,-8.188404,1.250145,-0.921367,0.999997,0.000704,0.002373,-0.000845,-0.001020,-0.002234,0.000017
1.130000,-1.930796,-2.480222,0.550276,1.429244,0.094326,0.184670,1.571185,0.609299,0.278765,-2.697844,1.801893,-0.008614,-8.027071,1.183070,-0.922570,0.999997,0.000699,0.002361,-0.000845,-0.001016,-0.002223,0.000014
1.140000,-1.916425,-2.479248,0.552137,1.444820,0.100510,0.187457,1.543807,0.627376,0.278632,-2.777351,1.813374,-0.017858,-7.876616,1.112374,-0.927034,0.999997,0.000694,0.002350,-0.000845,-0.001012,-0.002212,0.000010
1.150000,-1.901900,-2.478211,0.554025,1.460118,0.106874,0.190242,1.515643,0.645564,0.278407,-2.855341,1.824145,-0.027147,-7.717841,1.042093,-0.930006,0.999997,0.000689,0.002339,-0.000845,-0.001009,-0.002201,0.000006
1.160000,-1.887224,-2.477110,0.555942,1.475130,0.113421,0.193025,1.486706,0.663857,0.278089,-2.931771,1.834200,-0.036487,-7.556907,0.970725,-0.933276,0.999997,0.000684,0.002328,-0.000845,-0.001005,-0.002190,0.000002
1.170000,-1.872398,-2.475942,0.557886,1.489849,0.120152,0.195804,1.457014,0.682246,0.277678,-3.006371,1.843576,-0.045769,-7.372811,0.902493,-0.927592,0.999997,0.000679,0.002317,-0.000845,-0.001001,-0.002179,-0.000002
1.180000,-1.857428,-2.474706,0.559858,1.504268,0.127067,0.198578,1.426583,0.700726,0.277174,-3.079433,1.852206,-0.055133,-7.239364,0.823355,-0.945238,0.999997,0.000674,0.002307,-0.000845,-0.000998,-0.002168,-0.000006
1.190000,-1.842314,-2.473400,0.561857,1.518379,0.134167,0.201347,1.395430,0.719288,0.276575,-3.150940,1.860081,-0.064582,-7.051152,0.753560,-0.939921,0.999997,0.000669,0.002296,-0.000845,-0.000994,-0.002157,-0.000010
1.200000,-1.827061,-2.472022,0.563885,1.532174,0.141453,0.204109,1.363571,0.737925,0.275882,-3.220535,1.867259,-0.073969,-6.877799,0.679913,-0.941976,0.999997,0.000664,0.002285,-0.000845,-0.000991,-0.002146,-0.000014
1.210000,-1.811672,-2.470571,0.565940,1.545648,0.148925,0.206864,1.331025,0.756631,0.275095,-3.288388,1.873726,-0.083416,-6.698876,0.606500,-0.944061,0.999997,0.000659,0.002274,-0.000845,-0.000987,-0.002136,-0.000018
1.220000,-1.796149,-2.469043,0.568022,1.558792,0.156585,0.209611,1.297809,0.775397,0.274214,-3.354535,1.879319,-0.092822,-6.525879,0.519121,-0.939939,0.999997,0.000654,0.002264,-0.000845,-0.000984,-0.002125,-0.000022
1.230000,-1.780497,-2.467438,0.570132,1.571602,0.164433,0.212348,1.263941,0.794215,0.273239,-3.418808,1.884255,-0.102277,-6.328080,0.468198,-0.951092,0.999997,0.000649,0.002253,-0.000846,-0.000980,-0.002115,-0.000026
1.240000,-1.764718,-2.465754,0.572269,1.584069,0.172470,0.215075,1.229439,0.813080,0.272168,-3.481172,1.888538,-0.111782,-6.148456,0.381206,-0.946917,0.999997,0.000644,0.002243,-0.000846,-0.000977,-0.002104,-0.000030
1.250000,-1.748817,-2.463988,0.574433,1.596188,0.180695,0.217791,1.194323,0.831983,0.271003,-3.541735,1.891945,-0.121240,-5.959196,0.306349,-0.947485,0.999997,0.000639,0.002232,-0.000846,-0.000973,-0.002094,-0.000034
1.260000,-1.732796,-2.462140,0.576625,1.607954,0.189110,0.220495,1.158611,0.850916,0.269744,-3.600337,1.894620,-0.130687,-5.766821,0.230144,-0.946918,0.999997,0.000634,0.002222,-0.000846,-0.000970,-0.002083,-0.000038
1.270000,-1.716659,-2.460206,0.578843,1.619359,0.197713,0.223186,1.122322,0.869873,0.268389,-3.657119,1.896560,-0.140222,-5.583301,0.156418,-0.955260,0.999997,0.000630,0.002211,-0.000846,-0.000966,-0.002073,-0.000042
1.280000,-1.700410,-2.458185,0.581088,1.630398,0.206507,0.225863,1.085476,0.888845,0.266939,-3.711871,1.897715,-0.149690,-5.366631,0.074413,-0.937963,0.999997,0.000625,0.002201,-0.000846,-0.000963,-0.002063,-0.000046
1.290000,-1.684052,-2.456075,0.583360,1.641066,0.215490,0.228524,1.048092,0.907824,0.265396,-3.764563,1.898078,-0.159078,-5.177202,-0.000469,-0.944549,0.999997,0.000620,0.002191,-0.000847,-0.000959,-0.002052,-0.000050
1.300000,-1.667590,-2.453874,0.585659,1.651358,0.224664,0.231170,1.010191,0.926804,0.263758,-3.815362,1.897692,-0.168538,-4.975890,-0.078255,-0.942471,0.999997,0.000615,0.002180,-0.000847,-0.000956,-0.002042,-0.000054
1.310000,-1.651026,-2.451581,0.587984,1.661269,0.234026,0.233799,0.971791,0.945775,0.262025,-3.864139,1.896474,-0.177937,-4.773463,-0.157223,-0.940048,0.999997,0.000610,0.002170,-0.000847,-0.000953,-0.002032,-0.000058
1.320000,-1.634366,-2.449193,0.590335,1.670793,0.243579,0.236410,0.932915,0.964731,0.260199,-3.910770,1.894621,-0.187362,-4.558161,-0.221212,-0.942284,0.999997,0.000606,0.002160,-0.000848,-0.000950,-0.002022,-0.000061
1.330000,-1.617612,-2.446709,0.592712,1.679925,0.253321,0.239003,0.893583,0.983665,0.258278,-3.955416,1.891882,-0.196727,-4.370938,-0.326976,-0.930586,0.999997,0.000601,0.002150,-0.000848,-0.000946,-0.002012,-0.000065
1.340000,-1.600768,-2.444126,0.595115,1.688663,0.263252,0.241576,0.853813,1.002566,0.256264,-3.998068,1.888242,-0.206026,-4.153384,-0.393090,-0.931661,0.999997,0.000596,0.002140,-0.000848,-0.000943,-0.002002,-0.000069
1.350000,-1.583840,-2.441443,0.597543,1.697000,0.273372,0.244128,0.813629,1.021427,0.254157,-4.038528,1.883953,-0.215336,-3.943967,-0.472817,-0.927929,0.999997,0.000591,0.002130,-0.000849,-0.000940,-0.001992,-0.000073
1.360000,-1.566830,-2.438658,0.599997,1.704934,0.283681,0.246659,0.773050,1.040242,0.251958,-4.076900,1.878856,-0.224612,-3.732468,-0.551610,-0.924421,0.999997,0.000587,0.002120,-0.000849,-0.000937,-0.001983,-0.000077
1.370000,-1.549743,-2.435769,0.602476,1.712460,0.294177,0.249167,0.732098,1.059002,0.249666,-4.113192,1.872874,-0.233799,-3.523507,-0.639937,-0.915516,0.999997,0.000582,0.002110,-0.000849,-0.000934,-0.001973,-0.000081
1.380000,-1.532582,-2.432774,0.604981,1.719575,0.304860,0.251652,0.690793,1.077697,0.247282,-4.147323,1.866161,-0.242978,-3.302533,-0.702399,-0.920273,0.999997,0.000577,0.002100,-0.000850,-0.000930,-0.001963,-0.000084
1.390000,-1.515352,-2.429671,0.607509,1.726275,0.315731,0.254112,0.649158,1.096322,0.244806,-4.179279,1.858727,-0.252150,-3.090579,-0.789480,-0.911415,0.999997,0.000573,0.002091,-0.000850,-0.000927,-0.001954,-0.000088
1.400000,-1.498058,-2.426459,0.610063,1.732557,0.326787,0.256547,0.607215,1.114869,0.242239,-4.209116,1.850409,-0.261227,-2.874244,-0.868514,-0.906815,0.999997,0.000568,0.002081,-0.000851,-0.000924,-0.001944,-0.000092
1.410000,-1.480703,-2.423135,0.612640,1.738418,0.338028,0.258957,0.564983,1.133328,0.239582,-4.236773,1.841336,-0.270278,-2.656943,-0.947366,-0.901964,0.999997,0.000563,0.002071,-0.000851,-0.000921,-0.001934,-0.000096
1.420000,-1.463291,-2.419697,0.615242,1.743856,0.349453,0.261339,0.522486,1.151693,0.236834,-4.262252,1.831450,-0.279253,-2.438740,-1.028476,-0.894320,0.999997,0.000559,0.002061,-0.000852,-0.000918,-0.001925,-0.000100
1.430000,-1.445827,-2.416145,0.617867,1.748867,0.361061,0.263693,0.479746,1.169955,0.233997,-4.285545,1.820792,-0.288191,-2.219747,-1.102998,-0.893305,0.999997,0.000554,0.002052,-0.000852,-0.000915,-0.001916,-0.000103
1.440000,-1.428315,-2.412476,0.620515,1.753450,0.372852,0.266018,0.436783,1.188106,0.231070,-4.306644,1.809366,-0.297092,-1.999844,-1.183533,-0.885420,0.999997,0.000550,0.002042,-0.000853,-0.000912,-0.001906,-0.000107
1.450000,-1.410759,-2.408687,0.623187,1.757602,0.384823,0.268314,0.393620,1.206139,0.228055,-4.325539,1.797133,-0.305910,-1.778895,-1.261767,-0.879552,0.999997,0.000545,0.002033,-0.000853,-0.000909,-0.001897,-0.000111
1.460000,-1.393164,-2.404778,0.625882,1.761322,0.396974,0.270579,0.350279,1.224046,0.224952,-4.342247,1.784118,-0.314669,-1.559446,-1.339992,-0.873165,0.999997,0.000540,0.002023,-0.000854,-0.000906,-0.001888,-0.000114
1.470000,-1.375534,-2.400747,0.628599,1.764607,0.409303,0.272813,0.306782,1.241819,0.221762,-4.356734,1.770344,-0.323382,-1.338076,-1.415868,-0.868363,0.999997,0.000536,0.002014,-0.000854,-0.000903,-0.001878,-0.000118
1.480000,-1.357874,-2.396592,0.631338,1.767457,0.421810,0.275014,0.263152,1.259450,0.218485,-4.369012,1.755779,-0.332015,-1.117610,-1.497072,-0.858338,0.999997,0.000531,0.002005,-0.000855,-0.000900,-0.001869,-0.000122
1.490000,-1.340187,-2.392310,0.634099,1.769870,0.434492,0.277182,0.219409,1.276932,0.215122,-4.379081,1.740426,-0.340566,-0.895892,-1.572408,-0.852742,0.999998,0.000527,0.001995,-0.000855,-0.000898,-0.001860,-0.000125
1.500000,-1.322478,-2.387901,0.636881,1.771845,0.447348,0.279316,0.175578,1.294256,0.211674,-4.386931,1.724317,-0.349063,-0.674485,-1.649703,-0.845436,0.999998,0.000522,0.001986,-0.000856,-0.000895,-0.001851,-0.000129
1.510000,-1.304751,-2.383363,0.639685,1.773381,0.460376,0.281415,0.131678,1.311416,0.208141,-4.392569,1.707437,-0.357480,-0.453141,-1.726293,-0.837844,0.999998,0.000518,0.001977,-0.000857,-0.000892,-0.001842,-0.000132
1.520000,-1.287012,-2.378693,0.642510,1.774478,0.473576,0.283479,0.087734,1.328402,0.204524,-4.395995,1.689793,-0.365819,-0.232007,-1.802508,-0.829976,0.999998,0.000513,0.001968,-0.000857,-0.000889,-0.001833,-0.000136
1.530000,-1.269263,-2.373891,0.645354,1.775136,0.486944,0.285506,0.043766,1.345209,0.200825,-4.397210,1.671389,-0.374079,-0.011002,-1.878227,-0.821925,0.999998,0.000509,0.001958,-0.000858,-0.000886,-0.001824,-0.000140
1.540000,-1.251510,-2.368954,0.648220,1.775353,0.500479,0.287495,-0.000203,1.361828,0.197043,-4.396217,1.652229,-0.382257,0.209553,-1.953560,-0.813545,0.999998,0.000505,0.001949,-0.000859,-0.000884,-0.001815,-0.000143
1.550000,-1.233758,-2.363881,0.651104,1.775132,0.514180,0.289446,-0.044151,1.378251,0.193180,-4.393022,1.632321,-0.390349,0.429530,-2.028292,-0.804959,0.999998,0.000500,0.001940,-0.000860,-0.000881,-0.001807,-0.000147
1.560000,-1.216009,-2.358670,0.654008,1.774471,0.528044,0.291358,-0.088056,1.394472,0.189236,-4.387628,1.611666,-0.398355,0.649013,-2.102545,-0.796121,0.999998,0.000496,0.001931,-0.000860,-0.000878,-0.001798,-0.000150
1.570000,-1.198270,-2.353319,0.656931,1.773371,0.542068,0.293231,-0.131897,1.410482,0.185213,-4.380044,1.590271,-0.406271,0.867691,-2.176251,-0.787052,0.999998,0.000491,0.001922,-0.000861,-0.000876,-0.001789,-0.000153
1.580000,-1.180543,-2.347828,0.659873,1.771833,0.556252,0.295062,-0.175650,1.426275,0.181111,-4.370276,1.568143,-0.414095,1.085903,-2.249340,-0.777750,0.999998,0.000487,0.001913,-0.000862,-0.000873,-0.001781,-0.000157
1.590000,-1.162834,-2.342194,0.662832,1.769858,0.570593,0.296853,-0.219295,1.441842,0.176931,-4.358331,1.545286,-0.421825,1.302909,-2.321874,-0.768273,0.999998,0.000483,0.001904,-0.000863,-0.000871,-0.001772,-0.000160
1.600000,-1.145148,-2.336415,0.665810,1.767448,0.585089,0.298601,-0.262809,1.457178,0.172675,-4.344220,1.521709,-0.429457,1.519047,-2.393657,-0.758370,0.999998,0.000478,0.001896,-0.000863,-0.000868,-0.001763,-0.000164
1.610000,-1.127487,-2.330491,0.668804,1.764602,0.599736,0.300306,-0.306172,1.472274,0.168343,-4.327953,1.497416,-0.436991,1.734074,-2.464803,-0.748342,0.999998,0.000474,0.001887,-0.000864,-0.000866,-0.001755,-0.000167
1.620000,-1.109857,-2.324420,0.671816,1.761325,0.614533,0.301967,-0.349361,1.487124,0.163935,-4.309543,1.472415,-0.444423,1.947774,-2.535227,-0.738107,0.999998,0.000470,0.001878,-0.000865,-0.000863,-0.001746,-0.000170
1.630000,-1.092262,-2.318200,0.674843,1.757616,0.629478,0.303584,-0.392356,1.501720,0.159455,-4.289001,1.446714,-0.451752,2.160490,-2.604935,-0.727586,0.999998,0.000465,0.001869,-0.000866,-0.000861,-0.001738,-0.000174
1.640000,-1.074706,-2.311830,0.677887,1.753478,0.644567,0.305156,-0.435134,1.516056,0.154901,-4.266339,1.420319,-0.458975,2.371475,-2.673878,-0.716900,0.999998,0.000461,0.001861,-0.000867,-0.000858,-0.001730,-0.000177
1.650000,-1.057194,-2.305308,0.680946,1.748914,0.659798,0.306682,-0.477676,1.530124,0.150275,-4.241575,1.393240,-0.466089,2.581071,-2.741924,-0.705952,0.999998,0.000457,0.001852,-0.000868,-0.000856,-0.001721,-0.000180
1.660000,-1.039729,-2.298634,0.684021,1.743926,0.675168,0.308161,-0.519959,1.543918,0.145579,-4.214723,1.365483,-0.473093,2.789036,-2.809190,-0.694789,0.999998,0.000452,0.001844,-0.000869,-0.000854,-0.001713,-0.000183
1.670000,-1.022317,-2.291805,0.687110,1.738516,0.690675,0.309593,-0.561963,1.557432,0.140814,-4.185801,1.337059,-0.479984,2.995167,-2.875530,-0.683489,0.999998,0.000448,0.001835,-0.000869,-0.000852,-0.001705,-0.000187
1.680000,-1.004960,-2.284820,0.690212,1.732687,0.706316,0.310978,-0.603668,1.570657,0.135980,-4.154825,1.307975,-0.486761,3.199791,-2.941164,-0.671730,0.999998,0.000444,0.001826,-0.000870,-0.000849,-0.001697,-0.000190
1.690000,-0.987664,-2.277678,0.693329,1.726443,0.722087,0.312313,-0.645053,1.583589,0.131079,-4.121813,1.278240,-0.493419,3.402269,-3.005733,-0.659974,0.999998,0.000440,0.001818,-0.000871,-0.000847,-0.001689,-0.000193
1.700000,-0.970433,-2.270378,0.696459,1.719787,0.737987,0.313599,-0.686097,1.596220,0.126112,-4.086785,1.247863,-0.499959,3.603009,-3.069431,-0.647930,0.999998,0.000435,0.001810,-0.000872,-0.000845,-0.001681,-0.000196
1.710000,-0.953270,-2.262918,0.699601,1.712723,0.754011,0.314835,-0.726782,1.608544,0.121080,-4.049770,1.216859,-0.506378,3.800847,-3.131822,-0.635753,0.999998,0.000431,0.001801,-0.000873,-0.000843,-0.001672,-0.000200
1.720000,-0.936180,-2.255297,0.702755,1.705253,0.770157,0.316020,-0.767086,1.620555,0.115985,-4.010779,1.185233,-0.512675,3.996847,-3.193278,-0.623484,0.999998,0.000427,0.001793,-0.000874,-0.000841,-0.001664,-0.000203
1.730000,-0.919166,-2.247514,0.705921,1.697382,0.786421,0.317154,-0.806991,1.632247,0.110827,-3.969840,1.152996,-0.518845,4.190563,-3.254022,-0.610516,0.999998,0.000423,0.001785,-0.000875,-0.000839,-0.001657,-0.000206
1.740000,-0.902233,-2.239568,0.709098,1.689115,0.802800,0.318237,-0.846477,1.643613,0.105608,-3.926977,1.120158,-0.524887,4.381718,-3.313372,-0.597776,0.999998,0.000418,0.001776,-0.000876,-0.000837,-0.001649,-0.000209
1.750000,-0.885385,-2.231458,0.712286,1.680454,0.819292,0.319266,-0.885524,1.654648,0.100330,-3.882213,1.086733,-0.530801,4.570438,-3.371637,-0.584806,0.999998,0.000414,0.001768,-0.000877,-0.000835,-0.001641,-0.000212
1.760000,-0.868626,-2.223182,0.715483,1.671406,0.835892,0.320243,-0.924115,1.665346,0.094993,-3.835577,1.052730,-0.536583,4.756411,-3.428784,-0.571572,0.999998,0.000410,0.001760,-0.000878,-0.000833,-0.001633,-0.000215
1.770000,-0.851958,-2.214740,0.718690,1.661974,0.852598,0.321166,-0.962230,1.675701,0.089599,-3.787093,1.018161,-0.542232,4.939884,-3.484806,-0.558229,0.999998,0.000406,0.001752,-0.000880,-0.000831,-0.001625,-0.000219
1.780000,-0.835387,-2.206130,0.721906,1.652163,0.869405,0.322035,-0.999851,1.685707,0.084149,-3.736792,0.983038,-0.547746,5.119748,-3.539450,-0.544473,0.999998,0.000402,0.001744,-0.000881,-0.000830,-0.001617,-0.000222
1.790000,-0.818916,-2.197351,0.725131,1.641978,0.886311,0.322849,-1.036960,1.695360,0.078644,-3.684705,0.947375,-0.553122,5.297353,-3.592990,-0.530751,0.999998,0.000398,0.001736,-0.000882,-0.000828,-0.001610,-0.000225
1.800000,-0.802549,-2.188403,0.728363,1.631425,0.903311,0.323608,-1.073539,1.704653,0.073087,-3.630857,0.911183,-0.558360,5.471591,-3.645227,-0.516785,0.999998,0.000393,0.001728,-0.000883,-0.000826,-0.001602,-0.000228
1.810000,-0.786289,-2.179285,0.731603,1.620509,0.920403,0.324310,-1.109571,1.713582,0.067477,-3.575285,0.874478,-0.563460,5.642626,-3.696085,-0.502685,0.999998,0.000389,0.001720,-0.000884,-0.000825,-0.001594,-0.000231
1.820000,-0.770140,-2.169995,0.734849,1.609236,0.937582,0.324957,-1.145039,1.722141,0.061818,-3.518011,0.837261,-0.568409,5.811173,-3.746579,-0.487606,0.999998,0.000385,0.001712,-0.000885,-0.000823,-0.001587,-0.000235
1.830000,-0.754106,-2.160533,0.738102,1.597610,0.954844,0.325547,-1.179926,1.730325,0.056110,-3.459082,0.799561,-0.573220,5.974135,-3.793071,-0.474515,0.999998,0.000381,0.001704,-0.000886,-0.000821,-0.001579,-0.000238
1.840000,-0.738189,-2.150898,0.741360,1.585639,0.972187,0.326079,-1.214215,1.738130,0.050354,-3.398532,0.761394,-0.577891,6.135670,-3.840659,-0.459134,0.999998,0.000377,0.001696,-0.000888,-0.000820,-0.001572,-0.000241
1.850000,-0.722394,-2.141089,0.744623,1.573328,0.989606,0.326553,-1.247891,1.745552,0.044552,-3.336383,0.722757,-0.582407,6.292996,-3.886010,-0.444396,0.999998,0.000373,0.001688,-0.000889,-0.000819,-0.001564,-0.000244
1.860000,-0.706724,-2.131105,0.747891,1.560684,1.007097,0.326970,-1.280938,1.752584,0.038706,-3.272684,0.683684,-0.586785,6.446542,-3.929756,-0.429568,0.999998,0.000369,0.001680,-0.000890,-0.000817,-0.001557,-0.000248
1.870000,-0.691181,-2.120947,0.751162,1.547712,1.024656,0.327327,-1.313340,1.759224,0.032817,-3.207460,0.644153,-0.590984,6.597196,-3.974844,-0.411684,0.999998,0.000365,0.001672,-0.000891,-0.000816,-0.001549,-0.000251
1.880000,-0.675770,-2.110612,0.754437,1.534419,1.042280,0.327626,-1.345082,1.765466,0.026887,-3.140763,0.604223,-0.595049,6.741497,-4.010802,-0.401409,0.999998,0.000361,0.001665,-0.000893,-0.000814,-0.001542,-0.000254
1.890000,-0.660494,-2.100101,0.757715,1.520812,1.059964,0.327865,-1.376150,1.771307,0.020917,-3.072634,0.563912,-0.598981,6.884169,-4.052536,-0.383410,0.999998,0.000357,0.001657,-0.000894,-0.000813,-0.001535,-0.000258
1.900000,-0.645355,-2.089413,0.760994,1.506898,1.077704,0.328044,-1.406530,1.776743,0.014908,-3.003098,0.523190,-0.602731,7.021940,-4.090294,-0.367891,0.999998,0.000352,0.001649,-0.000895,-0.000812,-0.001527,-0.000261
1.910000,-0.630357,-2.078547,0.764275,1.492684,1.095497,0.328163,-1.436207,1.781770,0.008863,-2.932204,0.482113,-0.606341,7.155608,-4.126380,-0.352203,0.999998,0.000348,0.001642,-0.000896,-0.000811,-0.001520,-0.000265
1.920000,-0.615502,-2.067502,0.767557,1.478176,1.113338,0.328221,-1.465170,1.786384,0.002782,-2.860005,0.440652,-0.609757,7.283997,-4.164047,-0.332782,0.999998,0.000344,0.001634,-0.000898,-0.000810,-0.001513,-0.000268
1.930000,-0.600794,-2.056280,0.770839,1.463383,1.131224,0.328219,-1.493403,1.790582,-0.003332,-2.786528,0.398872,-0.613034,7.410646,-4.191587,-0.322642,0.999998,0.000340,0.001627,-0.000899,-0.000809,-0.001506,-0.000272
1.940000,-0.586236,-2.044878,0.774121,1.448311,1.149149,0.328155,-1.520896,1.794360,-0.009478,-2.711817,0.356792,-0.616172,7.530198,-4.225739,-0.303082,0.999998,0.000336,0.001619,-0.000900,-0.000808,-0.001498,-0.000275
1.950000,-0.571829,-2.033297,0.777402,1.432968,1.167109,0.328029,-1.547636,1.797716,-0.015655,-2.635935,0.314377,-0.619110,7.645913,-4.255476,-0.286344,0.999998,0.000332,0.001612,-0.000902,-0.000807,-0.001491,-0.000279
1.960000,-0.557577,-2.021536,0.780682,1.417361,1.185102,0.327841,-1.573611,1.800647,-0.021859,-2.559050,0.271680,-0.621742,7.754558,-4.283707,-0.266384,0.999998,0.000328,0.001604,-0.000903,-0.000806,-0.001484,-0.000283
1.970000,-0.543483,-2.009594,0.783959,1.401498,1.203121,0.327592,-1.598811,1.803149,-0.028091,-2.480629,0.228708,-0.624684,7.904866,-4.310393,-0.296149,0.999998,0.000324,0.001597,-0.000905,-0.000805,-0.001477,-0.000287
1.980000,-0.529548,-1.997473,0.787233,1.385387,1.221163,0.327280,-1.623222,1.805220,-0.034351,-2.401476,0.185478,-0.627120,7.924021,-4.335187,-0.190154,0.999998,0.000320,0.001590,-0.000906,-0.000803,-0.001470,-0.000290
1.990000,-0.515776,-1.985171,0.790504,1.369036,1.239224,0.326905,-1.646839,1.806858,-0.040632,-2.321675,0.142009,-0.629012,8.059964,-4.358423,-0.214558,0.999998,0.000316,0.001582,-0.000908,-0.000802,-0.001463,-0.000294
2.000000,-0.502168,-1.972689,0.793771,1.352453,1.257299,0.326467,-1.669650,1.808059,-0.046933,-2.240498,0.098312,-0.631189,8.150074,-4.380264,-0.194696,0.999998,0.000312,0.001575,-0.000909,-0.000801,-0.001456,-0.000298
2.010000,-0.488727,-1.960025,0.797033,1.335646,1.275384,0.325966,-1.691651,1.808828,-0.053256,-2.159729,0.055508,-0.633415,8.213935,-4.378498,-0.184131,0.999998,0.000308,0.001568,-0.000911,-0.000800,-0.001449,-0.000302
2.020000,-0.475456,-1.947181,0.800290,1.318623,1.293474,0.325402,-1.712826,1.809154,-0.059595,-2.074290,0.008921,-0.634261,8.668769,-4.746592,-0.049548,0.999998,0.000304,0.001560,-0.000912,-0.000798,-0.001442,-0.000306
2.030000,-0.462356,-1.934156,0.803541,1.301392,1.311565,0.324774,-1.733145,1.809015,-0.065944,-1.990661,-0.035385,-0.635758,8.050213,-4.108749,-0.251956,0.999998,0.000300,0.001553,-0.000914,-0.000797,-0.001434,-0.000311
2.040000,-0.449429,-1.920950,0.806786,1.283963,1.329653,0.324083,-1.752648,1.808456,-0.072313,-1.909148,-0.077149,-0.637995,8.458928,-4.438308,-0.130340,0.999998,0.000296,0.001546,-0.000915,-0.000794,-0.001427,-0.000315
2.050000,-0.436677,-1.907563,0.810023,1.266342,1.347733,0.323328,-1.771309,1.807457,-0.078698,-1.823238,-0.122509,-0.638916,8.517123,-4.440609,-0.118433,0.999998,0.000292,0.001539,-0.000917,-0.000792,-0.001420,-0.000319
2.060000,-0.424103,-1.893995,0.813252,1.248539,1.365800,0.322509,-1.789102,1.805998,-0.085091,-1.734822,-0.169718,-0.639704,8.646381,-4.513339,-0.095589,0.999998,0.000288,0.001532,-0.000918,-0.000789,-0.001412,-0.000323
2.070000,-0.411707,-1.880247,0.816473,1.230563,1.383851,0.321626,-1.806044,1.804100,-0.091496,-1.655099,-0.208315,-0.641349,7.802991,-3.678250,-0.178174,0.999998,0.000284,0.001525,-0.000920,-0.000785,-0.001404,-0.000328
2.080000,-0.399492,-1.866318,0.819684,1.212421,1.401881,0.320679,-1.822176,1.801807,-0.097915,-1.568168,-0.253195,-0.642106,9.598657,-5.312656,0.028569,0.999998,0.000280,0.001518,-0.000922,-0.000782,-0.001397,-0.000332
2.090000,-0.387459,-1.852209,0.822886,1.194122,1.419886,0.319667,-1.837377,1.799009,-0.104334,-1.473347,-0.305020,-0.641892,8.855146,-4.575611,-0.041296,0.999998,0.000276,0.001511,-0.000923,-0.000779,-0.001389,-0.000337
2.100000,-0.375610,-1.837920,0.826077,1.175676,1.437860,0.318592,-1.851680,1.795742,-0.110756,-1.386753,-0.348745,-0.642456,8.970893,-4.644055,-0.016025,0.999998,0.000272,0.001504,-0.000925,-0.000776,-0.001382,-0.000341
2.110000,-0.363946,-1.823452,0.829258,1.157092,1.455799,0.317452,-1.865098,1.792023,-0.117180,-1.296906,-0.395083,-0.642164,9.042581,-4.672742,0.012829,0.999998,0.000269,0.001497,-0.000927,-0.000775,-0.001376,-0.000346
2.120000,-0.352468,-1.808805,0.832426,1.138378,1.473699,0.316248,-1.877612,1.787835,-0.123604,-1.205512,-0.442643,-0.642764,9.190804,-4.789599,-0.073179,0.999998,0.000265,0.001490,-0.000928,-0.000773,-0.001369,-0.000352
2.130000,-0.341179,-1.793978,0.835582,1.119543,1.491554,0.314980,-1.889209,1.783172,-0.130031,-1.114046,-0.489832,-0.642377,9.099223,-4.645513,0.152518,0.999998,0.000261,0.001483,-0.000930,-0.000773,-0.001363,-0.000357
2.140000,-0.330078,-1.778974,0.838726,1.100596,1.509361,0.313648,-1.899893,1.778041,-0.136447,-1.022674,-0.536509,-0.640923,9.217662,-4.737552,0.077872,0.999998,0.000257,0.001477,-0.000932,-0.000773,-0.001358,-0.000363
2.150000,-0.319167,-1.763791,0.841855,1.081548,1.527113,0.312251,-1.909657,1.772437,-0.142854,-0.930110,-0.584134,-0.640312,9.248538,-4.737000,0.104173,0.999998,0.000253,0.001470,-0.000934,-0.000772,-0.001352,-0.000368
2.160000,-0.308447,-1.748432,0.844970,1.062406,1.544808,0.310791,-1.918513,1.766376,-0.149254,-0.841454,-0.627698,-0.639884,9.190566,-4.654463,0.110897,0.999998,0.000249,0.001463,-0.000936,-0.000772,-0.001347,-0.000374
2.170000,-0.297919,-1.732895,0.848071,1.043181,1.562439,0.309266,-1.926431,1.759831,-0.155641,-0.739806,-0.683451,-0.636906,10.448320,-5.834902,0.358682,0.999998,0.000245,0.001456,-0.000938,-0.000772,-0.001342,-0.000381
2.180000,-0.287584,-1.717183,0.851156,1.023881,1.580003,0.307678,-1.933344,1.752741,-0.161998,-0.646985,-0.730518,-0.635355,8.092920,-3.556960,-0.052725,0.999998,0.000241,0.001450,-0.000939,-0.000771,-0.001337,-0.000387
2.190000,-0.277442,-1.701295,0.854224,1.004517,1.597493,0.306026,-1.939409,1.745258,-0.168354,-0.564036,-0.767926,-0.635418,9.191263,-4.590153,0.167037,0.999998,0.000238,0.001443,-0.000941,-0.000770,-0.001331,-0.000393
2.200000,-0.267494,-1.685233,0.857276,0.985096,1.614906,0.304311,-1.944572,1.737333,-0.174696,-0.469082,-0.816653,-0.633094,9.105615,-4.491649,0.171001,0.999998,0.000234,0.001436,-0.000943,-0.000769,-0.001326,-0.000400
2.210000,-0.257740,-1.668998,0.860310,0.965628,1.632238,0.302532,-1.948800,1.728933,-0.181018,-0.376214,-0.863417,-0.631146,9.102373,-4.478599,0.186374,0.999999,0.000230,0.001430,-0.000945,-0.000768,-0.001320,-0.000406
2.220000,-0.248181,-1.652589,0.863326,0.946123,1.649483,0.300691,-1.952126,1.720096,-0.187321,-0.290400,-0.902711,-0.629663,8.414881,-3.751743,0.141486,0.999999,0.000226,0.001423,-0.000947,-0.000766,-0.001315,-0.000413
2.230000,-0.238818,-1.636008,0.866324,0.926589,1.666639,0.298786,-1.954591,1.710862,-0.193609,-0.200473,-0.946255,-0.627659,9.581581,-4.969202,0.260360,0.999999,0.000222,0.001417,-0.000950,-0.000763,-0.001309,-0.000419
2.240000,-0.229650,-1.619256,0.869302,0.907034,1.683699,0.296819,-1.956118,1.701152,-0.199873,-0.105940,-0.994592,-0.625088,8.967026,-4.323730,0.222386,0.999999,0.000218,0.001410,-0.000952,-0.000761,-0.001304,-0.000426
2.250000,-0.220677,-1.602335,0.872260,0.887469,1.700660,0.294789,-1.956739,1.691000,-0.206113,-0.018091,-1.035922,-0.622943,8.959825,-4.316439,0.238204,0.999999,0.000215,0.001404,-0.000954,-0.000758,-0.001298,-0.000433
2.260000,-0.211900,-1.585244,0.875197,0.867902,1.717518,0.292696,-1.956469,1.680423,-0.212329,0.071952,-1.079636,-0.620261,8.942207,-4.301806,0.257066,0.999999,0.000211,0.001397,-0.000956,-0.000756,-0.001294,-0.000442
2.270000,-0.203319,-1.567985,0.878114,0.848343,1.734267,0.290542,-1.955309,1.669418,-0.218521,0.159775,-1.120815,-0.618180,8.725867,-4.055664,0.199236,0.999999,0.000207,0.001391,-0.000958,-0.000754,-0.001289,-0.000450
2.280000,-0.194933,-1.550559,0.881008,0.828799,1.750905,0.288326,-1.953270,1.658001,-0.224690,0.248642,-1.163305,-0.615436,9.050838,-4.446440,0.350935,0.999999,0.000203,0.001384,-0.000960,-0.000752,-0.001285,-0.000458
2.290000,-0.186743,-1.532967,0.883880,0.809280,1.767426,0.286049,-1.950331,1.646146,-0.230827,0.338701,-1.207294,-0.611970,8.856692,-4.229160,0.301942,0.999999,0.000199,0.001378,-0.000963,-0.000750,-0.001280,-0.000465
2.300000,-0.178748,-1.515210,0.886729,0.789796,1.783826,0.283710,-1.946504,1.633865,-0.236932,0.426663,-1.248931,-0.609056,8.839769,-4.220820,0.321318,0.999999,0.000196,0.001371,-0.000965,-0.000747,-0.001276,-0.000471
2.310000,-0.170947,-1.497291,0.889554,0.770353,1.800102,0.281310,-1.941863,1.621186,-0.242989,0.499651,-1.286203,-0.601839,8.513973,-4.109573,0.415660,0.999999,0.000192,0.001365,-0.000967,-0.000742,-0.001269,-0.000466
2.320000,-0.163340,-1.479209,0.892355,0.750961,1.816248,0.278850,-1.936298,1.608074,-0.249023,0.622330,-1.339192,-0.607250,13.351874,-5.639824,-0.813637,0.999999,0.000188,0.001359,-0.000970,-0.000737,-0.001263,-0.000465
2.330000,-0.155928,-1.460966,0.895131,0.731631,1.832261,0.276329,-1.929551,1.594446,-0.255100,0.710647,-1.381190,-0.603749,4.233341,-2.734951,1.533791,0.999999,0.000185,0.001352,-0.000972,-0.000735,-0.001260,-0.000472
2.340000,-0.148708,-1.442564,0.897881,0.712372,1.848136,0.273748,-1.922232,1.580497,-0.261060,0.761206,-1.411118,-0.590470,8.584943,-4.110622,0.428328,0.999999,0.000181,0.001346,-0.000975,-0.000735,-0.001259,-0.000490
2.350000,-0.141680,-1.424004,0.900605,0.693189,1.863870,0.271108,-1.914120,1.566158,-0.266962,0.859611,-1.456178,-0.589356,8.416360,-4.049466,0.480956,0.999999,0.000177,0.001340,-0.000977,-0.000737,-0.001262,-0.000517
2.360000,-0.134844,-1.405287,0.903303,0.674093,1.879458,0.268409,-1.904791,1.551269,-0.272906,1.015257,-1.525219,-0.601791,9.898002,-4.627923,0.130263,0.999999,0.000173,0.001333,-0.000980,-0.000749,-0.001276,-0.000591
2.370000,-0.128198,-1.386415,0.905973,0.655096,1.894894,0.265650,-1.894807,1.536051,-0.278757,0.939697,-1.501525,-0.558255,-12.567543,4.387592,5.567963,0.999999,0.000170,0.001327,-0.000983,-0.000759,-0.001287,-0.000651
2.380000,-0.121741,-1.367390,0.908616,0.636195,1.910180,0.262836,-1.885369,1.520988,-0.284223,1.025078,-1.541977,-0.553592,30.025719,-12.629091,-4.728128,0.999999,0.000166,0.001321,-0.000986,-0.000763,-0.001291,-0.000677
2.390000,-0.115473,-1.348212,0.911230,0.617397,1.925310,0.259965,-1.873614,1.504936,-0.289996,1.288283,-1.653227,-0.591911,10.038609,-4.584516,0.105036,0.999999,0.000162,0.001314,-0.000989,-0.000757,-0.001284,-0.000653
2.400000,-0.109393,-1.328884,0.913815,0.598726,1.940277,0.257035,-1.860553,1.488305,-0.295832,1.332094,-1.676152,-0.577192,11.218523,-4.999917,-0.183284,0.999999,0.000159,0.001308,-0.000991,-0.000739,-0.001263,-0.000566
2.410000,-0.103498,-1.309407,0.916371,0.580188,1.955076,0.254049,-1.847117,1.471530,-0.301519,1.342640,-1.672130,-0.557586,9.377070,-3.934634,0.194465,0.999999,0.000155,0.001302,-0.000992,-0.000693,-0.001208,-0.000338
2.420000,-0.097789,-1.289783,0.918896,0.561788,1.969705,0.251005,-1.832260,1.454107,-0.307288,1.689434,-1.844329,-0.609203,41.992087,-21.033104,-6.712211,0.999999,0.000152,0.001297,-0.000992,-0.000639,-0.001147,-0.000077
2.430000,-0.092262,-1.270014,0.921390,0.543555,1.984152,0.247901,-1.814232,1.435122,-0.313512,1.804840,-1.893956,-0.611938,-19.491181,11.409347,6.288840,0.999999,0.000149,0.001291,-0.000992,-0.000583,-0.001087,0.000182
2.440000,-0.086917,-1.250101,0.923854,0.525499,1.998410,0.244736,-1.797164,1.416756,-0.319316,1.662762,-1.807501,-0.560215,9.202320,-3.670216,0.222925,0.999999,0.000146,0.001285,-0.000992,-0.000532,-0.001038,0.000400
2.450000,-0.081752,-1.230046,0.926285,0.507613,2.012486,0.241515,-1.779614,1.398254,-0.325004,1.834739,-1.886278,-0.574851,7.111049,-2.566803,0.675835,0.999999,0.000143,0.001280,-0.000991,-0.000491,-0.001007,0.000544
2.460000,-0.076764,-1.209852,0.928684,0.489910,2.026374,0.238236,-1.760861,1.379162,-0.330697,1.916237,-1.934646,-0.562901,6.493014,-2.613456,0.970280,0.999999,0.000140,0.001274,-0.000990,-0.000480,-0.001022,0.000500
2.470000,-0.071953,-1.189519,0.931049,0.472398,2.040069,0.234901,-1.741528,1.359925,-0.336313,1.939936,-1.897322,-0.562312,0.882084,5.699018,-0.133735,0.999999,0.000138,0.001269,-0.000989,-0.000482,-0.001057,0.000379
2.480000,-0.067316,-1.169051,0.933382,0.455080,2.053574,0.231510,-1.721957,1.341008,-0.341901,1.989250,-1.912618,-0.550502,9.080865,-8.906362,2.513986,0.999999,0.000135,0.001263,-0.000988,-0.000491,-0.001104,0.000211
2.490000,-0.062850,-1.148448,0.935680,0.437962,2.066887,0.228064,-1.701621,1.321440,-0.347277,2.068911,-1.987312,-0.526730,4.226656,-1.634380,1.505934,0.999999,0.000133,0.001258,-0.000987,-0.000502,-0.001155,0.000030
2.500000,-0.058556,-1.127714,0.937943,0.421050,2.080002,0.224565,-1.680798,1.301602,-0.352486,2.096776,-1.983013,-0.514351,4.013641,-1.915471,1.687339,0.999999,0.000131,0.001252,-0.000986,-0.000509,-0.001202,-0.000129
2.510000,-0.054429,-1.106849,0.940171,0.404348,2.092918,0.221014,-1.659237,1.281515,-0.357671,2.226486,-2.039037,-0.526130,5.606758,-2.715692,1.189924,0.999999,0.000128,0.001246,-0.000986,-0.000495,-0.001221,-0.000163
2.520000,-0.050468,-1.085856,0.942363,0.387866,2.105631,0.217412,-1.637541,1.261328,-0.362600,2.058968,-1.976921,-0.442482,-23.230234,8.744183,10.447357,0.999999,0.000126,0.001240,-0.000986,-0.000474,-0.001227,-0.000146
2.530000,-0.046671,-1.064737,0.944519,0.371591,2.118147,0.213765,-1.617261,1.241651,-0.366776,2.095215,-1.998370,-0.424079,30.986073,-13.235518,-6.930197,0.999999,0.000124,0.001234,-0.000986,-0.000446,-0.001222,-0.000088
2.540000,-0.043035,-1.043494,0.946638,0.355529,2.130461,0.210075,-1.594757,1.221002,-0.371364,2.357924,-2.112377,-0.478259,5.543490,-3.112930,1.227100,0.999999,0.000122,0.001228,-0.000987,-0.000414,-0.001207,-0.000003
2.550000,-0.039559,-1.022129,0.948720,0.339699,2.142565,0.206338,-1.571311,1.199886,-0.375954,2.341982,-2.115277,-0.443143,7.221371,-3.887582,0.679072,0.999999,0.000120,0.001222,-0.000986,-0.000381,-0.001186,0.000091
2.560000,-0.036241,-1.000643,0.950765,0.324103,2.154458,0.202557,-1.547873,1.178746,-0.380279,2.336415,-2.107204,-0.420106,6.189013,-3.221532,0.818318,0.999999,0.000118,0.001217,-0.000986,-0.000356,-0.001168,0.000140
2.570000,-0.033077,-0.979040,0.952771,0.308744,2.166139,0.198733,-1.523437,1.157055,-0.384604,2.599222,-2.259857,-0.455345,32.250986,-18.823960,-4.841558,0.999999,0.000116,0.001211,-0.000985,-0.000332,-0.001149,0.000181
2.580000,-0.030065,-0.957321,0.954739,0.293644,2.177594,0.194863,-1.496583,1.133968,-0.389240,2.684968,-2.305553,-0.453434,-15.554653,9.957552,5.322086,0.999999,0.000114,0.001205,-0.000984,-0.000311,-0.001131,0.000212
2.590000,-0.027203,-0.935489,0.956668,0.278809,2.188820,0.190949,-1.470507,1.111409,-0.393510,2.573323,-2.232040,-0.409939,7.459764,-3.806767,0.330895,0.999999,0.000113,0.001199,-0.000983,-0.000291,-0.001114,0.000238
2.600000,-0.024488,-0.913546,0.958558,0.264235,2.199821,0.186994,-1.444030,1.088676,-0.397673,2.713101,-2.308962,-0.420851,6.294903,-3.046610,0.530463,0.999999,0.000111,0.001194,-0.000982,-0.000273,-0.001099,0.000263
2.610000,-0.021917,-0.891493,0.960408,0.249932,2.210592,0.182996,-1.416471,1.065350,-0.401839,2.801539,-2.358450,-0.411844,6.563998,-3.232786,0.624746,0.999999,0.000110,0.001188,-0.000981,-0.000252,-0.001086,0.000303
2.620000,-0.019488,-0.869335,0.962218,0.235908,2.221128,0.178957,-1.388382,1.041795,-0.405959,2.799960,-2.340342,-0.414279,-2.194441,3.341391,-0.480722,0.999999,0.000109,0.001183,-0.000979,-0.000231,-0.001075,0.000346
2.630000,-0.017198,-0.847072,0.963987,0.222164,2.231429,0.174877,-1.360245,1.018373,-0.410092,2.856022,-2.365381,-0.408219,13.552846,-8.459977,1.713651,0.999999,0.000108,0.001178,-0.000977,-0.000211,-0.001066,0.000391
2.640000,-0.015044,-0.824707,0.965715,0.208707,2.241493,0.170756,-1.331011,0.994299,-0.414087,2.976216,-2.438509,-0.392719,5.754652,-2.620394,0.751415,0.999999,0.000107,0.001172,-0.000975,-0.000191,-0.001057,0.000436
2.650000,-0.013023,-0.802243,0.967402,0.195546,2.251314,0.166595,-1.301087,0.969877,-0.417992,3.011245,-2.447898,-0.387795,5.963954,-2.791361,0.866238,0.999999,0.000106,0.001167,-0.000973,-0.000173,-0.001050,0.000480
2.660000,-0.011132,-0.779681,0.969047,0.182687,2.260889,0.162396,-1.270718,0.945282,-0.421846,3.061353,-2.470469,-0.383484,5.674420,-2.631325,0.843104,0.999999,0.000105,0.001162,-0.000970,-0.000156,-0.001042,0.000517
2.670000,-0.009368,-0.757026,0.970650,0.170134,2.270218,0.158159,-1.239739,0.920400,-0.425594,3.139575,-2.508874,-0.363147,8.395013,-4.166197,2.400568,0.999999,0.000104,0.001157,-0.000968,-0.000141,-0.001034,0.000550
2.680000,-0.007728,-0.734278,0.972210,0.157894,2.279296,0.153885,-1.208010,0.895151,-0.429149,3.196194,-2.535249,-0.352770,2.877270,-1.080659,-0.351813,0.999999,0.000103,0.001151,-0.000965,-0.000128,-0.001026,0.000579
2.690000,-0.006209,-0.711441,0.973727,0.145975,2.288121,0.149576,-1.175907,0.869746,-0.432693,3.228879,-2.548333,-0.353552,5.244766,-2.426809,1.025230,0.999999,0.000103,0.001146,-0.000962,-0.000115,-0.001018,0.000605
2.700000,-0.004808,-0.688516,0.975201,0.134378,2.296690,0.145231,-1.143318,0.844120,-0.436155,3.287585,-2.576220,-0.339337,4.913434,-2.262381,0.988970,0.999999,0.000102,0.001141,-0.000959,-0.000104,-0.001011,0.000626
2.710000,-0.003521,-0.665508,0.976632,0.123110,2.305002,0.140853,-1.110224,0.818240,-0.439503,3.330230,-2.599588,-0.330310,4.574493,-2.182229,0.983328,0.999999,0.000102,0.001136,-0.000956,-0.000093,-0.001004,0.000644
2.720000,-0.002344,-0.642417,0.978018,0.112175,2.313054,0.136441,-1.076647,0.792149,-0.442748,3.387912,-2.617763,-0.318139,6.033411,-1.676304,1.288030,0.999999,0.000101,0.001131,-0.000953,-0.000083,-0.000998,0.000659
2.730000,-0.001276,-0.619247,0.979361,0.101579,2.320845,0.131998,-1.042519,0.765877,-0.445874,3.431411,-2.637808,-0.307965,2.640196,-2.340358,0.741607,0.999999,0.000101,0.001126,-0.000949,-0.000075,-0.000991,0.000671
2.740000,-0.000312,-0.596001,0.980658,0.091326,2.328371,0.127524,-1.008077,0.739384,-0.448916,3.459609,-2.660080,-0.300023,3.943044,-1.890076,1.010663,0.999999,0.000101,0.001121,-0.000946,-0.000067,-0.000984,0.000679
2.750000,0.000552,-0.572681,0.981911,0.081419,2.335632,0.123020,-0.973262,0.712696,-0.451861,3.502401,-2.677540,-0.289141,3.685140,-1.827069,1.002475,0.999999,0.000100,0.001116,-0.000943,-0.000061,-0.000978,0.000684
2.760000,0.001318,-0.549289,0.983118,0.071862,2.342625,0.118487,-0.937952,0.685817,-0.454695,3.562290,-2.698416,-0.277381,3.999632,-1.814765,1.040523,0.999999,0.000100,0.001111,-0.000939,-0.000056,-0.000971,0.000684
2.770000,0.001990,-0.525829,0.984281,0.062661,2.349348,0.113927,-0.902355,0.658771,-0.457433,3.542946,-2.708935,-0.271170,-3.693343,-0.808037,0.501986,0.999999,0.000100,0.001107,-0.000936,-0.000052,-0.000964,0.000685
2.780000,0.002572,-0.502303,0.985397,0.053814,2.355800,0.109339,-0.866888,0.631615,-0.460103,3.576066,-2.725471,-0.261036,10.449893,-2.515814,1.534310,0.999999,0.000099,0.001102,-0.000932,-0.000048,-0.000958,0.000688
2.790000,0.003068,-0.478714,0.986467,0.045326,2.361979,0.104725,-0.830606,0.604235,-0.462637,3.667580,-2.748766,-0.246552,3.641640,-1.619603,1.059804,0.999999,0.000099,0.001097,-0.000929,-0.000044,-0.000953,0.000695
2.800000,0.003480,-0.455065,0.987491,0.037204,2.367884,0.100087,-0.793858,0.576681,-0.465057,3.684627,-2.762303,-0.237267,3.962607,-1.609136,1.099139,0.999999,0.000099,0.001092,-0.000925,-0.000039,-0.000949,0.000707
2.810000,0.003813,-0.431357,0.988469,0.029450,2.373512,0.095424,-0.756873,0.548988,-0.467374,3.710662,-2.775973,-0.226231,3.716753,-1.518144,1.117559,0.999999,0.000099,0.001088,-0.000921,-0.000033,-0.000948,0.000731
2.820000,0.004070,-0.407595,0.989400,0.022067,2.378863,0.090739,-0.719452,0.521133,-0.469580,3.781649,-2.796274,-0.214829,8.071708,-2.158985,1.153214,0.999999,0.000099,0.001083,-0.000918,-0.000026,-0.000948,0.000759
2.830000,0.004255,-0.383781,0.990284,0.015063,2.383934,0.086033,-0.681362,0.493083,-0.471671,3.821517,-2.811114,-0.203372,-0.178838,-0.796369,1.137477,0.999999,0.000099,0.001078,-0.000914,-0.000020,-0.000949,0.000787
2.840000,0.004373,-0.359918,0.991120,0.008440,2.388724,0.081306,-0.643157,0.464933,-0.473648,3.826583,-2.819915,-0.191893,3.612732,-1.348767,1.167541,0.999999,0.000098,0.001073,-0.000910,-0.000013,-0.000950,0.000813
2.850000,0.004426,-0.336008,0.991910,0.002201,2.393232,0.076561,-0.604650,0.436658,-0.475508,3.873050,-2.834798,-0.180112,3.256023,-1.242485,1.178761,0.999999,0.000098,0.001069,-0.000906,-0.000008,-0.000950,0.000834
2.860000,0.004418,-0.312054,0.992651,-0.003651,2.397457,0.071797,-0.565820,0.408257,-0.477255,3.890830,-2.845094,-0.169422,2.750987,-1.122628,1.164986,0.999999,0.000098,0.001064,-0.000902,-0.000004,-0.000948,0.000842
2.870000,0.004354,-0.288059,0.993346,-0.009114,2.401397,0.067016,-0.526651,0.379735,-0.478880,3.950586,-2.860061,-0.154922,6.814977,-1.572906,1.534459,0.999999,0.000098,0.001059,-0.000898,-0.000002,-0.000946,0.000842
2.880000,0.004237,-0.264027,0.993992,-0.014182,2.405051,0.062220,-0.486936,0.351073,-0.480363,3.977068,-2.870303,-0.142943,-1.594105,-0.466136,0.854878,0.999999,0.000098,0.001054,-0.000894,0.000000,-0.000942,0.000837
2.890000,0.004072,-0.239959,0.994590,-0.018853,2.408418,0.057409,-0.447250,0.322349,-0.481750,3.966904,-2.875400,-0.133780,1.967742,-0.853613,1.179617,0.999999,0.000098,0.001050,-0.000889,0.000001,-0.000938,0.000829
2.900000,0.003861,-0.215859,0.995140,-0.023127,2.411498,0.052585,-0.407425,0.293546,-0.483023,3.996042,-2.884832,-0.121070,1.465405,-0.733868,1.160910,0.999999,0.000098,0.001045,-0.000885,0.000002,-0.000933,0.000820
2.910000,0.003610,-0.191730,0.995642,-0.027001,2.414289,0.047749,-0.367315,0.264652,-0.484173,4.027867,-2.894118,-0.108814,1.515525,-0.684818,1.168833,0.999999,0.000098,0.001040,-0.000881,0.000003,-0.000930,0.000815
2.920000,0.003323,-0.167575,0.996095,-0.030473,2.416791,0.042902,-0.327141,0.235701,-0.485209,3.995262,-2.894494,-0.098802,-4.744855,0.182632,0.950874,0.999999,0.000098,0.001036,-0.000877,0.000004,-0.000926,0.000811
2.930000,0.003002,-0.143395,0.996500,-0.033545,2.419003,0.038045,-0.287254,0.206744,-0.486143,4.002072,-2.899429,-0.087335,6.212706,-1.183246,1.346205,0.999999,0.000098,0.001031,-0.000873,0.000005,-0.000922,0.000808
2.940000,0.002653,-0.119196,0.996856,-0.036216,2.420925,0.033179,-0.246927,0.177692,-0.486949,4.053058,-2.909539,-0.074248,0.667557,-0.408621,1.152961,0.999999,0.000098,0.001026,-0.000869,0.000006,-0.000917,0.000806
2.950000,0.002279,-0.094978,0.997163,-0.038483,2.422557,0.028306,-0.206452,0.148588,-0.487637,4.043640,-2.911261,-0.063270,0.758543,-0.365110,1.160506,0.999999,0.000098,0.001022,-0.000865,0.000007,-0.000913,0.000805
2.960000,0.001885,-0.070745,0.997422,-0.040345,2.423897,0.023427,-0.166007,0.119462,-0.488212,4.044453,-2.913754,-0.051642,0.516874,-0.278448,1.161086,0.999999,0.000098,0.001017,-0.000861,0.000007,-0.000909,0.000802
2.970000,0.001474,-0.046501,0.997632,-0.041803,2.424946,0.018543,-0.125481,0.090304,-0.488671,4.064214,-2.918165,-0.040086,2.355284,-0.462964,1.154141,0.999999,0.000098,0.001013,-0.000857,0.000007,-0.000904,0.000799
2.980000,0.001050,-0.022247,0.997793,-0.042854,2.425703,0.013654,-0.084781,0.061108,-0.489013,4.068877,-2.920058,-0.028477,-1.456750,0.088772,1.167763,0.999999,0.000099,0.001008,-0.000853,0.000007,-0.000899,0.000796
2.990000,0.000618,0.002012,0.997905,-0.043499,2.426168,0.008763,-0.044167,0.031913,-0.489240,4.056922,-2.919236,-0.016810,0.155781,-0.066569,1.161705,0.999999,0.000099,0.001004,-0.000849,0.000007,-0.000895,0.000793
3.000000,0.000181,0.026275,0.997968,-0.043738,2.426341,0.003870,-0.003564,0.002715,-0.489350,4.062730,-2.920182,-0.005213,-0.081186,0.018962,1.162020,0.999999,0.000099,0.000999,-0.000845,0.000007,-0.000890,0.000790
3.010000,-0.000255,0.050538,0.997982,-0.043570,2.426222,-0.001024,0.037057,-0.026485,-0.489344,4.061197,-2.919695,0.006450,-0.246529,0.093614,1.162946,0.999999,0.000099,0.000995,-0.000841,0.000006,-0.000885,0.000786
3.020000,-0.000689,0.074798,0.997947,-0.042997,2.425812,-0.005917,0.077653,-0.055675,-0.489222,4.057605,-2.918172,0.017977,-0.451261,0.196318,1.149758,0.999999,0.000099,0.000991,-0.000837,0.000005,-0.000881,0.000783
3.030000,-0.001114,0.099053,0.997864,-0.042017,2.425109,-0.010808,0.118204,-0.084847,-0.488984,4.052606,-2.916077,0.029596,-0.547903,0.222192,1.174148,0.999999,0.000099,0.000986,-0.000833,0.000005,-0.000876,0.000779
3.040000,-0.001528,0.123300,0.997731,-0.040633,2.424115,-0.015696,0.158700,-0.113995,-0.488629,4.046232,-2.913432,0.041313,-0.747677,0.321587,1.161922,0.999999,0.000099,0.000982,-0.000829,0.000004,-0.000872,0.000775
3.050000,-0.001925,0.147535,0.997550,-0.038844,2.422829,-0.020580,0.199122,-0.143111,-0.488158,4.037830,-2.909771,0.052893,-0.911813,0.395830,1.161516,0.999999,0.000099,0.000977,-0.000825,0.000003,-0.000868,0.000771
3.060000,-0.002303,0.171755,0.997320,-0.036651,2.421253,-0.025459,0.239451,-0.172187,-0.487572,4.027698,-2.905199,0.064274,-1.080612,0.475689,1.155734,0.999999,0.000099,0.000973,-0.000822,0.000001,-0.000864,0.000767
3.070000,-0.002657,0.195959,0.997041,-0.034055,2.419386,-0.030331,0.279673,-0.201216,-0.486870,4.016532,-2.900652,0.076384,-1.185309,0.475157,1.226335,0.999999,0.000099,0.000969,-0.000818,-0.000000,-0.000860,0.000763
3.080000,-0.002983,0.220142,0.996713,-0.031058,2.417228,-0.035196,0.319775,-0.230196,-0.486047,4.003302,-2.894823,0.087964,-1.461742,0.692004,1.088307,0.999999,0.000099,0.000964,-0.000814,-0.000002,-0.000857,0.000759
3.090000,-0.003277,0.244302,0.996337,-0.027660,2.414782,-0.040052,0.359732,-0.259108,-0.485113,3.987968,-2.887656,0.098956,-1.571558,0.699184,1.150308,0.999999,0.000099,0.000960,-0.000810,-0.000004,-0.000854,0.000755
3.100000,-0.003535,0.268437,0.995912,-0.023863,2.412047,-0.044898,0.399531,-0.287949,-0.484065,3.971592,-2.880484,0.110628,-1.736661,0.776921,1.144144,0.999999,0.000099,0.000956,-0.000806,-0.000006,-0.000851,0.000751
3.110000,-0.003753,0.292542,0.995439,-0.019670,2.409023,-0.049733,0.439158,-0.316714,-0.482901,3.953481,-2.872241,0.122009,-1.896977,0.853053,1.139890,0.999999,0.000099,0.000952,-0.000803,-0.000008,-0.000848,0.000746
3.120000,-0.003927,0.316616,0.994917,-0.015081,2.405713,-0.054555,0.478594,-0.345393,-0.481624,3.933549,-2.863597,0.133499,-2.077670,0.893351,1.150587,0.999999,0.000099,0.000947,-0.000799,-0.000010,-0.000845,0.000742
3.130000,-0.004053,0.340656,0.994348,-0.010099,2.402116,-0.059365,0.517824,-0.373982,-0.480232,3.912172,-2.854002,0.144864,-2.197188,1.026091,1.122326,0.999999,0.000099,0.000943,-0.000795,-0.000013,-0.000843,0.000737
3.140000,-0.004128,0.364658,0.993730,-0.004725,2.398233,-0.064160,0.556833,-0.402470,-0.478727,3.889382,-2.843445,0.156101,-2.372019,1.066827,1.132751,0.999999,0.000098,0.000939,-0.000792,-0.000016,-0.000841,0.000732
3.150000,-0.004146,0.388619,0.993065,0.001037,2.394067,-0.068939,0.595606,-0.430850,-0.477109,3.864836,-2.832518,0.167457,-2.525420,1.136248,1.131101,0.999999,0.000098,0.000935,-0.000788,-0.000019,-0.000839,0.000728
3.160000,-0.004106,0.412538,0.992351,0.007186,2.389617,-0.073702,0.634130,-0.459123,-0.475374,3.839850,-2.822135,0.179800,-2.657093,1.176145,1.151684,0.999999,0.000098,0.000931,-0.000784,-0.000022,-0.000838,0.000723
3.170000,-0.004001,0.436411,0.991591,0.013719,2.384884,-0.078446,0.672383,-0.487273,-0.473528,3.809991,-2.806831,0.188787,-3.134405,1.655567,0.825626,0.999999,0.000098,0.000926,-0.000781,-0.000026,-0.000837,0.000718
3.180000,-0.003830,0.460235,0.990783,0.020633,2.379872,-0.083172,0.710333,-0.515269,-0.471589,3.780945,-2.793831,0.200092,-2.669144,0.937120,1.441085,0.999999,0.000098,0.000922,-0.000777,-0.000030,-0.000836,0.000713
3.190000,-0.003587,0.484007,0.989927,0.027925,2.374579,-0.087877,0.748007,-0.543160,-0.469516,3.752964,-2.783458,0.213963,-3.108843,1.368764,1.150989,0.999999,0.000098,0.000918,-0.000774,-0.000033,-0.000836,0.000708
3.200000,-0.003270,0.507725,0.989025,0.035592,2.369009,-0.092562,0.785374,-0.570919,-0.467323,3.720308,-2.768414,0.224648,-3.241404,1.409906,1.167006,0.999999,0.000098,0.000914,-0.000770,-0.000037,-0.000837,0.000703
3.210000,-0.002874,0.531386,0.988076,0.043631,2.363162,-0.097224,0.822410,-0.598528,-0.465022,3.686508,-2.753184,0.235413,-3.400592,1.484773,1.150631,0.999999,0.000097,0.000910,-0.000767,-0.000041,-0.000838,0.000699
3.220000,-0.002396,0.554988,0.987081,0.052039,2.357039,-0.101862,0.859108,-0.625992,-0.462602,3.653378,-2.740106,0.249169,-3.340734,1.278513,1.439901,0.999999,0.000097,0.000905,-0.000763,-0.000045,-0.000840,0.000694
3.230000,-0.001832,0.578526,0.986039,0.060812,2.350642,-0.106475,0.895466,-0.653321,-0.460047,3.617271,-2.724511,0.260839,-3.884716,1.845623,0.888667,0.999999,0.000097,0.000901,-0.000760,-0.000049,-0.000842,0.000689
3.240000,-0.001179,0.602000,0.984951,0.069947,2.343973,-0.111062,0.931442,-0.680472,-0.457395,3.577999,-2.706163,0.270172,-3.854203,1.675831,1.139008,0.999999,0.000097,0.000897,-0.000756,-0.000053,-0.000843,0.000685
3.250000,-0.000432,0.625405,0.983818,0.079440,2.337033,-0.115623,0.967030,-0.707453,-0.454632,3.539191,-2.689721,0.282240,-4.023506,1.761404,1.112728,0.999999,0.000096,0.000893,-0.000753,-0.000057,-0.000843,0.000680
3.260000,0.000411,0.648739,0.982639,0.089286,2.329825,-0.120155,1.002210,-0.734255,-0.451757,3.496392,-2.670344,0.292507,-4.223089,1.867841,1.078874,0.999999,0.000096,0.000889,-0.000749,-0.000060,-0.000841,0.000676
3.270000,0.001355,0.672000,0.981415,0.099482,2.322349,-0.124657,1.036977,-0.760876,-0.448772,3.457609,-2.654625,0.305085,-3.838013,1.515545,1.302134,0.999999,0.000096,0.000884,-0.000746,-0.000064,-0.000838,0.000672
3.280000,0.002402,0.695185,0.980146,0.110024,2.314608,-0.129130,1.071342,-0.787332,-0.445663,3.413237,-2.635006,0.315725,-5.045968,2.415803,0.821577,0.999999,0.000096,0.000880,-0.000743,-0.000067,-0.000833,0.000668
3.290000,0.003556,0.718292,0.978832,0.120908,2.306603,-0.133570,1.105219,-0.813560,-0.442465,3.362851,-2.611148,0.324234,-4.723696,2.114212,1.015762,0.999999,0.000095,0.000876,-0.000739,-0.000070,-0.000828,0.000665
3.300000,0.004821,0.741317,0.977475,0.132127,2.298337,-0.137979,1.138616,-0.839571,-0.439169,3.316161,-2.590672,0.334891,-4.920218,2.221157,0.980593,0.999999,0.000095,0.000872,-0.000736,-0.000073,-0.000822,0.000661
3.310000,0.006200,0.764258,0.976073,0.143678,2.289812,-0.142353,1.171533,-0.865369,-0.435767,3.266892,-2.568964,0.345536,-5.077388,2.291431,0.974636,0.999999,0.000095,0.000868,-0.000733,-0.000075,-0.000815,0.000657
3.320000,0.007696,0.787112,0.974628,0.155556,2.281030,-0.146694,1.203937,-0.890934,-0.432273,3.213299,-2.543276,0.352787,-5.500114,2.679292,0.644744,0.999999,0.000094,0.000864,-0.000729,-0.000078,-0.000808,0.000654
3.330000,0.009312,0.809877,0.973139,0.167755,2.271994,-0.150999,1.235800,-0.916240,-0.428704,3.159854,-2.518880,0.361982,-5.183396,2.194228,1.199830,0.999999,0.000094,0.000860,-0.000726,-0.000080,-0.000801,0.000651
3.340000,0.011052,0.832551,0.971608,0.180270,2.262706,-0.155267,1.267137,-0.941318,-0.425024,3.106813,-2.496039,0.373371,-5.565333,2.541213,0.907731,0.999999,0.000093,0.000856,-0.000723,-0.000081,-0.000794,0.000648
3.350000,0.012919,0.855131,0.970034,0.193096,2.253169,-0.159499,1.297921,-0.966146,-0.421250,3.049773,-2.469495,0.381589,-5.700225,2.599877,0.905989,0.999999,0.000093,0.000852,-0.000720,-0.000083,-0.000786,0.000644
3.360000,0.014915,0.877614,0.968418,0.206227,2.243384,-0.163692,1.328139,-0.990713,-0.417389,2.993998,-2.444014,0.390694,-5.798798,2.648748,0.896451,0.999999,0.000093,0.000848,-0.000716,-0.000084,-0.000780,0.000641
3.370000,0.017044,0.899998,0.966760,0.219657,2.233356,-0.167846,1.357769,-1.015012,-0.413438,2.930645,-2.415121,0.399349,-6.535926,2.980723,0.852823,0.999999,0.000092,0.000844,-0.000713,-0.000086,-0.000773,0.000638
3.380000,0.019309,0.922280,0.965061,0.233380,2.223085,-0.171961,1.386765,-1.039021,-0.409401,2.870327,-2.387529,0.408132,-5.516507,2.532799,0.904362,0.999999,0.000092,0.000840,-0.000710,-0.000087,-0.000767,0.000635
3.390000,0.021713,0.944458,0.963321,0.247390,2.212576,-0.176034,1.415190,-1.062769,-0.405275,2.813558,-2.361467,0.417072,-6.174532,2.829187,0.865438,0.999999,0.000091,0.000836,-0.000707,-0.000087,-0.000761,0.000632
3.400000,0.024258,0.966531,0.961541,0.261682,2.201831,-0.180066,1.443007,-1.086237,-0.401061,2.749717,-2.332224,0.425597,-6.256388,2.869657,0.857776,0.999999,0.000091,0.000833,-0.000704,-0.000088,-0.000756,0.000629
3.410000,0.026947,0.988494,0.959720,0.276248,2.190852,-0.184055,1.470187,-1.109415,-0.396763,2.686222,-2.303272,0.433960,-6.366287,2.919214,0.845045,0.999999,0.000090,0.000829,-0.000701,-0.000088,-0.000751,0.000626
3.420000,0.029784,1.010347,0.957860,0.291084,2.179643,-0.188001,1.496734,-1.132301,-0.392380,2.623093,-2.273847,0.442765,-6.333108,2.966713,0.887379,0.999999,0.000090,0.000825,-0.000698,-0.000088,-0.000746,0.000623
3.430000,0.032770,1.032086,0.955960,0.306181,2.168207,-0.191902,1.522642,-1.154890,-0.387910,2.558011,-2.243919,0.451109,-6.685737,3.018980,0.780397,0.999999,0.000089,0.000821,-0.000694,-0.000088,-0.000742,0.000621
3.440000,0.035908,1.053710,0.954022,0.321534,2.156547,-0.195759,1.547886,-1.177178,-0.383360,2.490869,-2.213481,0.458948,-6.668309,3.067915,0.816301,0.999999,0.000089,0.000818,-0.000691,-0.000088,-0.000738,0.000618
3.450000,0.039201,1.075217,0.952045,0.337137,2.144665,-0.199569,1.572462,-1.199158,-0.378729,2.424008,-2.182550,0.467188,-6.778521,3.119682,0.802995,0.999999,0.000089,0.000814,-0.000688,-0.000087,-0.000734,0.000615
3.460000,0.042652,1.096603,0.950031,0.352981,2.132564,-0.203333,1.596357,-1.220825,-0.374018,2.354655,-2.150624,0.475019,-6.906450,3.182611,0.788373,0.999999,0.000088,0.000810,-0.000685,-0.000086,-0.000730,0.000612
3.470000,0.046262,1.117867,0.947979,0.369061,2.120249,-0.207049,1.619566,-1.242175,-0.369227,2.287584,-2.119656,0.483188,-6.688524,3.092072,0.820760,0.999999,0.000088,0.000807,-0.000682,-0.000085,-0.000725,0.000609
3.480000,0.050034,1.139007,0.945890,0.385370,2.107722,-0.210717,1.642096,-1.263212,-0.364356,2.217089,-2.087078,0.490917,-7.416344,3.426477,0.724409,0.999999,0.000087,0.000803,-0.000679,-0.000084,-0.000721,0.000607
3.490000,0.053970,1.160021,0.943764,0.401901,2.094986,-0.214336,1.663894,-1.283910,-0.359410,2.142902,-2.052753,0.498172,-7.238987,3.357439,0.751384,0.999999,0.000087,0.000800,-0.000676,-0.000082,-0.000716,0.000604
3.500000,0.058072,1.180906,0.941603,0.418646,2.082045,-0.217905,1.684964,-1.304271,-0.354391,2.070758,-2.019225,0.505730,-7.371772,3.429536,0.735872,0.999999,0.000087,0.000796,-0.000673,-0.000080,-0.000710,0.000602
3.510000,0.062343,1.201661,0.939406,0.435598,2.068902,-0.221424,1.705292,-1.324284,-0.349296,1.994489,-1.982959,0.513228,-7.532214,3.531146,0.726205,0.999999,0.000086,0.000792,-0.000670,-0.000079,-0.000705,0.000599
3.520000,0.066785,1.222284,0.937175,0.452749,2.055560,-0.224891,1.724876,-1.343951,-0.344130,1.923334,-1.951292,0.519910,-7.037811,3.086583,0.646494,0.999999,0.000086,0.000789,-0.000667,-0.000077,-0.000698,0.000597
3.530000,0.071399,1.242772,0.934909,0.470093,2.042024,-0.228306,1.743738,-1.363293,-0.338896,1.846619,-1.915260,0.526919,-8.315172,4.128641,0.756404,0.999999,0.000085,0.000785,-0.000664,-0.000075,-0.000691,0.000594
3.540000,0.076188,1.263123,0.932609,0.487621,2.028296,-0.231669,1.761786,-1.382238,-0.333590,1.763911,-1.874472,0.534303,-7.882867,3.741689,0.683708,0.999999,0.000085,0.000782,-0.000661,-0.000073,-0.000682,0.000592
3.550000,0.081152,1.283337,0.930276,0.505326,2.014380,-0.234978,1.779038,-1.400802,-0.328214,1.686076,-1.837998,0.540901,-8.024100,3.838472,0.672533,0.999999,0.000085,0.000779,-0.000658,-0.000070,-0.000672,0.000589
3.560000,0.086295,1.303410,0.927910,0.523199,2.000281,-0.238233,1.795495,-1.418988,-0.322769,1.605145,-1.799206,0.548124,-8.136618,3.913236,0.669693,0.999999,0.000084,0.000775,-0.000655,-0.000068,-0.000660,0.000585
3.570000,0.091617,1.323342,0.925511,0.541233,1.986002,-0.241433,1.811139,-1.436784,-0.317260,1.523603,-1.759805,0.553351,-8.192773,3.971494,0.474634,0.999999,0.000084,0.000772,-0.000652,-0.000066,-0.000647,0.000581
3.580000,0.097120,1.343130,0.923081,0.559419,1.971547,-0.244578,1.825963,-1.454182,-0.311697,1.440851,-1.719686,0.559692,-8.355717,4.051185,0.796193,0.999999,0.000084,0.000769,-0.000649,-0.000064,-0.000634,0.000577
3.590000,0.102805,1.362772,0.920620,0.577749,1.956920,-0.247666,1.839953,-1.471175,-0.306061,1.357010,-1.678922,0.567262,-8.386322,4.094382,0.617232,0.999999,0.000083,0.000766,-0.000647,-0.000061,-0.000620,0.000572
3.600000,0.108675,1.382268,0.918128,0.596215,1.942125,-0.250699,1.853103,-1.487759,-0.300360,1.272988,-1.637784,0.572877,-8.437970,4.136861,0.604901,0.999999,0.000083,0.000763,-0.000644,-0.000058,-0.000606,0.000567
3.610000,0.114730,1.401614,0.915606,0.614809,1.927166,-0.253673,1.865438,-1.503919,-0.294608,1.194760,-1.593902,0.577462,-8.342538,4.213676,0.555446,1.000000,0.000083,0.000760,-0.000641,-0.000055,-0.000592,0.000565
3.620000,0.120972,1.420810,0.913055,0.633521,1.912048,-0.256591,1.876909,-1.519669,-0.288793,1.095727,-1.557457,0.586219,-10.357231,3.483529,0.958710,1.000000,0.000082,0.000757,-0.000638,-0.000052,-0.000580,0.000560
3.630000,0.127401,1.439855,0.910474,0.652344,1.896774,-0.259449,1.887408,-1.535048,-0.282896,1.010849,-1.515666,0.591656,-6.581635,4.884052,0.120719,1.000000,0.000082,0.000754,-0.000635,-0.000049,-0.000570,0.000553
3.640000,0.134019,1.458745,0.907866,0.671267,1.881348,-0.262248,1.897188,-1.549960,-0.276974,0.941792,-1.468163,0.593415,-8.343078,4.197601,0.469796,1.000000,0.000082,0.000751,-0.000633,-0.000048,-0.000563,0.000543
3.650000,0.140827,1.477481,0.905230,0.690285,1.865776,-0.264988,1.906160,-1.564444,-0.271011,0.853477,-1.428279,0.599016,-8.207861,4.187887,0.412039,1.000000,0.000082,0.000748,-0.000630,-0.000047,-0.000559,0.000529
3.660000,0.147825,1.496060,0.902566,0.709388,1.850060,-0.267668,1.914322,-1.578622,-0.265006,0.780092,-1.410620,0.601605,-7.976230,3.650481,0.342519,1.000000,0.000081,0.000745,-0.000627,-0.000048,-0.000559,0.000505
3.670000,0.155015,1.514482,0.899876,0.728568,1.834205,-0.270288,1.921647,-1.592324,-0.258962,0.680064,-1.315624,0.608045,-10.570120,11.162554,0.716224,1.000000,0.000081,0.000742,-0.000625,-0.000051,-0.000563,0.000481
3.680000,0.162397,1.532744,0.897161,0.747817,1.818217,-0.272848,1.927999,-1.605148,-0.252858,0.599311,-1.275234,0.611121,-5.539057,-3.213404,-0.107696,1.000000,0.000081,0.000740,-0.000623,-0.000054,-0.000569,0.000463
3.690000,0.169971,1.550846,0.894420,0.767126,1.802101,-0.275346,1.933715,-1.618062,-0.246753,0.539610,-1.295157,0.610548,-7.882961,3.458971,0.225862,1.000000,0.000081,0.000737,-0.000620,-0.000057,-0.000578,0.000452
3.700000,0.177739,1.568786,0.891654,0.786489,1.785857,-0.277783,1.938679,-1.630733,-0.240631,0.454036,-1.241790,0.613692,-7.769127,3.010565,0.173162,1.000000,0.000080,0.000734,-0.000618,-0.000060,-0.000587,0.000452
3.710000,0.185701,1.586563,0.888864,0.805897,1.769488,-0.280158,1.942699,-1.642860,-0.234470,0.346069,-1.179722,0.618868,-8.401820,3.539363,0.214880,1.000000,0.000080,0.000731,-0.000615,-0.000061,-0.000597,0.000475
3.720000,0.193857,1.604175,0.886051,0.825341,1.753001,-0.282472,1.946020,-1.654786,-0.228305,0.335817,-1.224849,0.612050,1.075816,-6.856673,-0.948216,1.000000,0.000080,0.000728,-0.000613,-0.000061,-0.000605,0.000507
3.730000,0.202208,1.621622,0.883215,0.844817,1.736391,-0.284724,1.949147,-1.667072,-0.222198,0.256843,-1.197027,0.613134,-17.039233,12.606711,1.185729,1.000000,0.000079,0.000725,-0.000610,-0.000061,-0.000612,0.000539
3.740000,0.210754,1.638903,0.880357,0.864318,1.719663,-0.286916,1.950861,-1.678411,-0.216008,0.101588,-1.087885,0.623053,-8.692637,3.473196,0.163605,1.000000,0.000079,0.000722,-0.000607,-0.000060,-0.000615,0.000568
3.750000,0.219494,1.656015,0.877477,0.883831,1.702824,-0.289044,1.951576,-1.689263,-0.209785,0.037827,-1.078619,0.621811,-9.360298,4.118375,0.221404,1.000000,0.000079,0.000719,-0.000605,-0.000058,-0.000615,0.000587
3.760000,0.228430,1.672959,0.874576,0.903347,1.685878,-0.291111,1.951534,-1.699828,-0.203557,-0.045205,-1.033644,0.623894,-9.423971,4.451587,0.235431,1.000000,0.000079,0.000716,-0.000602,-0.000056,-0.000609,0.000579
3.770000,0.237561,1.689732,0.871655,0.922859,1.668829,-0.293116,1.950493,-1.709959,-0.197304,-0.170620,-0.993523,0.626887,-13.534617,3.982246,0.324102,1.000000,0.000078,0.000713,-0.000599,-0.000054,-0.000600,0.000560
3.780000,0.246888,1.706335,0.868714,0.942353,1.651681,-0.295057,1.948220,-1.719669,-0.191021,-0.271288,-0.945417,0.629551,-6.525244,5.646932,0.206941,1.000000,0.000078,0.000710,-0.000597,-0.000052,-0.000589,0.000533
3.790000,0.256408,1.722766,0.865754,0.961820,1.634438,-0.296936,1.945178,-1.728837,-0.184715,-0.343817,-0.889045,0.631805,-10.110780,5.204175,0.282525,1.000000,0.000078,0.000707,-0.000594,-0.000050,-0.000577,0.000503
3.800000,0.266124,1.739023,0.862776,0.981253,1.617106,-0.298751,1.941177,-1.737474,-0.178381,-0.455171,-0.837968,0.634850,-10.019448,5.416332,0.286714,1.000000,0.000078,0.000704,-0.000591,-0.000049,-0.000565,0.000474
3.810000,0.276033,1.755107,0.859779,1.000641,1.599689,-0.300503,1.936222,-1.745727,-0.172029,-0.533091,-0.816517,0.635283,-9.568568,4.877054,0.239304,1.000000,0.000077,0.000701,-0.000589,-0.000048,-0.000556,0.000460
3.820000,0.286136,1.771017,0.856766,1.019974,1.582193,-0.302192,1.930205,-1.753335,-0.165641,-0.683313,-0.685282,0.643671,-16.577310,15.528428,1.010196,1.000000,0.000077,0.000698,-0.000587,-0.000047,-0.000548,0.000452
3.830000,0.296433,1.786751,0.853736,1.039240,1.564627,-0.303816,1.922753,-1.759724,-0.159177,-0.782810,-0.628573,0.646500,-3.196717,-4.374039,-0.458459,1.000000,0.000077,0.000696,-0.000584,-0.000046,-0.000542,0.000449
3.840000,0.306921,1.802309,0.850690,1.058428,1.546998,-0.305376,1.914767,-1.766229,-0.152735,-0.825955,-0.654806,0.643135,-9.361471,5.015415,0.216400,1.000000,0.000077,0.000693,-0.000582,-0.000045,-0.000536,0.000450
3.850000,0.317601,1.817691,0.847628,1.077532,1.529304,-0.306871,1.905940,-1.772375,-0.146282,-0.936679,-0.578290,0.647157,-8.867916,4.417907,0.157554,1.000000,0.000076,0.000690,-0.000580,-0.000045,-0.000531,0.000452
3.860000,0.328471,1.832895,0.844552,1.096543,1.511552,-0.308301,1.896039,-1.777841,-0.139800,-1.045920,-0.512384,0.649339,-9.076349,4.666169,0.140338,1.000000,0.000076,0.000688,-0.000578,-0.000044,-0.000525,0.000451
3.870000,0.339531,1.847922,0.841462,1.115450,1.493749,-0.309667,1.885332,-1.782947,-0.133307,-1.082330,-0.522622,0.648687,-2.000708,-2.731365,-0.136346,1.000000,0.000076,0.000685,-0.000575,-0.000044,-0.000519,0.000450
3.880000,0.350780,1.862770,0.838359,1.134249,1.475893,-0.310967,1.874208,-1.788099,-0.126821,-1.165609,-0.483401,0.649433,-14.776780,10.703051,0.289684,1.000000,0.000076,0.000683,-0.000573,-0.000043,-0.000513,0.000447
3.890000,0.362216,1.877439,0.835243,1.152930,1.457990,-0.312203,1.861816,-1.792400,-0.120312,-1.301213,-0.389000,0.651763,-8.518235,4.162530,0.040593,1.000000,0.000076,0.000680,-0.000571,-0.000043,-0.000508,0.000445
3.900000,0.373838,1.891930,0.832115,1.171482,1.440047,-0.313373,1.848479,-1.796187,-0.113797,-1.368512,-0.366000,0.651398,-8.758315,4.443105,0.021669,1.000000,0.000075,0.000677,-0.000569,-0.000043,-0.000503,0.000442
3.910000,0.385645,1.906240,0.828976,1.189897,1.422067,-0.314479,1.834372,-1.799639,-0.107281,-1.452346,-0.324718,0.651663,-8.682293,4.406564,-0.001397,1.000000,0.000075,0.000675,-0.000567,-0.000043,-0.000498,0.000440
3.920000,0.397636,1.920371,0.825826,1.208166,1.404055,-0.315519,1.819379,-1.802635,-0.100767,-1.548353,-0.272418,0.651078,-9.864782,5.478765,-0.084337,1.000000,0.000075,0.000672,-0.000564,-0.000043,-0.000494,0.000437
3.930000,0.409808,1.934321,0.822666,1.226281,1.386016,-0.316494,1.803438,-1.805115,-0.094259,-1.635899,-0.227211,0.650634,-7.623343,3.544434,-0.003358,1.000000,0.000075,0.000670,-0.000562,-0.000043,-0.000490,0.000435
3.940000,0.422161,1.948091,0.819496,1.244233,1.367954,-0.317404,1.786698,-1.807210,-0.087753,-1.714034,-0.189906,0.650382,-8.662888,4.496416,-0.078387,1.000000,0.000074,0.000668,-0.000560,-0.000044,-0.000486,0.000433
3.950000,0.434692,1.961680,0.816318,1.262012,1.349873,-0.318249,1.769108,-1.808869,-0.081255,-1.803532,-0.142211,0.649334,-8.577409,4.463150,-0.099372,1.000000,0.000074,0.000665,-0.000558,-0.000044,-0.000482,0.000431
3.960000,0.447400,1.975088,0.813132,1.279612,1.331778,-0.319029,1.750651,-1.810072,-0.074766,-1.887508,-0.098641,0.648441,-8.496635,4.442923,-0.117168,1.000000,0.000074,0.000663,-0.000556,-0.000044,-0.000479,0.000428
3.970000,0.460284,1.988316,0.809938,1.297023,1.313674,-0.319745,1.731338,-1.810827,-0.068290,-1.976019,-0.051591,0.646641,-8.932892,4.779972,-0.205636,1.000000,0.000074,0.000660,-0.000554,-0.000044,-0.000475,0.000426
3.980000,0.473340,2.001362,0.806737,1.314236,1.295563,-0.320395,1.711146,-1.811114,-0.061832,-2.060442,-0.006968,0.645110,-7.942172,4.138382,-0.099416,1.000000,0.000074,0.000658,-0.000551,-0.000045,-0.000472,0.000423
3.990000,0.486568,2.014227,0.803530,1.331243,1.277453,-0.320981,1.690146,-1.810976,-0.055386,-2.140336,0.034944,0.643905,-8.309908,4.432157,-0.178938,1.000000,0.000073,0.000656,-0.000549,-0.000045,-0.000469,0.000421
4.000000,0.499964,2.026911,0.800318,1.348036,1.259345,-0.321503,1.668321,-1.810401,-0.048957,-2.224291,0.080067,0.641850,-8.206873,4.404206,-0.194552,1.000000,0.000073,0.000653,-0.000547,-0.000045,-0.000466,0.000418
4.010000,0.513528,2.039414,0.797100,1.364606,1.241246,-0.321961,1.645669,-1.809379,-0.042549,-2.305971,0.124237,0.639668,-8.117018,4.390535,-0.215121,1.000000,0.000073,0.000651,-0.000545,-0.000045,-0.000462,0.000416
4.020000,0.527256,2.051736,0.793879,1.380947,1.223159,-0.322354,1.622206,-1.807920,-0.036162,-2.386512,0.167511,0.637794,-8.001111,4.301792,-0.185597,1.000000,0.000073,0.000649,-0.000543,-0.000045,-0.000459,0.000413
4.030000,0.541146,2.063877,0.790653,1.397048,1.205089,-0.322684,1.597942,-1.806028,-0.029795,-2.466203,0.211061,0.635415,-7.936516,4.409007,-0.290850,1.000000,0.000072,0.000646,-0.000541,-0.000046,-0.000456,0.000411
4.040000,0.555196,2.075838,0.787425,1.412903,1.187040,-0.322950,1.572885,-1.803697,-0.023456,-2.545007,0.254917,0.632500,-7.812744,4.323519,-0.266012,1.000000,0.000072,0.000644,-0.000539,-0.000046,-0.000453,0.000409
4.050000,0.569403,2.087618,0.784194,1.428503,1.169017,-0.323153,1.547046,-1.800933,-0.017144,-2.622532,0.297850,0.629876,-7.702456,4.300560,-0.284872,1.000000,0.000072,0.000642,-0.000537,-0.000046,-0.000450,0.000406
4.060000,0.583765,2.099218,0.780962,1.443841,1.151023,-0.323293,1.520437,-1.797741,-0.010859,-2.699107,0.340403,0.626992,-7.589261,4.266236,-0.300711,1.000000,0.000072,0.000640,-0.000535,-0.000047,-0.000447,0.000404
4.070000,0.598279,2.110639,0.777729,1.458909,1.133063,-0.323370,1.493070,-1.794122,-0.004605,-2.774094,0.383688,0.623781,-7.429204,4.335454,-0.332850,1.000000,0.000071,0.000637,-0.000533,-0.000047,-0.000444,0.000402
4.080000,0.612942,2.121880,0.774495,1.473700,1.115142,-0.323385,1.464958,-1.790071,0.001616,-2.848135,0.425948,0.620519,-7.378794,4.114458,-0.319134,1.000000,0.000071,0.000635,-0.000531,-0.000047,-0.000441,0.000399
4.090000,0.627752,2.132942,0.771261,1.488206,1.097263,-0.323338,1.436110,-1.785607,0.007805,-2.921212,0.467084,0.617224,-7.213812,4.167815,-0.348663,1.000000,0.000071,0.000633,-0.000529,-0.000047,-0.000438,0.000397
4.100000,0.642705,2.143825,0.768028,1.502420,1.079431,-0.323229,1.406540,-1.780727,0.013959,-2.992583,0.508826,0.613622,-7.081491,4.125089,-0.362957,1.000000,0.000071,0.000631,-0.000527,-0.000047,-0.000435,0.000394
4.110000,0.657799,2.154530,0.764797,1.516334,1.061650,-0.323059,1.376263,-1.775433,0.020077,-3.062510,0.549838,0.609991,-6.939333,4.082901,-0.375988,1.000000,0.000071,0.000629,-0.000525,-0.000047,-0.000432,0.000391
4.120000,0.673031,2.165058,0.761567,1.529943,1.043924,-0.322828,1.345292,-1.769731,0.026158,-3.131693,0.590521,0.605987,-6.860980,4.048667,-0.412438,1.000000,0.000070,0.000626,-0.000523,-0.000047,-0.000430,0.000388
4.130000,0.688397,2.175409,0.758341,1.543238,1.026257,-0.322536,1.313636,-1.763624,0.032197,-3.198969,0.630706,0.602000,-6.592397,3.988037,-0.384486,1.000000,0.000070,0.000624,-0.000521,-0.000047,-0.000427,0.000385
4.140000,0.703895,2.185584,0.755117,1.556213,1.008653,-0.322184,1.281319,-1.757119,0.038198,-3.264246,0.670374,0.598050,-6.498286,3.950201,-0.418027,1.000000,0.000070,0.000622,-0.000519,-0.000047,-0.000424,0.000382
4.150000,0.719520,2.195582,0.751897,1.568862,0.991116,-0.321772,1.248354,-1.750218,0.044157,-3.328615,0.709664,0.593743,-6.339280,3.902981,-0.430684,1.000000,0.000070,0.000620,-0.000517,-0.000047,-0.000422,0.000379
4.160000,0.735271,2.205406,0.748682,1.581178,0.973650,-0.321301,1.214753,-1.742926,0.050072,-3.391261,0.748746,0.589243,-6.179976,3.861018,-0.446627,1.000000,0.000069,0.000618,-0.000515,-0.000047,-0.000419,0.000377
4.170000,0.751143,2.215056,0.745471,1.593155,0.956258,-0.320771,1.180534,-1.735249,0.055943,-3.452116,0.786402,0.585020,-5.999665,3.720613,-0.420008,1.000000,0.000069,0.000616,-0.000513,-0.000047,-0.000416,0.000374
4.180000,0.767133,2.224532,0.742266,1.604787,0.938946,-0.320182,1.145716,-1.727197,0.061771,-3.511433,0.824218,0.580378,-5.863449,3.843988,-0.509120,1.000000,0.000069,0.000614,-0.000512,-0.000047,-0.000414,0.000371
4.190000,0.783237,2.233835,0.739068,1.616067,0.921716,-0.319536,1.110311,-1.718763,0.067549,-3.569191,0.862254,0.575285,-5.678395,3.712057,-0.487119,1.000000,0.000069,0.000612,-0.000510,-0.000047,-0.000411,0.000368
4.200000,0.799453,2.242966,0.735876,1.626991,0.904572,-0.318832,1.074338,-1.709957,0.073278,-3.625071,0.898888,0.570447,-5.505967,3.665537,-0.502908,1.000000,0.000068,0.000610,-0.000508,-0.000046,-0.000408,0.000366
4.210000,0.815776,2.251927,0.732691,1.637552,0.887518,-0.318070,1.037815,-1.700787,0.078957,-3.679359,0.935176,0.565362,-5.332076,3.612292,-0.516902,1.000000,0.000068,0.000608,-0.000506,-0.000046,-0.000406,0.000363
4.220000,0.832203,2.260717,0.729515,1.647746,0.870557,-0.317253,1.000758,-1.691254,0.084584,-3.731527,0.971318,0.560084,-5.119542,3.595980,-0.535972,1.000000,0.000068,0.000606,-0.000504,-0.000046,-0.000403,0.000360
4.230000,0.848730,2.269338,0.726347,1.657566,0.853694,-0.316379,0.963189,-1.681363,0.090158,-3.782131,1.006675,0.554699,-5.001474,3.474758,-0.540796,1.000000,0.000068,0.000604,-0.000502,-0.000046,-0.000400,0.000357
4.240000,0.865353,2.277791,0.723187,1.667008,0.836931,-0.315450,0.925121,-1.671123,0.095678,-3.831171,1.041210,0.549214,-4.787394,3.451963,-0.558985,1.000000,0.000068,0.000602,-0.000501,-0.000046,-0.000398,0.000355
4.250000,0.882068,2.286077,0.720038,1.676067,0.820273,-0.314465,0.886573,-1.660539,0.101142,-3.878026,1.075536,0.543542,-4.602186,3.393705,-0.572469,1.000000,0.000067,0.000600,-0.000499,-0.000046,-0.000395,0.000352
4.260000,0.898873,2.294197,0.716898,1.684738,0.803722,-0.313427,0.847566,-1.649615,0.106549,-3.923053,1.109175,0.537769,-4.412261,3.335547,-0.585517,1.000000,0.000067,0.000598,-0.000497,-0.000046,-0.000393,0.000349
4.270000,0.915762,2.302152,0.713769,1.693017,0.787282,-0.312335,0.808118,-1.638357,0.111897,-3.966351,1.142259,0.531802,-4.237676,3.279394,-0.604593,1.000000,0.000067,0.000596,-0.000495,-0.000046,-0.000390,0.000347
4.280000,0.932732,2.309943,0.710652,1.700899,0.770956,-0.311189,0.768246,-1.626772,0.117184,-4.007603,1.174725,0.525745,-4.012141,3.213501,-0.606565,1.000000,0.000067,0.000594,-0.000494,-0.000046,-0.000387,0.000344
4.290000,0.949779,2.317571,0.707546,1.708380,0.754747,-0.309991,0.727973,-1.614865,0.122411,-4.046773,1.206558,0.519606,-3.830892,3.154662,-0.624526,1.000000,0.000066,0.000592,-0.000492,-0.000046,-0.000385,0.000341
4.300000,0.966898,2.325038,0.704452,1.715457,0.738659,-0.308741,0.687317,-1.602643,0.127576,-4.084133,1.237806,0.513282,-3.631472,3.092412,-0.636857,1.000000,0.000066,0.000590,-0.000490,-0.000046,-0.000382,0.000338
4.310000,0.984086,2.332345,0.701371,1.722125,0.722695,-0.307440,0.646297,-1.590111,0.132677,-4.119446,1.268414,0.506852,-3.430578,3.028990,-0.649133,1.000000,0.000066,0.000588,-0.000489,-0.000046,-0.000380,0.000336
4.320000,1.001339,2.339493,0.698303,1.728382,0.706858,-0.306088,0.604934,-1.577277,0.137712,-4.152738,1.298383,0.500300,-3.227557,2.964588,-0.661272,1.000000,0.000066,0.000586,-0.000487,-0.000045,-0.000377,0.000333
4.330000,1.018653,2.346482,0.695250,1.734223,0.691151,-0.304686,0.563249,-1.564146,0.142682,-4.183992,1.327703,0.493628,-3.022986,2.899196,-0.673015,1.000000,0.000065,0.000584,-0.000485,-0.000045,-0.000375,0.000330
4.340000,1.036022,2.353316,0.692210,1.739646,0.675576,-0.303234,0.521262,-1.550725,0.147585,-4.213190,1.356364,0.486839,-2.816331,2.832821,-0.684695,1.000000,0.000065,0.000582,-0.000484,-0.000045,-0.000372,0.000328
4.350000,1.053444,2.359994,0.689185,1.744647,0.660137,-0.301734,0.478992,-1.537020,0.152419,-4.240311,1.384359,0.479934,-2.607919,2.765823,-0.696190,1.000000,0.000065,0.000581,-0.000482,-0.000045,-0.000370,0.000325
4.360000,1.070914,2.366519,0.686175,1.749225,0.644837,-0.300186,0.436462,-1.523040,0.157183,-4.265342,1.411678,0.472916,-2.398019,2.697825,-0.707432,1.000000,0.000065,0.000579,-0.000480,-0.000045,-0.000367,0.000323
4.370000,1.088427,2.372892,0.683181,1.753376,0.629677,-0.298591,0.393692,-1.508789,0.161877,-4.288266,1.438313,0.465787,-2.186470,2.628946,-0.718420,1.000000,0.000065,0.000577,-0.000479,-0.000045,-0.000365,0.000320
4.380000,1.105980,2.379113,0.680204,1.757098,0.614662,-0.296949,0.350704,-1.494276,0.166498,-4.309069,1.464256,0.458548,-1.973960,2.559521,-0.729291,1.000000,0.000064,0.000575,-0.000477,-0.000045,-0.000362,0.000317
4.390000,1.123568,2.385185,0.677243,1.760389,0.599793,-0.295261,0.307518,-1.479506,0.171047,-4.327739,1.489500,0.451202,-1.759759,2.489283,-0.739829,1.000000,0.000064,0.000573,-0.000476,-0.000044,-0.000360,0.000315
4.400000,1.141186,2.391110,0.674299,1.763248,0.585072,-0.293528,0.264156,-1.464488,0.175522,-4.344261,1.514033,0.443751,-1.544518,2.417923,-0.750251,1.000000,0.000064,0.000571,-0.000474,-0.000044,-0.000357,0.000312
4.410000,1.158831,2.396887,0.671372,1.765672,0.570504,-0.291751,0.220640,-1.449228,0.179922,-4.358626,1.537854,0.436197,-1.328199,2.346138,-0.760411,1.000000,0.000064,0.000570,-0.000472,-0.000044,-0.000355,0.000310
4.420000,1.176498,2.402520,0.668464,1.767660,0.556089,-0.289930,0.176991,-1.433734,0.184246,-4.370821,1.560954,0.428543,-1.110802,2.273652,-0.770331,1.000000,0.000063,0.000568,-0.000471,-0.000044,-0.000353,0.000307
4.430000,1.194183,2.408010,0.665574,1.769211,0.541830,-0.288066,0.133231,-1.418011,0.188492,-4.380840,1.583326,0.420791,-0.892812,2.200709,-0.780106,1.000000,0.000063,0.000566,-0.000469,-0.000043,-0.000350,0.000304
4.440000,1.211881,2.413357,0.662703,1.770324,0.527729,-0.286161,0.089382,-1.402069,0.192661,-4.388674,1.604966,0.412942,-0.673774,2.127073,-0.789609,1.000000,0.000063,0.000564,-0.000468,-0.000043,-0.000348,0.000302
4.450000,1.229588,2.418565,0.659851,1.770999,0.513789,-0.284213,0.045465,-1.385915,0.196751,-4.394314,1.625862,0.405001,-0.454198,2.052668,-0.798803,1.000000,0.000063,0.000563,-0.000466,-0.000043,-0.000345,0.000299
4.460000,1.247299,2.423634,0.657018,1.771233,0.500012,-0.282226,0.001503,-1.369555,0.200761,-4.397769,1.646005,0.396979,-0.234301,1.977670,-0.807615,1.000000,0.000063,0.000561,-0.000465,-0.000043,-0.000343,0.000297
4.470000,1.265011,2.428566,0.654206,1.771028,0.486399,-0.280198,-0.042483,-1.352997,0.204690,-4.398976,1.665432,0.388831,-0.009446,1.905763,-0.819877,1.000000,0.000062,0.000559,-0.000463,-0.000042,-0.000340,0.000294
4.480000,1.282719,2.433362,0.651415,1.770384,0.472952,-0.278132,-0.086470,-1.336249,0.208537,-4.398005,1.684080,0.380622,0.203616,1.823673,-0.821943,1.000000,0.000062,0.000558,-0.000462,-0.000042,-0.000338,0.000292
4.490000,1.300417,2.438025,0.648644,1.769299,0.459674,-0.276028,-0.130436,-1.319318,0.212302,-4.394856,1.701941,0.372355,0.428676,1.750513,-0.833363,1.000000,0.000062,0.000556,-0.000461,-0.000042,-0.000335,0.000289
4.500000,1.318103,2.442556,0.645894,1.767775,0.446567,-0.273887,-0.174359,-1.302212,0.215984,-4.389452,1.719072,0.363971,0.649885,1.673778,-0.841383,1.000000,0.000062,0.000554,-0.000459,-0.000041,-0.000333,0.000287
4.510000,1.335771,2.446957,0.643166,1.765812,0.433631,-0.271709,-0.218217,-1.284939,0.219581,-4.381809,1.735458,0.355483,0.872119,1.597490,-0.849975,1.000000,0.000062,0.000553,-0.000458,-0.000041,-0.000331,0.000284
4.520000,1.353418,2.451229,0.640460,1.763411,0.420868,-0.269495,-0.261989,-1.267506,0.223094,-4.372071,1.750967,0.347028,1.081908,1.509958,-0.846894,1.000000,0.000061,0.000551,-0.000456,-0.000041,-0.000328,0.000282
4.530000,1.371038,2.455375,0.637776,1.760573,0.408281,-0.267247,-0.305651,-1.249922,0.226521,-4.360036,1.765776,0.338421,1.325306,1.451877,-0.874711,1.000000,0.000061,0.000549,-0.000455,-0.000040,-0.000326,0.000280
4.540000,1.388628,2.459396,0.635115,1.757298,0.395870,-0.264965,-0.349182,-1.232193,0.229862,-4.345696,1.779889,0.329655,1.536034,1.365136,-0.872385,1.000000,0.000061,0.000548,-0.000453,-0.000040,-0.000323,0.000277
4.550000,1.406183,2.463293,0.632477,1.753590,0.383638,-0.262650,-0.392558,-1.214327,0.233115,-4.329261,1.793120,0.320924,1.757421,1.287320,-0.879941,1.000000,0.000061,0.000546,-0.000452,-0.000040,-0.000321,0.000275
4.560000,1.423698,2.467069,0.629862,1.749448,0.371584,-0.260303,-0.435759,-1.196333,0.236280,-4.310600,1.805583,0.312112,1.977549,1.208781,-0.886382,1.000000,0.000061,0.000544,-0.000451,-0.000039,-0.000319,0.000272
4.570000,1.441170,2.470725,0.627271,1.744875,0.359711,-0.257925,-0.478763,-1.178218,0.239356,-4.289685,1.817326,0.303160,2.202575,1.136463,-0.900063,1.000000,0.000060,0.000543,-0.000449,-0.000039,-0.000316,0.000270
4.580000,1.458594,2.474264,0.624704,1.739873,0.348020,-0.255516,-0.521546,-1.159989,0.242343,-4.266612,1.828241,0.294194,2.411860,1.046343,-0.892950,1.000000,0.000060,0.000541,-0.000448,-0.000039,-0.000314,0.000268
4.590000,1.475966,2.477686,0.622161,1.734445,0.336512,-0.253078,-0.564088,-1.141656,0.245240,-4.241392,1.838320,0.285223,2.634697,0.972804,-0.905227,1.000000,0.000060,0.000540,-0.000447,-0.000039,-0.000311,0.000265
4.600000,1.493282,2.480995,0.619642,1.728593,0.325187,-0.250612,-0.606366,-1.123225,0.248047,-4.213946,1.847671,0.276126,2.851642,0.893597,-0.910351,1.000000,0.000060,0.000538,-0.000445,-0.000038,-0.000309,0.000263
4.610000,1.510537,2.484191,0.617149,1.722319,0.314048,-0.248118,-0.648360,-1.104705,0.250763,-4.184382,1.856184,0.267022,3.067054,0.813825,-0.914981,1.000000,0.000060,0.000537,-0.000444,-0.000038,-0.000307,0.000260
4.620000,1.527727,2.487276,0.614680,1.715626,0.303094,-0.245597,-0.690046,-1.086104,0.253387,-4.152553,1.863991,0.257785,3.292641,0.742858,-0.927794,1.000000,0.000059,0.000535,-0.000443,-0.000038,-0.000304,0.000258
4.630000,1.544848,2.490253,0.612237,1.708519,0.292326,-0.243050,-0.731404,-1.067428,0.255919,-4.118656,1.870944,0.248559,3.486306,0.647744,-0.917263,1.000000,0.000059,0.000534,-0.000441,-0.000037,-0.000302,0.000256
4.640000,1.561896,2.493123,0.609819,1.700999,0.281745,-0.240479,-0.772413,-1.048688,0.258358,-4.082712,1.877039,0.239352,3.708267,0.575824,-0.928569,1.000000,0.000059,0.000532,-0.000440,-0.000037,-0.000299,0.000254
4.650000,1.578866,2.495889,0.607427,1.693072,0.271352,-0.237883,-0.813051,-1.029890,0.260705,-4.044550,1.882421,0.230025,3.918453,0.496092,-0.932227,1.000000,0.000059,0.000531,-0.000439,-0.000037,-0.000297,0.000251
4.660000,1.595756,2.498551,0.605062,1.684740,0.261148,-0.235265,-0.853297,-1.011042,0.262959,-4.004293,1.886998,0.220660,4.128237,0.417042,-0.936355,1.000000,0.000059,0.000529,-0.000438,-0.000036,-0.000295,0.000249
4.670000,1.612560,2.501112,0.602722,1.676007,0.251132,-0.232624,-0.893130,-0.992153,0.265119,-3.962031,1.890742,0.211339,4.328145,0.333951,-0.932058,1.000000,0.000058,0.000528,-0.000436,-0.000036,-0.000292,0.000247
4.680000,1.629275,2.503574,0.600409,1.666879,0.241305,-0.229963,-0.932530,-0.973230,0.267185,-3.917645,1.893724,0.201930,4.548950,0.262427,-0.949836,1.000000,0.000058,0.000526,-0.000435,-0.000035,-0.000290,0.000245
4.690000,1.645896,2.505939,0.598123,1.657358,0.231667,-0.227281,-0.971476,-0.954281,0.269157,-3.871146,1.895947,0.192429,4.746257,0.180014,-0.945990,1.000000,0.000058,0.000525,-0.000434,-0.000035,-0.000287,0.000242
4.700000,1.662421,2.508208,0.595864,1.647451,0.222219,-0.224580,-1.009947,-0.935314,0.271034,-3.822687,1.897352,0.182974,4.949267,0.102346,-0.949229,1.000000,0.000058,0.000523,-0.000433,-0.000035,-0.000285,0.000240
4.710000,1.678844,2.510384,0.593632,1.637161,0.212961,-0.221861,-1.047923,-0.916336,0.272816,-3.772172,1.898036,0.173446,5.150278,0.025474,-0.952395,1.000000,0.000058,0.000522,-0.000432,-0.000034,-0.000283,0.000238
4.720000,1.695163,2.512468,0.591427,1.626494,0.203892,-0.219124,-1.085384,-0.897356,0.274503,-3.719717,1.897780,0.163963,5.343363,-0.067983,-0.948004,1.000000,0.000058,0.000520,-0.000430,-0.000034,-0.000280,0.000236
4.730000,1.711373,2.514462,0.589249,1.615455,0.195014,-0.216371,-1.122310,-0.878383,0.276095,-3.665249,1.896862,0.154407,5.550098,-0.115216,-0.963193,1.000000,0.000057,0.000519,-0.000429,-0.000034,-0.000278,0.000233
4.740000,1.727470,2.516369,0.587099,1.604050,0.186325,-0.213602,-1.158682,-0.859421,0.277591,-3.608784,1.895299,0.144777,5.739280,-0.206293,-0.959032,1.000000,0.000057,0.000518,-0.000428,-0.000033,-0.000275,0.000231
4.750000,1.743452,2.518190,0.584977,1.592283,0.177825,-0.210819,-1.194480,-0.840480,0.278991,-3.550445,1.892818,0.135195,5.931248,-0.281611,-0.961072,1.000000,0.000057,0.000516,-0.000427,-0.000033,-0.000273,0.000229
4.760000,1.759315,2.519926,0.582883,1.580162,0.169515,-0.208023,-1.229684,-0.821567,0.280295,-3.490191,1.889595,0.125594,6.120310,-0.357952,-0.962182,1.000000,0.000057,0.000515,-0.000426,-0.000033,-0.000271,0.000227
4.770000,1.775054,2.521581,0.580817,1.567692,0.161394,-0.205214,-1.264277,-0.802690,0.281502,-3.428036,1.885706,0.115924,6.309010,-0.424739,-0.968741,1.000000,0.000057,0.000514,-0.000425,-0.000032,-0.000268,0.000225
4.780000,1.790668,2.523155,0.578779,1.554879,0.153461,-0.202393,-1.298239,-0.783856,0.282613,-3.364045,1.881001,0.106283,6.488675,-0.516230,-0.959229,1.000000,0.000057,0.000512,-0.000424,-0.000032,-0.000266,0.000223
4.790000,1.806151,2.524650,0.576769,1.541729,0.145716,-0.199562,-1.331552,-0.765073,0.283628,-3.298248,1.875479,0.096680,6.671418,-0.583314,-0.964470,1.000000,0.000056,0.000511,-0.000422,-0.000032,-0.000263,0.000221
4.800000,1.821501,2.526070,0.574787,1.528250,0.138159,-0.196721,-1.364198,-0.746348,0.284547,-3.230637,1.869295,0.087021,6.848943,-0.658159,-0.964241,1.000000,0.000056,0.000510,-0.000421,-0.000031,-0.000261,0.000219
4.810000,1.836715,2.527414,0.572834,1.514447,0.130789,-0.193871,-1.396159,-0.727690,0.285369,-3.161293,1.862291,0.077409,7.023376,-0.733222,-0.963156,1.000000,0.000056,0.000508,-0.000420,-0.000031,-0.000258,0.000217
4.820000,1.851789,2.528686,0.570910,1.500329,0.123605,-0.191014,-1.427418,-0.709104,0.286094,-3.090141,1.854727,0.067713,7.202356,-0.789118,-0.971118,1.000000,0.000056,0.000507,-0.000419,-0.000031,-0.000256,0.000215
4.830000,1.866720,2.529887,0.569014,1.485901,0.116607,-0.188150,-1.457956,-0.690598,0.286723,-3.017343,1.846305,0.058090,7.356478,-0.895522,-0.953461,1.000000,0.000056,0.000506,-0.000418,-0.000030,-0.000254,0.000213
4.840000,1.881506,2.531019,0.567147,1.471172,0.109793,-0.185280,-1.487759,-0.672181,0.287257,-2.942938,1.837016,0.048547,7.528075,-0.952277,-0.959814,1.000000,0.000056,0.000505,-0.000417,-0.000030,-0.000251,0.000211
4.850000,1.896143,2.532083,0.565309,1.456149,0.103163,-0.182405,-1.516809,-0.653859,0.287694,-2.866834,1.827180,0.038937,7.688723,-1.024920,-0.957519,1.000000,0.000056,0.000503,-0.000416,-0.000030,-0.000249,0.000209
4.860000,1.910628,2.533083,0.563499,1.440839,0.096716,-0.179526,-1.545091,-0.635640,0.288035,-2.789139,1.816627,0.029346,7.846631,-1.095151,-0.955836,1.000000,0.000055,0.000502,-0.000415,-0.000030,-0.000247,0.000207
4.870000,1.924959,2.534018,0.561718,1.425250,0.090450,-0.176645,-1.572587,-0.617530,0.288281,-2.709940,1.805191,0.019865,7.995448,-1.182643,-0.944956,1.000000,0.000055,0.000501,-0.000414,-0.000029,-0.000244,0.000205
4.880000,1.939132,2.534892,0.559966,1.409389,0.084365,-0.173761,-1.599284,-0.599538,0.288432,-2.629184,1.793174,0.010350,8.155222,-1.220292,-0.958039,1.000000,0.000055,0.000500,-0.000413,-0.000029,-0.000242,0.000203
4.890000,1.953146,2.535706,0.558243,1.393267,0.078459,-0.170876,-1.625166,-0.581668,0.288488,-2.546906,1.780597,0.000799,8.296901,-1.304342,-0.947557,1.000000,0.000055,0.000498,-0.000412,-0.000029,-0.000240,0.000201
4.900000,1.966997,2.536462,0.556549,1.376889,0.072731,-0.167991,-1.650218,-0.563929,0.288449,-2.463233,1.767177,-0.008640,8.439608,-1.370889,-0.944750,1.000000,0.000055,0.000497,-0.000411,-0.000028,-0.000237,0.000199
4.910000,1.980683,2.537161,0.554883,1.360265,0.067180,-0.165108,-1.674426,-0.546327,0.288315,-2.378139,1.753135,-0.018070,8.578007,-1.437455,-0.941335,1.000000,0.000055,0.000496,-0.000410,-0.000028,-0.000235,0.000197
4.920000,1.994201,2.537806,0.553246,1.343403,0.061804,-0.162225,-1.697776,-0.528868,0.288088,-2.291691,1.738432,-0.027466,8.711368,-1.503012,-0.937741,1.000000,0.000054,0.000495,-0.000409,-0.000028,-0.000233,0.000195
4.930000,2.007550,2.538398,0.551639,1.326312,0.056602,-0.159346,-1.720255,-0.511560,0.287766,-2.203917,1.723077,-0.036823,8.842699,-1.567722,-0.933540,1.000000,0.000054,0.000494,-0.000408,-0.000028,-0.000230,0.000193
4.940000,2.020727,2.538939,0.550059,1.309001,0.051572,-0.156470,-1.741850,-0.494409,0.287351,-2.114861,1.707082,-0.046137,8.967335,-1.631145,-0.929342,1.000000,0.000054,0.000493,-0.000407,-0.000027,-0.000228,0.000191
4.950000,2.033729,2.539430,0.548509,1.291478,0.046713,-0.153599,-1.762548,-0.477421,0.286844,-2.024578,1.690450,-0.055408,9.088497,-1.694190,-0.924687,1.000000,0.000054,0.000491,-0.000406,-0.000027,-0.000226,0.000189
4.960000,2.046555,2.539874,0.546987,1.273753,0.042023,-0.150734,-1.782338,-0.460602,0.286243,-1.933114,1.673188,-0.064640,9.204739,-1.756096,-0.919940,1.000000,0.000054,0.000490,-0.000405,-0.000027,-0.000223,0.000187
4.970000,2.059204,2.540271,0.545494,1.255835,0.037500,-0.147875,-1.801207,-0.443959,0.285551,-1.840489,1.655350,-0.073789,9.318255,-1.813262,-0.911585,1.000000,0.000054,0.000489,-0.000404,-0.000027,-0.000221,0.000185
4.980000,2.071672,2.540624,0.544030,1.237732,0.033143,-0.145023,-1.819144,-0.427497,0.284768,-1.746786,1.636886,-0.082906,9.421639,-1.879364,-0.911758,1.000000,0.000054,0.000488,-0.000403,-0.000026,-0.000219,0.000183
4.990000,2.083958,2.540935,0.542594,1.219455,0.028950,-0.142180,-1.836139,-0.411223,0.283893,-1.652052,1.617805,-0.091988,9.525432,-1.934706,-0.902968,1.000000,0.000054,0.000487,-0.000402,-0.000026,-0.000217,0.000181
5.000000,2.096060,2.541204,0.541186,1.201013,0.024918,-0.139346,-1.852182,-0.395143,0.282928,-1.556310,1.598179,-0.100981,9.621878,-1.992195,-0.896939,1.000000,0.000053,0.000486,-0.000401,-0.000026,-0.000214,0.000179
5.010000,2.107977,2.541433,0.539807,1.182415,0.021046,-0.136522,-1.867262,-0.379262,0.281874,-1.459624,1.577979,-0.109899,9.713683,-2.048305,-0.889929,1.000000,0.000053,0.000485,-0.000401,-0.000026,-0.000212,0.000177
5.020000,2.119708,2.541625,0.538456,1.163671,0.017332,-0.133708,-1.881371,-0.363585,0.280730,-1.362061,1.557212,-0.118809,9.798721,-2.104269,-0.888681,1.000000,0.000053,0.000484,-0.000400,-0.000025,-0.000210,0.000176
5.030000,2.131250,2.541781,0.537133,1.144790,0.013774,-0.130907,-1.894500,-0.348119,0.279498,-1.263650,1.535909,-0.127605,9.882602,-2.156027,-0.870353,1.000000,0.000053,0.000483,-0.000399,-0.000025,-0.000207,0.000174
5.040000,2.142603,2.541901,0.535838,1.125784,0.010369,-0.128119,-1.906641,-0.332869,0.278178,-1.164443,1.514085,-0.136279,9.957077,-2.209282,-0.867653,1.000000,0.000053,0.000482,-0.000398,-0.000025,-0.000205,0.000172
5.050000,2.153766,2.541988,0.534570,1.106661,0.007116,-0.125344,-1.917787,-0.317839,0.276772,-1.064520,1.491733,-0.144929,10.027510,-2.260289,-0.859056,1.000000,0.000053,0.000481,-0.000397,-0.000024,-0.000203,0.000170
5.060000,2.164736,2.542044,0.533331,1.087431,0.004012,-0.122584,-1.927930,-0.303036,0.275280,-0.963919,1.468878,-0.153475,10.091892,-2.310189,-0.850445,1.000000,0.000053,0.000480,-0.000396,-0.000024,-0.000201,0.000168
5.070000,2.175514,2.542069,0.532119,1.068106,0.001054,-0.119839,-1.937063,-0.288463,0.273703,-0.862703,1.445526,-0.161945,10.150432,-2.359451,-0.842794,1.000000,0.000053,0.000479,-0.000395,-0.000024,-0.000198,0.000166
5.080000,2.186098,2.542066,0.530934,1.048694,-0.001758,-0.117110,-1.945182,-0.274127,0.272042,-0.760927,1.421703,-0.170314,10.203880,-2.404873,-0.830821,1.000000,0.000052,0.000478,-0.000395,-0.000024,-0.000196,0.000164
5.090000,2.196488,2.542035,0.529776,1.029205,-0.004429,-0.114398,-1.952280,-0.260031,0.270297,-0.658649,1.397424,-0.178576,10.250627,-2.451243,-0.822329,1.000000,0.000052,0.000477,-0.000394,-0.000024,-0.000194,0.000163
5.100000,2.206682,2.541977,0.528646,1.009651,-0.006960,-0.111704,-1.958353,-0.246180,0.268470,-0.555933,1.372689,-0.186752,10.291542,-2.495278,-0.812164,1.000000,0.000052,0.000476,-0.000393,-0.000023,-0.000192,0.000161
5.110000,2.216680,2.541896,0.527542,0.990042,-0.009353,-0.109029,-1.963398,-0.232578,0.266562,-0.452854,1.347511,-0.194835,10.325985,-2.538129,-0.801992,1.000000,0.000052,0.000475,-0.000392,-0.000023,-0.000189,0.000159
5.120000,2.226483,2.541791,0.526465,0.970387,-0.011612,-0.106373,-1.967409,-0.219231,0.264574,-0.349411,1.321948,-0.202769,10.359035,-2.575977,-0.787105,1.000000,0.000052,0.000474,-0.000391,-0.000023,-0.000187,0.000157
5.130000,2.236088,2.541664,0.525415,0.950697,-0.013739,-0.103738,-1.970385,-0.206141,0.262507,-0.245747,1.295959,-0.210624,10.372496,-2.621719,-0.783754,1.000000,0.000052,0.000473,-0.000391,-0.000023,-0.000185,0.000155
5.140000,2.245496,2.541516,0.524390,0.930983,-0.015736,-0.101123,-1.972324,-0.193313,0.260362,-0.141931,1.269556,-0.218397,10.392245,-2.656728,-0.768603,1.000000,0.000052,0.000472,-0.000390,-0.000022,-0.000183,0.000153
5.150000,2.254708,2.541350,0.523392,0.911254,-0.017606,-0.098531,-1.973223,-0.180751,0.258140,-0.037948,1.242812,-0.226016,10.400969,-2.693417,-0.757126,1.000000,0.000052,0.000471,-0.000389,-0.000022,-0.000181,0.000152
5.160000,2.263721,2.541165,0.522420,0.891522,-0.019352,-0.095961,-1.973082,-0.168458,0.255842,0.066103,1.215715,-0.233527,10.403772,-2.727952,-0.745071,1.000000,0.000052,0.000470,-0.000388,-0.000022,-0.000178,0.000150
5.170000,2.272538,2.540963,0.521473,0.871796,-0.020976,-0.093414,-1.971901,-0.156438,0.253470,0.170065,1.188237,-0.240916,10.391700,-2.765141,-0.732686,1.000000,0.000051,0.000469,-0.000388,-0.000022,-0.000176,0.000148
5.180000,2.281157,2.540746,0.520551,0.852087,-0.022482,-0.090892,-1.969681,-0.144694,0.251024,0.274003,1.160466,-0.248179,10.394843,-2.788717,-0.719840,1.000000,0.000051,0.000468,-0.000387,-0.000021,-0.000174,0.000146
5.190000,2.289580,2.540514,0.519655,0.832406,-0.023871,-0.088394,-1.966422,-0.133230,0.248507,0.377854,1.132423,-0.255312,10.369955,-2.821760,-0.706683,1.000000,0.000051,0.000468,-0.000386,-0.000021,-0.000172,0.000145
5.200000,2.297806,2.540269,0.518783,0.812762,-0.025147,-0.085922,-1.962125,-0.122047,0.245918,0.481410,1.104048,-0.262312,10.344801,-2.849752,-0.693217,1.000000,0.000051,0.000467,-0.000385,-0.000021,-0.000170,0.000143
5.210000,2.305835,2.540011,0.517936,0.793167,-0.026313,-0.083476,-1.956794,-0.111149,0.243261,0.584700,1.075419,-0.269174,10.312334,-2.875763,-0.679296,1.000000,0.000051,0.000466,-0.000385,-0.000021,-0.000167,0.000141
5.220000,2.313669,2.539743,0.517114,0.773630,-0.027371,-0.081057,-1.950432,-0.100539,0.240535,0.687635,1.046540,-0.275899,10.273091,-2.899855,-0.665366,1.000000,0.000051,0.000465,-0.000384,-0.000020,-0.000165,0.000139
5.230000,2.321308,2.539464,0.516315,0.754161,-0.028325,-0.078665,-1.943043,-0.090219,0.237743,0.790131,1.017427,-0.282476,10.224814,-2.922362,-0.650041,1.000000,0.000051,0.000464,-0.000383,-0.000020,-0.000163,0.000137
5.240000,2.328753,2.539177,0.515540,0.734772,-0.029176,-0.076302,-1.934631,-0.080192,0.234886,0.892112,0.988100,-0.288902,10.170369,-2.942691,-0.635321,1.000000,0.000051,0.000463,-0.000383,-0.000020,-0.000161,0.000136
5.250000,2.336004,2.538881,0.514789,0.715472,-0.029929,-0.073968,-1.925203,-0.070458,0.231966,0.993515,0.958577,-0.295179,10.108086,-2.961410,-0.619818,1.000000,0.000051,0.000463,-0.000382,-0.000020,-0.000159,0.000134
5.260000,2.343062,2.538578,0.514061,0.696272,-0.030587,-0.071663,-1.914763,-0.061021,0.228983,1.094221,0.928864,-0.301292,10.037242,-2.978374,-0.603844,1.000000,0.000050,0.000462,-0.000381,-0.000019,-0.000157,0.000132
5.270000,2.349930,2.538270,0.513356,0.677180,-0.031151,-0.069388,-1.903320,-0.051881,0.225940,1.194283,0.899039,-0.307265,9.968517,-2.988722,-0.589497,1.000000,0.000050,0.000461,-0.000381,-0.000019,-0.000154,0.000130
5.280000,2.356607,2.537956,0.512673,0.658208,-0.031625,-0.067144,-1.890881,-0.043041,0.222839,1.293456,0.869045,-0.313059,9.864655,-3.009737,-0.569266,1.000000,0.000050,0.000460,-0.000380,-0.000019,-0.000152,0.000128
5.290000,2.363094,2.537637,0.512013,0.639366,-0.032013,-0.064932,-1.877454,-0.034501,0.219680,1.391653,0.838899,-0.318670,9.778727,-3.016581,-0.553910,1.000000,0.000050,0.000460,-0.000379,-0.000019,-0.000150,0.000127
5.300000,2.369394,2.537316,0.511374,0.620663,-0.032316,-0.062751,-1.863051,-0.026263,0.216466,1.488958,0.808699,-0.324127,9.675535,-3.025566,-0.536340,1.000000,0.000050,0.000459,-0.000379,-0.000018,-0.000148,0.000125
5.310000,2.375508,2.536991,0.510758,0.602108,-0.032539,-0.060603,-1.847679,-0.018327,0.213198,1.585193,0.778422,-0.329407,9.565659,-3.031897,-0.518613,1.000000,0.000050,0.000458,-0.000378,-0.000018,-0.000146,0.000123
5.320000,2.381437,2.536665,0.510162,0.583712,-0.032684,-0.058487,-1.831351,-0.010695,0.209878,1.680218,0.748048,-0.334489,9.441037,-3.040319,-0.498735,1.000000,0.000050,0.000457,-0.000377,-0.000018,-0.000144,0.000121
5.330000,2.387183,2.536338,0.509588,0.565484,-0.032754,-0.056405,-1.814078,-0.003366,0.206509,1.774051,0.717668,-0.339399,9.324173,-3.035320,-0.483189,1.000000,0.000050,0.000457,-0.000377,-0.000018,-0.000142,0.000120
5.340000,2.392747,2.536010,0.509034,0.547434,-0.032752,-0.054357,-1.795874,0.003659,0.203091,1.866611,0.687305,-0.344134,9.183355,-3.038997,-0.462750,1.000000,0.000050,0.000456,-0.000376,-0.000017,-0.000139,0.000118
5.350000,2.398132,2.535683,0.508500,0.529570,-0.032682,-0.052344,-1.776751,0.010380,0.199627,1.957711,0.656915,-0.348659,9.038883,-3.036652,-0.443346,1.000000,0.000050,0.000455,-0.000376,-0.000017,-0.000137,0.000116
5.360000,2.403339,2.535357,0.507987,0.511902,-0.032545,-0.050365,-1.756725,0.016797,0.196118,2.047347,0.626570,-0.352994,8.885790,-3.032241,-0.423544,1.000000,0.000050,0.000455,-0.000375,-0.000017,-0.000135,0.000114
5.370000,2.408371,2.535032,0.507493,0.494438,-0.032347,-0.048421,-1.735810,0.022911,0.192568,2.135388,0.596275,-0.357129,8.721909,-3.026055,-0.403405,1.000000,0.000049,0.000454,-0.000374,-0.000017,-0.000133,0.000113
5.380000,2.413229,2.534710,0.507018,0.477188,-0.032088,-0.046514,-1.714022,0.028723,0.188976,2.221777,0.566062,-0.361060,8.554441,-3.016254,-0.382676,1.000000,0.000049,0.000453,-0.000374,-0.000016,-0.000131,0.000111
5.390000,2.417915,2.534391,0.506563,0.460161,-0.031773,-0.044642,-1.691380,0.034233,0.185347,2.306426,0.535953,-0.364782,8.372877,-3.005407,-0.361717,1.000000,0.000049,0.000453,-0.000373,-0.000016,-0.000129,0.000109
5.400000,2.422433,2.534075,0.506125,0.443364,-0.031405,-0.042807,-1.667900,0.039443,0.181681,2.389209,0.505964,-0.368292,8.183605,-2.991760,-0.340277,1.000000,0.000049,0.000452,-0.000373,-0.000016,-0.000127,0.000107
5.410000,2.426783,2.533763,0.505706,0.426805,-0.030985,-0.041008,-1.643602,0.044353,0.177982,2.470054,0.476121,-0.371584,7.985047,-2.975841,-0.318391,1.000000,0.000049,0.000451,-0.000372,-0.000016,-0.000124,0.000106
5.420000,2.430970,2.533455,0.505305,0.410494,-0.030519,-0.039247,-1.618506,0.048966,0.174250,2.548889,0.446461,-0.374662,7.779263,-2.956459,-0.296736,1.000000,0.000049,0.000451,-0.000372,-0.000015,-0.000122,0.000104
5.430000,2.434994,2.533153,0.504921,0.394438,-0.030007,-0.037523,-1.592631,0.053283,0.170489,2.625585,0.416989,-0.377510,7.558234,-2.937550,-0.272914,1.000000,0.000049,0.000450,-0.000371,-0.000015,-0.000120,0.000102
5.440000,2.438859,2.532855,0.504555,0.378644,-0.029454,-0.035837,-1.566001,0.057306,0.166701,2.700044,0.387729,-0.380126,7.333293,-2.913425,-0.250381,1.000000,0.000049,0.000449,-0.000371,-0.000015,-0.000118,0.000100
5.450000,2.442568,2.532564,0.504204,0.363120,-0.028862,-0.034190,-1.538638,0.061038,0.162888,2.772205,0.358724,-0.382513,7.096461,-2.887726,-0.226791,1.000000,0.000049,0.000449,-0.000370,-0.000015,-0.000116,0.000099
5.460000,2.446123,2.532278,0.503871,0.347874,-0.028234,-0.032580,-1.510565,0.064481,0.159052,2.841945,0.329988,-0.384662,6.850087,-2.859458,-0.202841,1.000000,0.000049,0.000448,-0.000370,-0.000014,-0.000114,0.000097
5.470000,2.449526,2.531999,0.503553,0.332911,-0.027573,-0.031009,-1.481808,0.067639,0.155195,2.909175,0.301540,-0.386568,6.594080,-2.829408,-0.178423,1.000000,0.000049,0.000448,-0.000369,-0.000014,-0.000112,0.000095
5.480000,2.452782,2.531727,0.503250,0.318240,-0.026882,-0.029476,-1.452391,0.070513,0.151321,2.973790,0.273417,-0.388229,6.327389,-2.794760,-0.153717,1.000000,0.000049,0.000447,-0.000369,-0.000014,-0.000110,0.000093
5.490000,2.455892,2.531462,0.502963,0.303866,-0.026164,-0.027982,-1.422341,0.073108,0.147431,3.035692,0.245645,-0.389641,6.051268,-2.759474,-0.128457,1.000000,0.000049,0.000447,-0.000368,-0.000014,-0.000107,0.000092
5.500000,2.458860,2.531204,0.502691,0.289795,-0.025421,-0.026527,-1.391686,0.075427,0.143529,3.094782,0.218240,-0.390797,5.764826,-2.720886,-0.102818,1.000000,0.000049,0.000446,-0.000368,-0.000013,-0.000105,0.000090
