time,x,y,z,vx,vy,vz,ax,ay,az,jx,jy,jz,sx,sy,sz,roll,pitch,yaw,p,q,r
0.000000,-3.020134,0.334490,-1.477557,0.009083,0.002089,0.015125,-0.008248,-0.258671,-0.106966,-3.837286,6.377777,0.492809,146.103498,-122.650513,-4.434943,-0.026078,0.000832,0.000000,0.641393,0.386851,-0.000000
0.010000,-3.020045,0.334499,-1.477411,0.008832,-0.000199,0.014079,-0.039688,-0.200746,-0.102257,-2.486920,5.234521,0.449116,124.345808,-106.264727,-4.303644,-0.020249,0.004004,0.000000,0.526968,0.251019,0.000000
0.020000,-3.019959,0.334488,-1.477276,0.008330,-0.001961,0.013079,-0.058675,-0.153460,-0.097979,-1.343034,4.247325,0.406734,104.788819,-91.425899,-4.172864,-0.015487,0.005922,0.000000,0.427944,0.135773,0.000000
0.030000,-3.019878,0.334462,-1.477150,0.007693,-0.003298,0.012118,-0.067165,-0.115329,-0.094118,-0.384182,3.401100,0.365658,87.320354,-78.058100,-4.042476,-0.011644,0.006781,0.000000,0.342921,0.039036,-0.000000
0.040000,-3.019805,0.334423,-1.477033,0.007016,-0.004294,0.011195,-0.066907,-0.085016,-0.090661,0.409960,2.681513,0.325884,71.828240,-66.085402,-3.912353,-0.008586,0.006758,0.000000,0.270531,-0.041182,0.000000
0.050000,-3.019738,0.334377,-1.476926,0.006379,-0.005021,0.010304,-0.059451,-0.061322,-0.087596,1.058596,2.074994,0.287410,58.200301,-55.431876,-3.782366,-0.006195,0.006007,0.000000,0.209451,-0.106775,0.000000
0.060000,-3.019677,0.334324,-1.476827,0.005847,-0.005539,0.009442,-0.046160,-0.043182,-0.084909,1.579806,1.568731,0.250236,46.324362,-46.021592,-3.652389,-0.004364,0.004665,0.000000,0.158421,-0.159536,-0.000000
0.070000,-3.019620,0.334266,-1.476737,0.005471,-0.005900,0.008605,-0.028223,-0.029654,-0.082587,1.990550,1.150672,0.214363,36.088248,-37.778622,-3.522292,-0.002998,0.002853,0.000000,0.116248,-0.201152,0.000000
0.080000,-3.019567,0.334206,-1.476655,0.005294,-0.006145,0.007789,-0.006664,-0.019912,-0.080617,2.306664,0.809521,0.179791,27.379784,-30.627038,-3.391950,-0.002013,0.000674,0.000000,0.081810,-0.233205,-0.000000
0.090000,-3.019514,0.334144,-1.476581,0.005347,-0.006308,0.006991,0.017644,-0.013242,-0.078987,2.542864,0.534746,0.146525,20.086795,-24.490909,-3.261233,-0.001339,-0.001784,0.000000,0.054055,-0.257166,-0.000000
0.100000,-3.019459,0.334080,-1.476515,0.005654,-0.006418,0.006208,0.043972,-0.009029,-0.077682,2.712744,0.316571,0.114568,14.097106,-19.294307,-3.130016,-0.000913,-0.004447,0.000000,0.032007,-0.274402,-0.000000
0.110000,-3.019400,0.334015,-1.476457,0.006231,-0.006495,0.005436,0.071720,-0.006752,-0.076691,2.828776,0.145981,0.083927,9.298543,-14.961304,-2.998169,-0.000683,-0.007254,0.000000,0.014761,-0.286166,0.000000
0.120000,-3.019333,0.333950,-1.476406,0.007091,-0.006558,0.004673,0.100406,-0.005978,-0.075999,2.902311,0.014720,0.054607,5.578929,-11.415970,-2.865565,-0.000605,-0.010156,0.000000,0.001487,-0.293604,0.000000
0.130000,-3.019257,0.333884,-1.476363,0.008241,-0.006619,0.003915,0.129659,-0.006352,-0.075594,2.943577,-0.084711,0.026618,2.826091,-8.582376,-2.732077,-0.000642,-0.013115,0.000000,-0.008568,-0.297748,0.000000
0.140000,-3.019168,0.333818,-1.476328,0.009685,-0.006688,0.003160,0.159201,-0.007589,-0.075463,2.961682,-0.159047,-0.000031,0.927853,-6.384594,-2.597577,-0.000768,-0.016103,0.000000,-0.016083,-0.299522,0.000000
0.150000,-3.019062,0.333750,-1.476300,0.011426,-0.006772,0.002405,0.188842,-0.009469,-0.075591,2.964609,-0.214269,-0.025329,-0.227961,-4.746695,-2.461938,-0.000958,-0.019100,0.000000,-0.021663,-0.299734,-0.000000
0.160000,-3.018938,0.333682,-1.476280,0.013462,-0.006879,0.001648,0.218465,-0.011828,-0.075965,2.959223,-0.255594,-0.049265,-0.753524,-3.592750,-2.325032,-0.001196,-0.022095,0.000000,-0.025834,-0.299079,0.000000
0.170000,-3.018792,0.333613,-1.476267,0.015795,-0.007010,0.000885,0.248018,-0.014550,-0.076571,2.951266,-0.287484,-0.071825,-0.761012,-2.846829,-2.186730,-0.001471,-0.025081,0.000000,-0.029047,-0.298142,-0.000000
0.180000,-3.018621,0.333542,-1.476262,0.018422,-0.007171,0.000116,0.277497,-0.017559,-0.077397,2.945356,-0.313638,-0.092995,-0.362600,-2.433004,-2.046906,-0.001775,-0.028058,0.000000,-0.031677,-0.297391,0.000000
0.190000,-3.018423,0.333469,-1.476265,0.021344,-0.007362,-0.000663,0.306943,-0.020813,-0.078426,2.944993,-0.336998,-0.112758,0.329537,-2.275347,-1.905433,-0.002104,-0.031031,0.000000,-0.034020,-0.297181,0.000000
0.200000,-3.018193,0.333395,-1.476275,0.024561,-0.007588,-0.001454,0.336424,-0.024297,-0.079647,2.952552,-0.359746,-0.131098,1.203224,-2.297928,-1.762181,-0.002455,-0.034005,0.000000,-0.036297,-0.297753,-0.000000
0.210000,-3.017931,0.333317,-1.476294,0.028065,-0.007843,-0.002257,0.366351,-0.028214,-0.081044,2.999289,-0.402001,-0.148018,1.388536,-1.952584,-1.616457,-0.002850,-0.037022,0.000000,-0.040540,-0.302263,-0.000000
0.220000,-3.017631,0.333238,-1.476321,0.031878,-0.008146,-0.003075,0.396417,-0.032327,-0.082602,3.014317,-0.420167,-0.163446,1.623833,-1.693445,-1.468769,-0.003265,-0.040051,0.000000,-0.042345,-0.303553,0.000000
0.230000,-3.017292,0.333154,-1.476356,0.035994,-0.008491,-0.003909,0.426645,-0.036610,-0.084308,3.031868,-0.436097,-0.177386,1.889727,-1.502407,-1.319060,-0.003697,-0.043094,0.000000,-0.043919,-0.305083,-0.000000
0.240000,-3.016910,0.333068,-1.476399,0.040412,-0.008879,-0.004762,0.457063,-0.041043,-0.086145,3.052149,-0.450381,-0.189820,2.166829,-1.361365,-1.167271,-0.004143,-0.046153,0.000000,-0.045323,-0.306875,-0.000000
0.250000,-3.016483,0.332977,-1.476451,0.045136,-0.009312,-0.005633,0.487698,-0.045613,-0.088099,3.075177,-0.463430,-0.200725,2.435748,-1.252215,-1.013345,-0.004603,-0.049232,0.000000,-0.046599,-0.308931,-0.000000
0.260000,-3.016006,0.332881,-1.476512,0.050165,-0.009790,-0.006524,0.518639,-0.050360,-0.090155,3.106618,-0.480231,-0.210112,2.529454,-1.036651,-0.856391,-0.005080,-0.052339,0.000000,-0.048249,-0.311823,-0.000000
0.270000,-3.015478,0.332781,-1.476581,0.055507,-0.010318,-0.007436,0.549833,-0.055211,-0.092296,3.132261,-0.489564,-0.217883,2.594278,-0.831490,-0.697285,-0.005567,-0.055469,0.000000,-0.049142,-0.314122,0.000000
0.280000,-3.014895,0.332675,-1.476660,0.061162,-0.010895,-0.008370,0.581286,-0.060145,-0.094507,3.158403,-0.496884,-0.224051,2.628910,-0.633344,-0.536071,-0.006062,-0.058622,0.000000,-0.049830,-0.316462,-0.000000
0.290000,-3.014254,0.332563,-1.476749,0.067134,-0.011521,-0.009326,0.613001,-0.065142,-0.096772,3.184734,-0.502243,-0.228597,2.632041,-0.438830,-0.372791,-0.006563,-0.061798,0.000000,-0.050317,-0.318815,-0.000000
0.300000,-3.013552,0.332444,-1.476847,0.073423,-0.012197,-0.010306,0.644980,-0.070183,-0.099074,3.210934,-0.505661,-0.231500,2.602359,-0.244560,-0.207490,-0.007068,-0.064998,0.000000,-0.050607,-0.321150,0.000000
0.310000,-3.012785,0.332319,-1.476955,0.080034,-0.012924,-0.011308,0.677224,-0.075260,-0.101397,3.237179,-0.508163,-0.232810,2.525646,-0.020912,-0.038456,-0.007575,-0.068222,0.000000,-0.050803,-0.323487,-0.000000
0.320000,-3.011950,0.332185,-1.477073,0.086969,-0.013702,-0.012334,0.709720,-0.080339,-0.103724,3.261911,-0.507240,-0.232342,2.415080,0.206049,0.132298,-0.008083,-0.071468,0.000000,-0.050654,-0.325672,-0.000000
0.330000,-3.011044,0.332044,-1.477202,0.094229,-0.014531,-0.013382,0.742458,-0.085397,-0.106038,3.285369,-0.504030,-0.230159,2.270933,0.436498,0.304512,-0.008588,-0.074735,0.000000,-0.050274,-0.327731,-0.000000
0.340000,-3.010064,0.331895,-1.477341,0.101818,-0.015410,-0.014454,0.775422,-0.090412,-0.108322,3.307218,-0.498498,-0.226248,2.093474,0.670605,0.477929,-0.009088,-0.078022,0.000000,-0.049662,-0.329633,0.000000
0.350000,-3.009007,0.331736,-1.477491,0.109738,-0.016339,-0.015549,0.808596,-0.095359,-0.110557,3.327128,-0.490605,-0.220597,1.882975,0.908545,0.652289,-0.009580,-0.081327,0.000000,-0.048814,-0.331348,0.000000
0.360000,-3.007868,0.331568,-1.477652,0.117991,-0.017317,-0.016665,0.841956,-0.100219,-0.112729,3.344661,-0.480631,-0.213287,1.642426,1.158502,0.829539,-0.010063,-0.084649,0.000000,-0.047759,-0.332834,0.000000
0.370000,-3.006646,0.331389,-1.477824,0.126578,-0.018343,-0.017803,0.875480,-0.104963,-0.114817,3.359746,-0.467782,-0.204104,1.369045,1.411656,1.006946,-0.010535,-0.087984,0.000000,-0.046418,-0.334087,0.000000
0.380000,-3.005336,0.331201,-1.478008,0.135501,-0.019416,-0.018961,0.909141,-0.109566,-0.116805,3.371932,-0.452390,-0.193149,1.062767,1.667199,1.183981,-0.010991,-0.091330,0.000000,-0.044826,-0.335067,0.000000
0.390000,-3.003935,0.331001,-1.478204,0.144761,-0.020534,-0.020139,0.942908,-0.114003,-0.118674,3.380891,-0.434433,-0.180428,0.723530,1.924322,1.360114,-0.011430,-0.094684,0.000000,-0.042982,-0.335742,-0.000000
0.400000,-3.002439,0.330790,-1.478411,0.154359,-0.021695,-0.021334,0.976747,-0.118246,-0.120407,3.386293,-0.413901,-0.165952,0.351272,2.182217,1.534817,-0.011850,-0.098044,0.000000,-0.040884,-0.336083,0.000000
0.410000,-3.000846,0.330567,-1.478630,0.164296,-0.022898,-0.022546,1.010621,-0.122271,-0.121989,3.387772,-0.390742,-0.149874,-0.053213,2.438908,1.710991,-0.012247,-0.101405,0.000000,-0.038530,-0.336057,-0.000000
0.420000,-2.999152,0.330332,-1.478862,0.174572,-0.024140,-0.023773,1.044489,-0.126053,-0.123399,3.385079,-0.365073,-0.131895,-0.490950,2.694897,1.884257,-0.012620,-0.104764,0.000000,-0.035932,-0.335643,-0.000000
0.430000,-2.997354,0.330084,-1.479106,0.185186,-0.025418,-0.025014,1.078307,-0.129564,-0.124621,3.377842,-0.336849,-0.112201,-0.962109,2.949520,2.053667,-0.012965,-0.108117,0.000000,-0.033085,-0.334808,0.000000
0.440000,-2.995447,0.329823,-1.479362,0.196138,-0.026730,-0.026265,1.112029,-0.132781,-0.125638,3.365725,-0.306089,-0.090837,-1.466856,3.202112,2.218273,-0.013280,-0.111459,0.000000,-0.029993,-0.333522,-0.000000
0.450000,-2.993430,0.329549,-1.479631,0.207426,-0.028073,-0.027526,1.145604,-0.135678,-0.126432,3.348392,-0.272816,-0.067855,-2.005360,3.452008,2.377125,-0.013564,-0.114787,0.000000,-0.026659,-0.331753,0.000000
0.460000,-2.991298,0.329262,-1.479913,0.219049,-0.029442,-0.028793,1.178981,-0.138228,-0.126991,3.325689,-0.236982,-0.043457,-2.582432,3.696564,2.532813,-0.013813,-0.118094,0.000000,-0.023077,-0.329489,-0.000000
0.470000,-2.989048,0.328960,-1.480207,0.231005,-0.030836,-0.030064,1.212098,-0.140409,-0.127296,3.296839,-0.198809,-0.017384,-3.193029,3.937335,2.680418,-0.014025,-0.121375,0.000000,-0.019272,-0.326658,0.000000
0.480000,-2.986676,0.328645,-1.480514,0.243290,-0.032249,-0.031338,1.244897,-0.142197,-0.127334,3.261718,-0.158249,0.010120,-3.836750,4.173900,2.818556,-0.014197,-0.124625,0.000000,-0.015238,-0.323250,-0.000000
0.490000,-2.984181,0.328315,-1.480834,0.255901,-0.033679,-0.032610,1.277311,-0.143567,-0.127090,3.219995,-0.115346,0.038951,-4.513194,4.405836,2.945847,-0.014329,-0.127839,0.000000,-0.010979,-0.319234,0.000000
0.500000,-2.981557,0.327971,-1.481166,0.268835,-0.035119,-0.033879,1.309273,-0.144496,-0.126551,3.171346,-0.070149,0.068996,-5.221959,4.632720,3.060908,-0.014416,-0.131009,0.000000,-0.006500,-0.314580,-0.000000
0.510000,-2.978803,0.327613,-1.481511,0.282085,-0.036567,-0.035140,1.340718,-0.144963,-0.125707,3.115867,-0.022796,0.100046,-5.973191,4.856300,3.164321,-0.014458,-0.134129,0.000000,-0.001815,-0.309297,0.000000
0.520000,-2.975915,0.327240,-1.481869,0.295647,-0.038017,-0.036392,1.371565,-0.144944,-0.124547,3.052252,0.026859,0.132144,-6.754652,5.073718,3.252500,-0.014452,-0.137193,0.000000,0.003091,-0.303260,0.000000
0.530000,-2.972889,0.326853,-1.482239,0.309514,-0.039464,-0.037630,1.401737,-0.144419,-0.123061,2.980679,0.078655,0.165040,-7.564651,5.284282,3.323822,-0.014396,-0.140193,0.000000,0.008202,-0.296486,0.000000
0.540000,-2.969723,0.326451,-1.482622,0.323679,-0.040903,-0.038852,1.431151,-0.143364,-0.121244,2.900870,0.132520,0.198559,-8.401497,5.487305,3.376666,-0.014287,-0.143121,0.000000,0.013514,-0.288946,-0.000000
0.550000,-2.966415,0.326035,-1.483016,0.338134,-0.042330,-0.040054,1.459726,-0.141762,-0.119089,2.812565,0.188374,0.232506,-9.263498,5.682099,3.409408,-0.014125,-0.145969,0.000000,0.019018,-0.280614,-0.000000
0.560000,-2.962960,0.325604,-1.483423,0.352870,-0.043737,-0.041232,1.487378,-0.139590,-0.116593,2.715929,0.246222,0.266692,-10.159262,5.865698,3.419989,-0.013906,-0.148731,0.000000,0.024718,-0.271504,0.000000
0.570000,-2.959356,0.325160,-1.483841,0.367878,-0.045119,-0.042385,1.514014,-0.136831,-0.113755,2.609771,0.305758,0.300848,-11.075536,6.039968,3.407277,-0.013630,-0.151397,0.000000,0.030583,-0.261496,-0.000000
0.580000,-2.955601,0.324702,-1.484270,0.383147,-0.046471,-0.043506,1.539542,-0.133469,-0.110577,2.494360,0.366989,0.334754,-12.009368,6.204499,3.369704,-0.013294,-0.153959,0.000000,0.036617,-0.250611,-0.000000
0.590000,-2.951692,0.324231,-1.484711,0.398665,-0.047787,-0.044595,1.563870,-0.129486,-0.107062,2.369535,0.429815,0.368154,-12.957804,6.358881,3.305701,-0.012897,-0.156407,0.000000,0.042812,-0.238830,0.000000
0.600000,-2.947627,0.323746,-1.485162,0.414420,-0.049059,-0.045647,1.586901,-0.124868,-0.103216,2.235165,0.494132,0.400775,-13.917891,6.502703,3.213699,-0.012437,-0.158733,0.000000,0.049159,-0.226132,0.000000
0.610000,-2.943403,0.323250,-1.485623,0.430398,-0.050282,-0.046658,1.608546,-0.119599,-0.099047,2.091602,0.559856,0.432549,-14.898129,6.634944,3.086575,-0.011913,-0.160927,0.000000,0.055653,-0.212550,-0.000000
0.620000,-2.939019,0.322741,-1.486095,0.446586,-0.051449,-0.047627,1.628701,-0.113666,-0.094570,1.937699,0.626820,0.462653,-15.882710,6.755879,2.928995,-0.011324,-0.162981,0.000000,0.062279,-0.197952,-0.000000
0.630000,-2.934471,0.322221,-1.486576,0.462967,-0.052553,-0.048549,1.647267,-0.107058,-0.089800,1.773948,0.694935,0.491025,-16.867279,6.865175,2.740069,-0.010667,-0.164883,0.000000,0.069032,-0.182383,0.000000
0.640000,-2.929759,0.321690,-1.487066,0.479526,-0.053588,-0.049422,1.664147,-0.099764,-0.084756,1.600368,0.764084,0.517347,-17.847480,6.962495,2.518910,-0.009943,-0.166625,0.000000,0.075902,-0.165833,-0.000000
0.650000,-2.924880,0.321149,-1.487564,0.496244,-0.054546,-0.050243,1.679242,-0.091774,-0.079461,1.417027,0.834144,0.541292,-18.818958,7.047504,2.264627,-0.009149,-0.168197,0.000000,0.082879,-0.148298,0.000000
0.660000,-2.919833,0.320599,-1.488070,0.513104,-0.055421,-0.051010,1.692461,-0.083078,-0.073934,1.224542,0.905059,0.563000,-19.790232,7.118170,1.964369,-0.008285,-0.169589,0.000000,0.089961,-0.129834,-0.000000
0.670000,-2.914617,0.320041,-1.488584,0.530087,-0.056205,-0.051721,1.703701,-0.073670,-0.068212,1.021860,0.976541,0.581002,-20.742496,7.176064,1.630676,-0.007349,-0.170790,0.000000,0.097122,-0.110306,-0.000000
0.680000,-2.909231,0.319476,-1.489105,0.547171,-0.056892,-0.052374,1.712867,-0.063545,-0.062326,0.809776,1.048537,0.595504,-21.669818,7.221056,1.264123,-0.006342,-0.171792,0.000000,0.104358,-0.089786,0.000000
0.690000,-2.903674,0.318904,-1.489631,0.564337,-0.057474,-0.052967,1.719866,-0.052698,-0.056314,0.588567,1.120918,0.606177,-22.566268,7.253021,0.865287,-0.005262,-0.172583,0.000000,0.111659,-0.068288,0.000000
0.700000,-2.897944,0.318327,-1.490164,0.581561,-0.057943,-0.053500,1.724609,-0.041126,-0.050216,0.358573,1.193554,0.612704,-23.425912,7.271830,0.434744,-0.004109,-0.173154,0.000000,0.119013,-0.045832,-0.000000
0.710000,-2.892042,0.317745,-1.490701,0.598821,-0.058294,-0.053972,1.727008,-0.028827,-0.044067,0.120079,1.266324,0.615477,-24.239984,7.277012,-0.044822,-0.002881,-0.173496,0.000000,0.126409,-0.022443,0.000000
0.720000,-2.885968,0.317161,-1.491243,0.616093,-0.058517,-0.054382,1.726984,-0.015800,-0.037923,-0.126192,1.339065,0.612511,-25.005735,7.268826,-0.552752,-0.001580,-0.173600,0.000000,0.133831,0.001850,0.000000
0.730000,-2.879721,0.316575,-1.491789,0.633352,-0.058607,-0.054730,1.724459,-0.002046,-0.031835,-0.379856,1.411656,0.604336,-25.717582,7.247187,-1.086280,-0.000205,-0.173456,0.000000,0.141268,0.027008,-0.000000
0.740000,-2.873301,0.315989,-1.492337,0.650574,-0.058556,-0.055019,1.719364,0.012433,-0.025855,-0.640346,1.483963,0.590710,-26.369939,7.212010,-1.642637,0.001245,-0.173057,0.000000,0.148705,0.052986,0.000000
0.750000,-2.866709,0.315405,-1.492889,0.667731,-0.058356,-0.055248,1.711632,0.027632,-0.020039,-0.907038,1.555851,0.571417,-26.957223,7.163209,-2.219057,0.002769,-0.172394,0.000000,0.156127,0.079733,0.000000
0.760000,-2.859947,0.314823,-1.493442,0.684797,-0.058001,-0.055420,1.701200,0.043549,-0.014437,-1.179695,1.627267,0.547054,-27.462722,7.098555,-2.832542,0.004368,-0.171460,0.000000,0.163527,0.107220,-0.000000
0.770000,-2.853014,0.314245,-1.493997,0.701746,-0.057483,-0.055538,1.688022,0.060175,-0.009119,-1.456540,1.697872,0.515608,-27.893342,7.020370,-3.458134,0.006040,-0.170248,0.000000,0.170867,0.135309,0.000000
0.780000,-2.845912,0.313674,-1.494553,0.718549,-0.056795,-0.055604,1.672056,0.077503,-0.004146,-1.737298,1.767629,0.477868,-28.244861,6.928831,-4.090648,0.007785,-0.168752,0.000000,0.178138,0.163960,-0.000000
0.790000,-2.838643,0.313110,-1.495109,0.735178,-0.055931,-0.055622,1.653266,0.095524,0.000417,-2.021159,1.836405,0.433789,-28.513057,6.824113,-4.724893,0.009602,-0.166967,0.000000,0.185322,0.193093,0.000000
0.800000,-2.831209,0.312556,-1.495665,0.751604,-0.054882,-0.055597,1.631625,0.114228,0.004509,-2.307268,1.904068,0.383382,-28.693708,6.706396,-5.355683,0.011491,-0.164888,0.000000,0.192400,0.222619,-0.000000
0.810000,-2.823612,0.312013,-1.496221,0.767801,-0.053644,-0.055534,1.607107,0.133601,0.008071,-2.595551,1.970491,0.327300,-28.761784,6.575827,-5.992869,0.013450,-0.162512,0.000000,0.199352,0.252514,0.000000
0.820000,-2.815854,0.311484,-1.496776,0.783737,-0.052208,-0.055438,1.579714,0.153633,0.011034,-2.883121,2.035544,0.264248,-28.736421,6.432615,-6.614382,0.015477,-0.159837,0.000000,0.206156,0.282503,-0.000000
0.830000,-2.807938,0.310969,-1.497329,0.799385,-0.050569,-0.055315,1.549447,0.174307,0.013335,-3.169963,2.099102,0.195088,-28.615943,6.276941,-7.213194,0.017572,-0.156861,0.000000,0.212789,0.312558,-0.000000
0.840000,-2.799867,0.310473,-1.497882,0.814717,-0.048720,-0.055174,1.516320,0.195610,0.014916,-3.455117,2.161042,0.120083,-28.398678,6.108987,-7.782276,0.019733,-0.153585,0.000000,0.219231,0.342564,-0.000000
0.850000,-2.791645,0.309996,-1.498433,0.829702,-0.046655,-0.055020,1.480354,0.217522,0.015718,-3.737608,2.221242,0.039565,-28.082951,5.928932,-8.314597,0.021956,-0.150009,0.000000,0.225459,0.372401,-0.000000
0.860000,-2.783275,0.309541,-1.498982,0.844315,-0.044368,-0.054862,1.441566,0.240028,0.015692,-4.017709,2.279575,-0.045915,-27.635085,5.737111,-8.806874,0.024241,-0.146135,0.000000,0.231450,0.402068,0.000000
0.870000,-2.774760,0.309109,-1.499530,0.858525,-0.041852,-0.054709,1.400016,0.263107,0.014785,-4.291412,2.335938,-0.136234,-27.089328,5.533531,-9.247875,0.026584,-0.141967,0.000000,0.237180,0.431138,-0.000000
0.880000,-2.766106,0.308704,-1.500077,0.872306,-0.039104,-0.054569,1.355758,0.286740,0.012953,-4.559177,2.390207,-0.230676,-26.447926,5.318357,-9.630110,0.028984,-0.137511,0.000000,0.242627,0.459622,-0.000000
0.890000,-2.757316,0.308328,-1.500622,0.885631,-0.036116,-0.054453,1.308856,0.310904,0.010159,-4.820059,2.442267,-0.328616,-25.713125,5.091749,-9.946093,0.031436,-0.132773,0.000000,0.247770,0.487390,-0.000000
0.900000,-2.748395,0.307983,-1.501166,0.898475,-0.032884,-0.054370,1.259383,0.335577,0.006372,-5.073136,2.492004,-0.429352,-24.887169,4.853869,-10.188336,0.033938,-0.127761,0.000000,0.252587,0.514313,0.000000
0.910000,-2.739348,0.307671,-1.501709,0.910811,-0.029403,-0.054329,1.207417,0.360738,0.001560,-5.317973,2.539504,-0.532594,-23.960506,4.599917,-10.337163,0.036487,-0.122484,0.000000,0.257075,0.540315,-0.000000
0.920000,-2.730180,0.307396,-1.502252,0.922615,-0.025668,-0.054342,1.153056,0.386359,-0.004284,-5.552589,2.584190,-0.636349,-22.948623,4.335625,-10.398767,0.039078,-0.116951,0.000000,0.261174,0.565145,0.000000
0.930000,-2.720897,0.307159,-1.502796,0.933864,-0.021674,-0.054418,1.096400,0.412413,-0.011167,-5.776674,2.626184,-0.740259,-21.855210,4.061764,-10.367151,0.041709,-0.111176,0.000000,0.264888,0.588744,-0.000000
0.940000,-2.711505,0.306963,-1.503341,0.944536,-0.017418,-0.054568,1.037560,0.438873,-0.019086,-5.989433,2.665396,-0.843361,-20.683957,3.779103,-10.236320,0.044375,-0.105171,0.000000,0.268204,0.610998,-0.000000
0.950000,-2.702009,0.306811,-1.503888,0.954609,-0.012895,-0.054803,0.976652,0.465711,-0.028028,-6.190106,2.701740,-0.944634,-19.438553,3.488412,-10.000278,0.047072,-0.098949,0.000000,0.271112,0.631800,0.000000
0.960000,-2.692415,0.306706,-1.504437,0.964063,-0.008102,-0.055132,0.913795,0.492895,-0.037981,-6.378481,2.734856,-1.044075,-18.109772,3.197630,-9.625782,0.049795,-0.092525,0.000000,0.273571,0.651111,-0.000000
0.970000,-2.682729,0.306650,-1.504991,0.972879,-0.003036,-0.055566,0.849128,0.520399,-0.048895,-6.552661,2.765348,-1.137987,-16.715802,2.899480,-9.137421,0.052542,-0.085916,0.000000,0.275658,0.668695,0.000000
0.980000,-2.672959,0.306646,-1.505549,0.981040,0.002307,-0.056113,0.782789,0.548192,-0.060723,-6.712597,2.792821,-1.226435,-15.261913,2.593855,-8.532535,0.055307,-0.079139,0.000000,0.277335,0.684545,-0.000000
0.990000,-2.663111,0.306697,-1.506113,0.988529,0.007928,-0.056783,0.714925,0.576245,-0.073402,-6.857717,2.817199,-1.308240,-13.753377,2.280646,-7.808467,0.058087,-0.072210,0.000000,0.278605,0.698595,0.000000
1.000000,-2.653191,0.306806,-1.506685,0.995333,0.013832,-0.057584,0.645686,0.604525,-0.086861,-6.987500,2.838408,-1.382198,-12.195466,1.959745,-6.962555,0.060878,-0.065149,0.000000,0.279471,0.710793,0.000000
1.010000,-2.643207,0.306975,-1.507266,1.001439,0.020020,-0.058522,0.575234,0.633003,-0.101033,-7.100885,2.856418,-1.448667,-10.608467,1.629794,-5.951963,0.063675,-0.057975,0.000000,0.279938,0.721048,-0.000000
1.020000,-2.633165,0.307207,-1.507856,1.006834,0.026493,-0.059606,0.503722,0.661643,-0.115799,-7.198863,2.871034,-1.502624,-8.980796,1.292088,-4.819130,0.066475,-0.050705,0.000000,0.280028,0.729453,0.000000
1.030000,-2.623072,0.307505,-1.508458,1.011510,0.033253,-0.060840,0.431312,0.690412,-0.131046,-7.280376,2.882234,-1.544650,-7.315885,0.946674,-3.566317,0.069274,-0.043360,0.000000,0.279753,0.735939,-0.000000
1.040000,-2.612937,0.307873,-1.509073,1.015458,0.040301,-0.062228,0.358170,0.719276,-0.146648,-7.345068,2.889942,-1.573558,-5.617169,0.593595,-2.195785,0.072069,-0.035957,0.000000,0.279129,0.740502,0.000000
1.050000,-2.602766,0.308312,-1.509703,1.018672,0.047639,-0.063773,0.284468,0.748199,-0.162469,-7.392619,2.894080,-1.588181,-3.888078,0.232898,-0.709795,0.074856,-0.028518,0.000000,0.278175,0.743152,-0.000000
1.060000,-2.592566,0.308827,-1.510349,1.021146,0.055265,-0.065477,0.210382,0.777146,-0.178380,-7.422155,2.894600,-1.589239,-2.146816,-0.136031,0.936440,0.077631,-0.021060,0.000000,0.276903,0.743852,0.000000
1.070000,-2.582345,0.309419,-1.511013,1.022878,0.063181,-0.067340,0.136083,0.806078,-0.194197,-7.434811,2.891364,-1.571202,-0.380237,-0.512407,2.687852,0.080393,-0.013602,0.000000,0.275364,0.742761,0.000000
1.080000,-2.572111,0.310091,-1.511697,1.023868,0.071387,-0.069360,0.061746,0.834960,-0.209744,-7.429681,2.884328,-1.535158,1.410035,-0.896106,4.536416,0.083138,-0.006162,0.000000,0.273573,0.739856,-0.000000
1.090000,-2.561870,0.310847,-1.512401,1.024114,0.079880,-0.071533,-0.012451,0.863752,-0.224837,-7.406537,2.873418,-1.480176,3.222377,-1.287002,6.474113,0.085864,0.001241,0.000000,0.271557,0.735180,-0.000000
1.100000,-2.551631,0.311690,-1.513128,1.023620,0.088661,-0.073855,-0.086324,0.892415,-0.239282,-7.365166,2.858564,-1.405405,5.055164,-1.684969,8.492920,0.088568,0.008590,0.000000,0.269343,0.728782,0.000000
1.110000,-2.541400,0.312622,-1.513879,1.022389,0.097728,-0.076316,-0.159687,0.920905,-0.252897,-7.304881,2.839222,-1.311889,6.894388,-2.077911,10.630650,0.091249,0.015868,0.000000,0.266897,0.720660,-0.000000
1.120000,-2.531186,0.313645,-1.514655,1.020428,0.107079,-0.078908,-0.232360,0.949187,-0.265448,-7.226662,2.816444,-1.194640,8.752325,-2.479139,12.827833,0.093906,0.023058,0.000000,0.264397,0.710994,0.000000
1.130000,-2.520994,0.314764,-1.515457,1.017745,0.116711,-0.081620,-0.304158,0.977220,-0.276715,-7.129772,2.789607,-1.055180,10.628869,-2.889993,15.070837,0.096537,0.030145,0.000000,0.261799,0.699781,-0.000000
1.140000,-2.510833,0.315981,-1.516287,1.014348,0.126622,-0.084438,-0.374893,1.004965,-0.286476,-7.014023,2.758608,-0.893116,12.523913,-3.311812,17.346025,0.099142,0.037114,0.000000,0.259124,0.687073,-0.000000
1.150000,-2.500709,0.317297,-1.517146,1.010251,0.136809,-0.087344,-0.444375,1.032378,-0.294501,-6.879232,2.723330,-0.708197,14.437348,-3.745937,19.639765,0.101719,0.043950,0.000000,0.256395,0.672922,0.000000
1.160000,-2.490630,0.318718,-1.518035,1.005466,0.147269,-0.090321,-0.512408,1.059418,-0.300579,-6.724660,2.683717,-0.501750,16.355037,-4.195568,21.974930,0.104269,0.050637,0.000000,0.253620,0.657309,-0.000000
1.170000,-2.480602,0.320244,-1.518953,1.000008,0.157996,-0.093348,-0.578804,1.086037,-0.304459,-6.551439,2.639452,-0.270372,18.292621,-4.659956,24.296908,0.106792,0.057163,0.000000,0.250833,0.640422,-0.000000
1.180000,-2.470632,0.321878,-1.519902,0.993896,0.168988,-0.096402,-0.643371,1.112191,-0.305909,-6.358736,2.590465,-0.015916,20.251710,-5.140216,26.587593,0.109286,0.063514,0.000000,0.248035,0.622221,0.000000
1.190000,-2.460727,0.323624,-1.520881,0.987147,0.180238,-0.099457,-0.705913,1.137830,-0.304701,-6.146328,2.536591,0.261215,22.233917,-5.637459,28.828880,0.111752,0.069678,0.000000,0.245234,0.602728,-0.000000
1.200000,-2.450891,0.325484,-1.521891,0.979785,0.191743,-0.102486,-0.766231,1.162906,-0.300611,-5.913975,2.477655,0.560436,24.240850,-6.152799,31.002664,0.114191,0.075640,0.000000,0.242431,0.581949,0.000000
1.210000,-2.441133,0.327460,-1.522930,0.971831,0.203494,-0.105459,-0.824134,1.187369,-0.293429,-5.662239,2.413748,0.880336,26.294728,-6.694348,33.107182,0.116601,0.081390,0.000000,0.239644,0.559955,-0.000000
1.220000,-2.431457,0.329555,-1.524000,0.963311,0.215488,-0.108343,-0.879407,1.211162,-0.282936,-5.388916,2.344016,1.221498,28.374030,-7.255362,35.105986,0.118983,0.086911,0.000000,0.236822,0.536552,0.000000
1.230000,-2.421868,0.331771,-1.525097,0.954252,0.227715,-0.111106,-0.931843,1.234230,-0.268934,-5.094676,2.268575,1.582036,30.477847,-7.836094,36.978972,0.121337,0.092192,0.000000,0.233973,0.511792,-0.000000
1.240000,-2.412373,0.334110,-1.526221,0.944684,0.240170,-0.113710,-0.981230,1.256514,-0.251235,-4.779280,2.187228,1.960591,32.605264,-8.436799,38.706033,0.123663,0.097218,0.000000,0.231084,0.485632,0.000000
1.250000,-2.402976,0.336575,-1.527370,0.934639,0.252843,-0.116118,-1.027357,1.277954,-0.229667,-4.442496,2.099772,2.355603,34.755369,-9.057733,40.267065,0.125959,0.101975,0.000000,0.228132,0.458012,0.000000
1.260000,-2.393682,0.339167,-1.528543,0.924149,0.265726,-0.118290,-1.070024,1.298494,-0.204068,-4.085531,2.006500,2.765865,36.963400,-9.711660,41.627986,0.128226,0.106448,0.000000,0.225143,0.429002,0.000000
1.270000,-2.384495,0.341890,-1.529735,0.913251,0.278809,-0.120185,-1.108994,1.318062,-0.174308,-3.704787,1.906033,3.188105,39.187869,-10.384793,42.784376,0.130461,0.110620,0.000000,0.221958,0.398161,0.000000
1.280000,-2.375418,0.344744,-1.530945,0.901982,0.292083,-0.121762,-1.144045,1.336592,-0.140271,-3.301737,1.798744,3.620810,41.423435,-11.075858,43.717843,0.132664,0.114474,0.000000,0.218599,0.365547,0.000000
1.290000,-2.366456,0.347732,-1.532169,0.890384,0.305537,-0.122976,-1.174954,1.354014,-0.101865,-2.876299,1.684460,4.061658,43.664761,-11.783576,44.409991,0.134833,0.117990,0.000000,0.215022,0.331036,0.000000
1.300000,-2.357612,0.350856,-1.533403,0.878498,0.319160,-0.123784,-1.201496,1.370257,-0.059019,-2.428440,1.563022,4.508144,45.906507,-12.506672,44.842426,0.136964,0.121148,0.000000,0.211175,0.294490,-0.000000
1.310000,-2.348887,0.354116,-1.534644,0.866370,0.332938,-0.124142,-1.223474,1.385259,-0.011669,-1.960570,1.435085,4.959725,48.203575,-13.264192,44.942541,0.139056,0.123930,0.000000,0.207106,0.256015,0.000000
1.320000,-2.340285,0.357515,-1.535885,0.854045,0.346860,-0.124003,-1.240631,1.398933,0.040174,-1.467117,1.298610,5.408449,50.483009,-14.032048,44.752792,0.141104,0.126310,0.000000,0.202498,0.214811,-0.000000
1.330000,-2.331807,0.361053,-1.537122,0.841574,0.360912,-0.123324,-1.252741,1.411205,0.096489,-0.951011,1.154422,5.853776,52.732094,-14.806475,44.261424,0.143104,0.128261,0.000000,0.197397,0.170989,0.000000
1.340000,-2.323454,0.364733,-1.538349,0.829008,0.375079,-0.122059,-1.259577,1.421996,0.157228,-0.412619,1.002472,6.292632,54.938115,-15.583708,43.456681,0.145050,0.129756,0.000000,0.191721,0.124352,0.000000
1.350000,-2.315227,0.368555,-1.539561,0.816401,0.389347,-0.120165,-1.260921,1.431229,0.222309,0.147566,0.842751,6.721826,57.088357,-16.359983,42.326805,0.146937,0.130764,0.000000,0.185382,0.074693,-0.000000
1.360000,-2.307126,0.372521,-1.540750,0.803809,0.403698,-0.117600,-1.256581,1.438834,0.291663,0.726600,0.676065,7.141937,59.228706,-17.151171,40.761768,0.148757,0.131258,0.000000,0.178416,0.022084,-0.000000
1.370000,-2.299150,0.376630,-1.541910,0.791290,0.418117,-0.114319,-1.246319,1.444724,0.365090,1.329229,0.500640,7.540326,61.280670,-17.931466,38.860119,0.150502,0.131199,0.000000,0.170397,-0.034389,0.000000
1.380000,-2.291299,0.380883,-1.543034,0.778903,0.432587,-0.110285,-1.229929,1.448821,0.442401,1.951853,0.317493,7.918018,63.224357,-18.694698,36.622139,0.152162,0.130549,0.000000,0.161355,-0.094627,-0.000000
1.390000,-2.283571,0.385281,-1.544114,0.766712,0.447088,-0.105459,-1.207219,1.451048,0.523371,2.593289,0.126824,8.271649,65.039877,-19.434697,34.048102,0.153725,0.129270,0.000000,0.151164,-0.158850,-0.000000
1.400000,-2.275964,0.389825,-1.545141,0.754781,0.461601,-0.099806,-1.178005,1.451333,0.607742,3.252157,-0.071103,8.597861,66.707340,-20.145293,31.138288,0.155181,0.127320,0.000000,0.139688,-0.227270,0.000000
1.410000,-2.268475,0.394513,-1.546107,0.743175,0.476107,-0.093295,-1.142134,1.449607,0.695282,3.925856,-0.275598,8.898550,68.232608,-20.829545,27.760291,0.156515,0.124657,0.000000,0.126905,-0.299903,-0.000000
1.420000,-2.261099,0.399347,-1.547003,0.731961,0.490586,-0.085893,-1.099441,1.445799,0.785595,4.615022,-0.487139,9.157927,69.566884,-21.470926,24.063318,0.157713,0.121232,0.000000,0.112364,-0.377348,0.000000
1.430000,-2.253834,0.404325,-1.547822,0.721209,0.505016,-0.077575,-1.049792,1.439844,0.878312,5.316480,-0.704849,9.378808,70.687121,-22.062136,20.063894,0.158757,0.116999,0.000000,0.096039,-0.459537,0.000000
1.440000,-2.246673,0.409447,-1.548552,0.710989,0.519376,-0.068320,-0.993078,1.431683,0.973033,6.027974,-0.928190,9.558251,71.570275,-22.595874,15.778543,0.159628,0.111908,0.000000,0.077760,-0.546552,-0.000000
1.450000,-2.239612,0.414712,-1.549185,0.701371,0.533642,-0.058110,-0.929208,1.421263,1.069330,6.747019,-1.156551,9.693481,72.193301,-23.064843,11.223789,0.160305,0.105911,0.000000,0.057358,-0.638413,0.000000
1.460000,-2.232644,0.420120,-1.549711,0.692428,0.547794,-0.046931,-0.858104,1.408533,1.166806,7.472441,-1.389678,9.787313,72.494142,-23.450854,6.279036,0.160768,0.098957,0.000000,0.034715,-0.735178,-0.000000
1.470000,-2.225761,0.425668,-1.550120,0.684233,0.561805,-0.034773,-0.779754,1.393458,1.264908,8.197638,-1.625794,9.824451,72.493543,-23.758829,1.114719,0.160991,0.091000,0.000000,0.009542,-0.836412,-0.000000
1.480000,-2.218956,0.431355,-1.550403,0.676857,0.575655,-0.021633,-0.694157,1.376008,1.363119,8.921246,-1.864575,9.808987,72.173237,-23.982802,-4.235846,0.160950,0.081995,0.000000,-0.018252,-0.941950,0.000000
1.490000,-2.212221,0.437180,-1.550550,0.670374,0.589318,-0.007512,-0.601345,1.356161,1.460906,9.639977,-2.105150,9.739224,71.514956,-24.116805,-9.739346,0.160617,0.071901,0.000000,-0.048793,-1.051362,-0.000000
1.500000,-2.205546,0.443141,-1.550550,0.664854,0.602770,0.007582,-0.501385,1.333902,1.557718,10.350358,-2.346591,9.613801,70.500433,-24.154872,-15.362464,0.159964,0.060683,0.000000,-0.082173,-1.164054,0.000000
1.510000,-2.198921,0.449235,-1.550395,0.660368,0.615988,0.023636,-0.394328,1.309215,1.653033,11.053378,-2.589233,9.435375,68.994166,-24.057576,-21.165027,0.158963,0.048305,0.000000,-0.118523,-1.279795,0.000000
1.520000,-2.192335,0.455460,-1.550074,0.656989,0.628947,0.040634,-0.280374,1.282123,1.746232,11.734213,-2.828890,9.194520,67.109476,-23.856509,-27.009175,0.157584,0.034756,0.000000,-0.157628,-1.396305,0.000000
1.530000,-2.185777,0.461813,-1.549579,0.654783,0.641622,0.058552,-0.159713,1.252646,1.836729,12.394293,-3.066011,8.895202,64.842452,-23.549801,-32.850187,0.155801,0.020028,0.000000,-0.199482,-1.512968,0.000000
1.540000,-2.179235,0.468291,-1.548900,0.653817,0.653992,0.077358,-0.032570,1.220814,1.923941,13.029775,-3.299528,8.537676,62.189180,-23.135584,-38.643345,0.153586,0.004130,0.000000,-0.243901,-1.628359,0.000000
1.550000,-2.172696,0.474891,-1.548029,0.654153,0.666031,0.097018,0.100788,1.186671,2.007291,13.636776,-3.528358,8.122643,59.145748,-22.611987,-44.343928,0.150915,-0.012916,0.000000,-0.290590,-1.740836,-0.000000
1.560000,-2.166147,0.481610,-1.546957,0.655850,0.677718,0.117489,0.240129,1.150247,2.086207,14.218008,-3.753205,7.651291,55.540743,-21.931462,-49.908130,0.147766,-0.031080,0.000000,-0.339373,-1.849421,0.000000
1.570000,-2.159574,0.488445,-1.545677,0.658971,0.689029,0.138725,0.385022,1.111631,2.160134,14.753811,-3.968668,7.125129,51.558264,-21.143413,-55.290206,0.144124,-0.050288,0.000000,-0.389155,-1.950093,-0.000000
1.580000,-2.152963,0.495390,-1.544180,0.663568,0.699944,0.160673,0.535067,1.070902,2.228534,15.247970,-4.175728,6.546243,47.214907,-20.251565,-60.445325,0.139981,-0.070459,0.000000,-0.439530,-2.041717,-0.000000
1.590000,-2.146298,0.502442,-1.542461,0.669688,0.710441,0.183276,0.689830,1.028148,2.290891,15.696961,-4.373366,5.917128,42.527272,-19.259642,-65.328655,0.135334,-0.091488,0.000000,-0.489722,-2.122196,-0.000000
1.600000,-2.139564,0.509597,-1.540513,0.677378,0.720500,0.206469,0.848844,0.983469,2.346719,16.097424,-4.560599,5.240726,37.511955,-18.171368,-69.895365,0.130190,-0.113249,0.000000,-0.538863,-2.189496,0.000000
1.610000,-2.132745,0.516851,-1.538330,0.686676,0.730104,0.230188,1.011673,0.936957,2.395512,16.452316,-4.738068,4.516073,32.030163,-16.950462,-73.990676,0.124560,-0.135608,0.000000,-0.586317,-2.242465,0.000000
1.620000,-2.125825,0.524198,-1.535908,0.697620,0.739234,0.254356,1.177703,0.888750,2.436910,16.744046,-4.901115,3.757313,26.272913,-15.645553,-77.693167,0.118473,-0.158392,0.000000,-0.630431,-2.277762,-0.000000
1.630000,-2.118787,0.531634,-1.533242,0.710239,0.747874,0.278900,1.346358,0.838979,2.470542,16.976975,-5.050728,2.963623,20.275831,-14.265264,-80.971470,0.111964,-0.181424,0.000000,-0.670622,-2.295007,0.000000
1.640000,-2.111615,0.539153,-1.530329,0.724554,0.756009,0.303740,1.517039,0.787782,2.496081,17.148882,-5.186197,2.139402,14.074540,-12.818218,-83.794215,0.105077,-0.204518,0.000000,-0.706053,-2.293428,-0.000000
1.650000,-2.104290,0.546752,-1.527166,0.740584,0.763626,0.328794,1.689126,0.735304,2.513244,17.257903,-5.306898,1.289362,7.704668,-11.313037,-86.130035,0.097862,-0.227483,0.000000,-0.736017,-2.272749,-0.000000
1.660000,-2.096797,0.554424,-1.523752,0.758338,0.770712,0.353979,1.862019,0.681687,2.521715,17.305895,-5.413040,0.410797,1.116900,-9.739478,-87.752266,0.090374,-0.250131,0.000000,-0.760160,-2.233359,0.000000
1.670000,-2.089118,0.562164,-1.520086,0.777824,0.777256,0.379202,2.035023,0.627097,2.521414,17.283743,-5.502402,-0.472649,-5.557798,-8.127341,-88.848748,0.082680,-0.272273,0.000000,-0.777668,-2.175597,-0.000000
1.680000,-2.081235,0.569967,-1.516168,0.799037,0.783251,0.404377,2.207470,0.571694,2.512234,17.194602,-5.575495,-1.364401,-12.273401,-6.487560,-89.412026,0.074843,-0.293736,0.000000,-0.788647,-2.100926,0.000000
1.690000,-2.073131,0.577828,-1.511999,0.821969,0.788688,0.429417,2.378691,0.515642,2.494117,17.038293,-5.632097,-2.259088,-18.983884,-4.831067,-89.434646,0.066928,-0.314359,0.000000,-0.793178,-2.010963,-0.000000
1.700000,-2.064790,0.585739,-1.507581,0.846605,0.793562,0.454230,2.548013,0.459107,2.467060,16.815095,-5.672097,-3.151266,-25.643220,-3.168796,-88.909153,0.059000,-0.334001,0.000000,-0.791525,-1.907627,-0.000000
1.710000,-2.056194,0.593697,-1.502916,0.872921,0.797869,0.478731,2.714763,0.402258,2.431024,16.524918,-5.695204,-4.044130,-32.184327,-1.518919,-87.608068,0.051117,-0.352536,0.000000,-0.784120,-1.792536,0.000000
1.720000,-2.047326,0.601695,-1.498007,0.900889,0.801607,0.502824,2.878296,0.345258,2.386230,16.170937,-5.702203,-4.911463,-38.584814,0.115757,-85.770902,0.043335,-0.369870,0.000000,-0.771481,-1.669059,-0.000000
1.730000,-2.038170,0.609727,-1.492861,0.930474,0.804774,0.526427,3.037972,0.288268,2.332864,15.753836,-5.692973,-5.757826,-44.801233,1.725183,-83.417142,0.035703,-0.385927,0.000000,-0.754273,-1.538877,0.000000
1.740000,-2.028711,0.617788,-1.487481,0.961634,0.807373,0.549454,3.193169,0.231451,2.271161,15.275671,-5.667817,-6.578149,-50.790137,3.299312,-80.566274,0.028262,-0.400652,0.000000,-0.733178,-1.404110,0.000000
1.750000,-2.018933,0.625873,-1.481874,0.994321,0.809404,0.571823,3.343290,0.174964,2.201404,14.738936,-5.627138,-7.367559,-56.508078,4.828098,-77.237787,0.021050,-0.414012,0.000000,-0.708885,-1.266736,-0.000000
1.760000,-2.008820,0.633975,-1.476047,1.028482,0.810873,0.593458,3.487708,0.118970,2.123854,14.141545,-5.570392,-8.128203,-61.785002,6.275028,-73.278771,0.014094,-0.425981,0.000000,-0.681949,-1.127683,-0.000000
1.770000,-1.998358,0.642088,-1.470007,1.064056,0.811785,0.614278,3.625950,0.063603,2.038979,13.498725,-5.500663,-8.839439,-66.719572,7.659761,-68.902218,0.007417,-0.436572,0.000000,-0.653281,-0.990606,-0.000000
1.780000,-1.987534,0.650208,-1.463764,1.100979,0.812148,0.634215,3.757524,0.009002,1.947218,12.808388,-5.417426,-9.504991,-71.283842,8.975491,-64.148725,0.001033,-0.445801,0.000000,-0.623328,-0.855838,0.000000
1.790000,-1.976334,0.658330,-1.457326,1.139183,0.811968,0.653201,3.881972,-0.044703,1.849044,12.074376,-5.321406,-10.121293,-75.449867,10.215412,-59.058890,-0.005047,-0.453700,0.000000,-0.592598,-0.724471,-0.000000
1.800000,-1.964746,0.666446,-1.450704,1.178593,0.811257,0.671176,3.998879,-0.097386,1.744966,11.300811,-5.213394,-10.685183,-79.189702,11.372717,-53.673308,-0.010818,-0.460305,0.000000,-0.561535,-0.597388,0.000000
1.810000,-1.952759,0.674553,-1.443906,1.219136,0.810024,0.688083,4.107792,-0.148918,1.635493,10.484749,-5.092838,-11.196724,-82.289847,12.404942,-47.961458,-0.016276,-0.465656,0.000000,-0.530363,-0.474435,-0.000000
1.820000,-1.940360,0.682645,-1.436946,1.260724,0.808282,0.703871,4.208479,-0.199210,1.521226,9.648262,-4.964009,-11.646901,-84.930633,13.345305,-42.043763,-0.021426,-0.469814,0.000000,-0.499757,-0.358148,-0.000000
1.830000,-1.927541,0.690717,-1.429833,1.303277,0.806044,0.718494,4.300677,-0.248169,1.402755,8.787685,-4.826246,-12.037078,-87.106839,14.191367,-35.969529,-0.026274,-0.472840,0.000000,-0.469788,-0.247876,0.000000
1.840000,-1.914292,0.698764,-1.422580,1.346709,0.803324,0.731914,4.384168,-0.295709,1.280689,7.907691,-4.680504,-12.365934,-88.813240,14.940685,-29.788061,-0.030825,-0.474794,0.000000,-0.440652,-0.143814,0.000000
1.850000,-1.900604,0.706782,-1.415199,1.390931,0.800135,0.744098,4.458781,-0.341755,1.155644,7.013004,-4.527763,-12.632646,-90.044614,15.590821,-23.548665,-0.035090,-0.475739,0.000000,-0.412498,-0.046046,0.000000
1.860000,-1.886471,0.714765,-1.407702,1.435857,0.796493,0.755018,4.524319,-0.386229,1.028263,6.101406,-4.367663,-12.835185,-90.619086,16.104890,-17.343440,-0.039077,-0.475731,0.000000,-0.385324,0.045970,0.000000
1.870000,-1.871885,0.722710,-1.400103,1.481390,0.792415,0.764656,4.580798,-0.429093,0.899147,5.194282,-4.204460,-12.977722,-90.729715,16.519113,-11.173657,-0.042800,-0.474840,0.000000,-0.359490,0.131001,-0.000000
1.880000,-1.856841,0.730612,-1.392413,1.527442,0.787917,0.772997,4.628208,-0.470306,0.768913,4.288303,-4.037607,-13.058923,-90.392907,16.835268,-5.083382,-0.046271,-0.473129,0.000000,-0.334904,0.209819,0.000000
1.890000,-1.841335,0.738467,-1.384647,1.573924,0.783015,0.780033,4.666583,-0.509836,0.638169,3.387860,-3.868076,-13.079802,-89.625069,17.055135,0.883322,-0.049503,-0.470659,0.000000,-0.311594,0.282611,-0.000000
1.900000,-1.825362,0.746271,-1.376817,1.620744,0.777726,0.785761,4.695998,-0.547662,0.507513,2.497183,-3.696820,-13.041815,-88.442609,17.180489,6.682389,-0.052507,-0.467489,0.000000,-0.289567,0.349594,0.000000
1.910000,-1.808919,0.754021,-1.368936,1.667815,0.772067,0.790184,4.716524,-0.583760,0.377578,1.615833,-3.523812,-12.941802,-86.748198,17.188770,12.142005,-0.055298,-0.463674,0.000000,-0.268766,0.411173,0.000000
1.920000,-1.792005,0.761711,-1.361018,1.715047,0.766056,0.793315,4.728378,-0.618139,0.248855,0.758368,-3.352251,-12.794072,-84.685906,17.109074,17.361496,-0.057887,-0.459271,0.000000,-0.249308,0.467203,0.000000
1.930000,-1.774618,0.769341,-1.353074,1.762355,0.759710,0.795167,4.731766,-0.650809,0.121866,-0.076760,-3.181908,-12.595467,-82.286067,16.946160,22.312441,-0.060288,-0.454331,0.000000,-0.231101,0.518134,-0.000000
1.940000,-1.756758,0.776905,-1.345118,1.809655,0.753046,0.795760,4.726928,-0.681784,-0.002894,-0.886329,-3.013589,-12.348813,-79.579015,16.704785,26.966416,-0.062513,-0.448905,0.000000,-0.214114,0.564230,-0.000000
1.950000,-1.738425,0.784400,-1.337163,1.856867,0.746080,0.795118,4.714134,-0.711090,-0.124960,-1.667418,-2.848057,-12.057223,-76.595084,16.389708,31.295001,-0.064574,-0.443040,0.000000,-0.198312,0.605757,0.000000
1.960000,-1.719621,0.791825,-1.329220,1.903912,0.738829,0.793269,4.693673,-0.738753,-0.243831,-2.418333,-2.685642,-11.717719,-73.341272,15.996014,35.108782,-0.066483,-0.436781,0.000000,-0.183659,0.642818,0.000000
1.970000,-1.700348,0.799176,-1.321302,1.950716,0.731310,0.790251,4.665879,-0.764817,-0.359194,-3.134574,-2.527915,-11.349069,-69.874106,15.539317,38.560040,-0.068251,-0.430168,0.000000,-0.170109,0.676066,-0.000000
1.980000,-1.680608,0.806451,-1.313419,1.997207,0.723538,0.786098,4.631100,-0.789327,-0.470703,-3.815214,-2.375046,-10.947756,-66.226778,15.025560,41.640066,-0.069889,-0.423241,0.000000,-0.157621,0.705551,0.000000
1.990000,-1.660405,0.813646,-1.305583,2.043316,0.715529,0.780851,4.589699,-0.812336,-0.578052,-4.458619,-2.227575,-10.517534,-62.432478,14.460684,44.340151,-0.071407,-0.416035,0.000000,-0.146154,0.731508,-0.000000
2.000000,-1.639743,0.820760,-1.297805,2.088980,0.707296,0.774552,4.542056,-0.833898,-0.680971,-5.063485,-2.085983,-10.062248,-58.524399,13.850633,46.651586,-0.072815,-0.408584,0.000000,-0.135664,0.754164,-0.000000
2.010000,-1.618627,0.827791,-1.290096,2.134137,0.698855,0.767245,4.488580,-0.854077,-0.779164,-5.627148,-1.950722,-9.580066,-54.578434,13.202095,48.420154,-0.074124,-0.400925,0.000000,-0.126144,0.773418,-0.000000
2.020000,-1.597062,0.834737,-1.282464,2.178733,0.690219,0.758983,4.429646,-0.872935,-0.872519,-6.152972,-1.822086,-9.088643,-50.579842,12.520173,49.800470,-0.075341,-0.393083,0.000000,-0.117473,0.790262,-0.000000
2.030000,-1.575054,0.841595,-1.274919,2.222713,0.681401,0.749811,4.365654,-0.890542,-0.960898,-6.638663,-1.700411,-8.585321,-46.556588,11.810720,50.801642,-0.076476,-0.385084,0.000000,-0.109648,0.804512,-0.000000
2.040000,-1.552610,0.848364,-1.267470,2.266030,0.672412,0.739782,4.297007,-0.906967,-1.044199,-7.084114,-1.585943,-8.073844,-42.536632,11.079585,51.432778,-0.077537,-0.376953,0.000000,-0.102628,0.816350,0.000000
2.050000,-1.529736,0.855043,-1.260126,2.308639,0.663265,0.728945,4.224105,-0.922285,-1.122360,-7.489499,-1.478872,-7.557868,-38.547938,10.332620,51.702985,-0.078531,-0.368715,0.000000,-0.096375,0.825952,0.000000
2.060000,-1.506440,0.861629,-1.252894,2.350499,0.653970,0.717351,4.147388,-0.936575,-1.195311,-7.851661,-1.379802,-7.037114,-34.709644,9.587740,51.524311,-0.079467,-0.360394,0.000000,-0.090905,0.833088,0.000000
2.070000,-1.482729,0.868122,-1.245781,2.391574,0.644537,0.705054,4.067199,-0.949906,-1.263113,-8.179875,-1.287674,-6.524152,-30.947373,8.837253,51.014810,-0.080351,-0.352006,0.000000,-0.086047,0.838871,0.000000
2.080000,-1.458611,0.874519,-1.238795,2.431832,0.634975,0.692105,3.983914,-0.962354,-1.325817,-8.470918,-1.203061,-6.017851,-27.277922,8.085535,50.195473,-0.081190,-0.343568,0.000000,-0.081828,0.842988,-0.000000
2.090000,-1.434095,0.880821,-1.231941,2.471243,0.625293,0.678555,3.897901,-0.973992,-1.383503,-8.725799,-1.125953,-5.521205,-23.718089,7.336958,49.087294,-0.081990,-0.335096,0.000000,-0.078212,0.845573,-0.000000
2.100000,-1.409189,0.887025,-1.225226,2.509782,0.615498,0.664452,3.809515,-0.984898,-1.436282,-8.945701,-1.056297,-5.036998,-20.284674,6.595896,47.711266,-0.082756,-0.326605,0.000000,-0.075165,0.846750,-0.000000
2.110000,-1.383902,0.893130,-1.218654,2.547426,0.605597,0.649844,3.719139,-0.995151,-1.484277,-9.128281,-0.994702,-4.566324,-17.087660,5.884563,46.051043,-0.083496,-0.318111,0.000000,-0.072712,0.846308,-0.000000
2.120000,-1.358243,0.899137,-1.212230,2.584158,0.595597,0.634781,3.627053,-1.004815,-1.527668,-9.283789,-0.939355,-4.115048,-14.039249,5.187307,44.169528,-0.084212,-0.309623,0.000000,-0.070675,0.845149,-0.000000
2.130000,-1.332222,0.905042,-1.205960,2.619962,0.585502,0.619306,3.533562,-1.013961,-1.566644,-9.409579,-0.890901,-3.683586,-11.144828,4.506320,42.092286,-0.084911,-0.301151,0.000000,-0.069092,0.842996,-0.000000
2.140000,-1.305847,0.910846,-1.199846,2.654826,0.575319,0.603462,3.438956,-1.022655,-1.601412,-9.507217,-0.849167,-3.273769,-8.409785,3.843789,39.844881,-0.085596,-0.292705,0.000000,-0.067932,0.839940,0.000000
2.150000,-1.279129,0.916548,-1.193891,2.688739,0.565051,0.587291,3.343507,-1.030966,-1.632196,-9.578324,-0.813957,-2.887170,-5.839508,3.201904,37.452879,-0.086271,-0.284293,0.000000,-0.067164,0.836062,-0.000000
2.160000,-1.252076,0.922147,-1.188101,2.721693,0.554701,0.570831,3.247498,-1.038963,-1.659243,-9.622215,-0.785719,-2.525689,-3.498984,2.599676,34.956521,-0.086941,-0.275926,0.000000,-0.066807,0.831262,0.000000
2.170000,-1.224698,0.927642,-1.182476,2.753687,0.544272,0.554118,3.151138,-1.046700,-1.682795,-9.646204,-0.762638,-2.189013,-1.326702,2.020413,32.364897,-0.087608,-0.267607,0.000000,-0.066721,0.826032,-0.000000
2.180000,-1.197005,0.933032,-1.177019,2.784715,0.533768,0.537186,3.054643,-1.054235,-1.703111,-9.649303,-0.745234,-1.878630,0.679246,1.464244,29.701776,-0.088276,-0.259343,0.000000,-0.066935,0.820236,0.000000
2.190000,-1.169007,0.938317,-1.171733,2.814780,0.523188,0.520065,2.958216,-1.061623,-1.720457,-9.633167,-0.733275,-1.595136,2.520772,0.931299,26.990923,-0.088948,-0.251140,0.000000,-0.067423,0.813929,-0.000000
2.200000,-1.140713,0.943496,-1.166618,2.843881,0.512535,0.502786,2.862039,-1.068917,-1.735105,-9.599429,-0.726530,-1.338891,4.199785,0.421708,24.256107,-0.089625,-0.243002,0.000000,-0.068163,0.807164,-0.000000
2.210000,-1.112133,0.948568,-1.161677,2.872021,0.501810,0.485372,2.766294,-1.076176,-1.747346,-9.548404,-0.725321,-1.111854,5.685301,-0.050293,21.567560,-0.090312,-0.234934,0.000000,-0.069165,0.799915,0.000000
2.220000,-1.083276,0.953532,-1.156911,2.899208,0.491012,0.467846,2.671117,-1.083439,-1.757431,-9.484770,-0.728092,-0.909555,7.016153,-0.500409,18.896895,-0.091009,-0.226939,0.000000,-0.070336,0.792391,-0.000000
2.230000,-1.054152,0.958388,-1.152321,2.925446,0.480141,0.450230,2.576641,-1.090752,-1.765626,-9.408577,-0.735262,-0.733797,8.198280,-0.930237,16.262190,-0.091719,-0.219021,0.000000,-0.071694,0.784554,-0.000000
2.240000,-1.024770,0.963134,-1.147907,2.950743,0.469197,0.432539,2.482983,-1.098158,-1.772194,-9.321281,-0.746635,-0.584131,9.237619,-1.341376,13.681523,-0.092444,-0.211183,0.000000,-0.073225,0.776439,-0.000000
2.250000,-0.995140,0.967771,-1.143670,2.975109,0.458178,0.414790,2.390248,-1.105699,-1.777393,-9.224281,-0.762032,-0.459926,10.140110,-1.735423,11.172972,-0.093184,-0.203427,0.000000,-0.074916,0.768077,0.000000
2.260000,-0.965271,0.972298,-1.139611,2.998552,0.447082,0.396996,2.298525,-1.113414,-1.781499,-9.118948,-0.781476,-0.362639,10.912519,-2.109315,8.811912,-0.093942,-0.195755,0.000000,-0.076755,0.759535,-0.000000
2.270000,-0.935172,0.976713,-1.135730,3.021083,0.435909,0.379164,2.207892,-1.121340,-1.784723,-9.006484,-0.804382,-0.285908,11.559854,-2.469882,6.552109,-0.094720,-0.188169,0.000000,-0.078740,0.750744,0.000000
2.280000,-0.904852,0.981015,-1.132028,3.042713,0.424655,0.361304,2.118415,-1.129513,-1.787291,-8.888148,-0.830837,-0.231223,12.087952,-2.819292,4.404623,-0.095518,-0.180673,0.000000,-0.080863,0.741780,0.000000
2.290000,-0.874321,0.985205,-1.128504,3.063455,0.413317,0.343420,2.030145,-1.137968,-1.789417,-8.765103,-0.860738,-0.197404,12.502650,-3.159713,2.380518,-0.096338,-0.173266,0.000000,-0.083123,0.732668,-0.000000
2.300000,-0.843586,0.989282,-1.125160,3.083321,0.401894,0.325516,1.943125,-1.146739,-1.791304,-8.638454,-0.894008,-0.183164,12.809784,-3.493315,0.490854,-0.097181,-0.165952,0.000000,-0.085519,0.723434,-0.000000
2.310000,-0.812657,0.993243,-1.121994,3.102322,0.390381,0.307594,1.857378,-1.155857,-1.793165,-8.509838,-0.930371,-0.189303,13.030134,-3.827777,-1.197726,-0.098048,-0.158729,0.000000,-0.088018,0.714183,-0.000000
2.320000,-0.781542,0.997089,-1.119008,3.120473,0.378776,0.289653,1.772934,-1.165358,-1.795144,-8.378844,-0.970307,-0.209101,13.152764,-4.159081,-2.736546,-0.098942,-0.151599,0.000000,-0.090709,0.704754,0.000000
2.330000,-0.750250,1.000818,-1.116201,3.137785,0.367073,0.271691,1.689804,-1.175274,-1.797396,-8.247095,-1.013547,-0.243520,13.181683,-4.488721,-4.121349,-0.099863,-0.144564,0.000000,-0.093559,0.695268,0.000000
2.340000,-0.718789,1.004430,-1.113574,3.154273,0.355269,0.253704,1.607991,-1.185640,-1.800058,-8.115509,-1.060081,-0.291000,13.120896,-4.818192,-5.347879,-0.100813,-0.137624,0.000000,-0.096577,0.685757,0.000000
2.350000,-0.687168,1.007923,-1.111127,3.169949,0.343359,0.235688,1.527490,-1.196487,-1.803254,-7.984963,-1.109915,-0.349936,12.974412,-5.148987,-6.411880,-0.101795,-0.130779,0.000000,-0.099771,0.676257,-0.000000
2.360000,-0.655393,1.011297,-1.108860,3.184827,0.331337,0.217637,1.448280,-1.207843,-1.807109,-7.856818,-1.162484,-0.420438,12.759479,-5.497413,-7.264728,-0.102809,-0.124028,0.000000,-0.103090,0.666867,0.000000
2.370000,-0.623474,1.014550,-1.106775,3.198919,0.319200,0.199544,1.370345,-1.219748,-1.811688,-7.730629,-1.219211,-0.496659,12.465241,-5.848337,-7.951966,-0.103857,-0.117371,0.000000,-0.106697,0.657476,0.000000
2.380000,-0.591417,1.017680,-1.104870,3.212238,0.306940,0.181401,1.293656,-1.232239,-1.817062,-7.607769,-1.279458,-0.578929,12.094085,-6.201438,-8.474771,-0.104943,-0.110807,0.000000,-0.110534,0.648201,0.000000
2.390000,-0.559231,1.020688,-1.103147,3.224797,0.294553,0.163200,1.218176,-1.245349,-1.823282,-7.488996,-1.343245,-0.665610,11.648396,-6.556396,-8.834319,-0.106069,-0.104335,0.000000,-0.114612,0.639088,-0.000000
2.400000,-0.526924,1.023571,-1.101606,3.236606,0.282031,0.144932,1.143860,-1.259116,-1.830384,-7.375042,-1.410591,-0.755076,11.130559,-6.912890,-9.031786,-0.107236,-0.097952,0.000000,-0.118943,0.630187,0.000000
2.410000,-0.494502,1.026328,-1.100248,3.247678,0.269368,0.126589,1.070656,-1.273565,-1.838400,-7.266690,-1.480730,-0.846880,10.544813,-7.290229,-9.038787,-0.108448,-0.091657,0.000000,-0.123463,0.621563,-0.000000
2.420000,-0.461973,1.028958,-1.099074,3.258023,0.256557,0.108161,0.998506,-1.288743,-1.847319,-7.164453,-1.555514,-0.936651,9.891464,-7.666061,-8.889679,-0.109707,-0.085446,0.000000,-0.128363,0.613235,0.000000
2.430000,-0.429344,1.031459,-1.098085,3.267651,0.243591,0.089640,0.927344,-1.304687,-1.857125,-7.069079,-1.634037,-1.024169,9.172672,-8.037662,-8.589259,-0.111016,-0.079317,0.000000,-0.133565,0.605278,-0.000000
2.440000,-0.396622,1.033829,-1.097282,3.276572,0.230461,0.071016,0.857099,-1.321436,-1.867790,-6.981211,-1.716244,-1.107947,8.390594,-8.402309,-8.142324,-0.112379,-0.073264,0.000000,-0.139076,0.597748,-0.000000
2.450000,-0.363815,1.036067,-1.096665,3.284796,0.217159,0.052281,0.787693,-1.339024,-1.879267,-6.901471,-1.802051,-1.186544,7.547391,-8.757278,-7.553668,-0.113799,-0.067284,0.000000,-0.144899,0.590706,0.000000
2.460000,-0.330928,1.038172,-1.096237,3.292329,0.203677,0.033428,0.719045,-1.357480,-1.891506,-6.830023,-1.890571,-1.259222,6.634179,-9.119474,-6.811489,-0.115277,-0.061372,0.000000,-0.150962,0.584176,-0.000000
2.470000,-0.297970,1.040140,-1.095997,3.299179,0.190006,0.014449,0.651061,-1.376848,-1.904425,-6.768479,-1.983506,-1.323081,5.665511,-9.464142,-5.939215,-0.116819,-0.055521,0.000000,-0.157436,0.578300,0.000000
2.480000,-0.264947,1.041971,-1.095948,3.305352,0.176137,-0.004662,0.583643,-1.397161,-1.917936,-6.716885,-2.079778,-1.377595,4.644898,-9.786153,-4.943675,-0.118427,-0.049724,0.000000,-0.164232,0.573099,0.000000
2.490000,-0.231865,1.043662,-1.096091,3.310853,0.162060,-0.023911,0.516688,-1.418453,-1.931941,-6.675743,-2.179136,-1.421566,3.575851,-10.080381,-3.831698,-0.120105,-0.043975,0.000000,-0.171341,0.568631,-0.000000
2.500000,-0.198732,1.045212,-1.096427,3.315687,0.147764,-0.043302,0.450091,-1.440753,-1.946329,-6.645518,-2.281276,-1.453864,2.461880,-10.341699,-2.610112,-0.121855,-0.038266,0.000000,-0.178748,0.564951,-0.000000
2.510000,-0.165554,1.046617,-1.096957,3.319856,0.133241,-0.062838,0.383749,-1.464081,-1.960979,-6.625818,-2.385328,-1.473722,1.285656,-10.577993,-1.278269,-0.123680,-0.032590,0.000000,-0.186388,0.562048,0.000000
2.520000,-0.132337,1.047876,-1.097684,3.323362,0.118479,-0.082522,0.317535,-1.488467,-1.975757,-6.618992,-2.492106,-1.479446,0.074083,-10.769529,0.148609,-0.125584,-0.026936,0.000000,-0.194349,0.560135,-0.000000
2.530000,-0.099089,1.048986,-1.098608,3.326206,0.103468,-0.102353,0.251328,-1.513929,-1.990519,-6.624434,-2.600547,-1.470459,-1.166777,-10.909586,1.662779,-0.127568,-0.021295,0.000000,-0.202551,0.559185,0.000000
2.540000,-0.065815,1.049944,-1.099732,3.328388,0.088197,-0.122332,0.185005,-1.540482,-2.005114,-6.642405,-2.710104,-1.445925,-2.430860,-10.991441,3.256495,-0.129635,-0.015657,0.000000,-0.210960,0.559241,-0.000000
2.550000,-0.032523,1.050749,-1.101056,3.329906,0.072655,-0.142455,0.118438,-1.568133,-2.019383,-6.673108,-2.820160,-1.405089,-3.712104,-11.008374,4.922013,-0.131788,-0.010012,0.000000,-0.219539,0.560344,0.000000
2.560000,0.000780,1.051396,-1.102581,3.330755,0.056831,-0.162718,0.051510,-1.596884,-2.033161,-6.715737,-2.930052,-1.347416,-5.028384,-10.953166,6.655226,-0.134026,-0.004349,0.000000,-0.228245,0.562450,-0.000000
2.570000,0.034089,1.051884,-1.104310,3.330934,0.040713,-0.183116,-0.015921,-1.626731,-2.046273,-6.772615,-3.038984,-1.271961,-6.346768,-10.819654,8.444308,-0.136353,0.001343,0.000000,-0.237032,0.565781,-0.000000
2.580000,0.067397,1.052210,-1.106244,3.330435,0.024292,-0.203640,-0.083986,-1.657658,-2.058540,-6.842649,-3.146162,-1.178370,-7.658261,-10.601180,10.281067,-0.138767,0.007076,0.000000,-0.245846,0.570270,-0.000000
2.590000,0.100696,1.052369,-1.108384,3.329251,0.007557,-0.224283,-0.152817,-1.689645,-2.069778,-6.925727,-3.250703,-1.066208,-8.953869,-10.291084,12.157316,-0.141270,0.012863,0.000000,-0.254632,0.575939,-0.000000
2.600000,0.133980,1.052360,-1.110730,3.327375,-0.009504,-0.245032,-0.222544,-1.722660,-2.079801,-7.021644,-3.351656,-0.935120,-10.224598,-9.882706,14.064864,-0.143859,0.018715,0.000000,-0.263328,0.582799,0.000000
2.610000,0.167241,1.052178,-1.113285,3.324797,-0.026900,-0.265874,-0.293284,-1.756671,-2.088419,-7.129397,-3.448716,-0.785024,-11.479351,-9.351462,16.000321,-0.146536,0.024644,0.000000,-0.271925,0.590799,-0.000000
2.620000,0.200473,1.051820,-1.116048,3.321506,-0.044640,-0.286795,-0.365173,-1.791615,-2.095437,-7.250281,-3.539121,-0.615280,-12.689046,-8.710812,17.950110,-0.149297,0.030663,0.000000,-0.280216,0.600083,-0.000000
2.630000,0.233669,1.051284,-1.119021,3.317489,-0.062735,-0.307777,-0.438329,-1.827430,-2.100659,-7.382991,-3.622553,-0.426003,-13.842496,-7.956290,19.905454,-0.152140,0.036785,0.000000,-0.288194,0.610576,0.000000
2.640000,0.266821,1.050565,-1.122203,3.312735,-0.081192,-0.328802,-0.512870,-1.864039,-2.103892,-7.526907,-3.697852,-0.217181,-14.928515,-7.083430,21.857576,-0.155060,0.043021,0.000000,-0.295780,0.622267,-0.000000
2.650000,0.299921,1.049659,-1.125597,3.307227,-0.100018,-0.349848,-0.588902,-1.901356,-2.104938,-7.681299,-3.763812,0.011109,-15.935918,-6.087768,23.797698,-0.158054,0.049385,0.000000,-0.302893,0.635136,0.000000
2.660000,0.332962,1.048563,-1.129200,3.300951,-0.119220,-0.370892,-0.666527,-1.939296,-2.103608,-7.845203,-3.820610,0.258385,-16.856623,-4.928806,25.725077,-0.161117,0.055888,0.000000,-0.309560,0.649145,0.000000
2.670000,0.365937,1.047273,-1.133014,3.293891,-0.138805,-0.391911,-0.745836,-1.977727,-2.099707,-8.017955,-3.863573,0.525150,-17.675961,-3.642524,27.621919,-0.164242,0.062542,0.000000,-0.315426,0.664288,0.000000
2.680000,0.398838,1.045786,-1.137038,3.286029,-0.158776,-0.412877,-0.826911,-2.016522,-2.093043,-8.198345,-3.893036,0.810689,-18.382364,-2.228869,29.478461,-0.167423,0.069359,0.000000,-0.320528,0.680511,0.000000
2.690000,0.431655,1.044096,-1.141272,3.277346,-0.179136,-0.433762,-0.909824,-2.055539,-2.083432,-8.385187,-3.907725,1.114552,-18.964268,-0.687787,31.284944,-0.170650,0.076349,0.000000,-0.324775,0.697767,-0.000000
2.700000,0.464382,1.042202,-1.145713,3.267826,-0.199887,-0.454535,-0.994632,-2.094623,-2.070693,-8.577177,-3.906367,1.436189,-19.410107,0.980773,33.031607,-0.173915,0.083524,0.000000,-0.328072,0.716001,0.000000
2.710000,0.497009,1.040097,-1.150362,3.257448,-0.221028,-0.475165,-1.081388,-2.133630,-2.054654,-8.773624,-3.889677,1.774621,-19.689950,2.827192,34.717058,-0.177210,0.090893,0.000000,-0.330480,0.735207,-0.000000
2.720000,0.529528,1.037780,-1.155216,3.246192,-0.242558,-0.495617,-1.170111,-2.172353,-2.035145,-8.971273,-3.851665,2.129888,-19.812844,4.795034,36.322141,-0.180521,0.098465,0.000000,-0.331527,0.755177,-0.000000
2.730000,0.561930,1.035245,-1.160274,3.234039,-0.264473,-0.515856,-1.260815,-2.210596,-2.012005,-9.169327,-3.793392,2.500760,-19.769472,6.878188,37.836072,-0.183836,0.106248,0.000000,-0.331295,0.775901,0.000000
2.740000,0.594205,1.032489,-1.165532,3.220969,-0.286768,-0.535844,-1.353493,-2.248150,-1.985081,-9.366077,-3.713737,2.886270,-19.550518,9.070546,39.248063,-0.187142,0.114251,0.000000,-0.329685,0.797293,0.000000
2.750000,0.626346,1.029508,-1.170990,3.206962,-0.309433,-0.555544,-1.448126,-2.284796,-1.954234,-9.559721,-3.611638,3.285345,-19.146665,11.365998,40.547330,-0.190425,0.122479,0.000000,-0.326600,0.819261,0.000000
2.760000,0.658342,1.026299,-1.176642,3.192000,-0.332459,-0.574915,-1.544690,-2.320328,-1.919333,-9.750056,-3.488292,3.696770,-18.505827,13.813949,41.723975,-0.193671,0.130941,0.000000,-0.322119,0.841843,0.000000
2.770000,0.690183,1.022858,-1.182487,3.176063,-0.355834,-0.593917,-1.643102,-2.354478,-1.880262,-9.931086,-3.337557,4.119337,-17.666692,16.345977,42.766215,-0.196862,0.139638,0.000000,-0.315726,0.864600,-0.000000
2.780000,0.721860,1.019181,-1.188519,3.159132,-0.379543,-0.612506,-1.743280,-2.386994,-1.836914,-10.102715,-3.161135,4.551610,-16.625179,18.949175,43.663156,-0.199979,0.148574,0.000000,-0.307526,0.887572,0.000000
2.790000,0.753362,1.015266,-1.194735,3.141192,-0.403568,-0.630641,-1.845118,-2.417613,-1.789202,-10.262901,-2.958379,4.992080,-15.377209,21.610636,44.403902,-0.203006,0.157751,0.000000,-0.297428,0.910638,0.000000
2.800000,0.784680,1.011109,-1.201130,3.122225,-0.427888,-0.648276,-1.948493,-2.446072,-1.737051,-10.409558,-2.728771,5.439131,-13.918700,24.317453,44.977559,-0.205921,0.167169,0.000000,-0.285345,0.933665,-0.000000
2.810000,0.815803,1.006707,-1.207699,3.102218,-0.452481,-0.665367,-2.053285,-2.472118,-1.680396,-10.543112,-2.473768,5.891696,-12.181112,27.103347,45.356610,-0.208707,0.176829,0.000000,-0.271346,0.956734,0.000000
2.820000,0.846721,1.002058,-1.214436,3.081156,-0.477321,-0.681869,-2.159294,-2.495454,-1.619207,-10.655355,-2.188740,6.346382,-10.232718,29.903074,45.548819,-0.211341,0.186727,0.000000,-0.254978,0.979172,-0.000000
2.830000,0.877423,0.997160,-1.221334,3.059029,-0.502380,-0.697736,-2.266324,-2.515799,-1.553465,-10.747076,-1.875722,6.802020,-8.077332,32.698016,45.545325,-0.213799,0.196857,0.000000,-0.236343,1.001069,-0.000000
2.840000,0.907898,0.992010,-1.228388,3.035827,-0.527626,-0.712923,-2.374160,-2.532875,-1.483170,-10.816225,-1.534857,7.256607,-5.718766,35.469556,45.337270,-0.216060,0.207212,0.000000,-0.215369,1.022264,-0.000000
2.850000,0.938136,0.986607,-1.235590,3.011544,-0.553026,-0.727384,-2.482566,-2.546405,-1.408344,-10.860787,-1.166471,7.708054,-3.160833,38.199079,44.915794,-0.218099,0.217785,0.000000,-0.191995,1.042585,-0.000000
2.860000,0.968125,0.980949,-1.242933,2.986175,-0.578541,-0.741075,-2.591320,-2.556124,-1.329009,-10.881817,-0.771907,8.155823,-0.330887,40.888911,44.230572,-0.219893,0.228569,0.000000,-0.166250,1.062136,0.000000
2.870000,0.997855,0.975036,-1.250409,2.959718,-0.604134,-0.753950,-2.700105,-2.561755,-1.245254,-10.870210,-0.349901,8.593763,2.681438,43.496928,43.319288,-0.221415,0.239548,0.000000,-0.137879,1.080053,0.000000
2.880000,1.027316,0.968867,-1.258009,2.932174,-0.629762,-0.765966,-2.808621,-2.563036,-1.157168,-10.827624,0.097688,9.021443,5.862965,46.001948,42.178160,-0.222642,0.250705,0.000000,-0.106940,1.096457,0.000000
2.890000,1.056495,0.962441,-1.265725,2.903548,-0.655379,-0.777079,-2.916549,-2.559719,-1.064867,-10.752431,0.569724,9.436547,9.200520,48.382788,40.803406,-0.223546,0.262026,0.000000,-0.073404,1.111148,-0.000000
2.900000,1.085383,0.955759,-1.273548,2.873846,-0.680940,-0.787250,-3.023556,-2.551565,-0.968487,-10.643137,1.064859,9.836720,12.680927,50.618270,39.191244,-0.224101,0.273489,0.000000,-0.037252,1.123916,-0.000000
2.910000,1.113969,0.948822,-1.281467,2.843082,-0.706394,-0.796437,-3.129325,-2.538342,-0.868162,-10.501233,1.582305,10.222168,16.363070,52.667759,37.272213,-0.224281,0.285076,0.000000,0.001558,1.134852,0.000000
2.920000,1.142241,0.941632,-1.289473,2.811266,-0.731690,-0.804601,-3.233456,-2.519854,-0.764112,-10.318734,2.118465,10.584306,20.152891,54.531908,35.116253,-0.224061,0.296760,0.000000,0.042943,1.143009,-0.000000
2.930000,1.170191,0.934189,-1.297556,2.778419,-0.756773,-0.811707,-3.335571,-2.495914,-0.656552,-10.097890,2.672262,10.923718,24.028390,56.191916,32.727625,-0.223414,0.308513,0.000000,0.086922,1.148497,-0.000000
2.940000,1.197806,0.926497,-1.305704,2.744563,-0.781589,-0.817721,-3.435283,-2.466357,-0.545721,-9.837954,3.241560,11.238098,27.967569,57.628985,30.110589,-0.222314,0.320305,0.000000,0.133464,1.151087,-0.000000
2.950000,1.225079,0.918559,-1.313906,2.709723,-0.806081,-0.822612,-3.532198,-2.431039,-0.431881,-9.538399,3.824036,11.525183,31.948427,58.824313,27.269405,-0.220736,0.332104,0.000000,0.182524,1.150544,0.000000
2.960000,1.251998,0.910377,-1.322152,2.673930,-0.830191,-0.826351,-3.625938,-2.389812,-0.315282,-9.200747,4.419766,11.785859,35.995130,59.693737,24.129866,-0.218653,0.343879,0.000000,0.234227,1.146890,0.000000
2.970000,1.278554,0.901956,-1.330429,2.637217,-0.853858,-0.828910,-3.716078,-2.342619,-0.196272,-8.820584,5.019925,12.010596,40.033861,60.291826,20.784309,-0.216044,0.355589,0.000000,0.288056,1.139285,-0.000000
2.980000,1.304739,0.893301,-1.338726,2.599622,-0.877023,-0.830269,-3.802216,-2.289399,-0.075185,-8.400189,5.624662,12.200905,44.036970,60.607784,17.246603,-0.212885,0.367193,0.000000,0.344124,1.127770,-0.000000
2.990000,1.330544,0.884418,-1.347031,2.561187,-0.899626,-0.830408,-3.883950,-2.230120,0.047626,-7.940056,6.231104,12.354934,47.976803,60.630815,13.530617,-0.209154,0.378651,0.000000,0.402318,1.112110,-0.000000
3.000000,1.355960,0.875311,-1.355330,2.521959,-0.921606,-0.829312,-3.960887,-2.164781,0.171787,-7.440956,6.836266,12.470969,51.825709,60.350125,9.650220,-0.204832,0.389916,0.000000,0.462511,1.092076,0.000000
3.010000,1.380980,0.865988,-1.363613,2.481987,-0.942903,-0.826970,-4.032643,-2.093365,0.296943,-6.903956,7.441079,12.550231,55.556516,59.653349,5.548710,-0.199894,0.400944,0.000000,0.524883,1.067556,-0.000000
3.020000,1.405598,0.856455,-1.371865,2.441324,-0.963454,-0.823373,-4.098844,-2.015988,0.422653,-6.330335,8.032824,12.584667,59.141034,58.643696,1.319169,-0.194329,0.411684,0.000000,0.588489,1.038079,0.000000
3.030000,1.429805,0.846721,-1.380076,2.400030,-0.983203,-0.818517,-4.159133,-1.932748,0.548494,-5.721715,8.612916,12.576262,62.551550,57.322808,-3.015893,-0.188120,0.422086,0.000000,0.653498,1.003555,-0.000000
3.040000,1.453596,0.836794,-1.388232,2.358163,-1.002090,-0.812404,-4.213168,-1.843778,0.674032,-5.079976,9.178249,12.524073,65.760355,55.692326,-7.433966,-0.181255,0.432098,0.000000,0.719700,0.963792,-0.000000
3.050000,1.476966,0.826683,-1.396320,2.315788,-1.020060,-0.805039,-4.260629,-1.749242,0.798827,-4.407273,9.725736,12.427381,68.739736,53.753893,-11.912540,-0.173723,0.441665,0.000000,0.786861,0.918616,-0.000000
3.060000,1.499910,0.816396,-1.404328,2.272972,-1.037058,-0.796432,-4.301193,-1.649287,0.922447,-3.703743,10.256616,12.287230,71.404017,51.400277,-16.467872,-0.165511,0.450731,0.000000,0.855112,0.867739,-0.000000
3.070000,1.522425,0.805945,-1.412244,2.229787,-1.053030,-0.786596,-4.334619,-1.544193,1.044420,-2.977531,10.757630,12.099719,73.790551,48.755322,-21.033936,-0.156620,0.459242,0.000000,0.923244,0.811363,-0.000000
3.080000,1.544505,0.795339,-1.420056,2.186305,-1.067926,-0.775550,-4.360669,-1.434227,1.164289,-2.228927,11.230801,11.866607,75.878725,45.834001,-25.583477,-0.147046,0.467140,0.000000,0.991366,0.749230,0.000000
3.090000,1.566150,0.784590,-1.427751,2.142599,-1.081699,-0.763318,-4.379134,-1.319679,1.281601,-1.461019,11.673439,11.588195,77.647927,42.651287,-30.089235,-0.136793,0.474371,0.000000,1.059132,0.681272,0.000000
3.100000,1.587357,0.773709,-1.435319,2.098748,-1.094305,-0.749928,-4.389836,-1.200868,1.395904,-0.677100,12.083005,11.265059,79.077543,39.222151,-34.523953,-0.125866,0.480875,0.000000,1.126164,0.607462,0.000000
3.110000,1.608125,0.762708,-1.442746,2.054827,-1.105704,-0.735412,-4.392586,-1.078103,1.506752,0.123746,12.460295,10.897731,80.035435,35.481131,-38.852486,-0.114271,0.486593,0.000000,1.192366,0.527390,-0.000000
3.120000,1.628453,0.751599,-1.450023,2.010921,-1.115857,-0.719806,-4.387335,-0.951791,1.613716,0.927363,12.795530,10.488072,80.626171,31.533484,-43.056430,-0.102024,0.491474,0.000000,1.256539,0.442150,0.000000
3.130000,1.648343,0.740395,-1.457139,1.967108,-1.124730,-0.703152,-4.374025,-0.822327,1.716376,1.735023,13.090359,10.037106,80.842796,27.404031,-47.109494,-0.089147,0.495465,0.000000,1.318535,0.351391,-0.000000
3.140000,1.667796,0.729109,-1.464083,1.923468,-1.132294,-0.685494,-4.352634,-0.690124,1.814326,2.542949,13.343088,9.546473,80.678353,23.117595,-50.985388,-0.075663,0.498513,0.000000,1.377825,0.255308,-0.000000
3.150000,1.686814,0.717754,-1.470846,1.880082,-1.138525,-0.666882,-4.323178,-0.555610,1.907179,3.347296,13.552270,9.018076,80.125886,18.698998,-54.657820,-0.061601,0.500570,0.000000,1.433840,0.154168,0.000000
3.160000,1.705399,0.706343,-1.477418,1.837029,-1.143400,-0.647368,-4.285655,-0.419214,1.994545,4.149513,13.717926,8.451916,79.042984,14.142331,-58.045783,-0.046997,0.501580,0.000000,1.486109,0.047672,0.000000
3.170000,1.723556,0.694890,-1.483790,1.794393,-1.146905,-0.627010,-4.240231,-0.281405,2.076109,4.932919,13.836226,7.855549,77.574731,9.506908,-61.184401,-0.031894,0.501511,0.000000,1.533674,-0.062202,-0.000000
3.180000,1.741288,0.683410,-1.489955,1.752250,-1.149025,-0.605866,-4.187052,-0.142645,2.151556,5.699755,13.907897,7.229124,75.730755,4.821315,-64.054083,-0.016341,0.500324,0.000000,1.576009,-0.175639,-0.000000
3.190000,1.758602,0.671914,-1.495905,1.710677,-1.149756,-0.584000,-4.126303,-0.003404,2.220600,6.446313,13.932581,6.575429,73.520687,0.114135,-66.635237,-0.000394,0.497988,0.000000,1.612425,-0.292011,-0.000000
3.200000,1.775504,0.660419,-1.501633,1.669749,-1.149093,-0.561477,-4.058205,0.135849,2.282984,7.168981,13.910203,5.897447,70.954155,-4.586046,-68.908272,0.015885,0.494476,0.000000,1.642224,-0.410587,-0.000000
3.210000,1.792000,0.648937,-1.507133,1.629536,-1.147040,-0.538362,-3.982964,0.274634,2.338439,7.868928,13.840070,5.194687,67.922384,-9.227708,-70.760917,0.032425,0.489763,0.000000,1.664602,-0.531229,-0.000000
3.220000,1.808097,0.637483,-1.512398,1.590111,-1.143603,-0.514730,-3.900933,0.412497,2.386821,8.531639,13.724830,4.479211,64.567907,-13.808011,-72.277608,0.049151,0.483844,0.000000,1.679160,-0.651349,-0.000000
3.230000,1.823805,0.626070,-1.517426,1.551538,-1.138795,-0.490650,-3.812448,0.548979,2.427979,9.159291,13.564200,3.750282,60.914852,-18.301178,-73.450103,0.065980,0.476721,0.000000,1.685163,-0.770695,-0.000000
3.240000,1.839131,0.614711,-1.522210,1.513882,-1.132630,-0.466195,-3.717874,0.683633,2.461794,9.749021,13.359182,3.011383,56.987348,-22.681435,-74.270159,0.082823,0.468402,0.000000,1.682064,-0.888172,0.000000
3.250000,1.854086,0.603422,-1.526749,1.477200,-1.125130,-0.441439,-3.617603,0.816019,2.488185,10.298204,13.111034,2.266081,52.809521,-26.923005,-74.729533,0.099589,0.458905,0.000000,1.669416,-1.002620,0.000000
3.260000,1.868679,0.592213,-1.531038,1.441547,-1.116318,-0.416455,-3.512024,0.945686,2.507058,10.807121,12.818601,1.513554,48.338211,-30.932694,-74.707110,0.116175,0.448256,0.000000,1.646524,-1.113370,0.000000
3.270000,1.882920,0.581099,-1.535077,1.406975,-1.106225,-0.391321,-3.401613,1.072261,2.518463,11.267326,12.489977,0.768111,43.673074,-34.760400,-74.321340,0.132486,0.436503,0.000000,1.614091,-1.217938,0.000000
3.280000,1.896822,0.570093,-1.538864,1.373529,-1.094884,-0.366110,-3.286836,1.195361,2.522439,11.680045,12.124058,0.028319,38.846478,-38.388600,-73.577802,0.148424,0.423702,0.000000,1.571711,-1.315736,-0.000000
3.290000,1.910395,0.559206,-1.542399,1.341251,-1.082331,-0.340897,-3.168175,1.314624,2.519060,12.043825,11.722928,-0.702271,33.890790,-41.799776,-72.482073,0.163888,0.409920,0.000000,1.519563,-1.405635,0.000000
3.300000,1.923651,0.548450,-1.545683,1.310177,-1.068606,-0.315753,-3.046126,1.429710,2.508436,12.357538,11.288845,-1.420167,28.838377,-44.976406,-71.039733,0.178783,0.395235,0.000000,1.458019,-1.486590,0.000000
3.310000,1.936602,0.537838,-1.548715,1.280338,-1.053751,-0.290751,-2.921194,1.540260,2.490665,12.620355,10.820634,-2.126120,23.722192,-47.809880,-69.150512,0.193013,0.379736,0.000000,1.387107,-1.557864,0.000000
3.320000,1.949262,0.527379,-1.551498,1.251761,-1.037815,-0.265962,-2.793890,1.646032,2.465982,12.831849,10.329442,-2.806827,18.573945,-50.384921,-66.938797,0.206499,0.363523,0.000000,1.308858,-1.618236,-0.000000
3.330000,1.961642,0.517085,-1.554035,1.224466,-1.020847,-0.241453,-2.664729,1.746768,2.434607,12.991835,9.813818,-3.463882,13.425933,-52.695161,-64.423125,0.219167,0.346706,0.000000,1.223592,-1.667349,-0.000000
3.340000,1.973755,0.506965,-1.556329,1.198471,-1.002897,-0.217291,-2.534225,1.842236,2.396793,13.100476,9.276443,-4.094338,8.310452,-54.734232,-61.622038,0.230951,0.329398,0.000000,1.132360,-1.704823,-0.000000
3.350000,1.985616,0.497030,-1.558382,1.173785,-0.984020,-0.193538,-2.402889,1.932233,2.352818,13.158260,8.720059,-4.695434,3.259797,-56.495768,-58.554073,0.241798,0.311720,0.000000,1.036317,-1.730490,0.000000
3.360000,1.997236,0.487288,-1.560201,1.150415,-0.964270,-0.170253,-2.271254,2.016545,2.302960,13.163482,8.143959,-5.267378,-1.630233,-57.884625,-55.167414,0.251660,0.293794,0.000000,0.936161,-1.744193,0.000000
3.370000,2.008628,0.477747,-1.561789,1.128360,-0.943707,-0.147496,-2.139780,2.095071,2.247587,13.123226,7.559335,-5.801185,-6.398621,-58.994084,-51.559570,0.260514,0.275742,0.000000,0.834395,-1.746660,-0.000000
3.380000,2.019807,0.468416,-1.563153,1.107617,-0.922389,-0.125319,-2.008946,2.167700,2.187060,13.035996,6.964994,-6.297922,-11.020846,-59.828646,-47.757696,0.268344,0.257681,0.000000,0.731652,-1.738119,-0.000000
3.390000,2.030785,0.459302,-1.564298,1.088177,-0.900373,-0.103771,-1.879212,2.234348,2.121759,12.903378,6.363663,-6.755783,-15.472388,-60.392816,-43.788946,0.275148,0.239726,0.000000,0.629104,-1.719187,0.000000
3.400000,2.041575,0.450411,-1.565230,1.070028,-0.877722,-0.082898,-1.751023,2.294958,2.052079,12.727199,5.758024,-7.173235,-19.728726,-60.691096,-39.680474,0.280931,0.221988,0.000000,0.527837,-1.690618,-0.000000
3.410000,2.052190,0.441749,-1.565958,1.053152,-0.854494,-0.062742,-1.624852,2.349474,1.978426,12.505332,5.148088,-7.549633,-23.659181,-60.661696,-35.443888,0.285708,0.204572,0.000000,0.428487,-1.652806,-0.000000
3.420000,2.062642,0.433323,-1.566488,1.037524,-0.830752,-0.043341,-1.501044,2.397925,1.901229,12.250047,4.542659,-7.882529,-27.358392,-60.383532,-31.123792,0.289511,0.187564,0.000000,0.332740,-1.607834,0.000000
3.430000,2.072944,0.425136,-1.566827,1.023122,-0.806555,-0.024728,-1.379970,2.440340,1.820921,11.958974,3.941204,-8.171927,-30.814836,-59.869223,-26.749243,0.292376,0.171044,0.000000,0.240902,-1.556146,0.000000
3.440000,2.083109,0.417193,-1.566985,1.009915,-0.781965,-0.006932,-1.261976,2.476770,1.737937,11.634598,3.346020,-8.417429,-34.016995,-59.131391,-22.349299,0.294344,0.155083,0.000000,0.153537,-1.498737,-0.000000
3.450000,2.093147,0.409497,-1.566969,0.997871,-0.757040,0.010023,-1.147380,2.507289,1.652719,11.279520,2.759279,-8.618925,-36.953346,-58.182656,-17.953017,0.295463,0.139740,0.000000,0.071070,-1.436592,0.000000
3.460000,2.103070,0.402053,-1.566787,0.986956,-0.731838,0.026116,-1.036527,2.531977,1.565723,10.892013,2.181752,-8.774944,-39.500150,-57.003403,-13.631237,0.295782,0.125071,0.000000,-0.006303,-1.370139,0.000000
3.470000,2.112889,0.394861,-1.566449,0.977129,-0.706419,0.041332,-0.929621,2.550966,1.477363,10.485424,1.618378,-8.889874,-41.771845,-55.642437,-9.366119,0.295355,0.111104,0.000000,-0.078162,-1.301539,0.000000
3.480000,2.122616,0.387925,-1.565964,0.968350,-0.680837,0.055660,-0.826889,2.564393,1.388066,10.057485,1.069453,-8.962535,-43.770652,-54.116326,-5.181604,0.294237,0.097869,0.000000,-0.144562,-1.231007,0.000000
3.490000,2.132260,0.381245,-1.565339,0.960576,-0.655149,0.069092,-0.728533,2.572409,1.298250,9.610913,0.536547,-8.993854,-45.498792,-52.441637,-1.101632,0.292482,0.085383,0.000000,-0.205527,-1.159288,-0.000000
3.500000,2.141831,0.374822,-1.564585,0.953764,-0.629407,0.081625,-0.634724,2.575182,1.208323,9.148404,0.021061,-8.984996,-46.958485,-50.634939,2.849854,0.290144,0.073657,0.000000,-0.261158,-1.087045,0.000000
3.510000,2.151338,0.368657,-1.563710,0.947867,-0.603662,0.093259,-0.545642,2.572895,1.118714,8.669640,-0.475552,-8.934202,-48.076403,-48.718236,6.569023,0.287277,0.062698,0.000000,-0.311503,-1.014522,-0.000000
3.520000,2.160791,0.362749,-1.562723,0.942836,-0.577965,0.104000,-0.461364,2.565736,1.029760,8.184353,-0.952730,-8.850604,-48.939565,-46.701995,10.121606,0.283930,0.052497,0.000000,-0.357044,-0.943055,0.000000
3.530000,2.170197,0.357097,-1.561633,0.938623,-0.552363,0.113857,-0.381979,2.553909,0.941817,7.691660,-1.409313,-8.732373,-49.559442,-44.602117,13.493444,0.280152,0.043046,0.000000,-0.397891,-0.872659,-0.000000
3.540000,2.179566,0.351701,-1.560448,0.935180,-0.526902,0.122841,-0.307548,2.537621,0.855222,7.193937,-1.844546,-8.581385,-49.947504,-42.434506,16.670380,0.275987,0.034331,0.000000,-0.434308,-0.803680,-0.000000
3.550000,2.188903,0.346559,-1.559179,0.932456,-0.501625,0.130967,-0.238110,2.517091,0.770292,6.693444,-2.257831,-8.399662,-50.115224,-40.215064,19.638253,0.271480,0.026334,0.000000,-0.466571,-0.736398,-0.000000
3.560000,2.198217,0.341668,-1.557832,0.930401,-0.476574,0.138252,-0.173692,2.492554,0.687362,6.191332,-2.647422,-8.185898,-50.048911,-37.992666,22.295344,0.266671,0.019037,0.000000,-0.494740,-0.670926,-0.000000
3.570000,2.207514,0.337026,-1.556416,0.928966,-0.451787,0.144721,-0.114277,2.464217,0.606659,5.691990,-3.016132,-7.950602,-49.788278,-35.746204,24.725778,0.261597,0.012416,0.000000,-0.519645,-0.607697,0.000000
3.580000,2.216798,0.332631,-1.554940,0.928099,-0.427301,0.150394,-0.059840,2.432306,0.528427,5.196166,-3.362306,-7.692149,-49.347877,-33.487544,26.926116,0.256289,0.006447,0.000000,-0.541299,-0.546697,-0.000000
3.590000,2.226077,0.328479,-1.553411,0.927752,-0.403152,0.155298,-0.010337,2.397046,0.452885,4.705584,-3.685882,-7.412858,-48.742259,-31.228551,28.892921,0.250781,0.001105,0.000000,-0.559966,-0.488005,0.000000
3.600000,2.235355,0.324567,-1.551837,0.927876,-0.379371,0.159461,0.034294,2.358664,0.380231,4.221823,-3.986915,-7.115080,-47.985976,-28.981091,30.622755,0.245099,-0.003637,0.000000,-0.575902,-0.431664,-0.000000
3.610000,2.244636,0.320890,-1.550224,0.928422,-0.355989,0.162912,0.074132,2.317401,0.310668,3.746790,-4.263915,-6.798363,-47.105517,-26.799124,32.040427,0.239273,-0.007804,0.000000,-0.589118,-0.377741,0.000000
3.620000,2.253925,0.317446,-1.548581,0.929343,-0.333032,0.165684,0.109261,2.273457,0.244307,3.280655,-4.521119,-6.471852,-46.102035,-24.647266,33.223041,0.233324,-0.011422,0.000000,-0.600397,-0.326106,0.000000
3.630000,2.263224,0.314228,-1.546913,0.930592,-0.310528,0.167809,0.139781,2.227049,0.181267,2.825116,-4.756983,-6.134668,-44.988621,-22.532226,34.175946,0.227272,-0.014516,0.000000,-0.609679,-0.276790,0.000000
3.640000,2.272537,0.311234,-1.545227,0.932123,-0.288499,0.169321,0.165802,2.178388,0.121642,2.381206,-4.971908,-5.789081,-43.778365,-20.460715,34.904490,0.221136,-0.017112,0.000000,-0.617155,-0.229751,-0.000000
3.650000,2.281867,0.308457,-1.543528,0.933893,-0.266967,0.170254,0.187447,2.127679,0.065506,1.949828,-5.166365,-5.437308,-42.484357,-18.439444,35.414024,0.214934,-0.019234,0.000000,-0.623001,-0.184936,-0.000000
3.660000,2.291216,0.305892,-1.541823,0.935858,-0.245952,0.170642,0.204856,2.075142,0.012928,1.532950,-5.339445,-5.079730,-41.149887,-16.511546,35.664871,0.208683,-0.020907,0.000000,-0.627202,-0.142407,-0.000000
3.670000,2.300585,0.303536,-1.540117,0.937976,-0.225470,0.170524,0.218151,2.020954,-0.036084,1.128383,-5.495167,-4.722677,-39.754149,-14.642849,35.712919,0.202395,-0.022153,0.000000,-0.630326,-0.101803,0.000000
3.680000,2.309976,0.301381,-1.538414,0.940208,-0.205538,0.169933,0.227471,1.965300,-0.081527,0.738040,-5.632507,-4.366112,-38.306534,-12.835603,35.569029,0.196081,-0.022993,0.000000,-0.632300,-0.063194,0.000000
3.690000,2.319389,0.299423,-1.536720,0.942513,-0.186168,0.168905,0.232961,1.908363,-0.123414,0.362393,-5.752091,-4.011900,-36.816436,-11.092059,35.244066,0.189752,-0.023448,0.000000,-0.633238,-0.026511,-0.000000
3.700000,2.328826,0.297656,-1.535038,0.944855,-0.167374,0.167476,0.234770,1.850316,-0.161778,0.001821,-5.854568,-3.661798,-35.293248,-9.414468,34.748889,0.183419,-0.023539,0.000000,-0.633243,0.008316,-0.000000
3.710000,2.338287,0.296074,-1.533372,0.947196,-0.149165,0.165681,0.233063,1.791337,-0.196662,-0.342118,-5.939664,-3.316758,-33.778544,-7.828922,34.076794,0.177091,-0.023287,0.000000,-0.632303,0.041231,-0.000000
3.720000,2.347770,0.294671,-1.531725,0.949504,-0.131550,0.163554,0.227978,1.731574,-0.228138,-0.672252,-6.010307,-2.979965,-32.245594,-6.310911,33.258363,0.170775,-0.022707,0.000000,-0.630741,0.072602,-0.000000
3.730000,2.357276,0.293441,-1.530101,0.951745,-0.114536,0.161129,0.219669,1.671180,-0.256291,-0.986988,-6.066105,-2.652035,-30.699850,-4.859764,32.306610,0.164478,-0.021819,0.000000,-0.628510,0.102348,-0.000000
3.740000,2.366805,0.292378,-1.528503,0.953887,-0.098128,0.158439,0.208290,1.610299,-0.281213,-1.286224,-6.107723,-2.334234,-29.146762,-3.474814,31.234547,0.158207,-0.020638,0.000000,-0.625666,0.130527,0.000000
3.750000,2.376354,0.291476,-1.526933,0.955901,-0.082331,0.155515,0.193996,1.549070,-0.303013,-1.569916,-6.135820,-2.027701,-27.591784,-2.155391,30.055188,0.151967,-0.019180,0.000000,-0.622259,0.157192,0.000000
3.760000,2.385922,0.290729,-1.525394,0.957758,-0.067148,0.152389,0.176954,1.487630,-0.321810,-1.837129,-6.150637,-1.733628,-26.064177,-0.911175,28.786176,0.145764,-0.017463,0.000000,-0.618291,0.182301,0.000000
3.770000,2.395508,0.290131,-1.523886,0.959431,-0.052579,0.149089,0.157304,1.426098,-0.337729,-2.090157,-6.153791,-1.452457,-24.542668,0.270118,27.435328,0.139603,-0.015500,0.000000,-0.613885,0.206117,0.000000
3.780000,2.405110,0.289676,-1.522413,0.960896,-0.038626,0.145643,0.135201,1.364593,-0.350905,-2.328011,-6.145438,-1.185152,-23.029791,1.390426,26.015093,0.133488,-0.013305,0.000000,-0.609027,0.228574,0.000000
3.790000,2.414725,0.289357,-1.520974,0.962128,-0.025287,0.142079,0.110794,1.303226,-0.361480,-2.550790,-6.126179,-0.932345,-21.528085,2.451685,24.537917,0.127424,-0.010892,0.000000,-0.603737,0.249706,0.000000
3.800000,2.424352,0.289168,-1.519571,0.963104,-0.012560,0.138422,0.084235,1.242104,-0.369602,-2.758619,-6.096595,-0.694542,-20.040084,3.455831,23.016246,0.121415,-0.008275,0.000000,-0.598030,0.269542,-0.000000
3.810000,2.433987,0.289103,-1.518206,0.963805,-0.000443,0.134695,0.055677,1.181327,-0.375431,-2.951159,-6.057233,-0.472894,-18.580633,4.404450,21.481900,0.115464,-0.005466,0.000000,-0.591926,0.288057,-0.000000
3.820000,2.443627,0.289157,-1.516878,0.964212,0.011068,0.130921,0.025260,1.120990,-0.379112,-3.129740,-6.008667,-0.265843,-17.138454,5.299872,19.925582,0.109577,-0.002479,0.000000,-0.585414,0.305385,0.000000
3.830000,2.453270,0.289323,-1.515587,0.964305,0.021978,0.127119,-0.006870,1.061182,-0.380800,-3.293989,-5.951406,-0.074422,-15.714575,6.144076,18.357367,0.103757,0.000674,0.000000,-0.578508,0.321488,-0.000000
3.840000,2.462912,0.289595,-1.514335,0.964069,0.032293,0.123311,-0.040572,1.001989,-0.380652,-3.444096,-5.885950,0.101299,-14.310025,6.939041,16.787328,0.098008,0.003981,0.000000,-0.571211,0.336378,-0.000000
3.850000,2.472550,0.289967,-1.513121,0.963489,0.042020,0.119512,-0.075706,0.943489,-0.378826,-3.580257,-5.812783,0.261352,-12.925834,7.686745,15.225541,0.092334,0.007430,0.000000,-0.563525,0.350064,-0.000000
3.860000,2.482180,0.290433,-1.511945,0.962550,0.051166,0.115740,-0.112130,0.885755,-0.375489,-3.702558,-5.732534,0.404810,-11.566205,8.393410,13.708872,0.086739,0.011008,0.000000,-0.555472,0.362538,0.000000
3.870000,2.491800,0.290988,-1.510806,0.961242,0.059738,0.112007,-0.149712,0.828861,-0.370780,-3.811513,-5.645250,0.534417,-10.228603,9.056254,12.217324,0.081226,0.014704,0.000000,-0.546992,0.373837,-0.000000
3.880000,2.501404,0.291626,-1.509704,0.959553,0.067746,0.108328,-0.188316,0.772872,-0.364850,-3.907205,-5.551550,0.649263,-8.913670,9.676737,10.757690,0.075801,0.018506,0.000000,-0.538113,0.383950,-0.000000
3.890000,2.510990,0.292341,-1.508639,0.957473,0.075199,0.104714,-0.227813,0.717850,-0.357843,-3.989864,-5.451851,0.749700,-7.622046,10.256319,9.336765,0.070465,0.022401,0.000000,-0.528835,0.392877,0.000000
3.900000,2.520552,0.293128,-1.507610,0.954994,0.082107,0.101174,-0.268071,0.663853,-0.349902,-4.059726,-5.346555,0.836150,-6.354372,10.796460,7.961343,0.065225,0.026379,0.000000,-0.519159,0.400621,0.000000
3.910000,2.530088,0.293981,-1.506616,0.952109,0.088480,0.097719,-0.308966,0.610934,-0.341177,-4.117096,-5.236239,0.907991,-5.109704,11.303429,6.666263,0.060083,0.030427,0.000000,-0.509111,0.407187,0.000000
3.920000,2.539593,0.294896,-1.505655,0.948813,0.094329,0.094353,-0.350372,0.559145,-0.331785,-4.162076,-5.120825,0.968408,-3.890461,11.773289,5.426839,0.055044,0.034534,0.000000,-0.498634,0.412569,0.000000
3.930000,2.549063,0.295866,-1.504728,0.945101,0.099666,0.091085,-0.392167,0.508533,-0.321849,-4.194993,-5.000894,1.016724,-2.697477,12.206909,4.246432,0.050112,0.038687,0.000000,-0.487763,0.416775,-0.000000
3.940000,2.558494,0.296888,-1.503833,0.940969,0.104504,0.087918,-0.434232,0.459141,-0.311488,-4.216116,-4.876805,1.053545,-1.531587,12.605160,3.128402,0.045290,0.042876,0.000000,-0.476505,0.419812,-0.000000
3.950000,2.567881,0.297955,-1.502969,0.936415,0.108853,0.084856,-0.476451,0.411009,-0.300814,-4.225718,-4.748906,1.079511,-0.393624,12.968915,2.076108,0.040583,0.047088,0.000000,-0.464871,0.421687,0.000000
3.960000,2.577221,0.299063,-1.502136,0.931440,0.112728,0.081903,-0.518710,0.364173,-0.289943,-4.224164,-4.617654,1.094322,0.717590,13.301965,1.117551,0.035994,0.051313,0.000000,-0.452887,0.422412,0.000000
3.970000,2.586508,0.300208,-1.501331,0.926042,0.116141,0.079058,-0.560898,0.318667,-0.278959,-4.211556,-4.483108,1.100994,1.798960,13.601902,0.228434,0.031527,0.055538,0.000000,-0.440533,0.421994,0.000000
3.980000,2.595740,0.301384,-1.500554,0.920222,0.119106,0.076323,-0.602906,0.274520,-0.267951,-4.188288,-4.345725,1.099123,2.849406,13.869239,-0.590900,0.027184,0.059753,0.000000,-0.427844,0.420453,-0.000000
3.990000,2.604911,0.302588,-1.499804,0.913984,0.121636,0.073699,-0.644629,0.231761,-0.257002,-4.154674,-4.205830,1.089410,3.867846,14.104488,-1.340109,0.022971,0.063947,0.000000,-0.414839,0.417808,-0.000000
4.000000,2.614018,0.303816,-1.499080,0.907331,0.123746,0.071183,-0.685966,0.190411,-0.246187,-4.111041,-4.063740,1.072556,4.853198,14.308164,-2.018850,0.018889,0.068108,0.000000,-0.401542,0.414082,-0.000000
4.010000,2.623057,0.305062,-1.498380,0.900267,0.125449,0.068775,-0.726818,0.150492,-0.235581,-4.057720,-3.919786,1.048546,5.804276,14.481191,-2.608522,0.014941,0.072226,0.000000,-0.387979,0.409294,-0.000000
4.020000,2.632022,0.306323,-1.497704,0.892797,0.126761,0.066471,-0.767089,0.112021,-0.225235,-3.995068,-3.774237,1.019800,6.720117,14.623620,-3.129275,0.011130,0.076291,0.000000,-0.374170,0.403489,0.000000
4.030000,2.640911,0.307596,-1.497050,0.884927,0.127695,0.064269,-0.806689,0.075012,-0.215201,-3.923439,-3.627414,0.986184,7.599654,14.735914,-3.583001,0.007458,0.080293,0.000000,-0.360148,0.396693,0.000000
4.040000,2.649719,0.308876,-1.496418,0.876665,0.128266,0.062165,-0.845529,0.039476,-0.205525,-3.843200,-3.479618,0.948357,8.441818,14.818534,-3.971594,0.003927,0.084222,0.000000,-0.345943,0.388943,-0.000000
4.050000,2.658443,0.310160,-1.495807,0.868019,0.128489,0.060157,-0.883526,0.005421,-0.196246,-3.754730,-3.331141,0.906963,9.245542,14.871944,-4.296946,0.000540,0.088069,0.000000,-0.331585,0.380277,0.000000
4.060000,2.667079,0.311445,-1.495215,0.858998,0.128379,0.058239,-0.920597,-0.027145,-0.187400,-3.658309,-3.182217,0.862202,10.006939,14.895153,-4.550331,-0.002704,0.091825,0.000000,-0.317102,0.370723,0.000000
4.070000,2.675622,0.312727,-1.494642,0.849611,0.127951,0.056408,-0.956667,-0.058223,-0.179009,-3.554600,-3.033267,0.815676,10.728104,14.890254,-4.745560,-0.005802,0.095481,0.000000,-0.302541,0.360360,-0.000000
4.080000,2.684070,0.314003,-1.494087,0.839868,0.127220,0.054657,-0.991665,-0.087811,-0.171092,-3.443883,-2.884503,0.767475,11.408314,14.857888,-4.885826,-0.008754,0.099029,0.000000,-0.287928,0.349220,-0.000000
4.090000,2.692418,0.315270,-1.493548,0.829781,0.126200,0.052984,-1.025523,-0.115914,-0.163663,-3.326573,-2.736198,0.718132,12.046846,14.798697,-4.974322,-0.011561,0.102463,0.000000,-0.273298,0.337350,0.000000
4.100000,2.700664,0.316526,-1.493027,0.819362,0.124906,0.051383,-1.058176,-0.142538,-0.156732,-3.203088,-2.588617,0.668150,12.642977,14.713320,-5.014242,-0.014220,0.105775,0.000000,-0.258685,0.324801,0.000000
4.110000,2.708804,0.317767,-1.492520,0.808622,0.123354,0.049848,-1.089563,-0.167689,-0.150302,-3.073668,-2.441932,0.617868,13.191219,14.600255,-5.005477,-0.016734,0.108957,0.000000,-0.244112,0.311605,-0.000000
4.120000,2.716836,0.318992,-1.492029,0.797575,0.121557,0.048375,-1.119632,-0.191380,-0.144373,-2.939195,-2.296598,0.568032,13.696197,14.462548,-4.954924,-0.019103,0.112006,0.000000,-0.229633,0.297862,-0.000000
4.130000,2.724755,0.320198,-1.491553,0.786234,0.119531,0.046959,-1.148331,-0.213626,-0.138939,-2.799889,-2.152760,0.518897,14.157772,14.301102,-4.866182,-0.021327,0.114914,0.000000,-0.215270,0.283602,-0.000000
4.140000,2.732559,0.321382,-1.491090,0.774613,0.117290,0.045594,-1.175615,-0.234441,-0.133992,-2.656185,-2.010652,0.470824,14.575804,14.116822,-4.742846,-0.023409,0.117677,0.000000,-0.201053,0.268879,-0.000000
4.150000,2.740246,0.322543,-1.490641,0.762726,0.114847,0.044277,-1.201442,-0.253845,-0.129518,-2.508518,-1.870497,0.424143,14.950155,13.910608,-4.588514,-0.025349,0.120292,0.000000,-0.187012,0.253746,0.000000
4.160000,2.747813,0.323678,-1.490204,0.750589,0.112217,0.043003,-1.225771,-0.271858,-0.125502,-2.357119,-1.732439,0.379244,15.275414,13.681562,-4.409275,-0.027150,0.122753,0.000000,-0.173167,0.238236,0.000000
4.170000,2.755257,0.324787,-1.489781,0.738216,0.109414,0.041766,-1.248574,-0.288502,-0.121927,-2.202919,-1.596852,0.336149,15.557358,13.432611,-4.205927,-0.028813,0.125057,0.000000,-0.159561,0.222447,-0.000000
4.180000,2.762577,0.325866,-1.489369,0.725623,0.106452,0.040563,-1.269821,-0.303803,-0.118772,-2.046114,-1.463849,0.295195,15.796492,13.164879,-3.981764,-0.030342,0.127203,0.000000,-0.146210,0.206409,0.000000
4.190000,2.769769,0.326915,-1.488969,0.712825,0.103343,0.039389,-1.289489,-0.317788,-0.116015,-1.887130,-1.333613,0.256572,15.993322,12.879489,-3.740078,-0.031738,0.129187,0.000000,-0.133137,0.190171,-0.000000
4.200000,2.776832,0.327932,-1.488581,0.699838,0.100100,0.038241,-1.307558,-0.330485,-0.113632,-1.726387,-1.206314,0.220440,16.148354,12.577566,-3.484159,-0.033006,0.131007,0.000000,-0.120364,0.173781,0.000000
4.210000,2.783765,0.328917,-1.488204,0.686679,0.096737,0.037115,-1.324010,-0.341925,-0.111595,-1.564123,-1.082079,0.187168,16.257606,12.259373,-3.223427,-0.034147,0.132664,0.000000,-0.107906,0.157272,0.000000
4.220000,2.790565,0.329867,-1.487839,0.673363,0.093266,0.036008,-1.338837,-0.352138,-0.109880,-1.401169,-0.961136,0.156273,16.326620,11.927000,-2.954297,-0.035165,0.134154,0.000000,-0.095786,0.140723,-0.000000
4.230000,2.797232,0.330782,-1.487484,0.659908,0.089699,0.034917,-1.352032,-0.361159,-0.108461,-1.237721,-0.843582,0.128102,16.356452,11.581676,-2.679309,-0.036063,0.135480,0.000000,-0.084018,0.124161,0.000000
4.240000,2.803763,0.331661,-1.487140,0.646328,0.086047,0.033838,-1.363591,-0.369021,-0.107309,-1.074167,-0.729541,0.102698,16.348158,11.224630,-2.401007,-0.036846,0.136639,0.000000,-0.072614,0.107627,0.000000
4.250000,2.810158,0.332502,-1.486807,0.632641,0.082322,0.032770,-1.373516,-0.375762,-0.106397,-0.910882,-0.619125,0.080084,16.302793,10.857093,-2.121932,-0.037517,0.137634,0.000000,-0.061586,0.091160,-0.000000
4.260000,2.816416,0.333307,-1.486485,0.618863,0.078535,0.031709,-1.381810,-0.381416,-0.105695,-0.748117,-0.512443,0.060553,16.218534,10.480602,-1.852181,-0.038079,0.138464,0.000000,-0.050947,0.074791,0.000000
4.270000,2.822535,0.334073,-1.486173,0.605010,0.074697,0.030655,-1.388482,-0.386023,-0.105177,-0.586498,-0.409553,0.043366,16.099667,10.096040,-1.585815,-0.038537,0.139131,0.000000,-0.040698,0.058571,0.000000
4.280000,2.828516,0.334801,-1.485872,0.591099,0.070818,0.029605,-1.393544,-0.389620,-0.104819,-0.426235,-0.310545,0.028820,15.947600,9.704598,-1.324450,-0.038895,0.139637,0.000000,-0.030850,0.042525,0.000000
4.290000,2.834357,0.335489,-1.485581,0.577145,0.066908,0.028558,-1.397012,-0.392247,-0.104592,-0.267652,-0.215480,0.016855,15.763739,9.307469,-1.069703,-0.039156,0.139983,0.000000,-0.021407,0.026685,-0.000000
4.300000,2.840059,0.336139,-1.485301,0.563164,0.062976,0.027513,-1.398904,-0.393943,-0.104473,-0.111061,-0.124410,0.007398,15.549493,8.905843,-0.823190,-0.039324,0.140172,0.000000,-0.012374,0.011078,0.000000
4.310000,2.845620,0.336749,-1.485031,0.549172,0.059032,0.026468,-1.399241,-0.394749,-0.104433,0.043286,-0.037420,0.000644,15.305146,8.502068,-0.593722,-0.039405,0.140206,0.000000,-0.003758,-0.004268,-0.000000
4.320000,2.851042,0.337319,-1.484771,0.535184,0.055084,0.025424,-1.398047,-0.394705,-0.104453,0.195001,0.045572,-0.004190,15.033366,8.096038,-0.374841,-0.039401,0.140087,0.000000,0.004454,-0.019328,0.000000
4.330000,2.856324,0.337850,-1.484522,0.521216,0.051141,0.024379,-1.395350,-0.393851,-0.104510,0.343867,0.124497,-0.006891,14.735699,7.688804,-0.167281,-0.039317,0.139820,0.000000,0.012254,-0.034079,-0.000000
4.340000,2.861466,0.338342,-1.484284,0.507282,0.047210,0.023334,-1.391180,-0.392229,-0.104584,0.489633,0.199347,-0.007576,14.413691,7.281415,0.028222,-0.039157,0.139406,0.000000,0.019644,-0.048500,-0.000000
4.350000,2.866470,0.338795,-1.484056,0.493397,0.043298,0.022287,-1.385569,-0.389878,-0.104655,0.632065,0.270128,-0.006369,14.068886,6.874922,0.210933,-0.038925,0.138850,0.000000,0.026627,-0.062570,-0.000000
4.360000,2.871335,0.339208,-1.483838,0.479575,0.039414,0.021241,-1.378551,-0.386840,-0.104703,0.770923,0.336784,-0.003177,13.703271,6.472108,0.374431,-0.038626,0.138155,0.000000,0.033197,-0.076268,-0.000000
4.370000,2.876062,0.339583,-1.483631,0.465831,0.035564,0.020193,-1.370163,-0.383156,-0.104713,0.906045,0.399502,0.001328,13.317897,6.072077,0.524362,-0.038263,0.137325,0.000000,0.039377,-0.089588,0.000000
4.380000,2.880652,0.339920,-1.483434,0.452177,0.031753,0.019146,-1.360443,-0.378864,-0.104672,1.037220,0.458237,0.007265,12.914254,5.675668,0.660686,-0.037840,0.136364,0.000000,0.045164,-0.102509,0.000000
4.390000,2.885105,0.340218,-1.483248,0.438626,0.027988,0.018100,-1.349432,-0.374004,-0.104564,1.164274,0.513030,0.014496,12.493836,5.283720,0.783365,-0.037361,0.135275,0.000000,0.050562,-0.115019,-0.000000
4.400000,2.889424,0.340480,-1.483072,0.425192,0.024275,0.017055,-1.337172,-0.368616,-0.104378,1.287046,0.563930,0.022886,12.058132,4.897069,0.892357,-0.036830,0.134063,0.000000,0.055577,-0.127105,-0.000000
4.410000,2.893610,0.340704,-1.482907,0.411887,0.020618,0.016013,-1.323706,-0.362739,-0.104101,1.405327,0.610911,0.032444,11.610233,4.518603,0.983931,-0.036250,0.132733,0.000000,0.060208,-0.138747,-0.000000
4.420000,2.897663,0.340892,-1.482752,0.398722,0.017022,0.014974,-1.309080,-0.356410,-0.103726,1.519137,0.654233,0.042686,11.149835,4.146860,1.062192,-0.035627,0.131288,0.000000,0.064483,-0.149956,-0.000000
4.430000,2.901585,0.341045,-1.482607,0.385709,0.013491,0.013939,-1.293339,-0.349667,-0.103245,1.628287,0.693873,0.053645,10.678236,3.782427,1.127555,-0.034962,0.129733,0.000000,0.068400,-0.160712,-0.000000
4.440000,2.905377,0.341162,-1.482473,0.372859,0.010030,0.012909,-1.276530,-0.342545,-0.102651,1.732669,0.729907,0.065195,10.196732,3.425892,1.180431,-0.034260,0.128073,0.000000,0.071966,-0.171009,-0.000000
4.450000,2.909042,0.341245,-1.482349,0.360182,0.006641,0.011886,-1.258702,-0.335080,-0.101940,1.832192,0.762419,0.077213,9.706618,3.077842,1.221235,-0.033524,0.126312,0.000000,0.075190,-0.180838,-0.000000
4.460000,2.912582,0.341295,-1.482235,0.347688,0.003329,0.010871,-1.239904,-0.327309,-0.101105,1.926690,0.791417,0.089651,9.211395,2.740829,1.248614,-0.032757,0.124456,0.000000,0.078074,-0.190185,0.000000
4.470000,2.915997,0.341312,-1.482132,0.335387,0.000096,0.009864,-1.220185,-0.319263,-0.100146,2.016301,0.817179,0.102228,8.709884,2.413234,1.264961,-0.031963,0.122508,0.000000,0.080644,-0.199067,-0.000000
4.480000,2.919290,0.341297,-1.482038,0.323287,-0.003055,0.008868,-1.199595,-0.310976,-0.099060,2.100870,0.839714,0.114915,8.203112,2.095405,1.270908,-0.031145,0.120474,0.000000,0.082903,-0.207468,-0.000000
4.490000,2.922463,0.341251,-1.481954,0.311398,-0.006123,0.007884,-1.178184,-0.302479,-0.097847,2.180349,0.859121,0.127613,7.692103,1.787686,1.267082,-0.030306,0.118358,0.000000,0.084859,-0.215385,-0.000000
4.500000,2.925519,0.341175,-1.481880,0.299726,-0.009104,0.006912,-1.156005,-0.293804,-0.096508,2.254701,0.875502,0.140226,7.177885,1.490426,1.254114,-0.029449,0.116166,0.000000,0.086523,-0.222814,0.000000
4.510000,2.928459,0.341070,-1.481816,0.288280,-0.011998,0.005954,-1.133109,-0.284980,-0.095043,2.323803,0.888894,0.152676,6.663928,1.205768,1.232405,-0.028577,0.113902,0.000000,0.087896,-0.229743,-0.000000
4.520000,2.931285,0.340936,-1.481761,0.277066,-0.014804,0.005011,-1.109546,-0.276035,-0.093455,2.387866,0.899574,0.164859,6.148514,0.932041,1.202838,-0.027692,0.111571,0.000000,0.089007,-0.236193,0.000000
4.530000,2.934001,0.340774,-1.481716,0.266091,-0.017519,0.004085,-1.085369,-0.266997,-0.091747,2.446770,0.907572,0.176709,5.632369,0.669370,1.166074,-0.026798,0.109178,0.000000,0.089857,-0.242151,0.000000
4.540000,2.936608,0.340586,-1.481679,0.255361,-0.020143,0.003177,-1.060628,-0.257892,-0.089923,2.500513,0.912999,0.188158,5.116219,0.417883,1.122767,-0.025896,0.106728,0.000000,0.090458,-0.247617,0.000000
4.550000,2.939109,0.340371,-1.481652,0.244880,-0.022677,0.002287,-1.035376,-0.248745,-0.087986,2.549097,0.915967,0.199145,4.600790,0.177705,1.073576,-0.024989,0.104226,0.000000,0.090818,-0.252589,-0.000000
4.560000,2.941506,0.340132,-1.481634,0.234655,-0.025118,0.001417,-1.009664,-0.239581,-0.085942,2.592440,0.916530,0.209581,4.089185,-0.049497,1.019937,-0.024080,0.101676,0.000000,0.090944,-0.257058,-0.000000
4.570000,2.943803,0.339869,-1.481624,0.224688,-0.027468,0.000569,-0.983544,-0.230422,-0.083796,2.630781,0.914946,0.219493,3.579463,-0.265325,0.961633,-0.023171,0.099085,0.000000,0.090859,-0.261046,-0.000000
4.580000,2.946001,0.339583,-1.481622,0.214985,-0.029727,-0.000258,-0.957065,-0.221289,-0.081554,2.664037,0.911261,0.228800,3.072060,-0.469843,0.899226,-0.022264,0.096456,0.000000,0.090567,-0.264544,-0.000000
4.590000,2.948103,0.339275,-1.481629,0.205548,-0.031894,-0.001062,-0.930280,-0.212204,-0.079222,2.692232,0.905587,0.237466,2.567411,-0.663113,0.833277,-0.021361,0.093794,0.000000,0.090079,-0.267551,-0.000000
4.600000,2.950113,0.338946,-1.481643,0.196380,-0.033971,-0.001842,-0.903238,-0.203184,-0.076807,2.715396,0.898036,0.245456,2.065953,-0.845196,0.764348,-0.020463,0.091105,0.000000,0.089404,-0.270069,-0.000000
4.610000,2.952032,0.338596,-1.481665,0.187484,-0.035958,-0.002598,-0.875989,-0.194249,-0.074316,2.733482,0.888671,0.252694,1.570150,-1.014914,0.694276,-0.019573,0.088393,0.000000,0.088550,-0.272092,0.000000
4.620000,2.953863,0.338227,-1.481695,0.178861,-0.037856,-0.003328,-0.848584,-0.185416,-0.071755,2.746721,0.877719,0.259278,1.078160,-1.173723,0.622192,-0.018692,0.085664,0.000000,0.087536,-0.273640,0.000000
4.630000,2.955610,0.337839,-1.481732,0.170513,-0.039667,-0.004033,-0.821071,-0.176700,-0.069133,2.755059,0.865232,0.265133,0.590170,-1.321837,0.548501,-0.017823,0.082921,0.000000,0.086368,-0.274705,0.000000
4.640000,2.957274,0.337434,-1.481776,0.162440,-0.041391,-0.004711,-0.793499,-0.168116,-0.066455,2.758538,0.851317,0.270244,0.106366,-1.459472,0.473610,-0.016966,0.080170,0.000000,0.085056,-0.275289,-0.000000
4.650000,2.958860,0.337012,-1.481826,0.154643,-0.043030,-0.005362,-0.765917,-0.159678,-0.063730,2.757201,0.836077,0.274602,-0.373063,-1.586841,0.397924,-0.016122,0.077416,0.000000,0.083609,-0.275396,0.000000
4.660000,2.960368,0.336573,-1.481883,0.147121,-0.044585,-0.005985,-0.738372,-0.151399,-0.060966,2.751045,0.819577,0.278147,-0.846754,-1.703228,0.323213,-0.015294,0.074663,0.000000,0.082033,-0.275022,0.000000
4.670000,2.961803,0.336120,-1.481946,0.139875,-0.046058,-0.006581,-0.710912,-0.143290,-0.058170,2.740228,0.802003,0.281005,-1.315841,-1.809892,0.248352,-0.014482,0.071917,0.000000,0.080346,-0.274180,0.000000
4.680000,2.963167,0.335653,-1.482014,0.132903,-0.047451,-0.007149,-0.683583,-0.135362,-0.055349,2.724744,0.783410,0.283114,-1.780281,-1.907163,0.173578,-0.013687,0.069181,0.000000,0.078554,-0.272869,-0.000000
4.690000,2.964462,0.335171,-1.482089,0.126203,-0.048766,-0.007688,-0.656432,-0.127625,-0.052510,2.704638,0.763890,0.284478,-2.240032,-1.995368,0.099131,-0.012911,0.066460,0.000000,0.076665,-0.271091,0.000000
4.700000,2.965692,0.334677,-1.482168,0.119773,-0.050004,-0.008199,-0.629505,-0.120087,-0.049662,2.679959,0.743532,0.285099,-2.695051,-2.074836,0.025250,-0.012154,0.063760,0.000000,0.074687,-0.268848,0.000000
4.710000,2.966858,0.334172,-1.482252,0.113612,-0.051168,-0.008681,-0.602848,-0.112758,-0.046811,2.650779,0.722359,0.284940,-3.145933,-2.144323,-0.046690,-0.011418,0.061084,0.000000,0.072623,-0.266148,0.000000
4.720000,2.967965,0.333654,-1.482342,0.107715,-0.052260,-0.009135,-0.576505,-0.105642,-0.043965,2.617085,0.700602,0.284117,-3.591920,-2.205923,-0.117727,-0.010702,0.058438,0.000000,0.070496,-0.262985,0.000000
4.730000,2.969013,0.333127,-1.482435,0.102080,-0.053282,-0.009561,-0.550521,-0.098748,-0.041131,2.578957,0.678265,0.282589,-4.032890,-2.260156,-0.187761,-0.010008,0.055826,0.000000,0.068305,-0.259367,-0.000000
4.740000,2.970007,0.332589,-1.482533,0.096704,-0.054236,-0.009958,-0.524940,-0.092079,-0.038316,2.536445,0.655421,0.280366,-4.468722,-2.307544,-0.256694,-0.009336,0.053252,0.000000,0.066059,-0.255297,-0.000000
4.750000,2.970948,0.332042,-1.482634,0.091580,-0.055124,-0.010327,-0.499806,-0.085641,-0.035526,2.489600,0.632136,0.277459,-4.899295,-2.348607,-0.324426,-0.008687,0.050721,0.000000,0.063763,-0.250780,0.000000
4.760000,2.971840,0.331487,-1.482739,0.086706,-0.055950,-0.010668,-0.475157,-0.079436,-0.032769,2.438960,0.608629,0.273838,-5.336699,-2.387910,-0.389759,-0.008061,0.048237,0.000000,0.061439,-0.245868,-0.000000
4.770000,2.972683,0.330923,-1.482847,0.082075,-0.056714,-0.010982,-0.451042,-0.073469,-0.030051,2.383435,0.584577,0.269619,-5.767108,-2.421435,-0.453827,-0.007458,0.045805,0.000000,0.059056,-0.240450,0.000000
4.780000,2.973482,0.330353,-1.482959,0.077683,-0.057420,-0.011270,-0.427503,-0.067745,-0.027379,2.323647,0.560219,0.264766,-6.188904,-2.449208,-0.516665,-0.006880,0.043430,0.000000,0.056636,-0.234588,-0.000000
4.790000,2.974238,0.329775,-1.483073,0.073523,-0.058070,-0.011530,-0.404583,-0.062266,-0.024758,2.259691,0.535612,0.259290,-6.600472,-2.471255,-0.578308,-0.006326,0.041115,0.000000,0.054187,-0.228290,0.000000
4.800000,2.974953,0.329191,-1.483189,0.069589,-0.058666,-0.011765,-0.382322,-0.057034,-0.022195,2.191677,0.510813,0.253203,-7.000195,-2.487601,-0.638792,-0.005796,0.038865,0.000000,0.051713,-0.221568,-0.000000
4.810000,2.975630,0.328602,-1.483308,0.065874,-0.059211,-0.011974,-0.360748,-0.052053,-0.019696,2.121016,0.485606,0.246515,-7.418905,-2.491384,-0.698084,-0.005292,0.036683,0.000000,0.049193,-0.214564,-0.000000
4.820000,2.976271,0.328007,-1.483429,0.062371,-0.059708,-0.012159,-0.339916,-0.047321,-0.017267,2.044811,0.460694,0.239242,-7.818565,-2.490361,-0.756296,-0.004812,0.034575,0.000000,0.046698,-0.206983,-0.000000
4.830000,2.976878,0.327408,-1.483551,0.059073,-0.060158,-0.012320,-0.319865,-0.042839,-0.014913,1.964727,0.435812,0.231393,-8.193584,-2.485402,-0.813469,-0.004358,0.032545,0.000000,0.044203,-0.198994,0.000000
4.840000,2.977453,0.326804,-1.483675,0.055971,-0.060565,-0.012458,-0.300633,-0.038605,-0.012641,1.881040,0.410996,0.222976,-8.538375,-2.477376,-0.869648,-0.003928,0.030597,0.000000,0.041709,-0.190626,0.000000
4.850000,2.977998,0.326197,-1.483800,0.053057,-0.060931,-0.012573,-0.282255,-0.034619,-0.010456,1.794079,0.386272,0.214003,-8.847346,-2.467153,-0.924876,-0.003524,0.028734,0.000000,0.039221,-0.181910,0.000000
4.860000,2.978515,0.325586,-1.483926,0.050323,-0.061259,-0.012667,-0.264761,-0.030879,-0.008363,1.704231,0.361657,0.204482,-9.114910,-2.455600,-0.979196,-0.003144,0.026959,0.000000,0.036741,-0.172888,0.000000
4.870000,2.979005,0.324972,-1.484053,0.047759,-0.061550,-0.012741,-0.248179,-0.027385,-0.006368,1.611937,0.337161,0.194422,-9.335476,-2.443589,-1.032651,-0.002789,0.025277,0.000000,0.034269,-0.163603,-0.000000
4.880000,2.979471,0.324355,-1.484181,0.045356,-0.061807,-0.012795,-0.232529,-0.024136,-0.004476,1.517697,0.312784,0.183832,-9.503455,-2.431988,-1.085284,-0.002458,0.023688,0.000000,0.031806,-0.154108,-0.000000
4.890000,2.979913,0.323736,-1.484309,0.043105,-0.062033,-0.012830,-0.217829,-0.021129,-0.002693,1.422062,0.288517,0.172719,-9.613257,-2.421666,-1.137140,-0.002153,0.022195,0.000000,0.029350,-0.144458,-0.000000
4.900000,2.980333,0.323114,-1.484438,0.040997,-0.062230,-0.012849,-0.204090,-0.018365,-0.001023,1.325644,0.264344,0.161091,-9.659293,-2.413492,-1.188261,-0.001871,0.020799,0.000000,0.026902,-0.134718,0.000000
4.910000,2.980733,0.322491,-1.484566,0.039020,-0.062401,-0.012851,-0.191317,-0.015842,0.000527,1.229108,0.240237,0.148956,-9.635975,-2.408337,-1.238690,-0.001615,0.019501,0.000000,0.024457,-0.124954,-0.000000
4.920000,2.981114,0.321866,-1.484695,0.037167,-0.062548,-0.012839,-0.179506,-0.013560,0.001954,1.133174,0.216164,0.136320,-9.537711,-2.407068,-1.288471,-0.001382,0.018300,0.000000,0.022014,-0.115242,-0.000000
4.930000,2.981477,0.321240,-1.484823,0.035427,-0.062673,-0.012813,-0.168649,-0.011519,0.003252,1.038622,0.192080,0.123189,-9.358913,-2.410556,-1.337647,-0.001174,0.017196,0.000000,0.019567,-0.105662,-0.000000
4.940000,2.981823,0.320613,-1.484951,0.033791,-0.062779,-0.012774,-0.158726,-0.009719,0.004416,0.946283,0.167934,0.109569,-9.093992,-2.419670,-1.386262,-0.000991,0.016186,0.000000,0.017112,-0.096298,0.000000
4.950000,2.982153,0.319985,-1.485078,0.032249,-0.062868,-0.012725,-0.149713,-0.008161,0.005442,0.857048,0.143665,0.095465,-8.737357,-2.435279,-1.434359,-0.000832,0.015269,0.000000,0.014642,-0.087244,0.000000
4.960000,2.982468,0.319356,-1.485205,0.030794,-0.062943,-0.012666,-0.141572,-0.006846,0.006324,0.771860,0.119204,0.080883,-8.283420,-2.458252,-1.481980,-0.000698,0.014440,0.000000,0.012151,-0.078596,-0.000000
4.970000,2.982769,0.318726,-1.485332,0.029415,-0.063006,-0.012599,-0.134259,-0.005777,0.007058,0.691722,0.094473,0.065827,-7.726591,-2.489458,-1.529170,-0.000589,0.013695,0.000000,0.009632,-0.070458,-0.000000
4.980000,2.983057,0.318096,-1.485457,0.028106,-0.063060,-0.012525,-0.127717,-0.004958,0.007639,0.617690,0.069385,0.050301,-7.061280,-2.529767,-1.575971,-0.000506,0.013028,0.000000,0.007075,-0.062937,0.000000
4.990000,2.983332,0.317465,-1.485582,0.026859,-0.063106,-0.012447,-0.121881,-0.004391,0.008062,0.550877,0.043844,0.034309,-6.281899,-2.580048,-1.622428,-0.000448,0.012434,0.000000,0.004471,-0.056149,0.000000
5.000000,2.983594,0.316833,-1.485706,0.025666,-0.063148,-0.012364,-0.116672,-0.004083,0.008324,0.492451,0.017747,0.017853,-5.382858,-2.641171,-1.668582,-0.000416,0.011903,0.000000,0.001810,-0.050213,0.000000
