time,x,y,z,vx,vy,vz,ax,ay,az,jx,jy,jz,sx,sy,sz
0.000000,-0.179737,-3.326978,1.455833,-0.002133,0.008566,-0.012445,-0.017297,0.062173,0.069604,0.524706,2.904663,1.175244,11.743332,51.882110,10.744101
0.050000,-0.179844,-3.326550,1.455211,-0.002998,0.011674,-0.008964,0.008939,0.207406,0.128366,1.111872,5.498768,1.712449,13.144931,65.696063,10.259993
0.100000,-0.180037,-3.325811,1.454937,-0.001239,0.029306,0.000392,0.093890,0.612049,0.240849,1.839199,9.474269,2.201243,5.170101,52.509755,2.369634
0.150000,-0.179968,-3.323619,1.455250,0.006391,0.072879,0.015120,0.192858,1.154833,0.348490,1.628883,10.749744,1.949412,-9.262022,1.530486,-10.168424
0.200000,-0.179398,-3.318523,1.456449,0.018047,0.144790,0.035241,0.256779,1.687024,0.435790,0.912997,9.627318,1.184401,-15.007614,-36.740161,-21.022223
0.250000,-0.178163,-3.309140,1.458774,0.032069,0.241582,0.058699,0.284158,2.117564,0.466930,0.128121,7.075728,-0.152810,-16.391906,-59.096547,-29.071473
0.300000,-0.176191,-3.294365,1.462319,0.046463,0.356546,0.081934,0.269591,2.394597,0.420509,-0.726194,3.717663,-1.722747,-16.886558,-71.021616,-29.657131
0.350000,-0.173517,-3.273486,1.466968,0.059028,0.481041,0.100750,0.211539,2.489331,0.294656,-1.560535,-0.026434,-3.118523,-15.485012,-74.992375,-22.315277
0.400000,-0.170288,-3.246261,1.472394,0.067617,0.605479,0.111400,0.113537,2.391953,0.108657,-2.274695,-3.781574,-3.954274,-12.141093,-71.467672,-8.514056
0.450000,-0.166755,-3.212938,1.478108,0.070382,0.720237,0.111616,-0.015931,2.111173,-0.100772,-2.774644,-7.173201,-3.969929,-7.057933,-60.494390,8.417335
0.500000,-0.163250,-3.174237,1.483555,0.066023,0.816597,0.101322,-0.163927,1.674633,-0.288336,-2.980488,-9.831014,-3.112541,-0.622341,-42.569060,24.075436
0.550000,-0.160153,-3.131278,1.488240,0.053989,0.887700,0.082782,-0.313980,1.128072,-0.412026,-2.836878,-11.430107,-1.562385,6.561951,-19.212956,34.235975
0.600000,-0.157851,-3.085467,1.491834,0.034625,0.929404,0.060120,-0.447615,0.531622,-0.444575,-2.324293,-11.752309,0.311057,13.716556,6.888653,36.173450
0.650000,-0.156690,-3.038338,1.494252,0.009228,0.940862,0.038325,-0.546409,-0.047159,-0.380920,-1.465222,-10.741242,2.054960,20.027856,32.245337,29.583133
0.700000,-0.156928,-2.991381,1.495666,-0.020015,0.924688,0.022028,-0.594137,-0.542502,-0.239079,-0.321508,-8.527775,3.269370,24.805032,53.250743,16.728606
0.750000,-0.158692,-2.945869,1.496455,-0.050186,0.886612,0.014417,-0.578560,-0.899936,-0.053983,1.015281,-5.416167,3.727820,27.578012,66.937638,1.683994
0.800000,-0.161946,-2.902719,1.497108,-0.077871,0.834694,0.016629,-0.492609,-1.084119,0.133703,2.436294,-1.834012,3.437769,28.118430,71.594084,-11.117396
0.850000,-0.166479,-2.862400,1.498118,-0.099447,0.778200,0.027787,-0.334930,-1.083338,0.289794,3.827124,1.743241,2.616081,26.399333,67.070586,-18.484325
0.900000,-0.171891,-2.824899,1.499887,-0.111364,0.726360,0.045609,-0.109897,-0.909794,0.395311,5.076227,4.873047,1.589337,22.530290,54.665579,-19.532608
0.950000,-0.177615,-2.789764,1.502679,-0.110436,0.687221,0.067318,0.172692,-0.596033,0.448727,6.080153,7.209799,0.662820,16.712574,36.675220,-15.743953
1.000000,-0.182935,-2.756177,1.506618,-0.094095,0.666757,0.090482,0.498119,-0.188815,0.461593,6.747484,8.540569,0.014941,9.216792,15.811034,-10.054949
1.050000,-0.187025,-2.723088,1.511727,-0.060624,0.668339,0.113478,0.847441,0.258024,0.450222,7.001832,8.790902,-0.342675,0.372808,-5.310665,-5.488583
1.100000,-0.188997,-2.689343,1.517966,-0.009351,0.692560,0.135504,1.198302,0.690276,0.427326,6.784765,8.009503,-0.533917,-9.434312,-24.457566,-3.983631
1.150000,-0.187960,-2.653832,1.525277,0.059206,0.737367,0.156210,1.525917,1.058974,0.396830,6.058401,6.345146,-0.741038,-19.798684,-39.871508,-5.849813
1.200000,-0.183077,-2.615607,1.533587,0.143241,0.798457,0.175187,1.804142,1.324790,0.353222,4.804897,4.022352,-1.118898,-30.332780,-50.274730,-9.907862
1.250000,-0.173636,-2.573986,1.542796,0.239620,0.869846,0.191532,2.006407,1.461209,0.284940,3.025123,1.317673,-1.731824,-40.628333,-54.853204,-14.108591
1.300000,-0.159115,-2.528622,1.552740,0.343881,0.944578,0.203681,2.106654,1.456558,0.180039,0.742063,-1.462969,-2.529757,-50.141738,-53.229115,-16.328985
1.350000,-0.139248,-2.479528,1.563164,0.450285,1.015502,0.209536,2.080613,1.314913,0.031964,-1.989051,-4.005239,-3.364723,-58.072594,-45.437616,-15.068680
1.400000,-0.114086,-2.427072,1.573694,0.551943,1.076069,0.206877,1.907749,1.056034,-0.156433,-5.065196,-6.006730,-4.036625,-63.311575,-31.966180,-9.866497
1.450000,-0.084053,-2.371921,1.583852,0.641060,1.121105,0.193893,1.574094,0.714240,-0.371698,-8.320209,-7.201857,-4.351372,-64.541716,-13.884172,-1.377656
1.500000,-0.049980,-2.314961,1.593083,0.709352,1.147493,0.169707,1.075728,0.335848,-0.591570,-11.519368,-7.395147,-4.174391,-60.528514,7.011300,8.841450
1.550000,-0.013118,-2.257172,1.600822,0.748633,1.154690,0.134736,0.422157,-0.025275,-0.789137,-14.373060,-6.500727,-3.467227,-50.536298,28.173288,18.723559
1.600000,0.024883,-2.199492,1.606557,0.751568,1.144966,0.090794,-0.361578,-0.314225,-0.938293,-16.572998,-4.577819,-2.302035,-34.713178,46.563259,26.116673
1.650000,0.062039,-2.142676,1.609902,0.712475,1.123267,0.040907,-1.235143,-0.483057,-1.019341,-17.844378,-1.844401,-0.855560,-14.249657,59.262532,29.146038
1.700000,0.096131,-2.087166,1.610648,0.628053,1.096660,-0.011140,-2.146015,-0.498665,-1.023849,-17.997963,1.348435,0.612569,8.798283,64.273247,26.500208
1.750000,0.124844,-2.033010,1.608788,0.497874,1.073401,-0.061478,-3.034939,-0.348214,-0.958084,-16.964549,4.582924,1.794461,31.987880,61.116577,17.694163
1.800000,0.145918,-1.979825,1.604500,0.324559,1.061839,-0.106949,-3.842470,-0.040372,-0.844403,-14.799175,7.460092,2.381985,53.142298,50.889878,3.330751
1.850000,0.157300,-1.926826,1.598093,0.113627,1.069364,-0.145918,-4.514857,0.397796,-0.719885,-11.650320,9.671912,2.127536,70.955398,35.763439,-14.703405
1.900000,0.157281,-1.872889,1.589908,-0.126926,1.101618,-0.178937,-5.007502,0.926819,-0.631649,-7.703635,11.036436,0.911645,85.238784,18.179857,-33.214106
1.950000,0.144607,-1.816664,1.580199,-0.387124,1.162046,-0.209083,-5.285220,1.501439,-0.628721,-3.126441,11.489897,-1.193875,96.584733,0.116035,-47.948003
2.000000,0.118568,-1.756685,1.569000,-0.655448,1.251762,-0.241809,-5.320147,2.075808,-0.751037,1.954838,11.048040,-3.883156,105.492408,-17.279308,-54.196197
2.050000,0.079062,-1.691488,1.556018,-0.919138,1.369626,-0.284187,-5.089737,2.606243,-1.017037,7.422799,9.761967,-6.613494,111.311343,-33.528717,-47.798319
2.100000,0.026655,-1.619722,1.540581,-1.164422,1.512386,-0.343513,-4.577867,3.052005,-1.412386,13.085972,7.695168,-8.662988,111.565796,-48.257801,-26.494656
2.150000,-0.037380,-1.540249,1.521667,-1.376925,1.674827,-0.425425,-3.781139,3.375760,-1.883335,18.579379,4.936186,-9.262960,102.238388,-60.578654,8.631661
2.200000,-0.111038,-1.452239,1.498039,-1.542536,1.849962,-0.531847,-2.719929,3.545624,-2.338682,23.309811,1.637303,-7.799821,79.290922,-68.860340,52.204753
2.250000,-0.191633,-1.355253,1.468482,-1.648918,2.029389,-0.659294,-1.450158,3.539490,-2.663317,26.508471,-1.949848,-4.042485,41.059655,-71.073777,94.917638
2.300000,-0.275930,-1.249300,1.432109,-1.687552,2.203911,-0.798178,-0.069082,3.350639,-2.742931,27.415776,-5.470075,1.691942,-9.554864,-65.579341,125.735583
2.350000,-0.360388,-1.134862,1.388664,-1.655826,2.364453,-0.933587,1.291419,2.992483,-2.494123,25.552985,-8.507782,8.531074,-64.480546,-52.039430,135.497061
2.400000,-0.441512,-1.012855,1.338750,-1.558410,2.503160,-1.047591,2.486217,2.499861,-1.889823,20.967722,-10.674018,15.241648,-112.270491,-32.002681,120.395248
2.450000,-0.516229,-0.884546,1.283905,-1.407204,2.614439,-1.122569,3.388192,1.925081,-0.969958,14.325936,-11.708050,20.570598,-141.811842,-8.754997,83.568909
2.500000,-0.582233,-0.751411,1.226494,-1.219591,2.695668,-1.144587,3.918811,1.329056,0.167237,6.786538,-11.549518,23.598539,-146.256392,13.589339,33.923205
2.550000,-0.638188,-0.614979,1.169447,-1.015323,2.747345,-1.105845,4.066845,0.770129,1.389896,-0.299703,-10.349116,23.962919,-125.330138,31.332424,-17.251072
2.600000,-0.683765,-0.476677,1.115909,-0.812906,2.772681,-1.005597,3.888840,0.294144,2.563529,-5.746476,-8.416275,21.873432,-85.118751,42.183226,-60.225728
2.650000,-0.719479,-0.337711,1.068887,-0.626439,2.776759,-0.849493,3.492198,-0.071498,3.577239,-8.811578,-6.130793,17.940346,-35.726195,45.605733,-89.607254
2.700000,-0.746409,-0.199001,1.030960,-0.463686,2.765531,-0.647873,3.007682,-0.318935,4.357563,-9.319096,-3.855702,12.912707,11.922825,42.513649,-104.970236
2.750000,-0.765848,-0.061158,1.004099,-0.325671,2.744866,-0.413736,2.560288,-0.457069,4.868509,-7.619296,-1.879428,7.443322,48.800240,34.599135,-109.504187
2.800000,-0.778976,0.075486,0.989586,-0.207657,2.719824,-0.161022,2.245753,-0.506878,5.101895,-4.439072,-0.395789,1.962288,69.270928,23.666241,-107.636951
2.850000,-0.786613,0.210825,0.987997,-0.101096,2.694178,0.096453,2.116381,-0.496647,5.064738,-0.692203,0.487196,-3.320373,71.385556,11.229101,-102.790619
2.900000,-0.789086,0.344904,0.999231,0.003981,2.670159,0.345452,2.176532,-0.458158,4.769858,2.699484,0.727121,-8.316774,56.447293,-1.554311,-96.100669
2.950000,-0.786215,0.477840,1.022542,0.116558,2.648362,0.573439,2.386329,-0.423935,4.233061,4.952526,0.331765,-12.930440,28.343094,-13.702317,-86.393934
3.000000,-0.777430,0.609740,1.056575,0.242614,2.627766,0.768758,2.671785,-0.424982,3.476814,5.533793,-0.643110,-16.956167,-7.144902,-24.155952,-71.237975
3.050000,-0.761954,0.740617,1.099418,0.383736,2.605864,0.921121,2.939709,-0.488246,2.537444,4.238036,-2.083830,-20.054237,-43.117541,-31.633930,-48.554613
3.100000,-0.739056,0.870326,1.148687,0.536585,2.578941,1.022502,3.095589,-0.633365,1.471390,1.222039,-3.806503,-21.811629,-72.583046,-34.730321,-18.146747
3.150000,-0.708296,0.998511,1.201668,0.693295,2.542527,1.068260,3.061913,-0.868897,0.356281,-3.020269,-5.556863,-21.868912,-89.734908,-32.283814,17.475091
3.200000,-0.669727,1.124579,1.255513,0.842776,2.492051,1.058130,2.793562,-1.189051,-0.715501,-7.751451,-7.034885,-20.064120,-91.228063,-23.900590,53.343425
3.250000,-0.624018,1.247716,1.307481,0.972651,2.423622,0.996709,2.286768,-1.572385,-1.650131,-12.143075,-7.946922,-16.534570,-77.019021,-10.388996,83.329848
3.300000,-0.572462,1.366941,1.355184,1.071453,2.334813,0.893117,1.579254,-1.983743,-2.368958,-15.453354,-8.073784,-11.731135,-50.385476,6.152397,102.012891
3.350000,-0.516873,1.481198,1.396793,1.130577,2.225248,0.759814,0.741432,-2.379764,-2.823244,-17.181623,-7.331682,-6.333280,-17.023733,22.721236,106.381385
3.400000,-0.459404,1.589466,1.431166,1.145596,2.096836,0.610793,-0.138908,-2.716912,-3.002286,-17.155727,-5.801661,-1.092996,16.511177,36.185147,96.707281
3.450000,-0.402313,1.690881,1.457872,1.116686,1.953557,0.459585,-0.974140,-2.959930,-2.932544,-15.530505,-3.713167,3.337448,44.507655,44.188012,76.302373
3.500000,-0.347735,1.784822,1.477124,1.048182,1.800844,0.317538,-1.691958,-3.088228,-2.668541,-12.704961,-1.382859,6.537241,63.380371,45.839423,50.335526
3.550000,-0.297495,1.870966,1.489626,0.947490,1.644734,0.192731,-2.244637,-3.098216,-2.278820,-9.192468,0.870775,8.371000,72.125787,41.833822,24.210670
3.600000,-0.252986,1.949295,1.496397,0.823718,1.491022,0.089656,-2.611205,-3.001151,-1.831441,-5.492383,2.800523,8.958308,71.901970,33.926997,2.136616
3.650000,-0.215123,2.020068,1.498592,0.686370,1.344619,0.009587,-2.793875,-2.818163,-1.382989,-2.002271,4.263475,8.584662,65.093007,24.145107,-13.613404
3.700000,-0.184349,2.083757,1.497356,0.544331,1.209206,-0.048642,-2.811432,-2.574803,-0.972975,1.016918,5.215034,7.596968,54.358753,14.191355,-22.659699
3.750000,-0.160690,2.140988,1.493728,0.405226,1.087139,-0.087711,-2.692183,-2.296660,-0.623292,3.433605,5.682610,6.318692,41.988990,5.207775,-25.974291
3.800000,-0.143827,2.192471,1.488585,0.275112,0.979540,-0.110972,-2.468072,-2.006542,-0.341106,5.215817,5.735811,4.999538,29.626285,-2.204621,-25.202226
3.850000,-0.133179,2.238942,1.482631,0.158419,0.886484,-0.121821,-2.170601,-1.723079,-0.123338,6.396233,5.462148,3.798469,18.268117,-7.847318,-22.085461
3.900000,-0.127985,2.281119,1.476403,0.058052,0.807232,-0.123305,-1.828448,-1.460327,0.038741,7.042629,4.951079,2.790992,8.413274,-11.768051,-18.087416
3.950000,-0.127374,2.319665,1.470300,-0.024426,0.740452,-0.117947,-1.466338,-1.227971,0.155761,7.237561,4.285343,1.989728,0.238996,-14.139421,-14.220993
4.000000,-0.130427,2.355165,1.464608,-0.088582,0.684435,-0.107729,-1.104692,-1.031793,0.237714,7.066528,3.537137,1.368893,-6.256469,-15.184813,-11.033932
4.050000,-0.136232,2.388109,1.459527,-0.134895,0.637272,-0.094176,-0.759686,-0.874257,0.292650,6.611914,2.766862,0.886334,-11.164959,-15.141119,-8.691303
4.100000,-0.143917,2.418892,1.455191,-0.164550,0.597009,-0.078464,-0.443501,-0.755107,0.326347,5.950032,2.023025,0.499763,-14.623375,-14.241788,-7.100664
4.150000,-0.152687,2.447810,1.451681,-0.179245,0.561762,-0.061541,-0.164682,-0.671955,0.342626,5.149576,1.342683,0.176268,-16.793750,-12.707842,-6.039283
4.200000,-0.161841,2.475068,1.449036,-0.181018,0.529814,-0.044202,0.071457,-0.620838,0.343974,4.270657,0.752241,-0.104166,-17.852852,-10.741300,-5.258221
4.250000,-0.170789,2.500791,1.447260,-0.172099,0.499678,-0.027143,0.262383,-0.596730,0.332210,3.364291,0.268553,-0.349554,-17.983100,-8.520431,-4.551728
4.300000,-0.179051,2.525036,1.446322,-0.154780,0.470140,-0.010981,0.407886,-0.593983,0.309019,2.472348,-0.099802,-0.559338,-17.363078,-6.198027,-3.791035
4.350000,-0.186267,2.547805,1.446162,-0.131311,0.440280,0.003758,0.509618,-0.606711,0.276276,1.627983,-0.351249,-0.728657,-16.158996,-3.903034,-2.928639
4.400000,-0.192182,2.569064,1.446698,-0.103818,0.409469,0.016647,0.570684,-0.629108,0.236153,0.856448,-0.490105,-0.852202,-14.518777,-1.744609,-1.982688
4.450000,-0.196648,2.588752,1.447827,-0.074242,0.377369,0.027374,0.595263,-0.655721,0.191056,0.176106,-0.525710,-0.926926,-12.569556,0.183034,-1.011621
4.500000,-0.199607,2.606801,1.449435,-0.044292,0.343897,0.035752,0.588295,-0.681679,0.143461,-0.400508,-0.471802,-0.953364,-10.417785,1.796738,-0.087701
4.550000,-0.201078,2.623142,1.451402,-0.015413,0.309201,0.041720,0.555212,-0.702901,0.095719,-0.865673,-0.346037,-0.935696,-8.150197,3.022554,0.724492
4.600000,-0.201148,2.637721,1.453607,0.011229,0.273607,0.045324,0.501727,-0.716283,0.049891,-1.215527,-0.169546,-0.880915,-5.834458,3.795973,1.381464
4.650000,-0.199955,2.650503,1.455935,0.034760,0.237573,0.046709,0.433659,-0.719856,0.007628,-1.449119,0.033561,-0.797550,-3.519143,4.063962,1.865566
4.700000,-0.197672,2.661478,1.458278,0.054595,0.201622,0.046087,0.356815,-0.712927,-0.029864,-1.567442,0.236850,-0.694359,-1.234136,3.789886,2.182425
4.750000,-0.194495,2.670665,1.460544,0.070441,0.166280,0.043722,0.276915,-0.696171,-0.061808,-1.572532,0.412549,-0.579307,1.011010,2.972855,2.353654
4.800000,-0.190628,2.678106,1.462650,0.082287,0.132004,0.039906,0.199562,-0.671672,-0.087795,-1.466341,0.534135,-0.458993,3.230027,1.718010,2.407427
4.850000,-0.186267,2.683865,1.464534,0.090397,0.099113,0.034943,0.130281,-0.642758,-0.107707,-1.249530,0.584350,-0.338565,4.976997,14.368067,5.722016
4.900000,-0.181588,2.688017,1.466145,0.095315,0.067729,0.029136,0.074609,-0.613237,-0.121651,-0.968641,1.970942,0.113208,6.630740,26.226789,8.989166
4.950000,-0.176735,2.690638,1.467448,0.097858,0.037789,0.022778,0.033417,-0.445663,-0.096386,-0.586456,3.207029,0.560352,6.195703,10.916479,5.021977
5.000000,-0.171802,2.691796,1.468423,0.098657,0.023162,0.019497,0.015964,-0.292534,-0.065616,-0.349071,3.062590,0.615406,4.747700,-2.888786,1.101085
