time,x,y,z,vx,vy,vz,ax,ay,az,jx,jy,jz,sx,sy,sz
0.000000,0.334490,-3.020134,1.477557,0.002089,0.009083,-0.015125,-0.258671,-0.008248,0.106966,6.377777,-3.837286,-0.492809,-122.650513,146.103498,4.434943
0.010000,0.334499,-3.020045,1.477411,-0.000199,0.008832,-0.014079,-0.200746,-0.039688,0.102257,5.234521,-2.486920,-0.449116,-106.264727,124.345808,4.303644
0.020000,0.334488,-3.019959,1.477276,-0.001961,0.008330,-0.013079,-0.153460,-0.058675,0.097979,4.247325,-1.343034,-0.406734,-91.425899,104.788819,4.172864
0.030000,0.334462,-3.019878,1.477150,-0.003298,0.007693,-0.012118,-0.115329,-0.067165,0.094118,3.401100,-0.384182,-0.365658,-78.058100,87.320354,4.042476
0.040000,0.334423,-3.019805,1.477033,-0.004294,0.007016,-0.011195,-0.085016,-0.066907,0.090661,2.681513,0.409960,-0.325884,-66.085402,71.828240,3.912353
0.050000,0.334377,-3.019738,1.476926,-0.005021,0.006379,-0.010304,-0.061322,-0.059451,0.087596,2.074994,1.058596,-0.287410,-55.431876,58.200301,3.782366
0.060000,0.334324,-3.019677,1.476827,-0.005539,0.005847,-0.009442,-0.043182,-0.046160,0.084909,1.568731,1.579806,-0.250236,-46.021592,46.324362,3.652389
0.070000,0.334266,-3.019620,1.476737,-0.005900,0.005471,-0.008605,-0.029654,-0.028223,0.082587,1.150672,1.990550,-0.214363,-37.778622,36.088248,3.522292
0.080000,0.334206,-3.019567,1.476655,-0.006145,0.005294,-0.007789,-0.019912,-0.006664,0.080617,0.809521,2.306664,-0.179791,-30.627038,27.379784,3.391950
0.090000,0.334144,-3.019514,1.476581,-0.006308,0.005347,-0.006991,-0.013242,0.017644,0.078987,0.534746,2.542864,-0.146525,-24.490909,20.086795,3.261233
0.100000,0.334080,-3.019459,1.476515,-0.006418,0.005654,-0.006208,-0.009029,0.043972,0.077682,0.316571,2.712744,-0.114568,-19.294307,14.097106,3.130016
0.110000,0.334015,-3.019400,1.476457,-0.006495,0.006231,-0.005436,-0.006752,0.071720,0.076691,0.145981,2.828776,-0.083927,-14.961304,9.298543,2.998169
0.120000,0.333950,-3.019333,1.476406,-0.006558,0.007091,-0.004673,-0.005978,0.100406,0.075999,0.014720,2.902311,-0.054607,-11.415970,5.578929,2.865565
0.130000,0.333884,-3.019257,1.476363,-0.006619,0.008241,-0.003915,-0.006352,0.129659,0.075594,-0.084711,2.943577,-0.026618,-8.582376,2.826091,2.732077
0.140000,0.333818,-3.019168,1.476328,-0.006688,0.009685,-0.003160,-0.007589,0.159201,0.075463,-0.159047,2.961682,0.000031,-6.384594,0.927853,2.597577
0.150000,0.333750,-3.019062,1.476300,-0.006772,0.011426,-0.002405,-0.009469,0.188842,0.075591,-0.214269,2.964609,0.025329,-4.746695,-0.227961,2.461938
0.160000,0.333682,-3.018938,1.476280,-0.006879,0.013462,-0.001648,-0.011828,0.218465,0.075965,-0.255594,2.959223,0.049265,-3.592750,-0.753524,2.325032
0.170000,0.333613,-3.018792,1.476267,-0.007010,0.015795,-0.000885,-0.014550,0.248018,0.076571,-0.287484,2.951266,0.071825,-2.846829,-0.761012,2.186730
0.180000,0.333542,-3.018621,1.476262,-0.007171,0.018422,-0.000116,-0.017559,0.277497,0.077397,-0.313638,2.945356,0.092995,-2.433004,-0.362600,2.046906
0.190000,0.333469,-3.018423,1.476265,-0.007362,0.021344,0.000663,-0.020813,0.306943,0.078426,-0.336998,2.944993,0.112758,-2.275347,0.329537,1.905433
0.200000,0.333395,-3.018193,1.476275,-0.007588,0.024561,0.001454,-0.024297,0.336424,0.079647,-0.359746,2.952552,0.131098,-2.297928,1.203224,1.762181
0.210000,0.333317,-3.017931,1.476294,-0.007843,0.028065,0.002257,-0.028214,0.366351,0.081044,-0.402001,2.999289,0.148018,-1.952584,1.388536,1.616457
0.220000,0.333238,-3.017631,1.476321,-0.008146,0.031878,0.003075,-0.032327,0.396417,0.082602,-0.420167,3.014317,0.163446,-1.693445,1.623833,1.468769
0.230000,0.333154,-3.017292,1.476356,-0.008491,0.035994,0.003909,-0.036610,0.426645,0.084308,-0.436097,3.031868,0.177386,-1.502407,1.889727,1.319060
0.240000,0.333068,-3.016910,1.476399,-0.008879,0.040412,0.004762,-0.041043,0.457063,0.086145,-0.450381,3.052149,0.189820,-1.361365,2.166829,1.167271
0.250000,0.332977,-3.016483,1.476451,-0.009312,0.045136,0.005633,-0.045613,0.487698,0.088099,-0.463430,3.075177,0.200725,-1.252215,2.435748,1.013345
0.260000,0.332881,-3.016006,1.476512,-0.009790,0.050165,0.006524,-0.050360,0.518639,0.090155,-0.480231,3.106618,0.210112,-1.036651,2.529454,0.856391
0.270000,0.332781,-3.015478,1.476581,-0.010318,0.055507,0.007436,-0.055211,0.549833,0.092296,-0.489564,3.132261,0.217883,-0.831490,2.594278,0.697285
0.280000,0.332675,-3.014895,1.476660,-0.010895,0.061162,0.008370,-0.060145,0.581286,0.094507,-0.496884,3.158403,0.224051,-0.633344,2.628910,0.536071
0.290000,0.332563,-3.014254,1.476749,-0.011521,0.067134,0.009326,-0.065142,0.613001,0.096772,-0.502243,3.184734,0.228597,-0.438830,2.632041,0.372791
0.300000,0.332444,-3.013552,1.476847,-0.012197,0.073423,0.010306,-0.070183,0.644980,0.099074,-0.505661,3.210934,0.231500,-0.244560,2.602359,0.207490
0.310000,0.332319,-3.012785,1.476955,-0.012924,0.080034,0.011308,-0.075260,0.677224,0.101397,-0.508163,3.237179,0.232810,-0.020912,2.525646,0.038456
0.320000,0.332185,-3.011950,1.477073,-0.013702,0.086969,0.012334,-0.080339,0.709720,0.103724,-0.507240,3.261911,0.232342,0.206049,2.415080,-0.132298
0.330000,0.332044,-3.011044,1.477202,-0.014531,0.094229,0.013382,-0.085397,0.742458,0.106038,-0.504030,3.285369,0.230159,0.436498,2.270933,-0.304512
0.340000,0.331895,-3.010064,1.477341,-0.015410,0.101818,0.014454,-0.090412,0.775422,0.108322,-0.498498,3.307218,0.226248,0.670605,2.093474,-0.477929
0.350000,0.331736,-3.009007,1.477491,-0.016339,0.109738,0.015549,-0.095359,0.808596,0.110557,-0.490605,3.327128,0.220597,0.908545,1.882975,-0.652289
0.360000,0.331568,-3.007868,1.477652,-0.017317,0.117991,0.016665,-0.100219,0.841956,0.112729,-0.480631,3.344661,0.213287,1.158502,1.642426,-0.829539
0.370000,0.331389,-3.006646,1.477824,-0.018343,0.126578,0.017803,-0.104963,0.875480,0.114817,-0.467782,3.359746,0.204104,1.411656,1.369045,-1.006946
0.380000,0.331201,-3.005336,1.478008,-0.019416,0.135501,0.018961,-0.109566,0.909141,0.116805,-0.452390,3.371932,0.193149,1.667199,1.062767,-1.183981
0.390000,0.331001,-3.003935,1.478204,-0.020534,0.144761,0.020139,-0.114003,0.942908,0.118674,-0.434433,3.380891,0.180428,1.924322,0.723530,-1.360114
0.400000,0.330790,-3.002439,1.478411,-0.021695,0.154359,0.021334,-0.118246,0.976747,0.120407,-0.413901,3.386293,0.165952,2.182217,0.351272,-1.534817
0.410000,0.330567,-3.000846,1.478630,-0.022898,0.164296,0.022546,-0.122271,1.010621,0.121989,-0.390742,3.387772,0.149874,2.438908,-0.053213,-1.710991
0.420000,0.330332,-2.999152,1.478862,-0.024140,0.174572,0.023773,-0.126053,1.044489,0.123399,-0.365073,3.385079,0.131895,2.694897,-0.490950,-1.884257
0.430000,0.330084,-2.997354,1.479106,-0.025418,0.185186,0.025014,-0.129564,1.078307,0.124621,-0.336849,3.377842,0.112201,2.949520,-0.962109,-2.053667
0.440000,0.329823,-2.995447,1.479362,-0.026730,0.196138,0.026265,-0.132781,1.112029,0.125638,-0.306089,3.365725,0.090837,3.202112,-1.466856,-2.218273
0.450000,0.329549,-2.993430,1.479631,-0.028073,0.207426,0.027526,-0.135678,1.145604,0.126432,-0.272816,3.348392,0.067855,3.452008,-2.005360,-2.377125
0.460000,0.329262,-2.991298,1.479913,-0.029442,0.219049,0.028793,-0.138228,1.178981,0.126991,-0.236982,3.325689,0.043457,3.696564,-2.582432,-2.532813
0.470000,0.328960,-2.989048,1.480207,-0.030836,0.231005,0.030064,-0.140409,1.212098,0.127296,-0.198809,3.296839,0.017384,3.937335,-3.193029,-2.680418
0.480000,0.328645,-2.986676,1.480514,-0.032249,0.243290,0.031338,-0.142197,1.244897,0.127334,-0.158249,3.261718,-0.010120,4.173900,-3.836750,-2.818556
0.490000,0.328315,-2.984181,1.480834,-0.033679,0.255901,0.032610,-0.143567,1.277311,0.127090,-0.115346,3.219995,-0.038951,4.405836,-4.513194,-2.945847
0.500000,0.327971,-2.981557,1.481166,-0.035119,0.268835,0.033879,-0.144496,1.309273,0.126551,-0.070149,3.171346,-0.068996,4.632720,-5.221959,-3.060908
0.510000,0.327613,-2.978803,1.481511,-0.036567,0.282085,0.035140,-0.144963,1.340718,0.125707,-0.022796,3.115867,-0.100046,4.856300,-5.973191,-3.164321
0.520000,0.327240,-2.975915,1.481869,-0.038017,0.295647,0.036392,-0.144944,1.371565,0.124547,0.026859,3.052252,-0.132144,5.073718,-6.754652,-3.252500
0.530000,0.326853,-2.972889,1.482239,-0.039464,0.309514,0.037630,-0.144419,1.401737,0.123061,0.078655,2.980679,-0.165040,5.284282,-7.564651,-3.323822
0.540000,0.326451,-2.969723,1.482622,-0.040903,0.323679,0.038852,-0.143364,1.431151,0.121244,0.132520,2.900870,-0.198559,5.487305,-8.401497,-3.376666
0.550000,0.326035,-2.966415,1.483016,-0.042330,0.338134,0.040054,-0.141762,1.459726,0.119089,0.188374,2.812565,-0.232506,5.682099,-9.263498,-3.409408
0.560000,0.325604,-2.962960,1.483423,-0.043737,0.352870,0.041232,-0.139590,1.487378,0.116593,0.246222,2.715929,-0.266692,5.865698,-10.159262,-3.419989
0.570000,0.325160,-2.959356,1.483841,-0.045119,0.367878,0.042385,-0.136831,1.514014,0.113755,0.305758,2.609771,-0.300848,6.039968,-11.075536,-3.407277
0.580000,0.324702,-2.955601,1.484270,-0.046471,0.383147,0.043506,-0.133469,1.539542,0.110577,0.366989,2.494360,-0.334754,6.204499,-12.009368,-3.369704
0.590000,0.324231,-2.951692,1.484711,-0.047787,0.398665,0.044595,-0.129486,1.563870,0.107062,0.429815,2.369535,-0.368154,6.358881,-12.957804,-3.305701
0.600000,0.323746,-2.947627,1.485162,-0.049059,0.414420,0.045647,-0.124868,1.586901,0.103216,0.494132,2.235165,-0.400775,6.502703,-13.917891,-3.213699
0.610000,0.323250,-2.943403,1.485623,-0.050282,0.430398,0.046658,-0.119599,1.608546,0.099047,0.559856,2.091602,-0.432549,6.634944,-14.898129,-3.086575
0.620000,0.322741,-2.939019,1.486095,-0.051449,0.446586,0.047627,-0.113666,1.628701,0.094570,0.626820,1.937699,-0.462653,6.755879,-15.882710,-2.928995
0.630000,0.322221,-2.934471,1.486576,-0.052553,0.462967,0.048549,-0.107058,1.647267,0.089800,0.694935,1.773948,-0.491025,6.865175,-16.867279,-2.740069
0.640000,0.321690,-2.929759,1.487066,-0.053588,0.479526,0.049422,-0.099764,1.664147,0.084756,0.764084,1.600368,-0.517347,6.962495,-17.847480,-2.518910
0.650000,0.321149,-2.924880,1.487564,-0.054546,0.496244,0.050243,-0.091774,1.679242,0.079461,0.834144,1.417027,-0.541292,7.047504,-18.818958,-2.264627
0.660000,0.320599,-2.919833,1.488070,-0.055421,0.513104,0.051010,-0.083078,1.692461,0.073934,0.905059,1.224542,-0.563000,7.118170,-19.790232,-1.964369
0.670000,0.320041,-2.914617,1.488584,-0.056205,0.530087,0.051721,-0.073670,1.703701,0.068212,0.976541,1.021860,-0.581002,7.176064,-20.742496,-1.630676
0.680000,0.319476,-2.909231,1.489105,-0.056892,0.547171,0.052374,-0.063545,1.712867,0.062326,1.048537,0.809776,-0.595504,7.221056,-21.669818,-1.264123
0.690000,0.318904,-2.903674,1.489631,-0.057474,0.564337,0.052967,-0.052698,1.719866,0.056314,1.120918,0.588567,-0.606177,7.253021,-22.566268,-0.865287
0.700000,0.318327,-2.897944,1.490164,-0.057943,0.581561,0.053500,-0.041126,1.724609,0.050216,1.193554,0.358573,-0.612704,7.271830,-23.425912,-0.434744
0.710000,0.317745,-2.892042,1.490701,-0.058294,0.598821,0.053972,-0.028827,1.727008,0.044067,1.266324,0.120079,-0.615477,7.277012,-24.239984,0.044822
0.720000,0.317161,-2.885968,1.491243,-0.058517,0.616093,0.054382,-0.015800,1.726984,0.037923,1.339065,-0.126192,-0.612511,7.268826,-25.005735,0.552752
0.730000,0.316575,-2.879721,1.491789,-0.058607,0.633352,0.054730,-0.002046,1.724459,0.031835,1.411656,-0.379856,-0.604336,7.247187,-25.717582,1.086280
0.740000,0.315989,-2.873301,1.492337,-0.058556,0.650574,0.055019,0.012433,1.719364,0.025855,1.483963,-0.640346,-0.590710,7.212010,-26.369939,1.642637
0.750000,0.315405,-2.866709,1.492889,-0.058356,0.667731,0.055248,0.027632,1.711632,0.020039,1.555851,-0.907038,-0.571417,7.163209,-26.957223,2.219057
0.760000,0.314823,-2.859947,1.493442,-0.058001,0.684797,0.055420,0.043549,1.701200,0.014437,1.627267,-1.179695,-0.547054,7.098555,-27.462722,2.832542
0.770000,0.314245,-2.853014,1.493997,-0.057483,0.701746,0.055538,0.060175,1.688022,0.009119,1.697872,-1.456540,-0.515608,7.020370,-27.893342,3.458134
0.780000,0.313674,-2.845912,1.494553,-0.056795,0.718549,0.055604,0.077503,1.672056,0.004146,1.767629,-1.737298,-0.477868,6.928831,-28.244861,4.090648
0.790000,0.313110,-2.838643,1.495109,-0.055931,0.735178,0.055622,0.095524,1.653266,-0.000417,1.836405,-2.021159,-0.433789,6.824113,-28.513057,4.724893
0.800000,0.312556,-2.831209,1.495665,-0.054882,0.751604,0.055597,0.114228,1.631625,-0.004509,1.904068,-2.307268,-0.383382,6.706396,-28.693708,5.355683
0.810000,0.312013,-2.823612,1.496221,-0.053644,0.767801,0.055534,0.133601,1.607107,-0.008071,1.970491,-2.595551,-0.327300,6.575827,-28.761784,5.992869
0.820000,0.311484,-2.815854,1.496776,-0.052208,0.783737,0.055438,0.153633,1.579714,-0.011034,2.035544,-2.883121,-0.264248,6.432615,-28.736421,6.614382
0.830000,0.310969,-2.807938,1.497329,-0.050569,0.799385,0.055315,0.174307,1.549447,-0.013335,2.099102,-3.169963,-0.195088,6.276941,-28.615943,7.213194
0.840000,0.310473,-2.799867,1.497882,-0.048720,0.814717,0.055174,0.195610,1.516320,-0.014916,2.161042,-3.455117,-0.120083,6.108987,-28.398678,7.782276
0.850000,0.309996,-2.791645,1.498433,-0.046655,0.829702,0.055020,0.217522,1.480354,-0.015718,2.221242,-3.737608,-0.039565,5.928932,-28.082951,8.314597
0.860000,0.309541,-2.783275,1.498982,-0.044368,0.844315,0.054862,0.240028,1.441566,-0.015692,2.279575,-4.017709,0.045915,5.737111,-27.635085,8.806874
0.870000,0.309109,-2.774760,1.499530,-0.041852,0.858525,0.054709,0.263107,1.400016,-0.014785,2.335938,-4.291412,0.136234,5.533531,-27.089328,9.247875
0.880000,0.308704,-2.766106,1.500077,-0.039104,0.872306,0.054569,0.286740,1.355758,-0.012953,2.390207,-4.559177,0.230676,5.318357,-26.447926,9.630110
0.890000,0.308328,-2.757316,1.500622,-0.036116,0.885631,0.054453,0.310904,1.308856,-0.010159,2.442267,-4.820059,0.328616,5.091749,-25.713125,9.946093
0.900000,0.307983,-2.748395,1.501166,-0.032884,0.898475,0.054370,0.335577,1.259383,-0.006372,2.492004,-5.073136,0.429352,4.853869,-24.887169,10.188336
0.910000,0.307671,-2.739348,1.501709,-0.029403,0.910811,0.054329,0.360738,1.207417,-0.001560,2.539504,-5.317973,0.532594,4.599917,-23.960506,10.337163
0.920000,0.307396,-2.730180,1.502252,-0.025668,0.922615,0.054342,0.386359,1.153056,0.004284,2.584190,-5.552589,0.636349,4.335625,-22.948623,10.398767
0.930000,0.307159,-2.720897,1.502796,-0.021674,0.933864,0.054418,0.412413,1.096400,0.011167,2.626184,-5.776674,0.740259,4.061764,-21.855210,10.367151
0.940000,0.306963,-2.711505,1.503341,-0.017418,0.944536,0.054568,0.438873,1.037560,0.019086,2.665396,-5.989433,0.843361,3.779103,-20.683957,10.236320
0.950000,0.306811,-2.702009,1.503888,-0.012895,0.954609,0.054803,0.465711,0.976652,0.028028,2.701740,-6.190106,0.944634,3.488412,-19.438553,10.000278
0.960000,0.306706,-2.692415,1.504437,-0.008102,0.964063,0.055132,0.492895,0.913795,0.037981,2.734856,-6.378481,1.044075,3.197630,-18.109772,9.625782
0.970000,0.306650,-2.682729,1.504991,-0.003036,0.972879,0.055566,0.520399,0.849128,0.048895,2.765348,-6.552661,1.137987,2.899480,-16.715802,9.137421
0.980000,0.306646,-2.672959,1.505549,0.002307,0.981040,0.056113,0.548192,0.782789,0.060723,2.792821,-6.712597,1.226435,2.593855,-15.261913,8.532535
0.990000,0.306697,-2.663111,1.506113,0.007928,0.988529,0.056783,0.576245,0.714925,0.073402,2.817199,-6.857717,1.308240,2.280646,-13.753377,7.808467
1.000000,0.306806,-2.653191,1.506685,0.013832,0.995333,0.057584,0.604525,0.645686,0.086861,2.838408,-6.987500,1.382198,1.959745,-12.195466,6.962555
1.010000,0.306975,-2.643207,1.507266,0.020020,1.001439,0.058522,0.633003,0.575234,0.101033,2.856418,-7.100885,1.448667,1.629794,-10.608467,5.951963
1.020000,0.307207,-2.633165,1.507856,0.026493,1.006834,0.059606,0.661643,0.503722,0.115799,2.871034,-7.198863,1.502624,1.292088,-8.980796,4.819130
1.030000,0.307505,-2.623072,1.508458,0.033253,1.011510,0.060840,0.690412,0.431312,0.131046,2.882234,-7.280376,1.544650,0.946674,-7.315885,3.566317
1.040000,0.307873,-2.612937,1.509073,0.040301,1.015458,0.062228,0.719276,0.358170,0.146648,2.889942,-7.345068,1.573558,0.593595,-5.617169,2.195785
1.050000,0.308312,-2.602766,1.509703,0.047639,1.018672,0.063773,0.748199,0.284468,0.162469,2.894080,-7.392619,1.588181,0.232898,-3.888078,0.709795
1.060000,0.308827,-2.592566,1.510349,0.055265,1.021146,0.065477,0.777146,0.210382,0.178380,2.894600,-7.422155,1.589239,-0.136031,-2.146816,-0.936440
1.070000,0.309419,-2.582345,1.511013,0.063181,1.022878,0.067340,0.806078,0.136083,0.194197,2.891364,-7.434811,1.571202,-0.512407,-0.380237,-2.687852
1.080000,0.310091,-2.572111,1.511697,0.071387,1.023868,0.069360,0.834960,0.061746,0.209744,2.884328,-7.429681,1.535158,-0.896106,1.410035,-4.536416
1.090000,0.310847,-2.561870,1.512401,0.079880,1.024114,0.071533,0.863752,-0.012451,0.224837,2.873418,-7.406537,1.480176,-1.287002,3.222377,-6.474113
1.100000,0.311690,-2.551631,1.513128,0.088661,1.023620,0.073855,0.892415,-0.086324,0.239282,2.858564,-7.365166,1.405405,-1.684969,5.055164,-8.492920
1.110000,0.312622,-2.541400,1.513879,0.097728,1.022389,0.076316,0.920905,-0.159687,0.252897,2.839222,-7.304881,1.311889,-2.077911,6.894388,-10.630650
1.120000,0.313645,-2.531186,1.514655,0.107079,1.020428,0.078908,0.949187,-0.232360,0.265448,2.816444,-7.226662,1.194640,-2.479139,8.752325,-12.827833
1.130000,0.314764,-2.520994,1.515457,0.116711,1.017745,0.081620,0.977220,-0.304158,0.276715,2.789607,-7.129772,1.055180,-2.889993,10.628869,-15.070837
1.140000,0.315981,-2.510833,1.516287,0.126622,1.014348,0.084438,1.004965,-0.374893,0.286476,2.758608,-7.014023,0.893116,-3.311812,12.523913,-17.346025
1.150000,0.317297,-2.500709,1.517146,0.136809,1.010251,0.087344,1.032378,-0.444375,0.294501,2.723330,-6.879232,0.708197,-3.745937,14.437348,-19.639765
1.160000,0.318718,-2.490630,1.518035,0.147269,1.005466,0.090321,1.059418,-0.512408,0.300579,2.683717,-6.724660,0.501750,-4.195568,16.355037,-21.974930
1.170000,0.320244,-2.480602,1.518953,0.157996,1.000008,0.093348,1.086037,-0.578804,0.304459,2.639452,-6.551439,0.270372,-4.659956,18.292621,-24.296908
1.180000,0.321878,-2.470632,1.519902,0.168988,0.993896,0.096402,1.112191,-0.643371,0.305909,2.590465,-6.358736,0.015916,-5.140216,20.251710,-26.587593
1.190000,0.323624,-2.460727,1.520881,0.180238,0.987147,0.099457,1.137830,-0.705913,0.304701,2.536591,-6.146328,-0.261215,-5.637459,22.233917,-28.828880
1.200000,0.325484,-2.450891,1.521891,0.191743,0.979785,0.102486,1.162906,-0.766231,0.300611,2.477655,-5.913975,-0.560436,-6.152799,24.240850,-31.002664
1.210000,0.327460,-2.441133,1.522930,0.203494,0.971831,0.105459,1.187369,-0.824134,0.293429,2.413748,-5.662239,-0.880336,-6.694348,26.294728,-33.107182
1.220000,0.329555,-2.431457,1.524000,0.215488,0.963311,0.108343,1.211162,-0.879407,0.282936,2.344016,-5.388916,-1.221498,-7.255362,28.374030,-35.105986
1.230000,0.331771,-2.421868,1.525097,0.227715,0.954252,0.111106,1.234230,-0.931843,0.268934,2.268575,-5.094676,-1.582036,-7.836094,30.477847,-36.978972
1.240000,0.334110,-2.412373,1.526221,0.240170,0.944684,0.113710,1.256514,-0.981230,0.251235,2.187228,-4.779280,-1.960591,-8.436799,32.605264,-38.706033
1.250000,0.336575,-2.402976,1.527370,0.252843,0.934639,0.116118,1.277954,-1.027357,0.229667,2.099772,-4.442496,-2.355603,-9.057733,34.755369,-40.267065
1.260000,0.339167,-2.393682,1.528543,0.265726,0.924149,0.118290,1.298494,-1.070024,0.204068,2.006500,-4.085531,-2.765865,-9.711660,36.963400,-41.627986
1.270000,0.341890,-2.384495,1.529735,0.278809,0.913251,0.120185,1.318062,-1.108994,0.174308,1.906033,-3.704787,-3.188105,-10.384793,39.187869,-42.784376
1.280000,0.344744,-2.375418,1.530945,0.292083,0.901982,0.121762,1.336592,-1.144045,0.140271,1.798744,-3.301737,-3.620810,-11.075858,41.423435,-43.717843
1.290000,0.347732,-2.366456,1.532169,0.305537,0.890384,0.122976,1.354014,-1.174954,0.101865,1.684460,-2.876299,-4.061658,-11.783576,43.664761,-44.409991
1.300000,0.350856,-2.357612,1.533403,0.319160,0.878498,0.123784,1.370257,-1.201496,0.059019,1.563022,-2.428440,-4.508144,-12.506672,45.906507,-44.842426
1.310000,0.354116,-2.348887,1.534644,0.332938,0.866370,0.124142,1.385259,-1.223474,0.011669,1.435085,-1.960570,-4.959725,-13.264192,48.203575,-44.942541
1.320000,0.357515,-2.340285,1.535885,0.346860,0.854045,0.124003,1.398933,-1.240631,-0.040174,1.298610,-1.467117,-5.408449,-14.032048,50.483009,-44.752792
1.330000,0.361053,-2.331807,1.537122,0.360912,0.841574,0.123324,1.411205,-1.252741,-0.096489,1.154422,-0.951011,-5.853776,-14.806475,52.732094,-44.261424
1.340000,0.364733,-2.323454,1.538349,0.375079,0.829008,0.122059,1.421996,-1.259577,-0.157228,1.002472,-0.412619,-6.292632,-15.583708,54.938115,-43.456681
1.350000,0.368555,-2.315227,1.539561,0.389347,0.816401,0.120165,1.431229,-1.260921,-0.222309,0.842751,0.147566,-6.721826,-16.359983,57.088357,-42.326805
1.360000,0.372521,-2.307126,1.540750,0.403698,0.803809,0.117600,1.438834,-1.256581,-0.291663,0.676065,0.726600,-7.141937,-17.151171,59.228706,-40.761768
1.370000,0.376630,-2.299150,1.541910,0.418117,0.791290,0.114319,1.444724,-1.246319,-0.365090,0.500640,1.329229,-7.540326,-17.931466,61.280670,-38.860119
1.380000,0.380883,-2.291299,1.543034,0.432587,0.778903,0.110285,1.448821,-1.229929,-0.442401,0.317493,1.951853,-7.918018,-18.694698,63.224357,-36.622139
1.390000,0.385281,-2.283571,1.544114,0.447088,0.766712,0.105459,1.451048,-1.207219,-0.523371,0.126824,2.593289,-8.271649,-19.434697,65.039877,-34.048102
1.400000,0.389825,-2.275964,1.545141,0.461601,0.754781,0.099806,1.451333,-1.178005,-0.607742,-0.071103,3.252157,-8.597861,-20.145293,66.707340,-31.138288
1.410000,0.394513,-2.268475,1.546107,0.476107,0.743175,0.093295,1.449607,-1.142134,-0.695282,-0.275598,3.925856,-8.898550,-20.829545,68.232608,-27.760291
1.420000,0.399347,-2.261099,1.547003,0.490586,0.731961,0.085893,1.445799,-1.099441,-0.785595,-0.487139,4.615022,-9.157927,-21.470926,69.566884,-24.063318
1.430000,0.404325,-2.253834,1.547822,0.505016,0.721209,0.077575,1.439844,-1.049792,-0.878312,-0.704849,5.316480,-9.378808,-22.062136,70.687121,-20.063894
1.440000,0.409447,-2.246673,1.548552,0.519376,0.710989,0.068320,1.431683,-0.993078,-0.973033,-0.928190,6.027974,-9.558251,-22.595874,71.570275,-15.778543
1.450000,0.414712,-2.239612,1.549185,0.533642,0.701371,0.058110,1.421263,-0.929208,-1.069330,-1.156551,6.747019,-9.693481,-23.064843,72.193301,-11.223789
1.460000,0.420120,-2.232644,1.549711,0.547794,0.692428,0.046931,1.408533,-0.858104,-1.166806,-1.389678,7.472441,-9.787313,-23.450854,72.494142,-6.279036
1.470000,0.425668,-2.225761,1.550120,0.561805,0.684233,0.034773,1.393458,-0.779754,-1.264908,-1.625794,8.197638,-9.824451,-23.758829,72.493543,-1.114719
1.480000,0.431355,-2.218956,1.550403,0.575655,0.676857,0.021633,1.376008,-0.694157,-1.363119,-1.864575,8.921246,-9.808987,-23.982802,72.173237,4.235846
1.490000,0.437180,-2.212221,1.550550,0.589318,0.670374,0.007512,1.356161,-0.601345,-1.460906,-2.105150,9.639977,-9.739224,-24.116805,71.514956,9.739346
1.500000,0.443141,-2.205546,1.550550,0.602770,0.664854,-0.007582,1.333902,-0.501385,-1.557718,-2.346591,10.350358,-9.613801,-24.154872,70.500433,15.362464
1.510000,0.449235,-2.198921,1.550395,0.615988,0.660368,-0.023636,1.309215,-0.394328,-1.653033,-2.589233,11.053378,-9.435375,-24.057576,68.994166,21.165027
1.520000,0.455460,-2.192335,1.550074,0.628947,0.656989,-0.040634,1.282123,-0.280374,-1.746232,-2.828890,11.734213,-9.194520,-23.856509,67.109476,27.009175
1.530000,0.461813,-2.185777,1.549579,0.641622,0.654783,-0.058552,1.252646,-0.159713,-1.836729,-3.066011,12.394293,-8.895202,-23.549801,64.842452,32.850187
1.540000,0.468291,-2.179235,1.548900,0.653992,0.653817,-0.077358,1.220814,-0.032570,-1.923941,-3.299528,13.029775,-8.537676,-23.135584,62.189180,38.643345
1.550000,0.474891,-2.172696,1.548029,0.666031,0.654153,-0.097018,1.186671,0.100788,-2.007291,-3.528358,13.636776,-8.122643,-22.611987,59.145748,44.343928
1.560000,0.481610,-2.166147,1.546957,0.677718,0.655850,-0.117489,1.150247,0.240129,-2.086207,-3.753205,14.218008,-7.651291,-21.931462,55.540743,49.908130
1.570000,0.488445,-2.159574,1.545677,0.689029,0.658971,-0.138725,1.111631,0.385022,-2.160134,-3.968668,14.753811,-7.125129,-21.143413,51.558264,55.290206
1.580000,0.495390,-2.152963,1.544180,0.699944,0.663568,-0.160673,1.070902,0.535067,-2.228534,-4.175728,15.247970,-6.546243,-20.251565,47.214907,60.445325
1.590000,0.502442,-2.146298,1.542461,0.710441,0.669688,-0.183276,1.028148,0.689830,-2.290891,-4.373366,15.696961,-5.917128,-19.259642,42.527272,65.328655
1.600000,0.509597,-2.139564,1.540513,0.720500,0.677378,-0.206469,0.983469,0.848844,-2.346719,-4.560599,16.097424,-5.240726,-18.171368,37.511955,69.895365
1.610000,0.516851,-2.132745,1.538330,0.730104,0.686676,-0.230188,0.936957,1.011673,-2.395512,-4.738068,16.452316,-4.516073,-16.950462,32.030163,73.990676
1.620000,0.524198,-2.125825,1.535908,0.739234,0.697620,-0.254356,0.888750,1.177703,-2.436910,-4.901115,16.744046,-3.757313,-15.645553,26.272913,77.693167
1.630000,0.531634,-2.118787,1.533242,0.747874,0.710239,-0.278900,0.838979,1.346358,-2.470542,-5.050728,16.976975,-2.963623,-14.265264,20.275831,80.971470
1.640000,0.539153,-2.111615,1.530329,0.756009,0.724554,-0.303740,0.787782,1.517039,-2.496081,-5.186197,17.148882,-2.139402,-12.818218,14.074540,83.794215
1.650000,0.546752,-2.104290,1.527166,0.763626,0.740584,-0.328794,0.735304,1.689126,-2.513244,-5.306898,17.257903,-1.289362,-11.313037,7.704668,86.130035
1.660000,0.554424,-2.096797,1.523752,0.770712,0.758338,-0.353979,0.681687,1.862019,-2.521715,-5.413040,17.305895,-0.410797,-9.739478,1.116900,87.752266
1.670000,0.562164,-2.089118,1.520086,0.777256,0.777824,-0.379202,0.627097,2.035023,-2.521414,-5.502402,17.283743,0.472649,-8.127341,-5.557798,88.848748
1.680000,0.569967,-2.081235,1.516168,0.783251,0.799037,-0.404377,0.571694,2.207470,-2.512234,-5.575495,17.194602,1.364401,-6.487560,-12.273401,89.412026
1.690000,0.577828,-2.073131,1.511999,0.788688,0.821969,-0.429417,0.515642,2.378691,-2.494117,-5.632097,17.038293,2.259088,-4.831067,-18.983884,89.434646
1.700000,0.585739,-2.064790,1.507581,0.793562,0.846605,-0.454230,0.459107,2.548013,-2.467060,-5.672097,16.815095,3.151266,-3.168796,-25.643220,88.909153
1.710000,0.593697,-2.056194,1.502916,0.797869,0.872921,-0.478731,0.402258,2.714763,-2.431024,-5.695204,16.524918,4.044130,-1.518919,-32.184327,87.608068
1.720000,0.601695,-2.047326,1.498007,0.801607,0.900889,-0.502824,0.345258,2.878296,-2.386230,-5.702203,16.170937,4.911463,0.115757,-38.584814,85.770902
1.730000,0.609727,-2.038170,1.492861,0.804774,0.930474,-0.526427,0.288268,3.037972,-2.332864,-5.692973,15.753836,5.757826,1.725183,-44.801233,83.417142
1.740000,0.617788,-2.028711,1.487481,0.807373,0.961634,-0.549454,0.231451,3.193169,-2.271161,-5.667817,15.275671,6.578149,3.299312,-50.790137,80.566274
1.750000,0.625873,-2.018933,1.481874,0.809404,0.994321,-0.571823,0.174964,3.343290,-2.201404,-5.627138,14.738936,7.367559,4.828098,-56.508078,77.237787
1.760000,0.633975,-2.008820,1.476047,0.810873,1.028482,-0.593458,0.118970,3.487708,-2.123854,-5.570392,14.141545,8.128203,6.275028,-61.785002,73.278771
1.770000,0.642088,-1.998358,1.470007,0.811785,1.064056,-0.614278,0.063603,3.625950,-2.038979,-5.500663,13.498725,8.839439,7.659761,-66.719572,68.902218
1.780000,0.650208,-1.987534,1.463764,0.812148,1.100979,-0.634215,0.009002,3.757524,-1.947218,-5.417426,12.808388,9.504991,8.975491,-71.283842,64.148725
1.790000,0.658330,-1.976334,1.457326,0.811968,1.139183,-0.653201,-0.044703,3.881972,-1.849044,-5.321406,12.074376,10.121293,10.215412,-75.449867,59.058890
1.800000,0.666446,-1.964746,1.450704,0.811257,1.178593,-0.671176,-0.097386,3.998879,-1.744966,-5.213394,11.300811,10.685183,11.372717,-79.189702,53.673308
1.810000,0.674553,-1.952759,1.443906,0.810024,1.219136,-0.688083,-0.148918,4.107792,-1.635493,-5.092838,10.484749,11.196724,12.404942,-82.289847,47.961458
1.820000,0.682645,-1.940360,1.436946,0.808282,1.260724,-0.703871,-0.199210,4.208479,-1.521226,-4.964009,9.648262,11.646901,13.345305,-84.930633,42.043763
1.830000,0.690717,-1.927541,1.429833,0.806044,1.303277,-0.718494,-0.248169,4.300677,-1.402755,-4.826246,8.787685,12.037078,14.191367,-87.106839,35.969529
1.840000,0.698764,-1.914292,1.422580,0.803324,1.346709,-0.731914,-0.295709,4.384168,-1.280689,-4.680504,7.907691,12.365934,14.940685,-88.813240,29.788061
1.850000,0.706782,-1.900604,1.415199,0.800135,1.390931,-0.744098,-0.341755,4.458781,-1.155644,-4.527763,7.013004,12.632646,15.590821,-90.044614,23.548665
1.860000,0.714765,-1.886471,1.407702,0.796493,1.435857,-0.755018,-0.386229,4.524319,-1.028263,-4.367663,6.101406,12.835185,16.104890,-90.619086,17.343440
1.870000,0.722710,-1.871885,1.400103,0.792415,1.481390,-0.764656,-0.429093,4.580798,-0.899147,-4.204460,5.194282,12.977722,16.519113,-90.729715,11.173657
1.880000,0.730612,-1.856841,1.392413,0.787917,1.527442,-0.772997,-0.470306,4.628208,-0.768913,-4.037607,4.288303,13.058923,16.835268,-90.392907,5.083382
1.890000,0.738467,-1.841335,1.384647,0.783015,1.573924,-0.780033,-0.509836,4.666583,-0.638169,-3.868076,3.387860,13.079802,17.055135,-89.625069,-0.883322
1.900000,0.746271,-1.825362,1.376817,0.777726,1.620744,-0.785761,-0.547662,4.695998,-0.507513,-3.696820,2.497183,13.041815,17.180489,-88.442609,-6.682389
1.910000,0.754021,-1.808919,1.368936,0.772067,1.667815,-0.790184,-0.583760,4.716524,-0.377578,-3.523812,1.615833,12.941802,17.188770,-86.748198,-12.142005
1.920000,0.761711,-1.792005,1.361018,0.766056,1.715047,-0.793315,-0.618139,4.728378,-0.248855,-3.352251,0.758368,12.794072,17.109074,-84.685906,-17.361496
1.930000,0.769341,-1.774618,1.353074,0.759710,1.762355,-0.795167,-0.650809,4.731766,-0.121866,-3.181908,-0.076760,12.595467,16.946160,-82.286067,-22.312441
1.940000,0.776905,-1.756758,1.345118,0.753046,1.809655,-0.795760,-0.681784,4.726928,0.002894,-3.013589,-0.886329,12.348813,16.704785,-79.579015,-26.966416
1.950000,0.784400,-1.738425,1.337163,0.746080,1.856867,-0.795118,-0.711090,4.714134,0.124960,-2.848057,-1.667418,12.057223,16.389708,-76.595084,-31.295001
1.960000,0.791825,-1.719621,1.329220,0.738829,1.903912,-0.793269,-0.738753,4.693673,0.243831,-2.685642,-2.418333,11.717719,15.996014,-73.341272,-35.108782
1.970000,0.799176,-1.700348,1.321302,0.731310,1.950716,-0.790251,-0.764817,4.665879,0.359194,-2.527915,-3.134574,11.349069,15.539317,-69.874106,-38.560040
1.980000,0.806451,-1.680608,1.313419,0.723538,1.997207,-0.786098,-0.789327,4.631100,0.470703,-2.375046,-3.815214,10.947756,15.025560,-66.226778,-41.640066
1.990000,0.813646,-1.660405,1.305583,0.715529,2.043316,-0.780851,-0.812336,4.589699,0.578052,-2.227575,-4.458619,10.517534,14.460684,-62.432478,-44.340151
2.000000,0.820760,-1.639743,1.297805,0.707296,2.088980,-0.774552,-0.833898,4.542056,0.680971,-2.085983,-5.063485,10.062248,13.850633,-58.524399,-46.651586
2.010000,0.827791,-1.618627,1.290096,0.698855,2.134137,-0.767245,-0.854077,4.488580,0.779164,-1.950722,-5.627148,9.580066,13.202095,-54.578434,-48.420154
2.020000,0.834737,-1.597062,1.282464,0.690219,2.178733,-0.758983,-0.872935,4.429646,0.872519,-1.822086,-6.152972,9.088643,12.520173,-50.579842,-49.800470
2.030000,0.841595,-1.575054,1.274919,0.681401,2.222713,-0.749811,-0.890542,4.365654,0.960898,-1.700411,-6.638663,8.585321,11.810720,-46.556588,-50.801642
2.040000,0.848364,-1.552610,1.267470,0.672412,2.266030,-0.739782,-0.906967,4.297007,1.044199,-1.585943,-7.084114,8.073844,11.079585,-42.536632,-51.432778
2.050000,0.855043,-1.529736,1.260126,0.663265,2.308639,-0.728945,-0.922285,4.224105,1.122360,-1.478872,-7.489499,7.557868,10.332620,-38.547938,-51.702985
2.060000,0.861629,-1.506440,1.252894,0.653970,2.350499,-0.717351,-0.936575,4.147388,1.195311,-1.379802,-7.851661,7.037114,9.587740,-34.709644,-51.524311
2.070000,0.868122,-1.482729,1.245781,0.644537,2.391574,-0.705054,-0.949906,4.067199,1.263113,-1.287674,-8.179875,6.524152,8.837253,-30.947373,-51.014810
2.080000,0.874519,-1.458611,1.238795,0.634975,2.431832,-0.692105,-0.962354,3.983914,1.325817,-1.203061,-8.470918,6.017851,8.085535,-27.277922,-50.195473
2.090000,0.880821,-1.434095,1.231941,0.625293,2.471243,-0.678555,-0.973992,3.897901,1.383503,-1.125953,-8.725799,5.521205,7.336958,-23.718089,-49.087294
2.100000,0.887025,-1.409189,1.225226,0.615498,2.509782,-0.664452,-0.984898,3.809515,1.436282,-1.056297,-8.945701,5.036998,6.595896,-20.284674,-47.711266
2.110000,0.893130,-1.383902,1.218654,0.605597,2.547426,-0.649844,-0.995151,3.719139,1.484277,-0.994702,-9.128281,4.566324,5.884563,-17.087660,-46.051043
2.120000,0.899137,-1.358243,1.212230,0.595597,2.584158,-0.634781,-1.004815,3.627053,1.527668,-0.939355,-9.283789,4.115048,5.187307,-14.039249,-44.169528
2.130000,0.905042,-1.332222,1.205960,0.585502,2.619962,-0.619306,-1.013961,3.533562,1.566644,-0.890901,-9.409579,3.683586,4.506320,-11.144828,-42.092286
2.140000,0.910846,-1.305847,1.199846,0.575319,2.654826,-0.603462,-1.022655,3.438956,1.601412,-0.849167,-9.507217,3.273769,3.843789,-8.409785,-39.844881
2.150000,0.916548,-1.279129,1.193891,0.565051,2.688739,-0.587291,-1.030966,3.343507,1.632196,-0.813957,-9.578324,2.887170,3.201904,-5.839508,-37.452879
2.160000,0.922147,-1.252076,1.188101,0.554701,2.721693,-0.570831,-1.038963,3.247498,1.659243,-0.785719,-9.622215,2.525689,2.599676,-3.498984,-34.956521
2.170000,0.927642,-1.224698,1.182476,0.544272,2.753687,-0.554118,-1.046700,3.151138,1.682795,-0.762638,-9.646204,2.189013,2.020413,-1.326702,-32.364897
2.180000,0.933032,-1.197005,1.177019,0.533768,2.784715,-0.537186,-1.054235,3.054643,1.703111,-0.745234,-9.649303,1.878630,1.464244,0.679246,-29.701776
2.190000,0.938317,-1.169007,1.171733,0.523188,2.814780,-0.520065,-1.061623,2.958216,1.720457,-0.733275,-9.633167,1.595136,0.931299,2.520772,-26.990923
2.200000,0.943496,-1.140713,1.166618,0.512535,2.843881,-0.502786,-1.068917,2.862039,1.735105,-0.726530,-9.599429,1.338891,0.421708,4.199785,-24.256107
2.210000,0.948568,-1.112133,1.161677,0.501810,2.872021,-0.485372,-1.076176,2.766294,1.747346,-0.725321,-9.548404,1.111854,-0.050293,5.685301,-21.567560
2.220000,0.953532,-1.083276,1.156911,0.491012,2.899208,-0.467846,-1.083439,2.671117,1.757431,-0.728092,-9.484770,0.909555,-0.500409,7.016153,-18.896895
2.230000,0.958388,-1.054152,1.152321,0.480141,2.925446,-0.450230,-1.090752,2.576641,1.765626,-0.735262,-9.408577,0.733797,-0.930237,8.198280,-16.262190
2.240000,0.963134,-1.024770,1.147907,0.469197,2.950743,-0.432539,-1.098158,2.482983,1.772194,-0.746635,-9.321281,0.584131,-1.341376,9.237619,-13.681523
2.250000,0.967771,-0.995140,1.143670,0.458178,2.975109,-0.414790,-1.105699,2.390248,1.777393,-0.762032,-9.224281,0.459926,-1.735423,10.140110,-11.172972
2.260000,0.972298,-0.965271,1.139611,0.447082,2.998552,-0.396996,-1.113414,2.298525,1.781499,-0.781476,-9.118948,0.362639,-2.109315,10.912519,-8.811912
2.270000,0.976713,-0.935172,1.135730,0.435909,3.021083,-0.379164,-1.121340,2.207892,1.784723,-0.804382,-9.006484,0.285908,-2.469882,11.559854,-6.552109
2.280000,0.981015,-0.904852,1.132028,0.424655,3.042713,-0.361304,-1.129513,2.118415,1.787291,-0.830837,-8.888148,0.231223,-2.819292,12.087952,-4.404623
2.290000,0.985205,-0.874321,1.128504,0.413317,3.063455,-0.343420,-1.137968,2.030145,1.789417,-0.860738,-8.765103,0.197404,-3.159713,12.502650,-2.380518
2.300000,0.989282,-0.843586,1.125160,0.401894,3.083321,-0.325516,-1.146739,1.943125,1.791304,-0.894008,-8.638454,0.183164,-3.493315,12.809784,-0.490854
2.310000,0.993243,-0.812657,1.121994,0.390381,3.102322,-0.307594,-1.155857,1.857378,1.793165,-0.930371,-8.509838,0.189303,-3.827777,13.030134,1.197726
2.320000,0.997089,-0.781542,1.119008,0.378776,3.120473,-0.289653,-1.165358,1.772934,1.795144,-0.970307,-8.378844,0.209101,-4.159081,13.152764,2.736546
2.330000,1.000818,-0.750250,1.116201,0.367073,3.137785,-0.271691,-1.175274,1.689804,1.797396,-1.013547,-8.247095,0.243520,-4.488721,13.181683,4.121349
2.340000,1.004430,-0.718789,1.113574,0.355269,3.154273,-0.253704,-1.185640,1.607991,1.800058,-1.060081,-8.115509,0.291000,-4.818192,13.120896,5.347879
2.350000,1.007923,-0.687168,1.111127,0.343359,3.169949,-0.235688,-1.196487,1.527490,1.803254,-1.109915,-7.984963,0.349936,-5.148987,12.974412,6.411880
2.360000,1.011297,-0.655393,1.108860,0.331337,3.184827,-0.217637,-1.207843,1.448280,1.807109,-1.162484,-7.856818,0.420438,-5.497413,12.759479,7.264728
2.370000,1.014550,-0.623474,1.106775,0.319200,3.198919,-0.199544,-1.219748,1.370345,1.811688,-1.219211,-7.730629,0.496659,-5.848337,12.465241,7.951966
2.380000,1.017680,-0.591417,1.104870,0.306940,3.212238,-0.181401,-1.232239,1.293656,1.817062,-1.279458,-7.607769,0.578929,-6.201438,12.094085,8.474771
2.390000,1.020688,-0.559231,1.103147,0.294553,3.224797,-0.163200,-1.245349,1.218176,1.823282,-1.343245,-7.488996,0.665610,-6.556396,11.648396,8.834319
2.400000,1.023571,-0.526924,1.101606,0.282031,3.236606,-0.144932,-1.259116,1.143860,1.830384,-1.410591,-7.375042,0.755076,-6.912890,11.130559,9.031786
2.410000,1.026328,-0.494502,1.100248,0.269368,3.247678,-0.126589,-1.273565,1.070656,1.838400,-1.480730,-7.266690,0.846880,-7.290229,10.544813,9.038787
2.420000,1.028958,-0.461973,1.099074,0.256557,3.258023,-0.108161,-1.288743,0.998506,1.847319,-1.555514,-7.164453,0.936651,-7.666061,9.891464,8.889679
2.430000,1.031459,-0.429344,1.098085,0.243591,3.267651,-0.089640,-1.304687,0.927344,1.857125,-1.634037,-7.069079,1.024169,-8.037662,9.172672,8.589259
2.440000,1.033829,-0.396622,1.097282,0.230461,3.276572,-0.071016,-1.321436,0.857099,1.867790,-1.716244,-6.981211,1.107947,-8.402309,8.390594,8.142324
2.450000,1.036067,-0.363815,1.096665,0.217159,3.284796,-0.052281,-1.339024,0.787693,1.879267,-1.802051,-6.901471,1.186544,-8.757278,7.547391,7.553668
2.460000,1.038172,-0.330928,1.096237,0.203677,3.292329,-0.033428,-1.357480,0.719045,1.891506,-1.890571,-6.830023,1.259222,-9.119474,6.634179,6.811489
2.470000,1.040140,-0.297970,1.095997,0.190006,3.299179,-0.014449,-1.376848,0.651061,1.904425,-1.983506,-6.768479,1.323081,-9.464142,5.665511,5.939215
2.480000,1.041971,-0.264947,1.095948,0.176137,3.305352,0.004662,-1.397161,0.583643,1.917936,-2.079778,-6.716885,1.377595,-9.786153,4.644898,4.943675
2.490000,1.043662,-0.231865,1.096091,0.162060,3.310853,0.023911,-1.418453,0.516688,1.931941,-2.179136,-6.675743,1.421566,-10.080381,3.575851,3.831698
2.500000,1.045212,-0.198732,1.096427,0.147764,3.315687,0.043302,-1.440753,0.450091,1.946329,-2.281276,-6.645518,1.453864,-10.341699,2.461880,2.610112
2.510000,1.046617,-0.165554,1.096957,0.133241,3.319856,0.062838,-1.464081,0.383749,1.960979,-2.385328,-6.625818,1.473722,-10.577993,1.285656,1.278269
2.520000,1.047876,-0.132337,1.097684,0.118479,3.323362,0.082522,-1.488467,0.317535,1.975757,-2.492106,-6.618992,1.479446,-10.769529,0.074083,-0.148609
2.530000,1.048986,-0.099089,1.098608,0.103468,3.326206,0.102353,-1.513929,0.251328,1.990519,-2.600547,-6.624434,1.470459,-10.909586,-1.166777,-1.662779
2.540000,1.049944,-0.065815,1.099732,0.088197,3.328388,0.122332,-1.540482,0.185005,2.005114,-2.710104,-6.642405,1.445925,-10.991441,-2.430860,-3.256495
2.550000,1.050749,-0.032523,1.101056,0.072655,3.329906,0.142455,-1.568133,0.118438,2.019383,-2.820160,-6.673108,1.405089,-11.008374,-3.712104,-4.922013
2.560000,1.051396,0.000780,1.102581,0.056831,3.330755,0.162718,-1.596884,0.051510,2.033161,-2.930052,-6.715737,1.347416,-10.953166,-5.028384,-6.655226
2.570000,1.051884,0.034089,1.104310,0.040713,3.330934,0.183116,-1.626731,-0.015921,2.046273,-3.038984,-6.772615,1.271961,-10.819654,-6.346768,-8.444308
2.580000,1.052210,0.067397,1.106244,0.024292,3.330435,0.203640,-1.657658,-0.083986,2.058540,-3.146162,-6.842649,1.178370,-10.601180,-7.658261,-10.281067
2.590000,1.052369,0.100696,1.108384,0.007557,3.329251,0.224283,-1.689645,-0.152817,2.069778,-3.250703,-6.925727,1.066208,-10.291084,-8.953869,-12.157316
2.600000,1.052360,0.133980,1.110730,-0.009504,3.327375,0.245032,-1.722660,-0.222544,2.079801,-3.351656,-7.021644,0.935120,-9.882706,-10.224598,-14.064864
2.610000,1.052178,0.167241,1.113285,-0.026900,3.324797,0.265874,-1.756671,-0.293284,2.088419,-3.448716,-7.129397,0.785024,-9.351462,-11.479351,-16.000321
2.620000,1.051820,0.200473,1.116048,-0.044640,3.321506,0.286795,-1.791615,-0.365173,2.095437,-3.539121,-7.250281,0.615280,-8.710812,-12.689046,-17.950110
2.630000,1.051284,0.233669,1.119021,-0.062735,3.317489,0.307777,-1.827430,-0.438329,2.100659,-3.622553,-7.382991,0.426003,-7.956290,-13.842496,-19.905454
2.640000,1.050565,0.266821,1.122203,-0.081192,3.312735,0.328802,-1.864039,-0.512870,2.103892,-3.697852,-7.526907,0.217181,-7.083430,-14.928515,-21.857576
2.650000,1.049659,0.299921,1.125597,-0.100018,3.307227,0.349848,-1.901356,-0.588902,2.104938,-3.763812,-7.681299,-0.011109,-6.087768,-15.935918,-23.797698
2.660000,1.048563,0.332962,1.129200,-0.119220,3.300951,0.370892,-1.939296,-0.666527,2.103608,-3.820610,-7.845203,-0.258385,-4.928806,-16.856623,-25.725077
2.670000,1.047273,0.365937,1.133014,-0.138805,3.293891,0.391911,-1.977727,-0.745836,2.099707,-3.863573,-8.017955,-0.525150,-3.642524,-17.675961,-27.621919
2.680000,1.045786,0.398838,1.137038,-0.158776,3.286029,0.412877,-2.016522,-0.826911,2.093043,-3.893036,-8.198345,-0.810689,-2.228869,-18.382364,-29.478461
2.690000,1.044096,0.431655,1.141272,-0.179136,3.277346,0.433762,-2.055539,-0.909824,2.083432,-3.907725,-8.385187,-1.114552,-0.687787,-18.964268,-31.284944
2.700000,1.042202,0.464382,1.145713,-0.199887,3.267826,0.454535,-2.094623,-0.994632,2.070693,-3.906367,-8.577177,-1.436189,0.980773,-19.410107,-33.031607
2.710000,1.040097,0.497009,1.150362,-0.221028,3.257448,0.475165,-2.133630,-1.081388,2.054654,-3.889677,-8.773624,-1.774621,2.827192,-19.689950,-34.717058
2.720000,1.037780,0.529528,1.155216,-0.242558,3.246192,0.495617,-2.172353,-1.170111,2.035145,-3.851665,-8.971273,-2.129888,4.795034,-19.812844,-36.322141
2.730000,1.035245,0.561930,1.160274,-0.264473,3.234039,0.515856,-2.210596,-1.260815,2.012005,-3.793392,-9.169327,-2.500760,6.878188,-19.769472,-37.836072
2.740000,1.032489,0.594205,1.165532,-0.286768,3.220969,0.535844,-2.248150,-1.353493,1.985081,-3.713737,-9.366077,-2.886270,9.070546,-19.550518,-39.248063
2.750000,1.029508,0.626346,1.170990,-0.309433,3.206962,0.555544,-2.284796,-1.448126,1.954234,-3.611638,-9.559721,-3.285345,11.365998,-19.146665,-40.547330
2.760000,1.026299,0.658342,1.176642,-0.332459,3.192000,0.574915,-2.320328,-1.544690,1.919333,-3.488292,-9.750056,-3.696770,13.813949,-18.505827,-41.723975
2.770000,1.022858,0.690183,1.182487,-0.355834,3.176063,0.593917,-2.354478,-1.643102,1.880262,-3.337557,-9.931086,-4.119337,16.345977,-17.666692,-42.766215
2.780000,1.019181,0.721860,1.188519,-0.379543,3.159132,0.612506,-2.386994,-1.743280,1.836914,-3.161135,-10.102715,-4.551610,18.949175,-16.625179,-43.663156
2.790000,1.015266,0.753362,1.194735,-0.403568,3.141192,0.630641,-2.417613,-1.845118,1.789202,-2.958379,-10.262901,-4.992080,21.610636,-15.377209,-44.403902
2.800000,1.011109,0.784680,1.201130,-0.427888,3.122225,0.648276,-2.446072,-1.948493,1.737051,-2.728771,-10.409558,-5.439131,24.317453,-13.918700,-44.977559
2.810000,1.006707,0.815803,1.207699,-0.452481,3.102218,0.665367,-2.472118,-2.053285,1.680396,-2.473768,-10.543112,-5.891696,27.103347,-12.181112,-45.356610
2.820000,1.002058,0.846721,1.214436,-0.477321,3.081156,0.681869,-2.495454,-2.159294,1.619207,-2.188740,-10.655355,-6.346382,29.903074,-10.232718,-45.548819
2.830000,0.997160,0.877423,1.221334,-0.502380,3.059029,0.697736,-2.515799,-2.266324,1.553465,-1.875722,-10.747076,-6.802020,32.698016,-8.077332,-45.545325
2.840000,0.992010,0.907898,1.228388,-0.527626,3.035827,0.712923,-2.532875,-2.374160,1.483170,-1.534857,-10.816225,-7.256607,35.469556,-5.718766,-45.337270
2.850000,0.986607,0.938136,1.235590,-0.553026,3.011544,0.727384,-2.546405,-2.482566,1.408344,-1.166471,-10.860787,-7.708054,38.199079,-3.160833,-44.915794
2.860000,0.980949,0.968125,1.242933,-0.578541,2.986175,0.741075,-2.556124,-2.591320,1.329009,-0.771907,-10.881817,-8.155823,40.888911,-0.330887,-44.230572
2.870000,0.975036,0.997855,1.250409,-0.604134,2.959718,0.753950,-2.561755,-2.700105,1.245254,-0.349901,-10.870210,-8.593763,43.496928,2.681438,-43.319288
2.880000,0.968867,1.027316,1.258009,-0.629762,2.932174,0.765966,-2.563036,-2.808621,1.157168,0.097688,-10.827624,-9.021443,46.001948,5.862965,-42.178160
2.890000,0.962441,1.056495,1.265725,-0.655379,2.903548,0.777079,-2.559719,-2.916549,1.064867,0.569724,-10.752431,-9.436547,48.382788,9.200520,-40.803406
2.900000,0.955759,1.085383,1.273548,-0.680940,2.873846,0.787250,-2.551565,-3.023556,0.968487,1.064859,-10.643137,-9.836720,50.618270,12.680927,-39.191244
2.910000,0.948822,1.113969,1.281467,-0.706394,2.843082,0.796437,-2.538342,-3.129325,0.868162,1.582305,-10.501233,-10.222168,52.667759,16.363070,-37.272213
2.920000,0.941632,1.142241,1.289473,-0.731690,2.811266,0.804601,-2.519854,-3.233456,0.764112,2.118465,-10.318734,-10.584306,54.531908,20.152891,-35.116253
2.930000,0.934189,1.170191,1.297556,-0.756773,2.778419,0.811707,-2.495914,-3.335571,0.656552,2.672262,-10.097890,-10.923718,56.191916,24.028390,-32.727625
2.940000,0.926497,1.197806,1.305704,-0.781589,2.744563,0.817721,-2.466357,-3.435283,0.545721,3.241560,-9.837954,-11.238098,57.628985,27.967569,-30.110589
2.950000,0.918559,1.225079,1.313906,-0.806081,2.709723,0.822612,-2.431039,-3.532198,0.431881,3.824036,-9.538399,-11.525183,58.824313,31.948427,-27.269405
2.960000,0.910377,1.251998,1.322152,-0.830191,2.673930,0.826351,-2.389812,-3.625938,0.315282,4.419766,-9.200747,-11.785859,59.693737,35.995130,-24.129866
2.970000,0.901956,1.278554,1.330429,-0.853858,2.637217,0.828910,-2.342619,-3.716078,0.196272,5.019925,-8.820584,-12.010596,60.291826,40.033861,-20.784309
2.980000,0.893301,1.304739,1.338726,-0.877023,2.599622,0.830269,-2.289399,-3.802216,0.075185,5.624662,-8.400189,-12.200905,60.607784,44.036970,-17.246603
2.990000,0.884418,1.330544,1.347031,-0.899626,2.561187,0.830408,-2.230120,-3.883950,-0.047626,6.231104,-7.940056,-12.354934,60.630815,47.976803,-13.530617
3.000000,0.875311,1.355960,1.355330,-0.921606,2.521959,0.829312,-2.164781,-3.960887,-0.171787,6.836266,-7.440956,-12.470969,60.350125,51.825709,-9.650220
3.010000,0.865988,1.380980,1.363613,-0.942903,2.481987,0.826970,-2.093365,-4.032643,-0.296943,7.441079,-6.903956,-12.550231,59.653349,55.556516,-5.548710
3.020000,0.856455,1.405598,1.371865,-0.963454,2.441324,0.823373,-2.015988,-4.098844,-0.422653,8.032824,-6.330335,-12.584667,58.643696,59.141034,-1.319169
3.030000,0.846721,1.429805,1.380076,-0.983203,2.400030,0.818517,-1.932748,-4.159133,-0.548494,8.612916,-5.721715,-12.576262,57.322808,62.551550,3.015893
3.040000,0.836794,1.453596,1.388232,-1.002090,2.358163,0.812404,-1.843778,-4.213168,-0.674032,9.178249,-5.079976,-12.524073,55.692326,65.760355,7.433966
3.050000,0.826683,1.476966,1.396320,-1.020060,2.315788,0.805039,-1.749242,-4.260629,-0.798827,9.725736,-4.407273,-12.427381,53.753893,68.739736,11.912540
3.060000,0.816396,1.499910,1.404328,-1.037058,2.272972,0.796432,-1.649287,-4.301193,-0.922447,10.256616,-3.703743,-12.287230,51.400277,71.404017,16.467872
3.070000,0.805945,1.522425,1.412244,-1.053030,2.229787,0.786596,-1.544193,-4.334619,-1.044420,10.757630,-2.977531,-12.099719,48.755322,73.790551,21.033936
3.080000,0.795339,1.544505,1.420056,-1.067926,2.186305,0.775550,-1.434227,-4.360669,-1.164289,11.230801,-2.228927,-11.866607,45.834001,75.878725,25.583477
3.090000,0.784590,1.566150,1.427751,-1.081699,2.142599,0.763318,-1.319679,-4.379134,-1.281601,11.673439,-1.461019,-11.588195,42.651287,77.647927,30.089235
3.100000,0.773709,1.587357,1.435319,-1.094305,2.098748,0.749928,-1.200868,-4.389836,-1.395904,12.083005,-0.677100,-11.265059,39.222151,79.077543,34.523953
3.110000,0.762708,1.608125,1.442746,-1.105704,2.054827,0.735412,-1.078103,-4.392586,-1.506752,12.460295,0.123746,-10.897731,35.481131,80.035435,38.852486
3.120000,0.751599,1.628453,1.450023,-1.115857,2.010921,0.719806,-0.951791,-4.387335,-1.613716,12.795530,0.927363,-10.488072,31.533484,80.626171,43.056430
3.130000,0.740395,1.648343,1.457139,-1.124730,1.967108,0.703152,-0.822327,-4.374025,-1.716376,13.090359,1.735023,-10.037106,27.404031,80.842796,47.109494
3.140000,0.729109,1.667796,1.464083,-1.132294,1.923468,0.685494,-0.690124,-4.352634,-1.814326,13.343088,2.542949,-9.546473,23.117595,80.678353,50.985388
3.150000,0.717754,1.686814,1.470846,-1.138525,1.880082,0.666882,-0.555610,-4.323178,-1.907179,13.552270,3.347296,-9.018076,18.698998,80.125886,54.657820
3.160000,0.706343,1.705399,1.477418,-1.143400,1.837029,0.647368,-0.419214,-4.285655,-1.994545,13.717926,4.149513,-8.451916,14.142331,79.042984,58.045783
3.170000,0.694890,1.723556,1.483790,-1.146905,1.794393,0.627010,-0.281405,-4.240231,-2.076109,13.836226,4.932919,-7.855549,9.506908,77.574731,61.184401
3.180000,0.683410,1.741288,1.489955,-1.149025,1.752250,0.605866,-0.142645,-4.187052,-2.151556,13.907897,5.699755,-7.229124,4.821315,75.730755,64.054083
3.190000,0.671914,1.758602,1.495905,-1.149756,1.710677,0.584000,-0.003404,-4.126303,-2.220600,13.932581,6.446313,-6.575429,0.114135,73.520687,66.635237
3.200000,0.660419,1.775504,1.501633,-1.149093,1.669749,0.561477,0.135849,-4.058205,-2.282984,13.910203,7.168981,-5.897447,-4.586046,70.954155,68.908272
3.210000,0.648937,1.792000,1.507133,-1.147040,1.629536,0.538362,0.274634,-3.982964,-2.338439,13.840070,7.868928,-5.194687,-9.227708,67.922384,70.760917
3.220000,0.637483,1.808097,1.512398,-1.143603,1.590111,0.514730,0.412497,-3.900933,-2.386821,13.724830,8.531639,-4.479211,-13.808011,64.567907,72.277608
3.230000,0.626070,1.823805,1.517426,-1.138795,1.551538,0.490650,0.548979,-3.812448,-2.427979,13.564200,9.159291,-3.750282,-18.301178,60.914852,73.450103
3.240000,0.614711,1.839131,1.522210,-1.132630,1.513882,0.466195,0.683633,-3.717874,-2.461794,13.359182,9.749021,-3.011383,-22.681435,56.987348,74.270159
3.250000,0.603422,1.854086,1.526749,-1.125130,1.477200,0.441439,0.816019,-3.617603,-2.488185,13.111034,10.298204,-2.266081,-26.923005,52.809521,74.729533
3.260000,0.592213,1.868679,1.531038,-1.116318,1.441547,0.416455,0.945686,-3.512024,-2.507058,12.818601,10.807121,-1.513554,-30.932694,48.338211,74.707110
3.270000,0.581099,1.882920,1.535077,-1.106225,1.406975,0.391321,1.072261,-3.401613,-2.518463,12.489977,11.267326,-0.768111,-34.760400,43.673074,74.321340
3.280000,0.570093,1.896822,1.538864,-1.094884,1.373529,0.366110,1.195361,-3.286836,-2.522439,12.124058,11.680045,-0.028319,-38.388600,38.846478,73.577802
3.290000,0.559206,1.910395,1.542399,-1.082331,1.341251,0.340897,1.314624,-3.168175,-2.519060,11.722928,12.043825,0.702271,-41.799776,33.890790,72.482073
3.300000,0.548450,1.923651,1.545683,-1.068606,1.310177,0.315753,1.429710,-3.046126,-2.508436,11.288845,12.357538,1.420167,-44.976406,28.838377,71.039733
3.310000,0.537838,1.936602,1.548715,-1.053751,1.280338,0.290751,1.540260,-2.921194,-2.490665,10.820634,12.620355,2.126120,-47.809880,23.722192,69.150512
3.320000,0.527379,1.949262,1.551498,-1.037815,1.251761,0.265962,1.646032,-2.793890,-2.465982,10.329442,12.831849,2.806827,-50.384921,18.573945,66.938797
3.330000,0.517085,1.961642,1.554035,-1.020847,1.224466,0.241453,1.746768,-2.664729,-2.434607,9.813818,12.991835,3.463882,-52.695161,13.425933,64.423125
3.340000,0.506965,1.973755,1.556329,-1.002897,1.198471,0.217291,1.842236,-2.534225,-2.396793,9.276443,13.100476,4.094338,-54.734232,8.310452,61.622038
3.350000,0.497030,1.985616,1.558382,-0.984020,1.173785,0.193538,1.932233,-2.402889,-2.352818,8.720059,13.158260,4.695434,-56.495768,3.259797,58.554073
3.360000,0.487288,1.997236,1.560201,-0.964270,1.150415,0.170253,2.016545,-2.271254,-2.302960,8.143959,13.163482,5.267378,-57.884625,-1.630233,55.167414
3.370000,0.477747,2.008628,1.561789,-0.943707,1.128360,0.147496,2.095071,-2.139780,-2.247587,7.559335,13.123226,5.801185,-58.994084,-6.398621,51.559570
3.380000,0.468416,2.019807,1.563153,-0.922389,1.107617,0.125319,2.167700,-2.008946,-2.187060,6.964994,13.035996,6.297922,-59.828646,-11.020846,47.757696
3.390000,0.459302,2.030785,1.564298,-0.900373,1.088177,0.103771,2.234348,-1.879212,-2.121759,6.363663,12.903378,6.755783,-60.392816,-15.472388,43.788946
3.400000,0.450411,2.041575,1.565230,-0.877722,1.070028,0.082898,2.294958,-1.751023,-2.052079,5.758024,12.727199,7.173235,-60.691096,-19.728726,39.680474
3.410000,0.441749,2.052190,1.565958,-0.854494,1.053152,0.062742,2.349474,-1.624852,-1.978426,5.148088,12.505332,7.549633,-60.661696,-23.659181,35.443888
3.420000,0.433323,2.062642,1.566488,-0.830752,1.037524,0.043341,2.397925,-1.501044,-1.901229,4.542659,12.250047,7.882529,-60.383532,-27.358392,31.123792
3.430000,0.425136,2.072944,1.566827,-0.806555,1.023122,0.024728,2.440340,-1.379970,-1.820921,3.941204,11.958974,8.171927,-59.869223,-30.814836,26.749243
3.440000,0.417193,2.083109,1.566985,-0.781965,1.009915,0.006932,2.476770,-1.261976,-1.737937,3.346020,11.634598,8.417429,-59.131391,-34.016995,22.349299
3.450000,0.409497,2.093147,1.566969,-0.757040,0.997871,-0.010023,2.507289,-1.147380,-1.652719,2.759279,11.279520,8.618925,-58.182656,-36.953346,17.953017
3.460000,0.402053,2.103070,1.566787,-0.731838,0.986956,-0.026116,2.531977,-1.036527,-1.565723,2.181752,10.892013,8.774944,-57.003403,-39.500150,13.631237
3.470000,0.394861,2.112889,1.566449,-0.706419,0.977129,-0.041332,2.550966,-0.929621,-1.477363,1.618378,10.485424,8.889874,-55.642437,-41.771845,9.366119
3.480000,0.387925,2.122616,1.565964,-0.680837,0.968350,-0.055660,2.564393,-0.826889,-1.388066,1.069453,10.057485,8.962535,-54.116326,-43.770652,5.181604
3.490000,0.381245,2.132260,1.565339,-0.655149,0.960576,-0.069092,2.572409,-0.728533,-1.298250,0.536547,9.610913,8.993854,-52.441637,-45.498792,1.101632
3.500000,0.374822,2.141831,1.564585,-0.629407,0.953764,-0.081625,2.575182,-0.634724,-1.208323,0.021061,9.148404,8.984996,-50.634939,-46.958485,-2.849854
3.510000,0.368657,2.151338,1.563710,-0.603662,0.947867,-0.093259,2.572895,-0.545642,-1.118714,-0.475552,8.669640,8.934202,-48.718236,-48.076403,-6.569023
3.520000,0.362749,2.160791,1.562723,-0.577965,0.942836,-0.104000,2.565736,-0.461364,-1.029760,-0.952730,8.184353,8.850604,-46.701995,-48.939565,-10.121606
3.530000,0.357097,2.170197,1.561633,-0.552363,0.938623,-0.113857,2.553909,-0.381979,-0.941817,-1.409313,7.691660,8.732373,-44.602117,-49.559442,-13.493444
3.540000,0.351701,2.179566,1.560448,-0.526902,0.935180,-0.122841,2.537621,-0.307548,-0.855222,-1.844546,7.193937,8.581385,-42.434506,-49.947504,-16.670380
3.550000,0.346559,2.188903,1.559179,-0.501625,0.932456,-0.130967,2.517091,-0.238110,-0.770292,-2.257831,6.693444,8.399662,-40.215064,-50.115224,-19.638253
3.560000,0.341668,2.198217,1.557832,-0.476574,0.930401,-0.138252,2.492554,-0.173692,-0.687362,-2.647422,6.191332,8.185898,-37.992666,-50.048911,-22.295344
3.570000,0.337026,2.207514,1.556416,-0.451787,0.928966,-0.144721,2.464217,-0.114277,-0.606659,-3.016132,5.691990,7.950602,-35.746204,-49.788278,-24.725778
3.580000,0.332631,2.216798,1.554940,-0.427301,0.928099,-0.150394,2.432306,-0.059840,-0.528427,-3.362306,5.196166,7.692149,-33.487544,-49.347877,-26.926116
3.590000,0.328479,2.226077,1.553411,-0.403152,0.927752,-0.155298,2.397046,-0.010337,-0.452885,-3.685882,4.705584,7.412858,-31.228551,-48.742259,-28.892921
3.600000,0.324567,2.235355,1.551837,-0.379371,0.927876,-0.159461,2.358664,0.034294,-0.380231,-3.986915,4.221823,7.115080,-28.981091,-47.985976,-30.622755
3.610000,0.320890,2.244636,1.550224,-0.355989,0.928422,-0.162912,2.317401,0.074132,-0.310668,-4.263915,3.746790,6.798363,-26.799124,-47.105517,-32.040427
3.620000,0.317446,2.253925,1.548581,-0.333032,0.929343,-0.165684,2.273457,0.109261,-0.244307,-4.521119,3.280655,6.471852,-24.647266,-46.102035,-33.223041
3.630000,0.314228,2.263224,1.546913,-0.310528,0.930592,-0.167809,2.227049,0.139781,-0.181267,-4.756983,2.825116,6.134668,-22.532226,-44.988621,-34.175946
3.640000,0.311234,2.272537,1.545227,-0.288499,0.932123,-0.169321,2.178388,0.165802,-0.121642,-4.971908,2.381206,5.789081,-20.460715,-43.778365,-34.904490
3.650000,0.308457,2.281867,1.543528,-0.266967,0.933893,-0.170254,2.127679,0.187447,-0.065506,-5.166365,1.949828,5.437308,-18.439444,-42.484357,-35.414024
3.660000,0.305892,2.291216,1.541823,-0.245952,0.935858,-0.170642,2.075142,0.204856,-0.012928,-5.339445,1.532950,5.079730,-16.511546,-41.149887,-35.664871
3.670000,0.303536,2.300585,1.540117,-0.225470,0.937976,-0.170524,2.020954,0.218151,0.036084,-5.495167,1.128383,4.722677,-14.642849,-39.754149,-35.712919
3.680000,0.301381,2.309976,1.538414,-0.205538,0.940208,-0.169933,1.965300,0.227471,0.081527,-5.632507,0.738040,4.366112,-12.835603,-38.306534,-35.569029
3.690000,0.299423,2.319389,1.536720,-0.186168,0.942513,-0.168905,1.908363,0.232961,0.123414,-5.752091,0.362393,4.011900,-11.092059,-36.816436,-35.244066
3.700000,0.297656,2.328826,1.535038,-0.167374,0.944855,-0.167476,1.850316,0.234770,0.161778,-5.854568,0.001821,3.661798,-9.414468,-35.293248,-34.748889
3.710000,0.296074,2.338287,1.533372,-0.149165,0.947196,-0.165681,1.791337,0.233063,0.196662,-5.939664,-0.342118,3.316758,-7.828922,-33.778544,-34.076794
3.720000,0.294671,2.347770,1.531725,-0.131550,0.949504,-0.163554,1.731574,0.227978,0.228138,-6.010307,-0.672252,2.979965,-6.310911,-32.245594,-33.258363
3.730000,0.293441,2.357276,1.530101,-0.114536,0.951745,-0.161129,1.671180,0.219669,0.256291,-6.066105,-0.986988,2.652035,-4.859764,-30.699850,-32.306610
3.740000,0.292378,2.366805,1.528503,-0.098128,0.953887,-0.158439,1.610299,0.208290,0.281213,-6.107723,-1.286224,2.334234,-3.474814,-29.146762,-31.234547
3.750000,0.291476,2.376354,1.526933,-0.082331,0.955901,-0.155515,1.549070,0.193996,0.303013,-6.135820,-1.569916,2.027701,-2.155391,-27.591784,-30.055188
3.760000,0.290729,2.385922,1.525394,-0.067148,0.957758,-0.152389,1.487630,0.176954,0.321810,-6.150637,-1.837129,1.733628,-0.911175,-26.064177,-28.786176
3.770000,0.290131,2.395508,1.523886,-0.052579,0.959431,-0.149089,1.426098,0.157304,0.337729,-6.153791,-2.090157,1.452457,0.270118,-24.542668,-27.435328
3.780000,0.289676,2.405110,1.522413,-0.038626,0.960896,-0.145643,1.364593,0.135201,0.350905,-6.145438,-2.328011,1.185152,1.390426,-23.029791,-26.015093
3.790000,0.289357,2.414725,1.520974,-0.025287,0.962128,-0.142079,1.303226,0.110794,0.361480,-6.126179,-2.550790,0.932345,2.451685,-21.528085,-24.537917
3.800000,0.289168,2.424352,1.519571,-0.012560,0.963104,-0.138422,1.242104,0.084235,0.369602,-6.096595,-2.758619,0.694542,3.455831,-20.040084,-23.016246
3.810000,0.289103,2.433987,1.518206,-0.000443,0.963805,-0.134695,1.181327,0.055677,0.375431,-6.057233,-2.951159,0.472894,4.404450,-18.580633,-21.481900
3.820000,0.289157,2.443627,1.516878,0.011068,0.964212,-0.130921,1.120990,0.025260,0.379112,-6.008667,-3.129740,0.265843,5.299872,-17.138454,-19.925582
3.830000,0.289323,2.453270,1.515587,0.021978,0.964305,-0.127119,1.061182,-0.006870,0.380800,-5.951406,-3.293989,0.074422,6.144076,-15.714575,-18.357367
3.840000,0.289595,2.462912,1.514335,0.032293,0.964069,-0.123311,1.001989,-0.040572,0.380652,-5.885950,-3.444096,-0.101299,6.939041,-14.310025,-16.787328
3.850000,0.289967,2.472550,1.513121,0.042020,0.963489,-0.119512,0.943489,-0.075706,0.378826,-5.812783,-3.580257,-0.261352,7.686745,-12.925834,-15.225541
3.860000,0.290433,2.482180,1.511945,0.051166,0.962550,-0.115740,0.885755,-0.112130,0.375489,-5.732534,-3.702558,-0.404810,8.393410,-11.566205,-13.708872
3.870000,0.290988,2.491800,1.510806,0.059738,0.961242,-0.112007,0.828861,-0.149712,0.370780,-5.645250,-3.811513,-0.534417,9.056254,-10.228603,-12.217324
3.880000,0.291626,2.501404,1.509704,0.067746,0.959553,-0.108328,0.772872,-0.188316,0.364850,-5.551550,-3.907205,-0.649263,9.676737,-8.913670,-10.757690
3.890000,0.292341,2.510990,1.508639,0.075199,0.957473,-0.104714,0.717850,-0.227813,0.357843,-5.451851,-3.989864,-0.749700,10.256319,-7.622046,-9.336765
3.900000,0.293128,2.520552,1.507610,0.082107,0.954994,-0.101174,0.663853,-0.268071,0.349902,-5.346555,-4.059726,-0.836150,10.796460,-6.354372,-7.961343
3.910000,0.293981,2.530088,1.506616,0.088480,0.952109,-0.097719,0.610934,-0.308966,0.341177,-5.236239,-4.117096,-0.907991,11.303429,-5.109704,-6.666263
3.920000,0.294896,2.539593,1.505655,0.094329,0.948813,-0.094353,0.559145,-0.350372,0.331785,-5.120825,-4.162076,-0.968408,11.773289,-3.890461,-5.426839
3.930000,0.295866,2.549063,1.504728,0.099666,0.945101,-0.091085,0.508533,-0.392167,0.321849,-5.000894,-4.194993,-1.016724,12.206909,-2.697477,-4.246432
3.940000,0.296888,2.558494,1.503833,0.104504,0.940969,-0.087918,0.459141,-0.434232,0.311488,-4.876805,-4.216116,-1.053545,12.605160,-1.531587,-3.128402
3.950000,0.297955,2.567881,1.502969,0.108853,0.936415,-0.084856,0.411009,-0.476451,0.300814,-4.748906,-4.225718,-1.079511,12.968915,-0.393624,-2.076108
3.960000,0.299063,2.577221,1.502136,0.112728,0.931440,-0.081903,0.364173,-0.518710,0.289943,-4.617654,-4.224164,-1.094322,13.301965,0.717590,-1.117551
3.970000,0.300208,2.586508,1.501331,0.116141,0.926042,-0.079058,0.318667,-0.560898,0.278959,-4.483108,-4.211556,-1.100994,13.601902,1.798960,-0.228434
3.980000,0.301384,2.595740,1.500554,0.119106,0.920222,-0.076323,0.274520,-0.602906,0.267951,-4.345725,-4.188288,-1.099123,13.869239,2.849406,0.590900
3.990000,0.302588,2.604911,1.499804,0.121636,0.913984,-0.073699,0.231761,-0.644629,0.257002,-4.205830,-4.154674,-1.089410,14.104488,3.867846,1.340109
4.000000,0.303816,2.614018,1.499080,0.123746,0.907331,-0.071183,0.190411,-0.685966,0.246187,-4.063740,-4.111041,-1.072556,14.308164,4.853198,2.018850
4.010000,0.305062,2.623057,1.498380,0.125449,0.900267,-0.068775,0.150492,-0.726818,0.235581,-3.919786,-4.057720,-1.048546,14.481191,5.804276,2.608522
4.020000,0.306323,2.632022,1.497704,0.126761,0.892797,-0.066471,0.112021,-0.767089,0.225235,-3.774237,-3.995068,-1.019800,14.623620,6.720117,3.129275
4.030000,0.307596,2.640911,1.497050,0.127695,0.884927,-0.064269,0.075012,-0.806689,0.215201,-3.627414,-3.923439,-0.986184,14.735914,7.599654,3.583001
4.040000,0.308876,2.649719,1.496418,0.128266,0.876665,-0.062165,0.039476,-0.845529,0.205525,-3.479618,-3.843200,-0.948357,14.818534,8.441818,3.971594
4.050000,0.310160,2.658443,1.495807,0.128489,0.868019,-0.060157,0.005421,-0.883526,0.196246,-3.331141,-3.754730,-0.906963,14.871944,9.245542,4.296946
4.060000,0.311445,2.667079,1.495215,0.128379,0.858998,-0.058239,-0.027145,-0.920597,0.187400,-3.182217,-3.658309,-0.862202,14.895153,10.006939,4.550331
4.070000,0.312727,2.675622,1.494642,0.127951,0.849611,-0.056408,-0.058223,-0.956667,0.179009,-3.033267,-3.554600,-0.815676,14.890254,10.728104,4.745560
4.080000,0.314003,2.684070,1.494087,0.127220,0.839868,-0.054657,-0.087811,-0.991665,0.171092,-2.884503,-3.443883,-0.767475,14.857888,11.408314,4.885826
4.090000,0.315270,2.692418,1.493548,0.126200,0.829781,-0.052984,-0.115914,-1.025523,0.163663,-2.736198,-3.326573,-0.718132,14.798697,12.046846,4.974322
4.100000,0.316526,2.700664,1.493027,0.124906,0.819362,-0.051383,-0.142538,-1.058176,0.156732,-2.588617,-3.203088,-0.668150,14.713320,12.642977,5.014242
4.110000,0.317767,2.708804,1.492520,0.123354,0.808622,-0.049848,-0.167689,-1.089563,0.150302,-2.441932,-3.073668,-0.617868,14.600255,13.191219,5.005477
4.120000,0.318992,2.716836,1.492029,0.121557,0.797575,-0.048375,-0.191380,-1.119632,0.144373,-2.296598,-2.939195,-0.568032,14.462548,13.696197,4.954924
4.130000,0.320198,2.724755,1.491553,0.119531,0.786234,-0.046959,-0.213626,-1.148331,0.138939,-2.152760,-2.799889,-0.518897,14.301102,14.157772,4.866182
4.140000,0.321382,2.732559,1.491090,0.117290,0.774613,-0.045594,-0.234441,-1.175615,0.133992,-2.010652,-2.656185,-0.470824,14.116822,14.575804,4.742846
4.150000,0.322543,2.740246,1.490641,0.114847,0.762726,-0.044277,-0.253845,-1.201442,0.129518,-1.870497,-2.508518,-0.424143,13.910608,14.950155,4.588514
4.160000,0.323678,2.747813,1.490204,0.112217,0.750589,-0.043003,-0.271858,-1.225771,0.125502,-1.732439,-2.357119,-0.379244,13.681562,15.275414,4.409275
4.170000,0.324787,2.755257,1.489781,0.109414,0.738216,-0.041766,-0.288502,-1.248574,0.121927,-1.596852,-2.202919,-0.336149,13.432611,15.557358,4.205927
4.180000,0.325866,2.762577,1.489369,0.106452,0.725623,-0.040563,-0.303803,-1.269821,0.118772,-1.463849,-2.046114,-0.295195,13.164879,15.796492,3.981764
4.190000,0.326915,2.769769,1.488969,0.103343,0.712825,-0.039389,-0.317788,-1.289489,0.116015,-1.333613,-1.887130,-0.256572,12.879489,15.993322,3.740078
4.200000,0.327932,2.776832,1.488581,0.100100,0.699838,-0.038241,-0.330485,-1.307558,0.113632,-1.206314,-1.726387,-0.220440,12.577566,16.148354,3.484159
4.210000,0.328917,2.783765,1.488204,0.096737,0.686679,-0.037115,-0.341925,-1.324010,0.111595,-1.082079,-1.564123,-0.187168,12.259373,16.257606,3.223427
4.220000,0.329867,2.790565,1.487839,0.093266,0.673363,-0.036008,-0.352138,-1.338837,0.109880,-0.961136,-1.401169,-0.156273,11.927000,16.326620,2.954297
4.230000,0.330782,2.797232,1.487484,0.089699,0.659908,-0.034917,-0.361159,-1.352032,0.108461,-0.843582,-1.237721,-0.128102,11.581676,16.356452,2.679309
4.240000,0.331661,2.803763,1.487140,0.086047,0.646328,-0.033838,-0.369021,-1.363591,0.107309,-0.729541,-1.074167,-0.102698,11.224630,16.348158,2.401007
4.250000,0.332502,2.810158,1.486807,0.082322,0.632641,-0.032770,-0.375762,-1.373516,0.106397,-0.619125,-0.910882,-0.080084,10.857093,16.302793,2.121932
4.260000,0.333307,2.816416,1.486485,0.078535,0.618863,-0.031709,-0.381416,-1.381810,0.105695,-0.512443,-0.748117,-0.060553,10.480602,16.218534,1.852181
4.270000,0.334073,2.822535,1.486173,0.074697,0.605010,-0.030655,-0.386023,-1.388482,0.105177,-0.409553,-0.586498,-0.043366,10.096040,16.099667,1.585815
4.280000,0.334801,2.828516,1.485872,0.070818,0.591099,-0.029605,-0.389620,-1.393544,0.104819,-0.310545,-0.426235,-0.028820,9.704598,15.947600,1.324450
4.290000,0.335489,2.834357,1.485581,0.066908,0.577145,-0.028558,-0.392247,-1.397012,0.104592,-0.215480,-0.267652,-0.016855,9.307469,15.763739,1.069703
4.300000,0.336139,2.840059,1.485301,0.062976,0.563164,-0.027513,-0.393943,-1.398904,0.104473,-0.124410,-0.111061,-0.007398,8.905843,15.549493,0.823190
4.310000,0.336749,2.845620,1.485031,0.059032,0.549172,-0.026468,-0.394749,-1.399241,0.104433,-0.037420,0.043286,-0.000644,8.502068,15.305146,0.593722
4.320000,0.337319,2.851042,1.484771,0.055084,0.535184,-0.025424,-0.394705,-1.398047,0.104453,0.045572,0.195001,0.004190,8.096038,15.033366,0.374841
4.330000,0.337850,2.856324,1.484522,0.051141,0.521216,-0.024379,-0.393851,-1.395350,0.104510,0.124497,0.343867,0.006891,7.688804,14.735699,0.167281
4.340000,0.338342,2.861466,1.484284,0.047210,0.507282,-0.023334,-0.392229,-1.391180,0.104584,0.199347,0.489633,0.007576,7.281415,14.413691,-0.028222
4.350000,0.338795,2.866470,1.484056,0.043298,0.493397,-0.022287,-0.389878,-1.385569,0.104655,0.270128,0.632065,0.006369,6.874922,14.068886,-0.210933
4.360000,0.339208,2.871335,1.483838,0.039414,0.479575,-0.021241,-0.386840,-1.378551,0.104703,0.336784,0.770923,0.003177,6.472108,13.703271,-0.374431
4.370000,0.339583,2.876062,1.483631,0.035564,0.465831,-0.020193,-0.383156,-1.370163,0.104713,0.399502,0.906045,-0.001328,6.072077,13.317897,-0.524362
4.380000,0.339920,2.880652,1.483434,0.031753,0.452177,-0.019146,-0.378864,-1.360443,0.104672,0.458237,1.037220,-0.007265,5.675668,12.914254,-0.660686
4.390000,0.340218,2.885105,1.483248,0.027988,0.438626,-0.018100,-0.374004,-1.349432,0.104564,0.513030,1.164274,-0.014496,5.283720,12.493836,-0.783365
4.400000,0.340480,2.889424,1.483072,0.024275,0.425192,-0.017055,-0.368616,-1.337172,0.104378,0.563930,1.287046,-0.022886,4.897069,12.058132,-0.892357
4.410000,0.340704,2.893610,1.482907,0.020618,0.411887,-0.016013,-0.362739,-1.323706,0.104101,0.610911,1.405327,-0.032444,4.518603,11.610233,-0.983931
4.420000,0.340892,2.897663,1.482752,0.017022,0.398722,-0.014974,-0.356410,-1.309080,0.103726,0.654233,1.519137,-0.042686,4.146860,11.149835,-1.062192
4.430000,0.341045,2.901585,1.482607,0.013491,0.385709,-0.013939,-0.349667,-1.293339,0.103245,0.693873,1.628287,-0.053645,3.782427,10.678236,-1.127555
4.440000,0.341162,2.905377,1.482473,0.010030,0.372859,-0.012909,-0.342545,-1.276530,0.102651,0.729907,1.732669,-0.065195,3.425892,10.196732,-1.180431
4.450000,0.341245,2.909042,1.482349,0.006641,0.360182,-0.011886,-0.335080,-1.258702,0.101940,0.762419,1.832192,-0.077213,3.077842,9.706618,-1.221235
4.460000,0.341295,2.912582,1.482235,0.003329,0.347688,-0.010871,-0.327309,-1.239904,0.101105,0.791417,1.926690,-0.089651,2.740829,9.211395,-1.248614
4.470000,0.341312,2.915997,1.482132,0.000096,0.335387,-0.009864,-0.319263,-1.220185,0.100146,0.817179,2.016301,-0.102228,2.413234,8.709884,-1.264961
4.480000,0.341297,2.919290,1.482038,-0.003055,0.323287,-0.008868,-0.310976,-1.199595,0.099060,0.839714,2.100870,-0.114915,2.095405,8.203112,-1.270908
4.490000,0.341251,2.922463,1.481954,-0.006123,0.311398,-0.007884,-0.302479,-1.178184,0.097847,0.859121,2.180349,-0.127613,1.787686,7.692103,-1.267082
4.500000,0.341175,2.925519,1.481880,-0.009104,0.299726,-0.006912,-0.293804,-1.156005,0.096508,0.875502,2.254701,-0.140226,1.490426,7.177885,-1.254114
4.510000,0.341070,2.928459,1.481816,-0.011998,0.288280,-0.005954,-0.284980,-1.133109,0.095043,0.888894,2.323803,-0.152676,1.205768,6.663928,-1.232405
4.520000,0.340936,2.931285,1.481761,-0.014804,0.277066,-0.005011,-0.276035,-1.109546,0.093455,0.899574,2.387866,-0.164859,0.932041,6.148514,-1.202838
4.530000,0.340774,2.934001,1.481716,-0.017519,0.266091,-0.004085,-0.266997,-1.085369,0.091747,0.907572,2.446770,-0.176709,0.669370,5.632369,-1.166074
4.540000,0.340586,2.936608,1.481679,-0.020143,0.255361,-0.003177,-0.257892,-1.060628,0.089923,0.912999,2.500513,-0.188158,0.417883,5.116219,-1.122767
4.550000,0.340371,2.939109,1.481652,-0.022677,0.244880,-0.002287,-0.248745,-1.035376,0.087986,0.915967,2.549097,-0.199145,0.177705,4.600790,-1.073576
4.560000,0.340132,2.941506,1.481634,-0.025118,0.234655,-0.001417,-0.239581,-1.009664,0.085942,0.916530,2.592440,-0.209581,-0.049497,4.089185,-1.019937
4.570000,0.339869,2.943803,1.481624,-0.027468,0.224688,-0.000569,-0.230422,-0.983544,0.083796,0.914946,2.630781,-0.219493,-0.265325,3.579463,-0.961633
4.580000,0.339583,2.946001,1.481622,-0.029727,0.214985,0.000258,-0.221289,-0.957065,0.081554,0.911261,2.664037,-0.228800,-0.469843,3.072060,-0.899226
4.590000,0.339275,2.948103,1.481629,-0.031894,0.205548,0.001062,-0.212204,-0.930280,0.079222,0.905587,2.692232,-0.237466,-0.663113,2.567411,-0.833277
4.600000,0.338946,2.950113,1.481643,-0.033971,0.196380,0.001842,-0.203184,-0.903238,0.076807,0.898036,2.715396,-0.245456,-0.845196,2.065953,-0.764348
4.610000,0.338596,2.952032,1.481665,-0.035958,0.187484,0.002598,-0.194249,-0.875989,0.074316,0.888671,2.733482,-0.252694,-1.014914,1.570150,-0.694276
4.620000,0.338227,2.953863,1.481695,-0.037856,0.178861,0.003328,-0.185416,-0.848584,0.071755,0.877719,2.746721,-0.259278,-1.173723,1.078160,-0.622192
4.630000,0.337839,2.955610,1.481732,-0.039667,0.170513,0.004033,-0.176700,-0.821071,0.069133,0.865232,2.755059,-0.265133,-1.321837,0.590170,-0.548501
4.640000,0.337434,2.957274,1.481776,-0.041391,0.162440,0.004711,-0.168116,-0.793499,0.066455,0.851317,2.758538,-0.270244,-1.459472,0.106366,-0.473610
4.650000,0.337012,2.958860,1.481826,-0.043030,0.154643,0.005362,-0.159678,-0.765917,0.063730,0.836077,2.757201,-0.274602,-1.586841,-0.373063,-0.397924
4.660000,0.336573,2.960368,1.481883,-0.044585,0.147121,0.005985,-0.151399,-0.738372,0.060966,0.819577,2.751045,-0.278147,-1.703228,-0.846754,-0.323213
4.670000,0.336120,2.961803,1.481946,-0.046058,0.139875,0.006581,-0.143290,-0.710912,0.058170,0.802003,2.740228,-0.281005,-1.809892,-1.315841,-0.248352
4.680000,0.335653,2.963167,1.482014,-0.047451,0.132903,0.007149,-0.135362,-0.683583,0.055349,0.783410,2.724744,-0.283114,-1.907163,-1.780281,-0.173578
4.690000,0.335171,2.964462,1.482089,-0.048766,0.126203,0.007688,-0.127625,-0.656432,0.052510,0.763890,2.704638,-0.284478,-1.995368,-2.240032,-0.099131
4.700000,0.334677,2.965692,1.482168,-0.050004,0.119773,0.008199,-0.120087,-0.629505,0.049662,0.743532,2.679959,-0.285099,-2.074836,-2.695051,-0.025250
4.710000,0.334172,2.966858,1.482252,-0.051168,0.113612,0.008681,-0.112758,-0.602848,0.046811,0.722359,2.650779,-0.284940,-2.144323,-3.145933,0.046690
4.720000,0.333654,2.967965,1.482342,-0.052260,0.107715,0.009135,-0.105642,-0.576505,0.043965,0.700602,2.617085,-0.284117,-2.205923,-3.591920,0.117727
4.730000,0.333127,2.969013,1.482435,-0.053282,0.102080,0.009561,-0.098748,-0.550521,0.041131,0.678265,2.578957,-0.282589,-2.260156,-4.032890,0.187761
4.740000,0.332589,2.970007,1.482533,-0.054236,0.096704,0.009958,-0.092079,-0.524940,0.038316,0.655421,2.536445,-0.280366,-2.307544,-4.468722,0.256694
4.750000,0.332042,2.970948,1.482634,-0.055124,0.091580,0.010327,-0.085641,-0.499806,0.035526,0.632136,2.489600,-0.277459,-2.348607,-4.899295,0.324426
4.760000,0.331487,2.971840,1.482739,-0.055950,0.086706,0.010668,-0.079436,-0.475157,0.032769,0.608629,2.438960,-0.273838,-2.387910,-5.336699,0.389759
4.770000,0.330923,2.972683,1.482847,-0.056714,0.082075,0.010982,-0.073469,-0.451042,0.030051,0.584577,2.383435,-0.269619,-2.421435,-5.767108,0.453827
4.780000,0.330353,2.973482,1.482959,-0.057420,0.077683,0.011270,-0.067745,-0.427503,0.027379,0.560219,2.323647,-0.264766,-2.449208,-6.188904,0.516665
4.790000,0.329775,2.974238,1.483073,-0.058070,0.073523,0.011530,-0.062266,-0.404583,0.024758,0.535612,2.259691,-0.259290,-2.471255,-6.600472,0.578308
4.800000,0.329191,2.974953,1.483189,-0.058666,0.069589,0.011765,-0.057034,-0.382322,0.022195,0.510813,2.191677,-0.253203,-2.487601,-7.000195,0.638792
4.810000,0.328602,2.975630,1.483308,-0.059211,0.065874,0.011974,-0.052053,-0.360748,0.019696,0.485606,2.121016,-0.246515,-2.491384,-7.418905,0.698084
4.820000,0.328007,2.976271,1.483429,-0.059708,0.062371,0.012159,-0.047321,-0.339916,0.017267,0.460694,2.044811,-0.239242,-2.490361,-7.818565,0.756296
4.830000,0.327408,2.976878,1.483551,-0.060158,0.059073,0.012320,-0.042839,-0.319865,0.014913,0.435812,1.964727,-0.231393,-2.485402,-8.193584,0.813469
4.840000,0.326804,2.977453,1.483675,-0.060565,0.055971,0.012458,-0.038605,-0.300633,0.012641,0.410996,1.881040,-0.222976,-2.477376,-8.538375,0.869648
4.850000,0.326197,2.977998,1.483800,-0.060931,0.053057,0.012573,-0.034619,-0.282255,0.010456,0.386272,1.794079,-0.214003,-2.467153,-8.847346,0.924876
4.860000,0.325586,2.978515,1.483926,-0.061259,0.050323,0.012667,-0.030879,-0.264761,0.008363,0.361657,1.704231,-0.204482,-2.455600,-9.114910,0.979196
4.870000,0.324972,2.979005,1.484053,-0.061550,0.047759,0.012741,-0.027385,-0.248179,0.006368,0.337161,1.611937,-0.194422,-2.443589,-9.335476,1.032651
4.880000,0.324355,2.979471,1.484181,-0.061807,0.045356,0.012795,-0.024136,-0.232529,0.004476,0.312784,1.517697,-0.183832,-2.431988,-9.503455,1.085284
4.890000,0.323736,2.979913,1.484309,-0.062033,0.043105,0.012830,-0.021129,-0.217829,0.002693,0.288517,1.422062,-0.172719,-2.421666,-9.613257,1.137140
4.900000,0.323114,2.980333,1.484438,-0.062230,0.040997,0.012849,-0.018365,-0.204090,0.001023,0.264344,1.325644,-0.161091,-2.413492,-9.659293,1.188261
4.910000,0.322491,2.980733,1.484566,-0.062401,0.039020,0.012851,-0.015842,-0.191317,-0.000527,0.240237,1.229108,-0.148956,-2.408337,-9.635975,1.238690
4.920000,0.321866,2.981114,1.484695,-0.062548,0.037167,0.012839,-0.013560,-0.179506,-0.001954,0.216164,1.133174,-0.136320,-2.407068,-9.537711,1.288471
4.930000,0.321240,2.981477,1.484823,-0.062673,0.035427,0.012813,-0.011519,-0.168649,-0.003252,0.192080,1.038622,-0.123189,-2.410556,-9.358913,1.337647
4.940000,0.320613,2.981823,1.484951,-0.062779,0.033791,0.012774,-0.009719,-0.158726,-0.004416,0.167934,0.946283,-0.109569,-2.419670,-9.093992,1.386262
4.950000,0.319985,2.982153,1.485078,-0.062868,0.032249,0.012725,-0.008161,-0.149713,-0.005442,0.143665,0.857048,-0.095465,-2.435279,-8.737357,1.434359
4.960000,0.319356,2.982468,1.485205,-0.062943,0.030794,0.012666,-0.006846,-0.141572,-0.006324,0.119204,0.771860,-0.080883,-2.458252,-8.283420,1.481980
4.970000,0.318726,2.982769,1.485332,-0.063006,0.029415,0.012599,-0.005777,-0.134259,-0.007058,0.094473,0.691722,-0.065827,-2.489458,-7.726591,1.529170
4.980000,0.318096,2.983057,1.485457,-0.063060,0.028106,0.012525,-0.004958,-0.127717,-0.007639,0.069385,0.617690,-0.050301,-2.529767,-7.061280,1.575971
4.990000,0.317465,2.983332,1.485582,-0.063106,0.026859,0.012447,-0.004391,-0.121881,-0.008062,0.043844,0.550877,-0.034309,-2.580048,-6.281899,1.622428
5.000000,0.316833,2.983594,1.485706,-0.063148,0.025666,0.012364,-0.004083,-0.116672,-0.008324,0.017747,0.492451,-0.017853,-2.641171,-5.382858,1.668582
