time,x,y,z,vx,vy,vz,ax,ay,az,jx,jy,jz,sx,sy,sz
0.000000,0.334490,-3.020134,1.477557,-0.002276,0.007929,-0.012634,-0.036543,-0.023511,0.044192,-0.065992,0.235579,0.391672,3.127221,11.796261,-0.614038
0.050000,0.334377,-3.019738,1.476926,-0.004104,0.006753,-0.010424,-0.039843,-0.011732,0.063776,0.090369,0.825392,0.360970,3.167305,17.857633,-2.530412
0.100000,0.334080,-3.019459,1.476515,-0.006261,0.006756,-0.006256,-0.027506,0.059028,0.080289,0.250738,2.021342,0.138631,-0.803193,19.605161,-3.527584
0.150000,0.333750,-3.019062,1.476300,-0.006854,0.012656,-0.002395,-0.014769,0.190402,0.077639,0.010050,2.785908,0.008212,-5.699978,9.711415,-0.256422
0.200000,0.333395,-3.018193,1.476275,-0.007738,0.025796,0.001507,-0.026501,0.337619,0.081110,-0.319259,2.992484,0.112988,-4.488171,3.084365,1.730970
0.250000,0.332977,-3.016483,1.476451,-0.009504,0.046418,0.005716,-0.046695,0.489651,0.088937,-0.438767,3.094345,0.181309,-1.597001,2.117476,0.977541
0.300000,0.332444,-3.013552,1.476847,-0.012407,0.074761,0.010401,-0.070378,0.647054,0.099241,-0.478959,3.204232,0.210742,-0.217316,2.046000,0.176206
0.350000,0.331736,-3.009007,1.477491,-0.016542,0.111123,0.015640,-0.094591,0.810074,0.110012,-0.460499,3.298945,0.198929,0.967632,1.334197,-0.661593
0.400000,0.330790,-3.002439,1.478411,-0.021866,0.155768,0.021402,-0.116428,0.976948,0.119134,-0.382196,3.337651,0.144583,2.182736,-0.200963,-1.498890
0.450000,0.329549,-2.993430,1.479631,-0.028185,0.208818,0.027553,-0.132810,1.143839,0.124470,-0.242225,3.278849,0.049040,3.397880,-2.566331,-2.262039
0.500000,0.327971,-2.981557,1.481166,-0.035147,0.270152,0.033849,-0.140651,1.304833,0.124038,-0.042408,3.081018,-0.081621,4.539392,-5.743901,-2.832167
0.550000,0.326035,-2.966415,1.483016,-0.042250,0.339302,0.039957,-0.137051,1.451941,0.116308,0.211714,2.704459,-0.234177,5.535628,-9.644697,-3.047765
0.600000,0.323746,-2.947627,1.485162,-0.048852,0.415346,0.045480,-0.119479,1.575279,0.100620,0.511155,2.116548,-0.386397,6.320461,-14.051908,-2.726215
0.650000,0.321149,-2.924880,1.487564,-0.054198,0.496830,0.050019,-0.085936,1.663596,0.077668,0.843760,1.299268,-0.506798,6.838364,-18.588674,-1.709210
0.700000,0.318327,-2.897944,1.490164,-0.057446,0.581706,0.053247,-0.035103,1.705206,0.049940,1.194991,0.257681,-0.557318,7.050780,-22.716355,0.066989
0.750000,0.315405,-2.866709,1.492889,-0.057708,0.667350,0.055013,0.033563,1.689364,0.021936,1.548838,-0.972368,-0.500099,6.936776,-25.790241,2.488407
0.800000,0.312556,-2.831209,1.495665,-0.054090,0.750642,0.055441,0.119781,1.607969,-0.000069,1.888669,-2.321343,-0.308477,6.492705,-27.184175,5.197246
0.850000,0.309996,-2.791645,1.498433,-0.045730,0.828147,0.055006,0.222430,1.457230,-0.008911,2.198108,-3.690785,0.019625,5.730128,-26.444647,7.581195
0.900000,0.307983,-2.748395,1.501166,-0.031847,0.896365,0.054549,0.339591,1.238890,0.001893,2.461681,-4.965808,0.449642,4.673464,-23.416629,8.846189
0.950000,0.306811,-2.702009,1.503888,-0.011771,0.952036,0.055195,0.468598,0.960649,0.036053,2.665455,-6.032448,0.904244,3.360556,-18.276561,8.172908
1.000000,0.306806,-2.653191,1.506685,0.015013,0.992430,0.058155,0.606137,0.635646,0.092317,2.797737,-6.793464,1.266933,1.830948,-11.446029,4.925966
1.050000,0.308312,-2.602766,1.509703,0.048843,1.015601,0.064427,0.748372,0.281302,0.162746,2.848549,-7.177051,1.396841,0.107297,-3.424926,-1.131820
1.100000,0.311690,-2.551631,1.513128,0.089850,1.020560,0.074429,0.890992,-0.082060,0.232002,2.808467,-7.135957,1.153751,-1.812179,5.380704,-9.667209
1.150000,0.317297,-2.500709,1.517146,0.137942,1.007395,0.087627,1.029219,-0.432293,0.278121,2.667332,-6.638981,0.430120,-3.971593,14.755512,-19.686785
1.200000,0.325484,-2.450891,1.521891,0.192772,0.977331,0.102242,1.157725,-0.745958,0.275014,2.411307,-5.660405,-0.814928,-6.466241,24.660106,-29.560244
1.250000,0.336575,-2.402976,1.527370,0.253714,0.932799,0.115128,1.270349,-0.998334,0.196629,2.020708,-4.172970,-2.525904,-9.387165,35.083721,-37.178175
1.300000,0.350856,-2.357612,1.533403,0.319807,0.877498,0.121904,1.359796,-1.163255,0.022423,1.472591,-2.152033,-4.532745,-12.722250,45.766906,-40.259165
1.350000,0.368555,-2.315227,1.539561,0.389694,0.816473,0.117371,1.417608,-1.213537,-0.256646,0.748483,0.403720,-6.551821,-16.262465,55.890723,-36.806021
1.400000,0.389825,-2.275964,1.545141,0.461568,0.756144,0.096240,1.434644,-1.122883,-0.632759,-0.153656,3.437039,-8.213347,-19.543598,63.883551,-25.673547
1.450000,0.414712,-2.239612,1.549185,0.533158,0.704185,0.054095,1.402243,-0.869833,-1.077981,-1.205877,6.792076,-9.119176,-21.874093,67.511084,-7.140327
1.500000,0.443141,-2.205546,1.550550,0.601792,0.669161,-0.011558,1.314056,-0.443675,-1.544677,-2.341065,10.188148,-8.927380,-22.488513,64.370747,16.711768
1.550000,0.474891,-2.172696,1.548029,0.664564,0.659818,-0.100373,1.168136,0.148981,-1.970719,-3.454729,13.229150,-7.447999,-20.801552,52.738110,42.054818
1.600000,0.509597,-2.139564,1.540513,0.718606,0.684059,-0.208630,0.968583,0.879240,-2.289476,-4.421220,15.461959,-4.721898,-16.665868,32.475883,63.976352
1.650000,0.546752,-2.104290,1.527166,0.761422,0.747742,-0.329320,0.726014,1.695177,-2.442909,-5.121315,16.476739,-1.050364,-10.505900,5.569974,77.678628
1.700000,0.585739,-2.064790,1.507581,0.791207,0.853577,-0.452921,0.456452,2.526914,-2.394513,-5.471810,16.018956,3.045965,-3.247794,-24.043820,79.860171
1.750000,0.625873,-2.018933,1.481874,0.807067,1.000433,-0.568772,0.178833,3.297073,-2.138312,-5.446095,14.072357,6.935654,3.930242,-51.389021,69.767156
1.800000,0.666446,-1.964746,1.450704,0.809091,1.183284,-0.666752,-0.088158,3.934150,-1.700947,-5.078786,10.880054,10.022680,9.916460,-71.798312,49.488852
1.850000,0.706782,-1.900604,1.415199,0.798252,1.393848,-0.738866,-0.329045,4.385078,-1.136044,-4.454449,6.892525,11.884539,13.930061,-82.209417,23.364005
1.900000,0.746271,-1.825362,1.376817,0.776186,1.621792,-0.780357,-0.533602,4.623402,-0.512494,-3.685780,2.659112,12.359081,15.658199,-81.914493,-3.276231
1.950000,0.784400,-1.738425,1.337163,0.744891,1.856188,-0.790116,-0.697623,4.650990,0.099864,-2.888629,-1.298924,11.556916,15.249880,-72.508320,-25.552117
2.000000,0.820760,-1.639743,1.297805,0.706424,2.086891,-0.770370,-0.822465,4.493510,0.643198,-2.160792,-4.591720,9.803869,13.196025,-57.140409,-40.168118
2.050000,0.855043,-1.529736,1.260126,0.662645,2.305539,-0.725796,-0.913702,4.191818,1.080251,-1.569026,-7.012965,7.540104,10.154756,-39.447788,-45.932159
2.100000,0.887025,-1.409189,1.225226,0.615054,2.506072,-0.662345,-0.979368,3.792213,1.397208,-1.145316,-8.536499,5.210653,6.776980,-22.582448,-43.632705
2.150000,0.916548,-1.279129,1.193891,0.564708,2.684760,-0.586075,-1.028234,3.338168,1.601316,-0.891328,-9.271210,3.176833,3.566402,-8.618382,-35.454953
2.200000,0.943496,-1.140713,1.166618,0.512230,2.839889,-0.502213,-1.068501,2.865092,1.714892,-0.788676,-9.398337,1.665158,0.799598,1.554554,-24.208395
2.250000,0.967771,-0.995140,1.143670,0.457858,2.971270,-0.414586,-1.107102,2.398334,1.767832,-0.811369,-9.115754,0.755994,-1.481649,7.957474,-12.621394
2.300000,0.989282,-0.843586,1.125160,0.401520,3.079723,-0.325430,-1.149638,1.953517,1.790491,-0.936841,-8.602589,0.403019,-3.410524,11.100048,-2.862752
2.350000,1.007923,-0.687168,1.111127,0.342894,3.166621,-0.235537,-1.200786,1.538075,1.808134,-1.152421,-8.005749,0.469719,-5.181775,11.600237,3.674558
2.400000,1.023571,-0.526924,1.101606,0.281441,3.233530,-0.144617,-1.264880,1.152942,1.837463,-1.455018,-7.442566,0.770474,-6.914389,9.966093,6.378326
2.450000,1.036067,-0.363815,1.096665,0.216406,3.281916,-0.051791,-1.346288,0.793819,1.885181,-1.843860,-7.009140,1.107551,-8.531805,6.575170,5.287487
2.500000,1.045212,-0.198732,1.096427,0.146813,3.312912,0.043901,-1.449266,0.452028,1.948218,-2.308199,-6.785049,1.299223,-9.695282,1.791613,0.904269
2.550000,1.050749,-0.032523,1.101056,0.071480,3.327118,0.143031,-1.577107,0.115314,2.015104,-2.813388,-6.829979,1.197978,-9.814806,-3.874165,-5.986167
2.600000,1.052360,0.133980,1.110730,-0.010898,3.324443,0.245412,-1.730605,-0.230970,2.068016,-3.289680,-7.172465,0.700606,-8.150821,-9.642922,-14.445434
2.650000,1.049659,0.299921,1.125597,-0.101581,3.304021,0.349833,-1.906075,-0.601933,2.085164,-3.628470,-7.794271,-0.246565,-4.001116,-14.436248,-23.443734
2.700000,1.042202,0.464382,1.145713,-0.201506,3.264250,0.453928,-2.093452,-1.010397,2.043359,-3.689791,-8.616090,-1.643767,3.058162,-16.967154,-31.863909
2.750000,1.029508,0.626346,1.170990,-0.310926,3.202982,0.554169,-2.275055,-1.463542,1.920788,-3.322654,-9.490986,-3.432956,12.929300,-15.950629,-38.487972
2.800000,1.011109,0.784680,1.201130,-0.429011,3.117896,0.646007,-2.425717,-1.959496,1.700064,-2.396861,-10.211153,-5.492564,24.813662,-10.403393,-42.027066
2.850000,0.986607,0.938136,1.235590,-0.553498,3.007032,0.724175,-2.514741,-2.484657,1.371531,-0.841288,-10.531326,-7.635663,37.168466,0.025250,-41.250792
2.900000,0.955759,1.085383,1.273548,-0.680485,2.869430,0.783160,-2.509846,-3.012628,0.936498,1.319986,-10.208628,-9.617643,47.861191,14.773266,-35.234250
2.950000,0.918559,1.225079,1.313906,-0.804482,2.705769,0.817825,-2.382742,-3.505520,0.409767,3.944831,-9.053999,-11.159088,54.544523,32.232274,-23.679691
3.000000,0.875311,1.355960,1.355330,-0.918759,2.518878,0.824137,-2.115363,-3.918028,-0.179411,6.774438,-6.985401,-11.985613,55.205329,49.848927,-7.208699
3.050000,0.826683,1.476966,1.396320,-1.016018,2.313967,0.799884,-1.705298,-4.204060,-0.788794,9.465364,-4.069106,-11.879958,48.752858,64.509626,12.508624
3.100000,0.773709,1.587357,1.435319,-1.089289,2.098472,0.745257,-1.168826,-4.324939,-1.367407,11.649724,-0.534438,-10.734750,35.441620,73.180928,32.893221
3.150000,0.717754,1.686814,1.470846,-1.132901,1.881473,0.663143,-0.540326,-4.257504,-1.862269,13.009526,3.248986,-8.590635,16.939396,73.672443,50.880940
3.200000,0.660419,1.775504,1.501633,-1.143322,1.672722,0.559030,0.132126,-4.000040,-2.226470,13.343663,6.832806,-5.646656,-4.014939,65.286857,63.535091
3.250000,0.603422,1.854086,1.526749,-1.119688,1.481469,0.440496,0.794040,-3.574223,-2.426935,12.608032,9.777672,-2.237126,-24.246449,49.103989,68.688763
3.300000,0.548450,1.923651,1.545683,-1.063918,1.315299,0.316337,1.392930,-3.022273,-2.450183,10.919018,11.743205,1.222220,-40.862429,27.765201,65.457094
3.350000,0.497030,1.985616,1.558382,-0.980395,1.179241,0.195478,1.885942,-2.399903,-2.304713,8.521789,12.554192,4.308583,-51.848983,4.817758,54.482404
3.400000,0.450411,2.041575,1.565230,-0.875324,1.075309,0.085865,2.245109,-1.766854,-2.019325,5.734120,12.224981,6.670461,-56.398080,-16.168225,37.819211
3.450000,0.409497,2.093147,1.566969,-0.755884,1.002556,-0.006455,2.459354,-1.177405,-1.637667,2.881981,10.937370,8.090504,-54.908799,-32.438562,18.458378
3.500000,0.374822,2.141831,1.564585,-0.629388,0.957569,-0.077901,2.533307,-0.673117,-1.210274,0.243240,8.981125,8.516299,-48.705722,-42.593639,-0.385833
3.550000,0.346559,2.188903,1.559179,-0.502554,0.935244,-0.127482,2.483678,-0.279292,-0.786037,-1.988591,6.678006,8.051921,-39.584716,-46.658092,-16.001663
3.600000,0.324567,2.235355,1.551837,-0.381020,0.929639,-0.156505,2.334448,-0.005316,-0.405082,-3.715232,4.315316,6.916132,-29.330779,-45.706012,-26.684609
3.650000,0.308457,2.281867,1.543528,-0.269109,0.934713,-0.167990,2.112155,0.152239,-0.094424,-4.921669,2.107405,5.383460,-19.353770,-41.277784,-31.896067
3.700000,0.297656,2.328826,1.535038,-0.169805,0.944863,-0.165947,1.842281,0.205424,0.133264,-5.650609,0.187537,3.726526,-10.528375,-34.867491,-32.109863
3.750000,0.291476,2.376354,1.526933,-0.084881,0.955255,-0.154664,1.547094,0.170993,0.278229,-5.974506,-1.379345,2.172474,-3.226458,-27.628355,-28.479396
3.800000,0.289168,2.424352,1.519571,-0.015095,0.961963,-0.138124,1.244830,0.067490,0.350511,-5.973254,-2.575298,0.878586,2.536556,-20.299011,-22.463591
3.850000,0.289967,2.472550,1.513121,0.039602,0.962004,-0.119613,0.949769,-0.086537,0.366087,-5.720851,-3.409246,-0.073886,6.928010,-13.279259,-15.505351
3.900000,0.293128,2.520552,1.507610,0.079881,0.953309,-0.101516,0.672745,-0.273435,0.343122,-5.280453,-3.903224,-0.671949,10.158839,-6.765724,-8.806128
3.950000,0.297955,2.567881,1.502969,0.106877,0.934661,-0.085301,0.421723,-0.476859,0.298892,-4.704967,-4.085818,-0.954498,12.405679,-0.874928,-3.204151
4.000000,0.303816,2.614018,1.499080,0.122054,0.905623,-0.071626,0.202248,-0.682017,0.247673,-4.039885,-3.990717,-0.992364,13.790089,4.283829,0.856123
4.050000,0.310160,2.658443,1.495807,0.127101,0.866459,-0.060533,0.017735,-0.875931,0.199656,-3.325958,-3.657435,-0.868886,14.394204,8.589758,3.284630
4.100000,0.316526,2.700664,1.493027,0.123827,0.818030,-0.051661,-0.130347,-1.047760,0.160784,-2.600465,-3.131741,-0.663901,14.289625,11.928803,4.260996
4.150000,0.322543,2.740246,1.490641,0.114067,0.761683,-0.044455,-0.242312,-1.189105,0.133266,-1.896995,-2.464555,-0.442786,13.561847,14.224839,4.129475
4.200000,0.327932,2.776832,1.488581,0.099596,0.699120,-0.038334,-0.320047,-1.294216,0.116505,-1.244280,-1.709257,-0.250954,12.321566,15.464439,3.295964
4.250000,0.332502,2.810158,1.486807,0.082062,0.632261,-0.032804,-0.366740,-1.360031,0.108170,-0.664839,-0.918111,-0.113190,10.702422,15.705281,2.144176
4.300000,0.336139,2.840059,1.485301,0.062922,0.563117,-0.027517,-0.386531,-1.386027,0.105186,-0.174038,-0.138729,-0.036536,8.849660,15.067610,0.980484
4.350000,0.338795,2.866470,1.484056,0.043409,0.493659,-0.022286,-0.384144,-1.373904,0.104517,0.220127,0.588650,-0.015142,6.905697,13.714286,0.009094
4.400000,0.340480,2.889424,1.483072,0.024508,0.425726,-0.017066,-0.364518,-1.327162,0.103672,0.516532,1.232699,-0.035627,4.997376,11.826715,-0.667144
4.450000,0.341245,2.909042,1.482349,0.006957,0.360943,-0.011919,-0.332490,-1.250634,0.100954,0.719865,1.771322,-0.081856,3.227159,9.582613,-1.028596
4.500000,0.341175,2.925519,1.481880,-0.008741,0.300663,-0.006970,-0.292532,-1.150029,0.095487,0.839248,2.190961,-0.138486,1.668777,7.139143,-1.112443
4.550000,0.340371,2.939109,1.481652,-0.022296,0.245940,-0.002370,-0.248566,-1.031537,0.087106,0.886742,2.485236,-0.193100,0.366824,4.622650,-0.985712
4.600000,0.338946,2.950113,1.481643,-0.033598,0.197509,0.001740,-0.203857,-0.901506,0.076177,0.875930,2.653226,-0.237058,-0.660993,2.124440,-0.722830
4.650000,0.337012,2.958860,1.481826,-0.042682,0.155789,0.005248,-0.160973,-0.766215,0.063400,0.820643,2.697680,-0.265383,-1.420215,-0.298175,-0.390131
4.700000,0.334677,2.965692,1.482168,-0.049695,0.120888,0.008080,-0.121793,-0.631738,0.049638,0.733908,2.623408,-0.276071,-1.936197,-2.614858,-0.037559
4.750000,0.332042,2.970948,1.482634,-0.054861,0.092615,0.010212,-0.087582,-0.503874,0.035793,0.627023,2.436194,-0.269139,-2.248009,-4.797950,0.303804
4.800000,0.329191,2.974953,1.483189,-0.058453,0.070500,0.011660,-0.059091,-0.388118,0.022724,0.509107,2.143613,-0.245690,-2.399611,-6.744805,0.620114
4.850000,0.326197,2.977998,1.483800,-0.060770,0.053803,0.012484,-0.036671,-0.289513,0.011224,0.387062,1.761714,-0.207128,-2.329138,-5.212927,1.109143
4.900000,0.323114,2.980333,1.484438,-0.062120,0.041549,0.012782,-0.020385,-0.211947,0.002012,0.276194,1.622321,-0.134776,-2.265629,-3.998230,1.612962
4.950000,0.319985,2.982153,1.485078,-0.062809,0.032609,0.012685,-0.009052,-0.127281,-0.002254,0.160500,1.361891,-0.045832,-1.818526,-5.918673,1.284222
5.000000,0.316833,2.983594,1.485706,-0.063025,0.028821,0.012557,-0.004335,-0.075758,-0.002572,0.094341,1.030453,-0.006354,-1.323168,-6.628746,0.789557
