time,x,y,z,vx,vy,vz,ax,ay,az,jx,jy,jz,sx,sy,sz,roll,pitch,yaw,p,q,r
0.000000,-2.725608,-0.178630,-1.472707,0.009082,0.002086,0.015126,-0.008244,-0.258650,-0.106977,-3.830159,6.439504,0.480731,129.967983,-143.874106,-0.143228,-0.026076,0.000831,0.000000,0.647645,0.386131,0.000000
0.010000,-2.725518,-0.178621,-1.472561,0.008829,-0.000202,0.014080,-0.040413,-0.201117,-0.102185,-2.639463,5.099325,0.476861,108.555296,-124.454933,-0.623080,-0.020287,0.004077,0.000000,0.513280,0.266422,-0.000000
0.020000,-2.725432,-0.178632,-1.472425,0.008310,-0.001978,0.013082,-0.061709,-0.156045,-0.097455,-1.651562,3.944676,0.468419,89.390072,-106.754756,-1.057961,-0.015749,0.006228,0.000000,0.397318,0.166966,0.000000
0.030000,-2.725353,-0.178659,-1.472299,0.007625,-0.003359,0.012131,-0.074047,-0.121661,-0.092830,-0.844551,2.958766,0.455847,72.357990,-90.693764,-1.449479,-0.012285,0.007477,0.000000,0.298169,0.085617,0.000000
0.040000,-2.725280,-0.178698,-1.472183,0.006854,-0.004442,0.011225,-0.079133,-0.096360,-0.088350,-0.197673,2.125602,0.439569,57.344735,-76.192146,-1.799241,-0.009734,0.007994,0.000000,0.214285,0.020323,-0.000000
0.050000,-2.725216,-0.178747,-1.472075,0.006061,-0.005311,0.010363,-0.078469,-0.078691,-0.084050,0.308692,1.429991,0.419996,44.235986,-63.170091,-2.108857,-0.007953,0.007931,0.000000,0.144177,-0.030860,-0.000000
0.060000,-2.725159,-0.178804,-1.471975,0.005299,-0.006037,0.009543,-0.073366,-0.067350,-0.079960,0.693014,0.857535,0.397520,32.917427,-51.547788,-2.379933,-0.006810,0.007418,0.000000,0.086424,-0.069769,0.000000
0.070000,-2.725109,-0.178868,-1.471884,0.004605,-0.006675,0.008763,-0.064958,-0.061175,-0.076108,0.972626,0.394635,0.372520,23.274740,-41.245425,-2.614080,-0.006188,0.006571,0.000000,0.039679,-0.098129,0.000000
0.080000,-2.725067,-0.178937,-1.471800,0.004008,-0.007274,0.008020,-0.054209,-0.059135,-0.072517,1.163714,0.028493,0.345356,15.193605,-32.183192,-2.812904,-0.005984,0.005485,0.000000,0.002670,-0.117558,-0.000000
0.090000,-2.725029,-0.179013,-1.471723,0.003526,-0.007869,0.007312,-0.041928,-0.060323,-0.069207,1.281323,-0.252896,0.316374,8.559705,-24.281277,-2.978014,-0.006106,0.004244,0.000000,-0.025797,-0.129558,-0.000000
0.100000,-2.724996,-0.179095,-1.471653,0.003172,-0.008488,0.006635,-0.028781,-0.063948,-0.066194,1.339352,-0.460735,0.285903,3.258722,-17.459870,-3.111018,-0.006475,0.002914,0.000000,-0.046839,-0.135526,0.000000
0.110000,-2.724965,-0.179183,-1.471590,0.002951,-0.009154,0.005987,-0.015297,-0.069327,-0.063493,1.350559,-0.605429,0.254256,-0.823662,-11.639158,-3.213525,-0.007021,0.001549,0.000000,-0.061498,-0.136743,0.000000
0.120000,-2.724936,-0.179278,-1.471534,0.002866,-0.009879,0.005364,-0.001887,-0.075878,-0.061112,1.326559,-0.696588,0.221729,-3.801766,-6.739331,-3.287142,-0.007687,0.000191,0.000000,-0.070737,-0.134380,-0.000000
0.130000,-2.724907,-0.179381,-1.471483,0.002912,-0.010673,0.004764,0.011152,-0.083110,-0.059060,1.277824,-0.743019,0.188604,-5.789907,-2.680578,-3.333478,-0.008421,-0.001130,0.000000,-0.075442,-0.129495,0.000000
0.140000,-2.724877,-0.179492,-1.471438,0.003087,-0.011542,0.004182,0.023619,-0.090616,-0.057341,1.213680,-0.752737,0.155145,-6.902404,0.616913,-3.354141,-0.009183,-0.002394,0.000000,-0.076421,-0.123031,0.000000
0.150000,-2.724845,-0.179612,-1.471399,0.003382,-0.012486,0.003616,0.035401,-0.098066,-0.055957,1.142313,-0.732953,0.121601,-7.253574,3.232952,-3.350740,-0.009939,-0.003588,0.000000,-0.074402,-0.115820,-0.000000
0.160000,-2.724809,-0.179742,-1.471366,0.003792,-0.013502,0.003062,0.046464,-0.105198,-0.054909,1.070765,-0.690083,0.088205,-6.957736,5.247350,-3.324882,-0.010663,-0.004710,0.000000,-0.070034,-0.108576,-0.000000
0.170000,-2.724769,-0.179882,-1.471338,0.004309,-0.014588,0.002516,0.056836,-0.111810,-0.054192,1.004934,-0.629745,0.055173,-6.129208,6.739920,-3.278175,-0.011334,-0.005762,0.000000,-0.063889,-0.101899,-0.000000
0.180000,-2.724723,-0.180034,-1.471316,0.004927,-0.015736,0.001977,0.066598,-0.117751,-0.053803,0.949576,-0.556758,0.022706,-4.882308,7.790472,-3.212229,-0.011937,-0.006752,0.000000,-0.056455,-0.096273,0.000000
0.190000,-2.724670,-0.180197,-1.471298,0.005640,-0.016940,0.001439,0.075875,-0.122916,-0.053735,0.908302,-0.475143,-0.009013,-3.331354,8.478816,-3.128651,-0.012460,-0.007692,0.000000,-0.048142,-0.092065,0.000000
0.200000,-2.724610,-0.180373,-1.471287,0.006443,-0.018192,0.000901,0.084819,-0.127236,-0.053980,0.883581,-0.388123,-0.039814,-1.590664,8.884765,-3.029049,-0.012898,-0.008599,0.000000,-0.039278,-0.089528,-0.000000
0.210000,-2.724541,-0.180561,-1.471280,0.007327,-0.019477,0.000359,0.093932,-0.130873,-0.054527,0.906765,-0.316912,-0.069483,-0.532927,9.562693,-2.916630,-0.013266,-0.009522,0.000000,-0.032014,-0.091838,0.000000
0.220000,-2.724463,-0.180762,-1.471280,0.008312,-0.020800,-0.000191,0.102991,-0.133555,-0.055366,0.906958,-0.218658,-0.098032,0.578771,10.059737,-2.791208,-0.013536,-0.010439,0.000000,-0.022011,-0.091811,-0.000000
0.230000,-2.724375,-0.180977,-1.471284,0.009387,-0.022144,-0.000750,0.112108,-0.135232,-0.056484,0.918449,-0.116248,-0.125268,1.722974,10.397600,-2.654196,-0.013704,-0.011362,0.000000,-0.011591,-0.092923,-0.000000
0.240000,-2.724275,-0.181205,-1.471295,0.010554,-0.023501,-0.001321,0.121398,-0.135871,-0.057867,0.941454,-0.011164,-0.151082,2.878225,10.597981,-2.507007,-0.013767,-0.012302,0.000000,-0.000904,-0.095194,-0.000000
0.250000,-2.724163,-0.181447,-1.471311,0.011816,-0.024858,-0.001908,0.130976,-0.135451,-0.059500,0.975978,0.095326,-0.175379,4.023069,10.682584,-2.351052,-0.013722,-0.013270,0.000000,0.009918,-0.098626,-0.000000
0.260000,-2.724038,-0.181702,-1.471333,0.013173,-0.026205,-0.002512,0.141020,-0.134016,-0.061368,1.027698,0.197337,-0.197973,4.987309,10.795289,-2.190420,-0.013574,-0.014285,0.000000,0.020277,-0.103792,-0.000000
0.270000,-2.723899,-0.181971,-1.471361,0.014636,-0.027533,-0.003136,0.151561,-0.131502,-0.063454,1.082248,0.305486,-0.219047,5.916442,10.820656,-2.023521,-0.013316,-0.015349,0.000000,0.031249,-0.109236,0.000000
0.280000,-2.723745,-0.182253,-1.471396,0.016207,-0.028831,-0.003782,0.162695,-0.127906,-0.065743,1.145899,0.413481,-0.238426,6.807224,10.765426,-1.851439,-0.012949,-0.016473,0.000000,0.042193,-0.115593,0.000000
0.290000,-2.723575,-0.182547,-1.471437,0.017892,-0.030088,-0.004451,0.174508,-0.123235,-0.068217,1.218254,0.520549,-0.256062,7.656410,10.636340,-1.675258,-0.012473,-0.017664,0.000000,0.053031,-0.122821,0.000000
0.300000,-2.723387,-0.182854,-1.471485,0.019699,-0.031292,-0.005147,0.187087,-0.117501,-0.070858,1.298878,0.625984,-0.271921,8.460757,10.440138,-1.496064,-0.011889,-0.018932,0.000000,0.063690,-0.130877,-0.000000
0.310000,-2.723180,-0.183173,-1.471540,0.021636,-0.032434,-0.005869,0.200518,-0.110735,-0.073648,1.387886,0.728043,-0.285854,9.202437,10.211517,-1.318045,-0.011201,-0.020285,0.000000,0.073993,-0.139769,0.000000
0.320000,-2.722954,-0.183503,-1.471602,0.023713,-0.033503,-0.006620,0.214869,-0.102949,-0.076569,1.483413,0.828776,-0.298139,9.894577,9.925838,-1.138802,-0.010410,-0.021730,0.000000,0.084147,-0.149309,0.000000
0.330000,-2.722706,-0.183843,-1.471672,0.025937,-0.034490,-0.007401,0.230209,-0.094170,-0.079605,1.585607,0.926381,-0.308628,10.535719,9.586418,-0.959039,-0.009519,-0.023274,0.000000,0.093971,-0.159511,-0.000000
0.340000,-2.722434,-0.184192,-1.471750,0.028320,-0.035383,-0.008212,0.246602,-0.084433,-0.082736,1.693952,1.020336,-0.317320,11.124406,9.196576,-0.779462,-0.008532,-0.024922,0.000000,0.103410,-0.170320,0.000000
0.350000,-2.722139,-0.184550,-1.471837,0.030873,-0.036175,-0.009056,0.264107,-0.073777,-0.085945,1.807916,1.110155,-0.324221,11.659179,8.759628,-0.600776,-0.007452,-0.026682,0.000000,0.112417,-0.181684,0.000000
0.360000,-2.721816,-0.184915,-1.471932,0.033606,-0.036856,-0.009932,0.282777,-0.062249,-0.089213,1.926936,1.195010,-0.329196,12.138975,8.288313,-0.427359,-0.006286,-0.028558,0.000000,0.120907,-0.193544,-0.000000
0.370000,-2.721466,-0.185287,-1.472035,0.036532,-0.037417,-0.010840,0.302660,-0.049893,-0.092523,2.050488,1.275362,-0.332610,12.561895,7.775374,-0.255793,-0.005036,-0.030554,0.000000,0.128929,-0.205846,0.000000
0.380000,-2.721085,-0.185663,-1.472148,0.039664,-0.037851,-0.011782,0.323800,-0.036760,-0.095859,2.177979,1.350386,-0.334319,12.926431,7.222974,-0.086332,-0.003709,-0.032676,0.000000,0.136399,-0.218530,0.000000
0.390000,-2.720672,-0.186044,-1.472271,0.043013,-0.038150,-0.012757,0.346231,-0.022905,-0.099204,2.308817,1.419697,-0.334344,13.231079,6.633277,0.080770,-0.002310,-0.034926,0.000000,0.143279,-0.231535,0.000000
0.400000,-2.720224,-0.186426,-1.472404,0.046593,-0.038307,-0.013766,0.369985,-0.008386,-0.102541,2.442396,1.482934,-0.332712,13.474333,6.008447,0.245258,-0.000845,-0.037308,0.000000,0.149534,-0.244801,0.000000
0.410000,-2.719739,-0.186809,-1.472547,0.050417,-0.038316,-0.014808,0.395087,0.006733,-0.105852,2.578182,1.539765,-0.329350,13.652467,5.350440,0.404382,0.000678,-0.039823,0.000000,0.155130,-0.258273,-0.000000
0.420000,-2.719215,-0.187192,-1.472700,0.054499,-0.038171,-0.015883,0.421554,0.022387,-0.109123,2.715331,1.589850,-0.324522,13.766466,4.661653,0.560687,0.002255,-0.042474,0.000000,0.160036,-0.271865,0.000000
0.430000,-2.718648,-0.187572,-1.472864,0.058853,-0.037867,-0.016990,0.449396,0.038506,-0.112337,2.853293,1.632902,-0.318146,13.815097,3.944273,0.714225,0.003877,-0.045260,0.000000,0.164223,-0.285523,0.000000
0.440000,-2.718037,-0.187949,-1.473040,0.063492,-0.037399,-0.018130,0.478620,0.055020,-0.115480,2.991411,1.668647,-0.310247,13.797125,3.200490,0.865045,0.005537,-0.048184,0.000000,0.167664,-0.299179,-0.000000
0.450000,-2.717378,-0.188319,-1.473227,0.068430,-0.036765,-0.019300,0.509223,0.071854,-0.118537,3.129010,1.696831,-0.300854,13.711317,2.432492,1.013198,0.007228,-0.051244,0.000000,0.170336,-0.312768,-0.000000
0.460000,-2.716667,-0.188683,-1.473426,0.073680,-0.035961,-0.020500,0.541200,0.088932,-0.121492,3.265748,1.717287,-0.289961,13.547807,1.640865,1.157962,0.008941,-0.054439,0.000000,0.172223,-0.326255,0.000000
0.470000,-2.715903,-0.189038,-1.473637,0.079258,-0.034986,-0.021729,0.574531,0.106173,-0.124332,3.400120,1.729655,-0.277668,13.315050,0.829597,1.300255,0.010669,-0.057769,0.000000,0.173291,-0.339488,0.000000
0.480000,-2.715081,-0.189382,-1.473861,0.085176,-0.033838,-0.022986,0.609193,0.123497,-0.127041,3.531818,1.733822,-0.263964,13.012866,0.001074,1.440223,0.012404,-0.061229,0.000000,0.173529,-0.352439,0.000000
0.490000,-2.714198,-0.189714,-1.474097,0.091446,-0.032516,-0.024270,0.645156,0.140822,-0.129606,3.660146,1.729627,-0.248871,12.641080,-0.842319,1.578010,0.014137,-0.064817,0.000000,0.172925,-0.365039,0.000000
0.500000,-2.713251,-0.190032,-1.474346,0.098083,-0.031021,-0.025578,0.682383,0.158062,-0.132014,3.784407,1.716934,-0.232410,12.199513,-1.698197,1.713763,0.015860,-0.068529,0.000000,0.171465,-0.377219,-0.000000
0.510000,-2.712235,-0.190334,-1.474609,0.105098,-0.029355,-0.026909,0.720835,0.175131,-0.134250,3.904525,1.695554,-0.214649,11.672281,-2.562286,1.848816,0.017563,-0.072361,0.000000,0.169133,-0.388973,-0.000000
0.520000,-2.711148,-0.190619,-1.474884,0.112503,-0.027520,-0.028262,0.760455,0.191944,-0.136302,4.018326,1.665577,-0.195493,11.076837,-3.434320,1.981980,0.019239,-0.076308,0.000000,0.165941,-0.400086,0.000000
0.530000,-2.709984,-0.190884,-1.475174,0.120311,-0.025518,-0.029635,0.801181,0.208413,-0.138156,4.125840,1.626849,-0.175016,10.414927,-4.312145,2.113253,0.020879,-0.080362,0.000000,0.161876,-0.410564,0.000000
0.540000,-2.708740,-0.191129,-1.475477,0.128530,-0.023353,-0.031025,0.842948,0.224451,-0.139798,4.226409,1.579322,-0.153235,9.688297,-5.193608,2.242634,0.022474,-0.084518,0.000000,0.156936,-0.420345,-0.000000
0.550000,-2.707412,-0.191351,-1.475794,0.137173,-0.021030,-0.032430,0.885684,0.239970,-0.141216,4.319396,1.522972,-0.130169,8.898693,-6.076554,2.370123,0.024015,-0.088769,0.000000,0.151122,-0.429367,-0.000000
0.560000,-2.705995,-0.191549,-1.476126,0.146247,-0.018556,-0.033848,0.929316,0.254883,-0.142399,4.404857,1.457919,-0.105987,8.030723,-6.961994,2.499460,0.025494,-0.093106,0.000000,0.144447,-0.437639,-0.000000
0.570000,-2.704485,-0.191721,-1.476471,0.155761,-0.015935,-0.035277,0.973751,0.269099,-0.143332,4.480584,1.383884,-0.080355,7.105369,-7.844222,2.626445,0.026901,-0.097521,0.000000,0.136889,-0.444948,-0.000000
0.580000,-2.702878,-0.191867,-1.476831,0.165724,-0.013176,-0.036714,1.018896,0.282531,-0.144002,4.546786,1.301053,-0.053467,6.126475,-8.720695,2.750621,0.028229,-0.102005,0.000000,0.128468,-0.451319,-0.000000
0.590000,-2.701169,-0.191984,-1.477206,0.176141,-0.010287,-0.038156,1.064653,0.295091,-0.144397,4.602948,1.209498,-0.025353,5.097886,-9.588872,2.871529,0.029468,-0.106548,0.000000,0.119196,-0.456706,-0.000000
0.600000,-2.699354,-0.192072,-1.477595,0.187019,-0.007278,-0.039601,1.110920,0.306692,-0.144505,4.648591,1.109312,0.003951,4.023447,-10.446210,2.988711,0.030610,-0.111140,0.000000,0.109084,-0.461067,0.000000
0.610000,-2.697427,-0.192129,-1.477998,0.198361,-0.004157,-0.041045,1.157598,0.317250,-0.144316,4.684099,1.000692,0.034267,2.886246,-11.292041,3.105234,0.031647,-0.115771,0.000000,0.098155,-0.464443,-0.000000
0.620000,-2.695385,-0.192155,-1.478415,0.210172,-0.000936,-0.042486,1.204563,0.326678,-0.143816,4.707124,0.883609,0.065881,1.713425,-12.121721,3.216682,0.032570,-0.120430,0.000000,0.086411,-0.466613,0.000000
0.630000,-2.693222,-0.192148,-1.478847,0.222453,0.002373,-0.043920,1.251700,0.334895,-0.142994,4.718270,0.758321,0.098581,0.511370,-12.932479,3.322165,0.033372,-0.125104,0.000000,0.073879,-0.467640,0.000000
0.640000,-2.690935,-0.192107,-1.479294,0.235206,0.005757,-0.045345,1.298888,0.341818,-0.141841,4.717275,0.625031,0.132302,-0.713533,-13.721544,3.420792,0.034045,-0.129784,0.000000,0.060581,-0.467506,0.000000
0.650000,-2.688517,-0.192033,-1.479754,0.248430,0.009204,-0.046756,1.346005,0.347369,-0.140345,4.703944,0.483971,0.166971,-1.954897,-14.486145,3.511674,0.034581,-0.134456,0.000000,0.046541,-0.466197,-0.000000
0.660000,-2.685964,-0.191923,-1.480229,0.262125,0.012700,-0.048151,1.392936,0.351473,-0.138499,4.679090,0.335499,0.202505,-3.230241,-15.226038,3.593951,0.034974,-0.139110,0.000000,0.031798,-0.463800,0.000000
0.670000,-2.683273,-0.191778,-1.480717,0.276288,0.016229,-0.049525,1.439544,0.354055,-0.136293,4.640404,0.179665,0.238817,-4.506348,-15.935616,3.666699,0.035215,-0.143734,0.000000,0.016355,-0.460092,-0.000000
0.680000,-2.680437,-0.191598,-1.481219,0.290914,0.019776,-0.050875,1.485702,0.355044,-0.133720,4.588992,0.016898,0.275805,-5.773905,-16.611797,3.729022,0.035299,-0.148314,0.000000,0.000257,-0.455189,0.000000
0.690000,-2.677453,-0.191383,-1.481735,0.306000,0.023324,-0.052198,1.531282,0.354371,-0.130775,4.524985,-0.152450,0.313360,-7.023599,-17.251501,3.780027,0.035218,-0.152839,0.000000,-0.016465,-0.449108,-0.000000
0.700000,-2.674316,-0.191132,-1.482263,0.321538,0.026857,-0.053490,1.576160,0.351974,-0.127451,4.448610,-0.328000,0.351364,-8.246117,-17.851648,3.818821,0.034967,-0.157298,0.000000,-0.033774,-0.441876,0.000000
0.710000,-2.671021,-0.190846,-1.482804,0.337520,0.030358,-0.054746,1.620214,0.347791,-0.123744,4.360159,-0.509420,0.389921,-9.431502,-18.407153,3.838728,0.034541,-0.161678,0.000000,-0.051640,-0.433528,-0.000000
0.720000,-2.667564,-0.190525,-1.483358,0.353939,0.033807,-0.055963,1.663324,0.341768,-0.119652,4.260104,-0.696081,0.428353,-10.571165,-18.917184,3.845343,0.033933,-0.165970,0.000000,-0.070006,-0.424103,0.000000
0.730000,-2.663940,-0.190170,-1.483923,0.370783,0.037187,-0.057138,1.705379,0.333853,-0.115177,4.148919,-0.887603,0.466783,-11.655870,-19.378906,3.838479,0.033139,-0.170162,0.000000,-0.088839,-0.413654,0.000000
0.740000,-2.660147,-0.189782,-1.484501,0.388042,0.040478,-0.058265,1.746268,0.324001,-0.110317,4.027201,-1.083488,0.505077,-12.676385,-19.789486,3.817951,0.032155,-0.174244,0.000000,-0.108095,-0.402239,0.000000
0.750000,-2.656178,-0.189361,-1.485089,0.405704,0.043660,-0.059343,1.785890,0.312171,-0.105076,3.895636,-1.283212,0.543096,-13.623474,-20.146086,3.783572,0.030976,-0.178208,0.000000,-0.127728,-0.389923,-0.000000
0.760000,-2.652031,-0.188909,-1.485687,0.423756,0.046714,-0.060366,1.824138,0.298323,-0.099452,3.753914,-1.486452,0.581132,-14.460315,-20.440031,3.724292,0.029599,-0.182043,0.000000,-0.147713,-0.376682,0.000000
0.770000,-2.647702,-0.188427,-1.486296,0.442183,0.049620,-0.061331,1.860942,0.282433,-0.093456,3.605493,-1.692077,0.618024,-15.208641,-20.675043,3.652119,0.028021,-0.185742,0.000000,-0.167949,-0.362832,-0.000000
0.780000,-2.643186,-0.187917,-1.486914,0.460970,0.052356,-0.062234,1.896225,0.264475,-0.087094,3.450056,-1.899749,0.654135,-15.862596,-20.849001,3.568197,0.026239,-0.189300,0.000000,-0.188409,-0.348344,0.000000
0.790000,-2.638481,-0.187380,-1.487540,0.480102,0.054902,-0.063071,1.929923,0.244433,-0.080376,3.288575,-2.108847,0.689352,-16.416324,-20.959786,3.473669,0.024252,-0.192710,0.000000,-0.209040,-0.333310,-0.000000
0.800000,-2.633583,-0.186820,-1.488175,0.499563,0.057238,-0.063840,1.961980,0.222296,-0.073310,3.122083,-2.318728,0.723577,-16.863970,-21.005278,3.369681,0.022058,-0.195967,0.000000,-0.229785,-0.317823,0.000000
0.810000,-2.628489,-0.186237,-1.488817,0.519336,0.059341,-0.064537,1.992331,0.198053,-0.065903,2.949778,-2.529210,0.757207,-17.151905,-20.971178,3.245040,0.019656,-0.199065,0.000000,-0.250635,-0.301808,-0.000000
0.820000,-2.623196,-0.185634,-1.489465,0.539404,0.061192,-0.065157,2.020967,0.171714,-0.058171,2.777286,-2.738468,0.789009,-17.327896,-20.869037,3.114736,0.017045,-0.202003,0.000000,-0.271419,-0.285784,0.000000
0.830000,-2.617700,-0.185014,-1.490120,0.559750,0.062769,-0.065699,2.047872,0.143288,-0.050127,2.603593,-2.946362,0.819491,-17.391936,-20.698226,2.981424,0.014227,-0.204781,0.000000,-0.292127,-0.269654,0.000000
0.840000,-2.612000,-0.184379,-1.490779,0.580356,0.064051,-0.066159,2.073039,0.112793,-0.041785,2.429820,-3.152202,0.848637,-17.344018,-20.458117,2.847759,0.011203,-0.207397,0.000000,-0.312699,-0.253521,0.000000
0.850000,-2.606092,-0.183734,-1.491443,0.601205,0.065018,-0.066534,2.096472,0.080253,-0.033159,2.257086,-3.355291,0.876454,-17.184136,-20.148081,2.716396,0.007974,-0.209852,0.000000,-0.333069,-0.237489,-0.000000
0.860000,-2.599975,-0.183080,-1.492109,0.622280,0.065649,-0.066821,2.118163,0.045693,-0.024257,2.084193,-3.555467,0.903253,-16.853745,-19.753881,2.583122,0.004542,-0.212145,0.000000,-0.353226,-0.221439,-0.000000
0.870000,-2.593646,-0.182422,-1.492779,0.643563,0.065925,-0.067018,2.138169,0.009158,-0.015098,1.917747,-3.750745,0.928451,-16.418544,-19.290164,2.458299,0.000911,-0.214282,0.000000,-0.372975,-0.205997,0.000000
0.880000,-2.587103,-0.181763,-1.493449,0.665038,0.065826,-0.067122,2.156534,-0.029305,-0.005692,1.756147,-3.941042,0.952459,-15.885698,-18.757968,2.345423,-0.002916,-0.216267,0.000000,-0.392309,-0.191010,-0.000000
0.890000,-2.580344,-0.181107,-1.494121,0.686689,0.065333,-0.067131,2.173311,-0.069644,0.003948,1.600335,-4.125679,0.975411,-15.262366,-18.158332,2.247990,-0.006934,-0.218104,0.000000,-0.411159,-0.176567,0.000000
0.900000,-2.573369,-0.180457,-1.494792,0.708499,0.064427,-0.067043,2.188563,-0.111798,0.013813,1.451178,-4.303987,0.997482,-14.555712,-17.492293,2.169493,-0.011137,-0.219800,0.000000,-0.429459,-0.162752,0.000000
0.910000,-2.566174,-0.179819,-1.495461,0.730455,0.063091,-0.066854,2.202348,-0.155703,0.023893,1.308451,-4.475535,1.018696,-13.747052,-16.755125,2.117975,-0.015521,-0.221361,0.000000,-0.447162,-0.149539,0.000000
0.920000,-2.558759,-0.179197,-1.496128,0.752542,0.061308,-0.066564,2.214760,-0.201283,0.034186,1.175302,-4.639135,1.039723,-12.872558,-15.954338,2.091829,-0.020078,-0.222794,0.000000,-0.464147,-0.137248,-0.000000
0.930000,-2.551123,-0.178595,-1.496792,0.774746,0.059060,-0.066170,2.225885,-0.248458,0.044687,1.051185,-4.794416,1.060627,-11.942556,-15.091674,2.093993,-0.024802,-0.224109,0.000000,-0.480373,-0.125824,-0.000000
0.940000,-2.543264,-0.178018,-1.497451,0.797056,0.056333,-0.065669,2.235815,-0.297141,0.055399,0.936602,-4.940768,1.081707,-10.967372,-14.168879,2.127405,-0.029683,-0.225314,0.000000,-0.495774,-0.115322,-0.000000
0.950000,-2.535181,-0.177470,-1.498105,0.819459,0.053113,-0.065061,2.244650,-0.347241,0.066323,0.831954,-5.077599,1.103289,-9.957334,-13.187695,2.195005,-0.034714,-0.226420,0.000000,-0.510287,-0.105788,0.000000
0.960000,-2.526874,-0.176957,-1.498752,0.841946,0.049384,-0.064342,2.252486,-0.398665,0.077461,0.737302,-5.204788,1.125157,-8.916828,-12.138380,2.314212,-0.039886,-0.227434,0.000000,-0.523891,-0.097223,0.000000
0.970000,-2.518342,-0.176484,-1.499392,0.864506,0.045135,-0.063511,2.259431,-0.451301,0.088831,0.653397,-5.320701,1.149054,-7.862849,-11.035572,2.471710,-0.045188,-0.228369,0.000000,-0.536425,-0.089742,0.000000
0.980000,-2.509584,-0.176056,-1.500022,0.887132,0.040355,-0.062565,2.265589,-0.505041,0.100448,0.580053,-5.425332,1.174723,-6.806448,-9.882422,2.668666,-0.050611,-0.229235,0.000000,-0.547882,-0.083322,-0.000000
0.990000,-2.500599,-0.175679,-1.500643,0.909815,0.035031,-0.061501,2.271067,-0.559769,0.112332,0.517239,-5.518192,1.202563,-5.758680,-8.682081,2.906245,-0.056142,-0.230041,0.000000,-0.558211,-0.077971,-0.000000
1.000000,-2.491388,-0.175357,-1.501252,0.932551,0.029156,-0.060317,2.275969,-0.615364,0.124508,0.464814,-5.598826,1.232987,-4.730598,-7.437698,3.185613,-0.061771,-0.230800,0.000000,-0.567365,-0.073688,-0.000000
1.010000,-2.481948,-0.175097,-1.501849,0.955333,0.022722,-0.059010,2.280410,-0.671702,0.136993,0.423713,-5.666702,1.265535,-3.763271,-6.155158,3.530250,-0.067485,-0.231522,0.000000,-0.575283,-0.070556,-0.000000
1.020000,-2.472281,-0.174905,-1.502432,0.978158,0.015720,-0.057576,2.284475,-0.728655,0.149831,0.390761,-5.721681,1.302734,-2.834062,-4.834545,3.916274,-0.073273,-0.232218,0.000000,-0.581972,-0.068327,-0.000000
1.030000,-2.462385,-0.174785,-1.503000,1.001021,0.008147,-0.056012,2.288255,-0.786091,0.163061,0.366880,-5.763275,1.343993,-1.950351,-3.478674,4.342120,-0.079121,-0.232896,0.000000,-0.587379,-0.067080,0.000000
1.040000,-2.452260,-0.174744,-1.503551,1.023922,-0.000003,-0.054313,2.291841,-0.843874,0.176726,0.351578,-5.791146,1.389704,-1.119515,-2.090363,4.806221,-0.085016,-0.233567,0.000000,-0.591477,-0.066781,0.000000
1.050000,-2.441906,-0.174787,-1.504085,1.046858,-0.008731,-0.052475,2.295314,-0.901867,0.190871,0.344289,-5.804983,1.440240,-0.348933,-0.672426,5.307010,-0.090946,-0.234239,0.000000,-0.594243,-0.067387,0.000000
1.060000,-2.431323,-0.174920,-1.504600,1.069828,-0.018040,-0.050494,2.298762,-0.959924,0.205537,0.345378,-5.804309,1.494972,0.328659,0.767360,5.867910,-0.096896,-0.234924,0.000000,-0.595626,-0.068923,0.000000
1.070000,-2.420510,-0.175150,-1.505095,1.092833,-0.027930,-0.048362,2.302243,-1.017905,0.220790,0.351754,-5.789333,1.556584,0.934345,2.231746,6.459305,-0.102854,-0.235627,0.000000,-0.595688,-0.071154,0.000000
1.080000,-2.409466,-0.175481,-1.505567,1.115873,-0.038398,-0.046076,2.305816,-1.075662,0.236689,0.363811,-5.759599,1.624244,1.463851,3.718522,7.076569,-0.108805,-0.236357,0.000000,-0.594384,-0.074102,-0.000000
1.090000,-2.398192,-0.175919,-1.506016,1.138950,-0.049442,-0.043626,2.309535,-1.133047,0.253296,0.380763,-5.714895,1.698187,1.912902,5.225479,7.715076,-0.114737,-0.237120,0.000000,-0.591707,-0.077703,-0.000000
1.100000,-2.386687,-0.176471,-1.506439,1.162064,-0.061057,-0.041007,2.313445,-1.189909,0.270674,0.401786,-5.655030,1.778601,2.277226,6.750408,8.370200,-0.120635,-0.237923,0.000000,-0.587654,-0.081885,-0.000000
1.110000,-2.374951,-0.177142,-1.506835,1.185219,-0.073237,-0.038210,2.317591,-1.246100,0.288881,0.426880,-5.580179,1.864794,2.530610,8.299797,9.058444,-0.126485,-0.238772,0.000000,-0.582244,-0.086638,-0.000000
1.120000,-2.362983,-0.177938,-1.507203,1.208417,-0.085976,-0.035226,2.321989,-1.301461,0.307993,0.453076,-5.489380,1.958843,2.693404,9.861674,9.751465,-0.132275,-0.239671,0.000000,-0.575428,-0.091725,-0.000000
1.130000,-2.350782,-0.178864,-1.507539,1.231660,-0.099263,-0.032047,2.326656,-1.355835,0.328080,0.480441,-5.382915,2.059815,2.764023,11.432768,10.442049,-0.137989,-0.240624,0.000000,-0.567234,-0.097137,-0.000000
1.140000,-2.338349,-0.179925,-1.507843,1.254951,-0.113089,-0.028661,2.331599,-1.409067,0.349212,0.508044,-5.260705,2.167651,2.740879,13.009802,11.122982,-0.143615,-0.241633,0.000000,-0.557669,-0.102789,0.000000
1.150000,-2.325683,-0.181127,-1.508112,1.278293,-0.127440,-0.025059,2.336815,-1.460997,0.371456,0.534940,-5.122710,2.282219,2.622384,14.589505,11.787052,-0.149138,-0.242702,0.000000,-0.546740,-0.108591,-0.000000
1.160000,-2.312783,-0.182476,-1.508343,1.301688,-0.142304,-0.021228,2.342306,-1.511469,0.394873,0.561448,-4.968962,2.402809,2.374627,16.169730,12.439761,-0.154545,-0.243831,0.000000,-0.534446,-0.114565,0.000000
1.170000,-2.299649,-0.183975,-1.508535,1.325139,-0.157664,-0.017157,2.348034,-1.560324,0.419533,0.583561,-4.799379,2.530337,2.032304,17.745937,13.059621,-0.159823,-0.245020,0.000000,-0.520815,-0.120345,-0.000000
1.180000,-2.286280,-0.185631,-1.508686,1.348649,-0.173505,-0.012833,2.353964,-1.607404,0.445500,0.601787,-4.614068,2.663862,1.597784,19.314714,13.637863,-0.164957,-0.246269,0.000000,-0.505846,-0.125966,-0.000000
1.190000,-2.272676,-0.187447,-1.508791,1.372219,-0.189806,-0.008242,2.360054,-1.652553,0.472829,0.615217,-4.413121,2.802926,1.073439,20.872649,14.165716,-0.169935,-0.247574,0.000000,-0.489546,-0.131332,-0.000000
1.200000,-2.258836,-0.189428,-1.508850,1.395850,-0.206549,-0.003372,2.366250,-1.695615,0.501575,0.622964,-4.196662,2.946980,0.461639,22.416330,14.634408,-0.174744,-0.248933,0.000000,-0.471919,-0.136349,-0.000000
1.210000,-2.244759,-0.191579,-1.508858,1.419544,-0.223711,0.001794,2.372499,-1.736438,0.531784,0.624837,-3.965122,3.095426,-0.252200,23.949149,15.034195,-0.179369,-0.250342,0.000000,-0.452992,-0.140986,-0.000000
1.220000,-2.230444,-0.193904,-1.508813,1.443300,-0.241269,0.007269,2.378721,-1.774866,0.563495,0.618408,-3.718056,3.247452,-1.046677,25.460056,15.357399,-0.183799,-0.251796,0.000000,-0.432707,-0.144987,-0.000000
1.230000,-2.215892,-0.196406,-1.508711,1.467118,-0.259200,0.013069,2.384839,-1.810749,0.596742,0.603650,-3.456008,3.402290,-1.917343,26.944807,15.595370,-0.188019,-0.253289,0.000000,-0.411088,-0.148330,0.000000
1.240000,-2.201102,-0.199089,-1.508550,1.490996,-0.277475,0.019209,2.390764,-1.843937,0.631548,0.579822,-3.179261,3.559046,-2.859751,28.399158,15.739455,-0.192016,-0.254814,0.000000,-0.388129,-0.150918,0.000000
1.250000,-2.186072,-0.201956,-1.508326,1.514932,-0.296069,0.025705,2.396403,-1.874286,0.667926,0.546231,-2.888141,3.716737,-3.869455,29.818861,15.781003,-0.195777,-0.256361,0.000000,-0.363820,-0.152652,0.000000
1.260000,-2.170803,-0.205011,-1.508035,1.538923,-0.314951,0.032573,2.401665,-1.901659,0.705889,0.503234,-2.583517,3.874991,-4.967526,31.212378,15.693809,-0.199289,-0.257924,0.000000,-0.338210,-0.153555,0.000000
1.270000,-2.155294,-0.208256,-1.507673,1.562964,-0.334091,0.039828,2.406430,-1.925911,0.745421,0.447835,-2.264609,4.031005,-6.120872,32.561203,15.488924,-0.202537,-0.259491,0.000000,-0.311138,-0.153239,0.000000
1.280000,-2.139544,-0.211694,-1.507237,1.587049,-0.353458,0.047486,2.410582,-1.946907,0.786501,0.380658,-1.932461,4.184355,-7.321924,33.859535,15.159847,-0.205507,-0.261049,0.000000,-0.282652,-0.151741,0.000000
1.290000,-2.123553,-0.215326,-1.506722,1.611173,-0.373018,0.055563,2.414002,-1.964518,0.829095,0.301263,-1.587606,4.333766,-8.563109,35.101573,14.700075,-0.208185,-0.262586,0.000000,-0.252730,-0.148964,-0.000000
1.300000,-2.107320,-0.219155,-1.506124,1.635326,-0.392737,0.064073,2.416566,-1.978619,0.873158,0.209287,-1.230637,4.477899,-9.836855,36.281518,14.103107,-0.210557,-0.264089,0.000000,-0.221350,-0.144810,0.000000
1.310000,-2.090846,-0.223181,-1.505439,1.659501,-0.412578,0.073030,2.418153,-1.989097,0.918646,0.105133,-0.862598,4.616778,-11.153033,37.403564,13.326349,-0.212608,-0.265544,0.000000,-0.188552,-0.139292,0.000000
1.320000,-2.074130,-0.227407,-1.504662,1.683685,-0.432506,0.082450,2.418624,-1.995835,0.965466,-0.013046,-0.483261,4.745551,-12.484493,38.450691,12.403810,-0.214323,-0.266934,0.000000,-0.154146,-0.132052,-0.000000
1.330000,-2.057172,-0.231831,-1.503788,1.707869,-0.452482,0.092344,2.417847,-1.998728,1.013524,-0.144575,-0.093857,4.864362,-13.821527,39.415873,11.333408,-0.215685,-0.268241,0.000000,-0.118182,-0.123119,-0.000000
1.340000,-2.039973,-0.236456,-1.502813,1.732038,-0.472468,0.102724,2.415688,-1.997681,1.062715,-0.289463,0.304760,4.971720,-15.154428,40.292087,10.113058,-0.216681,-0.269448,0.000000,-0.080632,-0.112403,-0.000000
1.350000,-2.022532,-0.241281,-1.501732,1.756178,-0.492423,0.113602,2.412014,-1.992605,1.112915,-0.447618,0.711665,5.066116,-16.473489,41.072308,8.740679,-0.217293,-0.270537,0.000000,-0.041473,-0.099817,-0.000000
1.360000,-2.004849,-0.246304,-1.500540,1.780272,-0.512306,0.124985,2.406696,-1.983424,1.164011,-0.618465,1.125789,5.148104,-17.778829,41.751366,7.161529,-0.217505,-0.271487,0.000000,-0.000736,-0.085377,0.000000
1.370000,-1.986926,-0.251526,-1.499231,1.804305,-0.532077,0.136883,2.399601,-1.970069,1.215822,-0.802641,1.546241,5.211198,-19.049709,42.320155,5.432633,-0.217302,-0.272278,0.000000,0.041719,-0.068765,-0.000000
1.380000,-1.968764,-0.256945,-1.497800,1.828258,-0.551693,0.149303,2.390602,-1.952482,1.268175,-0.999308,1.971800,5.256272,-20.275219,42.771422,3.558354,-0.216666,-0.272888,0.000000,0.085842,-0.050021,-0.000000
1.390000,-1.950362,-0.262560,-1.496243,1.852111,-0.571112,0.162248,2.379575,-1.930620,1.320883,-1.207958,2.401254,5.281895,-21.444449,43.097915,1.543058,-0.215580,-0.273295,0.000000,0.131630,-0.029084,-0.000000
1.400000,-1.931722,-0.268367,-1.494554,1.875842,-0.590291,0.175721,2.366405,-1.904448,1.373744,-1.427973,2.833319,5.286678,-22.546487,43.292384,-0.608890,-0.214027,-0.273476,0.000000,0.179069,-0.005902,-0.000000
1.410000,-1.912845,-0.274365,-1.492727,1.899431,-0.609187,0.189722,2.350978,-1.873943,1.426569,-1.658846,3.267229,5.271694,-23.564888,43.332643,-2.954198,-0.211993,-0.273409,0.000000,0.228137,0.019514,0.000000
1.420000,-1.893734,-0.280550,-1.490757,1.922854,-0.627756,0.204251,2.333195,-1.839105,1.479097,-1.899223,3.700156,5.229919,-24.494953,43.228202,-5.419950,-0.209459,-0.273069,0.000000,0.278765,0.047305,-0.000000
1.430000,-1.874389,-0.286918,-1.488640,1.946087,-0.645955,0.219302,2.312964,-1.799946,1.531083,-2.148417,4.131292,5.162933,-25.326449,42.973638,-7.994302,-0.206412,-0.272434,0.000000,0.330890,0.077423,0.000000
1.440000,-1.854813,-0.293467,-1.486370,1.969105,-0.663741,0.234870,2.290201,-1.756490,1.582268,-2.405390,4.559110,5.069711,-26.049142,42.563526,-10.665411,-0.202837,-0.271479,0.000000,0.384415,0.109850,-0.000000
1.450000,-1.835007,-0.300192,-1.483941,1.991882,-0.681070,0.250944,2.264834,-1.708780,1.632387,-2.669003,4.982026,4.949342,-26.652799,41.992443,-13.421434,-0.198720,-0.270183,0.000000,0.439211,0.144546,-0.000000
1.460000,-1.814976,-0.307087,-1.481349,2.014393,-0.697903,0.267512,2.236791,-1.656856,1.681185,-2.939108,5.399866,4.803152,-27.099566,41.218034,-16.303907,-0.194048,-0.268523,0.000000,0.495233,0.181498,0.000000
1.470000,-1.794721,-0.314148,-1.478589,2.036610,-0.714194,0.284562,2.206039,-1.600811,1.728353,-3.211773,5.807478,4.625465,-27.410213,40.276330,-19.241071,-0.188812,-0.266477,0.000000,0.552005,0.220470,0.000000
1.480000,-1.774245,-0.321369,-1.475656,2.058505,-0.729905,0.302073,2.172548,-1.540740,1.773596,-3.486836,6.204832,4.418209,-27.577888,39.166430,-22.214545,-0.183006,-0.264027,0.000000,0.609410,0.261389,0.000000
1.490000,-1.753552,-0.328744,-1.472546,2.080051,-0.744996,0.320026,2.136300,-1.476754,1.816617,-3.762832,6.590243,4.181114,-27.595739,37.887432,-25.205951,-0.176623,-0.261155,0.000000,0.667160,0.304080,-0.000000
1.500000,-1.732645,-0.336267,-1.469254,2.101222,-0.759428,0.338397,2.097293,-1.408981,1.857118,-4.038228,6.962014,3.914092,-27.456916,36.438437,-28.196908,-0.169662,-0.257845,0.000000,0.724917,0.348328,0.000000
1.510000,-1.711529,-0.343930,-1.465777,2.121989,-0.773164,0.357159,2.055520,-1.337541,1.894810,-4.313471,7.320648,3.618178,-27.102894,34.762817,-31.192750,-0.162123,-0.254081,0.000000,0.782532,0.394084,0.000000
1.520000,-1.690207,-0.351728,-1.462110,2.142324,-0.786168,0.376282,2.011038,-1.262626,1.929383,-4.582046,7.659208,3.291429,-26.584822,32.922221,-34.148479,-0.154015,-0.249855,0.000000,0.839003,0.440541,-0.000000
1.530000,-1.668684,-0.359651,-1.458250,2.162201,-0.798406,0.395735,1.963899,-1.184421,1.960541,-4.844619,7.978563,2.935413,-25.902177,30.922571,-37.042814,-0.145348,-0.245163,0.000000,0.894107,0.487584,0.000000
1.540000,-1.646964,-0.367693,-1.454194,2.181593,-0.809846,0.415481,1.914171,-1.103124,1.987996,-5.099540,8.277149,2.550848,-25.054436,28.769789,-39.854471,-0.136139,-0.240000,0.000000,0.947313,0.534821,-0.000000
1.550000,-1.625053,-0.375845,-1.449940,2.200476,-0.820459,0.435482,1.861939,-1.018952,2.011466,-5.345155,8.553468,2.138670,-24.041073,26.469797,-42.562167,-0.126410,-0.234368,0.000000,0.998051,0.581817,-0.000000
1.560000,-1.602956,-0.384099,-1.445484,2.218825,-0.830217,0.455696,1.807277,-0.932110,2.030672,-5.582374,8.808310,1.699193,-22.796730,23.972061,-45.123670,-0.116185,-0.228269,0.000000,1.046004,0.628434,-0.000000
1.570000,-1.580679,-0.392447,-1.440825,2.236615,-0.839094,0.476080,1.750336,-0.842871,2.045367,-5.803455,9.035001,1.235741,-21.393657,21.345873,-47.541210,-0.105502,-0.221718,0.000000,1.089886,0.673371,0.000000
1.580000,-1.558226,-0.400878,-1.435962,2.253824,-0.847067,0.496588,1.691257,-0.751499,2.055309,-6.009743,9.234842,0.748911,-19.839271,18.604070,-49.796069,-0.094402,-0.214732,0.000000,1.129391,0.716482,0.000000
1.590000,-1.535604,-0.409385,-1.430893,2.270433,-0.854117,0.517170,1.630196,-0.658268,2.060273,-6.199761,9.406740,0.240424,-18.140986,15.759486,-51.869528,-0.082931,-0.207332,0.000000,1.163913,0.757237,0.000000
1.600000,-1.512820,-0.417957,-1.425619,2.286422,-0.860227,0.537776,1.567321,-0.563461,2.060051,-6.372108,9.549732,-0.287812,-16.306219,12.824957,-53.742871,-0.071142,-0.199545,0.000000,1.192881,0.795105,-0.000000
1.610000,-1.489878,-0.426586,-1.420138,2.301775,-0.865383,0.558354,1.502792,-0.467358,2.054430,-6.527738,9.664342,-0.836213,-14.284725,9.778979,-55.334001,-0.059092,-0.191397,0.000000,1.215954,0.829910,-0.000000
1.620000,-1.466786,-0.435262,-1.414452,2.316474,-0.869572,0.578847,1.436835,-0.370277,2.043278,-6.659994,9.746644,-1.396556,-12.148639,6.672931,-56.695337,-0.046845,-0.182931,0.000000,1.232237,0.860347,-0.000000
1.630000,-1.443551,-0.443974,-1.408561,2.330507,-0.872786,0.599200,1.369665,-0.272529,2.026458,-6.770377,9.797657,-1.969317,-9.912438,3.523856,-57.815923,-0.034470,-0.174186,0.000000,1.241585,0.886365,-0.000000
1.640000,-1.420178,-0.452714,-1.402468,2.343864,-0.875021,0.619357,1.301504,-0.174429,2.003858,-6.857958,9.817035,-2.552035,-7.590598,0.348794,-58.684800,-0.022037,-0.165209,0.000000,1.243746,0.907586,-0.000000
1.650000,-1.396676,-0.461472,-1.396175,2.356535,-0.876275,0.639258,1.232584,-0.076294,1.975392,-6.921952,9.804603,-3.142138,-5.197595,-2.835215,-59.291011,-0.009619,-0.156047,0.000000,1.238588,0.923700,-0.000000
1.660000,-1.373050,-0.470237,-1.389684,2.368514,-0.876548,0.658846,1.163132,0.021558,1.940961,-6.963008,9.760451,-3.740552,-2.715397,-6.013490,-59.532457,0.002710,-0.146749,0.000000,1.226107,0.934698,-0.000000
1.670000,-1.349308,-0.478999,-1.382999,2.379797,-0.875845,0.678059,1.093408,0.118809,1.900578,-6.977584,9.684523,-4.335944,-0.194969,-9.166341,-59.500482,0.014879,-0.137371,0.000000,1.206403,0.939902,0.000000
1.680000,-1.325456,-0.487750,-1.376125,2.390382,-0.874175,0.696838,1.023664,0.215144,1.854247,-6.966841,9.577266,-4.929651,2.345235,-12.276439,-59.195287,0.026815,-0.127967,0.000000,1.179749,0.939528,-0.000000
1.690000,-1.301502,-0.496480,-1.369064,2.400271,-0.871547,0.715124,0.954156,0.310252,1.802000,-6.930675,9.439195,-5.518940,4.886755,-15.326454,-58.617077,0.038452,-0.118591,0.000000,1.146514,0.933630,-0.000000
1.700000,-1.277453,-0.505178,-1.361824,2.409467,-0.867975,0.732858,0.885135,0.403827,1.743892,-6.869163,9.270995,-6.101083,7.411138,-18.299056,-57.766052,0.049725,-0.109298,0.000000,1.107177,0.922348,-0.000000
1.710000,-1.253315,-0.513836,-1.354409,2.417976,-0.863476,0.749984,0.816859,0.495562,1.679971,-6.782285,9.072406,-6.677022,9.892709,-21.148554,-56.549722,0.060575,-0.100138,0.000000,1.062137,0.905917,0.000000
1.720000,-1.229096,-0.522444,-1.346826,2.425808,-0.858070,0.766440,0.749572,0.585182,1.610397,-6.671164,8.847120,-7.235345,12.321112,-23.889454,-55.072333,0.070952,-0.091162,0.000000,1.012424,0.884619,0.000000
1.730000,-1.204801,-0.530994,-1.339083,2.432972,-0.851780,0.782173,0.683516,0.672415,1.535318,-6.536098,8.595025,-7.777637,14.678774,-26.507899,-53.345438,0.080810,-0.082416,0.000000,0.958544,0.858841,-0.000000
1.740000,-1.180439,-0.539477,-1.331186,2.439483,-0.844631,0.797129,0.618927,0.756998,1.454906,-6.377883,8.317416,-8.301461,16.948124,-28.990032,-51.380591,0.090111,-0.073943,0.000000,0.901209,0.829010,-0.000000
1.750000,-1.156014,-0.547884,-1.323143,2.445356,-0.836650,0.811254,0.556032,0.838683,1.369358,-6.197489,8.015725,-8.804494,19.111586,-31.321998,-49.189345,0.098825,-0.065781,0.000000,0.841136,0.795589,0.000000
1.760000,-1.131534,-0.556208,-1.314963,2.450609,-0.827867,0.824500,0.495068,0.917215,1.278865,-5.994183,7.689520,-9.287088,21.104115,-33.439338,-46.718679,0.106924,-0.057966,0.000000,0.778772,0.758868,-0.000000
1.770000,-1.107004,-0.564439,-1.306656,2.455264,-0.818316,0.836817,0.436213,0.992406,1.183702,-5.773738,7.345252,-9.741099,22.961425,-35.384993,-44.052625,0.114396,-0.050525,0.000000,0.715428,0.719832,-0.000000
1.780000,-1.082430,-0.572571,-1.298230,2.459341,-0.808031,0.848160,0.379652,1.064059,1.084135,-5.535445,6.982418,-10.167554,24.671757,-37.151303,-41.210645,0.121230,-0.043481,0.000000,0.651441,0.678756,0.000000
1.790000,-1.057819,-0.580597,-1.289696,2.462865,-0.797047,0.858486,0.325558,1.131998,0.980448,-5.280832,6.602849,-10.564791,26.223351,-38.730607,-38.212198,0.127424,-0.036855,0.000000,0.587395,0.636132,-0.000000
1.800000,-1.033175,-0.588510,-1.281064,2.465861,-0.785404,0.867756,0.274085,1.196066,0.872941,-5.011546,6.208455,-10.931341,27.604449,-40.115244,-35.076742,0.132980,-0.030659,0.000000,0.523819,0.592433,-0.000000
1.810000,-1.008503,-0.596303,-1.272345,2.468355,-0.773139,0.875933,0.225400,1.256099,0.761919,-4.726620,5.798923,-11.266738,28.734328,-41.239566,-31.803412,0.137901,-0.024906,0.000000,0.460924,0.547815,-0.000000
1.820000,-0.983809,-0.603971,-1.263549,2.470378,-0.760295,0.882984,0.179587,1.312011,0.647717,-4.434399,5.381751,-11.567998,29.678635,-42.161000,-28.434482,0.142203,-0.019598,0.000000,0.399741,0.503403,0.000000
1.830000,-0.959097,-0.611507,-1.254689,2.471957,-0.746912,0.888878,0.136740,1.363707,0.530673,-4.133677,4.956381,-11.835183,30.434056,-42.878988,-24.991903,0.145902,-0.014735,0.000000,0.340310,0.459234,-0.000000
1.840000,-0.934371,-0.618908,-1.245776,2.473123,-0.733035,0.893589,0.096935,1.411118,0.411129,-3.826359,4.524851,-12.067664,30.997275,-43.392969,-21.497622,0.149016,-0.010313,0.000000,0.282916,0.415648,-0.000000
1.850000,-0.909636,-0.626167,-1.236821,2.473906,-0.718705,0.897093,0.060229,1.454190,0.289436,-3.514383,4.089204,-12.265036,31.364977,-43.702383,-17.973589,0.151568,-0.006326,0.000000,0.227786,0.372946,-0.000000
1.860000,-0.884895,-0.633280,-1.227838,2.474337,-0.703965,0.899371,0.026686,1.492873,0.165956,-3.197052,3.649494,-12.426171,31.466418,-43.756335,-14.465472,0.153578,-0.002767,0.000000,0.174917,0.331124,0.000000
1.870000,-0.860150,-0.640245,-1.218838,2.474449,-0.688861,0.900407,-0.003712,1.527182,0.041030,-2.882691,3.212495,-12.553324,31.373969,-43.610765,-10.968595,0.155075,0.000380,0.000000,0.124890,0.291063,0.000000
1.880000,-0.835406,-0.647056,-1.209834,2.474273,-0.673436,0.900188,-0.030975,1.557131,-0.084994,-2.570203,2.777925,-12.645644,31.092571,-43.271274,-7.502005,0.156085,0.003130,0.000000,0.077582,0.252636,-0.000000
1.890000,-0.810666,-0.653713,-1.200838,2.473840,-0.657733,0.898705,-0.055129,1.582755,-0.211768,-2.261453,2.347697,-12.703528,30.627166,-42.743466,-4.084743,0.156636,0.005501,0.000000,0.033052,0.215997,-0.000000
1.900000,-0.785930,-0.660210,-1.191864,2.473181,-0.641795,0.895952,-0.076222,1.604106,-0.338952,-1.958256,1.923665,-12.727566,29.982696,-42.032946,-0.735856,0.156755,0.007510,0.000000,-0.008672,0.181273,0.000000
1.910000,-0.761203,-0.666548,-1.182924,2.472325,-0.625664,0.891925,-0.094298,1.621241,-0.466186,-1.660485,1.506357,-12.716346,29.116252,-41.113198,2.470273,0.156471,0.009176,0.000000,-0.047672,0.148383,-0.000000
1.920000,-0.736484,-0.672723,-1.174030,2.471304,-0.609383,0.886628,-0.109463,1.634266,-0.593173,-1.374340,1.100526,-12.676023,28.086485,-40.025876,5.576715,0.155811,0.010522,0.000000,-0.083752,0.117829,-0.000000
1.930000,-0.711777,-0.678735,-1.165195,2.470145,-0.592992,0.880063,-0.121822,1.643290,-0.719604,-1.099264,0.706366,-12.605185,26.904195,-38.780518,8.571202,0.154805,0.011569,0.000000,-0.117048,0.089453,0.000000
1.940000,-0.687082,-0.684583,-1.156433,2.468876,-0.576531,0.872239,-0.131491,1.648438,-0.845179,-0.836728,0.325411,-12.505013,25.580184,-37.386659,11.441465,0.153479,0.012340,0.000000,-0.147605,0.063282,0.000000
1.950000,-0.662400,-0.690266,-1.147755,2.467524,-0.560036,0.863164,-0.138603,1.649848,-0.969611,-0.588096,-0.040904,-12.376810,24.125251,-35.853837,14.175237,0.151862,0.012857,0.000000,-0.175478,0.039329,0.000000
1.960000,-0.637732,-0.695783,-1.139174,2.466112,-0.543545,0.852850,-0.143292,1.647668,-1.092598,-0.353654,-0.391702,-12.219332,22.525699,-34.179794,16.692773,0.149978,0.013142,0.000000,-0.200739,0.017505,0.000000
1.970000,-0.613078,-0.701137,-1.130702,2.464665,-0.527094,0.841316,-0.145731,1.642071,-1.213916,-0.136843,-0.724631,-12.040452,20.819827,-32.387304,19.057543,0.147855,0.013219,0.000000,-0.223443,-0.002003,-0.000000
1.980000,-0.588438,-0.706326,-1.122351,2.463204,-0.510715,0.828578,-0.146088,1.633237,-1.333331,0.062435,-1.039090,-11.838704,19.021435,-30.487348,21.265542,0.145518,0.013109,0.000000,-0.243668,-0.019321,0.000000
1.990000,-0.563814,-0.711351,-1.114134,2.461750,-0.494439,0.814657,-0.144543,1.621354,-1.450619,0.243323,-1.334057,-11.615677,17.144324,-28.490906,23.312764,0.142990,0.012835,0.000000,-0.261489,-0.034488,0.000000
2.000000,-0.539203,-0.716215,-1.106062,2.460319,-0.478297,0.799574,-0.141285,1.606624,-1.565579,0.405105,-1.608623,-11.372998,15.202293,-26.408958,25.195203,0.140296,0.012419,0.000000,-0.276982,-0.047550,0.000000
2.010000,-0.514607,-0.720918,-1.098146,2.458929,-0.462316,0.783353,-0.136511,1.589256,-1.677993,0.546792,-1.861690,-11.109884,13.219414,-24.259988,26.846927,0.137458,0.011882,0.000000,-0.290172,-0.058523,-0.000000
2.020000,-0.490025,-0.725462,-1.090399,2.457593,-0.446520,0.766022,-0.130416,1.569463,-1.787724,0.668906,-2.093273,-10.833846,11.197960,-22.046555,28.333440,0.134500,0.011244,0.000000,-0.301262,-0.067556,-0.000000
2.030000,-0.465455,-0.729849,-1.082830,2.456325,-0.430934,0.747608,-0.123201,1.547465,-1.894623,0.770664,-2.302440,-10.543754,9.150472,-19.778721,29.658318,0.131440,0.010525,0.000000,-0.310264,-0.074667,-0.000000
2.040000,-0.440898,-0.734081,-1.075450,2.455132,-0.415578,0.728140,-0.115071,1.523490,-1.998558,0.851870,-2.488699,-10.241206,7.089493,-17.466546,30.825139,0.128301,0.009744,0.000000,-0.317249,-0.079921,-0.000000
2.050000,-0.416352,-0.738161,-1.068270,2.454025,-0.400470,0.707647,-0.106232,1.497769,-2.099411,0.912451,-2.651657,-9.927766,5.027567,-15.120093,31.837479,0.125102,0.008920,0.000000,-0.322285,-0.083388,0.000000
2.060000,-0.391817,-0.742091,-1.061300,2.453010,-0.385627,0.686161,-0.096900,1.470542,-2.197063,0.951654,-2.790446,-9.603251,2.997603,-12.763932,32.655766,0.121862,0.008070,0.000000,-0.325379,-0.085071,-0.000000
2.070000,-0.367292,-0.745875,-1.054550,2.452089,-0.371063,0.663716,-0.087267,1.442039,-2.291451,0.971566,-2.906235,-9.273198,0.989283,-10.391839,33.332011,0.118600,0.007211,0.000000,-0.326747,-0.085204,0.000000
2.080000,-0.342775,-0.749514,-1.048029,2.451265,-0.356790,0.640343,-0.077535,1.412497,-2.382507,0.971545,-2.998257,-8.937055,-0.987344,-8.012100,33.875072,0.115333,0.006359,0.000000,-0.326378,-0.083781,0.000000
2.090000,-0.318266,-0.753011,-1.041746,2.450538,-0.342816,0.616077,-0.067901,1.382153,-2.470176,0.951958,-3.066479,-8.596111,-2.922229,-5.633000,34.293811,0.112078,0.005529,0.000000,-0.324332,-0.080877,-0.000000
2.100000,-0.293764,-0.756371,-1.035710,2.449906,-0.329149,0.590951,-0.058559,1.351246,-2.554417,0.913273,-3.110947,-8.251564,-4.805323,-3.262825,34.597088,0.108852,0.004736,0.000000,-0.320665,-0.076566,-0.000000
2.110000,-0.269268,-0.759596,-1.029930,2.449365,-0.315793,0.565000,-0.049710,1.320019,-2.635190,0.854931,-3.131189,-7.903717,-6.598099,-0.925105,34.773383,0.105671,0.003994,0.000000,-0.315379,-0.070834,0.000000
2.120000,-0.244776,-0.762688,-1.024413,2.448910,-0.302749,0.538259,-0.041519,1.288700,-2.712487,0.780268,-3.128847,-7.555504,-8.322473,1.388987,34.854433,0.102549,0.003316,0.000000,-0.308658,-0.063971,-0.000000
2.130000,-0.220289,-0.765652,-1.019167,2.448532,-0.290018,0.510762,-0.034160,1.257519,-2.786299,0.688731,-3.103509,-7.206908,-9.971884,3.673033,34.851593,0.099502,0.002712,0.000000,-0.300490,-0.055950,-0.000000
2.140000,-0.195805,-0.768489,-1.014200,2.448223,-0.277597,0.482545,-0.027798,1.226705,-2.856627,0.581102,-3.055508,-6.858714,-11.539768,5.920615,34.776221,0.096544,0.002195,0.000000,-0.290926,-0.046846,0.000000
2.150000,-0.171324,-0.771204,-1.009519,2.447972,-0.265482,0.453641,-0.022589,1.196483,-2.923477,0.458229,-2.985240,-6.511588,-13.019565,8.125316,34.639671,0.093688,0.001774,0.000000,-0.280012,-0.036731,0.000000
2.160000,-0.146846,-0.773800,-1.005130,2.447768,-0.253665,0.424087,-0.018697,1.167078,-2.986864,0.319597,-2.892715,-6.166124,-14.368600,10.269316,34.454249,0.090949,0.001461,0.000000,-0.267762,-0.025572,-0.000000
2.170000,-0.122369,-0.776279,-1.001039,2.447594,-0.242137,0.393915,-0.016241,1.138699,-3.046806,0.169568,-2.779526,-5.822674,-15.620845,12.358995,34.230246,0.088337,0.001263,0.000000,-0.254306,-0.013707,0.000000
2.180000,-0.097894,-0.778644,-0.997253,2.447437,-0.230887,0.363162,-0.015346,1.111556,-3.103326,0.007509,-2.645733,-5.481610,-16.774161,14.389328,33.978902,0.085867,0.001188,0.000000,-0.239648,-0.001082,-0.000000
2.190000,-0.073420,-0.780897,-0.993778,2.447282,-0.219901,0.331860,-0.016127,1.085851,-3.156447,-0.165579,-2.491954,-5.143149,-17.826407,16.355295,33.711458,0.083548,0.001244,0.000000,-0.223833,0.012234,0.000000
2.200000,-0.048948,-0.783043,-0.990618,2.447109,-0.209165,0.300044,-0.018691,1.061782,-3.206198,-0.348675,-2.318858,-4.807397,-18.775445,18.251871,33.439154,0.081394,0.001436,0.000000,-0.206906,0.026170,0.000000
2.210000,-0.024478,-0.785081,-0.987778,2.446902,-0.198660,0.267748,-0.023140,1.039536,-3.252612,-0.541561,-2.127151,-4.475109,-19.598299,20.073705,33.192527,0.079414,0.001771,0.000000,-0.188915,0.040723,0.000000
2.220000,-0.000010,-0.787016,-0.985264,2.446640,-0.188367,0.235003,-0.029547,1.019298,-3.295708,-0.741221,-1.917634,-4.144357,-20.316216,21.816145,32.961158,0.077619,0.002255,0.000000,-0.169897,0.055676,0.000000
2.230000,0.024454,-0.788849,-0.983080,2.446304,-0.178266,0.201844,-0.037986,1.001240,-3.335507,-0.947537,-1.691110,-3.815806,-20.929606,23.474210,32.753923,0.076019,0.002890,0.000000,-0.149900,0.071036,0.000000
2.240000,0.048915,-0.790582,-0.981229,2.445873,-0.168335,0.168304,-0.048517,0.985530,-3.372030,-1.159466,-1.448447,-3.489169,-21.438883,25.042917,32.579698,0.074624,0.003681,0.000000,-0.128972,0.086741,-0.000000
2.250000,0.073371,-0.792217,-0.979715,2.445327,-0.158547,0.134415,-0.061191,0.972322,-3.405295,-1.375969,-1.190566,-3.164072,-21.844456,26.517286,32.447362,0.073442,0.004630,0.000000,-0.107160,0.102731,-0.000000
2.260000,0.097821,-0.793754,-0.978541,2.444642,-0.148879,0.100209,-0.076055,0.961764,-3.435329,-1.596613,-0.918636,-2.841289,-22.131529,27.897474,32.397023,0.072483,0.005742,0.000000,-0.084534,0.118993,-0.000000
2.270000,0.122264,-0.795194,-0.977712,2.443798,-0.139303,0.065719,-0.093131,0.953994,-3.462122,-1.818942,-0.633196,-2.517340,-22.317584,29.172730,32.402501,0.071754,0.007017,0.000000,-0.061093,0.135363,-0.000000
2.280000,0.146697,-0.796540,-0.977228,2.442772,-0.129790,0.030978,-0.112438,0.949140,-3.485674,-2.042636,-0.335550,-2.193036,-22.404894,30.337443,32.468850,0.071264,0.008457,0.000000,-0.036915,0.151839,-0.000000
2.290000,0.171119,-0.797790,-0.977093,2.441542,-0.120310,-0.003983,-0.133985,0.947320,-3.505979,-2.266718,-0.026834,-1.867743,-22.395735,31.386001,32.601122,0.071018,0.010062,0.000000,-0.012053,0.168372,0.000000
2.300000,0.195527,-0.798946,-0.977308,2.440085,-0.110833,-0.039131,-0.157771,0.948637,-3.523024,-2.490236,0.291764,-1.540777,-22.292380,32.312793,32.804371,0.071025,0.011833,0.000000,0.013436,0.184911,0.000000
2.310000,0.219919,-0.800007,-0.977876,2.438379,-0.101326,-0.074432,-0.183787,0.953182,-3.536804,-2.712478,0.618795,-1.212954,-22.091571,33.117311,33.122834,0.071289,0.013769,0.000000,0.039469,0.201428,-0.000000
2.320000,0.244294,-0.800972,-0.978797,2.436402,-0.091758,-0.109856,-0.212012,0.961037,-3.547271,-2.932018,0.953437,-0.879815,-21.801791,33.788216,33.517581,0.071816,0.015871,0.000000,0.066041,0.217844,0.000000
2.330000,0.268646,-0.801842,-0.980073,2.434132,-0.082094,-0.145367,-0.242416,0.972270,-3.554386,-3.148228,1.294093,-0.542347,-21.425991,34.319271,33.988865,0.072611,0.018137,0.000000,0.093062,0.234137,0.000000
2.340000,0.292975,-0.802614,-0.981705,2.431547,-0.072301,-0.180932,-0.274963,0.986934,-3.558101,-3.360261,1.639335,-0.199782,-20.967122,34.704240,34.536940,0.073678,0.020566,0.000000,0.120464,0.250270,0.000000
2.350000,0.317276,-0.803287,-0.983692,2.428626,-0.062344,-0.216517,-0.309605,1.005067,-3.558362,-3.567303,1.987671,0.148649,-20.428134,34.936887,35.162063,0.075021,0.023155,0.000000,0.148179,0.266210,-0.000000
2.360000,0.341546,-0.803860,-0.986035,2.425348,-0.052188,-0.252087,-0.346289,1.026694,-3.555125,-3.768525,2.337626,0.501934,-19.813028,35.008931,35.909507,0.076643,0.025904,0.000000,0.176129,0.281920,0.000000
2.370000,0.365782,-0.804330,-0.988734,2.421693,-0.041799,-0.287607,-0.384954,1.051820,-3.548297,-3.963269,2.687392,0.865069,-19.123578,34.916432,36.728994,0.078544,0.028810,0.000000,0.204249,0.297388,-0.000000
2.380000,0.389979,-0.804695,-0.991787,2.417642,-0.031140,-0.323041,-0.425530,1.080436,-3.537795,-4.150758,3.035386,1.236737,-18.362606,34.653402,37.615264,0.080728,0.031869,0.000000,0.232458,0.312583,-0.000000
2.390000,0.414133,-0.804952,-0.995194,2.413176,-0.020178,-0.358350,-0.467942,1.112516,-3.523532,-4.330292,3.379872,1.617579,-17.532935,34.213856,38.563060,0.083194,0.035081,0.000000,0.260673,0.327483,0.000000
2.400000,0.438241,-0.805098,-0.998953,2.408278,-0.008878,-0.393498,-0.512107,1.148015,-3.505411,-4.501197,3.719055,2.008186,-16.637388,33.591809,39.567122,0.085941,0.038441,0.000000,0.288810,0.342070,-0.000000
2.410000,0.462297,-0.805128,-1.003063,2.402929,0.002793,-0.428445,-0.557934,1.186880,-3.483354,-4.662672,4.051751,2.407226,-15.682778,32.764323,40.669321,0.088970,0.041946,0.000000,0.316820,0.356307,-0.000000
2.420000,0.486298,-0.805040,-1.007521,2.397114,0.014870,-0.463151,-0.605328,1.229020,-3.457229,-4.814472,4.374456,2.819601,-14.667447,31.744439,41.811499,0.092277,0.045594,0.000000,0.344523,0.370225,-0.000000
2.430000,0.510238,-0.804830,-1.012325,2.390817,0.027384,-0.497576,-0.654188,1.274332,-3.426923,-4.955826,4.685985,3.243553,-13.593731,30.528248,42.982627,0.095859,0.049381,0.000000,0.371868,0.383792,-0.000000
2.440000,0.534113,-0.804491,-1.017472,2.384025,0.040367,-0.531675,-0.704408,1.322696,-3.392319,-5.086160,4.984354,3.679314,-12.463963,29.111837,44.171675,0.099713,0.053304,0.000000,0.398760,0.396999,-0.000000
2.450000,0.557917,-0.804021,-1.022958,2.376725,0.053848,-0.565407,-0.755873,1.373968,-3.353297,-5.204926,5.267541,4.127009,-11.280477,27.491298,45.367614,0.103832,0.057360,0.000000,0.425100,0.409838,0.000000
2.460000,0.581646,-0.803412,-1.028779,2.368904,0.067855,-0.598726,-0.808465,1.428006,-3.309756,-5.311512,5.535057,4.585023,-10.047798,25.623041,46.600552,0.108213,0.061544,0.000000,0.450890,0.422286,0.000000
2.470000,0.605293,-0.802662,-1.034931,2.360552,0.082416,-0.631586,-0.862061,1.484604,-3.261556,-5.405620,5.781083,5.057116,-8.765800,23.547693,47.813286,0.112847,0.065854,0.000000,0.475773,0.434373,0.000000
2.480000,0.628855,-0.801762,-1.041409,2.351660,0.097555,-0.663941,-0.916534,1.543555,-3.208574,-5.486670,6.005324,5.541168,-7.436550,21.266203,48.989747,0.117726,0.070286,0.000000,0.499760,0.446079,-0.000000
2.490000,0.652325,-0.800708,-1.048208,2.342219,0.113294,-0.695741,-0.971749,1.604631,-3.150694,-5.554200,6.205723,6.036737,-6.062113,18.779519,50.113870,0.122839,0.074837,0.000000,0.522741,0.457400,-0.000000
2.500000,0.675697,-0.799494,-1.055321,2.332223,0.129654,-0.726938,-1.027571,1.667583,-3.087803,-5.607769,6.380234,6.543218,-4.644554,16.088590,51.169589,0.128177,0.079502,0.000000,0.544603,0.468332,0.000000
2.510000,0.698967,-0.798113,-1.062744,2.321666,0.146650,-0.757480,-1.083858,1.732170,-3.019805,-5.647069,6.529319,7.058958,-3.183036,13.131172,52.163294,0.133729,0.084280,0.000000,0.565407,0.478871,-0.000000
2.520000,0.722129,-0.796559,-1.070469,2.310545,0.164300,-0.787317,-1.140463,1.798068,-2.946592,-5.671430,6.645029,7.585137,-1.682883,9.979143,53.053710,0.139480,0.089165,0.000000,0.584598,0.489005,-0.000000
2.530000,0.745176,-0.794825,-1.078488,2.298856,0.182615,-0.816394,-1.197236,1.864962,-2.868075,-5.680606,6.728282,8.119625,-0.146517,6.641190,53.822022,0.145416,0.094154,0.000000,0.602257,0.498730,0.000000
2.540000,0.768104,-0.792905,-1.086794,2.286600,0.201602,-0.844660,-1.254023,1.932519,-2.784177,-5.674248,6.777262,8.661107,1.423641,3.125998,54.449413,0.151520,0.099245,0.000000,0.618257,0.508038,0.000000
2.550000,0.790906,-0.790791,-1.095378,2.273776,0.221266,-0.872060,-1.310668,2.000387,-2.694835,-5.652029,6.790241,9.208081,3.025169,-0.557746,54.917065,0.157775,0.104432,0.000000,0.632467,0.516916,0.000000
2.560000,0.813578,-0.788477,-1.104232,2.260388,0.241609,-0.898539,-1.367014,2.068232,-2.599997,-5.614013,6.768651,9.759307,4.664878,-4.479046,55.194708,0.164166,0.109712,0.000000,0.644996,0.525383,0.000000
2.570000,0.836112,-0.785956,-1.113346,2.246438,0.262628,-0.924041,-1.422893,2.135627,-2.499642,-5.559059,6.703656,10.311833,6.329985,-8.542012,55.276383,0.170668,0.115081,0.000000,0.655117,0.533340,-0.000000
2.580000,0.858505,-0.783222,-1.122709,2.231932,0.284318,-0.948513,-1.478139,2.202167,-2.393761,-5.487341,6.597399,10.864123,8.016938,-12.728447,55.144675,0.177260,0.120534,0.000000,0.662961,0.540800,0.000000
2.590000,0.880749,-0.780268,-1.132312,2.216878,0.306667,-0.971898,-1.532584,2.267434,-2.282368,-5.398659,6.448736,11.413957,9.722187,-17.020150,54.782170,0.183919,0.126068,0.000000,0.668379,0.547736,0.000000
2.600000,0.902840,-0.777087,-1.142144,2.201284,0.329661,-0.994142,-1.586055,2.330997,-2.165498,-5.292848,6.256705,11.958939,11.442179,-21.398923,54.171455,0.190619,0.131675,0.000000,0.671217,0.554111,-0.000000
2.610000,0.924773,-0.773672,-1.152191,2.185161,0.353279,-1.015191,-1.638389,2.392452,-2.043189,-5.170371,6.023428,12.498767,13.188324,-25.919816,53.237891,0.197337,0.137353,0.000000,0.671584,0.559960,0.000000
2.620000,0.946542,-0.770019,-1.162443,2.168520,0.377501,-1.034989,-1.689405,2.451314,-1.915559,-5.029730,5.741440,13.025332,14.940279,-30.482412,52.028296,0.204041,0.143094,0.000000,0.668672,0.565056,0.000000
2.630000,0.968142,-0.766121,-1.172887,2.151377,0.402296,-1.053485,-1.738926,2.507128,-1.782728,-4.871564,5.413731,13.538378,16.692658,-35.059540,50.532263,0.210700,0.148891,0.000000,0.662607,0.569423,0.000000
2.640000,0.989568,-0.761971,-1.183508,2.133747,0.427632,-1.070627,-1.786778,2.559437,-1.644846,-4.695893,5.040292,14.034988,18.440079,-39.624033,48.739384,0.217282,0.154737,0.000000,0.653208,0.572993,-0.000000
2.650000,1.010815,-0.757566,-1.194295,2.115648,0.453471,-1.086365,-1.832785,2.607783,-1.502093,-4.502796,4.621383,14.512141,20.177158,-44.148723,46.639255,0.223753,0.160624,0.000000,0.640288,0.575689,0.000000
2.660000,1.031879,-0.752900,-1.205231,2.097099,0.479772,-1.100654,-1.876783,2.651732,-1.354634,-4.293070,4.159177,14.970805,21.915378,-48.647779,44.118133,0.230078,0.166544,0.000000,0.623871,0.577540,-0.000000
2.670000,1.052756,-0.747969,-1.216303,2.078120,0.506489,-1.113445,-1.918589,2.690818,-1.202766,-4.065319,3.650604,15.398066,23.630423,-53.047632,41.281599,0.236217,0.172484,0.000000,0.603240,0.578170,-0.000000
2.680000,1.073440,-0.742769,-1.227495,2.058735,0.533571,-1.124696,-1.958033,2.724600,-1.046773,-3.820564,3.098663,15.795393,25.314846,-57.316051,38.131900,0.242129,0.178433,0.000000,0.578420,0.577591,0.000000
2.690000,1.093929,-0.737297,-1.238791,2.038968,0.560962,-1.134368,-1.994945,2.752651,-0.886968,-3.559149,2.504828,16.159667,26.961198,-61.420806,34.671280,0.247771,0.184378,0.000000,0.549188,0.575674,-0.000000
2.700000,1.114218,-0.731549,-1.250177,2.018845,0.588603,-1.142424,-2.029162,2.774563,-0.723700,-3.281492,1.870899,16.487790,28.562029,-65.329665,30.901987,0.253097,0.190304,0.000000,0.515320,0.572277,0.000000
2.710000,1.134305,-0.725524,-1.261634,1.998394,0.616432,-1.148833,-2.060527,2.789935,-0.557287,-2.988551,1.198296,16.781898,30.121672,-68.992726,26.694599,0.258061,0.196196,0.000000,0.476636,0.567384,-0.000000
2.720000,1.154185,-0.719220,-1.273148,1.977644,0.644379,-1.153562,-2.088882,2.798411,-0.388207,-2.679791,0.491117,17.026600,31.619455,-72.397594,22.199152,0.262613,0.202034,0.000000,0.432761,0.560496,0.000000
2.730000,1.173857,-0.712637,-1.284700,1.956627,0.672376,-1.156589,-2.114074,2.799649,-0.216909,-2.356398,-0.248695,17.224983,33.046486,-75.514203,17.434015,0.266699,0.207797,0.000000,0.383504,0.551572,-0.000000
2.740000,1.193317,-0.705773,-1.296274,1.935374,0.700347,-1.157895,-2.135963,2.793338,-0.043870,-2.019126,-1.018106,17.374442,34.393875,-78.312485,12.417559,0.270264,0.213462,0.000000,0.328611,0.540404,-0.000000
2.750000,1.212564,-0.698630,-1.307852,1.913919,0.728216,-1.157463,-2.154413,2.779199,0.130408,-1.668816,-1.813783,17.472557,35.652731,-80.762375,7.168151,0.273251,0.219003,0.000000,0.267829,0.526772,-0.000000
2.760000,1.231595,-0.691209,-1.319417,1.892298,0.755905,-1.155285,-2.169298,2.756948,0.305455,-1.306322,-2.635657,17.522001,36.812275,-82.743769,1.580114,0.275598,0.224394,0.000000,0.200694,0.510547,-0.000000
2.770000,1.250409,-0.683513,-1.330952,1.870545,0.783329,-1.151355,-2.180503,2.726426,0.480659,-0.932840,-3.471353,17.509094,37.865734,-84.327661,-4.188948,0.277244,0.229604,0.000000,0.127462,0.491236,0.000000
2.780000,1.269005,-0.675544,-1.342438,1.848700,0.810406,-1.145674,-2.187922,2.687475,0.655442,-0.549389,-4.320822,17.437731,38.804448,-85.495009,-10.105475,0.278125,0.234597,0.000000,0.047668,0.468688,0.000000
2.790000,1.287383,-0.667306,-1.353860,1.826800,0.837050,-1.138249,-2.191462,2.639978,0.829214,-0.157162,-5.179802,17.306605,39.619757,-86.226772,-16.135909,0.278175,0.239339,0.000000,-0.038899,0.442632,-0.000000
2.800000,1.305541,-0.658804,-1.365198,1.804884,0.863176,-1.129095,-2.191040,2.583862,1.001372,0.242565,-6.043842,17.114745,40.303001,-86.503907,-22.246692,0.277324,0.243791,0.000000,-0.132419,0.412795,-0.000000
2.810000,1.323481,-0.650045,-1.376436,1.782992,0.888700,-1.118230,-2.186580,2.519035,1.171336,0.649307,-6.914266,16.864373,40.823331,-86.156714,-28.476460,0.275497,0.247909,0.000000,-0.233568,0.378894,0.000000
2.820000,1.341201,-0.641033,-1.387557,1.761166,0.913530,-1.105679,-2.178039,2.445596,1.338452,1.059534,-7.772121,16.548424,41.196993,-85.335257,-34.710620,0.272629,0.251650,0.000000,-0.341147,0.340703,0.000000
2.830000,1.358704,-0.631777,-1.398544,1.739445,0.937584,-1.091473,-2.165380,2.363628,1.502097,1.472739,-8.619388,16.170288,41.418044,-84.038942,-40.906773,0.268651,0.254968,0.000000,-0.455737,0.297956,-0.000000
2.840000,1.375991,-0.622284,-1.409381,1.717872,0.960775,-1.075650,-2.148580,2.273260,1.661652,1.887366,-9.451315,15.730556,41.480540,-82.267177,-47.022520,0.263491,0.257815,0.000000,-0.577230,0.250433,-0.000000
2.850000,1.393062,-0.612564,-1.420052,1.696488,0.983021,-1.058255,-2.127633,2.174669,1.816506,2.301801,-10.263145,15.230246,41.378538,-80.019366,-53.015462,0.257084,0.260139,0.000000,-0.705393,0.197956,0.000000
2.860000,1.409921,-0.602627,-1.430541,1.675333,1.004244,-1.039338,-2.102532,2.068005,1.966054,2.716046,-11.056966,14.670231,41.063732,-77.121834,-58.828882,0.249354,0.261889,0.000000,-0.840644,0.140187,0.000000
2.870000,1.426570,-0.592483,-1.440833,1.654450,1.024358,-1.018954,-2.073325,1.953634,2.109720,3.124396,-11.811788,14.053716,40.577729,-73.768262,-64.436454,0.240253,0.263016,0.000000,-0.980494,0.077576,-0.000000
2.880000,1.443011,-0.582144,-1.450915,1.633880,1.043292,-0.997165,-2.040063,1.831889,2.246945,3.527027,-12.530880,13.382323,39.919774,-69.979251,-69.797532,0.229729,0.263470,0.000000,-1.125003,0.009929,-0.000000
2.890000,1.459249,-0.571621,-1.460772,1.613662,1.060973,-0.974038,-2.002810,1.703149,2.377193,3.922216,-13.209990,12.658722,39.089112,-65.775400,-74.871472,0.217741,0.263204,0.000000,-1.273101,-0.062613,-0.000000
2.900000,1.475286,-0.560929,-1.470392,1.593837,1.077333,-0.949646,-1.961649,1.567836,2.499956,4.308231,-13.845074,11.885987,38.084985,-61.177310,-79.617629,0.204259,0.262173,0.000000,-1.423427,-0.139779,-0.000000
2.910000,1.491127,-0.550079,-1.479761,1.574441,1.092311,-0.924064,-1.916659,1.426346,2.614713,4.685432,-14.437937,11.063305,36.853664,-56.062967,-83.886925,0.189261,0.260332,0.000000,-1.575134,-0.221570,0.000000
2.920000,1.506776,-0.539087,-1.488869,1.555515,1.105843,-0.897378,-1.867984,1.279253,2.721086,5.047108,-14.971581,10.204727,35.453855,-50.613047,-87.760424,0.172762,0.257651,0.000000,-1.724249,-0.306416,0.000000
2.930000,1.522239,-0.527967,-1.497705,1.537093,1.117879,-0.869672,-1.815766,1.127101,2.818686,5.393967,-15.449206,9.309507,33.891288,-44.865612,-91.210760,0.154790,0.254103,0.000000,-1.869361,-0.394022,0.000000
2.940000,1.537520,-0.516735,-1.506260,1.519211,1.128370,-0.841035,-1.760160,0.970465,2.907168,5.724410,-15.868029,8.382013,32.171694,-38.858724,-94.210564,0.135397,0.249670,0.000000,-2.007860,-0.483462,-0.000000
2.950000,1.552625,-0.505405,-1.514523,1.501901,1.137275,-0.811560,-1.701337,0.809945,2.986234,6.036897,-16.225643,7.426888,30.300805,-32.630446,-96.732468,0.114664,0.244344,0.000000,-2.136911,-0.573638,-0.000000
2.960000,1.567560,-0.493995,-1.522488,1.485194,1.144559,-0.781340,-1.639466,0.646135,3.055555,6.331851,-16.522610,6.442084,28.236127,-26.153583,-98.573201,0.092695,0.238119,0.000000,-2.253977,-0.663797,-0.000000
2.970000,1.582331,-0.482520,-1.530148,1.469120,1.150190,-0.750479,-1.574772,0.479711,3.115023,6.603325,-16.751170,5.449275,26.037520,-19.539446,-99.902838,0.069636,0.231017,0.000000,-2.354996,-0.751362,0.000000
2.980000,1.596945,-0.470997,-1.537496,1.453707,1.154147,-0.719073,-1.507475,0.311334,3.164505,6.852193,-16.913095,4.445750,23.716620,-12.834088,-100.715552,0.045656,0.223067,0.000000,-2.437669,-0.835444,-0.000000
2.990000,1.611407,-0.459442,-1.544528,1.438979,1.156412,-0.687223,-1.437807,0.141674,3.203919,7.077289,-17.007702,3.436707,21.285063,-6.083562,-101.005513,0.020952,0.214307,0.000000,-2.499486,-0.914567,0.000000
3.000000,1.625727,-0.447874,-1.551239,1.424958,1.156978,-0.655028,-1.366012,-0.028595,3.233238,7.277564,-17.034769,2.427402,18.754485,0.666078,-100.766893,-0.004257,0.204791,0.000000,-2.538418,-0.987295,0.000000
3.010000,1.639909,-0.436308,-1.557628,1.411664,1.155840,-0.622589,-1.292330,-0.198783,3.252402,7.453179,-16.993170,1.415593,16.108950,7.334271,-99.802985,-0.029733,0.194580,0.000000,-2.552804,-1.052662,0.000000
3.020000,1.653962,-0.424763,-1.563691,1.399116,1.153004,-0.590011,-1.217037,-0.368237,3.261591,7.600733,-16.886839,0.424544,13.391041,13.913696,-98.322213,-0.055230,0.183756,0.000000,-2.542575,-1.108606,0.000000
3.030000,1.667894,-0.413254,-1.569428,1.387328,1.148480,-0.557390,-1.140407,-0.536302,3.260951,7.720809,-16.715332,-0.549187,10.615771,20.362528,-96.342120,-0.080502,0.172404,0.000000,-2.507678,-1.154646,-0.000000
3.040000,1.681711,-0.401799,-1.574839,1.376312,1.142285,-0.524824,-1.062715,-0.702332,3.250681,7.812907,-16.480163,-1.500693,7.798153,26.638937,-93.880252,-0.105305,0.160620,0.000000,-2.449093,-1.190139,-0.000000
3.050000,1.695423,-0.390414,-1.579925,1.366076,1.134442,-0.492408,-0.984243,-0.865699,3.231027,7.876681,-16.183267,-2.425244,4.953198,32.701097,-90.954152,-0.129410,0.148503,0.000000,-2.368536,-1.214740,-0.000000
3.060000,1.709036,-0.379115,-1.584688,1.356629,1.124981,-0.460232,-0.905277,-1.025745,3.202218,7.911868,-15.822038,-3.324144,2.097493,38.381988,-87.433427,-0.152601,0.136154,0.000000,-2.267482,-1.228503,0.000000
3.070000,1.722558,-0.367919,-1.589130,1.347972,1.113939,-0.428391,-0.826101,-1.181955,3.164668,7.918568,-15.410980,-4.179147,-0.755717,43.780303,-83.501675,-0.174705,0.123678,0.000000,-2.150786,-1.231419,-0.000000
3.080000,1.735998,-0.356842,-1.593257,1.340106,1.101356,-0.396967,-0.747000,-1.333790,3.118772,7.896811,-14.947462,-4.992926,-3.591613,48.869545,-79.194554,-0.195571,0.111178,0.000000,-2.020576,-1.224135,0.000000
3.090000,1.749363,-0.345897,-1.597071,1.333030,1.087279,-0.366042,-0.668259,-1.480741,3.064959,7.846843,-14.434708,-5.761906,-6.395376,53.623216,-74.547724,-0.215082,0.098752,0.000000,-1.880027,-1.207377,0.000000
3.100000,1.762661,-0.335101,-1.600580,1.326739,1.071759,-0.335692,-0.590156,-1.622332,3.003694,7.769060,-13.876205,-6.482867,-9.152188,58.014817,-69.596845,-0.233148,0.086491,0.000000,-1.732258,-1.182033,-0.000000
3.110000,1.775900,-0.324467,-1.603787,1.321225,1.054850,-0.305990,-0.512980,-1.758051,2.935445,7.662882,-13.268923,-7.155419,-11.818852,61.846520,-64.315168,-0.249702,0.074482,0.000000,-1.579212,-1.148965,-0.000000
3.120000,1.789088,-0.314008,-1.606702,1.316476,1.036616,-0.277004,-0.436986,-1.887589,2.860766,7.531660,-12.632939,-7.771206,-14.412400,65.284137,-58.808402,-0.264728,0.062800,0.000000,-1.425954,-1.109539,-0.000000
3.130000,1.802232,-0.303739,-1.609330,1.312480,1.017120,-0.248794,-0.362432,-2.010602,2.780207,7.374916,-11.964573,-8.330981,-16.921487,68.322149,-53.119848,-0.278224,0.051511,0.000000,-1.273618,-1.064671,-0.000000
3.140000,1.815340,-0.293670,-1.611680,1.309221,0.996427,-0.221417,-0.289570,-2.126786,2.694338,7.193550,-11.267847,-8.833142,-19.334771,70.955037,-47.292805,-0.290209,0.040672,0.000000,-1.124118,-1.015395,0.000000
3.150000,1.828419,-0.283814,-1.613761,1.306682,0.974608,-0.194923,-0.218640,-2.235878,2.603740,6.988577,-10.546841,-9.276520,-21.640905,73.177283,-41.370576,-0.300721,0.030331,0.000000,-0.978998,-0.962689,-0.000000
3.160000,1.841476,-0.274181,-1.615582,1.304842,0.951732,-0.169357,-0.149892,-2.337591,2.509020,6.759386,-9.799758,-9.659097,-23.784586,74.833583,-35.428873,-0.309800,0.020528,0.000000,-0.838783,-0.907231,-0.000000
3.170000,1.854518,-0.264782,-1.617152,1.303677,0.927879,-0.144755,-0.083522,-2.431825,2.410757,6.511338,-9.044827,-9.983609,-25.803812,76.086545,-29.474617,-0.317518,0.011287,0.000000,-0.705972,-0.850373,0.000000
3.180000,1.867552,-0.255627,-1.618480,1.303163,0.903121,-0.121152,-0.019731,-2.518453,2.309546,6.243745,-8.279329,-10.248679,-27.692620,76.948990,-23.547139,-0.323944,0.002631,0.000000,-0.580347,-0.792553,0.000000
3.190000,1.880583,-0.246723,-1.619578,1.303273,0.877535,-0.098572,0.041292,-2.597389,2.205980,5.957940,-7.507106,-10.454772,-29.445050,77.433742,-17.685772,-0.329150,-0.005430,0.000000,-0.462237,-0.734376,0.000000
3.200000,1.893619,-0.238079,-1.620455,1.303979,0.851199,-0.077038,0.099372,-2.668585,2.100644,5.655318,-6.731870,-10.602746,-31.055138,77.553622,-11.929848,-0.333214,-0.012889,0.000000,-0.351778,-0.676352,0.000000
3.210000,1.906665,-0.229701,-1.621122,1.305251,0.824189,-0.056564,0.154328,-2.731993,1.994158,5.335553,-5.953964,-10.689873,-32.472006,77.239551,-6.419192,-0.336209,-0.019743,0.000000,-0.248743,-0.618703,-0.000000
3.220000,1.919726,-0.221597,-1.621590,1.307055,0.796584,-0.037158,0.206038,-2.787680,1.887028,5.004369,-5.184520,-10.727216,-33.740109,76.596283,-1.080337,-0.338214,-0.025999,0.000000,-0.153485,-0.562250,0.000000
3.230000,1.932808,-0.213771,-1.621869,1.309360,0.768461,-0.018824,0.254376,-2.835710,1.779788,4.661249,-4.423060,-10.712142,-34.858986,75.646668,4.059688,-0.339303,-0.031667,0.000000,-0.065520,-0.507013,0.000000
3.240000,1.945915,-0.206229,-1.621970,1.312131,0.739895,-0.001561,0.299229,-2.876178,1.672953,4.307688,-3.672532,-10.646775,-35.828175,74.413557,8.973857,-0.339548,-0.036757,0.000000,0.015460,-0.453185,-0.000000
3.250000,1.959052,-0.198974,-1.621904,1.315333,0.710962,0.014638,0.340500,-2.909206,1.567012,3.945186,-2.935657,-10.533508,-36.647214,72.919803,13.635143,-0.339016,-0.041284,0.000000,0.089806,-0.400904,-0.000000
3.260000,1.972223,-0.192011,-1.621681,1.318929,0.681735,0.029782,0.378093,-2.934940,1.462488,3.573868,-2.214532,-10.369969,-37.280857,71.178238,17.889320,-0.337774,-0.045263,0.000000,0.157754,-0.350137,0.000000
3.270000,1.985431,-0.185340,-1.621312,1.322883,0.652287,0.043892,0.411959,-2.953559,1.359750,3.198505,-1.512358,-10.171014,-37.767686,69.222958,21.852136,-0.335880,-0.048712,0.000000,0.220051,-0.301244,-0.000000
3.280000,1.998681,-0.178966,-1.620807,1.327156,0.622687,0.056985,0.442049,-2.965256,1.259195,2.818991,-0.830705,-9.933936,-38.111498,67.078042,25.512139,-0.333391,-0.051651,0.000000,0.276919,-0.254092,0.000000
3.290000,2.011976,-0.172887,-1.620175,1.331711,0.593004,0.069084,0.468329,-2.970247,1.161188,2.436739,-0.171349,-9.661819,-38.316091,64.767566,28.857877,-0.330359,-0.054097,0.000000,0.328745,-0.208675,-0.000000
3.300000,2.025316,-0.167106,-1.619428,1.336510,0.563303,0.080218,0.490779,-2.968762,1.066065,2.053121,0.464175,-9.357864,-38.385264,62.315610,31.877899,-0.326832,-0.056069,0.000000,0.375909,-0.164967,0.000000
3.310000,2.038706,-0.161621,-1.618574,1.341514,0.533650,0.090415,0.509384,-2.961064,0.974177,1.668740,1.073004,-9.020692,-38.304313,59.785867,34.442230,-0.322859,-0.057586,0.000000,0.418461,-0.122879,-0.000000
3.320000,2.052147,-0.156432,-1.617623,1.346685,0.504103,0.099711,0.524159,-2.947388,0.885731,1.286627,1.657796,-8.664842,-38.097801,57.157948,36.672454,-0.318476,-0.058667,0.000000,0.457507,-0.082478,-0.000000
3.330000,2.065641,-0.151538,-1.616583,1.351985,0.474721,0.108142,0.535125,-2.927997,0.800949,0.907182,2.215899,-8.288347,-37.771792,54.451081,38.571634,-0.313720,-0.059329,0.000000,0.493003,-0.043648,-0.000000
3.340000,2.079187,-0.146937,-1.615463,1.357375,0.445561,0.115743,0.542315,-2.903162,0.720022,0.531570,2.746619,-7.894502,-37.332348,51.684493,40.142831,-0.308626,-0.059590,0.000000,0.525246,-0.006327,0.000000
3.350000,2.092788,-0.142626,-1.614271,1.362818,0.416675,0.122555,0.545773,-2.873158,0.643106,0.160893,3.249454,-7.486573,-36.785531,48.877410,41.389106,-0.303225,-0.059467,0.000000,0.554515,0.029550,0.000000
3.360000,2.106444,-0.138602,-1.613014,1.368278,0.388115,0.128618,0.545553,-2.838292,0.570364,-0.203826,3.721769,-7.064356,-36.136825,46.107854,42.226708,-0.297549,-0.058976,0.000000,0.580739,0.064028,-0.000000
3.370000,2.120154,-0.134863,-1.611701,1.373717,0.359925,0.133976,0.541720,-2.798815,0.501841,-0.561552,4.168956,-6.639191,-35.392944,43.329059,42.756142,-0.291618,-0.058133,0.000000,0.604948,0.097211,0.000000
3.380000,2.133918,-0.131403,-1.610337,1.379101,0.332153,0.138669,0.534348,-2.755005,0.437592,-0.911388,4.588359,-6.210215,-34.560022,40.553053,42.991101,-0.285457,-0.056951,0.000000,0.626973,0.129135,0.000000
3.390000,2.147735,-0.128218,-1.608929,1.384393,0.304839,0.142742,0.523521,-2.707140,0.377640,-1.252476,4.980066,-5.780305,-33.644194,37.791863,42.945275,-0.279086,-0.055446,0.000000,0.647001,0.159852,0.000000
3.400000,2.161605,-0.125304,-1.607484,1.389560,0.278023,0.146236,0.509330,-2.655496,0.321980,-1.584016,5.344286,-5.352200,-32.651592,35.057517,42.632357,-0.272523,-0.053630,0.000000,0.665202,0.189406,0.000000
3.410000,2.175526,-0.122656,-1.606006,1.394569,0.251741,0.149195,0.491878,-2.600369,0.270601,-1.905036,5.679159,-4.926692,-31.594321,32.417282,42.020331,-0.265790,-0.051517,0.000000,0.681471,0.217805,-0.000000
3.420000,2.189496,-0.120267,-1.604502,1.399387,0.226027,0.151662,0.471266,-2.542000,0.223422,-2.215419,5.990313,-4.510533,-30.471814,29.821182,41.174194,-0.258899,-0.049119,0.000000,0.696561,0.245160,-0.000000
3.430000,2.203513,-0.118133,-1.602975,1.403984,0.200911,0.153677,0.447608,-2.480648,0.180359,-2.514273,6.275747,-4.103925,-29.289475,27.274483,40.113234,-0.251863,-0.046449,0.000000,0.710289,0.271458,-0.000000
3.440000,2.217575,-0.116247,-1.601430,1.408329,0.176423,0.155282,0.421021,-2.416569,0.141305,-2.801027,6.535984,-3.708920,-28.052708,24.782447,38.856741,-0.244697,-0.043517,0.000000,0.722751,0.296714,0.000000
3.450000,2.231679,-0.114603,-1.599870,1.412395,0.152588,0.156516,0.391629,-2.350011,0.106135,-3.075164,6.771596,-3.327377,-26.766915,22.350339,37.424002,-0.237412,-0.040336,0.000000,0.734025,0.320939,-0.000000
3.460000,2.245822,-0.113193,-1.598300,1.416153,0.129431,0.157417,0.359563,-2.281233,0.074710,-3.336076,6.981698,-2.960719,-25.441142,20.021573,35.828153,-0.230022,-0.036917,0.000000,0.744026,0.344120,0.000000
3.470000,2.260001,-0.112012,-1.596723,1.419577,0.106971,0.158022,0.324952,-2.210453,0.046865,-3.583695,7.170544,-2.610996,-24.076705,17.758591,34.095390,-0.222535,-0.033271,0.000000,0.753167,0.366288,0.000000
3.480000,2.274212,-0.111051,-1.595141,1.422644,0.085227,0.158366,0.287935,-2.137897,0.022430,-3.817497,7.337091,-2.279201,-22.678560,15.561985,32.245755,-0.214962,-0.029410,0.000000,0.761313,0.387416,-0.000000
3.490000,2.288452,-0.110305,-1.593556,1.425329,0.064218,0.158482,0.248650,-2.063783,0.001218,-4.037170,7.482007,-1.966404,-21.251665,13.432349,30.299291,-0.207312,-0.025344,0.000000,0.768490,0.407486,-0.000000
3.500000,2.302717,-0.109764,-1.591972,1.427610,0.043956,0.158400,0.207239,-1.988326,-0.016965,-4.242451,7.605963,-1.673471,-19.800976,11.370274,28.276038,-0.199595,-0.021086,0.000000,0.774708,0.426475,-0.000000
3.510000,2.317003,-0.109423,-1.590389,1.429467,0.024455,0.158152,0.163852,-1.911738,-0.032331,-4.432844,7.709060,-1.402098,-18.338591,9.390981,26.221965,-0.191822,-0.016646,0.000000,0.779933,0.444330,0.000000
3.520000,2.331305,-0.109273,-1.588809,1.430881,0.005725,0.157763,0.118632,-1.834210,-0.045076,-4.608855,7.793353,-1.150322,-16.861453,7.478643,24.128015,-0.184000,-0.012037,0.000000,0.784248,0.461083,-0.000000
3.530000,2.345619,-0.109306,-1.587234,1.431834,-0.012226,0.157259,0.071725,-1.755934,-0.055408,-4.770038,7.858852,-0.919615,-15.373646,5.632061,22.011054,-0.176140,-0.007270,0.000000,0.787600,0.476672,0.000000
3.540000,2.359940,-0.109515,-1.585664,1.432310,-0.029392,0.156662,0.023281,-1.677094,-0.063539,-4.916306,7.906209,-0.710122,-13.879253,3.850037,19.887950,-0.168251,-0.002358,0.000000,0.789970,0.491061,0.000000
3.550000,2.374264,-0.109891,-1.584101,1.432295,-0.045767,0.155994,-0.026552,-1.597868,-0.069681,-5.047615,7.936064,-0.521820,-12.382357,2.131371,17.775571,-0.160344,0.002687,0.000000,0.791334,0.504211,0.000000
3.560000,2.388584,-0.110427,-1.582545,1.431775,-0.061349,0.155275,-0.077619,-1.518428,-0.074065,-5.163655,7.949132,-0.356314,-10.894721,0.472640,15.736131,-0.152427,0.007853,0.000000,0.791697,0.516053,-0.000000
3.570000,2.402897,-0.111115,-1.580996,1.430739,-0.076135,0.154519,-0.129775,-1.438939,-0.076874,-5.265182,7.945820,-0.208992,-9.411809,-1.124857,13.735598,-0.144513,0.013125,0.000000,0.790946,0.526626,-0.000000
3.580000,2.417197,-0.111947,-1.579454,1.429176,-0.090128,0.153742,-0.182873,-1.359563,-0.078310,-5.351917,7.926836,-0.081434,-7.936762,-2.662047,11.785288,-0.136612,0.018492,0.000000,0.789095,0.535860,-0.000000
3.590000,2.431479,-0.112915,-1.577921,1.427079,-0.103328,0.152957,-0.236764,-1.280453,-0.078567,-5.423954,7.892777,0.026919,-6.472725,-4.139856,9.896515,-0.128735,0.023939,0.000000,0.786117,0.543722,-0.000000
3.600000,2.445737,-0.114011,-1.576395,1.424439,-0.115738,0.152174,-0.291303,-1.201756,-0.077834,-5.481419,7.844234,0.116739,-5.022839,-5.559210,8.080595,-0.120894,0.029452,0.000000,0.781986,0.550182,0.000000
3.610000,2.459966,-0.115227,-1.574877,1.421251,-0.127365,0.151403,-0.346343,-1.123612,-0.076313,-5.524346,7.782048,0.186812,-3.593328,-6.927678,6.399340,-0.113099,0.035018,0.000000,0.776727,0.555194,-0.000000
3.620000,2.474160,-0.116556,-1.573367,1.417511,-0.138213,0.150651,-0.401743,-1.046160,-0.074152,-5.553214,7.706168,0.242769,-2.183878,-8.238730,4.807385,-0.105363,0.040623,0.000000,0.770209,0.558784,-0.000000
3.630000,2.488315,-0.117989,-1.571864,1.413215,-0.148291,0.149922,-0.457361,-0.969531,-0.071509,-5.568100,7.617464,0.283274,-0.797253,-9.492479,3.309861,-0.097699,0.046252,0.000000,0.762479,0.560919,0.000000
3.640000,2.502423,-0.119519,-1.570368,1.408363,-0.157607,0.149221,-0.513059,-0.893851,-0.068535,-5.569245,7.516509,0.309298,0.563781,-10.689039,1.911899,-0.090118,0.051890,0.000000,0.753533,0.561589,-0.000000
3.650000,2.516480,-0.121139,-1.568880,1.402954,-0.166171,0.148552,-0.568701,-0.819240,-0.065368,-5.556919,7.403874,0.321861,1.896458,-11.828522,0.618632,-0.082632,0.057524,0.000000,0.743377,0.560796,-0.000000
3.660000,2.530480,-0.122840,-1.567397,1.396990,-0.173995,0.147915,-0.624153,-0.745809,-0.062158,-5.531338,7.280271,0.320271,3.195945,-12.914648,-0.520214,-0.075254,0.063140,0.000000,0.732048,0.558524,-0.000000
3.670000,2.544418,-0.124616,-1.565921,1.390472,-0.181092,0.147309,-0.679285,-0.673670,-0.058999,-5.493020,7.145933,0.309831,4.461797,-13.943481,-1.549563,-0.067995,0.068722,0.000000,0.719502,0.554835,0.000000
3.680000,2.558288,-0.126460,-1.564451,1.383405,-0.187474,0.146734,-0.733972,-0.602924,-0.055994,-5.442222,7.001594,0.289644,5.691502,-14.914694,-2.469744,-0.060868,0.074257,0.000000,0.705800,0.549730,-0.000000
3.690000,2.572084,-0.128363,-1.562986,1.375795,-0.193155,0.146188,-0.788089,-0.533669,-0.053235,-5.379319,6.847832,0.260799,6.882547,-15.827957,-3.281086,-0.053883,0.079732,0.000000,0.690981,0.543241,-0.000000
3.700000,2.585802,-0.130320,-1.561527,1.367646,-0.198152,0.145668,-0.841519,-0.465997,-0.050803,-5.304708,6.685229,0.224384,8.032421,-16.682941,-3.983918,-0.047052,0.085134,0.000000,0.675090,0.535404,-0.000000
3.710000,2.599435,-0.132324,-1.560073,1.358967,-0.202481,0.145171,-0.894144,-0.399993,-0.048783,-5.218628,6.514319,0.180224,9.133865,-17.478060,-4.546822,-0.040384,0.090448,0.000000,0.658179,0.526234,-0.000000
3.720000,2.612979,-0.134368,-1.558624,1.349766,-0.206158,0.144692,-0.945856,-0.335736,-0.047216,-5.121971,6.335808,0.132377,10.189693,-18.214398,-5.005761,-0.033891,0.095663,0.000000,0.640307,0.515856,-0.000000
3.730000,2.626429,-0.136445,-1.557179,1.340053,-0.209201,0.144225,-0.996549,-0.273300,-0.046149,-5.014993,6.150227,0.080442,11.197974,-18.891780,-5.364952,-0.027581,0.100767,0.000000,0.621543,0.504295,-0.000000
3.740000,2.639779,-0.138550,-1.555739,1.329839,-0.211630,0.143767,-1.046123,-0.212753,-0.045617,-4.898177,5.958169,0.025396,12.156777,-19.510031,-5.628610,-0.021463,0.105749,0.000000,0.601956,0.491614,0.000000
3.750000,2.653024,-0.140676,-1.554304,1.319135,-0.213463,0.143311,-1.094481,-0.154156,-0.045648,-4.772028,5.760224,-0.031826,13.064170,-20.068978,-5.800953,-0.015545,0.110598,0.000000,0.581623,0.477882,-0.000000
3.760000,2.666160,-0.142817,-1.552873,1.307953,-0.214720,0.142852,-1.141530,-0.097568,-0.046265,-4.636763,5.556780,-0.090974,13.910436,-20.563204,-5.870004,-0.009833,0.115304,0.000000,0.560602,0.463134,-0.000000
3.770000,2.679182,-0.144968,-1.551447,1.296309,-0.215421,0.142384,-1.187189,-0.043036,-0.047468,-4.493653,5.348923,-0.149679,14.702383,-20.998418,-5.858155,-0.004335,0.119858,0.000000,0.539023,0.447538,0.000000
3.780000,2.692085,-0.147124,-1.550025,1.284215,-0.215588,0.141901,-1.231378,0.009396,-0.049257,-4.342900,5.137007,-0.207888,15.439032,-21.375087,-5.771603,0.000946,0.124252,0.000000,0.516946,0.431131,0.000000
3.790000,2.704864,-0.149278,-1.548609,1.271686,-0.215240,0.141397,-1.274023,0.059692,-0.051622,-4.185060,4.921615,-0.264883,16.119406,-21.693678,-5.616548,0.006003,0.128478,0.000000,0.494454,0.413991,-0.000000
3.800000,2.717517,-0.151427,-1.547197,1.258739,-0.214401,0.140867,-1.315057,0.107819,-0.054548,-4.020702,4.703326,-0.320011,16.742527,-21.954657,-5.399189,0.010834,0.132530,0.000000,0.471631,0.396201,-0.000000
3.810000,2.730038,-0.153565,-1.545792,1.245391,-0.213091,0.140304,-1.354414,0.153748,-0.058015,-3.850042,4.482448,-0.372749,17.298270,-22.151810,-5.123982,0.015435,0.136401,0.000000,0.448531,0.377806,0.000000
3.820000,2.742423,-0.155687,-1.544392,1.231657,-0.211333,0.139705,-1.392041,0.197462,-0.061993,-3.674522,4.260177,-0.422403,17.795923,-22.293104,-4.799082,0.019804,0.140085,0.000000,0.425297,0.358974,0.000000
3.830000,2.754670,-0.157790,-1.542998,1.217556,-0.209149,0.139063,-1.427889,0.238948,-0.066451,-3.494316,4.036768,-0.468586,18.235628,-22.379824,-4.430901,0.023940,0.143580,0.000000,0.401978,0.339743,0.000000
3.840000,2.766773,-0.159869,-1.541610,1.203105,-0.206562,0.138374,-1.461913,0.278196,-0.071352,-3.310002,3.812758,-0.510898,18.617528,-22.413258,-4.025851,0.027843,0.146881,0.000000,0.378646,0.320190,-0.000000
3.850000,2.778731,-0.161920,-1.540230,1.188324,-0.203593,0.137634,-1.494077,0.315203,-0.076655,-3.122158,3.588676,-0.549002,18.941764,-22.394688,-3.590345,0.031513,0.149986,0.000000,0.355371,0.300391,0.000000
3.860000,2.790539,-0.163940,-1.538858,1.173230,-0.200265,0.136840,-1.524343,0.349968,-0.082313,-2.931024,3.364825,-0.582272,19.200007,-22.320144,-3.139699,0.034951,0.152891,0.000000,0.332202,0.280390,0.000000
3.870000,2.802194,-0.165924,-1.537494,1.157843,-0.196601,0.135987,-1.552690,0.382503,-0.088285,-2.737967,3.142201,-0.611336,19.401907,-22.196813,-2.670331,0.038158,0.155597,0.000000,0.309245,0.260322,0.000000
3.880000,2.813695,-0.167871,-1.536138,1.142182,-0.192623,0.135073,-1.579097,0.412817,-0.094524,-2.543169,2.921045,-0.635634,19.548644,-22.026623,-2.187562,0.041137,0.158101,0.000000,0.286537,0.240222,0.000000
3.890000,2.825037,-0.169776,-1.534792,1.126268,-0.188352,0.134096,-1.603549,0.440930,-0.100982,-2.347175,2.701818,-0.655060,19.641395,-21.811504,-1.696715,0.043890,0.160405,0.000000,0.264131,0.220151,0.000000
3.900000,2.836219,-0.171637,-1.533457,1.110118,-0.183811,0.133053,-1.626038,0.466862,-0.107609,-2.150517,2.484959,-0.669559,19.681340,-21.553385,-1.203112,0.046420,0.162509,0.000000,0.242074,0.200167,0.000000
3.910000,2.847239,-0.173451,-1.532132,1.093753,-0.179022,0.131943,-1.646556,0.490637,-0.114350,-1.953481,2.270780,-0.678554,19.663626,-21.251480,-0.726645,0.048732,0.164413,0.000000,0.220404,0.180310,-0.000000
3.920000,2.858094,-0.175216,-1.530818,1.077193,-0.174005,0.130766,-1.665109,0.512288,-0.121164,-1.757141,2.059937,-0.683462,19.596203,-20.910767,-0.256281,0.050830,0.166120,0.000000,0.199177,0.160663,0.000000
3.930000,2.868782,-0.176931,-1.529517,1.060458,-0.168783,0.129520,-1.681702,0.531848,-0.128004,-1.561716,1.852686,-0.683712,19.480988,-20.533507,0.204442,0.052718,0.167631,0.000000,0.178421,0.141257,-0.000000
3.940000,2.879302,-0.178592,-1.528228,1.043566,-0.163375,0.128206,-1.696348,0.549355,-0.134823,-1.367674,1.649381,-0.679417,19.319898,-20.121961,0.651986,0.054400,0.168950,0.000000,0.158166,0.122133,-0.000000
3.950000,2.889653,-0.180198,-1.526953,1.026537,-0.157803,0.126823,-1.709062,0.564850,-0.141578,-1.175465,1.450354,-0.670728,19.114853,-19.678391,1.082813,0.055883,0.170079,0.000000,0.138440,0.103330,0.000000
3.960000,2.899833,-0.181747,-1.525692,1.009391,-0.152085,0.125374,-1.719863,0.578377,-0.148217,-0.985396,1.255910,-0.657213,18.864695,-19.205003,1.477841,0.057171,0.171021,0.000000,0.119270,0.084880,-0.000000
3.970000,2.909840,-0.183239,-1.524445,0.992146,-0.146242,0.123859,-1.728779,0.589984,-0.154709,-0.798166,1.066343,-0.640550,18.574793,-18.704122,1.850981,0.058270,0.171780,0.000000,0.100667,0.066819,0.000000
3.980000,2.919675,-0.184672,-1.523215,0.974822,-0.140291,0.122281,-1.735837,0.599721,-0.161016,-0.614025,0.881912,-0.620272,18.247439,-18.178015,2.200597,0.059186,0.172361,0.000000,0.082653,0.049172,-0.000000
3.990000,2.929337,-0.186044,-1.522000,0.957435,-0.134253,0.120640,-1.741071,0.607640,-0.167103,-0.433335,0.702859,-0.596622,17.884928,-17.628953,2.525056,0.059925,0.172767,0.000000,0.065241,0.031965,-0.000000
4.000000,2.938824,-0.187356,-1.520802,0.940006,-0.128145,0.118939,-1.744516,0.613797,-0.172938,-0.256436,0.529402,-0.569860,17.489553,-17.059203,2.822723,0.060493,0.173003,0.000000,0.048443,0.015219,-0.000000
4.010000,2.948137,-0.188607,-1.519621,0.922551,-0.121983,0.117182,-1.746213,0.618249,-0.178485,-0.083629,0.361812,-0.539744,17.063201,-16.472930,3.078885,0.060896,0.173074,0.000000,0.032278,-0.001040,0.000000
4.020000,2.957275,-0.189796,-1.518459,0.905088,-0.115785,0.115370,-1.746204,0.621053,-0.183725,0.084752,0.200083,-0.507793,16.608623,-15.870274,3.306588,0.061141,0.172984,0.000000,0.016729,-0.016813,-0.000000
4.030000,2.966239,-0.190923,-1.517314,0.887632,-0.109567,0.113508,-1.744534,0.622271,-0.188634,0.248457,0.044454,-0.473708,16.128163,-15.253272,3.505799,0.061233,0.172738,0.000000,0.001812,-0.032077,-0.000000
4.040000,2.975028,-0.191987,-1.516189,0.870202,-0.103345,0.111599,-1.741251,0.621963,-0.193193,0.407237,-0.104942,-0.437772,15.624163,-14.623961,3.676484,0.061179,0.172343,0.000000,-0.012469,-0.046820,0.000000
4.050000,2.983643,-0.192990,-1.515082,0.852813,-0.097133,0.109646,-1.736406,0.620193,-0.197384,0.560869,-0.247991,-0.400273,15.098968,-13.984376,3.818611,0.060985,0.171802,0.000000,-0.026113,-0.061031,0.000000
4.060000,2.992084,-0.193930,-1.513996,0.835479,-0.090946,0.107652,-1.730052,0.617026,-0.201190,0.709094,-0.384488,-0.361147,14.556421,-13.339427,3.923339,0.060659,0.171122,0.000000,-0.039106,-0.074692,-0.000000
4.070000,3.000353,-0.194809,-1.512929,0.818216,-0.084797,0.105623,-1.722243,0.612525,-0.204604,0.851875,-0.514630,-0.321505,13.997182,-12.687926,4.000522,0.060205,0.170307,0.000000,-0.051481,-0.087823,0.000000
4.080000,3.008449,-0.195626,-1.511883,0.801039,-0.078699,0.103562,-1.713033,0.606755,-0.207618,0.988989,-0.638230,-0.281225,13.423411,-12.031557,4.051204,0.059631,0.169364,0.000000,-0.063223,-0.100406,0.000000
4.090000,3.016374,-0.196383,-1.510858,0.783960,-0.072666,0.101472,-1.702482,0.599782,-0.210228,1.120302,-0.755250,-0.240566,12.837268,-11.372006,4.076431,0.058943,0.168297,0.000000,-0.074336,-0.112436,0.000000
4.100000,3.024128,-0.197080,-1.509854,0.766994,-0.066707,0.099359,-1.690647,0.591672,-0.212429,1.245701,-0.865665,-0.199777,12.240913,-10.710956,4.077249,0.058147,0.167113,0.000000,-0.084824,-0.123912,-0.000000
4.110000,3.031714,-0.197717,-1.508871,0.750151,-0.060836,0.097225,-1.677589,0.582492,-0.214222,1.364993,-0.969351,-0.158931,11.639040,-10.053105,4.050468,0.057249,0.165817,0.000000,-0.094677,-0.134820,0.000000
4.120000,3.039132,-0.198297,-1.507910,0.733446,-0.055061,0.095075,-1.663367,0.572307,-0.215609,1.478348,-1.066598,-0.118652,11.030964,-9.396756,4.001887,0.056255,0.164414,0.000000,-0.103931,-0.145188,0.000000
4.130000,3.046383,-0.198819,-1.506970,0.716888,-0.049393,0.092914,-1.648043,0.561182,-0.216597,1.585598,-1.157295,-0.078961,10.418536,-8.743225,3.933070,0.055172,0.162910,0.000000,-0.112577,-0.155003,0.000000
4.140000,3.053470,-0.199285,-1.506051,0.700488,-0.043840,0.090745,-1.631676,0.549183,-0.217191,1.686710,-1.241476,-0.040052,9.803606,-8.093829,3.845582,0.054006,0.161311,0.000000,-0.120620,-0.164268,0.000000
4.150000,3.060394,-0.199696,-1.505155,0.684258,-0.038412,0.088571,-1.614329,0.536374,-0.217401,1.781668,-1.319190,-0.002106,9.188023,-7.449882,3.740986,0.052762,0.159622,0.000000,-0.128067,-0.172983,0.000000
4.160000,3.067156,-0.200054,-1.504280,0.668205,-0.033115,0.086398,-1.596064,0.522821,-0.217237,1.870356,-1.390390,0.034732,8.576624,-6.815407,3.620438,0.051446,0.157849,0.000000,-0.134915,-0.181141,0.000000
4.170000,3.073758,-0.200359,-1.503427,0.652339,-0.027958,0.084228,-1.576942,0.508587,-0.216711,1.953076,-1.455403,0.070275,7.967907,-6.188682,3.485962,0.050065,0.155996,0.000000,-0.141195,-0.188773,0.000000
4.180000,3.080203,-0.200613,-1.502595,0.636669,-0.022946,0.082065,-1.557023,0.493734,-0.215836,2.029728,-1.514192,0.104410,7.363355,-5.570692,3.339169,0.048624,0.154070,0.000000,-0.146903,-0.195871,-0.000000
4.190000,3.086492,-0.200818,-1.501786,0.621201,-0.018085,0.079912,-1.536368,0.478324,-0.214627,2.100362,-1.566849,0.137022,6.764453,-4.962422,3.181675,0.047129,0.152076,0.000000,-0.152048,-0.202440,-0.000000
4.200000,3.092628,-0.200975,-1.500997,0.605944,-0.013381,0.077773,-1.515036,0.462417,-0.213101,2.165041,-1.613476,0.168013,6.172684,-4.364858,3.015093,0.045585,0.150019,0.000000,-0.156638,-0.208486,-0.000000
4.210000,3.098612,-0.201086,-1.500230,0.590903,-0.008838,0.075651,-1.493088,0.446075,-0.211274,2.223722,-1.654095,0.197214,5.592622,-3.781265,2.843180,0.043998,0.147904,0.000000,-0.160673,-0.214006,-0.000000
4.220000,3.104447,-0.201153,-1.499484,0.576084,-0.004461,0.073549,-1.470580,0.429355,-0.209162,2.276788,-1.689041,0.224761,5.022283,-3.210068,2.665144,0.042374,0.145736,0.000000,-0.164183,-0.219031,0.000000
4.230000,3.110134,-0.201176,-1.498759,0.561493,-0.000252,0.071469,-1.447571,0.412313,-0.206785,2.324204,-1.718340,0.250501,4.462774,-2.651971,2.482338,0.040716,0.143521,0.000000,-0.167169,-0.223559,0.000000
4.240000,3.115677,-0.201158,-1.498055,0.547134,0.003785,0.069414,-1.424115,0.395006,-0.204159,2.366083,-1.742127,0.274396,3.915200,-2.107678,2.296113,0.039032,0.141263,0.000000,-0.169640,-0.227597,0.000000
4.250000,3.121078,-0.201101,-1.497371,0.533012,0.007647,0.067387,-1.400267,0.377488,-0.201303,2.402551,-1.760542,0.296417,3.380668,-1.577896,2.107821,0.037325,0.138967,0.000000,-0.171607,-0.231156,0.000000
4.260000,3.126338,-0.201006,-1.496707,0.519130,0.011334,0.065389,-1.376083,0.359814,-0.198238,2.433622,-1.773662,0.316417,2.863373,-1.065184,1.922159,0.035602,0.136638,0.000000,-0.173075,-0.234235,0.000000
4.270000,3.131461,-0.200875,-1.496063,0.505491,0.014843,0.063423,-1.351612,0.342032,-0.194981,2.459731,-1.781815,0.334711,2.360954,-0.568165,1.736723,0.033865,0.134281,0.000000,-0.174072,-0.236870,0.000000
4.280000,3.136449,-0.200710,-1.495438,0.492098,0.018174,0.061490,-1.326904,0.324194,-0.191550,2.480893,-1.785079,0.351156,1.874137,-0.087318,1.552456,0.032122,0.131900,0.000000,-0.174602,-0.239059,-0.000000
4.290000,3.141304,-0.200512,-1.494833,0.478953,0.021327,0.059592,-1.302010,0.306346,-0.187964,2.497268,-1.783617,0.365767,1.403650,0.376879,1.370298,0.030375,0.129499,0.000000,-0.174678,-0.240816,-0.000000
4.300000,3.146029,-0.200284,-1.494246,0.466058,0.024301,0.057731,-1.276975,0.288536,-0.184241,2.509023,-1.777599,0.378572,0.950222,0.823949,1.191193,0.028630,0.127082,0.000000,-0.174314,-0.242153,-0.000000
4.310000,3.150626,-0.200027,-1.493678,0.453414,0.027098,0.055908,-1.251845,0.270810,-0.180400,2.516214,-1.767130,0.389468,0.517553,1.251721,1.019527,0.026890,0.124655,0.000000,-0.173517,-0.243072,0.000000
4.320000,3.155098,-0.199742,-1.493128,0.441022,0.029718,0.054123,-1.226664,0.253208,-0.176457,2.519301,-1.752548,0.398824,0.103033,1.661617,0.852375,0.025161,0.122221,0.000000,-0.172316,-0.243612,0.000000
4.330000,3.159447,-0.199433,-1.492595,0.428881,0.032163,0.052379,-1.201473,0.235772,-0.172429,2.518336,-1.733958,0.406532,-0.292974,2.053364,0.690257,0.023445,0.119783,0.000000,-0.170719,-0.243776,-0.000000
4.340000,3.163677,-0.199100,-1.492080,0.416992,0.034434,0.050675,-1.176311,0.218541,-0.168332,2.513505,-1.711542,0.412647,-0.670106,2.426691,0.533693,0.021748,0.117345,0.000000,-0.168742,-0.243578,-0.000000
4.350000,3.167788,-0.198745,-1.491582,0.405355,0.036534,0.049012,-1.151215,0.201553,-0.164181,2.504998,-1.685487,0.417227,-1.027999,2.781328,0.383204,0.020072,0.114911,0.000000,-0.166401,-0.243033,-0.000000
4.360000,3.171784,-0.198370,-1.491100,0.393968,0.038466,0.047391,-1.126223,0.184844,-0.159993,2.492897,-1.655918,0.420221,-1.363439,3.115452,0.242153,0.018421,0.112484,0.000000,-0.163704,-0.242147,-0.000000
4.370000,3.175668,-0.197976,-1.490634,0.382830,0.040232,0.045813,-1.101368,0.168446,-0.155781,2.477668,-1.623172,0.421965,-1.679263,3.430534,0.107869,0.016799,0.110068,0.000000,-0.160685,-0.240961,-0.000000
4.380000,3.179442,-0.197566,-1.490183,0.371940,0.041836,0.044276,-1.076680,0.152391,-0.151558,2.459378,-1.587371,0.422401,-1.975454,3.726491,-0.019477,0.015208,0.107666,0.000000,-0.157352,-0.239478,0.000000
4.390000,3.183108,-0.197140,-1.489748,0.361296,0.043281,0.042781,-1.052190,0.136708,-0.147337,2.438224,-1.548706,0.421599,-2.252000,4.003243,-0.139712,0.013652,0.105279,0.000000,-0.153723,-0.237716,-0.000000
4.400000,3.186669,-0.196700,-1.489328,0.350895,0.044572,0.041329,-1.027925,0.121425,-0.143130,2.414403,-1.507370,0.419631,-2.508884,4.260707,-0.252664,0.012135,0.102912,0.000000,-0.149816,-0.235692,0.000000
4.410000,3.190127,-0.196249,-1.488921,0.340736,0.045711,0.039919,-1.003911,0.106569,-0.138949,2.388006,-1.463503,0.416494,-2.743413,4.497449,-0.356207,0.010657,0.100566,0.000000,-0.145644,-0.233412,0.000000
4.420000,3.193484,-0.195787,-1.488529,0.330816,0.046705,0.038550,-0.980172,0.092163,-0.134804,2.359480,-1.417425,0.412445,-2.958580,4.714907,-0.452363,0.009222,0.098244,0.000000,-0.141237,-0.230917,0.000000
4.430000,3.196744,-0.195315,-1.488150,0.321132,0.047556,0.037223,-0.956729,0.078228,-0.130703,2.328898,-1.369269,0.407471,-3.154699,4.913166,-0.541199,0.007833,0.095948,0.000000,-0.136609,-0.228213,0.000000
4.440000,3.199908,-0.194836,-1.487785,0.311680,0.048271,0.035936,-0.933600,0.064784,-0.126657,2.296448,-1.319225,0.401645,-3.332083,5.092309,-0.622783,0.006491,0.093680,0.000000,-0.131776,-0.225317,0.000000
4.450000,3.202978,-0.194350,-1.487431,0.302459,0.048853,0.034689,-0.910805,0.051849,-0.122673,2.262317,-1.267486,0.395039,-3.491045,5.252423,-0.697182,0.005198,0.091442,0.000000,-0.126758,-0.222246,0.000000
4.460000,3.205957,-0.193859,-1.487091,0.293463,0.049309,0.033482,-0.888360,0.039440,-0.118759,2.226595,-1.214190,0.387681,-3.629572,5.392328,-0.763362,0.003956,0.089236,0.000000,-0.121570,-0.219009,0.000000
4.470000,3.208848,-0.193365,-1.486762,0.284690,0.049644,0.032314,-0.866278,0.027569,-0.114921,2.189680,-1.159645,0.379746,-3.750590,5.513527,-0.822627,0.002767,0.087062,0.000000,-0.116240,-0.215641,0.000000
4.480000,3.211652,-0.192867,-1.486444,0.276136,0.049863,0.031183,-0.844570,0.016250,-0.111166,2.151640,-1.103981,0.371251,-3.854697,5.616258,-0.875179,0.001632,0.084923,0.000000,-0.110783,-0.212151,0.000000
4.490000,3.214372,-0.192368,-1.486138,0.267798,0.049971,0.030090,-0.823248,0.005493,-0.107498,2.112641,-1.047381,0.362264,-3.942493,5.700760,-0.921220,0.000552,0.082820,0.000000,-0.105218,-0.208552,-0.000000
4.500000,3.217009,-0.191868,-1.485842,0.259670,0.049974,0.029033,-0.802320,-0.004695,-0.103922,2.072843,-0.990026,0.352848,-4.014576,5.767273,-0.960952,-0.000472,0.080753,0.000000,-0.099561,-0.204862,-0.000000
4.510000,3.219566,-0.191368,-1.485557,0.251750,0.049879,0.028011,-0.781794,-0.014305,-0.100442,2.032325,-0.932054,0.343046,-4.069649,5.815007,-0.994100,-0.001439,0.078723,0.000000,-0.093829,-0.201087,-0.000000
4.520000,3.222044,-0.190871,-1.485282,0.244033,0.049690,0.027024,-0.761675,-0.023334,-0.097062,1.991413,-0.873738,0.332964,-4.110438,5.845356,-1.021402,-0.002348,0.076731,0.000000,-0.088048,-0.197259,-0.000000
4.530000,3.224447,-0.190375,-1.485017,0.236515,0.049414,0.026070,-0.741967,-0.031779,-0.093784,1.950161,-0.815204,0.322637,-4.137775,5.858682,-1.043120,-0.003200,0.074778,0.000000,-0.082232,-0.193384,0.000000
4.540000,3.226775,-0.189883,-1.484760,0.229192,0.049057,0.025148,-0.722673,-0.039638,-0.090610,1.908699,-0.756620,0.312119,-4.152491,5.855352,-1.059513,-0.003993,0.072864,0.000000,-0.076399,-0.189474,-0.000000
4.550000,3.229031,-0.189394,-1.484513,0.222060,0.048623,0.024257,-0.703793,-0.046912,-0.087542,1.867150,-0.698151,0.301463,-4.155416,5.835730,-1.070842,-0.004728,0.070988,0.000000,-0.070565,-0.185542,0.000000
4.560000,3.231217,-0.188910,-1.484275,0.215115,0.048120,0.023397,-0.685330,-0.053602,-0.084581,1.825574,-0.639929,0.290713,-4.146031,5.799446,-1.077237,-0.005404,0.069153,0.000000,-0.064745,-0.181594,0.000000
4.570000,3.233334,-0.188432,-1.484045,0.208352,0.047553,0.022565,-0.667281,-0.059712,-0.081728,1.784202,-0.582181,0.279928,-4.126682,5.747688,-1.079106,-0.006023,0.067356,0.000000,-0.058962,-0.177652,0.000000
4.580000,3.235385,-0.187959,-1.483824,0.201768,0.046928,0.021762,-0.649645,-0.065248,-0.078983,1.743070,-0.525025,0.269145,-4.098368,5.680913,-1.076725,-0.006584,0.065600,0.000000,-0.053230,-0.173722,0.000000
4.590000,3.237370,-0.187494,-1.483610,0.195358,0.046250,0.020985,-0.632419,-0.070215,-0.076345,1.702262,-0.468611,0.258407,-4.062082,5.599574,-1.070372,-0.007088,0.063882,0.000000,-0.047563,-0.169812,0.000000
4.600000,3.239292,-0.187035,-1.483404,0.189118,0.045526,0.020235,-0.615599,-0.074623,-0.073814,1.661852,-0.413081,0.247750,-4.018823,5.504127,-1.060323,-0.007535,0.062203,0.000000,-0.041977,-0.165929,0.000000
4.610000,3.241153,-0.186583,-1.483205,0.183045,0.044760,0.019509,-0.599181,-0.078480,-0.071389,1.621878,-0.358558,0.237211,-3.968914,5.394623,-1.046847,-0.007927,0.060563,0.000000,-0.036486,-0.162078,0.000000
4.620000,3.242954,-0.186140,-1.483014,0.177133,0.043958,0.018806,-0.583159,-0.081798,-0.069069,1.582460,-0.305214,0.226823,-3.914106,5.271970,-1.030229,-0.008265,0.058961,0.000000,-0.031106,-0.158271,-0.000000
4.630000,3.244696,-0.185704,-1.482829,0.171380,0.043125,0.018127,-0.567529,-0.084589,-0.066852,1.543609,-0.253161,0.216616,-3.855478,5.136671,-1.010749,-0.008550,0.057397,0.000000,-0.025851,-0.154510,-0.000000
4.640000,3.246382,-0.185277,-1.482651,0.165781,0.042268,0.017469,-0.552285,-0.086866,-0.064736,1.505359,-0.202521,0.206617,-3.794108,4.989231,-0.988684,-0.008783,0.055871,0.000000,-0.020733,-0.150798,-0.000000
4.650000,3.248012,-0.184859,-1.482480,0.160333,0.041390,0.016832,-0.537420,-0.088644,-0.062719,1.467732,-0.153415,0.196850,-3.731073,4.830154,-0.964311,-0.008965,0.054381,0.000000,-0.015766,-0.147138,0.000000
4.660000,3.249589,-0.184449,-1.482314,0.155032,0.040496,0.016214,-0.522928,-0.089939,-0.060799,1.430756,-0.105953,0.187338,-3.667850,4.659893,-0.937910,-0.009099,0.052928,0.000000,-0.010960,-0.143534,0.000000
4.670000,3.251114,-0.184049,-1.482155,0.149873,0.039593,0.015616,-0.508803,-0.090769,-0.058972,1.394392,-0.060250,0.178098,-3.605072,4.479010,-0.909756,-0.009185,0.051510,0.000000,-0.006328,-0.139982,-0.000000
4.680000,3.252587,-0.183658,-1.482002,0.144854,0.038683,0.015035,-0.495038,-0.091151,-0.057236,1.358649,-0.016407,0.169147,-3.543769,4.288015,-0.880130,-0.009226,0.050128,0.000000,-0.001882,-0.136484,0.000000
4.690000,3.254011,-0.183275,-1.481855,0.139971,0.037771,0.014471,-0.481628,-0.091104,-0.055588,1.323508,0.025478,0.160499,-3.484970,4.087418,-0.849307,-0.009223,0.048780,0.000000,0.002369,-0.133037,0.000000
4.700000,3.255387,-0.182902,-1.481713,0.135221,0.036862,0.013923,-0.468566,-0.090648,-0.054025,1.288938,0.065311,0.152164,-3.429707,3.877730,-0.817567,-0.009179,0.047467,0.000000,0.006415,-0.129640,-0.000000
4.710000,3.256716,-0.182538,-1.481576,0.130599,0.035959,0.013390,-0.455846,-0.089805,-0.052543,1.254990,0.102954,0.144152,-3.381321,3.660721,-0.785242,-0.009096,0.046187,0.000000,0.010241,-0.126298,-0.000000
4.720000,3.257999,-0.182183,-1.481445,0.126103,0.035067,0.012871,-0.443465,-0.088596,-0.051141,1.221397,0.138442,0.136463,-3.338247,3.435486,-0.752547,-0.008975,0.044941,0.000000,0.013850,-0.122984,0.000000
4.730000,3.259238,-0.181837,-1.481319,0.121729,0.034189,0.012367,-0.431417,-0.087044,-0.049813,1.188205,0.171638,0.129102,-3.301232,3.202383,-0.719755,-0.008819,0.043727,0.000000,0.017228,-0.119703,-0.000000
4.740000,3.260434,-0.181499,-1.481197,0.117473,0.033327,0.011875,-0.419700,-0.085171,-0.048557,1.155350,0.202465,0.122067,-3.271021,2.961767,-0.687138,-0.008631,0.042546,0.000000,0.020367,-0.116450,0.000000
4.750000,3.261588,-0.181170,-1.481081,0.113333,0.032486,0.011395,-0.408309,-0.083003,-0.047371,1.122759,0.230849,0.115357,-3.248363,2.713994,-0.654965,-0.008413,0.041398,0.000000,0.023259,-0.113217,0.000000
4.760000,3.262701,-0.180849,-1.480969,0.109306,0.031668,0.010927,-0.397238,-0.080561,-0.046249,1.090904,0.256868,0.108960,-3.247874,2.455721,-0.623356,-0.008167,0.040281,0.000000,0.025912,-0.110053,-0.000000
4.770000,3.263775,-0.180537,-1.480862,0.105387,0.030876,0.010470,-0.386491,-0.077874,-0.045190,1.058397,0.280109,0.102880,-3.254732,2.191457,-0.592753,-0.007896,0.039197,0.000000,0.028283,-0.106818,-0.000000
4.780000,3.264810,-0.180232,-1.480760,0.101575,0.030111,0.010023,-0.376070,-0.074968,-0.044191,1.025788,0.300680,0.097100,-3.267985,1.922011,-0.563448,-0.007602,0.038145,0.000000,0.030384,-0.103567,-0.000000
4.790000,3.265807,-0.179934,-1.480662,0.097865,0.029377,0.009586,-0.365976,-0.071870,-0.043247,0.993019,0.318534,0.091606,-3.286683,1.648192,-0.535728,-0.007289,0.037126,0.000000,0.032209,-0.100295,-0.000000
4.800000,3.266767,-0.179644,-1.480568,0.094254,0.028674,0.009158,-0.356211,-0.068606,-0.042358,0.960039,0.333632,0.086379,-3.309873,1.370809,-0.509886,-0.006959,0.036139,0.000000,0.033754,-0.096996,-0.000000
4.810000,3.267692,-0.179361,-1.480479,0.090739,0.028005,0.008739,-0.346762,-0.065210,-0.041519,0.928155,0.345630,0.081427,-3.370591,1.098543,-0.486879,-0.006615,0.035184,0.000000,0.034984,-0.093805,0.000000
4.820000,3.268582,-0.179084,-1.480393,0.087317,0.027371,0.008328,-0.337650,-0.061703,-0.040728,0.894150,0.355242,0.076664,-3.429737,0.823366,-0.466247,-0.006260,0.034263,0.000000,0.035972,-0.090395,0.000000
4.830000,3.269439,-0.178813,-1.480312,0.083985,0.026772,0.007924,-0.328880,-0.058114,-0.039985,0.859583,0.362087,0.072094,-3.482197,0.545126,-0.448198,-0.005897,0.033377,0.000000,0.036678,-0.086925,0.000000
4.840000,3.270262,-0.178548,-1.480235,0.080739,0.026209,0.007528,-0.320459,-0.054471,-0.039286,0.824545,0.366134,0.067690,-3.522859,0.263668,-0.432941,-0.005527,0.032525,0.000000,0.037100,-0.083403,-0.000000
4.850000,3.271054,-0.178289,-1.480162,0.077575,0.025682,0.007138,-0.312391,-0.050801,-0.038630,0.789182,0.367349,0.063425,-3.546609,-0.021163,-0.420684,-0.005156,0.031709,0.000000,0.037234,-0.079845,-0.000000
4.860000,3.271814,-0.178034,-1.480092,0.074490,0.025193,0.006755,-0.304676,-0.047133,-0.038017,0.753687,0.365699,0.059266,-3.548334,-0.309522,-0.411634,-0.004784,0.030928,0.000000,0.037076,-0.076272,-0.000000
4.870000,3.272544,-0.177785,-1.480027,0.071480,0.024739,0.006378,-0.297317,-0.043496,-0.037445,0.718306,0.361146,0.055181,-3.522921,-0.601563,-0.406002,-0.004415,0.030183,0.000000,0.036622,-0.072707,-0.000000
4.880000,3.273244,-0.177540,-1.479965,0.068542,0.024322,0.006006,-0.290309,-0.039920,-0.036913,0.683336,0.353655,0.051134,-3.465257,-0.897440,-0.403993,-0.004052,0.029474,0.000000,0.035870,-0.069182,0.000000
4.890000,3.273915,-0.177298,-1.479906,0.065673,0.023941,0.005639,-0.283647,-0.036433,-0.036422,0.649125,0.343184,0.047088,-3.370228,-1.197309,-0.405818,-0.003699,0.028799,0.000000,0.034814,-0.065732,-0.000000
4.900000,3.274557,-0.177061,-1.479852,0.062868,0.023593,0.005277,-0.277322,-0.033066,-0.035972,0.616073,0.329695,0.043004,-3.232721,-1.501324,-0.411683,-0.003357,0.028159,0.000000,0.033451,-0.062398,0.000000
4.910000,3.275172,-0.176826,-1.479801,0.060125,0.023279,0.004920,-0.271320,-0.029850,-0.035562,0.584629,0.313143,0.038840,-3.047623,-1.809639,-0.421798,-0.003031,0.027551,0.000000,0.031776,-0.059226,0.000000
4.920000,3.275760,-0.176595,-1.479753,0.057441,0.022996,0.004566,-0.265623,-0.026814,-0.035195,0.555296,0.293487,0.034553,-2.809821,-2.122409,-0.436370,-0.002723,0.026973,0.000000,0.029785,-0.056267,-0.000000
4.930000,3.276321,-0.176366,-1.479709,0.054812,0.022742,0.004216,-0.260206,-0.023990,-0.034872,0.528626,0.270680,0.030097,-2.514201,-2.439788,-0.455607,-0.002436,0.026424,0.000000,0.027474,-0.053577,0.000000
4.940000,3.276857,-0.176140,-1.479669,0.052236,0.022515,0.003868,-0.255039,-0.021411,-0.034594,0.505222,0.244675,0.025425,-2.155651,-2.761932,-0.479719,-0.002174,0.025901,0.000000,0.024837,-0.051218,0.000000
4.950000,3.277366,-0.175916,-1.479632,0.049710,0.022313,0.003524,-0.250088,-0.019108,-0.034364,0.485739,0.215425,0.020486,-1.729057,-3.088995,-0.508913,-0.001940,0.025399,0.000000,0.021869,-0.049257,0.000000
4.960000,3.277851,-0.175694,-1.479599,0.047233,0.022132,0.003181,-0.245309,-0.017113,-0.034185,0.470884,0.182879,0.015229,-1.229307,-3.421130,-0.543397,-0.001738,0.024914,0.000000,0.018567,-0.047765,0.000000
4.970000,3.278311,-0.175473,-1.479568,0.044804,0.021969,0.002840,-0.240653,-0.015461,-0.034061,0.461414,0.146985,0.009600,-0.651286,-3.758494,-0.583380,-0.001570,0.024442,0.000000,0.014923,-0.046820,-0.000000
4.980000,3.278747,-0.175254,-1.479542,0.042420,0.021821,0.002500,-0.236060,-0.014185,-0.033995,0.458137,0.107691,0.003542,0.010119,-4.101240,-0.629070,-0.001441,0.023976,0.000000,0.010934,-0.046504,0.000000
4.990000,3.279160,-0.175037,-1.479518,0.040082,0.021684,0.002160,-0.231466,-0.013319,-0.033992,0.461912,0.064942,-0.003001,0.760020,-4.449523,-0.680675,-0.001353,0.023509,0.000000,0.006594,-0.046904,-0.000000
5.000000,3.279549,-0.174821,-1.479499,0.037791,0.021554,0.001820,-0.226796,-0.012898,-0.034057,0.473649,0.018681,-0.010091,1.603530,-4.803498,-0.738403,-0.001310,0.023035,0.000000,0.001897,-0.048113,-0.000000
